--- '{"Relationship":{"class":"Relationship","uri":{"scheme":"http","authority":"www.assero.co.uk","path":"MDRSdtmMd/CDISC/V3","prefix":"M","uid":"CDISC_SDTMMODELRELATIONSHIP","version":""},"children":{"STUDYID":{"scheme":"http","authority":"www.assero.co.uk","path":"MDRSdtmMd/CDISC/V3","prefix":"M","uid":"CDISC_SDTMMODELRELATIONSHIP_STUDYID","version":""},"DOMAIN":{"scheme":"http","authority":"www.assero.co.uk","path":"MDRSdtmMd/CDISC/V3","prefix":"M","uid":"CDISC_SDTMMODELRELATIONSHIP_DOMAIN","version":""},"USUBJID":{"scheme":"http","authority":"www.assero.co.uk","path":"MDRSdtmMd/CDISC/V3","prefix":"M","uid":"CDISC_SDTMMODELRELATIONSHIP_USUBJID","version":""},"POOLID":{"scheme":"http","authority":"www.assero.co.uk","path":"MDRSdtmMd/CDISC/V3","prefix":"M","uid":"CDISC_SDTMMODELRELATIONSHIP_POOLID","version":""},"SPDEVID":{"scheme":"http","authority":"www.assero.co.uk","path":"MDRSdtmMd/CDISC/V3","prefix":"M","uid":"CDISC_SDTMMODELRELATIONSHIP_SPDEVID","version":""},"--SEQ":{"scheme":"http","authority":"www.assero.co.uk","path":"MDRSdtmMd/CDISC/V3","prefix":"M","uid":"CDISC_SDTMMODELRELATIONSHIP_xxSEQ","version":""},"--GRPID":{"scheme":"http","authority":"www.assero.co.uk","path":"MDRSdtmMd/CDISC/V3","prefix":"M","uid":"CDISC_SDTMMODELRELATIONSHIP_xxGRPID","version":""},"--REFID":{"scheme":"http","authority":"www.assero.co.uk","path":"MDRSdtmMd/CDISC/V3","prefix":"M","uid":"CDISC_SDTMMODELRELATIONSHIP_xxREFID","version":""},"--SPID":{"scheme":"http","authority":"www.assero.co.uk","path":"MDRSdtmMd/CDISC/V3","prefix":"M","uid":"CDISC_SDTMMODELRELATIONSHIP_xxSPID","version":""},"--LNKID":{"scheme":"http","authority":"www.assero.co.uk","path":"MDRSdtmMd/CDISC/V3","prefix":"M","uid":"CDISC_SDTMMODELRELATIONSHIP_xxLNKID","version":""},"--LNKGRP":{"scheme":"http","authority":"www.assero.co.uk","path":"MDRSdtmMd/CDISC/V3","prefix":"M","uid":"CDISC_SDTMMODELRELATIONSHIP_xxLNKGRP","version":""},"RDOMAIN":{"scheme":"http","authority":"www.assero.co.uk","path":"MDRSdtmMd/CDISC/V3","prefix":"M","uid":"CDISC_SDTMMODELRELATIONSHIP_RDOMAIN","version":""},"APID":{"scheme":"http","authority":"www.assero.co.uk","path":"MDRSdtmMd/CDISC/V3","prefix":"M","uid":"CDISC_SDTMMODELRELATIONSHIP_APID","version":""},"IDVAR":{"scheme":"http","authority":"www.assero.co.uk","path":"MDRSdtmMd/CDISC/V3","prefix":"M","uid":"CDISC_SDTMMODELRELATIONSHIP_IDVAR","version":""},"IDVARVAL":{"scheme":"http","authority":"www.assero.co.uk","path":"MDRSdtmMd/CDISC/V3","prefix":"M","uid":"CDISC_SDTMMODELRELATIONSHIP_IDVARVAL","version":""},"RELTYPE":{"scheme":"http","authority":"www.assero.co.uk","path":"MDRSdtmMd/CDISC/V3","prefix":"M","uid":"CDISC_SDTMMODELRELATIONSHIP_RELTYPE","version":""},"RELID":{"scheme":"http","authority":"www.assero.co.uk","path":"MDRSdtmMd/CDISC/V3","prefix":"M","uid":"CDISC_SDTMMODELRELATIONSHIP_RELID","version":""},"QNAM":{"scheme":"http","authority":"www.assero.co.uk","path":"MDRSdtmMd/CDISC/V3","prefix":"M","uid":"CDISC_SDTMMODELRELATIONSHIP_QNAM","version":""},"QLABEL":{"scheme":"http","authority":"www.assero.co.uk","path":"MDRSdtmMd/CDISC/V3","prefix":"M","uid":"CDISC_SDTMMODELRELATIONSHIP_QLABEL","version":""},"QVAL":{"scheme":"http","authority":"www.assero.co.uk","path":"MDRSdtmMd/CDISC/V3","prefix":"M","uid":"CDISC_SDTMMODELRELATIONSHIP_QVAL","version":""},"QORIG":{"scheme":"http","authority":"www.assero.co.uk","path":"MDRSdtmMd/CDISC/V3","prefix":"M","uid":"CDISC_SDTMMODELRELATIONSHIP_QORIG","version":""},"QEVAL":{"scheme":"http","authority":"www.assero.co.uk","path":"MDRSdtmMd/CDISC/V3","prefix":"M","uid":"CDISC_SDTMMODELRELATIONSHIP_QEVAL","version":""}}},"Events":{"class":"Events","uri":{"scheme":"http","authority":"www.assero.co.uk","path":"MDRSdtmMd/CDISC/V3","prefix":"M","uid":"CDISC_SDTMMODELEVENTS","version":""},"children":{"STUDYID":{"scheme":"http","authority":"www.assero.co.uk","path":"MDRSdtmMd/CDISC/V3","prefix":"M","uid":"CDISC_SDTMMODELEVENTS_STUDYID","version":""},"DOMAIN":{"scheme":"http","authority":"www.assero.co.uk","path":"MDRSdtmMd/CDISC/V3","prefix":"M","uid":"CDISC_SDTMMODELEVENTS_DOMAIN","version":""},"USUBJID":{"scheme":"http","authority":"www.assero.co.uk","path":"MDRSdtmMd/CDISC/V3","prefix":"M","uid":"CDISC_SDTMMODELEVENTS_USUBJID","version":""},"POOLID":{"scheme":"http","authority":"www.assero.co.uk","path":"MDRSdtmMd/CDISC/V3","prefix":"M","uid":"CDISC_SDTMMODELEVENTS_POOLID","version":""},"SPDEVID":{"scheme":"http","authority":"www.assero.co.uk","path":"MDRSdtmMd/CDISC/V3","prefix":"M","uid":"CDISC_SDTMMODELEVENTS_SPDEVID","version":""},"--SEQ":{"scheme":"http","authority":"www.assero.co.uk","path":"MDRSdtmMd/CDISC/V3","prefix":"M","uid":"CDISC_SDTMMODELEVENTS_xxSEQ","version":""},"--GRPID":{"scheme":"http","authority":"www.assero.co.uk","path":"MDRSdtmMd/CDISC/V3","prefix":"M","uid":"CDISC_SDTMMODELEVENTS_xxGRPID","version":""},"--REFID":{"scheme":"http","authority":"www.assero.co.uk","path":"MDRSdtmMd/CDISC/V3","prefix":"M","uid":"CDISC_SDTMMODELEVENTS_xxREFID","version":""},"--SPID":{"scheme":"http","authority":"www.assero.co.uk","path":"MDRSdtmMd/CDISC/V3","prefix":"M","uid":"CDISC_SDTMMODELEVENTS_xxSPID","version":""},"--LNKID":{"scheme":"http","authority":"www.assero.co.uk","path":"MDRSdtmMd/CDISC/V3","prefix":"M","uid":"CDISC_SDTMMODELEVENTS_xxLNKID","version":""},"--LNKGRP":{"scheme":"http","authority":"www.assero.co.uk","path":"MDRSdtmMd/CDISC/V3","prefix":"M","uid":"CDISC_SDTMMODELEVENTS_xxLNKGRP","version":""},"--TERM":{"scheme":"http","authority":"www.assero.co.uk","path":"MDRSdtmMd/CDISC/V3","prefix":"M","uid":"CDISC_SDTMMODELEVENTS_xxTERM","version":""},"--MODIFY":{"scheme":"http","authority":"www.assero.co.uk","path":"MDRSdtmMd/CDISC/V3","prefix":"M","uid":"CDISC_SDTMMODELEVENTS_xxMODIFY","version":""},"--LLT":{"scheme":"http","authority":"www.assero.co.uk","path":"MDRSdtmMd/CDISC/V3","prefix":"M","uid":"CDISC_SDTMMODELEVENTS_xxLLT","version":""},"--LLTCD":{"scheme":"http","authority":"www.assero.co.uk","path":"MDRSdtmMd/CDISC/V3","prefix":"M","uid":"CDISC_SDTMMODELEVENTS_xxLLTCD","version":""},"--DECOD":{"scheme":"http","authority":"www.assero.co.uk","path":"MDRSdtmMd/CDISC/V3","prefix":"M","uid":"CDISC_SDTMMODELEVENTS_xxDECOD","version":""},"--PTCD":{"scheme":"http","authority":"www.assero.co.uk","path":"MDRSdtmMd/CDISC/V3","prefix":"M","uid":"CDISC_SDTMMODELEVENTS_xxPTCD","version":""},"--HLT":{"scheme":"http","authority":"www.assero.co.uk","path":"MDRSdtmMd/CDISC/V3","prefix":"M","uid":"CDISC_SDTMMODELEVENTS_xxHLT","version":""},"--HLTCD":{"scheme":"http","authority":"www.assero.co.uk","path":"MDRSdtmMd/CDISC/V3","prefix":"M","uid":"CDISC_SDTMMODELEVENTS_xxHLTCD","version":""},"--HLGT":{"scheme":"http","authority":"www.assero.co.uk","path":"MDRSdtmMd/CDISC/V3","prefix":"M","uid":"CDISC_SDTMMODELEVENTS_xxHLGT","version":""},"--HLGTCD":{"scheme":"http","authority":"www.assero.co.uk","path":"MDRSdtmMd/CDISC/V3","prefix":"M","uid":"CDISC_SDTMMODELEVENTS_xxHLGTCD","version":""},"--CAT":{"scheme":"http","authority":"www.assero.co.uk","path":"MDRSdtmMd/CDISC/V3","prefix":"M","uid":"CDISC_SDTMMODELEVENTS_xxCAT","version":""},"--SCAT":{"scheme":"http","authority":"www.assero.co.uk","path":"MDRSdtmMd/CDISC/V3","prefix":"M","uid":"CDISC_SDTMMODELEVENTS_xxSCAT","version":""},"--PRESP":{"scheme":"http","authority":"www.assero.co.uk","path":"MDRSdtmMd/CDISC/V3","prefix":"M","uid":"CDISC_SDTMMODELEVENTS_xxPRESP","version":""},"--OCCUR":{"scheme":"http","authority":"www.assero.co.uk","path":"MDRSdtmMd/CDISC/V3","prefix":"M","uid":"CDISC_SDTMMODELEVENTS_xxOCCUR","version":""},"--STAT":{"scheme":"http","authority":"www.assero.co.uk","path":"MDRSdtmMd/CDISC/V3","prefix":"M","uid":"CDISC_SDTMMODELEVENTS_xxSTAT","version":""},"--REASND":{"scheme":"http","authority":"www.assero.co.uk","path":"MDRSdtmMd/CDISC/V3","prefix":"M","uid":"CDISC_SDTMMODELEVENTS_xxREASND","version":""},"--BODSYS":{"scheme":"http","authority":"www.assero.co.uk","path":"MDRSdtmMd/CDISC/V3","prefix":"M","uid":"CDISC_SDTMMODELEVENTS_xxBODSYS","version":""},"--BDSYCD":{"scheme":"http","authority":"www.assero.co.uk","path":"MDRSdtmMd/CDISC/V3","prefix":"M","uid":"CDISC_SDTMMODELEVENTS_xxBDSYCD","version":""},"--SOC":{"scheme":"http","authority":"www.assero.co.uk","path":"MDRSdtmMd/CDISC/V3","prefix":"M","uid":"CDISC_SDTMMODELEVENTS_xxSOC","version":""},"--SOCCD":{"scheme":"http","authority":"www.assero.co.uk","path":"MDRSdtmMd/CDISC/V3","prefix":"M","uid":"CDISC_SDTMMODELEVENTS_xxSOCCD","version":""},"--LOC":{"scheme":"http","authority":"www.assero.co.uk","path":"MDRSdtmMd/CDISC/V3","prefix":"M","uid":"CDISC_SDTMMODELEVENTS_xxLOC","version":""},"--LAT":{"scheme":"http","authority":"www.assero.co.uk","path":"MDRSdtmMd/CDISC/V3","prefix":"M","uid":"CDISC_SDTMMODELEVENTS_xxLAT","version":""},"--DIR":{"scheme":"http","authority":"www.assero.co.uk","path":"MDRSdtmMd/CDISC/V3","prefix":"M","uid":"CDISC_SDTMMODELEVENTS_xxDIR","version":""},"--PORTOT":{"scheme":"http","authority":"www.assero.co.uk","path":"MDRSdtmMd/CDISC/V3","prefix":"M","uid":"CDISC_SDTMMODELEVENTS_xxPORTOT","version":""},"--PARTY":{"scheme":"http","authority":"www.assero.co.uk","path":"MDRSdtmMd/CDISC/V3","prefix":"M","uid":"CDISC_SDTMMODELEVENTS_xxPARTY","version":""},"--PRTYID":{"scheme":"http","authority":"www.assero.co.uk","path":"MDRSdtmMd/CDISC/V3","prefix":"M","uid":"CDISC_SDTMMODELEVENTS_xxPRTYID","version":""},"--SEV":{"scheme":"http","authority":"www.assero.co.uk","path":"MDRSdtmMd/CDISC/V3","prefix":"M","uid":"CDISC_SDTMMODELEVENTS_xxSEV","version":""},"--SER":{"scheme":"http","authority":"www.assero.co.uk","path":"MDRSdtmMd/CDISC/V3","prefix":"M","uid":"CDISC_SDTMMODELEVENTS_xxSER","version":""},"--ACN":{"scheme":"http","authority":"www.assero.co.uk","path":"MDRSdtmMd/CDISC/V3","prefix":"M","uid":"CDISC_SDTMMODELEVENTS_xxACN","version":""},"--ACNOTH":{"scheme":"http","authority":"www.assero.co.uk","path":"MDRSdtmMd/CDISC/V3","prefix":"M","uid":"CDISC_SDTMMODELEVENTS_xxACNOTH","version":""},"--ACNDEV":{"scheme":"http","authority":"www.assero.co.uk","path":"MDRSdtmMd/CDISC/V3","prefix":"M","uid":"CDISC_SDTMMODELEVENTS_xxACNDEV","version":""},"--REL":{"scheme":"http","authority":"www.assero.co.uk","path":"MDRSdtmMd/CDISC/V3","prefix":"M","uid":"CDISC_SDTMMODELEVENTS_xxREL","version":""},"--RELNST":{"scheme":"http","authority":"www.assero.co.uk","path":"MDRSdtmMd/CDISC/V3","prefix":"M","uid":"CDISC_SDTMMODELEVENTS_xxRELNST","version":""},"--PATT":{"scheme":"http","authority":"www.assero.co.uk","path":"MDRSdtmMd/CDISC/V3","prefix":"M","uid":"CDISC_SDTMMODELEVENTS_xxPATT","version":""},"--OUT":{"scheme":"http","authority":"www.assero.co.uk","path":"MDRSdtmMd/CDISC/V3","prefix":"M","uid":"CDISC_SDTMMODELEVENTS_xxOUT","version":""},"--SCAN":{"scheme":"http","authority":"www.assero.co.uk","path":"MDRSdtmMd/CDISC/V3","prefix":"M","uid":"CDISC_SDTMMODELEVENTS_xxSCAN","version":""},"--SCONG":{"scheme":"http","authority":"www.assero.co.uk","path":"MDRSdtmMd/CDISC/V3","prefix":"M","uid":"CDISC_SDTMMODELEVENTS_xxSCONG","version":""},"--SDISAB":{"scheme":"http","authority":"www.assero.co.uk","path":"MDRSdtmMd/CDISC/V3","prefix":"M","uid":"CDISC_SDTMMODELEVENTS_xxSDISAB","version":""},"--SDTH":{"scheme":"http","authority":"www.assero.co.uk","path":"MDRSdtmMd/CDISC/V3","prefix":"M","uid":"CDISC_SDTMMODELEVENTS_xxSDTH","version":""},"--SHOSP":{"scheme":"http","authority":"www.assero.co.uk","path":"MDRSdtmMd/CDISC/V3","prefix":"M","uid":"CDISC_SDTMMODELEVENTS_xxSHOSP","version":""},"--SLIFE":{"scheme":"http","authority":"www.assero.co.uk","path":"MDRSdtmMd/CDISC/V3","prefix":"M","uid":"CDISC_SDTMMODELEVENTS_xxSLIFE","version":""},"--SOD":{"scheme":"http","authority":"www.assero.co.uk","path":"MDRSdtmMd/CDISC/V3","prefix":"M","uid":"CDISC_SDTMMODELEVENTS_xxSOD","version":""},"--SMIE":{"scheme":"http","authority":"www.assero.co.uk","path":"MDRSdtmMd/CDISC/V3","prefix":"M","uid":"CDISC_SDTMMODELEVENTS_xxSMIE","version":""},"--CONTRT":{"scheme":"http","authority":"www.assero.co.uk","path":"MDRSdtmMd/CDISC/V3","prefix":"M","uid":"CDISC_SDTMMODELEVENTS_xxCONTRT","version":""},"--TOX":{"scheme":"http","authority":"www.assero.co.uk","path":"MDRSdtmMd/CDISC/V3","prefix":"M","uid":"CDISC_SDTMMODELEVENTS_xxTOX","version":""},"--TOXGR":{"scheme":"http","authority":"www.assero.co.uk","path":"MDRSdtmMd/CDISC/V3","prefix":"M","uid":"CDISC_SDTMMODELEVENTS_xxTOXGR","version":""},"VISITNUM":{"scheme":"http","authority":"www.assero.co.uk","path":"MDRSdtmMd/CDISC/V3","prefix":"M","uid":"CDISC_SDTMMODELEVENTS_VISITNUM","version":""},"VISIT":{"scheme":"http","authority":"www.assero.co.uk","path":"MDRSdtmMd/CDISC/V3","prefix":"M","uid":"CDISC_SDTMMODELEVENTS_VISIT","version":""},"VISITDY":{"scheme":"http","authority":"www.assero.co.uk","path":"MDRSdtmMd/CDISC/V3","prefix":"M","uid":"CDISC_SDTMMODELEVENTS_VISITDY","version":""},"TAETORD":{"scheme":"http","authority":"www.assero.co.uk","path":"MDRSdtmMd/CDISC/V3","prefix":"M","uid":"CDISC_SDTMMODELEVENTS_TAETORD","version":""},"EPOCH":{"scheme":"http","authority":"www.assero.co.uk","path":"MDRSdtmMd/CDISC/V3","prefix":"M","uid":"CDISC_SDTMMODELEVENTS_EPOCH","version":""},"--DTC":{"scheme":"http","authority":"www.assero.co.uk","path":"MDRSdtmMd/CDISC/V3","prefix":"M","uid":"CDISC_SDTMMODELEVENTS_xxDTC","version":""},"--STDTC":{"scheme":"http","authority":"www.assero.co.uk","path":"MDRSdtmMd/CDISC/V3","prefix":"M","uid":"CDISC_SDTMMODELEVENTS_xxSTDTC","version":""},"--ENDTC":{"scheme":"http","authority":"www.assero.co.uk","path":"MDRSdtmMd/CDISC/V3","prefix":"M","uid":"CDISC_SDTMMODELEVENTS_xxENDTC","version":""},"--DY":{"scheme":"http","authority":"www.assero.co.uk","path":"MDRSdtmMd/CDISC/V3","prefix":"M","uid":"CDISC_SDTMMODELEVENTS_xxDY","version":""},"--STDY":{"scheme":"http","authority":"www.assero.co.uk","path":"MDRSdtmMd/CDISC/V3","prefix":"M","uid":"CDISC_SDTMMODELEVENTS_xxSTDY","version":""},"--ENDY":{"scheme":"http","authority":"www.assero.co.uk","path":"MDRSdtmMd/CDISC/V3","prefix":"M","uid":"CDISC_SDTMMODELEVENTS_xxENDY","version":""},"--DUR":{"scheme":"http","authority":"www.assero.co.uk","path":"MDRSdtmMd/CDISC/V3","prefix":"M","uid":"CDISC_SDTMMODELEVENTS_xxDUR","version":""},"--TPT":{"scheme":"http","authority":"www.assero.co.uk","path":"MDRSdtmMd/CDISC/V3","prefix":"M","uid":"CDISC_SDTMMODELEVENTS_xxTPT","version":""},"--TPTNUM":{"scheme":"http","authority":"www.assero.co.uk","path":"MDRSdtmMd/CDISC/V3","prefix":"M","uid":"CDISC_SDTMMODELEVENTS_xxTPTNUM","version":""},"--ELTM":{"scheme":"http","authority":"www.assero.co.uk","path":"MDRSdtmMd/CDISC/V3","prefix":"M","uid":"CDISC_SDTMMODELEVENTS_xxELTM","version":""},"--TPTREF":{"scheme":"http","authority":"www.assero.co.uk","path":"MDRSdtmMd/CDISC/V3","prefix":"M","uid":"CDISC_SDTMMODELEVENTS_xxTPTREF","version":""},"--RFTDTC":{"scheme":"http","authority":"www.assero.co.uk","path":"MDRSdtmMd/CDISC/V3","prefix":"M","uid":"CDISC_SDTMMODELEVENTS_xxRFTDTC","version":""},"--STRF":{"scheme":"http","authority":"www.assero.co.uk","path":"MDRSdtmMd/CDISC/V3","prefix":"M","uid":"CDISC_SDTMMODELEVENTS_xxSTRF","version":""},"--ENRF":{"scheme":"http","authority":"www.assero.co.uk","path":"MDRSdtmMd/CDISC/V3","prefix":"M","uid":"CDISC_SDTMMODELEVENTS_xxENRF","version":""},"--EVLINT":{"scheme":"http","authority":"www.assero.co.uk","path":"MDRSdtmMd/CDISC/V3","prefix":"M","uid":"CDISC_SDTMMODELEVENTS_xxEVLINT","version":""},"--EVINTX":{"scheme":"http","authority":"www.assero.co.uk","path":"MDRSdtmMd/CDISC/V3","prefix":"M","uid":"CDISC_SDTMMODELEVENTS_xxEVINTX","version":""},"--STRTPT":{"scheme":"http","authority":"www.assero.co.uk","path":"MDRSdtmMd/CDISC/V3","prefix":"M","uid":"CDISC_SDTMMODELEVENTS_xxSTRTPT","version":""},"--STTPT":{"scheme":"http","authority":"www.assero.co.uk","path":"MDRSdtmMd/CDISC/V3","prefix":"M","uid":"CDISC_SDTMMODELEVENTS_xxSTTPT","version":""},"--ENRTPT":{"scheme":"http","authority":"www.assero.co.uk","path":"MDRSdtmMd/CDISC/V3","prefix":"M","uid":"CDISC_SDTMMODELEVENTS_xxENRTPT","version":""},"--ENTPT":{"scheme":"http","authority":"www.assero.co.uk","path":"MDRSdtmMd/CDISC/V3","prefix":"M","uid":"CDISC_SDTMMODELEVENTS_xxENTPT","version":""},"--STINT":{"scheme":"http","authority":"www.assero.co.uk","path":"MDRSdtmMd/CDISC/V3","prefix":"M","uid":"CDISC_SDTMMODELEVENTS_xxSTINT","version":""},"--ENINT":{"scheme":"http","authority":"www.assero.co.uk","path":"MDRSdtmMd/CDISC/V3","prefix":"M","uid":"CDISC_SDTMMODELEVENTS_xxENINT","version":""},"--DETECT":{"scheme":"http","authority":"www.assero.co.uk","path":"MDRSdtmMd/CDISC/V3","prefix":"M","uid":"CDISC_SDTMMODELEVENTS_xxDETECT","version":""}}},"Special
  Purpose":{"class":"Special Purpose","uri":{"scheme":"http","authority":"www.assero.co.uk","path":"MDRSdtmMd/CDISC/V3","prefix":"M","uid":"CDISC_SDTMMODELSPECIALPURPOSE","version":""},"children":{"STUDYID":{"scheme":"http","authority":"www.assero.co.uk","path":"MDRSdtmMd/CDISC/V3","prefix":"M","uid":"CDISC_SDTMMODELSPECIALPURPOSE_STUDYID","version":""},"DOMAIN":{"scheme":"http","authority":"www.assero.co.uk","path":"MDRSdtmMd/CDISC/V3","prefix":"M","uid":"CDISC_SDTMMODELSPECIALPURPOSE_DOMAIN","version":""},"USUBJID":{"scheme":"http","authority":"www.assero.co.uk","path":"MDRSdtmMd/CDISC/V3","prefix":"M","uid":"CDISC_SDTMMODELSPECIALPURPOSE_USUBJID","version":""},"POOLID":{"scheme":"http","authority":"www.assero.co.uk","path":"MDRSdtmMd/CDISC/V3","prefix":"M","uid":"CDISC_SDTMMODELSPECIALPURPOSE_POOLID","version":""},"SPDEVID":{"scheme":"http","authority":"www.assero.co.uk","path":"MDRSdtmMd/CDISC/V3","prefix":"M","uid":"CDISC_SDTMMODELSPECIALPURPOSE_SPDEVID","version":""},"--SEQ":{"scheme":"http","authority":"www.assero.co.uk","path":"MDRSdtmMd/CDISC/V3","prefix":"M","uid":"CDISC_SDTMMODELSPECIALPURPOSE_xxSEQ","version":""},"--GRPID":{"scheme":"http","authority":"www.assero.co.uk","path":"MDRSdtmMd/CDISC/V3","prefix":"M","uid":"CDISC_SDTMMODELSPECIALPURPOSE_xxGRPID","version":""},"--REFID":{"scheme":"http","authority":"www.assero.co.uk","path":"MDRSdtmMd/CDISC/V3","prefix":"M","uid":"CDISC_SDTMMODELSPECIALPURPOSE_xxREFID","version":""},"--SPID":{"scheme":"http","authority":"www.assero.co.uk","path":"MDRSdtmMd/CDISC/V3","prefix":"M","uid":"CDISC_SDTMMODELSPECIALPURPOSE_xxSPID","version":""},"--LNKID":{"scheme":"http","authority":"www.assero.co.uk","path":"MDRSdtmMd/CDISC/V3","prefix":"M","uid":"CDISC_SDTMMODELSPECIALPURPOSE_xxLNKID","version":""},"--LNKGRP":{"scheme":"http","authority":"www.assero.co.uk","path":"MDRSdtmMd/CDISC/V3","prefix":"M","uid":"CDISC_SDTMMODELSPECIALPURPOSE_xxLNKGRP","version":""},"SUBJID":{"scheme":"http","authority":"www.assero.co.uk","path":"MDRSdtmMd/CDISC/V3","prefix":"M","uid":"CDISC_SDTMMODELSPECIALPURPOSE_SUBJID","version":""},"RFSTDTC":{"scheme":"http","authority":"www.assero.co.uk","path":"MDRSdtmMd/CDISC/V3","prefix":"M","uid":"CDISC_SDTMMODELSPECIALPURPOSE_RFSTDTC","version":""},"RFENDTC":{"scheme":"http","authority":"www.assero.co.uk","path":"MDRSdtmMd/CDISC/V3","prefix":"M","uid":"CDISC_SDTMMODELSPECIALPURPOSE_RFENDTC","version":""},"RFXSTDTC":{"scheme":"http","authority":"www.assero.co.uk","path":"MDRSdtmMd/CDISC/V3","prefix":"M","uid":"CDISC_SDTMMODELSPECIALPURPOSE_RFXSTDTC","version":""},"RFXENDTC":{"scheme":"http","authority":"www.assero.co.uk","path":"MDRSdtmMd/CDISC/V3","prefix":"M","uid":"CDISC_SDTMMODELSPECIALPURPOSE_RFXENDTC","version":""},"RFICDTC":{"scheme":"http","authority":"www.assero.co.uk","path":"MDRSdtmMd/CDISC/V3","prefix":"M","uid":"CDISC_SDTMMODELSPECIALPURPOSE_RFICDTC","version":""},"RFPENDTC":{"scheme":"http","authority":"www.assero.co.uk","path":"MDRSdtmMd/CDISC/V3","prefix":"M","uid":"CDISC_SDTMMODELSPECIALPURPOSE_RFPENDTC","version":""},"DTHDTC":{"scheme":"http","authority":"www.assero.co.uk","path":"MDRSdtmMd/CDISC/V3","prefix":"M","uid":"CDISC_SDTMMODELSPECIALPURPOSE_DTHDTC","version":""},"DTHFL":{"scheme":"http","authority":"www.assero.co.uk","path":"MDRSdtmMd/CDISC/V3","prefix":"M","uid":"CDISC_SDTMMODELSPECIALPURPOSE_DTHFL","version":""},"SITEID":{"scheme":"http","authority":"www.assero.co.uk","path":"MDRSdtmMd/CDISC/V3","prefix":"M","uid":"CDISC_SDTMMODELSPECIALPURPOSE_SITEID","version":""},"INVID":{"scheme":"http","authority":"www.assero.co.uk","path":"MDRSdtmMd/CDISC/V3","prefix":"M","uid":"CDISC_SDTMMODELSPECIALPURPOSE_INVID","version":""},"INVNAM":{"scheme":"http","authority":"www.assero.co.uk","path":"MDRSdtmMd/CDISC/V3","prefix":"M","uid":"CDISC_SDTMMODELSPECIALPURPOSE_INVNAM","version":""},"BRTHDTC":{"scheme":"http","authority":"www.assero.co.uk","path":"MDRSdtmMd/CDISC/V3","prefix":"M","uid":"CDISC_SDTMMODELSPECIALPURPOSE_BRTHDTC","version":""},"AGE":{"scheme":"http","authority":"www.assero.co.uk","path":"MDRSdtmMd/CDISC/V3","prefix":"M","uid":"CDISC_SDTMMODELSPECIALPURPOSE_AGE","version":""},"AGEU":{"scheme":"http","authority":"www.assero.co.uk","path":"MDRSdtmMd/CDISC/V3","prefix":"M","uid":"CDISC_SDTMMODELSPECIALPURPOSE_AGEU","version":""},"SEX":{"scheme":"http","authority":"www.assero.co.uk","path":"MDRSdtmMd/CDISC/V3","prefix":"M","uid":"CDISC_SDTMMODELSPECIALPURPOSE_SEX","version":""},"RACE":{"scheme":"http","authority":"www.assero.co.uk","path":"MDRSdtmMd/CDISC/V3","prefix":"M","uid":"CDISC_SDTMMODELSPECIALPURPOSE_RACE","version":""},"ETHNIC":{"scheme":"http","authority":"www.assero.co.uk","path":"MDRSdtmMd/CDISC/V3","prefix":"M","uid":"CDISC_SDTMMODELSPECIALPURPOSE_ETHNIC","version":""},"SPECIES":{"scheme":"http","authority":"www.assero.co.uk","path":"MDRSdtmMd/CDISC/V3","prefix":"M","uid":"CDISC_SDTMMODELSPECIALPURPOSE_SPECIES","version":""},"STRAIN":{"scheme":"http","authority":"www.assero.co.uk","path":"MDRSdtmMd/CDISC/V3","prefix":"M","uid":"CDISC_SDTMMODELSPECIALPURPOSE_STRAIN","version":""},"ARMCD":{"scheme":"http","authority":"www.assero.co.uk","path":"MDRSdtmMd/CDISC/V3","prefix":"M","uid":"CDISC_SDTMMODELSPECIALPURPOSE_ARMCD","version":""},"ARM":{"scheme":"http","authority":"www.assero.co.uk","path":"MDRSdtmMd/CDISC/V3","prefix":"M","uid":"CDISC_SDTMMODELSPECIALPURPOSE_ARM","version":""},"ACTARMCD":{"scheme":"http","authority":"www.assero.co.uk","path":"MDRSdtmMd/CDISC/V3","prefix":"M","uid":"CDISC_SDTMMODELSPECIALPURPOSE_ACTARMCD","version":""},"ACTARM":{"scheme":"http","authority":"www.assero.co.uk","path":"MDRSdtmMd/CDISC/V3","prefix":"M","uid":"CDISC_SDTMMODELSPECIALPURPOSE_ACTARM","version":""},"SETCD":{"scheme":"http","authority":"www.assero.co.uk","path":"MDRSdtmMd/CDISC/V3","prefix":"M","uid":"CDISC_SDTMMODELSPECIALPURPOSE_SETCD","version":""},"COUNTRY":{"scheme":"http","authority":"www.assero.co.uk","path":"MDRSdtmMd/CDISC/V3","prefix":"M","uid":"CDISC_SDTMMODELSPECIALPURPOSE_COUNTRY","version":""},"RDOMAIN":{"scheme":"http","authority":"www.assero.co.uk","path":"MDRSdtmMd/CDISC/V3","prefix":"M","uid":"CDISC_SDTMMODELSPECIALPURPOSE_RDOMAIN","version":""},"APID":{"scheme":"http","authority":"www.assero.co.uk","path":"MDRSdtmMd/CDISC/V3","prefix":"M","uid":"CDISC_SDTMMODELSPECIALPURPOSE_APID","version":""},"IDVAR":{"scheme":"http","authority":"www.assero.co.uk","path":"MDRSdtmMd/CDISC/V3","prefix":"M","uid":"CDISC_SDTMMODELSPECIALPURPOSE_IDVAR","version":""},"IDVARVAL":{"scheme":"http","authority":"www.assero.co.uk","path":"MDRSdtmMd/CDISC/V3","prefix":"M","uid":"CDISC_SDTMMODELSPECIALPURPOSE_IDVARVAL","version":""},"--REF":{"scheme":"http","authority":"www.assero.co.uk","path":"MDRSdtmMd/CDISC/V3","prefix":"M","uid":"CDISC_SDTMMODELSPECIALPURPOSE_xxREF","version":""},"--VAL":{"scheme":"http","authority":"www.assero.co.uk","path":"MDRSdtmMd/CDISC/V3","prefix":"M","uid":"CDISC_SDTMMODELSPECIALPURPOSE_xxVAL","version":""},"--EVAL":{"scheme":"http","authority":"www.assero.co.uk","path":"MDRSdtmMd/CDISC/V3","prefix":"M","uid":"CDISC_SDTMMODELSPECIALPURPOSE_xxEVAL","version":""},"ETCD":{"scheme":"http","authority":"www.assero.co.uk","path":"MDRSdtmMd/CDISC/V3","prefix":"M","uid":"CDISC_SDTMMODELSPECIALPURPOSE_ETCD","version":""},"ELEMENT":{"scheme":"http","authority":"www.assero.co.uk","path":"MDRSdtmMd/CDISC/V3","prefix":"M","uid":"CDISC_SDTMMODELSPECIALPURPOSE_ELEMENT","version":""},"--UPDES":{"scheme":"http","authority":"www.assero.co.uk","path":"MDRSdtmMd/CDISC/V3","prefix":"M","uid":"CDISC_SDTMMODELSPECIALPURPOSE_xxUPDES","version":""},"VISITNUM":{"scheme":"http","authority":"www.assero.co.uk","path":"MDRSdtmMd/CDISC/V3","prefix":"M","uid":"CDISC_SDTMMODELSPECIALPURPOSE_VISITNUM","version":""},"VISIT":{"scheme":"http","authority":"www.assero.co.uk","path":"MDRSdtmMd/CDISC/V3","prefix":"M","uid":"CDISC_SDTMMODELSPECIALPURPOSE_VISIT","version":""},"VISITDY":{"scheme":"http","authority":"www.assero.co.uk","path":"MDRSdtmMd/CDISC/V3","prefix":"M","uid":"CDISC_SDTMMODELSPECIALPURPOSE_VISITDY","version":""},"TAETORD":{"scheme":"http","authority":"www.assero.co.uk","path":"MDRSdtmMd/CDISC/V3","prefix":"M","uid":"CDISC_SDTMMODELSPECIALPURPOSE_TAETORD","version":""},"EPOCH":{"scheme":"http","authority":"www.assero.co.uk","path":"MDRSdtmMd/CDISC/V3","prefix":"M","uid":"CDISC_SDTMMODELSPECIALPURPOSE_EPOCH","version":""},"--DTC":{"scheme":"http","authority":"www.assero.co.uk","path":"MDRSdtmMd/CDISC/V3","prefix":"M","uid":"CDISC_SDTMMODELSPECIALPURPOSE_xxDTC","version":""},"--STDTC":{"scheme":"http","authority":"www.assero.co.uk","path":"MDRSdtmMd/CDISC/V3","prefix":"M","uid":"CDISC_SDTMMODELSPECIALPURPOSE_xxSTDTC","version":""},"--ENDTC":{"scheme":"http","authority":"www.assero.co.uk","path":"MDRSdtmMd/CDISC/V3","prefix":"M","uid":"CDISC_SDTMMODELSPECIALPURPOSE_xxENDTC","version":""},"--DY":{"scheme":"http","authority":"www.assero.co.uk","path":"MDRSdtmMd/CDISC/V3","prefix":"M","uid":"CDISC_SDTMMODELSPECIALPURPOSE_xxDY","version":""},"--STDY":{"scheme":"http","authority":"www.assero.co.uk","path":"MDRSdtmMd/CDISC/V3","prefix":"M","uid":"CDISC_SDTMMODELSPECIALPURPOSE_xxSTDY","version":""},"--ENDY":{"scheme":"http","authority":"www.assero.co.uk","path":"MDRSdtmMd/CDISC/V3","prefix":"M","uid":"CDISC_SDTMMODELSPECIALPURPOSE_xxENDY","version":""},"--DUR":{"scheme":"http","authority":"www.assero.co.uk","path":"MDRSdtmMd/CDISC/V3","prefix":"M","uid":"CDISC_SDTMMODELSPECIALPURPOSE_xxDUR","version":""},"--TPT":{"scheme":"http","authority":"www.assero.co.uk","path":"MDRSdtmMd/CDISC/V3","prefix":"M","uid":"CDISC_SDTMMODELSPECIALPURPOSE_xxTPT","version":""},"--TPTNUM":{"scheme":"http","authority":"www.assero.co.uk","path":"MDRSdtmMd/CDISC/V3","prefix":"M","uid":"CDISC_SDTMMODELSPECIALPURPOSE_xxTPTNUM","version":""},"--ELTM":{"scheme":"http","authority":"www.assero.co.uk","path":"MDRSdtmMd/CDISC/V3","prefix":"M","uid":"CDISC_SDTMMODELSPECIALPURPOSE_xxELTM","version":""},"--TPTREF":{"scheme":"http","authority":"www.assero.co.uk","path":"MDRSdtmMd/CDISC/V3","prefix":"M","uid":"CDISC_SDTMMODELSPECIALPURPOSE_xxTPTREF","version":""},"--RFTDTC":{"scheme":"http","authority":"www.assero.co.uk","path":"MDRSdtmMd/CDISC/V3","prefix":"M","uid":"CDISC_SDTMMODELSPECIALPURPOSE_xxRFTDTC","version":""},"--STRF":{"scheme":"http","authority":"www.assero.co.uk","path":"MDRSdtmMd/CDISC/V3","prefix":"M","uid":"CDISC_SDTMMODELSPECIALPURPOSE_xxSTRF","version":""},"--ENRF":{"scheme":"http","authority":"www.assero.co.uk","path":"MDRSdtmMd/CDISC/V3","prefix":"M","uid":"CDISC_SDTMMODELSPECIALPURPOSE_xxENRF","version":""},"--EVLINT":{"scheme":"http","authority":"www.assero.co.uk","path":"MDRSdtmMd/CDISC/V3","prefix":"M","uid":"CDISC_SDTMMODELSPECIALPURPOSE_xxEVLINT","version":""},"--EVINTX":{"scheme":"http","authority":"www.assero.co.uk","path":"MDRSdtmMd/CDISC/V3","prefix":"M","uid":"CDISC_SDTMMODELSPECIALPURPOSE_xxEVINTX","version":""},"--STRTPT":{"scheme":"http","authority":"www.assero.co.uk","path":"MDRSdtmMd/CDISC/V3","prefix":"M","uid":"CDISC_SDTMMODELSPECIALPURPOSE_xxSTRTPT","version":""},"--STTPT":{"scheme":"http","authority":"www.assero.co.uk","path":"MDRSdtmMd/CDISC/V3","prefix":"M","uid":"CDISC_SDTMMODELSPECIALPURPOSE_xxSTTPT","version":""},"--ENRTPT":{"scheme":"http","authority":"www.assero.co.uk","path":"MDRSdtmMd/CDISC/V3","prefix":"M","uid":"CDISC_SDTMMODELSPECIALPURPOSE_xxENRTPT","version":""},"--ENTPT":{"scheme":"http","authority":"www.assero.co.uk","path":"MDRSdtmMd/CDISC/V3","prefix":"M","uid":"CDISC_SDTMMODELSPECIALPURPOSE_xxENTPT","version":""},"--STINT":{"scheme":"http","authority":"www.assero.co.uk","path":"MDRSdtmMd/CDISC/V3","prefix":"M","uid":"CDISC_SDTMMODELSPECIALPURPOSE_xxSTINT","version":""},"--ENINT":{"scheme":"http","authority":"www.assero.co.uk","path":"MDRSdtmMd/CDISC/V3","prefix":"M","uid":"CDISC_SDTMMODELSPECIALPURPOSE_xxENINT","version":""},"--DETECT":{"scheme":"http","authority":"www.assero.co.uk","path":"MDRSdtmMd/CDISC/V3","prefix":"M","uid":"CDISC_SDTMMODELSPECIALPURPOSE_xxDETECT","version":""}}},"Interventions":{"class":"Interventions","uri":{"scheme":"http","authority":"www.assero.co.uk","path":"MDRSdtmMd/CDISC/V3","prefix":"M","uid":"CDISC_SDTMMODELINTERVENTIONS","version":""},"children":{"STUDYID":{"scheme":"http","authority":"www.assero.co.uk","path":"MDRSdtmMd/CDISC/V3","prefix":"M","uid":"CDISC_SDTMMODELINTERVENTIONS_STUDYID","version":""},"DOMAIN":{"scheme":"http","authority":"www.assero.co.uk","path":"MDRSdtmMd/CDISC/V3","prefix":"M","uid":"CDISC_SDTMMODELINTERVENTIONS_DOMAIN","version":""},"USUBJID":{"scheme":"http","authority":"www.assero.co.uk","path":"MDRSdtmMd/CDISC/V3","prefix":"M","uid":"CDISC_SDTMMODELINTERVENTIONS_USUBJID","version":""},"POOLID":{"scheme":"http","authority":"www.assero.co.uk","path":"MDRSdtmMd/CDISC/V3","prefix":"M","uid":"CDISC_SDTMMODELINTERVENTIONS_POOLID","version":""},"SPDEVID":{"scheme":"http","authority":"www.assero.co.uk","path":"MDRSdtmMd/CDISC/V3","prefix":"M","uid":"CDISC_SDTMMODELINTERVENTIONS_SPDEVID","version":""},"--SEQ":{"scheme":"http","authority":"www.assero.co.uk","path":"MDRSdtmMd/CDISC/V3","prefix":"M","uid":"CDISC_SDTMMODELINTERVENTIONS_xxSEQ","version":""},"--GRPID":{"scheme":"http","authority":"www.assero.co.uk","path":"MDRSdtmMd/CDISC/V3","prefix":"M","uid":"CDISC_SDTMMODELINTERVENTIONS_xxGRPID","version":""},"--REFID":{"scheme":"http","authority":"www.assero.co.uk","path":"MDRSdtmMd/CDISC/V3","prefix":"M","uid":"CDISC_SDTMMODELINTERVENTIONS_xxREFID","version":""},"--SPID":{"scheme":"http","authority":"www.assero.co.uk","path":"MDRSdtmMd/CDISC/V3","prefix":"M","uid":"CDISC_SDTMMODELINTERVENTIONS_xxSPID","version":""},"--LNKID":{"scheme":"http","authority":"www.assero.co.uk","path":"MDRSdtmMd/CDISC/V3","prefix":"M","uid":"CDISC_SDTMMODELINTERVENTIONS_xxLNKID","version":""},"--LNKGRP":{"scheme":"http","authority":"www.assero.co.uk","path":"MDRSdtmMd/CDISC/V3","prefix":"M","uid":"CDISC_SDTMMODELINTERVENTIONS_xxLNKGRP","version":""},"APID":{"scheme":"http","authority":"www.assero.co.uk","path":"MDRSdtmMd/CDISC/V3","prefix":"M","uid":"CDISC_SDTMMODELINTERVENTIONS_APID","version":""},"RSUBJID":{"scheme":"http","authority":"www.assero.co.uk","path":"MDRSdtmMd/CDISC/V3","prefix":"M","uid":"CDISC_SDTMMODELINTERVENTIONS_RSUBJID","version":""},"RDEVID":{"scheme":"http","authority":"www.assero.co.uk","path":"MDRSdtmMd/CDISC/V3","prefix":"M","uid":"CDISC_SDTMMODELINTERVENTIONS_RDEVID","version":""},"SREL":{"scheme":"http","authority":"www.assero.co.uk","path":"MDRSdtmMd/CDISC/V3","prefix":"M","uid":"CDISC_SDTMMODELINTERVENTIONS_SREL","version":""},"--TRT":{"scheme":"http","authority":"www.assero.co.uk","path":"MDRSdtmMd/CDISC/V3","prefix":"M","uid":"CDISC_SDTMMODELINTERVENTIONS_xxTRT","version":""},"--MODIFY":{"scheme":"http","authority":"www.assero.co.uk","path":"MDRSdtmMd/CDISC/V3","prefix":"M","uid":"CDISC_SDTMMODELINTERVENTIONS_xxMODIFY","version":""},"--DECOD":{"scheme":"http","authority":"www.assero.co.uk","path":"MDRSdtmMd/CDISC/V3","prefix":"M","uid":"CDISC_SDTMMODELINTERVENTIONS_xxDECOD","version":""},"--MOOD":{"scheme":"http","authority":"www.assero.co.uk","path":"MDRSdtmMd/CDISC/V3","prefix":"M","uid":"CDISC_SDTMMODELINTERVENTIONS_xxMOOD","version":""},"--CAT":{"scheme":"http","authority":"www.assero.co.uk","path":"MDRSdtmMd/CDISC/V3","prefix":"M","uid":"CDISC_SDTMMODELINTERVENTIONS_xxCAT","version":""},"--SCAT":{"scheme":"http","authority":"www.assero.co.uk","path":"MDRSdtmMd/CDISC/V3","prefix":"M","uid":"CDISC_SDTMMODELINTERVENTIONS_xxSCAT","version":""},"--PRESP":{"scheme":"http","authority":"www.assero.co.uk","path":"MDRSdtmMd/CDISC/V3","prefix":"M","uid":"CDISC_SDTMMODELINTERVENTIONS_xxPRESP","version":""},"--OCCUR":{"scheme":"http","authority":"www.assero.co.uk","path":"MDRSdtmMd/CDISC/V3","prefix":"M","uid":"CDISC_SDTMMODELINTERVENTIONS_xxOCCUR","version":""},"--STAT":{"scheme":"http","authority":"www.assero.co.uk","path":"MDRSdtmMd/CDISC/V3","prefix":"M","uid":"CDISC_SDTMMODELINTERVENTIONS_xxSTAT","version":""},"--REASND":{"scheme":"http","authority":"www.assero.co.uk","path":"MDRSdtmMd/CDISC/V3","prefix":"M","uid":"CDISC_SDTMMODELINTERVENTIONS_xxREASND","version":""},"--INDC":{"scheme":"http","authority":"www.assero.co.uk","path":"MDRSdtmMd/CDISC/V3","prefix":"M","uid":"CDISC_SDTMMODELINTERVENTIONS_xxINDC","version":""},"--CLAS":{"scheme":"http","authority":"www.assero.co.uk","path":"MDRSdtmMd/CDISC/V3","prefix":"M","uid":"CDISC_SDTMMODELINTERVENTIONS_xxCLAS","version":""},"--CLASCD":{"scheme":"http","authority":"www.assero.co.uk","path":"MDRSdtmMd/CDISC/V3","prefix":"M","uid":"CDISC_SDTMMODELINTERVENTIONS_xxCLASCD","version":""},"--DOSE":{"scheme":"http","authority":"www.assero.co.uk","path":"MDRSdtmMd/CDISC/V3","prefix":"M","uid":"CDISC_SDTMMODELINTERVENTIONS_xxDOSE","version":""},"--DOSTXT":{"scheme":"http","authority":"www.assero.co.uk","path":"MDRSdtmMd/CDISC/V3","prefix":"M","uid":"CDISC_SDTMMODELINTERVENTIONS_xxDOSTXT","version":""},"--DOSU":{"scheme":"http","authority":"www.assero.co.uk","path":"MDRSdtmMd/CDISC/V3","prefix":"M","uid":"CDISC_SDTMMODELINTERVENTIONS_xxDOSU","version":""},"--DOSFRM":{"scheme":"http","authority":"www.assero.co.uk","path":"MDRSdtmMd/CDISC/V3","prefix":"M","uid":"CDISC_SDTMMODELINTERVENTIONS_xxDOSFRM","version":""},"--DOSFRQ":{"scheme":"http","authority":"www.assero.co.uk","path":"MDRSdtmMd/CDISC/V3","prefix":"M","uid":"CDISC_SDTMMODELINTERVENTIONS_xxDOSFRQ","version":""},"--DOSTOT":{"scheme":"http","authority":"www.assero.co.uk","path":"MDRSdtmMd/CDISC/V3","prefix":"M","uid":"CDISC_SDTMMODELINTERVENTIONS_xxDOSTOT","version":""},"--DOSRGM":{"scheme":"http","authority":"www.assero.co.uk","path":"MDRSdtmMd/CDISC/V3","prefix":"M","uid":"CDISC_SDTMMODELINTERVENTIONS_xxDOSRGM","version":""},"--ROUTE":{"scheme":"http","authority":"www.assero.co.uk","path":"MDRSdtmMd/CDISC/V3","prefix":"M","uid":"CDISC_SDTMMODELINTERVENTIONS_xxROUTE","version":""},"--LOT":{"scheme":"http","authority":"www.assero.co.uk","path":"MDRSdtmMd/CDISC/V3","prefix":"M","uid":"CDISC_SDTMMODELINTERVENTIONS_xxLOT","version":""},"--LOC":{"scheme":"http","authority":"www.assero.co.uk","path":"MDRSdtmMd/CDISC/V3","prefix":"M","uid":"CDISC_SDTMMODELINTERVENTIONS_xxLOC","version":""},"--LAT":{"scheme":"http","authority":"www.assero.co.uk","path":"MDRSdtmMd/CDISC/V3","prefix":"M","uid":"CDISC_SDTMMODELINTERVENTIONS_xxLAT","version":""},"--DIR":{"scheme":"http","authority":"www.assero.co.uk","path":"MDRSdtmMd/CDISC/V3","prefix":"M","uid":"CDISC_SDTMMODELINTERVENTIONS_xxDIR","version":""},"--PORTOT":{"scheme":"http","authority":"www.assero.co.uk","path":"MDRSdtmMd/CDISC/V3","prefix":"M","uid":"CDISC_SDTMMODELINTERVENTIONS_xxPORTOT","version":""},"--FAST":{"scheme":"http","authority":"www.assero.co.uk","path":"MDRSdtmMd/CDISC/V3","prefix":"M","uid":"CDISC_SDTMMODELINTERVENTIONS_xxFAST","version":""},"--PSTRG":{"scheme":"http","authority":"www.assero.co.uk","path":"MDRSdtmMd/CDISC/V3","prefix":"M","uid":"CDISC_SDTMMODELINTERVENTIONS_xxPSTRG","version":""},"--PSTRGU":{"scheme":"http","authority":"www.assero.co.uk","path":"MDRSdtmMd/CDISC/V3","prefix":"M","uid":"CDISC_SDTMMODELINTERVENTIONS_xxPSTRGU","version":""},"--TRTV":{"scheme":"http","authority":"www.assero.co.uk","path":"MDRSdtmMd/CDISC/V3","prefix":"M","uid":"CDISC_SDTMMODELINTERVENTIONS_xxTRTV","version":""},"--VAMT":{"scheme":"http","authority":"www.assero.co.uk","path":"MDRSdtmMd/CDISC/V3","prefix":"M","uid":"CDISC_SDTMMODELINTERVENTIONS_xxVAMT","version":""},"--VAMTU":{"scheme":"http","authority":"www.assero.co.uk","path":"MDRSdtmMd/CDISC/V3","prefix":"M","uid":"CDISC_SDTMMODELINTERVENTIONS_xxVAMTU","version":""},"--ADJ":{"scheme":"http","authority":"www.assero.co.uk","path":"MDRSdtmMd/CDISC/V3","prefix":"M","uid":"CDISC_SDTMMODELINTERVENTIONS_xxADJ","version":""},"VISITNUM":{"scheme":"http","authority":"www.assero.co.uk","path":"MDRSdtmMd/CDISC/V3","prefix":"M","uid":"CDISC_SDTMMODELINTERVENTIONS_VISITNUM","version":""},"VISIT":{"scheme":"http","authority":"www.assero.co.uk","path":"MDRSdtmMd/CDISC/V3","prefix":"M","uid":"CDISC_SDTMMODELINTERVENTIONS_VISIT","version":""},"VISITDY":{"scheme":"http","authority":"www.assero.co.uk","path":"MDRSdtmMd/CDISC/V3","prefix":"M","uid":"CDISC_SDTMMODELINTERVENTIONS_VISITDY","version":""},"TAETORD":{"scheme":"http","authority":"www.assero.co.uk","path":"MDRSdtmMd/CDISC/V3","prefix":"M","uid":"CDISC_SDTMMODELINTERVENTIONS_TAETORD","version":""},"EPOCH":{"scheme":"http","authority":"www.assero.co.uk","path":"MDRSdtmMd/CDISC/V3","prefix":"M","uid":"CDISC_SDTMMODELINTERVENTIONS_EPOCH","version":""},"--DTC":{"scheme":"http","authority":"www.assero.co.uk","path":"MDRSdtmMd/CDISC/V3","prefix":"M","uid":"CDISC_SDTMMODELINTERVENTIONS_xxDTC","version":""},"--STDTC":{"scheme":"http","authority":"www.assero.co.uk","path":"MDRSdtmMd/CDISC/V3","prefix":"M","uid":"CDISC_SDTMMODELINTERVENTIONS_xxSTDTC","version":""},"--ENDTC":{"scheme":"http","authority":"www.assero.co.uk","path":"MDRSdtmMd/CDISC/V3","prefix":"M","uid":"CDISC_SDTMMODELINTERVENTIONS_xxENDTC","version":""},"--DY":{"scheme":"http","authority":"www.assero.co.uk","path":"MDRSdtmMd/CDISC/V3","prefix":"M","uid":"CDISC_SDTMMODELINTERVENTIONS_xxDY","version":""},"--STDY":{"scheme":"http","authority":"www.assero.co.uk","path":"MDRSdtmMd/CDISC/V3","prefix":"M","uid":"CDISC_SDTMMODELINTERVENTIONS_xxSTDY","version":""},"--ENDY":{"scheme":"http","authority":"www.assero.co.uk","path":"MDRSdtmMd/CDISC/V3","prefix":"M","uid":"CDISC_SDTMMODELINTERVENTIONS_xxENDY","version":""},"--DUR":{"scheme":"http","authority":"www.assero.co.uk","path":"MDRSdtmMd/CDISC/V3","prefix":"M","uid":"CDISC_SDTMMODELINTERVENTIONS_xxDUR","version":""},"--TPT":{"scheme":"http","authority":"www.assero.co.uk","path":"MDRSdtmMd/CDISC/V3","prefix":"M","uid":"CDISC_SDTMMODELINTERVENTIONS_xxTPT","version":""},"--TPTNUM":{"scheme":"http","authority":"www.assero.co.uk","path":"MDRSdtmMd/CDISC/V3","prefix":"M","uid":"CDISC_SDTMMODELINTERVENTIONS_xxTPTNUM","version":""},"--ELTM":{"scheme":"http","authority":"www.assero.co.uk","path":"MDRSdtmMd/CDISC/V3","prefix":"M","uid":"CDISC_SDTMMODELINTERVENTIONS_xxELTM","version":""},"--TPTREF":{"scheme":"http","authority":"www.assero.co.uk","path":"MDRSdtmMd/CDISC/V3","prefix":"M","uid":"CDISC_SDTMMODELINTERVENTIONS_xxTPTREF","version":""},"--RFTDTC":{"scheme":"http","authority":"www.assero.co.uk","path":"MDRSdtmMd/CDISC/V3","prefix":"M","uid":"CDISC_SDTMMODELINTERVENTIONS_xxRFTDTC","version":""},"--STRF":{"scheme":"http","authority":"www.assero.co.uk","path":"MDRSdtmMd/CDISC/V3","prefix":"M","uid":"CDISC_SDTMMODELINTERVENTIONS_xxSTRF","version":""},"--ENRF":{"scheme":"http","authority":"www.assero.co.uk","path":"MDRSdtmMd/CDISC/V3","prefix":"M","uid":"CDISC_SDTMMODELINTERVENTIONS_xxENRF","version":""},"--EVLINT":{"scheme":"http","authority":"www.assero.co.uk","path":"MDRSdtmMd/CDISC/V3","prefix":"M","uid":"CDISC_SDTMMODELINTERVENTIONS_xxEVLINT","version":""},"--EVINTX":{"scheme":"http","authority":"www.assero.co.uk","path":"MDRSdtmMd/CDISC/V3","prefix":"M","uid":"CDISC_SDTMMODELINTERVENTIONS_xxEVINTX","version":""},"--STRTPT":{"scheme":"http","authority":"www.assero.co.uk","path":"MDRSdtmMd/CDISC/V3","prefix":"M","uid":"CDISC_SDTMMODELINTERVENTIONS_xxSTRTPT","version":""},"--STTPT":{"scheme":"http","authority":"www.assero.co.uk","path":"MDRSdtmMd/CDISC/V3","prefix":"M","uid":"CDISC_SDTMMODELINTERVENTIONS_xxSTTPT","version":""},"--ENRTPT":{"scheme":"http","authority":"www.assero.co.uk","path":"MDRSdtmMd/CDISC/V3","prefix":"M","uid":"CDISC_SDTMMODELINTERVENTIONS_xxENRTPT","version":""},"--ENTPT":{"scheme":"http","authority":"www.assero.co.uk","path":"MDRSdtmMd/CDISC/V3","prefix":"M","uid":"CDISC_SDTMMODELINTERVENTIONS_xxENTPT","version":""},"--STINT":{"scheme":"http","authority":"www.assero.co.uk","path":"MDRSdtmMd/CDISC/V3","prefix":"M","uid":"CDISC_SDTMMODELINTERVENTIONS_xxSTINT","version":""},"--ENINT":{"scheme":"http","authority":"www.assero.co.uk","path":"MDRSdtmMd/CDISC/V3","prefix":"M","uid":"CDISC_SDTMMODELINTERVENTIONS_xxENINT","version":""},"--DETECT":{"scheme":"http","authority":"www.assero.co.uk","path":"MDRSdtmMd/CDISC/V3","prefix":"M","uid":"CDISC_SDTMMODELINTERVENTIONS_xxDETECT","version":""}}},"Trial
  Design":{"class":"Trial Design","uri":{"scheme":"http","authority":"www.assero.co.uk","path":"MDRSdtmMd/CDISC/V3","prefix":"M","uid":"CDISC_SDTMMODELTRIALDESIGN","version":""},"children":{"STUDYID":{"scheme":"http","authority":"www.assero.co.uk","path":"MDRSdtmMd/CDISC/V3","prefix":"M","uid":"CDISC_SDTMMODELTRIALDESIGN_STUDYID","version":""},"DOMAIN":{"scheme":"http","authority":"www.assero.co.uk","path":"MDRSdtmMd/CDISC/V3","prefix":"M","uid":"CDISC_SDTMMODELTRIALDESIGN_DOMAIN","version":""},"USUBJID":{"scheme":"http","authority":"www.assero.co.uk","path":"MDRSdtmMd/CDISC/V3","prefix":"M","uid":"CDISC_SDTMMODELTRIALDESIGN_USUBJID","version":""},"POOLID":{"scheme":"http","authority":"www.assero.co.uk","path":"MDRSdtmMd/CDISC/V3","prefix":"M","uid":"CDISC_SDTMMODELTRIALDESIGN_POOLID","version":""},"SPDEVID":{"scheme":"http","authority":"www.assero.co.uk","path":"MDRSdtmMd/CDISC/V3","prefix":"M","uid":"CDISC_SDTMMODELTRIALDESIGN_SPDEVID","version":""},"--SEQ":{"scheme":"http","authority":"www.assero.co.uk","path":"MDRSdtmMd/CDISC/V3","prefix":"M","uid":"CDISC_SDTMMODELTRIALDESIGN_xxSEQ","version":""},"--GRPID":{"scheme":"http","authority":"www.assero.co.uk","path":"MDRSdtmMd/CDISC/V3","prefix":"M","uid":"CDISC_SDTMMODELTRIALDESIGN_xxGRPID","version":""},"--REFID":{"scheme":"http","authority":"www.assero.co.uk","path":"MDRSdtmMd/CDISC/V3","prefix":"M","uid":"CDISC_SDTMMODELTRIALDESIGN_xxREFID","version":""},"--SPID":{"scheme":"http","authority":"www.assero.co.uk","path":"MDRSdtmMd/CDISC/V3","prefix":"M","uid":"CDISC_SDTMMODELTRIALDESIGN_xxSPID","version":""},"--LNKID":{"scheme":"http","authority":"www.assero.co.uk","path":"MDRSdtmMd/CDISC/V3","prefix":"M","uid":"CDISC_SDTMMODELTRIALDESIGN_xxLNKID","version":""},"--LNKGRP":{"scheme":"http","authority":"www.assero.co.uk","path":"MDRSdtmMd/CDISC/V3","prefix":"M","uid":"CDISC_SDTMMODELTRIALDESIGN_xxLNKGRP","version":""},"ETCD":{"scheme":"http","authority":"www.assero.co.uk","path":"MDRSdtmMd/CDISC/V3","prefix":"M","uid":"CDISC_SDTMMODELTRIALDESIGN_ETCD","version":""},"ELEMENT":{"scheme":"http","authority":"www.assero.co.uk","path":"MDRSdtmMd/CDISC/V3","prefix":"M","uid":"CDISC_SDTMMODELTRIALDESIGN_ELEMENT","version":""},"--STRL":{"scheme":"http","authority":"www.assero.co.uk","path":"MDRSdtmMd/CDISC/V3","prefix":"M","uid":"CDISC_SDTMMODELTRIALDESIGN_xxSTRL","version":""},"--ENRL":{"scheme":"http","authority":"www.assero.co.uk","path":"MDRSdtmMd/CDISC/V3","prefix":"M","uid":"CDISC_SDTMMODELTRIALDESIGN_xxENRL","version":""},"ARMCD":{"scheme":"http","authority":"www.assero.co.uk","path":"MDRSdtmMd/CDISC/V3","prefix":"M","uid":"CDISC_SDTMMODELTRIALDESIGN_ARMCD","version":""},"ARM":{"scheme":"http","authority":"www.assero.co.uk","path":"MDRSdtmMd/CDISC/V3","prefix":"M","uid":"CDISC_SDTMMODELTRIALDESIGN_ARM","version":""},"--BRANCH":{"scheme":"http","authority":"www.assero.co.uk","path":"MDRSdtmMd/CDISC/V3","prefix":"M","uid":"CDISC_SDTMMODELTRIALDESIGN_xxBRANCH","version":""},"--TRANS":{"scheme":"http","authority":"www.assero.co.uk","path":"MDRSdtmMd/CDISC/V3","prefix":"M","uid":"CDISC_SDTMMODELTRIALDESIGN_xxTRANS","version":""},"SETCD":{"scheme":"http","authority":"www.assero.co.uk","path":"MDRSdtmMd/CDISC/V3","prefix":"M","uid":"CDISC_SDTMMODELTRIALDESIGN_SETCD","version":""},"SET":{"scheme":"http","authority":"www.assero.co.uk","path":"MDRSdtmMd/CDISC/V3","prefix":"M","uid":"CDISC_SDTMMODELTRIALDESIGN_SET","version":""},"IETESTCD":{"scheme":"http","authority":"www.assero.co.uk","path":"MDRSdtmMd/CDISC/V3","prefix":"M","uid":"CDISC_SDTMMODELTRIALDESIGN_IETESTCD","version":""},"IETEST":{"scheme":"http","authority":"www.assero.co.uk","path":"MDRSdtmMd/CDISC/V3","prefix":"M","uid":"CDISC_SDTMMODELTRIALDESIGN_IETEST","version":""},"IECAT":{"scheme":"http","authority":"www.assero.co.uk","path":"MDRSdtmMd/CDISC/V3","prefix":"M","uid":"CDISC_SDTMMODELTRIALDESIGN_IECAT","version":""},"IESCAT":{"scheme":"http","authority":"www.assero.co.uk","path":"MDRSdtmMd/CDISC/V3","prefix":"M","uid":"CDISC_SDTMMODELTRIALDESIGN_IESCAT","version":""},"--RL":{"scheme":"http","authority":"www.assero.co.uk","path":"MDRSdtmMd/CDISC/V3","prefix":"M","uid":"CDISC_SDTMMODELTRIALDESIGN_xxRL","version":""},"--VERS":{"scheme":"http","authority":"www.assero.co.uk","path":"MDRSdtmMd/CDISC/V3","prefix":"M","uid":"CDISC_SDTMMODELTRIALDESIGN_xxVERS","version":""},"--PARMCD":{"scheme":"http","authority":"www.assero.co.uk","path":"MDRSdtmMd/CDISC/V3","prefix":"M","uid":"CDISC_SDTMMODELTRIALDESIGN_xxPARMCD","version":""},"--PARM":{"scheme":"http","authority":"www.assero.co.uk","path":"MDRSdtmMd/CDISC/V3","prefix":"M","uid":"CDISC_SDTMMODELTRIALDESIGN_xxPARM","version":""},"--VAL":{"scheme":"http","authority":"www.assero.co.uk","path":"MDRSdtmMd/CDISC/V3","prefix":"M","uid":"CDISC_SDTMMODELTRIALDESIGN_xxVAL","version":""},"--VALNF":{"scheme":"http","authority":"www.assero.co.uk","path":"MDRSdtmMd/CDISC/V3","prefix":"M","uid":"CDISC_SDTMMODELTRIALDESIGN_xxVALNF","version":""},"--VALCD":{"scheme":"http","authority":"www.assero.co.uk","path":"MDRSdtmMd/CDISC/V3","prefix":"M","uid":"CDISC_SDTMMODELTRIALDESIGN_xxVALCD","version":""},"--VCDREF":{"scheme":"http","authority":"www.assero.co.uk","path":"MDRSdtmMd/CDISC/V3","prefix":"M","uid":"CDISC_SDTMMODELTRIALDESIGN_xxVCDREF","version":""},"--VCDVER":{"scheme":"http","authority":"www.assero.co.uk","path":"MDRSdtmMd/CDISC/V3","prefix":"M","uid":"CDISC_SDTMMODELTRIALDESIGN_xxVCDVER","version":""},"--ORDER":{"scheme":"http","authority":"www.assero.co.uk","path":"MDRSdtmMd/CDISC/V3","prefix":"M","uid":"CDISC_SDTMMODELTRIALDESIGN_xxORDER","version":""},"--ANCVAR":{"scheme":"http","authority":"www.assero.co.uk","path":"MDRSdtmMd/CDISC/V3","prefix":"M","uid":"CDISC_SDTMMODELTRIALDESIGN_xxANCVAR","version":""},"--STOFF":{"scheme":"http","authority":"www.assero.co.uk","path":"MDRSdtmMd/CDISC/V3","prefix":"M","uid":"CDISC_SDTMMODELTRIALDESIGN_xxSTOFF","version":""},"--TGTPAI":{"scheme":"http","authority":"www.assero.co.uk","path":"MDRSdtmMd/CDISC/V3","prefix":"M","uid":"CDISC_SDTMMODELTRIALDESIGN_xxTGTPAI","version":""},"--MINPAI":{"scheme":"http","authority":"www.assero.co.uk","path":"MDRSdtmMd/CDISC/V3","prefix":"M","uid":"CDISC_SDTMMODELTRIALDESIGN_xxMINPAI","version":""},"--MAXPAI":{"scheme":"http","authority":"www.assero.co.uk","path":"MDRSdtmMd/CDISC/V3","prefix":"M","uid":"CDISC_SDTMMODELTRIALDESIGN_xxMAXPAI","version":""},"--NUMRPT":{"scheme":"http","authority":"www.assero.co.uk","path":"MDRSdtmMd/CDISC/V3","prefix":"M","uid":"CDISC_SDTMMODELTRIALDESIGN_xxNUMRPT","version":""},"VISITNUM":{"scheme":"http","authority":"www.assero.co.uk","path":"MDRSdtmMd/CDISC/V3","prefix":"M","uid":"CDISC_SDTMMODELTRIALDESIGN_VISITNUM","version":""},"VISIT":{"scheme":"http","authority":"www.assero.co.uk","path":"MDRSdtmMd/CDISC/V3","prefix":"M","uid":"CDISC_SDTMMODELTRIALDESIGN_VISIT","version":""},"VISITDY":{"scheme":"http","authority":"www.assero.co.uk","path":"MDRSdtmMd/CDISC/V3","prefix":"M","uid":"CDISC_SDTMMODELTRIALDESIGN_VISITDY","version":""},"TAETORD":{"scheme":"http","authority":"www.assero.co.uk","path":"MDRSdtmMd/CDISC/V3","prefix":"M","uid":"CDISC_SDTMMODELTRIALDESIGN_TAETORD","version":""},"EPOCH":{"scheme":"http","authority":"www.assero.co.uk","path":"MDRSdtmMd/CDISC/V3","prefix":"M","uid":"CDISC_SDTMMODELTRIALDESIGN_EPOCH","version":""},"--DTC":{"scheme":"http","authority":"www.assero.co.uk","path":"MDRSdtmMd/CDISC/V3","prefix":"M","uid":"CDISC_SDTMMODELTRIALDESIGN_xxDTC","version":""},"--STDTC":{"scheme":"http","authority":"www.assero.co.uk","path":"MDRSdtmMd/CDISC/V3","prefix":"M","uid":"CDISC_SDTMMODELTRIALDESIGN_xxSTDTC","version":""},"--ENDTC":{"scheme":"http","authority":"www.assero.co.uk","path":"MDRSdtmMd/CDISC/V3","prefix":"M","uid":"CDISC_SDTMMODELTRIALDESIGN_xxENDTC","version":""},"--DY":{"scheme":"http","authority":"www.assero.co.uk","path":"MDRSdtmMd/CDISC/V3","prefix":"M","uid":"CDISC_SDTMMODELTRIALDESIGN_xxDY","version":""},"--STDY":{"scheme":"http","authority":"www.assero.co.uk","path":"MDRSdtmMd/CDISC/V3","prefix":"M","uid":"CDISC_SDTMMODELTRIALDESIGN_xxSTDY","version":""},"--ENDY":{"scheme":"http","authority":"www.assero.co.uk","path":"MDRSdtmMd/CDISC/V3","prefix":"M","uid":"CDISC_SDTMMODELTRIALDESIGN_xxENDY","version":""},"--DUR":{"scheme":"http","authority":"www.assero.co.uk","path":"MDRSdtmMd/CDISC/V3","prefix":"M","uid":"CDISC_SDTMMODELTRIALDESIGN_xxDUR","version":""},"--TPT":{"scheme":"http","authority":"www.assero.co.uk","path":"MDRSdtmMd/CDISC/V3","prefix":"M","uid":"CDISC_SDTMMODELTRIALDESIGN_xxTPT","version":""},"--TPTNUM":{"scheme":"http","authority":"www.assero.co.uk","path":"MDRSdtmMd/CDISC/V3","prefix":"M","uid":"CDISC_SDTMMODELTRIALDESIGN_xxTPTNUM","version":""},"--ELTM":{"scheme":"http","authority":"www.assero.co.uk","path":"MDRSdtmMd/CDISC/V3","prefix":"M","uid":"CDISC_SDTMMODELTRIALDESIGN_xxELTM","version":""},"--TPTREF":{"scheme":"http","authority":"www.assero.co.uk","path":"MDRSdtmMd/CDISC/V3","prefix":"M","uid":"CDISC_SDTMMODELTRIALDESIGN_xxTPTREF","version":""},"--RFTDTC":{"scheme":"http","authority":"www.assero.co.uk","path":"MDRSdtmMd/CDISC/V3","prefix":"M","uid":"CDISC_SDTMMODELTRIALDESIGN_xxRFTDTC","version":""},"--STRF":{"scheme":"http","authority":"www.assero.co.uk","path":"MDRSdtmMd/CDISC/V3","prefix":"M","uid":"CDISC_SDTMMODELTRIALDESIGN_xxSTRF","version":""},"--ENRF":{"scheme":"http","authority":"www.assero.co.uk","path":"MDRSdtmMd/CDISC/V3","prefix":"M","uid":"CDISC_SDTMMODELTRIALDESIGN_xxENRF","version":""},"--EVLINT":{"scheme":"http","authority":"www.assero.co.uk","path":"MDRSdtmMd/CDISC/V3","prefix":"M","uid":"CDISC_SDTMMODELTRIALDESIGN_xxEVLINT","version":""},"--EVINTX":{"scheme":"http","authority":"www.assero.co.uk","path":"MDRSdtmMd/CDISC/V3","prefix":"M","uid":"CDISC_SDTMMODELTRIALDESIGN_xxEVINTX","version":""},"--STRTPT":{"scheme":"http","authority":"www.assero.co.uk","path":"MDRSdtmMd/CDISC/V3","prefix":"M","uid":"CDISC_SDTMMODELTRIALDESIGN_xxSTRTPT","version":""},"--STTPT":{"scheme":"http","authority":"www.assero.co.uk","path":"MDRSdtmMd/CDISC/V3","prefix":"M","uid":"CDISC_SDTMMODELTRIALDESIGN_xxSTTPT","version":""},"--ENRTPT":{"scheme":"http","authority":"www.assero.co.uk","path":"MDRSdtmMd/CDISC/V3","prefix":"M","uid":"CDISC_SDTMMODELTRIALDESIGN_xxENRTPT","version":""},"--ENTPT":{"scheme":"http","authority":"www.assero.co.uk","path":"MDRSdtmMd/CDISC/V3","prefix":"M","uid":"CDISC_SDTMMODELTRIALDESIGN_xxENTPT","version":""},"--STINT":{"scheme":"http","authority":"www.assero.co.uk","path":"MDRSdtmMd/CDISC/V3","prefix":"M","uid":"CDISC_SDTMMODELTRIALDESIGN_xxSTINT","version":""},"--ENINT":{"scheme":"http","authority":"www.assero.co.uk","path":"MDRSdtmMd/CDISC/V3","prefix":"M","uid":"CDISC_SDTMMODELTRIALDESIGN_xxENINT","version":""},"--DETECT":{"scheme":"http","authority":"www.assero.co.uk","path":"MDRSdtmMd/CDISC/V3","prefix":"M","uid":"CDISC_SDTMMODELTRIALDESIGN_xxDETECT","version":""}}},"Findings":{"class":"Findings","uri":{"scheme":"http","authority":"www.assero.co.uk","path":"MDRSdtmMd/CDISC/V3","prefix":"M","uid":"CDISC_SDTMMODELFINDINGS","version":""},"children":{"STUDYID":{"scheme":"http","authority":"www.assero.co.uk","path":"MDRSdtmMd/CDISC/V3","prefix":"M","uid":"CDISC_SDTMMODELFINDINGS_STUDYID","version":""},"DOMAIN":{"scheme":"http","authority":"www.assero.co.uk","path":"MDRSdtmMd/CDISC/V3","prefix":"M","uid":"CDISC_SDTMMODELFINDINGS_DOMAIN","version":""},"USUBJID":{"scheme":"http","authority":"www.assero.co.uk","path":"MDRSdtmMd/CDISC/V3","prefix":"M","uid":"CDISC_SDTMMODELFINDINGS_USUBJID","version":""},"POOLID":{"scheme":"http","authority":"www.assero.co.uk","path":"MDRSdtmMd/CDISC/V3","prefix":"M","uid":"CDISC_SDTMMODELFINDINGS_POOLID","version":""},"SPDEVID":{"scheme":"http","authority":"www.assero.co.uk","path":"MDRSdtmMd/CDISC/V3","prefix":"M","uid":"CDISC_SDTMMODELFINDINGS_SPDEVID","version":""},"--SEQ":{"scheme":"http","authority":"www.assero.co.uk","path":"MDRSdtmMd/CDISC/V3","prefix":"M","uid":"CDISC_SDTMMODELFINDINGS_xxSEQ","version":""},"--GRPID":{"scheme":"http","authority":"www.assero.co.uk","path":"MDRSdtmMd/CDISC/V3","prefix":"M","uid":"CDISC_SDTMMODELFINDINGS_xxGRPID","version":""},"--REFID":{"scheme":"http","authority":"www.assero.co.uk","path":"MDRSdtmMd/CDISC/V3","prefix":"M","uid":"CDISC_SDTMMODELFINDINGS_xxREFID","version":""},"--SPID":{"scheme":"http","authority":"www.assero.co.uk","path":"MDRSdtmMd/CDISC/V3","prefix":"M","uid":"CDISC_SDTMMODELFINDINGS_xxSPID","version":""},"--LNKID":{"scheme":"http","authority":"www.assero.co.uk","path":"MDRSdtmMd/CDISC/V3","prefix":"M","uid":"CDISC_SDTMMODELFINDINGS_xxLNKID","version":""},"--LNKGRP":{"scheme":"http","authority":"www.assero.co.uk","path":"MDRSdtmMd/CDISC/V3","prefix":"M","uid":"CDISC_SDTMMODELFINDINGS_xxLNKGRP","version":""},"--TESTCD":{"scheme":"http","authority":"www.assero.co.uk","path":"MDRSdtmMd/CDISC/V3","prefix":"M","uid":"CDISC_SDTMMODELFINDINGS_xxTESTCD","version":""},"--TEST":{"scheme":"http","authority":"www.assero.co.uk","path":"MDRSdtmMd/CDISC/V3","prefix":"M","uid":"CDISC_SDTMMODELFINDINGS_xxTEST","version":""},"--MODIFY":{"scheme":"http","authority":"www.assero.co.uk","path":"MDRSdtmMd/CDISC/V3","prefix":"M","uid":"CDISC_SDTMMODELFINDINGS_xxMODIFY","version":""},"--TSTDTL":{"scheme":"http","authority":"www.assero.co.uk","path":"MDRSdtmMd/CDISC/V3","prefix":"M","uid":"CDISC_SDTMMODELFINDINGS_xxTSTDTL","version":""},"--CAT":{"scheme":"http","authority":"www.assero.co.uk","path":"MDRSdtmMd/CDISC/V3","prefix":"M","uid":"CDISC_SDTMMODELFINDINGS_xxCAT","version":""},"--SCAT":{"scheme":"http","authority":"www.assero.co.uk","path":"MDRSdtmMd/CDISC/V3","prefix":"M","uid":"CDISC_SDTMMODELFINDINGS_xxSCAT","version":""},"--POS":{"scheme":"http","authority":"www.assero.co.uk","path":"MDRSdtmMd/CDISC/V3","prefix":"M","uid":"CDISC_SDTMMODELFINDINGS_xxPOS","version":""},"--BODSYS":{"scheme":"http","authority":"www.assero.co.uk","path":"MDRSdtmMd/CDISC/V3","prefix":"M","uid":"CDISC_SDTMMODELFINDINGS_xxBODSYS","version":""},"--ORRES":{"scheme":"http","authority":"www.assero.co.uk","path":"MDRSdtmMd/CDISC/V3","prefix":"M","uid":"CDISC_SDTMMODELFINDINGS_xxORRES","version":""},"--ORRESU":{"scheme":"http","authority":"www.assero.co.uk","path":"MDRSdtmMd/CDISC/V3","prefix":"M","uid":"CDISC_SDTMMODELFINDINGS_xxORRESU","version":""},"--ORNRLO":{"scheme":"http","authority":"www.assero.co.uk","path":"MDRSdtmMd/CDISC/V3","prefix":"M","uid":"CDISC_SDTMMODELFINDINGS_xxORNRLO","version":""},"--ORNRHI":{"scheme":"http","authority":"www.assero.co.uk","path":"MDRSdtmMd/CDISC/V3","prefix":"M","uid":"CDISC_SDTMMODELFINDINGS_xxORNRHI","version":""},"--STRESC":{"scheme":"http","authority":"www.assero.co.uk","path":"MDRSdtmMd/CDISC/V3","prefix":"M","uid":"CDISC_SDTMMODELFINDINGS_xxSTRESC","version":""},"--STRESN":{"scheme":"http","authority":"www.assero.co.uk","path":"MDRSdtmMd/CDISC/V3","prefix":"M","uid":"CDISC_SDTMMODELFINDINGS_xxSTRESN","version":""},"--STRESU":{"scheme":"http","authority":"www.assero.co.uk","path":"MDRSdtmMd/CDISC/V3","prefix":"M","uid":"CDISC_SDTMMODELFINDINGS_xxSTRESU","version":""},"--STNRLO":{"scheme":"http","authority":"www.assero.co.uk","path":"MDRSdtmMd/CDISC/V3","prefix":"M","uid":"CDISC_SDTMMODELFINDINGS_xxSTNRLO","version":""},"--STNRHI":{"scheme":"http","authority":"www.assero.co.uk","path":"MDRSdtmMd/CDISC/V3","prefix":"M","uid":"CDISC_SDTMMODELFINDINGS_xxSTNRHI","version":""},"--STNRC":{"scheme":"http","authority":"www.assero.co.uk","path":"MDRSdtmMd/CDISC/V3","prefix":"M","uid":"CDISC_SDTMMODELFINDINGS_xxSTNRC","version":""},"--NRIND":{"scheme":"http","authority":"www.assero.co.uk","path":"MDRSdtmMd/CDISC/V3","prefix":"M","uid":"CDISC_SDTMMODELFINDINGS_xxNRIND","version":""},"--RESCAT":{"scheme":"http","authority":"www.assero.co.uk","path":"MDRSdtmMd/CDISC/V3","prefix":"M","uid":"CDISC_SDTMMODELFINDINGS_xxRESCAT","version":""},"--STAT":{"scheme":"http","authority":"www.assero.co.uk","path":"MDRSdtmMd/CDISC/V3","prefix":"M","uid":"CDISC_SDTMMODELFINDINGS_xxSTAT","version":""},"--REASND":{"scheme":"http","authority":"www.assero.co.uk","path":"MDRSdtmMd/CDISC/V3","prefix":"M","uid":"CDISC_SDTMMODELFINDINGS_xxREASND","version":""},"--XFN":{"scheme":"http","authority":"www.assero.co.uk","path":"MDRSdtmMd/CDISC/V3","prefix":"M","uid":"CDISC_SDTMMODELFINDINGS_xxXFN","version":""},"--NAM":{"scheme":"http","authority":"www.assero.co.uk","path":"MDRSdtmMd/CDISC/V3","prefix":"M","uid":"CDISC_SDTMMODELFINDINGS_xxNAM","version":""},"--LOINC":{"scheme":"http","authority":"www.assero.co.uk","path":"MDRSdtmMd/CDISC/V3","prefix":"M","uid":"CDISC_SDTMMODELFINDINGS_xxLOINC","version":""},"--SPEC":{"scheme":"http","authority":"www.assero.co.uk","path":"MDRSdtmMd/CDISC/V3","prefix":"M","uid":"CDISC_SDTMMODELFINDINGS_xxSPEC","version":""},"--ANTREG":{"scheme":"http","authority":"www.assero.co.uk","path":"MDRSdtmMd/CDISC/V3","prefix":"M","uid":"CDISC_SDTMMODELFINDINGS_xxANTREG","version":""},"--SPCCND":{"scheme":"http","authority":"www.assero.co.uk","path":"MDRSdtmMd/CDISC/V3","prefix":"M","uid":"CDISC_SDTMMODELFINDINGS_xxSPCCND","version":""},"--SPCUFL":{"scheme":"http","authority":"www.assero.co.uk","path":"MDRSdtmMd/CDISC/V3","prefix":"M","uid":"CDISC_SDTMMODELFINDINGS_xxSPCUFL","version":""},"--LOC":{"scheme":"http","authority":"www.assero.co.uk","path":"MDRSdtmMd/CDISC/V3","prefix":"M","uid":"CDISC_SDTMMODELFINDINGS_xxLOC","version":""},"--LAT":{"scheme":"http","authority":"www.assero.co.uk","path":"MDRSdtmMd/CDISC/V3","prefix":"M","uid":"CDISC_SDTMMODELFINDINGS_xxLAT","version":""},"--DIR":{"scheme":"http","authority":"www.assero.co.uk","path":"MDRSdtmMd/CDISC/V3","prefix":"M","uid":"CDISC_SDTMMODELFINDINGS_xxDIR","version":""},"--PORTOT":{"scheme":"http","authority":"www.assero.co.uk","path":"MDRSdtmMd/CDISC/V3","prefix":"M","uid":"CDISC_SDTMMODELFINDINGS_xxPORTOT","version":""},"--METHOD":{"scheme":"http","authority":"www.assero.co.uk","path":"MDRSdtmMd/CDISC/V3","prefix":"M","uid":"CDISC_SDTMMODELFINDINGS_xxMETHOD","version":""},"--RUNID":{"scheme":"http","authority":"www.assero.co.uk","path":"MDRSdtmMd/CDISC/V3","prefix":"M","uid":"CDISC_SDTMMODELFINDINGS_xxRUNID","version":""},"--ANMETH":{"scheme":"http","authority":"www.assero.co.uk","path":"MDRSdtmMd/CDISC/V3","prefix":"M","uid":"CDISC_SDTMMODELFINDINGS_xxANMETH","version":""},"--LEAD":{"scheme":"http","authority":"www.assero.co.uk","path":"MDRSdtmMd/CDISC/V3","prefix":"M","uid":"CDISC_SDTMMODELFINDINGS_xxLEAD","version":""},"--CSTATE":{"scheme":"http","authority":"www.assero.co.uk","path":"MDRSdtmMd/CDISC/V3","prefix":"M","uid":"CDISC_SDTMMODELFINDINGS_xxCSTATE","version":""},"--BLFL":{"scheme":"http","authority":"www.assero.co.uk","path":"MDRSdtmMd/CDISC/V3","prefix":"M","uid":"CDISC_SDTMMODELFINDINGS_xxBLFL","version":""},"--FAST":{"scheme":"http","authority":"www.assero.co.uk","path":"MDRSdtmMd/CDISC/V3","prefix":"M","uid":"CDISC_SDTMMODELFINDINGS_xxFAST","version":""},"--DRVFL":{"scheme":"http","authority":"www.assero.co.uk","path":"MDRSdtmMd/CDISC/V3","prefix":"M","uid":"CDISC_SDTMMODELFINDINGS_xxDRVFL","version":""},"--EVAL":{"scheme":"http","authority":"www.assero.co.uk","path":"MDRSdtmMd/CDISC/V3","prefix":"M","uid":"CDISC_SDTMMODELFINDINGS_xxEVAL","version":""},"--EVALID":{"scheme":"http","authority":"www.assero.co.uk","path":"MDRSdtmMd/CDISC/V3","prefix":"M","uid":"CDISC_SDTMMODELFINDINGS_xxEVALID","version":""},"--ACPTFL":{"scheme":"http","authority":"www.assero.co.uk","path":"MDRSdtmMd/CDISC/V3","prefix":"M","uid":"CDISC_SDTMMODELFINDINGS_xxACPTFL","version":""},"--TOX":{"scheme":"http","authority":"www.assero.co.uk","path":"MDRSdtmMd/CDISC/V3","prefix":"M","uid":"CDISC_SDTMMODELFINDINGS_xxTOX","version":""},"--TOXGR":{"scheme":"http","authority":"www.assero.co.uk","path":"MDRSdtmMd/CDISC/V3","prefix":"M","uid":"CDISC_SDTMMODELFINDINGS_xxTOXGR","version":""},"--SEV":{"scheme":"http","authority":"www.assero.co.uk","path":"MDRSdtmMd/CDISC/V3","prefix":"M","uid":"CDISC_SDTMMODELFINDINGS_xxSEV","version":""},"--DTHREL":{"scheme":"http","authority":"www.assero.co.uk","path":"MDRSdtmMd/CDISC/V3","prefix":"M","uid":"CDISC_SDTMMODELFINDINGS_xxDTHREL","version":""},"--LLOQ":{"scheme":"http","authority":"www.assero.co.uk","path":"MDRSdtmMd/CDISC/V3","prefix":"M","uid":"CDISC_SDTMMODELFINDINGS_xxLLOQ","version":""},"--ULOQ":{"scheme":"http","authority":"www.assero.co.uk","path":"MDRSdtmMd/CDISC/V3","prefix":"M","uid":"CDISC_SDTMMODELFINDINGS_xxULOQ","version":""},"--EXCLFL":{"scheme":"http","authority":"www.assero.co.uk","path":"MDRSdtmMd/CDISC/V3","prefix":"M","uid":"CDISC_SDTMMODELFINDINGS_xxEXCLFL","version":""},"--REASEX":{"scheme":"http","authority":"www.assero.co.uk","path":"MDRSdtmMd/CDISC/V3","prefix":"M","uid":"CDISC_SDTMMODELFINDINGS_xxREASEX","version":""},"VISITNUM":{"scheme":"http","authority":"www.assero.co.uk","path":"MDRSdtmMd/CDISC/V3","prefix":"M","uid":"CDISC_SDTMMODELFINDINGS_VISITNUM","version":""},"VISIT":{"scheme":"http","authority":"www.assero.co.uk","path":"MDRSdtmMd/CDISC/V3","prefix":"M","uid":"CDISC_SDTMMODELFINDINGS_VISIT","version":""},"VISITDY":{"scheme":"http","authority":"www.assero.co.uk","path":"MDRSdtmMd/CDISC/V3","prefix":"M","uid":"CDISC_SDTMMODELFINDINGS_VISITDY","version":""},"TAETORD":{"scheme":"http","authority":"www.assero.co.uk","path":"MDRSdtmMd/CDISC/V3","prefix":"M","uid":"CDISC_SDTMMODELFINDINGS_TAETORD","version":""},"EPOCH":{"scheme":"http","authority":"www.assero.co.uk","path":"MDRSdtmMd/CDISC/V3","prefix":"M","uid":"CDISC_SDTMMODELFINDINGS_EPOCH","version":""},"--DTC":{"scheme":"http","authority":"www.assero.co.uk","path":"MDRSdtmMd/CDISC/V3","prefix":"M","uid":"CDISC_SDTMMODELFINDINGS_xxDTC","version":""},"--STDTC":{"scheme":"http","authority":"www.assero.co.uk","path":"MDRSdtmMd/CDISC/V3","prefix":"M","uid":"CDISC_SDTMMODELFINDINGS_xxSTDTC","version":""},"--ENDTC":{"scheme":"http","authority":"www.assero.co.uk","path":"MDRSdtmMd/CDISC/V3","prefix":"M","uid":"CDISC_SDTMMODELFINDINGS_xxENDTC","version":""},"--DY":{"scheme":"http","authority":"www.assero.co.uk","path":"MDRSdtmMd/CDISC/V3","prefix":"M","uid":"CDISC_SDTMMODELFINDINGS_xxDY","version":""},"--STDY":{"scheme":"http","authority":"www.assero.co.uk","path":"MDRSdtmMd/CDISC/V3","prefix":"M","uid":"CDISC_SDTMMODELFINDINGS_xxSTDY","version":""},"--ENDY":{"scheme":"http","authority":"www.assero.co.uk","path":"MDRSdtmMd/CDISC/V3","prefix":"M","uid":"CDISC_SDTMMODELFINDINGS_xxENDY","version":""},"--DUR":{"scheme":"http","authority":"www.assero.co.uk","path":"MDRSdtmMd/CDISC/V3","prefix":"M","uid":"CDISC_SDTMMODELFINDINGS_xxDUR","version":""},"--TPT":{"scheme":"http","authority":"www.assero.co.uk","path":"MDRSdtmMd/CDISC/V3","prefix":"M","uid":"CDISC_SDTMMODELFINDINGS_xxTPT","version":""},"--TPTNUM":{"scheme":"http","authority":"www.assero.co.uk","path":"MDRSdtmMd/CDISC/V3","prefix":"M","uid":"CDISC_SDTMMODELFINDINGS_xxTPTNUM","version":""},"--ELTM":{"scheme":"http","authority":"www.assero.co.uk","path":"MDRSdtmMd/CDISC/V3","prefix":"M","uid":"CDISC_SDTMMODELFINDINGS_xxELTM","version":""},"--TPTREF":{"scheme":"http","authority":"www.assero.co.uk","path":"MDRSdtmMd/CDISC/V3","prefix":"M","uid":"CDISC_SDTMMODELFINDINGS_xxTPTREF","version":""},"--RFTDTC":{"scheme":"http","authority":"www.assero.co.uk","path":"MDRSdtmMd/CDISC/V3","prefix":"M","uid":"CDISC_SDTMMODELFINDINGS_xxRFTDTC","version":""},"--STRF":{"scheme":"http","authority":"www.assero.co.uk","path":"MDRSdtmMd/CDISC/V3","prefix":"M","uid":"CDISC_SDTMMODELFINDINGS_xxSTRF","version":""},"--ENRF":{"scheme":"http","authority":"www.assero.co.uk","path":"MDRSdtmMd/CDISC/V3","prefix":"M","uid":"CDISC_SDTMMODELFINDINGS_xxENRF","version":""},"--EVLINT":{"scheme":"http","authority":"www.assero.co.uk","path":"MDRSdtmMd/CDISC/V3","prefix":"M","uid":"CDISC_SDTMMODELFINDINGS_xxEVLINT","version":""},"--EVINTX":{"scheme":"http","authority":"www.assero.co.uk","path":"MDRSdtmMd/CDISC/V3","prefix":"M","uid":"CDISC_SDTMMODELFINDINGS_xxEVINTX","version":""},"--STRTPT":{"scheme":"http","authority":"www.assero.co.uk","path":"MDRSdtmMd/CDISC/V3","prefix":"M","uid":"CDISC_SDTMMODELFINDINGS_xxSTRTPT","version":""},"--STTPT":{"scheme":"http","authority":"www.assero.co.uk","path":"MDRSdtmMd/CDISC/V3","prefix":"M","uid":"CDISC_SDTMMODELFINDINGS_xxSTTPT","version":""},"--ENRTPT":{"scheme":"http","authority":"www.assero.co.uk","path":"MDRSdtmMd/CDISC/V3","prefix":"M","uid":"CDISC_SDTMMODELFINDINGS_xxENRTPT","version":""},"--ENTPT":{"scheme":"http","authority":"www.assero.co.uk","path":"MDRSdtmMd/CDISC/V3","prefix":"M","uid":"CDISC_SDTMMODELFINDINGS_xxENTPT","version":""},"--STINT":{"scheme":"http","authority":"www.assero.co.uk","path":"MDRSdtmMd/CDISC/V3","prefix":"M","uid":"CDISC_SDTMMODELFINDINGS_xxSTINT","version":""},"--ENINT":{"scheme":"http","authority":"www.assero.co.uk","path":"MDRSdtmMd/CDISC/V3","prefix":"M","uid":"CDISC_SDTMMODELFINDINGS_xxENINT","version":""},"--DETECT":{"scheme":"http","authority":"www.assero.co.uk","path":"MDRSdtmMd/CDISC/V3","prefix":"M","uid":"CDISC_SDTMMODELFINDINGS_xxDETECT","version":""}}},"Findings
  About":{"class":"Findings About","uri":{"scheme":"http","authority":"www.assero.co.uk","path":"MDRSdtmMd/CDISC/V3","prefix":"M","uid":"CDISC_SDTMMODELFINDINGSABOUT","version":""},"children":{"STUDYID":{"scheme":"http","authority":"www.assero.co.uk","path":"MDRSdtmMd/CDISC/V3","prefix":"M","uid":"CDISC_SDTMMODELFINDINGSABOUT_STUDYID","version":""},"DOMAIN":{"scheme":"http","authority":"www.assero.co.uk","path":"MDRSdtmMd/CDISC/V3","prefix":"M","uid":"CDISC_SDTMMODELFINDINGSABOUT_DOMAIN","version":""},"USUBJID":{"scheme":"http","authority":"www.assero.co.uk","path":"MDRSdtmMd/CDISC/V3","prefix":"M","uid":"CDISC_SDTMMODELFINDINGSABOUT_USUBJID","version":""},"POOLID":{"scheme":"http","authority":"www.assero.co.uk","path":"MDRSdtmMd/CDISC/V3","prefix":"M","uid":"CDISC_SDTMMODELFINDINGSABOUT_POOLID","version":""},"SPDEVID":{"scheme":"http","authority":"www.assero.co.uk","path":"MDRSdtmMd/CDISC/V3","prefix":"M","uid":"CDISC_SDTMMODELFINDINGSABOUT_SPDEVID","version":""},"--SEQ":{"scheme":"http","authority":"www.assero.co.uk","path":"MDRSdtmMd/CDISC/V3","prefix":"M","uid":"CDISC_SDTMMODELFINDINGSABOUT_xxSEQ","version":""},"--GRPID":{"scheme":"http","authority":"www.assero.co.uk","path":"MDRSdtmMd/CDISC/V3","prefix":"M","uid":"CDISC_SDTMMODELFINDINGSABOUT_xxGRPID","version":""},"--REFID":{"scheme":"http","authority":"www.assero.co.uk","path":"MDRSdtmMd/CDISC/V3","prefix":"M","uid":"CDISC_SDTMMODELFINDINGSABOUT_xxREFID","version":""},"--SPID":{"scheme":"http","authority":"www.assero.co.uk","path":"MDRSdtmMd/CDISC/V3","prefix":"M","uid":"CDISC_SDTMMODELFINDINGSABOUT_xxSPID","version":""},"--LNKID":{"scheme":"http","authority":"www.assero.co.uk","path":"MDRSdtmMd/CDISC/V3","prefix":"M","uid":"CDISC_SDTMMODELFINDINGSABOUT_xxLNKID","version":""},"--LNKGRP":{"scheme":"http","authority":"www.assero.co.uk","path":"MDRSdtmMd/CDISC/V3","prefix":"M","uid":"CDISC_SDTMMODELFINDINGSABOUT_xxLNKGRP","version":""},"--TESTCD":{"scheme":"http","authority":"www.assero.co.uk","path":"MDRSdtmMd/CDISC/V3","prefix":"M","uid":"CDISC_SDTMMODELFINDINGSABOUT_xxTESTCD","version":""},"--TEST":{"scheme":"http","authority":"www.assero.co.uk","path":"MDRSdtmMd/CDISC/V3","prefix":"M","uid":"CDISC_SDTMMODELFINDINGSABOUT_xxTEST","version":""},"--MODIFY":{"scheme":"http","authority":"www.assero.co.uk","path":"MDRSdtmMd/CDISC/V3","prefix":"M","uid":"CDISC_SDTMMODELFINDINGSABOUT_xxMODIFY","version":""},"--TSTDTL":{"scheme":"http","authority":"www.assero.co.uk","path":"MDRSdtmMd/CDISC/V3","prefix":"M","uid":"CDISC_SDTMMODELFINDINGSABOUT_xxTSTDTL","version":""},"--CAT":{"scheme":"http","authority":"www.assero.co.uk","path":"MDRSdtmMd/CDISC/V3","prefix":"M","uid":"CDISC_SDTMMODELFINDINGSABOUT_xxCAT","version":""},"--SCAT":{"scheme":"http","authority":"www.assero.co.uk","path":"MDRSdtmMd/CDISC/V3","prefix":"M","uid":"CDISC_SDTMMODELFINDINGSABOUT_xxSCAT","version":""},"--POS":{"scheme":"http","authority":"www.assero.co.uk","path":"MDRSdtmMd/CDISC/V3","prefix":"M","uid":"CDISC_SDTMMODELFINDINGSABOUT_xxPOS","version":""},"--BODSYS":{"scheme":"http","authority":"www.assero.co.uk","path":"MDRSdtmMd/CDISC/V3","prefix":"M","uid":"CDISC_SDTMMODELFINDINGSABOUT_xxBODSYS","version":""},"--ORRES":{"scheme":"http","authority":"www.assero.co.uk","path":"MDRSdtmMd/CDISC/V3","prefix":"M","uid":"CDISC_SDTMMODELFINDINGSABOUT_xxORRES","version":""},"--ORRESU":{"scheme":"http","authority":"www.assero.co.uk","path":"MDRSdtmMd/CDISC/V3","prefix":"M","uid":"CDISC_SDTMMODELFINDINGSABOUT_xxORRESU","version":""},"--ORNRLO":{"scheme":"http","authority":"www.assero.co.uk","path":"MDRSdtmMd/CDISC/V3","prefix":"M","uid":"CDISC_SDTMMODELFINDINGSABOUT_xxORNRLO","version":""},"--ORNRHI":{"scheme":"http","authority":"www.assero.co.uk","path":"MDRSdtmMd/CDISC/V3","prefix":"M","uid":"CDISC_SDTMMODELFINDINGSABOUT_xxORNRHI","version":""},"--STRESC":{"scheme":"http","authority":"www.assero.co.uk","path":"MDRSdtmMd/CDISC/V3","prefix":"M","uid":"CDISC_SDTMMODELFINDINGSABOUT_xxSTRESC","version":""},"--STRESN":{"scheme":"http","authority":"www.assero.co.uk","path":"MDRSdtmMd/CDISC/V3","prefix":"M","uid":"CDISC_SDTMMODELFINDINGSABOUT_xxSTRESN","version":""},"--STRESU":{"scheme":"http","authority":"www.assero.co.uk","path":"MDRSdtmMd/CDISC/V3","prefix":"M","uid":"CDISC_SDTMMODELFINDINGSABOUT_xxSTRESU","version":""},"--STNRLO":{"scheme":"http","authority":"www.assero.co.uk","path":"MDRSdtmMd/CDISC/V3","prefix":"M","uid":"CDISC_SDTMMODELFINDINGSABOUT_xxSTNRLO","version":""},"--STNRHI":{"scheme":"http","authority":"www.assero.co.uk","path":"MDRSdtmMd/CDISC/V3","prefix":"M","uid":"CDISC_SDTMMODELFINDINGSABOUT_xxSTNRHI","version":""},"--STNRC":{"scheme":"http","authority":"www.assero.co.uk","path":"MDRSdtmMd/CDISC/V3","prefix":"M","uid":"CDISC_SDTMMODELFINDINGSABOUT_xxSTNRC","version":""},"--NRIND":{"scheme":"http","authority":"www.assero.co.uk","path":"MDRSdtmMd/CDISC/V3","prefix":"M","uid":"CDISC_SDTMMODELFINDINGSABOUT_xxNRIND","version":""},"--RESCAT":{"scheme":"http","authority":"www.assero.co.uk","path":"MDRSdtmMd/CDISC/V3","prefix":"M","uid":"CDISC_SDTMMODELFINDINGSABOUT_xxRESCAT","version":""},"--STAT":{"scheme":"http","authority":"www.assero.co.uk","path":"MDRSdtmMd/CDISC/V3","prefix":"M","uid":"CDISC_SDTMMODELFINDINGSABOUT_xxSTAT","version":""},"--REASND":{"scheme":"http","authority":"www.assero.co.uk","path":"MDRSdtmMd/CDISC/V3","prefix":"M","uid":"CDISC_SDTMMODELFINDINGSABOUT_xxREASND","version":""},"--XFN":{"scheme":"http","authority":"www.assero.co.uk","path":"MDRSdtmMd/CDISC/V3","prefix":"M","uid":"CDISC_SDTMMODELFINDINGSABOUT_xxXFN","version":""},"--NAM":{"scheme":"http","authority":"www.assero.co.uk","path":"MDRSdtmMd/CDISC/V3","prefix":"M","uid":"CDISC_SDTMMODELFINDINGSABOUT_xxNAM","version":""},"--LOINC":{"scheme":"http","authority":"www.assero.co.uk","path":"MDRSdtmMd/CDISC/V3","prefix":"M","uid":"CDISC_SDTMMODELFINDINGSABOUT_xxLOINC","version":""},"--SPEC":{"scheme":"http","authority":"www.assero.co.uk","path":"MDRSdtmMd/CDISC/V3","prefix":"M","uid":"CDISC_SDTMMODELFINDINGSABOUT_xxSPEC","version":""},"--ANTREG":{"scheme":"http","authority":"www.assero.co.uk","path":"MDRSdtmMd/CDISC/V3","prefix":"M","uid":"CDISC_SDTMMODELFINDINGSABOUT_xxANTREG","version":""},"--SPCCND":{"scheme":"http","authority":"www.assero.co.uk","path":"MDRSdtmMd/CDISC/V3","prefix":"M","uid":"CDISC_SDTMMODELFINDINGSABOUT_xxSPCCND","version":""},"--SPCUFL":{"scheme":"http","authority":"www.assero.co.uk","path":"MDRSdtmMd/CDISC/V3","prefix":"M","uid":"CDISC_SDTMMODELFINDINGSABOUT_xxSPCUFL","version":""},"--LOC":{"scheme":"http","authority":"www.assero.co.uk","path":"MDRSdtmMd/CDISC/V3","prefix":"M","uid":"CDISC_SDTMMODELFINDINGSABOUT_xxLOC","version":""},"--LAT":{"scheme":"http","authority":"www.assero.co.uk","path":"MDRSdtmMd/CDISC/V3","prefix":"M","uid":"CDISC_SDTMMODELFINDINGSABOUT_xxLAT","version":""},"--DIR":{"scheme":"http","authority":"www.assero.co.uk","path":"MDRSdtmMd/CDISC/V3","prefix":"M","uid":"CDISC_SDTMMODELFINDINGSABOUT_xxDIR","version":""},"--PORTOT":{"scheme":"http","authority":"www.assero.co.uk","path":"MDRSdtmMd/CDISC/V3","prefix":"M","uid":"CDISC_SDTMMODELFINDINGSABOUT_xxPORTOT","version":""},"--METHOD":{"scheme":"http","authority":"www.assero.co.uk","path":"MDRSdtmMd/CDISC/V3","prefix":"M","uid":"CDISC_SDTMMODELFINDINGSABOUT_xxMETHOD","version":""},"--RUNID":{"scheme":"http","authority":"www.assero.co.uk","path":"MDRSdtmMd/CDISC/V3","prefix":"M","uid":"CDISC_SDTMMODELFINDINGSABOUT_xxRUNID","version":""},"--ANMETH":{"scheme":"http","authority":"www.assero.co.uk","path":"MDRSdtmMd/CDISC/V3","prefix":"M","uid":"CDISC_SDTMMODELFINDINGSABOUT_xxANMETH","version":""},"--LEAD":{"scheme":"http","authority":"www.assero.co.uk","path":"MDRSdtmMd/CDISC/V3","prefix":"M","uid":"CDISC_SDTMMODELFINDINGSABOUT_xxLEAD","version":""},"--CSTATE":{"scheme":"http","authority":"www.assero.co.uk","path":"MDRSdtmMd/CDISC/V3","prefix":"M","uid":"CDISC_SDTMMODELFINDINGSABOUT_xxCSTATE","version":""},"--BLFL":{"scheme":"http","authority":"www.assero.co.uk","path":"MDRSdtmMd/CDISC/V3","prefix":"M","uid":"CDISC_SDTMMODELFINDINGSABOUT_xxBLFL","version":""},"--FAST":{"scheme":"http","authority":"www.assero.co.uk","path":"MDRSdtmMd/CDISC/V3","prefix":"M","uid":"CDISC_SDTMMODELFINDINGSABOUT_xxFAST","version":""},"--DRVFL":{"scheme":"http","authority":"www.assero.co.uk","path":"MDRSdtmMd/CDISC/V3","prefix":"M","uid":"CDISC_SDTMMODELFINDINGSABOUT_xxDRVFL","version":""},"--EVAL":{"scheme":"http","authority":"www.assero.co.uk","path":"MDRSdtmMd/CDISC/V3","prefix":"M","uid":"CDISC_SDTMMODELFINDINGSABOUT_xxEVAL","version":""},"--EVALID":{"scheme":"http","authority":"www.assero.co.uk","path":"MDRSdtmMd/CDISC/V3","prefix":"M","uid":"CDISC_SDTMMODELFINDINGSABOUT_xxEVALID","version":""},"--ACPTFL":{"scheme":"http","authority":"www.assero.co.uk","path":"MDRSdtmMd/CDISC/V3","prefix":"M","uid":"CDISC_SDTMMODELFINDINGSABOUT_xxACPTFL","version":""},"--TOX":{"scheme":"http","authority":"www.assero.co.uk","path":"MDRSdtmMd/CDISC/V3","prefix":"M","uid":"CDISC_SDTMMODELFINDINGSABOUT_xxTOX","version":""},"--TOXGR":{"scheme":"http","authority":"www.assero.co.uk","path":"MDRSdtmMd/CDISC/V3","prefix":"M","uid":"CDISC_SDTMMODELFINDINGSABOUT_xxTOXGR","version":""},"--SEV":{"scheme":"http","authority":"www.assero.co.uk","path":"MDRSdtmMd/CDISC/V3","prefix":"M","uid":"CDISC_SDTMMODELFINDINGSABOUT_xxSEV","version":""},"--DTHREL":{"scheme":"http","authority":"www.assero.co.uk","path":"MDRSdtmMd/CDISC/V3","prefix":"M","uid":"CDISC_SDTMMODELFINDINGSABOUT_xxDTHREL","version":""},"--LLOQ":{"scheme":"http","authority":"www.assero.co.uk","path":"MDRSdtmMd/CDISC/V3","prefix":"M","uid":"CDISC_SDTMMODELFINDINGSABOUT_xxLLOQ","version":""},"--ULOQ":{"scheme":"http","authority":"www.assero.co.uk","path":"MDRSdtmMd/CDISC/V3","prefix":"M","uid":"CDISC_SDTMMODELFINDINGSABOUT_xxULOQ","version":""},"--EXCLFL":{"scheme":"http","authority":"www.assero.co.uk","path":"MDRSdtmMd/CDISC/V3","prefix":"M","uid":"CDISC_SDTMMODELFINDINGSABOUT_xxEXCLFL","version":""},"--REASEX":{"scheme":"http","authority":"www.assero.co.uk","path":"MDRSdtmMd/CDISC/V3","prefix":"M","uid":"CDISC_SDTMMODELFINDINGSABOUT_xxREASEX","version":""},"--OBJ":{"scheme":"http","authority":"www.assero.co.uk","path":"MDRSdtmMd/CDISC/V3","prefix":"M","uid":"CDISC_SDTMMODELFINDINGSABOUT_xxOBJ","version":""},"VISITNUM":{"scheme":"http","authority":"www.assero.co.uk","path":"MDRSdtmMd/CDISC/V3","prefix":"M","uid":"CDISC_SDTMMODELFINDINGSABOUT_VISITNUM","version":""},"VISIT":{"scheme":"http","authority":"www.assero.co.uk","path":"MDRSdtmMd/CDISC/V3","prefix":"M","uid":"CDISC_SDTMMODELFINDINGSABOUT_VISIT","version":""},"VISITDY":{"scheme":"http","authority":"www.assero.co.uk","path":"MDRSdtmMd/CDISC/V3","prefix":"M","uid":"CDISC_SDTMMODELFINDINGSABOUT_VISITDY","version":""},"TAETORD":{"scheme":"http","authority":"www.assero.co.uk","path":"MDRSdtmMd/CDISC/V3","prefix":"M","uid":"CDISC_SDTMMODELFINDINGSABOUT_TAETORD","version":""},"EPOCH":{"scheme":"http","authority":"www.assero.co.uk","path":"MDRSdtmMd/CDISC/V3","prefix":"M","uid":"CDISC_SDTMMODELFINDINGSABOUT_EPOCH","version":""},"--DTC":{"scheme":"http","authority":"www.assero.co.uk","path":"MDRSdtmMd/CDISC/V3","prefix":"M","uid":"CDISC_SDTMMODELFINDINGSABOUT_xxDTC","version":""},"--STDTC":{"scheme":"http","authority":"www.assero.co.uk","path":"MDRSdtmMd/CDISC/V3","prefix":"M","uid":"CDISC_SDTMMODELFINDINGSABOUT_xxSTDTC","version":""},"--ENDTC":{"scheme":"http","authority":"www.assero.co.uk","path":"MDRSdtmMd/CDISC/V3","prefix":"M","uid":"CDISC_SDTMMODELFINDINGSABOUT_xxENDTC","version":""},"--DY":{"scheme":"http","authority":"www.assero.co.uk","path":"MDRSdtmMd/CDISC/V3","prefix":"M","uid":"CDISC_SDTMMODELFINDINGSABOUT_xxDY","version":""},"--STDY":{"scheme":"http","authority":"www.assero.co.uk","path":"MDRSdtmMd/CDISC/V3","prefix":"M","uid":"CDISC_SDTMMODELFINDINGSABOUT_xxSTDY","version":""},"--ENDY":{"scheme":"http","authority":"www.assero.co.uk","path":"MDRSdtmMd/CDISC/V3","prefix":"M","uid":"CDISC_SDTMMODELFINDINGSABOUT_xxENDY","version":""},"--DUR":{"scheme":"http","authority":"www.assero.co.uk","path":"MDRSdtmMd/CDISC/V3","prefix":"M","uid":"CDISC_SDTMMODELFINDINGSABOUT_xxDUR","version":""},"--TPT":{"scheme":"http","authority":"www.assero.co.uk","path":"MDRSdtmMd/CDISC/V3","prefix":"M","uid":"CDISC_SDTMMODELFINDINGSABOUT_xxTPT","version":""},"--TPTNUM":{"scheme":"http","authority":"www.assero.co.uk","path":"MDRSdtmMd/CDISC/V3","prefix":"M","uid":"CDISC_SDTMMODELFINDINGSABOUT_xxTPTNUM","version":""},"--ELTM":{"scheme":"http","authority":"www.assero.co.uk","path":"MDRSdtmMd/CDISC/V3","prefix":"M","uid":"CDISC_SDTMMODELFINDINGSABOUT_xxELTM","version":""},"--TPTREF":{"scheme":"http","authority":"www.assero.co.uk","path":"MDRSdtmMd/CDISC/V3","prefix":"M","uid":"CDISC_SDTMMODELFINDINGSABOUT_xxTPTREF","version":""},"--RFTDTC":{"scheme":"http","authority":"www.assero.co.uk","path":"MDRSdtmMd/CDISC/V3","prefix":"M","uid":"CDISC_SDTMMODELFINDINGSABOUT_xxRFTDTC","version":""},"--STRF":{"scheme":"http","authority":"www.assero.co.uk","path":"MDRSdtmMd/CDISC/V3","prefix":"M","uid":"CDISC_SDTMMODELFINDINGSABOUT_xxSTRF","version":""},"--ENRF":{"scheme":"http","authority":"www.assero.co.uk","path":"MDRSdtmMd/CDISC/V3","prefix":"M","uid":"CDISC_SDTMMODELFINDINGSABOUT_xxENRF","version":""},"--EVLINT":{"scheme":"http","authority":"www.assero.co.uk","path":"MDRSdtmMd/CDISC/V3","prefix":"M","uid":"CDISC_SDTMMODELFINDINGSABOUT_xxEVLINT","version":""},"--EVINTX":{"scheme":"http","authority":"www.assero.co.uk","path":"MDRSdtmMd/CDISC/V3","prefix":"M","uid":"CDISC_SDTMMODELFINDINGSABOUT_xxEVINTX","version":""},"--STRTPT":{"scheme":"http","authority":"www.assero.co.uk","path":"MDRSdtmMd/CDISC/V3","prefix":"M","uid":"CDISC_SDTMMODELFINDINGSABOUT_xxSTRTPT","version":""},"--STTPT":{"scheme":"http","authority":"www.assero.co.uk","path":"MDRSdtmMd/CDISC/V3","prefix":"M","uid":"CDISC_SDTMMODELFINDINGSABOUT_xxSTTPT","version":""},"--ENRTPT":{"scheme":"http","authority":"www.assero.co.uk","path":"MDRSdtmMd/CDISC/V3","prefix":"M","uid":"CDISC_SDTMMODELFINDINGSABOUT_xxENRTPT","version":""},"--ENTPT":{"scheme":"http","authority":"www.assero.co.uk","path":"MDRSdtmMd/CDISC/V3","prefix":"M","uid":"CDISC_SDTMMODELFINDINGSABOUT_xxENTPT","version":""},"--STINT":{"scheme":"http","authority":"www.assero.co.uk","path":"MDRSdtmMd/CDISC/V3","prefix":"M","uid":"CDISC_SDTMMODELFINDINGSABOUT_xxSTINT","version":""},"--ENINT":{"scheme":"http","authority":"www.assero.co.uk","path":"MDRSdtmMd/CDISC/V3","prefix":"M","uid":"CDISC_SDTMMODELFINDINGSABOUT_xxENINT","version":""},"--DETECT":{"scheme":"http","authority":"www.assero.co.uk","path":"MDRSdtmMd/CDISC/V3","prefix":"M","uid":"CDISC_SDTMMODELFINDINGSABOUT_xxDETECT","version":""}}}}'
