---
:type: http://www.assero.co.uk/BusinessDomain#Model
:id: M-CDISC_SDTMMODEL
:namespace: http://www.assero.co.uk/MDRSdtmM/CDISC/V3
:label: SDTM Model 2013-11-26
:extension_properties: []
:origin: ''
:change_description: ''
:creation_date: '2013-11-26T00:00:00+00:00'
:last_changed_date: '2016-09-02T23:32:16+01:00'
:explanatory_comment: ''
:registration_state:
  :namespace: http://www.assero.co.uk/MDRItems
  :id: RS-CDISC_SDTMMODEL-3
  :registration_authority:
    :uri: http://www.assero.co.uk/RA#DUNS084433759
    :rdf_type: http://www.assero.co.uk/ISO11179Registration#RegistrationAuthority
    :organization_identifier: "084433759"
    :international_code_designator: DUNS
    :owner: false
    :ra_namespace:
      :uri: http://www.assero.co.uk/NS#CDISC
      :rdf_type: http://www.assero.co.uk/ISO11179Identification##Namespace
      :namespace: http://www.assero.co.uk/NS
      :id: CDISC
      :name: Clinical Data Interchange Standards Consortium
      :shortName: CDISC
  :registration_status: Standard
  :administrative_note: ''
  :effective_date: '2016-01-01T00:00:00Z'
  :until_date: '2016-01-01T00:00:00Z'
  :current: false
  :unresolved_issue: ''
  :administrative_status: ''
  :previous_state: Standard
:scoped_identifier:
  :id: SI-CDISC_SDTMMODEL-3
  :identifier: SDTM MODEL
  :version_label: '1.4'
  :version: 3
  :semantic_version: 0.0.0
  :namespace:
    :uri: http://www.assero.co.uk/NS#CDISC
    :rdf_type: http://www.assero.co.uk/ISO11179Identification##Namespace
    :namespace: http://www.assero.co.uk/NS
    :id: CDISC
    :name: Clinical Data Interchange Standards Consortium
    :shortName: CDISC
:ordinal: 0
:rule: ''
:children:
- :type: http://www.assero.co.uk/BusinessDomain#ModelVariable
  :id: M-CDISC_SDTMMODEL_xxSCONG
  :namespace: http://www.assero.co.uk/MDRSdtmM/CDISC/V3
  :label: Congenital Anomaly or Birth Defect
  :extension_properties: []
  :ordinal: 37
  :rule: ''
  :name: "--SCONG"
  :prefixed: true
  :description: Was the event associated with congenital anomaly or birth defect?
    Valid values are “Y” and “N”.
  :datatype:
    :type: http://www.assero.co.uk/BusinessDomain#VariableType
    :id: M-CDISC_SDTMMODEL_DT_CHAR
    :namespace: http://www.assero.co.uk/MDRSdtmM/CDISC/V3
    :label: Char
    :extension_properties: []
  :classification:
    :type: http://www.assero.co.uk/BusinessDomain#VariableClassification
    :id: M-CDISC_SDTMMODEL_C_QUALIFIER
    :namespace: http://www.assero.co.uk/MDRSdtmM/CDISC/V3
    :label: Qualifier
    :extension_properties: []
  :sub_classification:
    :type: http://www.assero.co.uk/BusinessDomain#VariableClassification
    :id: M-CDISC_SDTMMODEL_SC_RECORDQUALIFIER
    :namespace: http://www.assero.co.uk/MDRSdtmM/CDISC/V3
    :label: Record Qualifier
    :extension_properties: []
- :type: http://www.assero.co.uk/BusinessDomain#ModelVariable
  :id: M-CDISC_SDTMMODEL_IETEST
  :namespace: http://www.assero.co.uk/MDRSdtmM/CDISC/V3
  :label: Inclusion/Exclusion Criterion
  :extension_properties: []
  :ordinal: 14
  :rule: ''
  :name: IETEST
  :prefixed: false
  :description: Full text of the inclusion or exclusion criterion. The prefix “IE”
    is used to ensure consistency with the IE domain.
  :datatype:
    :type: http://www.assero.co.uk/BusinessDomain#VariableType
    :id: M-CDISC_SDTMMODEL_DT_CHAR
    :namespace: http://www.assero.co.uk/MDRSdtmM/CDISC/V3
    :label: Char
    :extension_properties: []
  :classification:
    :type: http://www.assero.co.uk/BusinessDomain#VariableClassification
    :id: M-CDISC_SDTMMODEL_C_QUALIFIER
    :namespace: http://www.assero.co.uk/MDRSdtmM/CDISC/V3
    :label: Qualifier
    :extension_properties: []
  :sub_classification:
    :type: http://www.assero.co.uk/BusinessDomain#VariableClassification
    :id: M-CDISC_SDTMMODEL_SC_SYNONYMQUALIFIER
    :namespace: http://www.assero.co.uk/MDRSdtmM/CDISC/V3
    :label: Synonym Qualifier
    :extension_properties: []
- :type: http://www.assero.co.uk/BusinessDomain#ModelVariable
  :id: M-CDISC_SDTMMODEL_xxTOXGR
  :namespace: http://www.assero.co.uk/MDRSdtmM/CDISC/V3
  :label: Toxicity Grade
  :extension_properties: []
  :ordinal: 46
  :rule: ''
  :name: "--TOXGR"
  :prefixed: true
  :description: 'Records toxicity grade using a standard toxicity scale (such as the
    NCI CTCAE). Sponsor should specify which scale and version is used in the Sponsor
    Comments column of the Define data definition document. Example: 2.'
  :datatype:
    :type: http://www.assero.co.uk/BusinessDomain#VariableType
    :id: M-CDISC_SDTMMODEL_DT_CHAR
    :namespace: http://www.assero.co.uk/MDRSdtmM/CDISC/V3
    :label: Char
    :extension_properties: []
  :classification:
    :type: http://www.assero.co.uk/BusinessDomain#VariableClassification
    :id: M-CDISC_SDTMMODEL_C_QUALIFIER
    :namespace: http://www.assero.co.uk/MDRSdtmM/CDISC/V3
    :label: Qualifier
    :extension_properties: []
  :sub_classification:
    :type: http://www.assero.co.uk/BusinessDomain#VariableClassification
    :id: M-CDISC_SDTMMODEL_SC_RECORDQUALIFIER
    :namespace: http://www.assero.co.uk/MDRSdtmM/CDISC/V3
    :label: Record Qualifier
    :extension_properties: []
- :type: http://www.assero.co.uk/BusinessDomain#ModelVariable
  :id: M-CDISC_SDTMMODEL_xxSPID
  :namespace: http://www.assero.co.uk/MDRSdtmM/CDISC/V3
  :label: Sponsor-Defined Identifier
  :extension_properties: []
  :ordinal: 9
  :rule: ''
  :name: "--SPID"
  :prefixed: true
  :description: 'Sponsor-defined identifier. Example: pre-printed line identifier
    on a Concomitant Medications page.'
  :datatype:
    :type: http://www.assero.co.uk/BusinessDomain#VariableType
    :id: M-CDISC_SDTMMODEL_DT_CHAR
    :namespace: http://www.assero.co.uk/MDRSdtmM/CDISC/V3
    :label: Char
    :extension_properties: []
  :classification:
    :type: http://www.assero.co.uk/BusinessDomain#VariableClassification
    :id: M-CDISC_SDTMMODEL_C_IDENTIFIER
    :namespace: http://www.assero.co.uk/MDRSdtmM/CDISC/V3
    :label: Identifier
    :extension_properties: []
- :type: http://www.assero.co.uk/BusinessDomain#ModelVariable
  :id: M-CDISC_SDTMMODEL_xxPARMCD
  :namespace: http://www.assero.co.uk/MDRSdtmM/CDISC/V3
  :label: Trial Summary Parameter Short Name
  :extension_properties: []
  :ordinal: 19
  :rule: ''
  :name: "--PARMCD"
  :prefixed: true
  :description: 'TSPARMCD (the companion to TSPARM) is limited to 8 characters and
    does not have special character restrictions. These values should be short for
    ease of use in programming, but it is not expected that TSPARMCD will need to
    serve as variable names. Examples: AGEMIN, AGEMAX'
  :datatype:
    :type: http://www.assero.co.uk/BusinessDomain#VariableType
    :id: M-CDISC_SDTMMODEL_DT_CHAR
    :namespace: http://www.assero.co.uk/MDRSdtmM/CDISC/V3
    :label: Char
    :extension_properties: []
  :classification:
    :type: http://www.assero.co.uk/BusinessDomain#VariableClassification
    :id: M-CDISC_SDTMMODEL_C_TOPIC
    :namespace: http://www.assero.co.uk/MDRSdtmM/CDISC/V3
    :label: Topic
    :extension_properties: []
- :type: http://www.assero.co.uk/BusinessDomain#ModelVariable
  :id: M-CDISC_SDTMMODEL_USUBJID
  :namespace: http://www.assero.co.uk/MDRSdtmM/CDISC/V3
  :label: Unique Subject Identifier
  :extension_properties: []
  :ordinal: 3
  :rule: ''
  :name: USUBJID
  :prefixed: false
  :description: Identifier used to uniquely identify a subject across all studies
    for all applications or submissions involving the product.
  :datatype:
    :type: http://www.assero.co.uk/BusinessDomain#VariableType
    :id: M-CDISC_SDTMMODEL_DT_CHAR
    :namespace: http://www.assero.co.uk/MDRSdtmM/CDISC/V3
    :label: Char
    :extension_properties: []
  :classification:
    :type: http://www.assero.co.uk/BusinessDomain#VariableClassification
    :id: M-CDISC_SDTMMODEL_C_IDENTIFIER
    :namespace: http://www.assero.co.uk/MDRSdtmM/CDISC/V3
    :label: Identifier
    :extension_properties: []
- :type: http://www.assero.co.uk/BusinessDomain#ModelVariable
  :id: M-CDISC_SDTMMODEL_xxDY
  :namespace: http://www.assero.co.uk/MDRSdtmM/CDISC/V3
  :label: Study Day of Visit/Collection/Exam
  :extension_properties: []
  :ordinal: 20
  :rule: ''
  :name: "--DY"
  :prefixed: true
  :description: Actual study day of visit/collection/exam expressed in integer days
    relative to the sponsor-defined RFSTDTC in Demographics.
  :datatype:
    :type: http://www.assero.co.uk/BusinessDomain#VariableType
    :id: M-CDISC_SDTMMODEL_DT_NUM
    :namespace: http://www.assero.co.uk/MDRSdtmM/CDISC/V3
    :label: Num
    :extension_properties: []
  :classification:
    :type: http://www.assero.co.uk/BusinessDomain#VariableClassification
    :id: M-CDISC_SDTMMODEL_C_TIMING
    :namespace: http://www.assero.co.uk/MDRSdtmM/CDISC/V3
    :label: Timing
    :extension_properties: []
- :type: http://www.assero.co.uk/BusinessDomain#ModelVariable
  :id: M-CDISC_SDTMMODEL_INVID
  :namespace: http://www.assero.co.uk/MDRSdtmM/CDISC/V3
  :label: Investigator Identifier
  :extension_properties: []
  :ordinal: 11
  :rule: ''
  :name: INVID
  :prefixed: false
  :description: An identifier to describe the Investigator for the study. May be used
    in addition to the SITEID. Not needed if SITEID is equivalent to INVID.
  :datatype:
    :type: http://www.assero.co.uk/BusinessDomain#VariableType
    :id: M-CDISC_SDTMMODEL_DT_CHAR
    :namespace: http://www.assero.co.uk/MDRSdtmM/CDISC/V3
    :label: Char
    :extension_properties: []
  :classification:
    :type: http://www.assero.co.uk/BusinessDomain#VariableClassification
    :id: M-CDISC_SDTMMODEL_C_QUALIFIER
    :namespace: http://www.assero.co.uk/MDRSdtmM/CDISC/V3
    :label: Qualifier
    :extension_properties: []
  :sub_classification:
    :type: http://www.assero.co.uk/BusinessDomain#VariableClassification
    :id: M-CDISC_SDTMMODEL_SC_RECORDQUALIFIER
    :namespace: http://www.assero.co.uk/MDRSdtmM/CDISC/V3
    :label: Record Qualifier
    :extension_properties: []
- :type: http://www.assero.co.uk/BusinessDomain#ModelVariable
  :id: M-CDISC_SDTMMODEL_xxSTRESN
  :namespace: http://www.assero.co.uk/MDRSdtmM/CDISC/V3
  :label: Numeric Result/Finding in Standard Units
  :extension_properties: []
  :ordinal: 14
  :rule: ''
  :name: "--STRESN"
  :prefixed: true
  :description: Used for continuous or numeric results or findings in standard format;
    copied in numeric format from --STRESC. --STRESN should store all numeric test
    results or findings.
  :datatype:
    :type: http://www.assero.co.uk/BusinessDomain#VariableType
    :id: M-CDISC_SDTMMODEL_DT_NUM
    :namespace: http://www.assero.co.uk/MDRSdtmM/CDISC/V3
    :label: Num
    :extension_properties: []
  :classification:
    :type: http://www.assero.co.uk/BusinessDomain#VariableClassification
    :id: M-CDISC_SDTMMODEL_C_QUALIFIER
    :namespace: http://www.assero.co.uk/MDRSdtmM/CDISC/V3
    :label: Qualifier
    :extension_properties: []
  :sub_classification:
    :type: http://www.assero.co.uk/BusinessDomain#VariableClassification
    :id: M-CDISC_SDTMMODEL_SC_RESULTQUALIFIER
    :namespace: http://www.assero.co.uk/MDRSdtmM/CDISC/V3
    :label: Result Qualifier
    :extension_properties: []
- :type: http://www.assero.co.uk/BusinessDomain#ModelVariable
  :id: M-CDISC_SDTMMODEL_ACTARMCD
  :namespace: http://www.assero.co.uk/MDRSdtmM/CDISC/V3
  :label: Actual Arm Code
  :extension_properties: []
  :ordinal: 23
  :rule: ''
  :name: ACTARMCD
  :prefixed: false
  :description: Short name for the actual Arm in which the subject participated during
    the trial, limited to 20 characters.
  :datatype:
    :type: http://www.assero.co.uk/BusinessDomain#VariableType
    :id: M-CDISC_SDTMMODEL_DT_CHAR
    :namespace: http://www.assero.co.uk/MDRSdtmM/CDISC/V3
    :label: Char
    :extension_properties: []
  :classification:
    :type: http://www.assero.co.uk/BusinessDomain#VariableClassification
    :id: M-CDISC_SDTMMODEL_C_QUALIFIER
    :namespace: http://www.assero.co.uk/MDRSdtmM/CDISC/V3
    :label: Qualifier
    :extension_properties: []
  :sub_classification:
    :type: http://www.assero.co.uk/BusinessDomain#VariableClassification
    :id: M-CDISC_SDTMMODEL_SC_RECORDQUALIFIER
    :namespace: http://www.assero.co.uk/MDRSdtmM/CDISC/V3
    :label: Record Qualifier
    :extension_properties: []
- :type: http://www.assero.co.uk/BusinessDomain#ModelVariable
  :id: M-CDISC_SDTMMODEL_RFSTDTC
  :namespace: http://www.assero.co.uk/MDRSdtmM/CDISC/V3
  :label: Subject Reference Start Date/Time
  :extension_properties: []
  :ordinal: 2
  :rule: ''
  :name: RFSTDTC
  :prefixed: false
  :description: Reference Start Date/time for the subject in ISO 8601 character format.
    Usually equivalent to date/time when subject was first exposed to study treatment.
    Required for all randomized subjects; will be null for all subjects who did not
    meet the milestone the date requires, such as screen failures or unassigned subjects.
  :datatype:
    :type: http://www.assero.co.uk/BusinessDomain#VariableType
    :id: M-CDISC_SDTMMODEL_DT_CHAR
    :namespace: http://www.assero.co.uk/MDRSdtmM/CDISC/V3
    :label: Char
    :extension_properties: []
  :classification:
    :type: http://www.assero.co.uk/BusinessDomain#VariableClassification
    :id: M-CDISC_SDTMMODEL_C_QUALIFIER
    :namespace: http://www.assero.co.uk/MDRSdtmM/CDISC/V3
    :label: Qualifier
    :extension_properties: []
  :sub_classification:
    :type: http://www.assero.co.uk/BusinessDomain#VariableClassification
    :id: M-CDISC_SDTMMODEL_SC_RECORDQUALIFIER
    :namespace: http://www.assero.co.uk/MDRSdtmM/CDISC/V3
    :label: Record Qualifier
    :extension_properties: []
- :type: http://www.assero.co.uk/BusinessDomain#ModelVariable
  :id: M-CDISC_SDTMMODEL_STRAIN
  :namespace: http://www.assero.co.uk/MDRSdtmM/CDISC/V3
  :label: Strain/Substrain
  :extension_properties: []
  :ordinal: 20
  :rule: ''
  :name: STRAIN
  :prefixed: false
  :description: Used to identify the vendor-supplied strain/substrain designation
    for the subject (i.e., test system) under study. When applicable, it combines
    the root strain, substrain, and associated genetic modifications, as supplied
    by the vendor (e.g., C57BL/6, A/J, B6.129-Pparg<tm2Rev>/J, FISCHER 344, SPRAGUE
    DAWLEY IGS, WISTAR Kyoto, BEAGLE, CYNOMOLGUS, CHIMPANZEE).
  :datatype:
    :type: http://www.assero.co.uk/BusinessDomain#VariableType
    :id: M-CDISC_SDTMMODEL_DT_CHAR
    :namespace: http://www.assero.co.uk/MDRSdtmM/CDISC/V3
    :label: Char
    :extension_properties: []
  :classification:
    :type: http://www.assero.co.uk/BusinessDomain#VariableClassification
    :id: M-CDISC_SDTMMODEL_C_QUALIFIER
    :namespace: http://www.assero.co.uk/MDRSdtmM/CDISC/V3
    :label: Qualifier
    :extension_properties: []
  :sub_classification:
    :type: http://www.assero.co.uk/BusinessDomain#VariableClassification
    :id: M-CDISC_SDTMMODEL_SC_RECORDQUALIFIER
    :namespace: http://www.assero.co.uk/MDRSdtmM/CDISC/V3
    :label: Record Qualifier
    :extension_properties: []
- :type: http://www.assero.co.uk/BusinessDomain#ModelVariable
  :id: M-CDISC_SDTMMODEL_xxSPEC
  :namespace: http://www.assero.co.uk/MDRSdtmM/CDISC/V3
  :label: Specimen Material Type
  :extension_properties: []
  :ordinal: 26
  :rule: ''
  :name: "--SPEC"
  :prefixed: true
  :description: 'Defines the type of specimen used for a measurement. Examples: SERUM,
    PLASMA, URINE, DNA, RNA.'
  :datatype:
    :type: http://www.assero.co.uk/BusinessDomain#VariableType
    :id: M-CDISC_SDTMMODEL_DT_CHAR
    :namespace: http://www.assero.co.uk/MDRSdtmM/CDISC/V3
    :label: Char
    :extension_properties: []
  :classification:
    :type: http://www.assero.co.uk/BusinessDomain#VariableClassification
    :id: M-CDISC_SDTMMODEL_C_QUALIFIER
    :namespace: http://www.assero.co.uk/MDRSdtmM/CDISC/V3
    :label: Qualifier
    :extension_properties: []
  :sub_classification:
    :type: http://www.assero.co.uk/BusinessDomain#VariableClassification
    :id: M-CDISC_SDTMMODEL_SC_RECORDQUALIFIER
    :namespace: http://www.assero.co.uk/MDRSdtmM/CDISC/V3
    :label: Record Qualifier
    :extension_properties: []
- :type: http://www.assero.co.uk/BusinessDomain#ModelVariable
  :id: M-CDISC_SDTMMODEL_TAETORD
  :namespace: http://www.assero.co.uk/MDRSdtmM/CDISC/V3
  :label: Planned Order of Element within Arm
  :extension_properties: []
  :ordinal: 15
  :rule: ''
  :name: TAETORD
  :prefixed: false
  :description: Number that gives the planned order of the Element within the Arm
    (see Trial Arms, Section 3.2.2 ).
  :datatype:
    :type: http://www.assero.co.uk/BusinessDomain#VariableType
    :id: M-CDISC_SDTMMODEL_DT_NUM
    :namespace: http://www.assero.co.uk/MDRSdtmM/CDISC/V3
    :label: Num
    :extension_properties: []
  :classification:
    :type: http://www.assero.co.uk/BusinessDomain#VariableClassification
    :id: M-CDISC_SDTMMODEL_C_TIMING
    :namespace: http://www.assero.co.uk/MDRSdtmM/CDISC/V3
    :label: Timing
    :extension_properties: []
- :type: http://www.assero.co.uk/BusinessDomain#ModelVariable
  :id: M-CDISC_SDTMMODEL_xxSPCCND
  :namespace: http://www.assero.co.uk/MDRSdtmM/CDISC/V3
  :label: Specimen Condition
  :extension_properties: []
  :ordinal: 28
  :rule: ''
  :name: "--SPCCND"
  :prefixed: true
  :description: 'Defines the condition of the specimen. Example: CLOUDY.'
  :datatype:
    :type: http://www.assero.co.uk/BusinessDomain#VariableType
    :id: M-CDISC_SDTMMODEL_DT_CHAR
    :namespace: http://www.assero.co.uk/MDRSdtmM/CDISC/V3
    :label: Char
    :extension_properties: []
  :classification:
    :type: http://www.assero.co.uk/BusinessDomain#VariableClassification
    :id: M-CDISC_SDTMMODEL_C_QUALIFIER
    :namespace: http://www.assero.co.uk/MDRSdtmM/CDISC/V3
    :label: Qualifier
    :extension_properties: []
  :sub_classification:
    :type: http://www.assero.co.uk/BusinessDomain#VariableClassification
    :id: M-CDISC_SDTMMODEL_SC_RECORDQUALIFIER
    :namespace: http://www.assero.co.uk/MDRSdtmM/CDISC/V3
    :label: Record Qualifier
    :extension_properties: []
- :type: http://www.assero.co.uk/BusinessDomain#ModelVariable
  :id: M-CDISC_SDTMMODEL_xxGRPID
  :namespace: http://www.assero.co.uk/MDRSdtmM/CDISC/V3
  :label: Group ID
  :extension_properties: []
  :ordinal: 7
  :rule: ''
  :name: "--GRPID"
  :prefixed: true
  :description: Optional group identifier, used to link together a block of related
    records within a subject in a domain. Also used to link together a block of related
    records in the Trial Summary dataset (Section 3.4).
  :datatype:
    :type: http://www.assero.co.uk/BusinessDomain#VariableType
    :id: M-CDISC_SDTMMODEL_DT_CHAR
    :namespace: http://www.assero.co.uk/MDRSdtmM/CDISC/V3
    :label: Char
    :extension_properties: []
  :classification:
    :type: http://www.assero.co.uk/BusinessDomain#VariableClassification
    :id: M-CDISC_SDTMMODEL_C_IDENTIFIER
    :namespace: http://www.assero.co.uk/MDRSdtmM/CDISC/V3
    :label: Identifier
    :extension_properties: []
- :type: http://www.assero.co.uk/BusinessDomain#ModelVariable
  :id: M-CDISC_SDTMMODEL_xxACN
  :namespace: http://www.assero.co.uk/MDRSdtmM/CDISC/V3
  :label: Action Taken with Study Treatment
  :extension_properties: []
  :ordinal: 29
  :rule: ''
  :name: "--ACN"
  :prefixed: true
  :description: 'Describes changes made to the study treatment as a result of the
    event. Examples: DOSE INCREASED, DOSE NOT CHANGED.'
  :datatype:
    :type: http://www.assero.co.uk/BusinessDomain#VariableType
    :id: M-CDISC_SDTMMODEL_DT_CHAR
    :namespace: http://www.assero.co.uk/MDRSdtmM/CDISC/V3
    :label: Char
    :extension_properties: []
  :classification:
    :type: http://www.assero.co.uk/BusinessDomain#VariableClassification
    :id: M-CDISC_SDTMMODEL_C_QUALIFIER
    :namespace: http://www.assero.co.uk/MDRSdtmM/CDISC/V3
    :label: Qualifier
    :extension_properties: []
  :sub_classification:
    :type: http://www.assero.co.uk/BusinessDomain#VariableClassification
    :id: M-CDISC_SDTMMODEL_SC_RECORDQUALIFIER
    :namespace: http://www.assero.co.uk/MDRSdtmM/CDISC/V3
    :label: Record Qualifier
    :extension_properties: []
- :type: http://www.assero.co.uk/BusinessDomain#ModelVariable
  :id: M-CDISC_SDTMMODEL_xxLEAD
  :namespace: http://www.assero.co.uk/MDRSdtmM/CDISC/V3
  :label: Lead Identified to Collect Measurements
  :extension_properties: []
  :ordinal: 37
  :rule: ''
  :name: "--LEAD"
  :prefixed: true
  :description: 'Lead or leads identified to capture the measurement for a test from
    an instrument. Examples: LEAD I, LEAD V2, LEAD CM5.'
  :datatype:
    :type: http://www.assero.co.uk/BusinessDomain#VariableType
    :id: M-CDISC_SDTMMODEL_DT_CHAR
    :namespace: http://www.assero.co.uk/MDRSdtmM/CDISC/V3
    :label: Char
    :extension_properties: []
  :classification:
    :type: http://www.assero.co.uk/BusinessDomain#VariableClassification
    :id: M-CDISC_SDTMMODEL_C_QUALIFIER
    :namespace: http://www.assero.co.uk/MDRSdtmM/CDISC/V3
    :label: Qualifier
    :extension_properties: []
  :sub_classification:
    :type: http://www.assero.co.uk/BusinessDomain#VariableClassification
    :id: M-CDISC_SDTMMODEL_SC_RECORDQUALIFIER
    :namespace: http://www.assero.co.uk/MDRSdtmM/CDISC/V3
    :label: Record Qualifier
    :extension_properties: []
- :type: http://www.assero.co.uk/BusinessDomain#ModelVariable
  :id: M-CDISC_SDTMMODEL_SPDEVID
  :namespace: http://www.assero.co.uk/MDRSdtmM/CDISC/V3
  :label: Sponsor Device Identifier
  :extension_properties: []
  :ordinal: 5
  :rule: ''
  :name: SPDEVID
  :prefixed: false
  :description: Sponsor-defined identifier for a device
  :datatype:
    :type: http://www.assero.co.uk/BusinessDomain#VariableType
    :id: M-CDISC_SDTMMODEL_DT_CHAR
    :namespace: http://www.assero.co.uk/MDRSdtmM/CDISC/V3
    :label: Char
    :extension_properties: []
  :classification:
    :type: http://www.assero.co.uk/BusinessDomain#VariableClassification
    :id: M-CDISC_SDTMMODEL_C_IDENTIFIER
    :namespace: http://www.assero.co.uk/MDRSdtmM/CDISC/V3
    :label: Identifier
    :extension_properties: []
- :type: http://www.assero.co.uk/BusinessDomain#ModelVariable
  :id: M-CDISC_SDTMMODEL_xxLNKID
  :namespace: http://www.assero.co.uk/MDRSdtmM/CDISC/V3
  :label: Link ID
  :extension_properties: []
  :ordinal: 10
  :rule: ''
  :name: "--LNKID"
  :prefixed: true
  :description: 'Identifier used to link related records across domains. This may
    be a one-to-one or a one-to-many relationship. For Example: A single tumor may
    have multiple measurements/assessments performed at each study visit.'
  :datatype:
    :type: http://www.assero.co.uk/BusinessDomain#VariableType
    :id: M-CDISC_SDTMMODEL_DT_CHAR
    :namespace: http://www.assero.co.uk/MDRSdtmM/CDISC/V3
    :label: Char
    :extension_properties: []
  :classification:
    :type: http://www.assero.co.uk/BusinessDomain#VariableClassification
    :id: M-CDISC_SDTMMODEL_C_IDENTIFIER
    :namespace: http://www.assero.co.uk/MDRSdtmM/CDISC/V3
    :label: Identifier
    :extension_properties: []
- :type: http://www.assero.co.uk/BusinessDomain#ModelVariable
  :id: M-CDISC_SDTMMODEL_xxREASEX
  :namespace: http://www.assero.co.uk/MDRSdtmM/CDISC/V3
  :label: Reason for Exclusion from Statistics
  :extension_properties: []
  :ordinal: 52
  :rule: ''
  :name: "--REASEX"
  :prefixed: true
  :description: Reason excluded from statistics. Used in conjunction with --EXCLFL
    when its value is Y. Not to be used with human clinical trials
  :datatype:
    :type: http://www.assero.co.uk/BusinessDomain#VariableType
    :id: M-CDISC_SDTMMODEL_DT_CHAR
    :namespace: http://www.assero.co.uk/MDRSdtmM/CDISC/V3
    :label: Char
    :extension_properties: []
  :classification:
    :type: http://www.assero.co.uk/BusinessDomain#VariableClassification
    :id: M-CDISC_SDTMMODEL_C_QUALIFIER
    :namespace: http://www.assero.co.uk/MDRSdtmM/CDISC/V3
    :label: Qualifier
    :extension_properties: []
  :sub_classification:
    :type: http://www.assero.co.uk/BusinessDomain#VariableClassification
    :id: M-CDISC_SDTMMODEL_SC_RECORDQUALIFIER
    :namespace: http://www.assero.co.uk/MDRSdtmM/CDISC/V3
    :label: Record Qualifier
    :extension_properties: []
- :type: http://www.assero.co.uk/BusinessDomain#ModelVariable
  :id: M-CDISC_SDTMMODEL_xxMETHOD
  :namespace: http://www.assero.co.uk/MDRSdtmM/CDISC/V3
  :label: Method of Test or Examination
  :extension_properties: []
  :ordinal: 34
  :rule: ''
  :name: "--METHOD"
  :prefixed: true
  :description: 'Method of the test or examination. Examples: EIA (Enzyme Immunoassay),
    ELECTROPHORESIS, DIPSTICK'
  :datatype:
    :type: http://www.assero.co.uk/BusinessDomain#VariableType
    :id: M-CDISC_SDTMMODEL_DT_CHAR
    :namespace: http://www.assero.co.uk/MDRSdtmM/CDISC/V3
    :label: Char
    :extension_properties: []
  :classification:
    :type: http://www.assero.co.uk/BusinessDomain#VariableClassification
    :id: M-CDISC_SDTMMODEL_C_QUALIFIER
    :namespace: http://www.assero.co.uk/MDRSdtmM/CDISC/V3
    :label: Qualifier
    :extension_properties: []
  :sub_classification:
    :type: http://www.assero.co.uk/BusinessDomain#VariableClassification
    :id: M-CDISC_SDTMMODEL_SC_RECORDQUALIFIER
    :namespace: http://www.assero.co.uk/MDRSdtmM/CDISC/V3
    :label: Record Qualifier
    :extension_properties: []
- :type: http://www.assero.co.uk/BusinessDomain#ModelVariable
  :id: M-CDISC_SDTMMODEL_xxDUR
  :namespace: http://www.assero.co.uk/MDRSdtmM/CDISC/V3
  :label: Duration
  :extension_properties: []
  :ordinal: 23
  :rule: ''
  :name: "--DUR"
  :prefixed: true
  :description: Collected duration of an event, intervention, or finding represented
    in ISO 8601 character format. Used only if collected on the CRF and not derived.
  :datatype:
    :type: http://www.assero.co.uk/BusinessDomain#VariableType
    :id: M-CDISC_SDTMMODEL_DT_CHAR
    :namespace: http://www.assero.co.uk/MDRSdtmM/CDISC/V3
    :label: Char
    :extension_properties: []
  :classification:
    :type: http://www.assero.co.uk/BusinessDomain#VariableClassification
    :id: M-CDISC_SDTMMODEL_C_TIMING
    :namespace: http://www.assero.co.uk/MDRSdtmM/CDISC/V3
    :label: Timing
    :extension_properties: []
- :type: http://www.assero.co.uk/BusinessDomain#ModelVariable
  :id: M-CDISC_SDTMMODEL_RDEVID
  :namespace: http://www.assero.co.uk/MDRSdtmM/CDISC/V3
  :label: Related Device
  :extension_properties: []
  :ordinal: 3
  :rule: ''
  :name: RDEVID
  :prefixed: false
  :description: Identifier for a related device. RDEVID will be populated with the
    SPDEVID of the related device
  :datatype:
    :type: http://www.assero.co.uk/BusinessDomain#VariableType
    :id: M-CDISC_SDTMMODEL_DT_CHAR
    :namespace: http://www.assero.co.uk/MDRSdtmM/CDISC/V3
    :label: Char
    :extension_properties: []
  :classification:
    :type: http://www.assero.co.uk/BusinessDomain#VariableClassification
    :id: M-CDISC_SDTMMODEL_C_IDENTIFIER
    :namespace: http://www.assero.co.uk/MDRSdtmM/CDISC/V3
    :label: Identifier
    :extension_properties: []
- :type: http://www.assero.co.uk/BusinessDomain#ModelVariable
  :id: M-CDISC_SDTMMODEL_xxDOSFRQ
  :namespace: http://www.assero.co.uk/MDRSdtmM/CDISC/V3
  :label: Dosing Frequency per Interval
  :extension_properties: []
  :ordinal: 18
  :rule: ''
  :name: "--DOSFRQ"
  :prefixed: true
  :description: 'Usually expressed as the number of doses given per a specific interval.
    Examples: Q2H, QD, PRN.'
  :datatype:
    :type: http://www.assero.co.uk/BusinessDomain#VariableType
    :id: M-CDISC_SDTMMODEL_DT_CHAR
    :namespace: http://www.assero.co.uk/MDRSdtmM/CDISC/V3
    :label: Char
    :extension_properties: []
  :classification:
    :type: http://www.assero.co.uk/BusinessDomain#VariableClassification
    :id: M-CDISC_SDTMMODEL_C_QUALIFIER
    :namespace: http://www.assero.co.uk/MDRSdtmM/CDISC/V3
    :label: Qualifier
    :extension_properties: []
  :sub_classification:
    :type: http://www.assero.co.uk/BusinessDomain#VariableClassification
    :id: M-CDISC_SDTMMODEL_SC_VARIABLEQUALIFIER
    :namespace: http://www.assero.co.uk/MDRSdtmM/CDISC/V3
    :label: Variable Qualifier
    :extension_properties: []
- :type: http://www.assero.co.uk/BusinessDomain#ModelVariable
  :id: M-CDISC_SDTMMODEL_xxREASND
  :namespace: http://www.assero.co.uk/MDRSdtmM/CDISC/V3
  :label: Reason Not Done
  :extension_properties: []
  :ordinal: 22
  :rule: ''
  :name: "--REASND"
  :prefixed: true
  :description: Reason not done. Used in conjunction with --STAT when its value is
    NOT DONE.
  :datatype:
    :type: http://www.assero.co.uk/BusinessDomain#VariableType
    :id: M-CDISC_SDTMMODEL_DT_CHAR
    :namespace: http://www.assero.co.uk/MDRSdtmM/CDISC/V3
    :label: Char
    :extension_properties: []
  :classification:
    :type: http://www.assero.co.uk/BusinessDomain#VariableClassification
    :id: M-CDISC_SDTMMODEL_C_QUALIFIER
    :namespace: http://www.assero.co.uk/MDRSdtmM/CDISC/V3
    :label: Qualifier
    :extension_properties: []
  :sub_classification:
    :type: http://www.assero.co.uk/BusinessDomain#VariableClassification
    :id: M-CDISC_SDTMMODEL_SC_RECORDQUALIFIER
    :namespace: http://www.assero.co.uk/MDRSdtmM/CDISC/V3
    :label: Record Qualifier
    :extension_properties: []
- :type: http://www.assero.co.uk/BusinessDomain#ModelVariable
  :id: M-CDISC_SDTMMODEL_xxDOSTOT
  :namespace: http://www.assero.co.uk/MDRSdtmM/CDISC/V3
  :label: Total Daily Dose
  :extension_properties: []
  :ordinal: 19
  :rule: ''
  :name: "--DOSTOT"
  :prefixed: true
  :description: Total daily dose of --TRT using the units in --DOSU. Used when dosing
    is collected as Total Daily Dose.
  :datatype:
    :type: http://www.assero.co.uk/BusinessDomain#VariableType
    :id: M-CDISC_SDTMMODEL_DT_NUM
    :namespace: http://www.assero.co.uk/MDRSdtmM/CDISC/V3
    :label: Num
    :extension_properties: []
  :classification:
    :type: http://www.assero.co.uk/BusinessDomain#VariableClassification
    :id: M-CDISC_SDTMMODEL_C_QUALIFIER
    :namespace: http://www.assero.co.uk/MDRSdtmM/CDISC/V3
    :label: Qualifier
    :extension_properties: []
  :sub_classification:
    :type: http://www.assero.co.uk/BusinessDomain#VariableClassification
    :id: M-CDISC_SDTMMODEL_SC_RECORDQUALIFIER
    :namespace: http://www.assero.co.uk/MDRSdtmM/CDISC/V3
    :label: Record Qualifier
    :extension_properties: []
- :type: http://www.assero.co.uk/BusinessDomain#ModelVariable
  :id: M-CDISC_SDTMMODEL_xxCONTRT
  :namespace: http://www.assero.co.uk/MDRSdtmM/CDISC/V3
  :label: Concomitant or Additional Trtmnt Given
  :extension_properties: []
  :ordinal: 44
  :rule: ''
  :name: "--CONTRT"
  :prefixed: true
  :description: Was another treatment given because of the occurrence of the event?
    Valid values are “Y” and “N”.
  :datatype:
    :type: http://www.assero.co.uk/BusinessDomain#VariableType
    :id: M-CDISC_SDTMMODEL_DT_CHAR
    :namespace: http://www.assero.co.uk/MDRSdtmM/CDISC/V3
    :label: Char
    :extension_properties: []
  :classification:
    :type: http://www.assero.co.uk/BusinessDomain#VariableClassification
    :id: M-CDISC_SDTMMODEL_C_QUALIFIER
    :namespace: http://www.assero.co.uk/MDRSdtmM/CDISC/V3
    :label: Qualifier
    :extension_properties: []
  :sub_classification:
    :type: http://www.assero.co.uk/BusinessDomain#VariableClassification
    :id: M-CDISC_SDTMMODEL_SC_RECORDQUALIFIER
    :namespace: http://www.assero.co.uk/MDRSdtmM/CDISC/V3
    :label: Record Qualifier
    :extension_properties: []
- :type: http://www.assero.co.uk/BusinessDomain#ModelVariable
  :id: M-CDISC_SDTMMODEL_xxENRF
  :namespace: http://www.assero.co.uk/MDRSdtmM/CDISC/V3
  :label: End Relative to Reference Period
  :extension_properties: []
  :ordinal: 30
  :rule: ''
  :name: "--ENRF"
  :prefixed: true
  :description: "Identifies the end of the observation as being before, during or
    after the sponsor-defined reference period. The sponsor-defined reference period
    is a continuous period of time defined by a discrete starting point and a discrete
    ending point represented by RFSTDTC and RFENDTC in Demographics. \nNote: This
    variable will be deprecated (phased out) in a future (post SDTM v1.4) release.
    The functionality of this variable can be replaced by the use of --ENRTPT with
    --ENTPT = RFENDTC."
  :datatype:
    :type: http://www.assero.co.uk/BusinessDomain#VariableType
    :id: M-CDISC_SDTMMODEL_DT_CHAR
    :namespace: http://www.assero.co.uk/MDRSdtmM/CDISC/V3
    :label: Char
    :extension_properties: []
  :classification:
    :type: http://www.assero.co.uk/BusinessDomain#VariableClassification
    :id: M-CDISC_SDTMMODEL_C_TIMING
    :namespace: http://www.assero.co.uk/MDRSdtmM/CDISC/V3
    :label: Timing
    :extension_properties: []
- :type: http://www.assero.co.uk/BusinessDomain#ModelVariable
  :id: M-CDISC_SDTMMODEL_EPOCH
  :namespace: http://www.assero.co.uk/MDRSdtmM/CDISC/V3
  :label: Epoch
  :extension_properties: []
  :ordinal: 16
  :rule: ''
  :name: EPOCH
  :prefixed: false
  :description: Epoch associated with the start date/time of the observation, or the
    date/time of collection if start date/time is not collected. (See Section 3.2.2).
  :datatype:
    :type: http://www.assero.co.uk/BusinessDomain#VariableType
    :id: M-CDISC_SDTMMODEL_DT_CHAR
    :namespace: http://www.assero.co.uk/MDRSdtmM/CDISC/V3
    :label: Char
    :extension_properties: []
  :classification:
    :type: http://www.assero.co.uk/BusinessDomain#VariableClassification
    :id: M-CDISC_SDTMMODEL_C_TIMING
    :namespace: http://www.assero.co.uk/MDRSdtmM/CDISC/V3
    :label: Timing
    :extension_properties: []
- :type: http://www.assero.co.uk/BusinessDomain#ModelVariable
  :id: M-CDISC_SDTMMODEL_xxDRVFL
  :namespace: http://www.assero.co.uk/MDRSdtmM/CDISC/V3
  :label: Derived Flag
  :extension_properties: []
  :ordinal: 41
  :rule: ''
  :name: "--DRVFL"
  :prefixed: true
  :description: Used to indicate a derived record (e.g., a record that represents
    the average of other records such as a computed baseline). Should be Y or null.
  :datatype:
    :type: http://www.assero.co.uk/BusinessDomain#VariableType
    :id: M-CDISC_SDTMMODEL_DT_CHAR
    :namespace: http://www.assero.co.uk/MDRSdtmM/CDISC/V3
    :label: Char
    :extension_properties: []
  :classification:
    :type: http://www.assero.co.uk/BusinessDomain#VariableClassification
    :id: M-CDISC_SDTMMODEL_C_QUALIFIER
    :namespace: http://www.assero.co.uk/MDRSdtmM/CDISC/V3
    :label: Qualifier
    :extension_properties: []
  :sub_classification:
    :type: http://www.assero.co.uk/BusinessDomain#VariableClassification
    :id: M-CDISC_SDTMMODEL_SC_RECORDQUALIFIER
    :namespace: http://www.assero.co.uk/MDRSdtmM/CDISC/V3
    :label: Record Qualifier
    :extension_properties: []
- :type: http://www.assero.co.uk/BusinessDomain#ModelVariable
  :id: M-CDISC_SDTMMODEL_xxDETECT
  :namespace: http://www.assero.co.uk/MDRSdtmM/CDISC/V3
  :label: Time in Days to Detection
  :extension_properties: []
  :ordinal: 39
  :rule: ''
  :name: "--DETECT"
  :prefixed: true
  :description: The number of days from the start of dosing to the earliest detection
    of a condition or pathogen.
  :datatype:
    :type: http://www.assero.co.uk/BusinessDomain#VariableType
    :id: M-CDISC_SDTMMODEL_DT_NUM
    :namespace: http://www.assero.co.uk/MDRSdtmM/CDISC/V3
    :label: Num
    :extension_properties: []
  :classification:
    :type: http://www.assero.co.uk/BusinessDomain#VariableClassification
    :id: M-CDISC_SDTMMODEL_C_TIMING
    :namespace: http://www.assero.co.uk/MDRSdtmM/CDISC/V3
    :label: Timing
    :extension_properties: []
- :type: http://www.assero.co.uk/BusinessDomain#ModelVariable
  :id: M-CDISC_SDTMMODEL_xxLNKGRP
  :namespace: http://www.assero.co.uk/MDRSdtmM/CDISC/V3
  :label: Link Group ID
  :extension_properties: []
  :ordinal: 11
  :rule: ''
  :name: "--LNKGRP"
  :prefixed: true
  :description: 'Identifier used to link related records across domains. This will
    usually be a many-to-one relationship. For example: Multiple tumor measurements/assessments
    will contribute to a single response to therapy determination record.'
  :datatype:
    :type: http://www.assero.co.uk/BusinessDomain#VariableType
    :id: M-CDISC_SDTMMODEL_DT_CHAR
    :namespace: http://www.assero.co.uk/MDRSdtmM/CDISC/V3
    :label: Char
    :extension_properties: []
  :classification:
    :type: http://www.assero.co.uk/BusinessDomain#VariableClassification
    :id: M-CDISC_SDTMMODEL_C_IDENTIFIER
    :namespace: http://www.assero.co.uk/MDRSdtmM/CDISC/V3
    :label: Identifier
    :extension_properties: []
- :type: http://www.assero.co.uk/BusinessDomain#ModelVariable
  :id: M-CDISC_SDTMMODEL_xxACNDEV
  :namespace: http://www.assero.co.uk/MDRSdtmM/CDISC/V3
  :label: Action Taken with Device
  :extension_properties: []
  :ordinal: 31
  :rule: ''
  :name: "--ACNDEV"
  :prefixed: true
  :description: Action taken with respect to a device in a study, which may or may
    not be the device under study
  :datatype:
    :type: http://www.assero.co.uk/BusinessDomain#VariableType
    :id: M-CDISC_SDTMMODEL_DT_CHAR
    :namespace: http://www.assero.co.uk/MDRSdtmM/CDISC/V3
    :label: Char
    :extension_properties: []
  :classification:
    :type: http://www.assero.co.uk/BusinessDomain#VariableClassification
    :id: M-CDISC_SDTMMODEL_C_QUALIFIER
    :namespace: http://www.assero.co.uk/MDRSdtmM/CDISC/V3
    :label: Qualifier
    :extension_properties: []
  :sub_classification:
    :type: http://www.assero.co.uk/BusinessDomain#VariableClassification
    :id: M-CDISC_SDTMMODEL_SC_RECORDQUALIFIER
    :namespace: http://www.assero.co.uk/MDRSdtmM/CDISC/V3
    :label: Record Qualifier
    :extension_properties: []
- :type: http://www.assero.co.uk/BusinessDomain#ModelVariable
  :id: M-CDISC_SDTMMODEL_xxLAT
  :namespace: http://www.assero.co.uk/MDRSdtmM/CDISC/V3
  :label: Laterality
  :extension_properties: []
  :ordinal: 31
  :rule: ''
  :name: "--LAT"
  :prefixed: true
  :description: 'Qualifier for anatomical location further detailing laterality. Examples:
    RIGHT, LEFT, BILATERAL'
  :datatype:
    :type: http://www.assero.co.uk/BusinessDomain#VariableType
    :id: M-CDISC_SDTMMODEL_DT_CHAR
    :namespace: http://www.assero.co.uk/MDRSdtmM/CDISC/V3
    :label: Char
    :extension_properties: []
  :classification:
    :type: http://www.assero.co.uk/BusinessDomain#VariableClassification
    :id: M-CDISC_SDTMMODEL_C_QUALIFIER
    :namespace: http://www.assero.co.uk/MDRSdtmM/CDISC/V3
    :label: Qualifier
    :extension_properties: []
  :sub_classification:
    :type: http://www.assero.co.uk/BusinessDomain#VariableClassification
    :id: M-CDISC_SDTMMODEL_SC_VARIABLEQUALIFIER
    :namespace: http://www.assero.co.uk/MDRSdtmM/CDISC/V3
    :label: Variable Qualifier
    :extension_properties: []
- :type: http://www.assero.co.uk/BusinessDomain#ModelVariable
  :id: M-CDISC_SDTMMODEL_xxMODIFY
  :namespace: http://www.assero.co.uk/MDRSdtmM/CDISC/V3
  :label: Modified Term
  :extension_properties: []
  :ordinal: 3
  :rule: ''
  :name: "--MODIFY"
  :prefixed: true
  :description: If the value for --TRT is modified for coding purposes, then the modified
    text is placed here.
  :datatype:
    :type: http://www.assero.co.uk/BusinessDomain#VariableType
    :id: M-CDISC_SDTMMODEL_DT_CHAR
    :namespace: http://www.assero.co.uk/MDRSdtmM/CDISC/V3
    :label: Char
    :extension_properties: []
  :classification:
    :type: http://www.assero.co.uk/BusinessDomain#VariableClassification
    :id: M-CDISC_SDTMMODEL_C_QUALIFIER
    :namespace: http://www.assero.co.uk/MDRSdtmM/CDISC/V3
    :label: Qualifier
    :extension_properties: []
  :sub_classification:
    :type: http://www.assero.co.uk/BusinessDomain#VariableClassification
    :id: M-CDISC_SDTMMODEL_SC_SYNONYMQUALIFIER
    :namespace: http://www.assero.co.uk/MDRSdtmM/CDISC/V3
    :label: Synonym Qualifier
    :extension_properties: []
- :type: http://www.assero.co.uk/BusinessDomain#ModelVariable
  :id: M-CDISC_SDTMMODEL_ETCD
  :namespace: http://www.assero.co.uk/MDRSdtmM/CDISC/V3
  :label: Subject Element Code
  :extension_properties: []
  :ordinal: 35
  :rule: ''
  :name: ETCD
  :prefixed: false
  :description: ETCD (the companion to ELEMENT) is limited to 8 characters and does
    not have special character restrictions. These values should be short for ease
    of use in programming, but it is not expected that ETCD will need to serve as
    a variable name.
  :datatype:
    :type: http://www.assero.co.uk/BusinessDomain#VariableType
    :id: M-CDISC_SDTMMODEL_DT_CHAR
    :namespace: http://www.assero.co.uk/MDRSdtmM/CDISC/V3
    :label: Char
    :extension_properties: []
  :classification:
    :type: http://www.assero.co.uk/BusinessDomain#VariableClassification
    :id: M-CDISC_SDTMMODEL_C_QUALIFIER
    :namespace: http://www.assero.co.uk/MDRSdtmM/CDISC/V3
    :label: Qualifier
    :extension_properties: []
  :sub_classification:
    :type: http://www.assero.co.uk/BusinessDomain#VariableClassification
    :id: M-CDISC_SDTMMODEL_SC_RECORDQUALIFIER
    :namespace: http://www.assero.co.uk/MDRSdtmM/CDISC/V3
    :label: Record Qualifier
    :extension_properties: []
- :type: http://www.assero.co.uk/BusinessDomain#ModelVariable
  :id: M-CDISC_SDTMMODEL_xxENDTC
  :namespace: http://www.assero.co.uk/MDRSdtmM/CDISC/V3
  :label: End Date/Time of Observation
  :extension_properties: []
  :ordinal: 19
  :rule: ''
  :name: "--ENDTC"
  :prefixed: true
  :description: End date/time of the observation represented in IS0 8601 character
    format.
  :datatype:
    :type: http://www.assero.co.uk/BusinessDomain#VariableType
    :id: M-CDISC_SDTMMODEL_DT_CHAR
    :namespace: http://www.assero.co.uk/MDRSdtmM/CDISC/V3
    :label: Char
    :extension_properties: []
  :classification:
    :type: http://www.assero.co.uk/BusinessDomain#VariableClassification
    :id: M-CDISC_SDTMMODEL_C_TIMING
    :namespace: http://www.assero.co.uk/MDRSdtmM/CDISC/V3
    :label: Timing
    :extension_properties: []
- :type: http://www.assero.co.uk/BusinessDomain#ModelVariable
  :id: M-CDISC_SDTMMODEL_xxEXCLFL
  :namespace: http://www.assero.co.uk/MDRSdtmM/CDISC/V3
  :label: Exclude from Statistics
  :extension_properties: []
  :ordinal: 51
  :rule: ''
  :name: "--EXCLFL"
  :prefixed: true
  :description: Indicates whether the values in the result variables for this record
    should be excluded from summary statistical calculations such as Mean, Standard
    Deviation, and Count (and others). Expected to be Y or null. --EXCLFL should not
    be used when --STAT is NOT DONE. Not to be used with human clinical trials.
  :datatype:
    :type: http://www.assero.co.uk/BusinessDomain#VariableType
    :id: M-CDISC_SDTMMODEL_DT_CHAR
    :namespace: http://www.assero.co.uk/MDRSdtmM/CDISC/V3
    :label: Char
    :extension_properties: []
  :classification:
    :type: http://www.assero.co.uk/BusinessDomain#VariableClassification
    :id: M-CDISC_SDTMMODEL_C_QUALIFIER
    :namespace: http://www.assero.co.uk/MDRSdtmM/CDISC/V3
    :label: Qualifier
    :extension_properties: []
  :sub_classification:
    :type: http://www.assero.co.uk/BusinessDomain#VariableClassification
    :id: M-CDISC_SDTMMODEL_SC_RECORDQUALIFIER
    :namespace: http://www.assero.co.uk/MDRSdtmM/CDISC/V3
    :label: Record Qualifier
    :extension_properties: []
- :type: http://www.assero.co.uk/BusinessDomain#ModelVariable
  :id: M-CDISC_SDTMMODEL_xxXFN
  :namespace: http://www.assero.co.uk/MDRSdtmM/CDISC/V3
  :label: External File Path
  :extension_properties: []
  :ordinal: 23
  :rule: ''
  :name: "--XFN"
  :prefixed: true
  :description: Filename for an external file, such as one for an ECG waveform or
    a medical image.
  :datatype:
    :type: http://www.assero.co.uk/BusinessDomain#VariableType
    :id: M-CDISC_SDTMMODEL_DT_CHAR
    :namespace: http://www.assero.co.uk/MDRSdtmM/CDISC/V3
    :label: Char
    :extension_properties: []
  :classification:
    :type: http://www.assero.co.uk/BusinessDomain#VariableClassification
    :id: M-CDISC_SDTMMODEL_C_QUALIFIER
    :namespace: http://www.assero.co.uk/MDRSdtmM/CDISC/V3
    :label: Qualifier
    :extension_properties: []
  :sub_classification:
    :type: http://www.assero.co.uk/BusinessDomain#VariableClassification
    :id: M-CDISC_SDTMMODEL_SC_RECORDQUALIFIER
    :namespace: http://www.assero.co.uk/MDRSdtmM/CDISC/V3
    :label: Record Qualifier
    :extension_properties: []
- :type: http://www.assero.co.uk/BusinessDomain#ModelVariable
  :id: M-CDISC_SDTMMODEL_xxELTM
  :namespace: http://www.assero.co.uk/MDRSdtmM/CDISC/V3
  :label: Planned Elapsed Time from Time Point Ref
  :extension_properties: []
  :ordinal: 26
  :rule: ''
  :name: "--ELTM"
  :prefixed: true
  :description: Planned Elapsed time in ISO 8601 character format relative to a planned
    fixed reference (--TPTREF) such as “Previous Dose” or “Previous Meal”. This variable
    is useful where there are repetitive measures. Not a clock time or a date/time
    variable, but an interval, represented as ISO duration.
  :datatype:
    :type: http://www.assero.co.uk/BusinessDomain#VariableType
    :id: M-CDISC_SDTMMODEL_DT_CHAR
    :namespace: http://www.assero.co.uk/MDRSdtmM/CDISC/V3
    :label: Char
    :extension_properties: []
  :classification:
    :type: http://www.assero.co.uk/BusinessDomain#VariableClassification
    :id: M-CDISC_SDTMMODEL_C_TIMING
    :namespace: http://www.assero.co.uk/MDRSdtmM/CDISC/V3
    :label: Timing
    :extension_properties: []
- :type: http://www.assero.co.uk/BusinessDomain#ModelVariable
  :id: M-CDISC_SDTMMODEL_xxSTNRLO
  :namespace: http://www.assero.co.uk/MDRSdtmM/CDISC/V3
  :label: Normal Range Lower Limit-Standard Units
  :extension_properties: []
  :ordinal: 16
  :rule: ''
  :name: "--STNRLO"
  :prefixed: true
  :description: Lower end of normal range or reference range for standardized results
    (e.g., --STRESC, --STRESN) represented in standardized units (--STRESU).
  :datatype:
    :type: http://www.assero.co.uk/BusinessDomain#VariableType
    :id: M-CDISC_SDTMMODEL_DT_NUM
    :namespace: http://www.assero.co.uk/MDRSdtmM/CDISC/V3
    :label: Num
    :extension_properties: []
  :classification:
    :type: http://www.assero.co.uk/BusinessDomain#VariableClassification
    :id: M-CDISC_SDTMMODEL_C_QUALIFIER
    :namespace: http://www.assero.co.uk/MDRSdtmM/CDISC/V3
    :label: Qualifier
    :extension_properties: []
  :sub_classification:
    :type: http://www.assero.co.uk/BusinessDomain#VariableClassification
    :id: M-CDISC_SDTMMODEL_SC_VARIABLEQUALIFIER
    :namespace: http://www.assero.co.uk/MDRSdtmM/CDISC/V3
    :label: Variable Qualifier
    :extension_properties: []
- :type: http://www.assero.co.uk/BusinessDomain#ModelVariable
  :id: M-CDISC_SDTMMODEL_xxHLTCD
  :namespace: http://www.assero.co.uk/MDRSdtmM/CDISC/V3
  :label: High Level Term Code
  :extension_properties: []
  :ordinal: 8
  :rule: ''
  :name: "--HLTCD"
  :prefixed: true
  :description: MedDRA High Level Term code from the primary path.
  :datatype:
    :type: http://www.assero.co.uk/BusinessDomain#VariableType
    :id: M-CDISC_SDTMMODEL_DT_NUM
    :namespace: http://www.assero.co.uk/MDRSdtmM/CDISC/V3
    :label: Num
    :extension_properties: []
  :classification:
    :type: http://www.assero.co.uk/BusinessDomain#VariableClassification
    :id: M-CDISC_SDTMMODEL_C_QUALIFIER
    :namespace: http://www.assero.co.uk/MDRSdtmM/CDISC/V3
    :label: Qualifier
    :extension_properties: []
  :sub_classification:
    :type: http://www.assero.co.uk/BusinessDomain#VariableClassification
    :id: M-CDISC_SDTMMODEL_SC_VARIABLEQUALIFIER
    :namespace: http://www.assero.co.uk/MDRSdtmM/CDISC/V3
    :label: Variable Qualifier
    :extension_properties: []
- :type: http://www.assero.co.uk/BusinessDomain#ModelVariable
  :id: M-CDISC_SDTMMODEL_xxSOCCD
  :namespace: http://www.assero.co.uk/MDRSdtmM/CDISC/V3
  :label: Primary System Organ Class Code
  :extension_properties: []
  :ordinal: 20
  :rule: ''
  :name: "--SOCCD"
  :prefixed: true
  :description: MedDRA primary System Organ Class code.
  :datatype:
    :type: http://www.assero.co.uk/BusinessDomain#VariableType
    :id: M-CDISC_SDTMMODEL_DT_NUM
    :namespace: http://www.assero.co.uk/MDRSdtmM/CDISC/V3
    :label: Num
    :extension_properties: []
  :classification:
    :type: http://www.assero.co.uk/BusinessDomain#VariableClassification
    :id: M-CDISC_SDTMMODEL_C_QUALIFIER
    :namespace: http://www.assero.co.uk/MDRSdtmM/CDISC/V3
    :label: Qualifier
    :extension_properties: []
  :sub_classification:
    :type: http://www.assero.co.uk/BusinessDomain#VariableClassification
    :id: M-CDISC_SDTMMODEL_SC_VARIABLEQUALIFIER
    :namespace: http://www.assero.co.uk/MDRSdtmM/CDISC/V3
    :label: Variable Qualifier
    :extension_properties: []
- :type: http://www.assero.co.uk/BusinessDomain#ModelVariable
  :id: M-CDISC_SDTMMODEL_QEVAL
  :namespace: http://www.assero.co.uk/MDRSdtmM/CDISC/V3
  :label: Evaluator
  :extension_properties: []
  :ordinal: 12
  :rule: ''
  :name: QEVAL
  :prefixed: false
  :description: Used only for results that are subjective (e.g., assigned by a person
    or a group). Should be null for records that contain objectively collected or
    derived data. Some examples include ADJUDICATION COMMITTEE, STATISTICIAN, DATABASE
    ADMINISTRATOR, CLINICAL COORDINATOR, etc.
  :datatype:
    :type: http://www.assero.co.uk/BusinessDomain#VariableType
    :id: M-CDISC_SDTMMODEL_DT_CHAR
    :namespace: http://www.assero.co.uk/MDRSdtmM/CDISC/V3
    :label: Char
    :extension_properties: []
  :classification:
    :type: http://www.assero.co.uk/BusinessDomain#VariableClassification
    :id: M-CDISC_SDTMMODEL_C_QUALIFIER
    :namespace: http://www.assero.co.uk/MDRSdtmM/CDISC/V3
    :label: Qualifier
    :extension_properties: []
  :sub_classification:
    :type: http://www.assero.co.uk/BusinessDomain#VariableClassification
    :id: M-CDISC_SDTMMODEL_SC_RECORDQUALIFIER
    :namespace: http://www.assero.co.uk/MDRSdtmM/CDISC/V3
    :label: Record Qualifier
    :extension_properties: []
- :type: http://www.assero.co.uk/BusinessDomain#ModelVariable
  :id: M-CDISC_SDTMMODEL_xxHLT
  :namespace: http://www.assero.co.uk/MDRSdtmM/CDISC/V3
  :label: High Level Term
  :extension_properties: []
  :ordinal: 7
  :rule: ''
  :name: "--HLT"
  :prefixed: true
  :description: MedDRA High Level Term from the primary path.
  :datatype:
    :type: http://www.assero.co.uk/BusinessDomain#VariableType
    :id: M-CDISC_SDTMMODEL_DT_CHAR
    :namespace: http://www.assero.co.uk/MDRSdtmM/CDISC/V3
    :label: Char
    :extension_properties: []
  :classification:
    :type: http://www.assero.co.uk/BusinessDomain#VariableClassification
    :id: M-CDISC_SDTMMODEL_C_QUALIFIER
    :namespace: http://www.assero.co.uk/MDRSdtmM/CDISC/V3
    :label: Qualifier
    :extension_properties: []
  :sub_classification:
    :type: http://www.assero.co.uk/BusinessDomain#VariableClassification
    :id: M-CDISC_SDTMMODEL_SC_VARIABLEQUALIFIER
    :namespace: http://www.assero.co.uk/MDRSdtmM/CDISC/V3
    :label: Variable Qualifier
    :extension_properties: []
- :type: http://www.assero.co.uk/BusinessDomain#ModelVariable
  :id: M-CDISC_SDTMMODEL_xxBRANCH
  :namespace: http://www.assero.co.uk/MDRSdtmM/CDISC/V3
  :label: Branch
  :extension_properties: []
  :ordinal: 7
  :rule: ''
  :name: "--BRANCH"
  :prefixed: true
  :description: 'Condition subjects meet, at a “branch” in the Trial Design at the
    end of this Element, to be included in this Arm. Example: Randomization to DRUG
    X.'
  :datatype:
    :type: http://www.assero.co.uk/BusinessDomain#VariableType
    :id: M-CDISC_SDTMMODEL_DT_CHAR
    :namespace: http://www.assero.co.uk/MDRSdtmM/CDISC/V3
    :label: Char
    :extension_properties: []
  :classification:
    :type: http://www.assero.co.uk/BusinessDomain#VariableClassification
    :id: M-CDISC_SDTMMODEL_C_RULE
    :namespace: http://www.assero.co.uk/MDRSdtmM/CDISC/V3
    :label: Rule
    :extension_properties: []
- :type: http://www.assero.co.uk/BusinessDomain#ModelVariable
  :id: M-CDISC_SDTMMODEL_xxVCDREF
  :namespace: http://www.assero.co.uk/MDRSdtmM/CDISC/V3
  :label: Name of the Reference Terminology
  :extension_properties: []
  :ordinal: 24
  :rule: ''
  :name: "--VCDREF"
  :prefixed: true
  :description: The name of the Reference Terminology from which TSVALCD is taken.
    For example; CDISC, SNOMED, ISO 8601.
  :datatype:
    :type: http://www.assero.co.uk/BusinessDomain#VariableType
    :id: M-CDISC_SDTMMODEL_DT_CHAR
    :namespace: http://www.assero.co.uk/MDRSdtmM/CDISC/V3
    :label: Char
    :extension_properties: []
  :classification:
    :type: http://www.assero.co.uk/BusinessDomain#VariableClassification
    :id: M-CDISC_SDTMMODEL_C_QUALIFIER
    :namespace: http://www.assero.co.uk/MDRSdtmM/CDISC/V3
    :label: Qualifier
    :extension_properties: []
  :sub_classification:
    :type: http://www.assero.co.uk/BusinessDomain#VariableClassification
    :id: M-CDISC_SDTMMODEL_SC_RESULTQUALIFIER
    :namespace: http://www.assero.co.uk/MDRSdtmM/CDISC/V3
    :label: Result Qualifier
    :extension_properties: []
- :type: http://www.assero.co.uk/BusinessDomain#ModelVariable
  :id: M-CDISC_SDTMMODEL_xxSTDY
  :namespace: http://www.assero.co.uk/MDRSdtmM/CDISC/V3
  :label: Study Day of Start of Observation
  :extension_properties: []
  :ordinal: 21
  :rule: ''
  :name: "--STDY"
  :prefixed: true
  :description: Actual study day of start of observation expressed in integer days
    relative to the sponsor-defined RFSTDTC in Demographics.
  :datatype:
    :type: http://www.assero.co.uk/BusinessDomain#VariableType
    :id: M-CDISC_SDTMMODEL_DT_NUM
    :namespace: http://www.assero.co.uk/MDRSdtmM/CDISC/V3
    :label: Num
    :extension_properties: []
  :classification:
    :type: http://www.assero.co.uk/BusinessDomain#VariableClassification
    :id: M-CDISC_SDTMMODEL_C_TIMING
    :namespace: http://www.assero.co.uk/MDRSdtmM/CDISC/V3
    :label: Timing
    :extension_properties: []
- :type: http://www.assero.co.uk/BusinessDomain#ModelVariable
  :id: M-CDISC_SDTMMODEL_xxOBJ
  :namespace: http://www.assero.co.uk/MDRSdtmM/CDISC/V3
  :label: Object of the Observation
  :extension_properties: []
  :ordinal: 1
  :rule: ''
  :name: "--OBJ"
  :prefixed: true
  :description: 'Used in domains modeled as Findings About Events or Findings About
    Interventions. Describes the event or intervention whose property is being measured
    in --TESTCD/--TEST. Example: an event of vomiting which has findings, where --OBJ
    = “VOMIT” and the volume of VOMIT is being measured where --TESTCD = "VOLUME".'
  :datatype:
    :type: http://www.assero.co.uk/BusinessDomain#VariableType
    :id: M-CDISC_SDTMMODEL_DT_CHAR
    :namespace: http://www.assero.co.uk/MDRSdtmM/CDISC/V3
    :label: Char
    :extension_properties: []
  :classification:
    :type: http://www.assero.co.uk/BusinessDomain#VariableClassification
    :id: M-CDISC_SDTMMODEL_C_QUALIFIER
    :namespace: http://www.assero.co.uk/MDRSdtmM/CDISC/V3
    :label: Qualifier
    :extension_properties: []
  :sub_classification:
    :type: http://www.assero.co.uk/BusinessDomain#VariableClassification
    :id: M-CDISC_SDTMMODEL_SC_RECORDQUALIFIER
    :namespace: http://www.assero.co.uk/MDRSdtmM/CDISC/V3
    :label: Record Qualifier
    :extension_properties: []
- :type: http://www.assero.co.uk/BusinessDomain#ModelVariable
  :id: M-CDISC_SDTMMODEL_xxREFID
  :namespace: http://www.assero.co.uk/MDRSdtmM/CDISC/V3
  :label: Reference ID
  :extension_properties: []
  :ordinal: 8
  :rule: ''
  :name: "--REFID"
  :prefixed: true
  :description: Optional internal or external identifier such as lab specimen ID,
    or UUID for an ECG waveform or a medical image.
  :datatype:
    :type: http://www.assero.co.uk/BusinessDomain#VariableType
    :id: M-CDISC_SDTMMODEL_DT_CHAR
    :namespace: http://www.assero.co.uk/MDRSdtmM/CDISC/V3
    :label: Char
    :extension_properties: []
  :classification:
    :type: http://www.assero.co.uk/BusinessDomain#VariableClassification
    :id: M-CDISC_SDTMMODEL_C_IDENTIFIER
    :namespace: http://www.assero.co.uk/MDRSdtmM/CDISC/V3
    :label: Identifier
    :extension_properties: []
- :type: http://www.assero.co.uk/BusinessDomain#ModelVariable
  :id: M-CDISC_SDTMMODEL_INVNAM
  :namespace: http://www.assero.co.uk/MDRSdtmM/CDISC/V3
  :label: Investigator Name
  :extension_properties: []
  :ordinal: 12
  :rule: ''
  :name: INVNAM
  :prefixed: false
  :description: Name of the investigator for a site.
  :datatype:
    :type: http://www.assero.co.uk/BusinessDomain#VariableType
    :id: M-CDISC_SDTMMODEL_DT_CHAR
    :namespace: http://www.assero.co.uk/MDRSdtmM/CDISC/V3
    :label: Char
    :extension_properties: []
  :classification:
    :type: http://www.assero.co.uk/BusinessDomain#VariableClassification
    :id: M-CDISC_SDTMMODEL_C_QUALIFIER
    :namespace: http://www.assero.co.uk/MDRSdtmM/CDISC/V3
    :label: Qualifier
    :extension_properties: []
  :sub_classification:
    :type: http://www.assero.co.uk/BusinessDomain#VariableClassification
    :id: M-CDISC_SDTMMODEL_SC_RECORDQUALIFIER
    :namespace: http://www.assero.co.uk/MDRSdtmM/CDISC/V3
    :label: Record Qualifier
    :extension_properties: []
- :type: http://www.assero.co.uk/BusinessDomain#ModelVariable
  :id: M-CDISC_SDTMMODEL_xxORNRHI
  :namespace: http://www.assero.co.uk/MDRSdtmM/CDISC/V3
  :label: Normal Range Upper Limit-Original Units
  :extension_properties: []
  :ordinal: 12
  :rule: ''
  :name: "--ORNRHI"
  :prefixed: true
  :description: Upper end of normal range or reference range for results stored in
    --ORRES.
  :datatype:
    :type: http://www.assero.co.uk/BusinessDomain#VariableType
    :id: M-CDISC_SDTMMODEL_DT_CHAR
    :namespace: http://www.assero.co.uk/MDRSdtmM/CDISC/V3
    :label: Char
    :extension_properties: []
  :classification:
    :type: http://www.assero.co.uk/BusinessDomain#VariableClassification
    :id: M-CDISC_SDTMMODEL_C_QUALIFIER
    :namespace: http://www.assero.co.uk/MDRSdtmM/CDISC/V3
    :label: Qualifier
    :extension_properties: []
  :sub_classification:
    :type: http://www.assero.co.uk/BusinessDomain#VariableClassification
    :id: M-CDISC_SDTMMODEL_SC_VARIABLEQUALIFIER
    :namespace: http://www.assero.co.uk/MDRSdtmM/CDISC/V3
    :label: Variable Qualifier
    :extension_properties: []
- :type: http://www.assero.co.uk/BusinessDomain#ModelVariable
  :id: M-CDISC_SDTMMODEL_xxNUMRPT
  :namespace: http://www.assero.co.uk/MDRSdtmM/CDISC/V3
  :label: Maximum Number of Actual Assessments
  :extension_properties: []
  :ordinal: 32
  :rule: ''
  :name: "--NUMRPT"
  :prefixed: true
  :description: This variable must represent the maximum number of actual assessments
    for the analysis that this disease assessment schedule describes. In a trial where
    the maximum number of assessments is not defined explicitly in the protocol (e.g.
    assessments occur until death) TDNUMRPT should represent the maximum number of
    disease assessments that support the efficacy analysis, encountered by any subject
    across the trial at that point in time.
  :datatype:
    :type: http://www.assero.co.uk/BusinessDomain#VariableType
    :id: M-CDISC_SDTMMODEL_DT_NUM
    :namespace: http://www.assero.co.uk/MDRSdtmM/CDISC/V3
    :label: Num
    :extension_properties: []
  :classification:
    :type: http://www.assero.co.uk/BusinessDomain#VariableClassification
    :id: M-CDISC_SDTMMODEL_C_QUALIFIER
    :namespace: http://www.assero.co.uk/MDRSdtmM/CDISC/V3
    :label: Qualifier
    :extension_properties: []
  :sub_classification:
    :type: http://www.assero.co.uk/BusinessDomain#VariableClassification
    :id: M-CDISC_SDTMMODEL_SC_RECORDQUALIFIER
    :namespace: http://www.assero.co.uk/MDRSdtmM/CDISC/V3
    :label: Record Qualifier
    :extension_properties: []
- :type: http://www.assero.co.uk/BusinessDomain#ModelVariable
  :id: M-CDISC_SDTMMODEL_xxENTPT
  :namespace: http://www.assero.co.uk/MDRSdtmM/CDISC/V3
  :label: End Reference Time Point
  :extension_properties: []
  :ordinal: 36
  :rule: ''
  :name: "--ENTPT"
  :prefixed: true
  :description: 'Description or date/time in ISO 8601 or other character format of
    the sponsor-defined reference point referred to by --ENRTPT. Examples: "2003-12-25"
    or "VISIT 2".'
  :datatype:
    :type: http://www.assero.co.uk/BusinessDomain#VariableType
    :id: M-CDISC_SDTMMODEL_DT_CHAR
    :namespace: http://www.assero.co.uk/MDRSdtmM/CDISC/V3
    :label: Char
    :extension_properties: []
  :classification:
    :type: http://www.assero.co.uk/BusinessDomain#VariableClassification
    :id: M-CDISC_SDTMMODEL_C_TIMING
    :namespace: http://www.assero.co.uk/MDRSdtmM/CDISC/V3
    :label: Timing
    :extension_properties: []
- :type: http://www.assero.co.uk/BusinessDomain#ModelVariable
  :id: M-CDISC_SDTMMODEL_DOMAIN
  :namespace: http://www.assero.co.uk/MDRSdtmM/CDISC/V3
  :label: Domain Abbreviation
  :extension_properties: []
  :ordinal: 2
  :rule: ''
  :name: DOMAIN
  :prefixed: false
  :description: Two-character abbreviation for the domain most relevant to the observation.
    The Domain abbreviation is also used as a prefix for variables to ensure uniqueness
    when datasets are merged.
  :datatype:
    :type: http://www.assero.co.uk/BusinessDomain#VariableType
    :id: M-CDISC_SDTMMODEL_DT_CHAR
    :namespace: http://www.assero.co.uk/MDRSdtmM/CDISC/V3
    :label: Char
    :extension_properties: []
  :classification:
    :type: http://www.assero.co.uk/BusinessDomain#VariableClassification
    :id: M-CDISC_SDTMMODEL_C_IDENTIFIER
    :namespace: http://www.assero.co.uk/MDRSdtmM/CDISC/V3
    :label: Identifier
    :extension_properties: []
- :type: http://www.assero.co.uk/BusinessDomain#ModelVariable
  :id: M-CDISC_SDTMMODEL_xxLOINC
  :namespace: http://www.assero.co.uk/MDRSdtmM/CDISC/V3
  :label: LOINC Code
  :extension_properties: []
  :ordinal: 25
  :rule: ''
  :name: "--LOINC"
  :prefixed: true
  :description: Logical Observation Identifiers Names and Codes (LOINC) code for the
    topic variable such as a lab test.
  :datatype:
    :type: http://www.assero.co.uk/BusinessDomain#VariableType
    :id: M-CDISC_SDTMMODEL_DT_CHAR
    :namespace: http://www.assero.co.uk/MDRSdtmM/CDISC/V3
    :label: Char
    :extension_properties: []
  :classification:
    :type: http://www.assero.co.uk/BusinessDomain#VariableClassification
    :id: M-CDISC_SDTMMODEL_C_QUALIFIER
    :namespace: http://www.assero.co.uk/MDRSdtmM/CDISC/V3
    :label: Qualifier
    :extension_properties: []
  :sub_classification:
    :type: http://www.assero.co.uk/BusinessDomain#VariableClassification
    :id: M-CDISC_SDTMMODEL_SC_SYNONYMQUALIFIER
    :namespace: http://www.assero.co.uk/MDRSdtmM/CDISC/V3
    :label: Synonym Qualifier
    :extension_properties: []
- :type: http://www.assero.co.uk/BusinessDomain#ModelVariable
  :id: M-CDISC_SDTMMODEL_xxLOT
  :namespace: http://www.assero.co.uk/MDRSdtmM/CDISC/V3
  :label: Lot Number
  :extension_properties: []
  :ordinal: 22
  :rule: ''
  :name: "--LOT"
  :prefixed: true
  :description: Lot number for the intervention described in --TRT.
  :datatype:
    :type: http://www.assero.co.uk/BusinessDomain#VariableType
    :id: M-CDISC_SDTMMODEL_DT_CHAR
    :namespace: http://www.assero.co.uk/MDRSdtmM/CDISC/V3
    :label: Char
    :extension_properties: []
  :classification:
    :type: http://www.assero.co.uk/BusinessDomain#VariableClassification
    :id: M-CDISC_SDTMMODEL_C_QUALIFIER
    :namespace: http://www.assero.co.uk/MDRSdtmM/CDISC/V3
    :label: Qualifier
    :extension_properties: []
  :sub_classification:
    :type: http://www.assero.co.uk/BusinessDomain#VariableClassification
    :id: M-CDISC_SDTMMODEL_SC_RECORDQUALIFIER
    :namespace: http://www.assero.co.uk/MDRSdtmM/CDISC/V3
    :label: Record Qualifier
    :extension_properties: []
- :type: http://www.assero.co.uk/BusinessDomain#ModelVariable
  :id: M-CDISC_SDTMMODEL_xxORDER
  :namespace: http://www.assero.co.uk/MDRSdtmM/CDISC/V3
  :label: Sequence of Planned Assessment Schedule
  :extension_properties: []
  :ordinal: 26
  :rule: ''
  :name: "--ORDER"
  :prefixed: true
  :description: A number given to ensure ordinal sequencing of the planned assessment
    schedules within a trial.
  :datatype:
    :type: http://www.assero.co.uk/BusinessDomain#VariableType
    :id: M-CDISC_SDTMMODEL_DT_NUM
    :namespace: http://www.assero.co.uk/MDRSdtmM/CDISC/V3
    :label: Num
    :extension_properties: []
  :classification:
    :type: http://www.assero.co.uk/BusinessDomain#VariableClassification
    :id: M-CDISC_SDTMMODEL_C_TIMING
    :namespace: http://www.assero.co.uk/MDRSdtmM/CDISC/V3
    :label: Timing
    :extension_properties: []
- :type: http://www.assero.co.uk/BusinessDomain#ModelVariable
  :id: M-CDISC_SDTMMODEL_xxDOSRGM
  :namespace: http://www.assero.co.uk/MDRSdtmM/CDISC/V3
  :label: Intended Dose Regimen
  :extension_properties: []
  :ordinal: 20
  :rule: ''
  :name: "--DOSRGM"
  :prefixed: true
  :description: 'Text description of the (intended) schedule or regimen for the Intervention.
    Example: TWO WEEKS ON, TWO WEEKS OFF.'
  :datatype:
    :type: http://www.assero.co.uk/BusinessDomain#VariableType
    :id: M-CDISC_SDTMMODEL_DT_CHAR
    :namespace: http://www.assero.co.uk/MDRSdtmM/CDISC/V3
    :label: Char
    :extension_properties: []
  :classification:
    :type: http://www.assero.co.uk/BusinessDomain#VariableClassification
    :id: M-CDISC_SDTMMODEL_C_QUALIFIER
    :namespace: http://www.assero.co.uk/MDRSdtmM/CDISC/V3
    :label: Qualifier
    :extension_properties: []
  :sub_classification:
    :type: http://www.assero.co.uk/BusinessDomain#VariableClassification
    :id: M-CDISC_SDTMMODEL_SC_VARIABLEQUALIFIER
    :namespace: http://www.assero.co.uk/MDRSdtmM/CDISC/V3
    :label: Variable Qualifier
    :extension_properties: []
- :type: http://www.assero.co.uk/BusinessDomain#ModelVariable
  :id: M-CDISC_SDTMMODEL_SREL
  :namespace: http://www.assero.co.uk/MDRSdtmM/CDISC/V3
  :label: Subject, Device, or Study Relationship
  :extension_properties: []
  :ordinal: 4
  :rule: ''
  :name: SREL
  :prefixed: false
  :description: "If RSUBJID is populated, describes the relationship of the associated
    person(s) identified in APID to the subject or pool identified in RSUBJID.\nIf
    RDEVID is populated, describes the relationship of the associated person(s) identified
    in APID to the device identified in RDEVID. \nIf RSUBJID and RDEVID are null,
    SREL describes the relationship of the associated person(s) identified in APID
    to the study identified in STUDYID."
  :datatype:
    :type: http://www.assero.co.uk/BusinessDomain#VariableType
    :id: M-CDISC_SDTMMODEL_DT_CHAR
    :namespace: http://www.assero.co.uk/MDRSdtmM/CDISC/V3
    :label: Char
    :extension_properties: []
  :classification:
    :type: http://www.assero.co.uk/BusinessDomain#VariableClassification
    :id: M-CDISC_SDTMMODEL_C_QUALIFIER
    :namespace: http://www.assero.co.uk/MDRSdtmM/CDISC/V3
    :label: Qualifier
    :extension_properties: []
  :sub_classification:
    :type: http://www.assero.co.uk/BusinessDomain#VariableClassification
    :id: M-CDISC_SDTMMODEL_SC_RECORDQUALIFIER
    :namespace: http://www.assero.co.uk/MDRSdtmM/CDISC/V3
    :label: Record Qualifier
    :extension_properties: []
- :type: http://www.assero.co.uk/BusinessDomain#ModelVariable
  :id: M-CDISC_SDTMMODEL_RFXSTDTC
  :namespace: http://www.assero.co.uk/MDRSdtmM/CDISC/V3
  :label: Date/Time of First Study Treatment
  :extension_properties: []
  :ordinal: 4
  :rule: ''
  :name: RFXSTDTC
  :prefixed: false
  :description: First date/time of exposure to any protocol-specified treatment or
    therapy for the subject in ISO 8601 character format.
  :datatype:
    :type: http://www.assero.co.uk/BusinessDomain#VariableType
    :id: M-CDISC_SDTMMODEL_DT_CHAR
    :namespace: http://www.assero.co.uk/MDRSdtmM/CDISC/V3
    :label: Char
    :extension_properties: []
  :classification:
    :type: http://www.assero.co.uk/BusinessDomain#VariableClassification
    :id: M-CDISC_SDTMMODEL_C_QUALIFIER
    :namespace: http://www.assero.co.uk/MDRSdtmM/CDISC/V3
    :label: Qualifier
    :extension_properties: []
  :sub_classification:
    :type: http://www.assero.co.uk/BusinessDomain#VariableClassification
    :id: M-CDISC_SDTMMODEL_SC_RECORDQUALIFIER
    :namespace: http://www.assero.co.uk/MDRSdtmM/CDISC/V3
    :label: Record Qualifier
    :extension_properties: []
- :type: http://www.assero.co.uk/BusinessDomain#ModelVariable
  :id: M-CDISC_SDTMMODEL_xxENINT
  :namespace: http://www.assero.co.uk/MDRSdtmM/CDISC/V3
  :label: Planned End of Assessment Interval
  :extension_properties: []
  :ordinal: 38
  :rule: ''
  :name: "--ENINT"
  :prefixed: true
  :description: The end of a planned evaluation or assessment interval in ISO 8601
    character format relative to the Time Point Reference (--TPTREF).
  :datatype:
    :type: http://www.assero.co.uk/BusinessDomain#VariableType
    :id: M-CDISC_SDTMMODEL_DT_CHAR
    :namespace: http://www.assero.co.uk/MDRSdtmM/CDISC/V3
    :label: Char
    :extension_properties: []
  :classification:
    :type: http://www.assero.co.uk/BusinessDomain#VariableClassification
    :id: M-CDISC_SDTMMODEL_C_TIMING
    :namespace: http://www.assero.co.uk/MDRSdtmM/CDISC/V3
    :label: Timing
    :extension_properties: []
- :type: http://www.assero.co.uk/BusinessDomain#ModelVariable
  :id: M-CDISC_SDTMMODEL_xxSHOSP
  :namespace: http://www.assero.co.uk/MDRSdtmM/CDISC/V3
  :label: Requires or Prolongs Hospitalization
  :extension_properties: []
  :ordinal: 40
  :rule: ''
  :name: "--SHOSP"
  :prefixed: true
  :description: Did the event require or prolong hospitalization? Valid values are
    “Y” and “N”.
  :datatype:
    :type: http://www.assero.co.uk/BusinessDomain#VariableType
    :id: M-CDISC_SDTMMODEL_DT_CHAR
    :namespace: http://www.assero.co.uk/MDRSdtmM/CDISC/V3
    :label: Char
    :extension_properties: []
  :classification:
    :type: http://www.assero.co.uk/BusinessDomain#VariableClassification
    :id: M-CDISC_SDTMMODEL_C_QUALIFIER
    :namespace: http://www.assero.co.uk/MDRSdtmM/CDISC/V3
    :label: Qualifier
    :extension_properties: []
  :sub_classification:
    :type: http://www.assero.co.uk/BusinessDomain#VariableClassification
    :id: M-CDISC_SDTMMODEL_SC_RECORDQUALIFIER
    :namespace: http://www.assero.co.uk/MDRSdtmM/CDISC/V3
    :label: Record Qualifier
    :extension_properties: []
- :type: http://www.assero.co.uk/BusinessDomain#ModelVariable
  :id: M-CDISC_SDTMMODEL_xxENDY
  :namespace: http://www.assero.co.uk/MDRSdtmM/CDISC/V3
  :label: Study Day of End of Observation
  :extension_properties: []
  :ordinal: 22
  :rule: ''
  :name: "--ENDY"
  :prefixed: true
  :description: Actual study day of end of observation expressed in integer days relative
    to the sponsor-defined RFSTDTC in Demographics.
  :datatype:
    :type: http://www.assero.co.uk/BusinessDomain#VariableType
    :id: M-CDISC_SDTMMODEL_DT_NUM
    :namespace: http://www.assero.co.uk/MDRSdtmM/CDISC/V3
    :label: Num
    :extension_properties: []
  :classification:
    :type: http://www.assero.co.uk/BusinessDomain#VariableClassification
    :id: M-CDISC_SDTMMODEL_C_TIMING
    :namespace: http://www.assero.co.uk/MDRSdtmM/CDISC/V3
    :label: Timing
    :extension_properties: []
- :type: http://www.assero.co.uk/BusinessDomain#ModelVariable
  :id: M-CDISC_SDTMMODEL_xxLLTCD
  :namespace: http://www.assero.co.uk/MDRSdtmM/CDISC/V3
  :label: Lowest Level Term Code
  :extension_properties: []
  :ordinal: 4
  :rule: ''
  :name: "--LLTCD"
  :prefixed: true
  :description: MedDRA Lowest Level Term code.
  :datatype:
    :type: http://www.assero.co.uk/BusinessDomain#VariableType
    :id: M-CDISC_SDTMMODEL_DT_NUM
    :namespace: http://www.assero.co.uk/MDRSdtmM/CDISC/V3
    :label: Num
    :extension_properties: []
  :classification:
    :type: http://www.assero.co.uk/BusinessDomain#VariableClassification
    :id: M-CDISC_SDTMMODEL_C_QUALIFIER
    :namespace: http://www.assero.co.uk/MDRSdtmM/CDISC/V3
    :label: Qualifier
    :extension_properties: []
  :sub_classification:
    :type: http://www.assero.co.uk/BusinessDomain#VariableClassification
    :id: M-CDISC_SDTMMODEL_SC_VARIABLEQUALIFIER
    :namespace: http://www.assero.co.uk/MDRSdtmM/CDISC/V3
    :label: Variable Qualifier
    :extension_properties: []
- :type: http://www.assero.co.uk/BusinessDomain#ModelVariable
  :id: M-CDISC_SDTMMODEL_VISITDY
  :namespace: http://www.assero.co.uk/MDRSdtmM/CDISC/V3
  :label: Planned Study Day of Visit
  :extension_properties: []
  :ordinal: 14
  :rule: ''
  :name: VISITDY
  :prefixed: false
  :description: Planned study day of VISIT. Should be an integer.
  :datatype:
    :type: http://www.assero.co.uk/BusinessDomain#VariableType
    :id: M-CDISC_SDTMMODEL_DT_NUM
    :namespace: http://www.assero.co.uk/MDRSdtmM/CDISC/V3
    :label: Num
    :extension_properties: []
  :classification:
    :type: http://www.assero.co.uk/BusinessDomain#VariableClassification
    :id: M-CDISC_SDTMMODEL_C_TIMING
    :namespace: http://www.assero.co.uk/MDRSdtmM/CDISC/V3
    :label: Timing
    :extension_properties: []
- :type: http://www.assero.co.uk/BusinessDomain#ModelVariable
  :id: M-CDISC_SDTMMODEL_xxSTRL
  :namespace: http://www.assero.co.uk/MDRSdtmM/CDISC/V3
  :label: Rule for Start of Element
  :extension_properties: []
  :ordinal: 9
  :rule: ''
  :name: "--STRL"
  :prefixed: true
  :description: Expresses rule for beginning the Element.
  :datatype:
    :type: http://www.assero.co.uk/BusinessDomain#VariableType
    :id: M-CDISC_SDTMMODEL_DT_CHAR
    :namespace: http://www.assero.co.uk/MDRSdtmM/CDISC/V3
    :label: Char
    :extension_properties: []
  :classification:
    :type: http://www.assero.co.uk/BusinessDomain#VariableClassification
    :id: M-CDISC_SDTMMODEL_C_RULE
    :namespace: http://www.assero.co.uk/MDRSdtmM/CDISC/V3
    :label: Rule
    :extension_properties: []
- :type: http://www.assero.co.uk/BusinessDomain#ModelVariable
  :id: M-CDISC_SDTMMODEL_xxLLOQ
  :namespace: http://www.assero.co.uk/MDRSdtmM/CDISC/V3
  :label: Lower Limit of Quantitation
  :extension_properties: []
  :ordinal: 49
  :rule: ''
  :name: "--LLOQ"
  :prefixed: true
  :description: Indicates the lower limit of quantitation for an assay. Units will
    be those used for --STRESU.
  :datatype:
    :type: http://www.assero.co.uk/BusinessDomain#VariableType
    :id: M-CDISC_SDTMMODEL_DT_NUM
    :namespace: http://www.assero.co.uk/MDRSdtmM/CDISC/V3
    :label: Num
    :extension_properties: []
  :classification:
    :type: http://www.assero.co.uk/BusinessDomain#VariableClassification
    :id: M-CDISC_SDTMMODEL_C_QUALIFIER
    :namespace: http://www.assero.co.uk/MDRSdtmM/CDISC/V3
    :label: Qualifier
    :extension_properties: []
  :sub_classification:
    :type: http://www.assero.co.uk/BusinessDomain#VariableClassification
    :id: M-CDISC_SDTMMODEL_SC_VARIABLEQUALIFIER
    :namespace: http://www.assero.co.uk/MDRSdtmM/CDISC/V3
    :label: Variable Qualifier
    :extension_properties: []
- :type: http://www.assero.co.uk/BusinessDomain#ModelVariable
  :id: M-CDISC_SDTMMODEL_xxSDTH
  :namespace: http://www.assero.co.uk/MDRSdtmM/CDISC/V3
  :label: Results in Death
  :extension_properties: []
  :ordinal: 39
  :rule: ''
  :name: "--SDTH"
  :prefixed: true
  :description: Did the event result in death? Valid values are “Y” and “N”.
  :datatype:
    :type: http://www.assero.co.uk/BusinessDomain#VariableType
    :id: M-CDISC_SDTMMODEL_DT_CHAR
    :namespace: http://www.assero.co.uk/MDRSdtmM/CDISC/V3
    :label: Char
    :extension_properties: []
  :classification:
    :type: http://www.assero.co.uk/BusinessDomain#VariableClassification
    :id: M-CDISC_SDTMMODEL_C_QUALIFIER
    :namespace: http://www.assero.co.uk/MDRSdtmM/CDISC/V3
    :label: Qualifier
    :extension_properties: []
  :sub_classification:
    :type: http://www.assero.co.uk/BusinessDomain#VariableClassification
    :id: M-CDISC_SDTMMODEL_SC_RECORDQUALIFIER
    :namespace: http://www.assero.co.uk/MDRSdtmM/CDISC/V3
    :label: Record Qualifier
    :extension_properties: []
- :type: http://www.assero.co.uk/BusinessDomain#ModelVariable
  :id: M-CDISC_SDTMMODEL_xxVAMT
  :namespace: http://www.assero.co.uk/MDRSdtmM/CDISC/V3
  :label: Treatment Vehicle Amount
  :extension_properties: []
  :ordinal: 31
  :rule: ''
  :name: "--VAMT"
  :prefixed: true
  :description: 'Amount of the prepared product (treatment   vehicle) administered
    or given. Note: should not be diluent amount alone.'
  :datatype:
    :type: http://www.assero.co.uk/BusinessDomain#VariableType
    :id: M-CDISC_SDTMMODEL_DT_NUM
    :namespace: http://www.assero.co.uk/MDRSdtmM/CDISC/V3
    :label: Num
    :extension_properties: []
  :classification:
    :type: http://www.assero.co.uk/BusinessDomain#VariableClassification
    :id: M-CDISC_SDTMMODEL_C_QUALIFIER
    :namespace: http://www.assero.co.uk/MDRSdtmM/CDISC/V3
    :label: Qualifier
    :extension_properties: []
  :sub_classification:
    :type: http://www.assero.co.uk/BusinessDomain#VariableClassification
    :id: M-CDISC_SDTMMODEL_SC_RECORDQUALIFIER
    :namespace: http://www.assero.co.uk/MDRSdtmM/CDISC/V3
    :label: Record Qualifier
    :extension_properties: []
- :type: http://www.assero.co.uk/BusinessDomain#ModelVariable
  :id: M-CDISC_SDTMMODEL_xxTESTCD
  :namespace: http://www.assero.co.uk/MDRSdtmM/CDISC/V3
  :label: Short Name of Measurement, Test or Examination
  :extension_properties: []
  :ordinal: 1
  :rule: ''
  :name: "--TESTCD"
  :prefixed: true
  :description: 'Short character value for --TEST used as a column name when converting
    a dataset from a vertical format to a horizontal format. The short value can be
    up to 8 characters. Examples: PLAT, SYSBP, RRMIN, EYEEXAM.'
  :datatype:
    :type: http://www.assero.co.uk/BusinessDomain#VariableType
    :id: M-CDISC_SDTMMODEL_DT_CHAR
    :namespace: http://www.assero.co.uk/MDRSdtmM/CDISC/V3
    :label: Char
    :extension_properties: []
  :classification:
    :type: http://www.assero.co.uk/BusinessDomain#VariableClassification
    :id: M-CDISC_SDTMMODEL_C_TOPIC
    :namespace: http://www.assero.co.uk/MDRSdtmM/CDISC/V3
    :label: Topic
    :extension_properties: []
- :type: http://www.assero.co.uk/BusinessDomain#ModelVariable
  :id: M-CDISC_SDTMMODEL_xxSTDTC
  :namespace: http://www.assero.co.uk/MDRSdtmM/CDISC/V3
  :label: Start Date/Time of Observation
  :extension_properties: []
  :ordinal: 18
  :rule: ''
  :name: "--STDTC"
  :prefixed: true
  :description: Start date/time of an observation represented in IS0 8601 character
    format.
  :datatype:
    :type: http://www.assero.co.uk/BusinessDomain#VariableType
    :id: M-CDISC_SDTMMODEL_DT_CHAR
    :namespace: http://www.assero.co.uk/MDRSdtmM/CDISC/V3
    :label: Char
    :extension_properties: []
  :classification:
    :type: http://www.assero.co.uk/BusinessDomain#VariableClassification
    :id: M-CDISC_SDTMMODEL_C_TIMING
    :namespace: http://www.assero.co.uk/MDRSdtmM/CDISC/V3
    :label: Timing
    :extension_properties: []
- :type: http://www.assero.co.uk/BusinessDomain#ModelVariable
  :id: M-CDISC_SDTMMODEL_xxTPT
  :namespace: http://www.assero.co.uk/MDRSdtmM/CDISC/V3
  :label: Planned Time Point Name
  :extension_properties: []
  :ordinal: 24
  :rule: ''
  :name: "--TPT"
  :prefixed: true
  :description: Text description of time when a measurement or observation should
    be taken as defined in the protocol. This may be represented as an elapsed time
    relative to a fixed reference point, such as time of last dose. See --TPTNUM and
    --TPTREF.
  :datatype:
    :type: http://www.assero.co.uk/BusinessDomain#VariableType
    :id: M-CDISC_SDTMMODEL_DT_CHAR
    :namespace: http://www.assero.co.uk/MDRSdtmM/CDISC/V3
    :label: Char
    :extension_properties: []
  :classification:
    :type: http://www.assero.co.uk/BusinessDomain#VariableClassification
    :id: M-CDISC_SDTMMODEL_C_TIMING
    :namespace: http://www.assero.co.uk/MDRSdtmM/CDISC/V3
    :label: Timing
    :extension_properties: []
- :type: http://www.assero.co.uk/BusinessDomain#ModelVariable
  :id: M-CDISC_SDTMMODEL_xxRL
  :namespace: http://www.assero.co.uk/MDRSdtmM/CDISC/V3
  :label: Inclusion/Exclusion Criterion Rule
  :extension_properties: []
  :ordinal: 17
  :rule: ''
  :name: "--RL"
  :prefixed: true
  :description: Rule that expresses the inclusion/exclusion criterion.
  :datatype:
    :type: http://www.assero.co.uk/BusinessDomain#VariableType
    :id: M-CDISC_SDTMMODEL_DT_CHAR
    :namespace: http://www.assero.co.uk/MDRSdtmM/CDISC/V3
    :label: Char
    :extension_properties: []
  :classification:
    :type: http://www.assero.co.uk/BusinessDomain#VariableClassification
    :id: M-CDISC_SDTMMODEL_C_RULE
    :namespace: http://www.assero.co.uk/MDRSdtmM/CDISC/V3
    :label: Rule
    :extension_properties: []
- :type: http://www.assero.co.uk/BusinessDomain#ModelVariable
  :id: M-CDISC_SDTMMODEL_IESCAT
  :namespace: http://www.assero.co.uk/MDRSdtmM/CDISC/V3
  :label: Inclusion/Exclusion Subcategory
  :extension_properties: []
  :ordinal: 16
  :rule: ''
  :name: IESCAT
  :prefixed: false
  :description: 'A further categorization of the exception criterion. Can be used
    to distinguish criteria for a sub-study or for to categorize as a major or minor
    exceptions. Examples: MAJOR, MINOR.'
  :datatype:
    :type: http://www.assero.co.uk/BusinessDomain#VariableType
    :id: M-CDISC_SDTMMODEL_DT_CHAR
    :namespace: http://www.assero.co.uk/MDRSdtmM/CDISC/V3
    :label: Char
    :extension_properties: []
  :classification:
    :type: http://www.assero.co.uk/BusinessDomain#VariableClassification
    :id: M-CDISC_SDTMMODEL_C_QUALIFIER
    :namespace: http://www.assero.co.uk/MDRSdtmM/CDISC/V3
    :label: Qualifier
    :extension_properties: []
  :sub_classification:
    :type: http://www.assero.co.uk/BusinessDomain#VariableClassification
    :id: M-CDISC_SDTMMODEL_SC_GROUPINGQUALIFIER
    :namespace: http://www.assero.co.uk/MDRSdtmM/CDISC/V3
    :label: Grouping Qualifier
    :extension_properties: []
- :type: http://www.assero.co.uk/BusinessDomain#ModelVariable
  :id: M-CDISC_SDTMMODEL_QNAM
  :namespace: http://www.assero.co.uk/MDRSdtmM/CDISC/V3
  :label: Qualifier Variable Name
  :extension_properties: []
  :ordinal: 8
  :rule: ''
  :name: QNAM
  :prefixed: false
  :description: The short name of the Qualifier variable, which is used as a column
    name in a domain view with data from the parent domain. The value in QNAM cannot
    be longer than 8 characters, nor can it start with a number (e.g., “1TEST”). QNAM
    cannot contain characters other than letters, numbers, or underscores. This will
    often be the column name in the sponsor’s operational dataset.
  :datatype:
    :type: http://www.assero.co.uk/BusinessDomain#VariableType
    :id: M-CDISC_SDTMMODEL_DT_CHAR
    :namespace: http://www.assero.co.uk/MDRSdtmM/CDISC/V3
    :label: Char
    :extension_properties: []
  :classification:
    :type: http://www.assero.co.uk/BusinessDomain#VariableClassification
    :id: M-CDISC_SDTMMODEL_C_QUALIFIER
    :namespace: http://www.assero.co.uk/MDRSdtmM/CDISC/V3
    :label: Qualifier
    :extension_properties: []
  :sub_classification:
    :type: http://www.assero.co.uk/BusinessDomain#VariableClassification
    :id: M-CDISC_SDTMMODEL_SC_RECORDQUALIFIER
    :namespace: http://www.assero.co.uk/MDRSdtmM/CDISC/V3
    :label: Record Qualifier
    :extension_properties: []
- :type: http://www.assero.co.uk/BusinessDomain#ModelVariable
  :id: M-CDISC_SDTMMODEL_xxBLFL
  :namespace: http://www.assero.co.uk/MDRSdtmM/CDISC/V3
  :label: Baseline Flag
  :extension_properties: []
  :ordinal: 39
  :rule: ''
  :name: "--BLFL"
  :prefixed: true
  :description: Indicator used to identify a baseline value. Should be Y or null.
  :datatype:
    :type: http://www.assero.co.uk/BusinessDomain#VariableType
    :id: M-CDISC_SDTMMODEL_DT_CHAR
    :namespace: http://www.assero.co.uk/MDRSdtmM/CDISC/V3
    :label: Char
    :extension_properties: []
  :classification:
    :type: http://www.assero.co.uk/BusinessDomain#VariableClassification
    :id: M-CDISC_SDTMMODEL_C_QUALIFIER
    :namespace: http://www.assero.co.uk/MDRSdtmM/CDISC/V3
    :label: Qualifier
    :extension_properties: []
  :sub_classification:
    :type: http://www.assero.co.uk/BusinessDomain#VariableClassification
    :id: M-CDISC_SDTMMODEL_SC_RECORDQUALIFIER
    :namespace: http://www.assero.co.uk/MDRSdtmM/CDISC/V3
    :label: Record Qualifier
    :extension_properties: []
- :type: http://www.assero.co.uk/BusinessDomain#ModelVariable
  :id: M-CDISC_SDTMMODEL_xxDTHREL
  :namespace: http://www.assero.co.uk/MDRSdtmM/CDISC/V3
  :label: Relationship to Death
  :extension_properties: []
  :ordinal: 48
  :rule: ''
  :name: "--DTHREL"
  :prefixed: true
  :description: 'Describes the relationship of a particular finding to the death of
    a subject. Examples: Y, N or U.'
  :datatype:
    :type: http://www.assero.co.uk/BusinessDomain#VariableType
    :id: M-CDISC_SDTMMODEL_DT_CHAR
    :namespace: http://www.assero.co.uk/MDRSdtmM/CDISC/V3
    :label: Char
    :extension_properties: []
  :classification:
    :type: http://www.assero.co.uk/BusinessDomain#VariableClassification
    :id: M-CDISC_SDTMMODEL_C_QUALIFIER
    :namespace: http://www.assero.co.uk/MDRSdtmM/CDISC/V3
    :label: Qualifier
    :extension_properties: []
  :sub_classification:
    :type: http://www.assero.co.uk/BusinessDomain#VariableClassification
    :id: M-CDISC_SDTMMODEL_SC_RECORDQUALIFIER
    :namespace: http://www.assero.co.uk/MDRSdtmM/CDISC/V3
    :label: Record Qualifier
    :extension_properties: []
- :type: http://www.assero.co.uk/BusinessDomain#ModelVariable
  :id: M-CDISC_SDTMMODEL_RDOMAIN
  :namespace: http://www.assero.co.uk/MDRSdtmM/CDISC/V3
  :label: Related Domain Abbreviation
  :extension_properties: []
  :ordinal: 27
  :rule: ''
  :name: RDOMAIN
  :prefixed: false
  :description: Domain Abbreviation of the parent record(s). Null for records collected
    on general comments or additional information CRF page.
  :datatype:
    :type: http://www.assero.co.uk/BusinessDomain#VariableType
    :id: M-CDISC_SDTMMODEL_DT_CHAR
    :namespace: http://www.assero.co.uk/MDRSdtmM/CDISC/V3
    :label: Char
    :extension_properties: []
  :classification:
    :type: http://www.assero.co.uk/BusinessDomain#VariableClassification
    :id: M-CDISC_SDTMMODEL_C_QUALIFIER
    :namespace: http://www.assero.co.uk/MDRSdtmM/CDISC/V3
    :label: Qualifier
    :extension_properties: []
  :sub_classification:
    :type: http://www.assero.co.uk/BusinessDomain#VariableClassification
    :id: M-CDISC_SDTMMODEL_SC_RECORDQUALIFIER
    :namespace: http://www.assero.co.uk/MDRSdtmM/CDISC/V3
    :label: Record Qualifier
    :extension_properties: []
- :type: http://www.assero.co.uk/BusinessDomain#ModelVariable
  :id: M-CDISC_SDTMMODEL_xxSEQ
  :namespace: http://www.assero.co.uk/MDRSdtmM/CDISC/V3
  :label: Sequence Number
  :extension_properties: []
  :ordinal: 6
  :rule: ''
  :name: "--SEQ"
  :prefixed: true
  :description: Sequence number to ensure uniqueness of records within a dataset for
    a subject (or within a parameter, in the case of the Trial Summary domain). May
    be any valid number (including decimals) and does not have to start at 1.
  :datatype:
    :type: http://www.assero.co.uk/BusinessDomain#VariableType
    :id: M-CDISC_SDTMMODEL_DT_NUM
    :namespace: http://www.assero.co.uk/MDRSdtmM/CDISC/V3
    :label: Num
    :extension_properties: []
  :classification:
    :type: http://www.assero.co.uk/BusinessDomain#VariableClassification
    :id: M-CDISC_SDTMMODEL_C_IDENTIFIER
    :namespace: http://www.assero.co.uk/MDRSdtmM/CDISC/V3
    :label: Identifier
    :extension_properties: []
- :type: http://www.assero.co.uk/BusinessDomain#ModelVariable
  :id: M-CDISC_SDTMMODEL_xxDOSU
  :namespace: http://www.assero.co.uk/MDRSdtmM/CDISC/V3
  :label: Dose Units
  :extension_properties: []
  :ordinal: 16
  :rule: ''
  :name: "--DOSU"
  :prefixed: true
  :description: 'Units for --DOSE, --DOSTOT, or --DOSTXT (Examples: ng, mg, mg/kg).'
  :datatype:
    :type: http://www.assero.co.uk/BusinessDomain#VariableType
    :id: M-CDISC_SDTMMODEL_DT_CHAR
    :namespace: http://www.assero.co.uk/MDRSdtmM/CDISC/V3
    :label: Char
    :extension_properties: []
  :classification:
    :type: http://www.assero.co.uk/BusinessDomain#VariableClassification
    :id: M-CDISC_SDTMMODEL_C_QUALIFIER
    :namespace: http://www.assero.co.uk/MDRSdtmM/CDISC/V3
    :label: Qualifier
    :extension_properties: []
  :sub_classification:
    :type: http://www.assero.co.uk/BusinessDomain#VariableClassification
    :id: M-CDISC_SDTMMODEL_SC_VARIABLEQUALIFIER
    :namespace: http://www.assero.co.uk/MDRSdtmM/CDISC/V3
    :label: Variable Qualifier
    :extension_properties: []
- :type: http://www.assero.co.uk/BusinessDomain#ModelVariable
  :id: M-CDISC_SDTMMODEL_VISIT
  :namespace: http://www.assero.co.uk/MDRSdtmM/CDISC/V3
  :label: Visit Name
  :extension_properties: []
  :ordinal: 13
  :rule: ''
  :name: VISIT
  :prefixed: false
  :description: Protocol-defined description of a clinical encounter.
  :datatype:
    :type: http://www.assero.co.uk/BusinessDomain#VariableType
    :id: M-CDISC_SDTMMODEL_DT_CHAR
    :namespace: http://www.assero.co.uk/MDRSdtmM/CDISC/V3
    :label: Char
    :extension_properties: []
  :classification:
    :type: http://www.assero.co.uk/BusinessDomain#VariableClassification
    :id: M-CDISC_SDTMMODEL_C_TIMING
    :namespace: http://www.assero.co.uk/MDRSdtmM/CDISC/V3
    :label: Timing
    :extension_properties: []
- :type: http://www.assero.co.uk/BusinessDomain#ModelVariable
  :id: M-CDISC_SDTMMODEL_xxSPCUFL
  :namespace: http://www.assero.co.uk/MDRSdtmM/CDISC/V3
  :label: Specimen Usability for the Test
  :extension_properties: []
  :ordinal: 29
  :rule: ''
  :name: "--SPCUFL"
  :prefixed: true
  :description: Describes the usability of the specimen for the test. The value will
    be N if the specimen is not usable, and null if the specimen is usable.
  :datatype:
    :type: http://www.assero.co.uk/BusinessDomain#VariableType
    :id: M-CDISC_SDTMMODEL_DT_CHAR
    :namespace: http://www.assero.co.uk/MDRSdtmM/CDISC/V3
    :label: Char
    :extension_properties: []
  :classification:
    :type: http://www.assero.co.uk/BusinessDomain#VariableClassification
    :id: M-CDISC_SDTMMODEL_C_QUALIFIER
    :namespace: http://www.assero.co.uk/MDRSdtmM/CDISC/V3
    :label: Qualifier
    :extension_properties: []
  :sub_classification:
    :type: http://www.assero.co.uk/BusinessDomain#VariableClassification
    :id: M-CDISC_SDTMMODEL_SC_RECORDQUALIFIER
    :namespace: http://www.assero.co.uk/MDRSdtmM/CDISC/V3
    :label: Record Qualifier
    :extension_properties: []
- :type: http://www.assero.co.uk/BusinessDomain#ModelVariable
  :id: M-CDISC_SDTMMODEL_xxRESCAT
  :namespace: http://www.assero.co.uk/MDRSdtmM/CDISC/V3
  :label: Result Category
  :extension_properties: []
  :ordinal: 20
  :rule: ''
  :name: "--RESCAT"
  :prefixed: true
  :description: 'Used to categorize the result of a finding. Example: MALIGNANT or
    BENIGN for tumor findings. RESISTANCE VARIANT for genetic variation.'
  :datatype:
    :type: http://www.assero.co.uk/BusinessDomain#VariableType
    :id: M-CDISC_SDTMMODEL_DT_CHAR
    :namespace: http://www.assero.co.uk/MDRSdtmM/CDISC/V3
    :label: Char
    :extension_properties: []
  :classification:
    :type: http://www.assero.co.uk/BusinessDomain#VariableClassification
    :id: M-CDISC_SDTMMODEL_C_QUALIFIER
    :namespace: http://www.assero.co.uk/MDRSdtmM/CDISC/V3
    :label: Qualifier
    :extension_properties: []
  :sub_classification:
    :type: http://www.assero.co.uk/BusinessDomain#VariableClassification
    :id: M-CDISC_SDTMMODEL_SC_VARIABLEQUALIFIER
    :namespace: http://www.assero.co.uk/MDRSdtmM/CDISC/V3
    :label: Variable Qualifier
    :extension_properties: []
- :type: http://www.assero.co.uk/BusinessDomain#ModelVariable
  :id: M-CDISC_SDTMMODEL_xxCLAS
  :namespace: http://www.assero.co.uk/MDRSdtmM/CDISC/V3
  :label: Class
  :extension_properties: []
  :ordinal: 12
  :rule: ''
  :name: "--CLAS"
  :prefixed: true
  :description: Class for a medication or treatment, often obtained from a coding
    dictionary.
  :datatype:
    :type: http://www.assero.co.uk/BusinessDomain#VariableType
    :id: M-CDISC_SDTMMODEL_DT_CHAR
    :namespace: http://www.assero.co.uk/MDRSdtmM/CDISC/V3
    :label: Char
    :extension_properties: []
  :classification:
    :type: http://www.assero.co.uk/BusinessDomain#VariableClassification
    :id: M-CDISC_SDTMMODEL_C_QUALIFIER
    :namespace: http://www.assero.co.uk/MDRSdtmM/CDISC/V3
    :label: Qualifier
    :extension_properties: []
  :sub_classification:
    :type: http://www.assero.co.uk/BusinessDomain#VariableClassification
    :id: M-CDISC_SDTMMODEL_SC_VARIABLEQUALIFIER
    :namespace: http://www.assero.co.uk/MDRSdtmM/CDISC/V3
    :label: Variable Qualifier
    :extension_properties: []
- :type: http://www.assero.co.uk/BusinessDomain#ModelVariable
  :id: M-CDISC_SDTMMODEL_xxEVLINT
  :namespace: http://www.assero.co.uk/MDRSdtmM/CDISC/V3
  :label: Evaluation Interval
  :extension_properties: []
  :ordinal: 31
  :rule: ''
  :name: "--EVLINT"
  :prefixed: true
  :description: 'Duration of interval associated with an observation such as a finding
    --TESTCD, represented in ISO 8601 character format. Example: -P2M to represent
    a period of the past 2 months as the evaluation interval for a question from a
    questionnaire such as SF-36.'
  :datatype:
    :type: http://www.assero.co.uk/BusinessDomain#VariableType
    :id: M-CDISC_SDTMMODEL_DT_CHAR
    :namespace: http://www.assero.co.uk/MDRSdtmM/CDISC/V3
    :label: Char
    :extension_properties: []
  :classification:
    :type: http://www.assero.co.uk/BusinessDomain#VariableClassification
    :id: M-CDISC_SDTMMODEL_C_TIMING
    :namespace: http://www.assero.co.uk/MDRSdtmM/CDISC/V3
    :label: Timing
    :extension_properties: []
- :type: http://www.assero.co.uk/BusinessDomain#ModelVariable
  :id: M-CDISC_SDTMMODEL_IECAT
  :namespace: http://www.assero.co.uk/MDRSdtmM/CDISC/V3
  :label: Inclusion/Exclusion Category
  :extension_properties: []
  :ordinal: 15
  :rule: ''
  :name: IECAT
  :prefixed: false
  :description: 'Used for categorization of the Inclusion/Exclusion Criterion: INCLUSION,
    EXCLUSION.'
  :datatype:
    :type: http://www.assero.co.uk/BusinessDomain#VariableType
    :id: M-CDISC_SDTMMODEL_DT_CHAR
    :namespace: http://www.assero.co.uk/MDRSdtmM/CDISC/V3
    :label: Char
    :extension_properties: []
  :classification:
    :type: http://www.assero.co.uk/BusinessDomain#VariableClassification
    :id: M-CDISC_SDTMMODEL_C_QUALIFIER
    :namespace: http://www.assero.co.uk/MDRSdtmM/CDISC/V3
    :label: Qualifier
    :extension_properties: []
  :sub_classification:
    :type: http://www.assero.co.uk/BusinessDomain#VariableClassification
    :id: M-CDISC_SDTMMODEL_SC_GROUPINGQUALIFIER
    :namespace: http://www.assero.co.uk/MDRSdtmM/CDISC/V3
    :label: Grouping Qualifier
    :extension_properties: []
- :type: http://www.assero.co.uk/BusinessDomain#ModelVariable
  :id: M-CDISC_SDTMMODEL_APID
  :namespace: http://www.assero.co.uk/MDRSdtmM/CDISC/V3
  :label: Associated Persons Identifier
  :extension_properties: []
  :ordinal: 28
  :rule: ''
  :name: APID
  :prefixed: false
  :description: Identifier for a single associated person, a group of associated persons,
    or a pool of associated persons. If APID identifies a pool, POOLDEF records must
    exist for each associated person. (See Section 5 for Associated Persons data)
  :datatype:
    :type: http://www.assero.co.uk/BusinessDomain#VariableType
    :id: M-CDISC_SDTMMODEL_DT_CHAR
    :namespace: http://www.assero.co.uk/MDRSdtmM/CDISC/V3
    :label: Char
    :extension_properties: []
  :classification:
    :type: http://www.assero.co.uk/BusinessDomain#VariableClassification
    :id: M-CDISC_SDTMMODEL_C_IDENTIFIER
    :namespace: http://www.assero.co.uk/MDRSdtmM/CDISC/V3
    :label: Identifier
    :extension_properties: []
- :type: http://www.assero.co.uk/BusinessDomain#ModelVariable
  :id: M-CDISC_SDTMMODEL_xxSMIE
  :namespace: http://www.assero.co.uk/MDRSdtmM/CDISC/V3
  :label: Other Medically Important Serious Event
  :extension_properties: []
  :ordinal: 43
  :rule: ''
  :name: "--SMIE"
  :prefixed: true
  :description: Do additional categories for seriousness apply? Valid values are “Y”
    and “N”.
  :datatype:
    :type: http://www.assero.co.uk/BusinessDomain#VariableType
    :id: M-CDISC_SDTMMODEL_DT_CHAR
    :namespace: http://www.assero.co.uk/MDRSdtmM/CDISC/V3
    :label: Char
    :extension_properties: []
  :classification:
    :type: http://www.assero.co.uk/BusinessDomain#VariableClassification
    :id: M-CDISC_SDTMMODEL_C_QUALIFIER
    :namespace: http://www.assero.co.uk/MDRSdtmM/CDISC/V3
    :label: Qualifier
    :extension_properties: []
  :sub_classification:
    :type: http://www.assero.co.uk/BusinessDomain#VariableClassification
    :id: M-CDISC_SDTMMODEL_SC_RECORDQUALIFIER
    :namespace: http://www.assero.co.uk/MDRSdtmM/CDISC/V3
    :label: Record Qualifier
    :extension_properties: []
- :type: http://www.assero.co.uk/BusinessDomain#ModelVariable
  :id: M-CDISC_SDTMMODEL_xxPARM
  :namespace: http://www.assero.co.uk/MDRSdtmM/CDISC/V3
  :label: Trial Summary Parameter
  :extension_properties: []
  :ordinal: 20
  :rule: ''
  :name: "--PARM"
  :prefixed: true
  :description: Term for the Trial Summary Parameter. The value in TSPARM cannot be
    longer than 40 characters. Examples Planned Minimum Age of Subjects, Planned Maximum
    Age of Subjects
  :datatype:
    :type: http://www.assero.co.uk/BusinessDomain#VariableType
    :id: M-CDISC_SDTMMODEL_DT_CHAR
    :namespace: http://www.assero.co.uk/MDRSdtmM/CDISC/V3
    :label: Char
    :extension_properties: []
  :classification:
    :type: http://www.assero.co.uk/BusinessDomain#VariableClassification
    :id: M-CDISC_SDTMMODEL_C_QUALIFIER
    :namespace: http://www.assero.co.uk/MDRSdtmM/CDISC/V3
    :label: Qualifier
    :extension_properties: []
  :sub_classification:
    :type: http://www.assero.co.uk/BusinessDomain#VariableClassification
    :id: M-CDISC_SDTMMODEL_SC_SYNONYMQUALIFIER
    :namespace: http://www.assero.co.uk/MDRSdtmM/CDISC/V3
    :label: Synonym Qualifier
    :extension_properties: []
- :type: http://www.assero.co.uk/BusinessDomain#ModelVariable
  :id: M-CDISC_SDTMMODEL_xxSTTPT
  :namespace: http://www.assero.co.uk/MDRSdtmM/CDISC/V3
  :label: Start Reference Time Point
  :extension_properties: []
  :ordinal: 34
  :rule: ''
  :name: "--STTPT"
  :prefixed: true
  :description: 'Description or date/time in ISO 8601 or other character format of
    the sponsor-defined reference point referred to by --STRTPT. Examples: "2003-12-15"
    or "VISIT 1".'
  :datatype:
    :type: http://www.assero.co.uk/BusinessDomain#VariableType
    :id: M-CDISC_SDTMMODEL_DT_CHAR
    :namespace: http://www.assero.co.uk/MDRSdtmM/CDISC/V3
    :label: Char
    :extension_properties: []
  :classification:
    :type: http://www.assero.co.uk/BusinessDomain#VariableClassification
    :id: M-CDISC_SDTMMODEL_C_TIMING
    :namespace: http://www.assero.co.uk/MDRSdtmM/CDISC/V3
    :label: Timing
    :extension_properties: []
- :type: http://www.assero.co.uk/BusinessDomain#ModelVariable
  :id: M-CDISC_SDTMMODEL_xxTPTNUM
  :namespace: http://www.assero.co.uk/MDRSdtmM/CDISC/V3
  :label: Planned Time Point Number
  :extension_properties: []
  :ordinal: 25
  :rule: ''
  :name: "--TPTNUM"
  :prefixed: true
  :description: Numeric version of planned time point used in sorting.
  :datatype:
    :type: http://www.assero.co.uk/BusinessDomain#VariableType
    :id: M-CDISC_SDTMMODEL_DT_NUM
    :namespace: http://www.assero.co.uk/MDRSdtmM/CDISC/V3
    :label: Num
    :extension_properties: []
  :classification:
    :type: http://www.assero.co.uk/BusinessDomain#VariableClassification
    :id: M-CDISC_SDTMMODEL_C_TIMING
    :namespace: http://www.assero.co.uk/MDRSdtmM/CDISC/V3
    :label: Timing
    :extension_properties: []
- :type: http://www.assero.co.uk/BusinessDomain#ModelVariable
  :id: M-CDISC_SDTMMODEL_xxEVINTX
  :namespace: http://www.assero.co.uk/MDRSdtmM/CDISC/V3
  :label: Evaluation Interval Text
  :extension_properties: []
  :ordinal: 32
  :rule: ''
  :name: "--EVINTX"
  :prefixed: true
  :description: 'Evaluation interval associated with an observation, where the interval
    is not able to be represented in ISO 8601 format. Examples: LIFETIME, LAST NIGHT,
    RECENTLY, OVER THE LAST FEW WEEKS.'
  :datatype:
    :type: http://www.assero.co.uk/BusinessDomain#VariableType
    :id: M-CDISC_SDTMMODEL_DT_CHAR
    :namespace: http://www.assero.co.uk/MDRSdtmM/CDISC/V3
    :label: Char
    :extension_properties: []
  :classification:
    :type: http://www.assero.co.uk/BusinessDomain#VariableClassification
    :id: M-CDISC_SDTMMODEL_C_TIMING
    :namespace: http://www.assero.co.uk/MDRSdtmM/CDISC/V3
    :label: Timing
    :extension_properties: []
- :type: http://www.assero.co.uk/BusinessDomain#ModelVariable
  :id: M-CDISC_SDTMMODEL_IETESTCD
  :namespace: http://www.assero.co.uk/MDRSdtmM/CDISC/V3
  :label: Inclusion/Exclusion Criterion Short Name
  :extension_properties: []
  :ordinal: 13
  :rule: ''
  :name: IETESTCD
  :prefixed: false
  :description: Short name IETEST. It can be used as a column name when converting
    a dataset from a vertical to a horizontal format. The value in IETESTCD cannot
    be longer than 8 characters, nor can it start with a number (e.g., “1TEST”). IETESTCD
    cannot contain characters other than letters, numbers, or underscores. The name
    “IE” prefix is used to ensure consistency with the IE domain
  :datatype:
    :type: http://www.assero.co.uk/BusinessDomain#VariableType
    :id: M-CDISC_SDTMMODEL_DT_CHAR
    :namespace: http://www.assero.co.uk/MDRSdtmM/CDISC/V3
    :label: Char
    :extension_properties: []
  :classification:
    :type: http://www.assero.co.uk/BusinessDomain#VariableClassification
    :id: M-CDISC_SDTMMODEL_C_TOPIC
    :namespace: http://www.assero.co.uk/MDRSdtmM/CDISC/V3
    :label: Topic
    :extension_properties: []
- :type: http://www.assero.co.uk/BusinessDomain#ModelVariable
  :id: M-CDISC_SDTMMODEL_xxBODSYS
  :namespace: http://www.assero.co.uk/MDRSdtmM/CDISC/V3
  :label: Body System or Organ Class
  :extension_properties: []
  :ordinal: 17
  :rule: ''
  :name: "--BODSYS"
  :prefixed: true
  :description: 'Body system or system organ class assigned for analysis from a standard
    hierarchy (e.g. MedDRA) associated with an event. Example: GASTROINTESTINAL DISORDERS.'
  :datatype:
    :type: http://www.assero.co.uk/BusinessDomain#VariableType
    :id: M-CDISC_SDTMMODEL_DT_CHAR
    :namespace: http://www.assero.co.uk/MDRSdtmM/CDISC/V3
    :label: Char
    :extension_properties: []
  :classification:
    :type: http://www.assero.co.uk/BusinessDomain#VariableClassification
    :id: M-CDISC_SDTMMODEL_C_QUALIFIER
    :namespace: http://www.assero.co.uk/MDRSdtmM/CDISC/V3
    :label: Qualifier
    :extension_properties: []
  :sub_classification:
    :type: http://www.assero.co.uk/BusinessDomain#VariableClassification
    :id: M-CDISC_SDTMMODEL_SC_RECORDQUALIFIER
    :namespace: http://www.assero.co.uk/MDRSdtmM/CDISC/V3
    :label: Record Qualifier
    :extension_properties: []
- :type: http://www.assero.co.uk/BusinessDomain#ModelVariable
  :id: M-CDISC_SDTMMODEL_DTHFL
  :namespace: http://www.assero.co.uk/MDRSdtmM/CDISC/V3
  :label: Subject Death Flag
  :extension_properties: []
  :ordinal: 9
  :rule: ''
  :name: DTHFL
  :prefixed: false
  :description: A value of ‘Y’ indicates the subject died. Should be Y or null. Should
    be populated even when the death date is unknown.
  :datatype:
    :type: http://www.assero.co.uk/BusinessDomain#VariableType
    :id: M-CDISC_SDTMMODEL_DT_CHAR
    :namespace: http://www.assero.co.uk/MDRSdtmM/CDISC/V3
    :label: Char
    :extension_properties: []
  :classification:
    :type: http://www.assero.co.uk/BusinessDomain#VariableClassification
    :id: M-CDISC_SDTMMODEL_C_QUALIFIER
    :namespace: http://www.assero.co.uk/MDRSdtmM/CDISC/V3
    :label: Qualifier
    :extension_properties: []
  :sub_classification:
    :type: http://www.assero.co.uk/BusinessDomain#VariableClassification
    :id: M-CDISC_SDTMMODEL_SC_RECORDQUALIFIER
    :namespace: http://www.assero.co.uk/MDRSdtmM/CDISC/V3
    :label: Record Qualifier
    :extension_properties: []
- :type: http://www.assero.co.uk/BusinessDomain#ModelVariable
  :id: M-CDISC_SDTMMODEL_xxEVALID
  :namespace: http://www.assero.co.uk/MDRSdtmM/CDISC/V3
  :label: Evaluator Identifier
  :extension_properties: []
  :ordinal: 43
  :rule: ''
  :name: "--EVALID"
  :prefixed: true
  :description: 'Used to distinguish multiple evaluators with the same role recorded
    in --EVAL. Examples: RADIOLOGIST1 or RADIOLOGIST2'
  :datatype:
    :type: http://www.assero.co.uk/BusinessDomain#VariableType
    :id: M-CDISC_SDTMMODEL_DT_CHAR
    :namespace: http://www.assero.co.uk/MDRSdtmM/CDISC/V3
    :label: Char
    :extension_properties: []
  :classification:
    :type: http://www.assero.co.uk/BusinessDomain#VariableClassification
    :id: M-CDISC_SDTMMODEL_C_QUALIFIER
    :namespace: http://www.assero.co.uk/MDRSdtmM/CDISC/V3
    :label: Qualifier
    :extension_properties: []
  :sub_classification:
    :type: http://www.assero.co.uk/BusinessDomain#VariableClassification
    :id: M-CDISC_SDTMMODEL_SC_VARIABLEQUALIFIER
    :namespace: http://www.assero.co.uk/MDRSdtmM/CDISC/V3
    :label: Variable Qualifier
    :extension_properties: []
- :type: http://www.assero.co.uk/BusinessDomain#ModelVariable
  :id: M-CDISC_SDTMMODEL_xxRUNID
  :namespace: http://www.assero.co.uk/MDRSdtmM/CDISC/V3
  :label: Run ID
  :extension_properties: []
  :ordinal: 35
  :rule: ''
  :name: "--RUNID"
  :prefixed: true
  :description: A unique identifier for a particular run of a test on a particular
    batch of samples.
  :datatype:
    :type: http://www.assero.co.uk/BusinessDomain#VariableType
    :id: M-CDISC_SDTMMODEL_DT_CHAR
    :namespace: http://www.assero.co.uk/MDRSdtmM/CDISC/V3
    :label: Char
    :extension_properties: []
  :classification:
    :type: http://www.assero.co.uk/BusinessDomain#VariableClassification
    :id: M-CDISC_SDTMMODEL_C_QUALIFIER
    :namespace: http://www.assero.co.uk/MDRSdtmM/CDISC/V3
    :label: Qualifier
    :extension_properties: []
  :sub_classification:
    :type: http://www.assero.co.uk/BusinessDomain#VariableClassification
    :id: M-CDISC_SDTMMODEL_SC_RECORDQUALIFIER
    :namespace: http://www.assero.co.uk/MDRSdtmM/CDISC/V3
    :label: Record Qualifier
    :extension_properties: []
- :type: http://www.assero.co.uk/BusinessDomain#ModelVariable
  :id: M-CDISC_SDTMMODEL_STUDYID
  :namespace: http://www.assero.co.uk/MDRSdtmM/CDISC/V3
  :label: Study Identifier
  :extension_properties: []
  :ordinal: 1
  :rule: ''
  :name: STUDYID
  :prefixed: false
  :description: Unique identifier for a study.
  :datatype:
    :type: http://www.assero.co.uk/BusinessDomain#VariableType
    :id: M-CDISC_SDTMMODEL_DT_CHAR
    :namespace: http://www.assero.co.uk/MDRSdtmM/CDISC/V3
    :label: Char
    :extension_properties: []
  :classification:
    :type: http://www.assero.co.uk/BusinessDomain#VariableClassification
    :id: M-CDISC_SDTMMODEL_C_IDENTIFIER
    :namespace: http://www.assero.co.uk/MDRSdtmM/CDISC/V3
    :label: Identifier
    :extension_properties: []
- :type: http://www.assero.co.uk/BusinessDomain#ModelVariable
  :id: M-CDISC_SDTMMODEL_xxLLT
  :namespace: http://www.assero.co.uk/MDRSdtmM/CDISC/V3
  :label: Lowest Level Term
  :extension_properties: []
  :ordinal: 3
  :rule: ''
  :name: "--LLT"
  :prefixed: true
  :description: MedDRA Lowest Level Term.
  :datatype:
    :type: http://www.assero.co.uk/BusinessDomain#VariableType
    :id: M-CDISC_SDTMMODEL_DT_CHAR
    :namespace: http://www.assero.co.uk/MDRSdtmM/CDISC/V3
    :label: Char
    :extension_properties: []
  :classification:
    :type: http://www.assero.co.uk/BusinessDomain#VariableClassification
    :id: M-CDISC_SDTMMODEL_C_QUALIFIER
    :namespace: http://www.assero.co.uk/MDRSdtmM/CDISC/V3
    :label: Qualifier
    :extension_properties: []
  :sub_classification:
    :type: http://www.assero.co.uk/BusinessDomain#VariableClassification
    :id: M-CDISC_SDTMMODEL_SC_VARIABLEQUALIFIER
    :namespace: http://www.assero.co.uk/MDRSdtmM/CDISC/V3
    :label: Variable Qualifier
    :extension_properties: []
- :type: http://www.assero.co.uk/BusinessDomain#ModelVariable
  :id: M-CDISC_SDTMMODEL_SUBJID
  :namespace: http://www.assero.co.uk/MDRSdtmM/CDISC/V3
  :label: Subject Identifier for the Study
  :extension_properties: []
  :ordinal: 1
  :rule: ''
  :name: SUBJID
  :prefixed: false
  :description: Subject identifier, which must be unique within the study. Often the
    ID of the subject as recorded on a CRF.
  :datatype:
    :type: http://www.assero.co.uk/BusinessDomain#VariableType
    :id: M-CDISC_SDTMMODEL_DT_CHAR
    :namespace: http://www.assero.co.uk/MDRSdtmM/CDISC/V3
    :label: Char
    :extension_properties: []
  :classification:
    :type: http://www.assero.co.uk/BusinessDomain#VariableClassification
    :id: M-CDISC_SDTMMODEL_C_TOPIC
    :namespace: http://www.assero.co.uk/MDRSdtmM/CDISC/V3
    :label: Topic
    :extension_properties: []
- :type: http://www.assero.co.uk/BusinessDomain#ModelVariable
  :id: M-CDISC_SDTMMODEL_xxACPTFL
  :namespace: http://www.assero.co.uk/MDRSdtmM/CDISC/V3
  :label: Accepted Record Flag
  :extension_properties: []
  :ordinal: 44
  :rule: ''
  :name: "--ACPTFL"
  :prefixed: true
  :description: In cases where more than one assessor provides an evaluation of a
    result or response, this flag identifies the record that is considered, by an
    independent assessor, to be the accepted evaluation. Expected to be Y or null.
  :datatype:
    :type: http://www.assero.co.uk/BusinessDomain#VariableType
    :id: M-CDISC_SDTMMODEL_DT_CHAR
    :namespace: http://www.assero.co.uk/MDRSdtmM/CDISC/V3
    :label: Char
    :extension_properties: []
  :classification:
    :type: http://www.assero.co.uk/BusinessDomain#VariableClassification
    :id: M-CDISC_SDTMMODEL_C_QUALIFIER
    :namespace: http://www.assero.co.uk/MDRSdtmM/CDISC/V3
    :label: Qualifier
    :extension_properties: []
  :sub_classification:
    :type: http://www.assero.co.uk/BusinessDomain#VariableClassification
    :id: M-CDISC_SDTMMODEL_SC_RECORDQUALIFIER
    :namespace: http://www.assero.co.uk/MDRSdtmM/CDISC/V3
    :label: Record Qualifier
    :extension_properties: []
- :type: http://www.assero.co.uk/BusinessDomain#ModelVariable
  :id: M-CDISC_SDTMMODEL_QORIG
  :namespace: http://www.assero.co.uk/MDRSdtmM/CDISC/V3
  :label: Origin
  :extension_properties: []
  :ordinal: 11
  :rule: ''
  :name: QORIG
  :prefixed: false
  :description: Since QVAL can represent a mixture of collected (on a CRF), derived,
    or assigned items, QORIG is used to indicate the origin of this data. Examples
    include CRF, ASSIGNED, or DERIVED.
  :datatype:
    :type: http://www.assero.co.uk/BusinessDomain#VariableType
    :id: M-CDISC_SDTMMODEL_DT_CHAR
    :namespace: http://www.assero.co.uk/MDRSdtmM/CDISC/V3
    :label: Char
    :extension_properties: []
  :classification:
    :type: http://www.assero.co.uk/BusinessDomain#VariableClassification
    :id: M-CDISC_SDTMMODEL_C_QUALIFIER
    :namespace: http://www.assero.co.uk/MDRSdtmM/CDISC/V3
    :label: Qualifier
    :extension_properties: []
  :sub_classification:
    :type: http://www.assero.co.uk/BusinessDomain#VariableClassification
    :id: M-CDISC_SDTMMODEL_SC_RECORDQUALIFIER
    :namespace: http://www.assero.co.uk/MDRSdtmM/CDISC/V3
    :label: Record Qualifier
    :extension_properties: []
- :type: http://www.assero.co.uk/BusinessDomain#ModelVariable
  :id: M-CDISC_SDTMMODEL_ETHNIC
  :namespace: http://www.assero.co.uk/MDRSdtmM/CDISC/V3
  :label: Ethnicity
  :extension_properties: []
  :ordinal: 18
  :rule: ''
  :name: ETHNIC
  :prefixed: false
  :description: The ethnicity of the subject. Sponsors should refer to “Collection
    of Race and Ethnicity Data in Clinical Trials” (FDA, September 2005) for guidance
    regarding the collection of ethnicity (http://www.fda.gov/cder/guidance/5656fnl.htm).
  :datatype:
    :type: http://www.assero.co.uk/BusinessDomain#VariableType
    :id: M-CDISC_SDTMMODEL_DT_CHAR
    :namespace: http://www.assero.co.uk/MDRSdtmM/CDISC/V3
    :label: Char
    :extension_properties: []
  :classification:
    :type: http://www.assero.co.uk/BusinessDomain#VariableClassification
    :id: M-CDISC_SDTMMODEL_C_QUALIFIER
    :namespace: http://www.assero.co.uk/MDRSdtmM/CDISC/V3
    :label: Qualifier
    :extension_properties: []
  :sub_classification:
    :type: http://www.assero.co.uk/BusinessDomain#VariableClassification
    :id: M-CDISC_SDTMMODEL_SC_RECORDQUALIFIER
    :namespace: http://www.assero.co.uk/MDRSdtmM/CDISC/V3
    :label: Record Qualifier
    :extension_properties: []
- :type: http://www.assero.co.uk/BusinessDomain#ModelVariable
  :id: M-CDISC_SDTMMODEL_DTHDTC
  :namespace: http://www.assero.co.uk/MDRSdtmM/CDISC/V3
  :label: Date/Time of Death
  :extension_properties: []
  :ordinal: 8
  :rule: ''
  :name: DTHDTC
  :prefixed: false
  :description: Date/time of death for any subject who died, in ISO 8601 format. Should
    represent the date/time that is captured in the clinical-trial database.
  :datatype:
    :type: http://www.assero.co.uk/BusinessDomain#VariableType
    :id: M-CDISC_SDTMMODEL_DT_CHAR
    :namespace: http://www.assero.co.uk/MDRSdtmM/CDISC/V3
    :label: Char
    :extension_properties: []
  :classification:
    :type: http://www.assero.co.uk/BusinessDomain#VariableClassification
    :id: M-CDISC_SDTMMODEL_C_QUALIFIER
    :namespace: http://www.assero.co.uk/MDRSdtmM/CDISC/V3
    :label: Qualifier
    :extension_properties: []
  :sub_classification:
    :type: http://www.assero.co.uk/BusinessDomain#VariableClassification
    :id: M-CDISC_SDTMMODEL_SC_RECORDQUALIFIER
    :namespace: http://www.assero.co.uk/MDRSdtmM/CDISC/V3
    :label: Record Qualifier
    :extension_properties: []
- :type: http://www.assero.co.uk/BusinessDomain#ModelVariable
  :id: M-CDISC_SDTMMODEL_RACE
  :namespace: http://www.assero.co.uk/MDRSdtmM/CDISC/V3
  :label: Race
  :extension_properties: []
  :ordinal: 17
  :rule: ''
  :name: RACE
  :prefixed: false
  :description: Race of the subject. Sponsors should refer to “Collection of Race
    and Ethnicity Data in Clinical Trials” (FDA, September 2005) for guidance regarding
    the collection of race (http://www.fda.gov/cder/guidance/5656fnl.htm)
  :datatype:
    :type: http://www.assero.co.uk/BusinessDomain#VariableType
    :id: M-CDISC_SDTMMODEL_DT_CHAR
    :namespace: http://www.assero.co.uk/MDRSdtmM/CDISC/V3
    :label: Char
    :extension_properties: []
  :classification:
    :type: http://www.assero.co.uk/BusinessDomain#VariableClassification
    :id: M-CDISC_SDTMMODEL_C_QUALIFIER
    :namespace: http://www.assero.co.uk/MDRSdtmM/CDISC/V3
    :label: Qualifier
    :extension_properties: []
  :sub_classification:
    :type: http://www.assero.co.uk/BusinessDomain#VariableClassification
    :id: M-CDISC_SDTMMODEL_SC_RECORDQUALIFIER
    :namespace: http://www.assero.co.uk/MDRSdtmM/CDISC/V3
    :label: Record Qualifier
    :extension_properties: []
- :type: http://www.assero.co.uk/BusinessDomain#ModelVariable
  :id: M-CDISC_SDTMMODEL_AGEU
  :namespace: http://www.assero.co.uk/MDRSdtmM/CDISC/V3
  :label: Age Units
  :extension_properties: []
  :ordinal: 15
  :rule: ''
  :name: AGEU
  :prefixed: false
  :description: Units associated with AGE.
  :datatype:
    :type: http://www.assero.co.uk/BusinessDomain#VariableType
    :id: M-CDISC_SDTMMODEL_DT_CHAR
    :namespace: http://www.assero.co.uk/MDRSdtmM/CDISC/V3
    :label: Char
    :extension_properties: []
  :classification:
    :type: http://www.assero.co.uk/BusinessDomain#VariableClassification
    :id: M-CDISC_SDTMMODEL_C_QUALIFIER
    :namespace: http://www.assero.co.uk/MDRSdtmM/CDISC/V3
    :label: Qualifier
    :extension_properties: []
  :sub_classification:
    :type: http://www.assero.co.uk/BusinessDomain#VariableClassification
    :id: M-CDISC_SDTMMODEL_SC_RECORDQUALIFIER
    :namespace: http://www.assero.co.uk/MDRSdtmM/CDISC/V3
    :label: Record Qualifier
    :extension_properties: []
- :type: http://www.assero.co.uk/BusinessDomain#ModelVariable
  :id: M-CDISC_SDTMMODEL_xxMAXPAI
  :namespace: http://www.assero.co.uk/MDRSdtmM/CDISC/V3
  :label: Planned Assessment Interval Maximum
  :extension_properties: []
  :ordinal: 31
  :rule: ''
  :name: "--MAXPAI"
  :prefixed: true
  :description: The upper limit of the allowed range for the planned interval between
    disease assessments represented in ISO 8601 character format.
  :datatype:
    :type: http://www.assero.co.uk/BusinessDomain#VariableType
    :id: M-CDISC_SDTMMODEL_DT_CHAR
    :namespace: http://www.assero.co.uk/MDRSdtmM/CDISC/V3
    :label: Char
    :extension_properties: []
  :classification:
    :type: http://www.assero.co.uk/BusinessDomain#VariableClassification
    :id: M-CDISC_SDTMMODEL_C_TIMING
    :namespace: http://www.assero.co.uk/MDRSdtmM/CDISC/V3
    :label: Timing
    :extension_properties: []
- :type: http://www.assero.co.uk/BusinessDomain#ModelVariable
  :id: M-CDISC_SDTMMODEL_xxTOX
  :namespace: http://www.assero.co.uk/MDRSdtmM/CDISC/V3
  :label: Toxicity
  :extension_properties: []
  :ordinal: 45
  :rule: ''
  :name: "--TOX"
  :prefixed: true
  :description: 'Description of toxicity quantified by --TOXGR such as NCI CTCAE Short
    Name. Examples: HYPERCALCEMIA, HYPOCALCEMIA. Sponsor should specify which scale
    and version is used in the Sponsor Comments column of the Define-XML document.'
  :datatype:
    :type: http://www.assero.co.uk/BusinessDomain#VariableType
    :id: M-CDISC_SDTMMODEL_DT_CHAR
    :namespace: http://www.assero.co.uk/MDRSdtmM/CDISC/V3
    :label: Char
    :extension_properties: []
  :classification:
    :type: http://www.assero.co.uk/BusinessDomain#VariableClassification
    :id: M-CDISC_SDTMMODEL_C_QUALIFIER
    :namespace: http://www.assero.co.uk/MDRSdtmM/CDISC/V3
    :label: Qualifier
    :extension_properties: []
  :sub_classification:
    :type: http://www.assero.co.uk/BusinessDomain#VariableClassification
    :id: M-CDISC_SDTMMODEL_SC_VARIABLEQUALIFIER
    :namespace: http://www.assero.co.uk/MDRSdtmM/CDISC/V3
    :label: Variable Qualifier
    :extension_properties: []
- :type: http://www.assero.co.uk/BusinessDomain#ModelVariable
  :id: M-CDISC_SDTMMODEL_IDVAR
  :namespace: http://www.assero.co.uk/MDRSdtmM/CDISC/V3
  :label: Identifying Variable
  :extension_properties: []
  :ordinal: 30
  :rule: ''
  :name: IDVAR
  :prefixed: false
  :description: Name of the identifying variable in the general-observation-class
    dataset that identifies the related record(s). Examples include --SEQ and --GRPID.
  :datatype:
    :type: http://www.assero.co.uk/BusinessDomain#VariableType
    :id: M-CDISC_SDTMMODEL_DT_CHAR
    :namespace: http://www.assero.co.uk/MDRSdtmM/CDISC/V3
    :label: Char
    :extension_properties: []
  :classification:
    :type: http://www.assero.co.uk/BusinessDomain#VariableClassification
    :id: M-CDISC_SDTMMODEL_C_QUALIFIER
    :namespace: http://www.assero.co.uk/MDRSdtmM/CDISC/V3
    :label: Qualifier
    :extension_properties: []
  :sub_classification:
    :type: http://www.assero.co.uk/BusinessDomain#VariableClassification
    :id: M-CDISC_SDTMMODEL_SC_RECORDQUALIFIER
    :namespace: http://www.assero.co.uk/MDRSdtmM/CDISC/V3
    :label: Record Qualifier
    :extension_properties: []
- :type: http://www.assero.co.uk/BusinessDomain#ModelVariable
  :id: M-CDISC_SDTMMODEL_xxSTRTPT
  :namespace: http://www.assero.co.uk/MDRSdtmM/CDISC/V3
  :label: Start Relative to Reference Time Point
  :extension_properties: []
  :ordinal: 33
  :rule: ''
  :name: "--STRTPT"
  :prefixed: true
  :description: Identifies the start of the observation as being before or after the
    sponsor-defined reference time point defined by variable --STTPT.
  :datatype:
    :type: http://www.assero.co.uk/BusinessDomain#VariableType
    :id: M-CDISC_SDTMMODEL_DT_CHAR
    :namespace: http://www.assero.co.uk/MDRSdtmM/CDISC/V3
    :label: Char
    :extension_properties: []
  :classification:
    :type: http://www.assero.co.uk/BusinessDomain#VariableClassification
    :id: M-CDISC_SDTMMODEL_C_TIMING
    :namespace: http://www.assero.co.uk/MDRSdtmM/CDISC/V3
    :label: Timing
    :extension_properties: []
- :type: http://www.assero.co.uk/BusinessDomain#ModelVariable
  :id: M-CDISC_SDTMMODEL_xxSCAT
  :namespace: http://www.assero.co.uk/MDRSdtmM/CDISC/V3
  :label: Subcategory
  :extension_properties: []
  :ordinal: 12
  :rule: ''
  :name: "--SCAT"
  :prefixed: true
  :description: Used to define a further categorization of --CAT values.
  :datatype:
    :type: http://www.assero.co.uk/BusinessDomain#VariableType
    :id: M-CDISC_SDTMMODEL_DT_CHAR
    :namespace: http://www.assero.co.uk/MDRSdtmM/CDISC/V3
    :label: Char
    :extension_properties: []
  :classification:
    :type: http://www.assero.co.uk/BusinessDomain#VariableClassification
    :id: M-CDISC_SDTMMODEL_C_QUALIFIER
    :namespace: http://www.assero.co.uk/MDRSdtmM/CDISC/V3
    :label: Qualifier
    :extension_properties: []
  :sub_classification:
    :type: http://www.assero.co.uk/BusinessDomain#VariableClassification
    :id: M-CDISC_SDTMMODEL_SC_GROUPINGQUALIFIER
    :namespace: http://www.assero.co.uk/MDRSdtmM/CDISC/V3
    :label: Grouping Qualifier
    :extension_properties: []
- :type: http://www.assero.co.uk/BusinessDomain#ModelVariable
  :id: M-CDISC_SDTMMODEL_xxHLGT
  :namespace: http://www.assero.co.uk/MDRSdtmM/CDISC/V3
  :label: High Level Group Term
  :extension_properties: []
  :ordinal: 9
  :rule: ''
  :name: "--HLGT"
  :prefixed: true
  :description: MedDRA High Level Group Term from the primary path.
  :datatype:
    :type: http://www.assero.co.uk/BusinessDomain#VariableType
    :id: M-CDISC_SDTMMODEL_DT_CHAR
    :namespace: http://www.assero.co.uk/MDRSdtmM/CDISC/V3
    :label: Char
    :extension_properties: []
  :classification:
    :type: http://www.assero.co.uk/BusinessDomain#VariableClassification
    :id: M-CDISC_SDTMMODEL_C_QUALIFIER
    :namespace: http://www.assero.co.uk/MDRSdtmM/CDISC/V3
    :label: Qualifier
    :extension_properties: []
  :sub_classification:
    :type: http://www.assero.co.uk/BusinessDomain#VariableClassification
    :id: M-CDISC_SDTMMODEL_SC_VARIABLEQUALIFIER
    :namespace: http://www.assero.co.uk/MDRSdtmM/CDISC/V3
    :label: Variable Qualifier
    :extension_properties: []
- :type: http://www.assero.co.uk/BusinessDomain#ModelVariable
  :id: M-CDISC_SDTMMODEL_xxSTOFF
  :namespace: http://www.assero.co.uk/MDRSdtmM/CDISC/V3
  :label: Offset from the Anchor
  :extension_properties: []
  :ordinal: 28
  :rule: ''
  :name: "--STOFF"
  :prefixed: true
  :description: A fixed offset from the date provided by the variable referenced in
    TDANCVAR. This is used when the timing of planned cycles does not start on the
    exact day referenced in the variable indicated in TDANCVAR. The value of this
    variable will be either zero or a positive value and will be represented in ISO
    8601 character format.
  :datatype:
    :type: http://www.assero.co.uk/BusinessDomain#VariableType
    :id: M-CDISC_SDTMMODEL_DT_CHAR
    :namespace: http://www.assero.co.uk/MDRSdtmM/CDISC/V3
    :label: Char
    :extension_properties: []
  :classification:
    :type: http://www.assero.co.uk/BusinessDomain#VariableClassification
    :id: M-CDISC_SDTMMODEL_C_TIMING
    :namespace: http://www.assero.co.uk/MDRSdtmM/CDISC/V3
    :label: Timing
    :extension_properties: []
- :type: http://www.assero.co.uk/BusinessDomain#ModelVariable
  :id: M-CDISC_SDTMMODEL_xxCSTATE
  :namespace: http://www.assero.co.uk/MDRSdtmM/CDISC/V3
  :label: Consciousness State
  :extension_properties: []
  :ordinal: 38
  :rule: ''
  :name: "--CSTATE"
  :prefixed: true
  :description: 'The consciousness state of the subject at the time of measurement.
    Examples: CONSCIOUS, SEMI-CONSCIOUS, UNCONSCIOUS'
  :datatype:
    :type: http://www.assero.co.uk/BusinessDomain#VariableType
    :id: M-CDISC_SDTMMODEL_DT_CHAR
    :namespace: http://www.assero.co.uk/MDRSdtmM/CDISC/V3
    :label: Char
    :extension_properties: []
  :classification:
    :type: http://www.assero.co.uk/BusinessDomain#VariableClassification
    :id: M-CDISC_SDTMMODEL_C_QUALIFIER
    :namespace: http://www.assero.co.uk/MDRSdtmM/CDISC/V3
    :label: Qualifier
    :extension_properties: []
  :sub_classification:
    :type: http://www.assero.co.uk/BusinessDomain#VariableClassification
    :id: M-CDISC_SDTMMODEL_SC_RECORDQUALIFIER
    :namespace: http://www.assero.co.uk/MDRSdtmM/CDISC/V3
    :label: Record Qualifier
    :extension_properties: []
- :type: http://www.assero.co.uk/BusinessDomain#ModelVariable
  :id: M-CDISC_SDTMMODEL_xxSTRF
  :namespace: http://www.assero.co.uk/MDRSdtmM/CDISC/V3
  :label: Start Relative to Reference Period
  :extension_properties: []
  :ordinal: 29
  :rule: ''
  :name: "--STRF"
  :prefixed: true
  :description: "Identifies the start of the observation as being before, during,
    or after the sponsor-defined reference period. The sponsor-defined reference period
    is a continuous period of time defined by a discrete starting point and a discrete
    ending point represented by RFSTDTC and RFENDTC in Demographics. \nNote: This
    variable will be deprecated (phased out) in a future (post SDTM v1.4) release.
    The functionality of this variable can be replaced by the use of --STRTPT with
    --STTPT = RFSTDTC."
  :datatype:
    :type: http://www.assero.co.uk/BusinessDomain#VariableType
    :id: M-CDISC_SDTMMODEL_DT_CHAR
    :namespace: http://www.assero.co.uk/MDRSdtmM/CDISC/V3
    :label: Char
    :extension_properties: []
  :classification:
    :type: http://www.assero.co.uk/BusinessDomain#VariableClassification
    :id: M-CDISC_SDTMMODEL_C_TIMING
    :namespace: http://www.assero.co.uk/MDRSdtmM/CDISC/V3
    :label: Timing
    :extension_properties: []
- :type: http://www.assero.co.uk/BusinessDomain#ModelVariable
  :id: M-CDISC_SDTMMODEL_xxVAL
  :namespace: http://www.assero.co.uk/MDRSdtmM/CDISC/V3
  :label: Parameter Value
  :extension_properties: []
  :ordinal: 33
  :rule: ''
  :name: "--VAL"
  :prefixed: true
  :description: 'Value of TSPARM. Example: “ASTHMA” when TSPARM value is “Trial Indications”.
    TSVAL cannot be null; a value is required for the record to be valid. Text over
    200 characters can be added to additional columns TSVAL1-TSVALn.'
  :datatype:
    :type: http://www.assero.co.uk/BusinessDomain#VariableType
    :id: M-CDISC_SDTMMODEL_DT_CHAR
    :namespace: http://www.assero.co.uk/MDRSdtmM/CDISC/V3
    :label: Char
    :extension_properties: []
  :classification:
    :type: http://www.assero.co.uk/BusinessDomain#VariableClassification
    :id: M-CDISC_SDTMMODEL_C_QUALIFIER
    :namespace: http://www.assero.co.uk/MDRSdtmM/CDISC/V3
    :label: Qualifier
    :extension_properties: []
  :sub_classification:
    :type: http://www.assero.co.uk/BusinessDomain#VariableClassification
    :id: M-CDISC_SDTMMODEL_SC_RESULTQUALIFIER
    :namespace: http://www.assero.co.uk/MDRSdtmM/CDISC/V3
    :label: Result Qualifier
    :extension_properties: []
- :type: http://www.assero.co.uk/BusinessDomain#ModelVariable
  :id: M-CDISC_SDTMMODEL_xxREF
  :namespace: http://www.assero.co.uk/MDRSdtmM/CDISC/V3
  :label: Comment Reference
  :extension_properties: []
  :ordinal: 32
  :rule: ''
  :name: "--REF"
  :prefixed: true
  :description: Sponsor-defined reference associated with the comment. May be the
    CRF page number (e.g. 650), or a module name (e.g. DEMOG), or a combination of
    information that identifies the reference (e.g. 650-VITALS-VISIT 2).
  :datatype:
    :type: http://www.assero.co.uk/BusinessDomain#VariableType
    :id: M-CDISC_SDTMMODEL_DT_CHAR
    :namespace: http://www.assero.co.uk/MDRSdtmM/CDISC/V3
    :label: Char
    :extension_properties: []
  :classification:
    :type: http://www.assero.co.uk/BusinessDomain#VariableClassification
    :id: M-CDISC_SDTMMODEL_C_QUALIFIER
    :namespace: http://www.assero.co.uk/MDRSdtmM/CDISC/V3
    :label: Qualifier
    :extension_properties: []
  :sub_classification:
    :type: http://www.assero.co.uk/BusinessDomain#VariableClassification
    :id: M-CDISC_SDTMMODEL_SC_RECORDQUALIFIER
    :namespace: http://www.assero.co.uk/MDRSdtmM/CDISC/V3
    :label: Record Qualifier
    :extension_properties: []
- :type: http://www.assero.co.uk/BusinessDomain#ModelVariable
  :id: M-CDISC_SDTMMODEL_COUNTRY
  :namespace: http://www.assero.co.uk/MDRSdtmM/CDISC/V3
  :label: Country
  :extension_properties: []
  :ordinal: 26
  :rule: ''
  :name: COUNTRY
  :prefixed: false
  :description: Country of the investigational site at which the subject participated
    in the trial in ISO 3166 three-character format.
  :datatype:
    :type: http://www.assero.co.uk/BusinessDomain#VariableType
    :id: M-CDISC_SDTMMODEL_DT_CHAR
    :namespace: http://www.assero.co.uk/MDRSdtmM/CDISC/V3
    :label: Char
    :extension_properties: []
  :classification:
    :type: http://www.assero.co.uk/BusinessDomain#VariableClassification
    :id: M-CDISC_SDTMMODEL_C_QUALIFIER
    :namespace: http://www.assero.co.uk/MDRSdtmM/CDISC/V3
    :label: Qualifier
    :extension_properties: []
  :sub_classification:
    :type: http://www.assero.co.uk/BusinessDomain#VariableClassification
    :id: M-CDISC_SDTMMODEL_SC_RECORDQUALIFIER
    :namespace: http://www.assero.co.uk/MDRSdtmM/CDISC/V3
    :label: Record Qualifier
    :extension_properties: []
- :type: http://www.assero.co.uk/BusinessDomain#ModelVariable
  :id: M-CDISC_SDTMMODEL_xxEVAL
  :namespace: http://www.assero.co.uk/MDRSdtmM/CDISC/V3
  :label: Evaluator
  :extension_properties: []
  :ordinal: 42
  :rule: ''
  :name: "--EVAL"
  :prefixed: true
  :description: 'Role of the person who provided the evaluation. Used only for results
    that are subjective (e.g., assigned by a person or a group). Examples: ADJUDICATION
    COMMITTEE, INDEPENDENT ASSESSOR, RADIOLOGIST.'
  :datatype:
    :type: http://www.assero.co.uk/BusinessDomain#VariableType
    :id: M-CDISC_SDTMMODEL_DT_CHAR
    :namespace: http://www.assero.co.uk/MDRSdtmM/CDISC/V3
    :label: Char
    :extension_properties: []
  :classification:
    :type: http://www.assero.co.uk/BusinessDomain#VariableClassification
    :id: M-CDISC_SDTMMODEL_C_QUALIFIER
    :namespace: http://www.assero.co.uk/MDRSdtmM/CDISC/V3
    :label: Qualifier
    :extension_properties: []
  :sub_classification:
    :type: http://www.assero.co.uk/BusinessDomain#VariableClassification
    :id: M-CDISC_SDTMMODEL_SC_RECORDQUALIFIER
    :namespace: http://www.assero.co.uk/MDRSdtmM/CDISC/V3
    :label: Record Qualifier
    :extension_properties: []
- :type: http://www.assero.co.uk/BusinessDomain#ModelVariable
  :id: M-CDISC_SDTMMODEL_xxUPDES
  :namespace: http://www.assero.co.uk/MDRSdtmM/CDISC/V3
  :label: Description of Unplanned Visit
  :extension_properties: []
  :ordinal: 38
  :rule: ''
  :name: "--UPDES"
  :prefixed: true
  :description: Description of what happened to the subject during an unplanned Element.
    Used only if ETCD has the value of “UNPLAN”.
  :datatype:
    :type: http://www.assero.co.uk/BusinessDomain#VariableType
    :id: M-CDISC_SDTMMODEL_DT_CHAR
    :namespace: http://www.assero.co.uk/MDRSdtmM/CDISC/V3
    :label: Char
    :extension_properties: []
  :classification:
    :type: http://www.assero.co.uk/BusinessDomain#VariableClassification
    :id: M-CDISC_SDTMMODEL_C_QUALIFIER
    :namespace: http://www.assero.co.uk/MDRSdtmM/CDISC/V3
    :label: Qualifier
    :extension_properties: []
  :sub_classification:
    :type: http://www.assero.co.uk/BusinessDomain#VariableClassification
    :id: M-CDISC_SDTMMODEL_SC_RECORDQUALIFIER
    :namespace: http://www.assero.co.uk/MDRSdtmM/CDISC/V3
    :label: Record Qualifier
    :extension_properties: []
- :type: http://www.assero.co.uk/BusinessDomain#ModelVariable
  :id: M-CDISC_SDTMMODEL_xxTRT
  :namespace: http://www.assero.co.uk/MDRSdtmM/CDISC/V3
  :label: Name of Treatment
  :extension_properties: []
  :ordinal: 1
  :rule: ''
  :name: "--TRT"
  :prefixed: true
  :description: The topic for the intervention observation, usually the verbatim name
    of the treatment, drug, medicine, or therapy given during the dosing interval
    for the observation.
  :datatype:
    :type: http://www.assero.co.uk/BusinessDomain#VariableType
    :id: M-CDISC_SDTMMODEL_DT_CHAR
    :namespace: http://www.assero.co.uk/MDRSdtmM/CDISC/V3
    :label: Char
    :extension_properties: []
  :classification:
    :type: http://www.assero.co.uk/BusinessDomain#VariableClassification
    :id: M-CDISC_SDTMMODEL_C_TOPIC
    :namespace: http://www.assero.co.uk/MDRSdtmM/CDISC/V3
    :label: Topic
    :extension_properties: []
- :type: http://www.assero.co.uk/BusinessDomain#ModelVariable
  :id: M-CDISC_SDTMMODEL_POOLID
  :namespace: http://www.assero.co.uk/MDRSdtmM/CDISC/V3
  :label: Pool Identifier
  :extension_properties: []
  :ordinal: 29
  :rule: ''
  :name: POOLID
  :prefixed: false
  :description: Identifier used for pooling subjects to assign a single finding to
    multiple subjects.
  :datatype:
    :type: http://www.assero.co.uk/BusinessDomain#VariableType
    :id: M-CDISC_SDTMMODEL_DT_CHAR
    :namespace: http://www.assero.co.uk/MDRSdtmM/CDISC/V3
    :label: Char
    :extension_properties: []
  :classification:
    :type: http://www.assero.co.uk/BusinessDomain#VariableClassification
    :id: M-CDISC_SDTMMODEL_C_IDENTIFIER
    :namespace: http://www.assero.co.uk/MDRSdtmM/CDISC/V3
    :label: Identifier
    :extension_properties: []
- :type: http://www.assero.co.uk/BusinessDomain#ModelVariable
  :id: M-CDISC_SDTMMODEL_xxENRTPT
  :namespace: http://www.assero.co.uk/MDRSdtmM/CDISC/V3
  :label: End Relative to Reference Time Point
  :extension_properties: []
  :ordinal: 35
  :rule: ''
  :name: "--ENRTPT"
  :prefixed: true
  :description: Identifies the end of the observation as being before or after the
    sponsor-defined reference time point defined by variable --ENTPT.
  :datatype:
    :type: http://www.assero.co.uk/BusinessDomain#VariableType
    :id: M-CDISC_SDTMMODEL_DT_CHAR
    :namespace: http://www.assero.co.uk/MDRSdtmM/CDISC/V3
    :label: Char
    :extension_properties: []
  :classification:
    :type: http://www.assero.co.uk/BusinessDomain#VariableClassification
    :id: M-CDISC_SDTMMODEL_C_TIMING
    :namespace: http://www.assero.co.uk/MDRSdtmM/CDISC/V3
    :label: Timing
    :extension_properties: []
- :type: http://www.assero.co.uk/BusinessDomain#ModelVariable
  :id: M-CDISC_SDTMMODEL_xxDIR
  :namespace: http://www.assero.co.uk/MDRSdtmM/CDISC/V3
  :label: Directionality
  :extension_properties: []
  :ordinal: 32
  :rule: ''
  :name: "--DIR"
  :prefixed: true
  :description: 'Qualifier for anatomical location or specimen further detailing directionality.
    Examples: ANTERIOR, LOWER, PROXIMAL'
  :datatype:
    :type: http://www.assero.co.uk/BusinessDomain#VariableType
    :id: M-CDISC_SDTMMODEL_DT_CHAR
    :namespace: http://www.assero.co.uk/MDRSdtmM/CDISC/V3
    :label: Char
    :extension_properties: []
  :classification:
    :type: http://www.assero.co.uk/BusinessDomain#VariableClassification
    :id: M-CDISC_SDTMMODEL_C_QUALIFIER
    :namespace: http://www.assero.co.uk/MDRSdtmM/CDISC/V3
    :label: Qualifier
    :extension_properties: []
  :sub_classification:
    :type: http://www.assero.co.uk/BusinessDomain#VariableClassification
    :id: M-CDISC_SDTMMODEL_SC_VARIABLEQUALIFIER
    :namespace: http://www.assero.co.uk/MDRSdtmM/CDISC/V3
    :label: Variable Qualifier
    :extension_properties: []
- :type: http://www.assero.co.uk/BusinessDomain#ModelVariable
  :id: M-CDISC_SDTMMODEL_xxTGTPAI
  :namespace: http://www.assero.co.uk/MDRSdtmM/CDISC/V3
  :label: Planned Assessment Interval
  :extension_properties: []
  :ordinal: 29
  :rule: ''
  :name: "--TGTPAI"
  :prefixed: true
  :description: The planned interval between disease assessments represented in ISO
    8601 character format.
  :datatype:
    :type: http://www.assero.co.uk/BusinessDomain#VariableType
    :id: M-CDISC_SDTMMODEL_DT_CHAR
    :namespace: http://www.assero.co.uk/MDRSdtmM/CDISC/V3
    :label: Char
    :extension_properties: []
  :classification:
    :type: http://www.assero.co.uk/BusinessDomain#VariableClassification
    :id: M-CDISC_SDTMMODEL_C_TIMING
    :namespace: http://www.assero.co.uk/MDRSdtmM/CDISC/V3
    :label: Timing
    :extension_properties: []
- :type: http://www.assero.co.uk/BusinessDomain#ModelVariable
  :id: M-CDISC_SDTMMODEL_RELTYPE
  :namespace: http://www.assero.co.uk/MDRSdtmM/CDISC/V3
  :label: Relationship Type
  :extension_properties: []
  :ordinal: 6
  :rule: ''
  :name: RELTYPE
  :prefixed: false
  :description: Identifies the hierarchical level of the records in the relationship.
    Values should be either ONE or MANY. However, values are only necessary when identifying
    a relationship between datasets.
  :datatype:
    :type: http://www.assero.co.uk/BusinessDomain#VariableType
    :id: M-CDISC_SDTMMODEL_DT_CHAR
    :namespace: http://www.assero.co.uk/MDRSdtmM/CDISC/V3
    :label: Char
    :extension_properties: []
  :classification:
    :type: http://www.assero.co.uk/BusinessDomain#VariableClassification
    :id: M-CDISC_SDTMMODEL_C_QUALIFIER
    :namespace: http://www.assero.co.uk/MDRSdtmM/CDISC/V3
    :label: Qualifier
    :extension_properties: []
  :sub_classification:
    :type: http://www.assero.co.uk/BusinessDomain#VariableClassification
    :id: M-CDISC_SDTMMODEL_SC_RECORDQUALIFIER
    :namespace: http://www.assero.co.uk/MDRSdtmM/CDISC/V3
    :label: Record Qualifier
    :extension_properties: []
- :type: http://www.assero.co.uk/BusinessDomain#ModelVariable
  :id: M-CDISC_SDTMMODEL_xxFAST
  :namespace: http://www.assero.co.uk/MDRSdtmM/CDISC/V3
  :label: Fasting Status
  :extension_properties: []
  :ordinal: 40
  :rule: ''
  :name: "--FAST"
  :prefixed: true
  :description: Indicator used to identify fasting status. Valid values include Y,
    N, U or null if not relevant.
  :datatype:
    :type: http://www.assero.co.uk/BusinessDomain#VariableType
    :id: M-CDISC_SDTMMODEL_DT_CHAR
    :namespace: http://www.assero.co.uk/MDRSdtmM/CDISC/V3
    :label: Char
    :extension_properties: []
  :classification:
    :type: http://www.assero.co.uk/BusinessDomain#VariableClassification
    :id: M-CDISC_SDTMMODEL_C_QUALIFIER
    :namespace: http://www.assero.co.uk/MDRSdtmM/CDISC/V3
    :label: Qualifier
    :extension_properties: []
  :sub_classification:
    :type: http://www.assero.co.uk/BusinessDomain#VariableClassification
    :id: M-CDISC_SDTMMODEL_SC_RECORDQUALIFIER
    :namespace: http://www.assero.co.uk/MDRSdtmM/CDISC/V3
    :label: Record Qualifier
    :extension_properties: []
- :type: http://www.assero.co.uk/BusinessDomain#ModelVariable
  :id: M-CDISC_SDTMMODEL_xxSCAN
  :namespace: http://www.assero.co.uk/MDRSdtmM/CDISC/V3
  :label: Involves Cancer
  :extension_properties: []
  :ordinal: 36
  :rule: ''
  :name: "--SCAN"
  :prefixed: true
  :description: Was the event associated with the development of cancer? Valid values
    are “Y” and “N”.
  :datatype:
    :type: http://www.assero.co.uk/BusinessDomain#VariableType
    :id: M-CDISC_SDTMMODEL_DT_CHAR
    :namespace: http://www.assero.co.uk/MDRSdtmM/CDISC/V3
    :label: Char
    :extension_properties: []
  :classification:
    :type: http://www.assero.co.uk/BusinessDomain#VariableClassification
    :id: M-CDISC_SDTMMODEL_C_QUALIFIER
    :namespace: http://www.assero.co.uk/MDRSdtmM/CDISC/V3
    :label: Qualifier
    :extension_properties: []
  :sub_classification:
    :type: http://www.assero.co.uk/BusinessDomain#VariableClassification
    :id: M-CDISC_SDTMMODEL_SC_RECORDQUALIFIER
    :namespace: http://www.assero.co.uk/MDRSdtmM/CDISC/V3
    :label: Record Qualifier
    :extension_properties: []
- :type: http://www.assero.co.uk/BusinessDomain#ModelVariable
  :id: M-CDISC_SDTMMODEL_xxROUTE
  :namespace: http://www.assero.co.uk/MDRSdtmM/CDISC/V3
  :label: Route of Administration
  :extension_properties: []
  :ordinal: 21
  :rule: ''
  :name: "--ROUTE"
  :prefixed: true
  :description: 'Route of administration for the intervention. Examples: ORAL, INTRAVENOUS.'
  :datatype:
    :type: http://www.assero.co.uk/BusinessDomain#VariableType
    :id: M-CDISC_SDTMMODEL_DT_CHAR
    :namespace: http://www.assero.co.uk/MDRSdtmM/CDISC/V3
    :label: Char
    :extension_properties: []
  :classification:
    :type: http://www.assero.co.uk/BusinessDomain#VariableClassification
    :id: M-CDISC_SDTMMODEL_C_QUALIFIER
    :namespace: http://www.assero.co.uk/MDRSdtmM/CDISC/V3
    :label: Qualifier
    :extension_properties: []
  :sub_classification:
    :type: http://www.assero.co.uk/BusinessDomain#VariableClassification
    :id: M-CDISC_SDTMMODEL_SC_VARIABLEQUALIFIER
    :namespace: http://www.assero.co.uk/MDRSdtmM/CDISC/V3
    :label: Variable Qualifier
    :extension_properties: []
- :type: http://www.assero.co.uk/BusinessDomain#ModelVariable
  :id: M-CDISC_SDTMMODEL_SITEID
  :namespace: http://www.assero.co.uk/MDRSdtmM/CDISC/V3
  :label: Study Site Identifier
  :extension_properties: []
  :ordinal: 10
  :rule: ''
  :name: SITEID
  :prefixed: false
  :description: Unique identifier for a site within a study.
  :datatype:
    :type: http://www.assero.co.uk/BusinessDomain#VariableType
    :id: M-CDISC_SDTMMODEL_DT_CHAR
    :namespace: http://www.assero.co.uk/MDRSdtmM/CDISC/V3
    :label: Char
    :extension_properties: []
  :classification:
    :type: http://www.assero.co.uk/BusinessDomain#VariableClassification
    :id: M-CDISC_SDTMMODEL_C_QUALIFIER
    :namespace: http://www.assero.co.uk/MDRSdtmM/CDISC/V3
    :label: Qualifier
    :extension_properties: []
  :sub_classification:
    :type: http://www.assero.co.uk/BusinessDomain#VariableClassification
    :id: M-CDISC_SDTMMODEL_SC_RECORDQUALIFIER
    :namespace: http://www.assero.co.uk/MDRSdtmM/CDISC/V3
    :label: Record Qualifier
    :extension_properties: []
- :type: http://www.assero.co.uk/BusinessDomain#ModelVariable
  :id: M-CDISC_SDTMMODEL_xxSTNRC
  :namespace: http://www.assero.co.uk/MDRSdtmM/CDISC/V3
  :label: Normal Range for Character Results
  :extension_properties: []
  :ordinal: 18
  :rule: ''
  :name: "--STNRC"
  :prefixed: true
  :description: 'Normal range or reference range for results stored in --STRESC that
    are character in ordinal or categorical scale. Example: Negative to Trace.'
  :datatype:
    :type: http://www.assero.co.uk/BusinessDomain#VariableType
    :id: M-CDISC_SDTMMODEL_DT_CHAR
    :namespace: http://www.assero.co.uk/MDRSdtmM/CDISC/V3
    :label: Char
    :extension_properties: []
  :classification:
    :type: http://www.assero.co.uk/BusinessDomain#VariableClassification
    :id: M-CDISC_SDTMMODEL_C_QUALIFIER
    :namespace: http://www.assero.co.uk/MDRSdtmM/CDISC/V3
    :label: Qualifier
    :extension_properties: []
  :sub_classification:
    :type: http://www.assero.co.uk/BusinessDomain#VariableClassification
    :id: M-CDISC_SDTMMODEL_SC_VARIABLEQUALIFIER
    :namespace: http://www.assero.co.uk/MDRSdtmM/CDISC/V3
    :label: Variable Qualifier
    :extension_properties: []
- :type: http://www.assero.co.uk/BusinessDomain#ModelVariable
  :id: M-CDISC_SDTMMODEL_xxSER
  :namespace: http://www.assero.co.uk/MDRSdtmM/CDISC/V3
  :label: Serious Event
  :extension_properties: []
  :ordinal: 28
  :rule: ''
  :name: "--SER"
  :prefixed: true
  :description: Is this is a serious event? Valid values are “Y” and “N”.
  :datatype:
    :type: http://www.assero.co.uk/BusinessDomain#VariableType
    :id: M-CDISC_SDTMMODEL_DT_CHAR
    :namespace: http://www.assero.co.uk/MDRSdtmM/CDISC/V3
    :label: Char
    :extension_properties: []
  :classification:
    :type: http://www.assero.co.uk/BusinessDomain#VariableClassification
    :id: M-CDISC_SDTMMODEL_C_QUALIFIER
    :namespace: http://www.assero.co.uk/MDRSdtmM/CDISC/V3
    :label: Qualifier
    :extension_properties: []
  :sub_classification:
    :type: http://www.assero.co.uk/BusinessDomain#VariableClassification
    :id: M-CDISC_SDTMMODEL_SC_RECORDQUALIFIER
    :namespace: http://www.assero.co.uk/MDRSdtmM/CDISC/V3
    :label: Record Qualifier
    :extension_properties: []
- :type: http://www.assero.co.uk/BusinessDomain#ModelVariable
  :id: M-CDISC_SDTMMODEL_xxCAT
  :namespace: http://www.assero.co.uk/MDRSdtmM/CDISC/V3
  :label: Category
  :extension_properties: []
  :ordinal: 11
  :rule: ''
  :name: "--CAT"
  :prefixed: true
  :description: 'Used to define a category of topic-variable values. Examples: HEMATOLOGY,
    URINALYSIS, CHEMISTRY, HAMILTON DEPRESSION SCALE, SF36, MICRO ARRAY, EGFR MUTATION
    ANALYSIS'
  :datatype:
    :type: http://www.assero.co.uk/BusinessDomain#VariableType
    :id: M-CDISC_SDTMMODEL_DT_CHAR
    :namespace: http://www.assero.co.uk/MDRSdtmM/CDISC/V3
    :label: Char
    :extension_properties: []
  :classification:
    :type: http://www.assero.co.uk/BusinessDomain#VariableClassification
    :id: M-CDISC_SDTMMODEL_C_QUALIFIER
    :namespace: http://www.assero.co.uk/MDRSdtmM/CDISC/V3
    :label: Qualifier
    :extension_properties: []
  :sub_classification:
    :type: http://www.assero.co.uk/BusinessDomain#VariableClassification
    :id: M-CDISC_SDTMMODEL_SC_GROUPINGQUALIFIER
    :namespace: http://www.assero.co.uk/MDRSdtmM/CDISC/V3
    :label: Grouping Qualifier
    :extension_properties: []
- :type: http://www.assero.co.uk/BusinessDomain#ModelVariable
  :id: M-CDISC_SDTMMODEL_xxDTC
  :namespace: http://www.assero.co.uk/MDRSdtmM/CDISC/V3
  :label: Date/Time of Collection
  :extension_properties: []
  :ordinal: 17
  :rule: ''
  :name: "--DTC"
  :prefixed: true
  :description: Collection date and time of an observation represented in IS0 8601
    character format.
  :datatype:
    :type: http://www.assero.co.uk/BusinessDomain#VariableType
    :id: M-CDISC_SDTMMODEL_DT_CHAR
    :namespace: http://www.assero.co.uk/MDRSdtmM/CDISC/V3
    :label: Char
    :extension_properties: []
  :classification:
    :type: http://www.assero.co.uk/BusinessDomain#VariableClassification
    :id: M-CDISC_SDTMMODEL_C_TIMING
    :namespace: http://www.assero.co.uk/MDRSdtmM/CDISC/V3
    :label: Timing
    :extension_properties: []
- :type: http://www.assero.co.uk/BusinessDomain#ModelVariable
  :id: M-CDISC_SDTMMODEL_xxSTRESC
  :namespace: http://www.assero.co.uk/MDRSdtmM/CDISC/V3
  :label: Result or Finding in Standard Format
  :extension_properties: []
  :ordinal: 13
  :rule: ''
  :name: "--STRESC"
  :prefixed: true
  :description: Contains the result value for all findings, copied or derived from
    --ORRES in a standard format or in standard units. --STRESC should store all results
    or findings in character format; if results are numeric, they should also be stored
    in numeric format in --STRESN. For example, if various tests have results “NONE”,
    “NEG”, and “NEGATIVE” in --ORRES and these results effectively have the same meaning,
    they could be represented in standard format in --STRESC as "NEGATIVE".
  :datatype:
    :type: http://www.assero.co.uk/BusinessDomain#VariableType
    :id: M-CDISC_SDTMMODEL_DT_CHAR
    :namespace: http://www.assero.co.uk/MDRSdtmM/CDISC/V3
    :label: Char
    :extension_properties: []
  :classification:
    :type: http://www.assero.co.uk/BusinessDomain#VariableClassification
    :id: M-CDISC_SDTMMODEL_C_QUALIFIER
    :namespace: http://www.assero.co.uk/MDRSdtmM/CDISC/V3
    :label: Qualifier
    :extension_properties: []
  :sub_classification:
    :type: http://www.assero.co.uk/BusinessDomain#VariableClassification
    :id: M-CDISC_SDTMMODEL_SC_RESULTQUALIFIER
    :namespace: http://www.assero.co.uk/MDRSdtmM/CDISC/V3
    :label: Result Qualifier
    :extension_properties: []
- :type: http://www.assero.co.uk/BusinessDomain#ModelVariable
  :id: M-CDISC_SDTMMODEL_RELID
  :namespace: http://www.assero.co.uk/MDRSdtmM/CDISC/V3
  :label: Relationship Identifier
  :extension_properties: []
  :ordinal: 7
  :rule: ''
  :name: RELID
  :prefixed: false
  :description: Unique value within USUBJID that identifies the relationship. All
    records for the same USUBJID that have the same RELID are considered “related/associated.”
    RELID can be any value the sponsor chooses, and is only meaningful within the
    RELREC dataset to identify the related/associated Domain records.
  :datatype:
    :type: http://www.assero.co.uk/BusinessDomain#VariableType
    :id: M-CDISC_SDTMMODEL_DT_CHAR
    :namespace: http://www.assero.co.uk/MDRSdtmM/CDISC/V3
    :label: Char
    :extension_properties: []
  :classification:
    :type: http://www.assero.co.uk/BusinessDomain#VariableClassification
    :id: M-CDISC_SDTMMODEL_C_QUALIFIER
    :namespace: http://www.assero.co.uk/MDRSdtmM/CDISC/V3
    :label: Qualifier
    :extension_properties: []
  :sub_classification:
    :type: http://www.assero.co.uk/BusinessDomain#VariableClassification
    :id: M-CDISC_SDTMMODEL_SC_RECORDQUALIFIER
    :namespace: http://www.assero.co.uk/MDRSdtmM/CDISC/V3
    :label: Record Qualifier
    :extension_properties: []
- :type: http://www.assero.co.uk/BusinessDomain#ModelVariable
  :id: M-CDISC_SDTMMODEL_SET
  :namespace: http://www.assero.co.uk/MDRSdtmM/CDISC/V3
  :label: Set Description
  :extension_properties: []
  :ordinal: 12
  :rule: ''
  :name: SET
  :prefixed: false
  :description: Long description of a specific Trial Set, as defined by the sponsor.
  :datatype:
    :type: http://www.assero.co.uk/BusinessDomain#VariableType
    :id: M-CDISC_SDTMMODEL_DT_CHAR
    :namespace: http://www.assero.co.uk/MDRSdtmM/CDISC/V3
    :label: Char
    :extension_properties: []
  :classification:
    :type: http://www.assero.co.uk/BusinessDomain#VariableClassification
    :id: M-CDISC_SDTMMODEL_C_QUALIFIER
    :namespace: http://www.assero.co.uk/MDRSdtmM/CDISC/V3
    :label: Qualifier
    :extension_properties: []
  :sub_classification:
    :type: http://www.assero.co.uk/BusinessDomain#VariableClassification
    :id: M-CDISC_SDTMMODEL_SC_RECORDQUALIFIER
    :namespace: http://www.assero.co.uk/MDRSdtmM/CDISC/V3
    :label: Record Qualifier
    :extension_properties: []
- :type: http://www.assero.co.uk/BusinessDomain#ModelVariable
  :id: M-CDISC_SDTMMODEL_xxSLIFE
  :namespace: http://www.assero.co.uk/MDRSdtmM/CDISC/V3
  :label: Is Life Threatening
  :extension_properties: []
  :ordinal: 41
  :rule: ''
  :name: "--SLIFE"
  :prefixed: true
  :description: Was the event life threatening? Valid values are “Y” and “N”.
  :datatype:
    :type: http://www.assero.co.uk/BusinessDomain#VariableType
    :id: M-CDISC_SDTMMODEL_DT_CHAR
    :namespace: http://www.assero.co.uk/MDRSdtmM/CDISC/V3
    :label: Char
    :extension_properties: []
  :classification:
    :type: http://www.assero.co.uk/BusinessDomain#VariableClassification
    :id: M-CDISC_SDTMMODEL_C_QUALIFIER
    :namespace: http://www.assero.co.uk/MDRSdtmM/CDISC/V3
    :label: Qualifier
    :extension_properties: []
  :sub_classification:
    :type: http://www.assero.co.uk/BusinessDomain#VariableClassification
    :id: M-CDISC_SDTMMODEL_SC_RECORDQUALIFIER
    :namespace: http://www.assero.co.uk/MDRSdtmM/CDISC/V3
    :label: Record Qualifier
    :extension_properties: []
- :type: http://www.assero.co.uk/BusinessDomain#ModelVariable
  :id: M-CDISC_SDTMMODEL_SETCD
  :namespace: http://www.assero.co.uk/MDRSdtmM/CDISC/V3
  :label: Set Code
  :extension_properties: []
  :ordinal: 25
  :rule: ''
  :name: SETCD
  :prefixed: false
  :description: Short name of a specific Trial Set, as defined by the sponsor. Maximum
    8 characters. This represents the Trial Set for which parameters are being submitted.
  :datatype:
    :type: http://www.assero.co.uk/BusinessDomain#VariableType
    :id: M-CDISC_SDTMMODEL_DT_CHAR
    :namespace: http://www.assero.co.uk/MDRSdtmM/CDISC/V3
    :label: Char
    :extension_properties: []
  :classification:
    :type: http://www.assero.co.uk/BusinessDomain#VariableClassification
    :id: M-CDISC_SDTMMODEL_C_QUALIFIER
    :namespace: http://www.assero.co.uk/MDRSdtmM/CDISC/V3
    :label: Qualifier
    :extension_properties: []
  :sub_classification:
    :type: http://www.assero.co.uk/BusinessDomain#VariableClassification
    :id: M-CDISC_SDTMMODEL_SC_RECORDQUALIFIER
    :namespace: http://www.assero.co.uk/MDRSdtmM/CDISC/V3
    :label: Record Qualifier
    :extension_properties: []
- :type: http://www.assero.co.uk/BusinessDomain#ModelVariable
  :id: M-CDISC_SDTMMODEL_xxSOC
  :namespace: http://www.assero.co.uk/MDRSdtmM/CDISC/V3
  :label: Primary System Organ Class
  :extension_properties: []
  :ordinal: 19
  :rule: ''
  :name: "--SOC"
  :prefixed: true
  :description: MedDRA primary System Organ Class associated with the event.
  :datatype:
    :type: http://www.assero.co.uk/BusinessDomain#VariableType
    :id: M-CDISC_SDTMMODEL_DT_CHAR
    :namespace: http://www.assero.co.uk/MDRSdtmM/CDISC/V3
    :label: Char
    :extension_properties: []
  :classification:
    :type: http://www.assero.co.uk/BusinessDomain#VariableClassification
    :id: M-CDISC_SDTMMODEL_C_QUALIFIER
    :namespace: http://www.assero.co.uk/MDRSdtmM/CDISC/V3
    :label: Qualifier
    :extension_properties: []
  :sub_classification:
    :type: http://www.assero.co.uk/BusinessDomain#VariableClassification
    :id: M-CDISC_SDTMMODEL_SC_VARIABLEQUALIFIER
    :namespace: http://www.assero.co.uk/MDRSdtmM/CDISC/V3
    :label: Variable Qualifier
    :extension_properties: []
- :type: http://www.assero.co.uk/BusinessDomain#ModelVariable
  :id: M-CDISC_SDTMMODEL_xxTERM
  :namespace: http://www.assero.co.uk/MDRSdtmM/CDISC/V3
  :label: Reported Term
  :extension_properties: []
  :ordinal: 1
  :rule: ''
  :name: "--TERM"
  :prefixed: true
  :description: Topic variable for an event observation, which is the verbatim or
    pre-specified name of the event.
  :datatype:
    :type: http://www.assero.co.uk/BusinessDomain#VariableType
    :id: M-CDISC_SDTMMODEL_DT_CHAR
    :namespace: http://www.assero.co.uk/MDRSdtmM/CDISC/V3
    :label: Char
    :extension_properties: []
  :classification:
    :type: http://www.assero.co.uk/BusinessDomain#VariableClassification
    :id: M-CDISC_SDTMMODEL_C_TOPIC
    :namespace: http://www.assero.co.uk/MDRSdtmM/CDISC/V3
    :label: Topic
    :extension_properties: []
- :type: http://www.assero.co.uk/BusinessDomain#ModelVariable
  :id: M-CDISC_SDTMMODEL_xxVAMTU
  :namespace: http://www.assero.co.uk/MDRSdtmM/CDISC/V3
  :label: Treatment Vehicle Amount Units
  :extension_properties: []
  :ordinal: 32
  :rule: ''
  :name: "--VAMTU"
  :prefixed: true
  :description: 'Units for the prepared product (treatment   vehicle). Examples: mL,
    mg.'
  :datatype:
    :type: http://www.assero.co.uk/BusinessDomain#VariableType
    :id: M-CDISC_SDTMMODEL_DT_CHAR
    :namespace: http://www.assero.co.uk/MDRSdtmM/CDISC/V3
    :label: Char
    :extension_properties: []
  :classification:
    :type: http://www.assero.co.uk/BusinessDomain#VariableClassification
    :id: M-CDISC_SDTMMODEL_C_QUALIFIER
    :namespace: http://www.assero.co.uk/MDRSdtmM/CDISC/V3
    :label: Qualifier
    :extension_properties: []
  :sub_classification:
    :type: http://www.assero.co.uk/BusinessDomain#VariableClassification
    :id: M-CDISC_SDTMMODEL_SC_VARIABLEQUALIFIER
    :namespace: http://www.assero.co.uk/MDRSdtmM/CDISC/V3
    :label: Variable Qualifier
    :extension_properties: []
- :type: http://www.assero.co.uk/BusinessDomain#ModelVariable
  :id: M-CDISC_SDTMMODEL_xxACNOTH
  :namespace: http://www.assero.co.uk/MDRSdtmM/CDISC/V3
  :label: Other Action Taken
  :extension_properties: []
  :ordinal: 30
  :rule: ''
  :name: "--ACNOTH"
  :prefixed: true
  :description: Describes other actions taken as a result of the event that are unrelated
    to dose adjustments of study treatment.
  :datatype:
    :type: http://www.assero.co.uk/BusinessDomain#VariableType
    :id: M-CDISC_SDTMMODEL_DT_CHAR
    :namespace: http://www.assero.co.uk/MDRSdtmM/CDISC/V3
    :label: Char
    :extension_properties: []
  :classification:
    :type: http://www.assero.co.uk/BusinessDomain#VariableClassification
    :id: M-CDISC_SDTMMODEL_C_QUALIFIER
    :namespace: http://www.assero.co.uk/MDRSdtmM/CDISC/V3
    :label: Qualifier
    :extension_properties: []
  :sub_classification:
    :type: http://www.assero.co.uk/BusinessDomain#VariableClassification
    :id: M-CDISC_SDTMMODEL_SC_RECORDQUALIFIER
    :namespace: http://www.assero.co.uk/MDRSdtmM/CDISC/V3
    :label: Record Qualifier
    :extension_properties: []
- :type: http://www.assero.co.uk/BusinessDomain#ModelVariable
  :id: M-CDISC_SDTMMODEL_xxSTINT
  :namespace: http://www.assero.co.uk/MDRSdtmM/CDISC/V3
  :label: Planned Start of Assessment Interval
  :extension_properties: []
  :ordinal: 37
  :rule: ''
  :name: "--STINT"
  :prefixed: true
  :description: The start of a planned evaluation or assessment interval in ISO 8601
    character format relative to the Time Point Reference (--TPTREF).
  :datatype:
    :type: http://www.assero.co.uk/BusinessDomain#VariableType
    :id: M-CDISC_SDTMMODEL_DT_CHAR
    :namespace: http://www.assero.co.uk/MDRSdtmM/CDISC/V3
    :label: Char
    :extension_properties: []
  :classification:
    :type: http://www.assero.co.uk/BusinessDomain#VariableClassification
    :id: M-CDISC_SDTMMODEL_C_TIMING
    :namespace: http://www.assero.co.uk/MDRSdtmM/CDISC/V3
    :label: Timing
    :extension_properties: []
- :type: http://www.assero.co.uk/BusinessDomain#ModelVariable
  :id: M-CDISC_SDTMMODEL_xxRELNST
  :namespace: http://www.assero.co.uk/MDRSdtmM/CDISC/V3
  :label: Relationship to Non-Study Treatment
  :extension_properties: []
  :ordinal: 33
  :rule: ''
  :name: "--RELNST"
  :prefixed: true
  :description: 'An opinion as to whether the event may have been due to a treatment
    other than study drug. Example: "MORE LIKELY RELATED TO ASPIRIN USE."'
  :datatype:
    :type: http://www.assero.co.uk/BusinessDomain#VariableType
    :id: M-CDISC_SDTMMODEL_DT_CHAR
    :namespace: http://www.assero.co.uk/MDRSdtmM/CDISC/V3
    :label: Char
    :extension_properties: []
  :classification:
    :type: http://www.assero.co.uk/BusinessDomain#VariableClassification
    :id: M-CDISC_SDTMMODEL_C_QUALIFIER
    :namespace: http://www.assero.co.uk/MDRSdtmM/CDISC/V3
    :label: Qualifier
    :extension_properties: []
  :sub_classification:
    :type: http://www.assero.co.uk/BusinessDomain#VariableClassification
    :id: M-CDISC_SDTMMODEL_SC_RECORDQUALIFIER
    :namespace: http://www.assero.co.uk/MDRSdtmM/CDISC/V3
    :label: Record Qualifier
    :extension_properties: []
- :type: http://www.assero.co.uk/BusinessDomain#ModelVariable
  :id: M-CDISC_SDTMMODEL_xxMOOD
  :namespace: http://www.assero.co.uk/MDRSdtmM/CDISC/V3
  :label: Mood
  :extension_properties: []
  :ordinal: 4
  :rule: ''
  :name: "--MOOD"
  :prefixed: true
  :description: Mode or condition of the record (e.g., SCHEDULED, PERFORMED).
  :datatype:
    :type: http://www.assero.co.uk/BusinessDomain#VariableType
    :id: M-CDISC_SDTMMODEL_DT_CHAR
    :namespace: http://www.assero.co.uk/MDRSdtmM/CDISC/V3
    :label: Char
    :extension_properties: []
  :classification:
    :type: http://www.assero.co.uk/BusinessDomain#VariableClassification
    :id: M-CDISC_SDTMMODEL_C_QUALIFIER
    :namespace: http://www.assero.co.uk/MDRSdtmM/CDISC/V3
    :label: Qualifier
    :extension_properties: []
  :sub_classification:
    :type: http://www.assero.co.uk/BusinessDomain#VariableClassification
    :id: M-CDISC_SDTMMODEL_SC_RECORDQUALIFIER
    :namespace: http://www.assero.co.uk/MDRSdtmM/CDISC/V3
    :label: Record Qualifier
    :extension_properties: []
- :type: http://www.assero.co.uk/BusinessDomain#ModelVariable
  :id: M-CDISC_SDTMMODEL_xxVERS
  :namespace: http://www.assero.co.uk/MDRSdtmM/CDISC/V3
  :label: Protocol Criteria Versions
  :extension_properties: []
  :ordinal: 18
  :rule: ''
  :name: "--VERS"
  :prefixed: true
  :description: The number of this version of the Inclusion/Exclusion criteria. May
    be omitted if there is only one version.
  :datatype:
    :type: http://www.assero.co.uk/BusinessDomain#VariableType
    :id: M-CDISC_SDTMMODEL_DT_CHAR
    :namespace: http://www.assero.co.uk/MDRSdtmM/CDISC/V3
    :label: Char
    :extension_properties: []
  :classification:
    :type: http://www.assero.co.uk/BusinessDomain#VariableClassification
    :id: M-CDISC_SDTMMODEL_C_QUALIFIER
    :namespace: http://www.assero.co.uk/MDRSdtmM/CDISC/V3
    :label: Qualifier
    :extension_properties: []
  :sub_classification:
    :type: http://www.assero.co.uk/BusinessDomain#VariableClassification
    :id: M-CDISC_SDTMMODEL_SC_RECORDQUALIFIER
    :namespace: http://www.assero.co.uk/MDRSdtmM/CDISC/V3
    :label: Record Qualifier
    :extension_properties: []
- :type: http://www.assero.co.uk/BusinessDomain#ModelVariable
  :id: M-CDISC_SDTMMODEL_xxSDISAB
  :namespace: http://www.assero.co.uk/MDRSdtmM/CDISC/V3
  :label: Persist or Signif Disability/Incapacity
  :extension_properties: []
  :ordinal: 38
  :rule: ''
  :name: "--SDISAB"
  :prefixed: true
  :description: Did the event result in persistent or significant disability/incapacity?
    Valid values are “Y” and “N”.
  :datatype:
    :type: http://www.assero.co.uk/BusinessDomain#VariableType
    :id: M-CDISC_SDTMMODEL_DT_CHAR
    :namespace: http://www.assero.co.uk/MDRSdtmM/CDISC/V3
    :label: Char
    :extension_properties: []
  :classification:
    :type: http://www.assero.co.uk/BusinessDomain#VariableClassification
    :id: M-CDISC_SDTMMODEL_C_QUALIFIER
    :namespace: http://www.assero.co.uk/MDRSdtmM/CDISC/V3
    :label: Qualifier
    :extension_properties: []
  :sub_classification:
    :type: http://www.assero.co.uk/BusinessDomain#VariableClassification
    :id: M-CDISC_SDTMMODEL_SC_RECORDQUALIFIER
    :namespace: http://www.assero.co.uk/MDRSdtmM/CDISC/V3
    :label: Record Qualifier
    :extension_properties: []
- :type: http://www.assero.co.uk/BusinessDomain#ModelVariable
  :id: M-CDISC_SDTMMODEL_xxTRTV
  :namespace: http://www.assero.co.uk/MDRSdtmM/CDISC/V3
  :label: Treatment Vehicle
  :extension_properties: []
  :ordinal: 30
  :rule: ''
  :name: "--TRTV"
  :prefixed: true
  :description: 'Vehicle for administration of treatment, such as a liquid in which
    the treatment drug is dissolved. Example: SALINE.'
  :datatype:
    :type: http://www.assero.co.uk/BusinessDomain#VariableType
    :id: M-CDISC_SDTMMODEL_DT_CHAR
    :namespace: http://www.assero.co.uk/MDRSdtmM/CDISC/V3
    :label: Char
    :extension_properties: []
  :classification:
    :type: http://www.assero.co.uk/BusinessDomain#VariableClassification
    :id: M-CDISC_SDTMMODEL_C_QUALIFIER
    :namespace: http://www.assero.co.uk/MDRSdtmM/CDISC/V3
    :label: Qualifier
    :extension_properties: []
  :sub_classification:
    :type: http://www.assero.co.uk/BusinessDomain#VariableClassification
    :id: M-CDISC_SDTMMODEL_SC_RECORDQUALIFIER
    :namespace: http://www.assero.co.uk/MDRSdtmM/CDISC/V3
    :label: Record Qualifier
    :extension_properties: []
- :type: http://www.assero.co.uk/BusinessDomain#ModelVariable
  :id: M-CDISC_SDTMMODEL_xxPSTRG
  :namespace: http://www.assero.co.uk/MDRSdtmM/CDISC/V3
  :label: Pharmaceutical Strength
  :extension_properties: []
  :ordinal: 28
  :rule: ''
  :name: "--PSTRG"
  :prefixed: true
  :description: 'Amount of an active ingredient expressed quantitatively per dosage
    unit, per unit of volume, or per unit of weight, according to the pharmaceutical
    dose form. Example: 50 mg/TABLET, 300 mg/L'
  :datatype:
    :type: http://www.assero.co.uk/BusinessDomain#VariableType
    :id: M-CDISC_SDTMMODEL_DT_NUM
    :namespace: http://www.assero.co.uk/MDRSdtmM/CDISC/V3
    :label: Num
    :extension_properties: []
  :classification:
    :type: http://www.assero.co.uk/BusinessDomain#VariableClassification
    :id: M-CDISC_SDTMMODEL_C_QUALIFIER
    :namespace: http://www.assero.co.uk/MDRSdtmM/CDISC/V3
    :label: Qualifier
    :extension_properties: []
  :sub_classification:
    :type: http://www.assero.co.uk/BusinessDomain#VariableClassification
    :id: M-CDISC_SDTMMODEL_SC_VARIABLEQUALIFIER
    :namespace: http://www.assero.co.uk/MDRSdtmM/CDISC/V3
    :label: Variable Qualifier
    :extension_properties: []
- :type: http://www.assero.co.uk/BusinessDomain#ModelVariable
  :id: M-CDISC_SDTMMODEL_xxLOC
  :namespace: http://www.assero.co.uk/MDRSdtmM/CDISC/V3
  :label: Location Used for the Measurement
  :extension_properties: []
  :ordinal: 30
  :rule: ''
  :name: "--LOC"
  :prefixed: true
  :description: 'Anatomical location of an intervention, such as an injection site.
    Example: ARM for an injection.'
  :datatype:
    :type: http://www.assero.co.uk/BusinessDomain#VariableType
    :id: M-CDISC_SDTMMODEL_DT_CHAR
    :namespace: http://www.assero.co.uk/MDRSdtmM/CDISC/V3
    :label: Char
    :extension_properties: []
  :classification:
    :type: http://www.assero.co.uk/BusinessDomain#VariableClassification
    :id: M-CDISC_SDTMMODEL_C_QUALIFIER
    :namespace: http://www.assero.co.uk/MDRSdtmM/CDISC/V3
    :label: Qualifier
    :extension_properties: []
  :sub_classification:
    :type: http://www.assero.co.uk/BusinessDomain#VariableClassification
    :id: M-CDISC_SDTMMODEL_SC_RECORDQUALIFIER
    :namespace: http://www.assero.co.uk/MDRSdtmM/CDISC/V3
    :label: Record Qualifier
    :extension_properties: []
- :type: http://www.assero.co.uk/BusinessDomain#ModelVariable
  :id: M-CDISC_SDTMMODEL_xxRFTDTC
  :namespace: http://www.assero.co.uk/MDRSdtmM/CDISC/V3
  :label: Date/Time of Reference Time Point
  :extension_properties: []
  :ordinal: 28
  :rule: ''
  :name: "--RFTDTC"
  :prefixed: true
  :description: Date/time for a fixed reference time point defined by --TPTREF in
    ISO 8601 character format.
  :datatype:
    :type: http://www.assero.co.uk/BusinessDomain#VariableType
    :id: M-CDISC_SDTMMODEL_DT_CHAR
    :namespace: http://www.assero.co.uk/MDRSdtmM/CDISC/V3
    :label: Char
    :extension_properties: []
  :classification:
    :type: http://www.assero.co.uk/BusinessDomain#VariableClassification
    :id: M-CDISC_SDTMMODEL_C_TIMING
    :namespace: http://www.assero.co.uk/MDRSdtmM/CDISC/V3
    :label: Timing
    :extension_properties: []
- :type: http://www.assero.co.uk/BusinessDomain#ModelVariable
  :id: M-CDISC_SDTMMODEL_AGE
  :namespace: http://www.assero.co.uk/MDRSdtmM/CDISC/V3
  :label: Age
  :extension_properties: []
  :ordinal: 14
  :rule: ''
  :name: AGE
  :prefixed: false
  :description: Age expressed in AGEU
  :datatype:
    :type: http://www.assero.co.uk/BusinessDomain#VariableType
    :id: M-CDISC_SDTMMODEL_DT_NUM
    :namespace: http://www.assero.co.uk/MDRSdtmM/CDISC/V3
    :label: Num
    :extension_properties: []
  :classification:
    :type: http://www.assero.co.uk/BusinessDomain#VariableClassification
    :id: M-CDISC_SDTMMODEL_C_QUALIFIER
    :namespace: http://www.assero.co.uk/MDRSdtmM/CDISC/V3
    :label: Qualifier
    :extension_properties: []
  :sub_classification:
    :type: http://www.assero.co.uk/BusinessDomain#VariableClassification
    :id: M-CDISC_SDTMMODEL_SC_RECORDQUALIFIER
    :namespace: http://www.assero.co.uk/MDRSdtmM/CDISC/V3
    :label: Record Qualifier
    :extension_properties: []
- :type: http://www.assero.co.uk/BusinessDomain#ModelVariable
  :id: M-CDISC_SDTMMODEL_xxVALNF
  :namespace: http://www.assero.co.uk/MDRSdtmM/CDISC/V3
  :label: Parameter Null Flavor
  :extension_properties: []
  :ordinal: 22
  :rule: ''
  :name: "--VALNF"
  :prefixed: true
  :description: Null flavor for the value of TSVAL describing the reason the value
    is null, to be populated if and only if TSVAL is null.
  :datatype:
    :type: http://www.assero.co.uk/BusinessDomain#VariableType
    :id: M-CDISC_SDTMMODEL_DT_CHAR
    :namespace: http://www.assero.co.uk/MDRSdtmM/CDISC/V3
    :label: Char
    :extension_properties: []
  :classification:
    :type: http://www.assero.co.uk/BusinessDomain#VariableClassification
    :id: M-CDISC_SDTMMODEL_C_QUALIFIER
    :namespace: http://www.assero.co.uk/MDRSdtmM/CDISC/V3
    :label: Qualifier
    :extension_properties: []
  :sub_classification:
    :type: http://www.assero.co.uk/BusinessDomain#VariableClassification
    :id: M-CDISC_SDTMMODEL_SC_RESULTQUALIFIER
    :namespace: http://www.assero.co.uk/MDRSdtmM/CDISC/V3
    :label: Result Qualifier
    :extension_properties: []
- :type: http://www.assero.co.uk/BusinessDomain#ModelVariable
  :id: M-CDISC_SDTMMODEL_xxANCVAR
  :namespace: http://www.assero.co.uk/MDRSdtmM/CDISC/V3
  :label: Anchor Variable Name
  :extension_properties: []
  :ordinal: 27
  :rule: ''
  :name: "--ANCVAR"
  :prefixed: true
  :description: 'A reference to the date variable name that provides the start point
    from which the planned disease assessment schedule is measured. This must be referenced
    from the ADaM ADSL dataset e.g. ANCH1DT. Note: TDANCVAR is to contain the name
    of a reference date variable name.'
  :datatype:
    :type: http://www.assero.co.uk/BusinessDomain#VariableType
    :id: M-CDISC_SDTMMODEL_DT_CHAR
    :namespace: http://www.assero.co.uk/MDRSdtmM/CDISC/V3
    :label: Char
    :extension_properties: []
  :classification:
    :type: http://www.assero.co.uk/BusinessDomain#VariableClassification
    :id: M-CDISC_SDTMMODEL_C_TIMING
    :namespace: http://www.assero.co.uk/MDRSdtmM/CDISC/V3
    :label: Timing
    :extension_properties: []
- :type: http://www.assero.co.uk/BusinessDomain#ModelVariable
  :id: M-CDISC_SDTMMODEL_SEX
  :namespace: http://www.assero.co.uk/MDRSdtmM/CDISC/V3
  :label: Sex
  :extension_properties: []
  :ordinal: 16
  :rule: ''
  :name: SEX
  :prefixed: false
  :description: Sex of the subject.
  :datatype:
    :type: http://www.assero.co.uk/BusinessDomain#VariableType
    :id: M-CDISC_SDTMMODEL_DT_CHAR
    :namespace: http://www.assero.co.uk/MDRSdtmM/CDISC/V3
    :label: Char
    :extension_properties: []
  :classification:
    :type: http://www.assero.co.uk/BusinessDomain#VariableClassification
    :id: M-CDISC_SDTMMODEL_C_QUALIFIER
    :namespace: http://www.assero.co.uk/MDRSdtmM/CDISC/V3
    :label: Qualifier
    :extension_properties: []
  :sub_classification:
    :type: http://www.assero.co.uk/BusinessDomain#VariableClassification
    :id: M-CDISC_SDTMMODEL_SC_RECORDQUALIFIER
    :namespace: http://www.assero.co.uk/MDRSdtmM/CDISC/V3
    :label: Record Qualifier
    :extension_properties: []
- :type: http://www.assero.co.uk/BusinessDomain#ModelVariable
  :id: M-CDISC_SDTMMODEL_ARM
  :namespace: http://www.assero.co.uk/MDRSdtmM/CDISC/V3
  :label: Description of Planned Arm
  :extension_properties: []
  :ordinal: 22
  :rule: ''
  :name: ARM
  :prefixed: false
  :description: Name given to Arm or treatment group.
  :datatype:
    :type: http://www.assero.co.uk/BusinessDomain#VariableType
    :id: M-CDISC_SDTMMODEL_DT_CHAR
    :namespace: http://www.assero.co.uk/MDRSdtmM/CDISC/V3
    :label: Char
    :extension_properties: []
  :classification:
    :type: http://www.assero.co.uk/BusinessDomain#VariableClassification
    :id: M-CDISC_SDTMMODEL_C_QUALIFIER
    :namespace: http://www.assero.co.uk/MDRSdtmM/CDISC/V3
    :label: Qualifier
    :extension_properties: []
  :sub_classification:
    :type: http://www.assero.co.uk/BusinessDomain#VariableClassification
    :id: M-CDISC_SDTMMODEL_SC_RECORDQUALIFIER
    :namespace: http://www.assero.co.uk/MDRSdtmM/CDISC/V3
    :label: Record Qualifier
    :extension_properties: []
- :type: http://www.assero.co.uk/BusinessDomain#ModelVariable
  :id: M-CDISC_SDTMMODEL_xxHLGTCD
  :namespace: http://www.assero.co.uk/MDRSdtmM/CDISC/V3
  :label: High Level Group Term Code
  :extension_properties: []
  :ordinal: 10
  :rule: ''
  :name: "--HLGTCD"
  :prefixed: true
  :description: MedDRA High Level Group Term code from the primary path.
  :datatype:
    :type: http://www.assero.co.uk/BusinessDomain#VariableType
    :id: M-CDISC_SDTMMODEL_DT_NUM
    :namespace: http://www.assero.co.uk/MDRSdtmM/CDISC/V3
    :label: Num
    :extension_properties: []
  :classification:
    :type: http://www.assero.co.uk/BusinessDomain#VariableClassification
    :id: M-CDISC_SDTMMODEL_C_QUALIFIER
    :namespace: http://www.assero.co.uk/MDRSdtmM/CDISC/V3
    :label: Qualifier
    :extension_properties: []
  :sub_classification:
    :type: http://www.assero.co.uk/BusinessDomain#VariableClassification
    :id: M-CDISC_SDTMMODEL_SC_VARIABLEQUALIFIER
    :namespace: http://www.assero.co.uk/MDRSdtmM/CDISC/V3
    :label: Variable Qualifier
    :extension_properties: []
- :type: http://www.assero.co.uk/BusinessDomain#ModelVariable
  :id: M-CDISC_SDTMMODEL_xxORRESU
  :namespace: http://www.assero.co.uk/MDRSdtmM/CDISC/V3
  :label: Original Units
  :extension_properties: []
  :ordinal: 10
  :rule: ''
  :name: "--ORRESU"
  :prefixed: true
  :description: 'Unit for --ORRES. Examples: IN, LB, kg/L.'
  :datatype:
    :type: http://www.assero.co.uk/BusinessDomain#VariableType
    :id: M-CDISC_SDTMMODEL_DT_CHAR
    :namespace: http://www.assero.co.uk/MDRSdtmM/CDISC/V3
    :label: Char
    :extension_properties: []
  :classification:
    :type: http://www.assero.co.uk/BusinessDomain#VariableClassification
    :id: M-CDISC_SDTMMODEL_C_QUALIFIER
    :namespace: http://www.assero.co.uk/MDRSdtmM/CDISC/V3
    :label: Qualifier
    :extension_properties: []
  :sub_classification:
    :type: http://www.assero.co.uk/BusinessDomain#VariableClassification
    :id: M-CDISC_SDTMMODEL_SC_VARIABLEQUALIFIER
    :namespace: http://www.assero.co.uk/MDRSdtmM/CDISC/V3
    :label: Variable Qualifier
    :extension_properties: []
- :type: http://www.assero.co.uk/BusinessDomain#ModelVariable
  :id: M-CDISC_SDTMMODEL_xxSOD
  :namespace: http://www.assero.co.uk/MDRSdtmM/CDISC/V3
  :label: Occurred with Overdose
  :extension_properties: []
  :ordinal: 42
  :rule: ''
  :name: "--SOD"
  :prefixed: true
  :description: Did the event occur with an overdose? Valid values are “Y” and “N”.
  :datatype:
    :type: http://www.assero.co.uk/BusinessDomain#VariableType
    :id: M-CDISC_SDTMMODEL_DT_CHAR
    :namespace: http://www.assero.co.uk/MDRSdtmM/CDISC/V3
    :label: Char
    :extension_properties: []
  :classification:
    :type: http://www.assero.co.uk/BusinessDomain#VariableClassification
    :id: M-CDISC_SDTMMODEL_C_QUALIFIER
    :namespace: http://www.assero.co.uk/MDRSdtmM/CDISC/V3
    :label: Qualifier
    :extension_properties: []
  :sub_classification:
    :type: http://www.assero.co.uk/BusinessDomain#VariableClassification
    :id: M-CDISC_SDTMMODEL_SC_RECORDQUALIFIER
    :namespace: http://www.assero.co.uk/MDRSdtmM/CDISC/V3
    :label: Record Qualifier
    :extension_properties: []
- :type: http://www.assero.co.uk/BusinessDomain#ModelVariable
  :id: M-CDISC_SDTMMODEL_xxSTAT
  :namespace: http://www.assero.co.uk/MDRSdtmM/CDISC/V3
  :label: Completion Status
  :extension_properties: []
  :ordinal: 21
  :rule: ''
  :name: "--STAT"
  :prefixed: true
  :description: Used to indicate when a question about the occurrence of a pre-specified
    event was not answered. Should be null or have a value of NOT DONE.
  :datatype:
    :type: http://www.assero.co.uk/BusinessDomain#VariableType
    :id: M-CDISC_SDTMMODEL_DT_CHAR
    :namespace: http://www.assero.co.uk/MDRSdtmM/CDISC/V3
    :label: Char
    :extension_properties: []
  :classification:
    :type: http://www.assero.co.uk/BusinessDomain#VariableClassification
    :id: M-CDISC_SDTMMODEL_C_QUALIFIER
    :namespace: http://www.assero.co.uk/MDRSdtmM/CDISC/V3
    :label: Qualifier
    :extension_properties: []
  :sub_classification:
    :type: http://www.assero.co.uk/BusinessDomain#VariableClassification
    :id: M-CDISC_SDTMMODEL_SC_RECORDQUALIFIER
    :namespace: http://www.assero.co.uk/MDRSdtmM/CDISC/V3
    :label: Record Qualifier
    :extension_properties: []
- :type: http://www.assero.co.uk/BusinessDomain#ModelVariable
  :id: M-CDISC_SDTMMODEL_RFICDTC
  :namespace: http://www.assero.co.uk/MDRSdtmM/CDISC/V3
  :label: Date/Time of Informed Consent
  :extension_properties: []
  :ordinal: 6
  :rule: ''
  :name: RFICDTC
  :prefixed: false
  :description: Date/time of informed consent in ISO 8601 character format.
  :datatype:
    :type: http://www.assero.co.uk/BusinessDomain#VariableType
    :id: M-CDISC_SDTMMODEL_DT_CHAR
    :namespace: http://www.assero.co.uk/MDRSdtmM/CDISC/V3
    :label: Char
    :extension_properties: []
  :classification:
    :type: http://www.assero.co.uk/BusinessDomain#VariableClassification
    :id: M-CDISC_SDTMMODEL_C_QUALIFIER
    :namespace: http://www.assero.co.uk/MDRSdtmM/CDISC/V3
    :label: Qualifier
    :extension_properties: []
  :sub_classification:
    :type: http://www.assero.co.uk/BusinessDomain#VariableClassification
    :id: M-CDISC_SDTMMODEL_SC_RECORDQUALIFIER
    :namespace: http://www.assero.co.uk/MDRSdtmM/CDISC/V3
    :label: Record Qualifier
    :extension_properties: []
- :type: http://www.assero.co.uk/BusinessDomain#ModelVariable
  :id: M-CDISC_SDTMMODEL_QVAL
  :namespace: http://www.assero.co.uk/MDRSdtmM/CDISC/V3
  :label: Data Value
  :extension_properties: []
  :ordinal: 10
  :rule: ''
  :name: QVAL
  :prefixed: false
  :description: Result of, response to, or value associated with QNAM. A value for
    this column is required; no records can be in SUPP-- with a null value for QVAL
  :datatype:
    :type: http://www.assero.co.uk/BusinessDomain#VariableType
    :id: M-CDISC_SDTMMODEL_DT_CHAR
    :namespace: http://www.assero.co.uk/MDRSdtmM/CDISC/V3
    :label: Char
    :extension_properties: []
  :classification:
    :type: http://www.assero.co.uk/BusinessDomain#VariableClassification
    :id: M-CDISC_SDTMMODEL_C_QUALIFIER
    :namespace: http://www.assero.co.uk/MDRSdtmM/CDISC/V3
    :label: Qualifier
    :extension_properties: []
  :sub_classification:
    :type: http://www.assero.co.uk/BusinessDomain#VariableClassification
    :id: M-CDISC_SDTMMODEL_SC_RECORDQUALIFIER
    :namespace: http://www.assero.co.uk/MDRSdtmM/CDISC/V3
    :label: Record Qualifier
    :extension_properties: []
- :type: http://www.assero.co.uk/BusinessDomain#ModelVariable
  :id: M-CDISC_SDTMMODEL_IDVARVAL
  :namespace: http://www.assero.co.uk/MDRSdtmM/CDISC/V3
  :label: Identifying Variable Value
  :extension_properties: []
  :ordinal: 31
  :rule: ''
  :name: IDVARVAL
  :prefixed: false
  :description: Value of identifying variable described in IDVAR. If --SEQ is the
    variable being used to describe this record, then the value of --SEQ would be
    entered here.
  :datatype:
    :type: http://www.assero.co.uk/BusinessDomain#VariableType
    :id: M-CDISC_SDTMMODEL_DT_CHAR
    :namespace: http://www.assero.co.uk/MDRSdtmM/CDISC/V3
    :label: Char
    :extension_properties: []
  :classification:
    :type: http://www.assero.co.uk/BusinessDomain#VariableClassification
    :id: M-CDISC_SDTMMODEL_C_QUALIFIER
    :namespace: http://www.assero.co.uk/MDRSdtmM/CDISC/V3
    :label: Qualifier
    :extension_properties: []
  :sub_classification:
    :type: http://www.assero.co.uk/BusinessDomain#VariableClassification
    :id: M-CDISC_SDTMMODEL_SC_RECORDQUALIFIER
    :namespace: http://www.assero.co.uk/MDRSdtmM/CDISC/V3
    :label: Record Qualifier
    :extension_properties: []
- :type: http://www.assero.co.uk/BusinessDomain#ModelVariable
  :id: M-CDISC_SDTMMODEL_xxOCCUR
  :namespace: http://www.assero.co.uk/MDRSdtmM/CDISC/V3
  :label: Occurrence
  :extension_properties: []
  :ordinal: 14
  :rule: ''
  :name: "--OCCUR"
  :prefixed: true
  :description: Used to record whether a pre-specified intervention occurred when
    information about the occurrence of a specific intervention is solicited.
  :datatype:
    :type: http://www.assero.co.uk/BusinessDomain#VariableType
    :id: M-CDISC_SDTMMODEL_DT_CHAR
    :namespace: http://www.assero.co.uk/MDRSdtmM/CDISC/V3
    :label: Char
    :extension_properties: []
  :classification:
    :type: http://www.assero.co.uk/BusinessDomain#VariableClassification
    :id: M-CDISC_SDTMMODEL_C_QUALIFIER
    :namespace: http://www.assero.co.uk/MDRSdtmM/CDISC/V3
    :label: Qualifier
    :extension_properties: []
  :sub_classification:
    :type: http://www.assero.co.uk/BusinessDomain#VariableClassification
    :id: M-CDISC_SDTMMODEL_SC_RECORDQUALIFIER
    :namespace: http://www.assero.co.uk/MDRSdtmM/CDISC/V3
    :label: Record Qualifier
    :extension_properties: []
- :type: http://www.assero.co.uk/BusinessDomain#ModelVariable
  :id: M-CDISC_SDTMMODEL_xxORRES
  :namespace: http://www.assero.co.uk/MDRSdtmM/CDISC/V3
  :label: Result or Finding in Original Units
  :extension_properties: []
  :ordinal: 9
  :rule: ''
  :name: "--ORRES"
  :prefixed: true
  :description: 'Result of the measurement or finding as originally received or collected.
    Examples: 120, <1, POS.'
  :datatype:
    :type: http://www.assero.co.uk/BusinessDomain#VariableType
    :id: M-CDISC_SDTMMODEL_DT_CHAR
    :namespace: http://www.assero.co.uk/MDRSdtmM/CDISC/V3
    :label: Char
    :extension_properties: []
  :classification:
    :type: http://www.assero.co.uk/BusinessDomain#VariableClassification
    :id: M-CDISC_SDTMMODEL_C_QUALIFIER
    :namespace: http://www.assero.co.uk/MDRSdtmM/CDISC/V3
    :label: Qualifier
    :extension_properties: []
  :sub_classification:
    :type: http://www.assero.co.uk/BusinessDomain#VariableClassification
    :id: M-CDISC_SDTMMODEL_SC_RESULTQUALIFIER
    :namespace: http://www.assero.co.uk/MDRSdtmM/CDISC/V3
    :label: Result Qualifier
    :extension_properties: []
- :type: http://www.assero.co.uk/BusinessDomain#ModelVariable
  :id: M-CDISC_SDTMMODEL_ARMCD
  :namespace: http://www.assero.co.uk/MDRSdtmM/CDISC/V3
  :label: Planned Arm Code
  :extension_properties: []
  :ordinal: 21
  :rule: ''
  :name: ARMCD
  :prefixed: false
  :description: ARMCD is limited to 20 characters and does not have special character
    restrictions.
  :datatype:
    :type: http://www.assero.co.uk/BusinessDomain#VariableType
    :id: M-CDISC_SDTMMODEL_DT_CHAR
    :namespace: http://www.assero.co.uk/MDRSdtmM/CDISC/V3
    :label: Char
    :extension_properties: []
  :classification:
    :type: http://www.assero.co.uk/BusinessDomain#VariableClassification
    :id: M-CDISC_SDTMMODEL_C_QUALIFIER
    :namespace: http://www.assero.co.uk/MDRSdtmM/CDISC/V3
    :label: Qualifier
    :extension_properties: []
  :sub_classification:
    :type: http://www.assero.co.uk/BusinessDomain#VariableClassification
    :id: M-CDISC_SDTMMODEL_SC_RECORDQUALIFIER
    :namespace: http://www.assero.co.uk/MDRSdtmM/CDISC/V3
    :label: Record Qualifier
    :extension_properties: []
- :type: http://www.assero.co.uk/BusinessDomain#ModelVariable
  :id: M-CDISC_SDTMMODEL_xxDOSFRM
  :namespace: http://www.assero.co.uk/MDRSdtmM/CDISC/V3
  :label: Dose Form
  :extension_properties: []
  :ordinal: 17
  :rule: ''
  :name: "--DOSFRM"
  :prefixed: true
  :description: 'Dose form for the treatment. Examples: TABLET, CAPSULE.'
  :datatype:
    :type: http://www.assero.co.uk/BusinessDomain#VariableType
    :id: M-CDISC_SDTMMODEL_DT_CHAR
    :namespace: http://www.assero.co.uk/MDRSdtmM/CDISC/V3
    :label: Char
    :extension_properties: []
  :classification:
    :type: http://www.assero.co.uk/BusinessDomain#VariableClassification
    :id: M-CDISC_SDTMMODEL_C_QUALIFIER
    :namespace: http://www.assero.co.uk/MDRSdtmM/CDISC/V3
    :label: Qualifier
    :extension_properties: []
  :sub_classification:
    :type: http://www.assero.co.uk/BusinessDomain#VariableClassification
    :id: M-CDISC_SDTMMODEL_SC_VARIABLEQUALIFIER
    :namespace: http://www.assero.co.uk/MDRSdtmM/CDISC/V3
    :label: Variable Qualifier
    :extension_properties: []
- :type: http://www.assero.co.uk/BusinessDomain#ModelVariable
  :id: M-CDISC_SDTMMODEL_xxTRANS
  :namespace: http://www.assero.co.uk/MDRSdtmM/CDISC/V3
  :label: Transition Rule
  :extension_properties: []
  :ordinal: 8
  :rule: ''
  :name: "--TRANS"
  :prefixed: true
  :description: If the trial design allows a subject to transition to an Element other
    than the next Element in sequence, then the conditions for transitioning to those
    other Elements, and the alternative Element sequences, are specified in this rule
    (e.g., Responders go to washout).
  :datatype:
    :type: http://www.assero.co.uk/BusinessDomain#VariableType
    :id: M-CDISC_SDTMMODEL_DT_CHAR
    :namespace: http://www.assero.co.uk/MDRSdtmM/CDISC/V3
    :label: Char
    :extension_properties: []
  :classification:
    :type: http://www.assero.co.uk/BusinessDomain#VariableClassification
    :id: M-CDISC_SDTMMODEL_C_RULE
    :namespace: http://www.assero.co.uk/MDRSdtmM/CDISC/V3
    :label: Rule
    :extension_properties: []
- :type: http://www.assero.co.uk/BusinessDomain#ModelVariable
  :id: M-CDISC_SDTMMODEL_SPECIES
  :namespace: http://www.assero.co.uk/MDRSdtmM/CDISC/V3
  :label: Species
  :extension_properties: []
  :ordinal: 19
  :rule: ''
  :name: SPECIES
  :prefixed: false
  :description: Used to identify the common species name of the subject (i.e., test
    system) under study (e.g., MOUSE, RAT, DOG, MONKEY).
  :datatype:
    :type: http://www.assero.co.uk/BusinessDomain#VariableType
    :id: M-CDISC_SDTMMODEL_DT_CHAR
    :namespace: http://www.assero.co.uk/MDRSdtmM/CDISC/V3
    :label: Char
    :extension_properties: []
  :classification:
    :type: http://www.assero.co.uk/BusinessDomain#VariableClassification
    :id: M-CDISC_SDTMMODEL_C_QUALIFIER
    :namespace: http://www.assero.co.uk/MDRSdtmM/CDISC/V3
    :label: Qualifier
    :extension_properties: []
  :sub_classification:
    :type: http://www.assero.co.uk/BusinessDomain#VariableClassification
    :id: M-CDISC_SDTMMODEL_SC_RECORDQUALIFIER
    :namespace: http://www.assero.co.uk/MDRSdtmM/CDISC/V3
    :label: Record Qualifier
    :extension_properties: []
- :type: http://www.assero.co.uk/BusinessDomain#ModelVariable
  :id: M-CDISC_SDTMMODEL_xxANTREG
  :namespace: http://www.assero.co.uk/MDRSdtmM/CDISC/V3
  :label: Anatomical Region
  :extension_properties: []
  :ordinal: 27
  :rule: ''
  :name: "--ANTREG"
  :prefixed: true
  :description: 'Defines the specific anatomical or biological region of a tissue,
    organ specimen or the region from which the specimen is obtained, as defined in
    the protocol, such as a section or part of what is described in the --SPEC variable.
    Examples: CORTEX, MEDULLA, MUCOSA'
  :datatype:
    :type: http://www.assero.co.uk/BusinessDomain#VariableType
    :id: M-CDISC_SDTMMODEL_DT_CHAR
    :namespace: http://www.assero.co.uk/MDRSdtmM/CDISC/V3
    :label: Char
    :extension_properties: []
  :classification:
    :type: http://www.assero.co.uk/BusinessDomain#VariableClassification
    :id: M-CDISC_SDTMMODEL_C_QUALIFIER
    :namespace: http://www.assero.co.uk/MDRSdtmM/CDISC/V3
    :label: Qualifier
    :extension_properties: []
  :sub_classification:
    :type: http://www.assero.co.uk/BusinessDomain#VariableClassification
    :id: M-CDISC_SDTMMODEL_SC_VARIABLEQUALIFIER
    :namespace: http://www.assero.co.uk/MDRSdtmM/CDISC/V3
    :label: Variable Qualifier
    :extension_properties: []
- :type: http://www.assero.co.uk/BusinessDomain#ModelVariable
  :id: M-CDISC_SDTMMODEL_xxPRTYID
  :namespace: http://www.assero.co.uk/MDRSdtmM/CDISC/V3
  :label: Identification of Accountable Party
  :extension_properties: []
  :ordinal: 26
  :rule: ''
  :name: "--PRTYID"
  :prefixed: true
  :description: Identification of the specific party accountable for the transferable
    object (e.g. device, specimen) after the action in --TERM is taken. Used in conjunction
    with --PARTY.
  :datatype:
    :type: http://www.assero.co.uk/BusinessDomain#VariableType
    :id: M-CDISC_SDTMMODEL_DT_CHAR
    :namespace: http://www.assero.co.uk/MDRSdtmM/CDISC/V3
    :label: Char
    :extension_properties: []
  :classification:
    :type: http://www.assero.co.uk/BusinessDomain#VariableClassification
    :id: M-CDISC_SDTMMODEL_C_QUALIFIER
    :namespace: http://www.assero.co.uk/MDRSdtmM/CDISC/V3
    :label: Qualifier
    :extension_properties: []
  :sub_classification:
    :type: http://www.assero.co.uk/BusinessDomain#VariableClassification
    :id: M-CDISC_SDTMMODEL_SC_RECORDQUALIFIER
    :namespace: http://www.assero.co.uk/MDRSdtmM/CDISC/V3
    :label: Record Qualifier
    :extension_properties: []
- :type: http://www.assero.co.uk/BusinessDomain#ModelVariable
  :id: M-CDISC_SDTMMODEL_xxPSTRGU
  :namespace: http://www.assero.co.uk/MDRSdtmM/CDISC/V3
  :label: Pharmaceutical Strength Units
  :extension_properties: []
  :ordinal: 29
  :rule: ''
  :name: "--PSTRGU"
  :prefixed: true
  :description: 'Unit for --PSTRG. Example: mg/TABLET, mg/mL'
  :datatype:
    :type: http://www.assero.co.uk/BusinessDomain#VariableType
    :id: M-CDISC_SDTMMODEL_DT_CHAR
    :namespace: http://www.assero.co.uk/MDRSdtmM/CDISC/V3
    :label: Char
    :extension_properties: []
  :classification:
    :type: http://www.assero.co.uk/BusinessDomain#VariableClassification
    :id: M-CDISC_SDTMMODEL_C_QUALIFIER
    :namespace: http://www.assero.co.uk/MDRSdtmM/CDISC/V3
    :label: Qualifier
    :extension_properties: []
  :sub_classification:
    :type: http://www.assero.co.uk/BusinessDomain#VariableClassification
    :id: M-CDISC_SDTMMODEL_SC_VARIABLEQUALIFIER
    :namespace: http://www.assero.co.uk/MDRSdtmM/CDISC/V3
    :label: Variable Qualifier
    :extension_properties: []
- :type: http://www.assero.co.uk/BusinessDomain#ModelVariable
  :id: M-CDISC_SDTMMODEL_xxNRIND
  :namespace: http://www.assero.co.uk/MDRSdtmM/CDISC/V3
  :label: Normal/Reference Range Indicator
  :extension_properties: []
  :ordinal: 19
  :rule: ''
  :name: "--NRIND"
  :prefixed: true
  :description: 'Used to indicate the value is outside the normal range or reference
    range. May be defined by --ORNRLO and --ORNRHI or other objective criteria. Examples:
    Y, N; HIGH, LOW; NORMAL; ABNORMAL.'
  :datatype:
    :type: http://www.assero.co.uk/BusinessDomain#VariableType
    :id: M-CDISC_SDTMMODEL_DT_CHAR
    :namespace: http://www.assero.co.uk/MDRSdtmM/CDISC/V3
    :label: Char
    :extension_properties: []
  :classification:
    :type: http://www.assero.co.uk/BusinessDomain#VariableClassification
    :id: M-CDISC_SDTMMODEL_C_QUALIFIER
    :namespace: http://www.assero.co.uk/MDRSdtmM/CDISC/V3
    :label: Qualifier
    :extension_properties: []
  :sub_classification:
    :type: http://www.assero.co.uk/BusinessDomain#VariableClassification
    :id: M-CDISC_SDTMMODEL_SC_VARIABLEQUALIFIER
    :namespace: http://www.assero.co.uk/MDRSdtmM/CDISC/V3
    :label: Variable Qualifier
    :extension_properties: []
- :type: http://www.assero.co.uk/BusinessDomain#ModelVariable
  :id: M-CDISC_SDTMMODEL_xxBDSYCD
  :namespace: http://www.assero.co.uk/MDRSdtmM/CDISC/V3
  :label: Body System or Organ Class Code
  :extension_properties: []
  :ordinal: 18
  :rule: ''
  :name: "--BDSYCD"
  :prefixed: true
  :description: MedDRA System Organ Class code corresponding to --BODSYS assigned
    for analysis.
  :datatype:
    :type: http://www.assero.co.uk/BusinessDomain#VariableType
    :id: M-CDISC_SDTMMODEL_DT_NUM
    :namespace: http://www.assero.co.uk/MDRSdtmM/CDISC/V3
    :label: Num
    :extension_properties: []
  :classification:
    :type: http://www.assero.co.uk/BusinessDomain#VariableClassification
    :id: M-CDISC_SDTMMODEL_C_QUALIFIER
    :namespace: http://www.assero.co.uk/MDRSdtmM/CDISC/V3
    :label: Qualifier
    :extension_properties: []
  :sub_classification:
    :type: http://www.assero.co.uk/BusinessDomain#VariableClassification
    :id: M-CDISC_SDTMMODEL_SC_VARIABLEQUALIFIER
    :namespace: http://www.assero.co.uk/MDRSdtmM/CDISC/V3
    :label: Variable Qualifier
    :extension_properties: []
- :type: http://www.assero.co.uk/BusinessDomain#ModelVariable
  :id: M-CDISC_SDTMMODEL_xxTEST
  :namespace: http://www.assero.co.uk/MDRSdtmM/CDISC/V3
  :label: Name of Measurement, Test or Examination
  :extension_properties: []
  :ordinal: 2
  :rule: ''
  :name: "--TEST"
  :prefixed: true
  :description: 'Long name For --TESTCD. Examples: Platelet, Systolic Blood Pressure,
    Summary (Min) RR Duration, Eye Examination.'
  :datatype:
    :type: http://www.assero.co.uk/BusinessDomain#VariableType
    :id: M-CDISC_SDTMMODEL_DT_CHAR
    :namespace: http://www.assero.co.uk/MDRSdtmM/CDISC/V3
    :label: Char
    :extension_properties: []
  :classification:
    :type: http://www.assero.co.uk/BusinessDomain#VariableClassification
    :id: M-CDISC_SDTMMODEL_C_QUALIFIER
    :namespace: http://www.assero.co.uk/MDRSdtmM/CDISC/V3
    :label: Qualifier
    :extension_properties: []
  :sub_classification:
    :type: http://www.assero.co.uk/BusinessDomain#VariableClassification
    :id: M-CDISC_SDTMMODEL_SC_SYNONYMQUALIFIER
    :namespace: http://www.assero.co.uk/MDRSdtmM/CDISC/V3
    :label: Synonym Qualifier
    :extension_properties: []
- :type: http://www.assero.co.uk/BusinessDomain#ModelVariable
  :id: M-CDISC_SDTMMODEL_xxDECOD
  :namespace: http://www.assero.co.uk/MDRSdtmM/CDISC/V3
  :label: Standardized Treatment Name
  :extension_properties: []
  :ordinal: 5
  :rule: ''
  :name: "--DECOD"
  :prefixed: true
  :description: Dictionary or sponsor-defined derived text description of the topic
    variable, --TERM, or the modified topic variable (--MODIFY), if applicable. Equivalent
    to the Preferred Term (PT in MedDRA).
  :datatype:
    :type: http://www.assero.co.uk/BusinessDomain#VariableType
    :id: M-CDISC_SDTMMODEL_DT_CHAR
    :namespace: http://www.assero.co.uk/MDRSdtmM/CDISC/V3
    :label: Char
    :extension_properties: []
  :classification:
    :type: http://www.assero.co.uk/BusinessDomain#VariableClassification
    :id: M-CDISC_SDTMMODEL_C_QUALIFIER
    :namespace: http://www.assero.co.uk/MDRSdtmM/CDISC/V3
    :label: Qualifier
    :extension_properties: []
  :sub_classification:
    :type: http://www.assero.co.uk/BusinessDomain#VariableClassification
    :id: M-CDISC_SDTMMODEL_SC_SYNONYMQUALIFIER
    :namespace: http://www.assero.co.uk/MDRSdtmM/CDISC/V3
    :label: Synonym Qualifier
    :extension_properties: []
- :type: http://www.assero.co.uk/BusinessDomain#ModelVariable
  :id: M-CDISC_SDTMMODEL_RFXENDTC
  :namespace: http://www.assero.co.uk/MDRSdtmM/CDISC/V3
  :label: Date/Time of Last Study Treatment
  :extension_properties: []
  :ordinal: 5
  :rule: ''
  :name: RFXENDTC
  :prefixed: false
  :description: Last date/time of exposure to any protocol-specified treatment or
    therapy for the subject in ISO 8601 character format.
  :datatype:
    :type: http://www.assero.co.uk/BusinessDomain#VariableType
    :id: M-CDISC_SDTMMODEL_DT_CHAR
    :namespace: http://www.assero.co.uk/MDRSdtmM/CDISC/V3
    :label: Char
    :extension_properties: []
  :classification:
    :type: http://www.assero.co.uk/BusinessDomain#VariableClassification
    :id: M-CDISC_SDTMMODEL_C_QUALIFIER
    :namespace: http://www.assero.co.uk/MDRSdtmM/CDISC/V3
    :label: Qualifier
    :extension_properties: []
  :sub_classification:
    :type: http://www.assero.co.uk/BusinessDomain#VariableClassification
    :id: M-CDISC_SDTMMODEL_SC_RECORDQUALIFIER
    :namespace: http://www.assero.co.uk/MDRSdtmM/CDISC/V3
    :label: Record Qualifier
    :extension_properties: []
- :type: http://www.assero.co.uk/BusinessDomain#ModelVariable
  :id: M-CDISC_SDTMMODEL_xxINDC
  :namespace: http://www.assero.co.uk/MDRSdtmM/CDISC/V3
  :label: Indication
  :extension_properties: []
  :ordinal: 11
  :rule: ''
  :name: "--INDC"
  :prefixed: true
  :description: Denotes the indication for the intervention (e.g., why the therapy
    was taken or administered).
  :datatype:
    :type: http://www.assero.co.uk/BusinessDomain#VariableType
    :id: M-CDISC_SDTMMODEL_DT_CHAR
    :namespace: http://www.assero.co.uk/MDRSdtmM/CDISC/V3
    :label: Char
    :extension_properties: []
  :classification:
    :type: http://www.assero.co.uk/BusinessDomain#VariableClassification
    :id: M-CDISC_SDTMMODEL_C_QUALIFIER
    :namespace: http://www.assero.co.uk/MDRSdtmM/CDISC/V3
    :label: Qualifier
    :extension_properties: []
  :sub_classification:
    :type: http://www.assero.co.uk/BusinessDomain#VariableClassification
    :id: M-CDISC_SDTMMODEL_SC_RECORDQUALIFIER
    :namespace: http://www.assero.co.uk/MDRSdtmM/CDISC/V3
    :label: Record Qualifier
    :extension_properties: []
- :type: http://www.assero.co.uk/BusinessDomain#ModelVariable
  :id: M-CDISC_SDTMMODEL_xxSTRESU
  :namespace: http://www.assero.co.uk/MDRSdtmM/CDISC/V3
  :label: Standard Units
  :extension_properties: []
  :ordinal: 15
  :rule: ''
  :name: "--STRESU"
  :prefixed: true
  :description: 'Standardized units used for --STRESC and --STRESN. Example: mol/L.'
  :datatype:
    :type: http://www.assero.co.uk/BusinessDomain#VariableType
    :id: M-CDISC_SDTMMODEL_DT_CHAR
    :namespace: http://www.assero.co.uk/MDRSdtmM/CDISC/V3
    :label: Char
    :extension_properties: []
  :classification:
    :type: http://www.assero.co.uk/BusinessDomain#VariableClassification
    :id: M-CDISC_SDTMMODEL_C_QUALIFIER
    :namespace: http://www.assero.co.uk/MDRSdtmM/CDISC/V3
    :label: Qualifier
    :extension_properties: []
  :sub_classification:
    :type: http://www.assero.co.uk/BusinessDomain#VariableClassification
    :id: M-CDISC_SDTMMODEL_SC_VARIABLEQUALIFIER
    :namespace: http://www.assero.co.uk/MDRSdtmM/CDISC/V3
    :label: Variable Qualifier
    :extension_properties: []
- :type: http://www.assero.co.uk/BusinessDomain#ModelVariable
  :id: M-CDISC_SDTMMODEL_QLABEL
  :namespace: http://www.assero.co.uk/MDRSdtmM/CDISC/V3
  :label: Qualifier Variable Label
  :extension_properties: []
  :ordinal: 9
  :rule: ''
  :name: QLABEL
  :prefixed: false
  :description: This is the long name or label associated with QNAM. The value in
    QLABEL cannot be longer than 40 characters. This will often be the column label
    in the sponsor’s original dataset.
  :datatype:
    :type: http://www.assero.co.uk/BusinessDomain#VariableType
    :id: M-CDISC_SDTMMODEL_DT_CHAR
    :namespace: http://www.assero.co.uk/MDRSdtmM/CDISC/V3
    :label: Char
    :extension_properties: []
  :classification:
    :type: http://www.assero.co.uk/BusinessDomain#VariableClassification
    :id: M-CDISC_SDTMMODEL_C_QUALIFIER
    :namespace: http://www.assero.co.uk/MDRSdtmM/CDISC/V3
    :label: Qualifier
    :extension_properties: []
  :sub_classification:
    :type: http://www.assero.co.uk/BusinessDomain#VariableClassification
    :id: M-CDISC_SDTMMODEL_SC_RECORDQUALIFIER
    :namespace: http://www.assero.co.uk/MDRSdtmM/CDISC/V3
    :label: Record Qualifier
    :extension_properties: []
- :type: http://www.assero.co.uk/BusinessDomain#ModelVariable
  :id: M-CDISC_SDTMMODEL_xxOUT
  :namespace: http://www.assero.co.uk/MDRSdtmM/CDISC/V3
  :label: Outcome of Event
  :extension_properties: []
  :ordinal: 35
  :rule: ''
  :name: "--OUT"
  :prefixed: true
  :description: 'Description of the outcome of an event. Examples: RECOVERED/RESOLVED,
    FATAL.'
  :datatype:
    :type: http://www.assero.co.uk/BusinessDomain#VariableType
    :id: M-CDISC_SDTMMODEL_DT_CHAR
    :namespace: http://www.assero.co.uk/MDRSdtmM/CDISC/V3
    :label: Char
    :extension_properties: []
  :classification:
    :type: http://www.assero.co.uk/BusinessDomain#VariableClassification
    :id: M-CDISC_SDTMMODEL_C_QUALIFIER
    :namespace: http://www.assero.co.uk/MDRSdtmM/CDISC/V3
    :label: Qualifier
    :extension_properties: []
  :sub_classification:
    :type: http://www.assero.co.uk/BusinessDomain#VariableClassification
    :id: M-CDISC_SDTMMODEL_SC_RECORDQUALIFIER
    :namespace: http://www.assero.co.uk/MDRSdtmM/CDISC/V3
    :label: Record Qualifier
    :extension_properties: []
- :type: http://www.assero.co.uk/BusinessDomain#ModelVariable
  :id: M-CDISC_SDTMMODEL_xxPTCD
  :namespace: http://www.assero.co.uk/MDRSdtmM/CDISC/V3
  :label: Preferred Term Code
  :extension_properties: []
  :ordinal: 6
  :rule: ''
  :name: "--PTCD"
  :prefixed: true
  :description: MedDRA Preferred Term code.
  :datatype:
    :type: http://www.assero.co.uk/BusinessDomain#VariableType
