<html><head></head><body><div style="vertical-align:middle; text-align:center"><img height="75" src="/Users/daveih/Documents/rails/Glandon/app/assets/images/acme.jpg"></div><h3 class="text-center col-md-12">ACME Test</h3><br><br><br><br><br><br><br><br><br><br><div class="text-center col-md-12"><h1>CDISC Submission Value Change Report<br></h1></div><br><br><br><br><br><br><br><br><br><br><br><br><br><br><br><br><br><br><br><br><br><br><br><br><br><div class="text-center col-md-7">&nbsp;</div><div class="text-center col-md-5"><table class="table table-striped"><tr><td>Run at:</td><td>2017-Jan-17, 21:14:09</td></tr><tr><td>Run by:</td><td>wicked@example.com</td></tr></table></div><div style='page-break-after:always;'></div><h3>Conventions</h3><p>In the following table each page contains two tables. The first table indicates when a change took <h3>Conventions</h3>place while the second table details the change. The changes are releated by the index thus [n].</p><h3>Changes</h3><table class="table table-striped table-bordered table-condensed"><thead><th>Code</th><th>Item</th><th>Label</th><th>Original Submission Value</th><th>2013-12-20</th><th>2014-03-28</th><th>2014-06-27</th></tr></thead><tbody><tr><td>C66737</td><td>C48660</td><td>Not Applicable</td><td>NA</td><td>&nbsp;</td><td>[1]</td><td>&nbsp;</td></tr><tr><td>C66728</td><td>C17998</td><td>Unknown</td><td>U</td><td>&nbsp;</td><td>[2]</td><td>&nbsp;</td></tr><tr><td>C112442</td><td>C112615</td><td>KFSS - Visual Function</td><td>KFSS1-Visual Function</td><td>&nbsp;</td><td>[3]</td><td>&nbsp;</td></tr><tr><td>C112442</td><td>C112612</td><td>KFSS - Brainstem Functions</td><td>KFSS1-Brainstem Functions</td><td>&nbsp;</td><td>[4]</td><td>&nbsp;</td></tr><tr><td>C66731</td><td>C45908</td><td>Intersex</td><td>UN</td><td>&nbsp;</td><td>[5]</td><td>&nbsp;</td></tr><tr><td>C85491</td><td>C86176</td><td>Bacteroides splanchnicus</td><td>BACTEROIDES SPLANCHNICUS</td><td>&nbsp;</td><td>[6]</td><td>&nbsp;</td></tr><tr><td>C112442</td><td>C112613</td><td>KFSS - Sensory Function</td><td>KFSS1-Sensory Function</td><td>&nbsp;</td><td>[7]</td><td>&nbsp;</td></tr><tr><td>C112442</td><td>C112614</td><td>KFSS - Bowel and Bladder Function</td><td>KFSS1-Bowel and Bladder Function</td><td>&nbsp;</td><td>[8]</td><td>&nbsp;</td></tr><tr><td>C66727</td><td>C48251</td><td>Protocol Violation</td><td>PROTOCOL VIOLATION</td><td>&nbsp;</td><td>[9]</td><td>&nbsp;</td></tr></tbody></table><br/><br/><table class="table table-striped table-bordered table-condensed"><thead><th>Index</th><th>From</th><th>To</th><tr></tr><tr><td>[1]</td><td>NA</td><td>NOT APPLICABLE</td></tr><tr></tr><tr></tr><tr><td>[2]</td><td>U</td><td>UNKNOWN</td></tr><tr></tr><tr></tr><tr><td>[3]</td><td>KFSS1-Visual Function</td><td>KFSS1-Visual or Optic Functions</td></tr><tr></tr><tr></tr><tr><td>[4]</td><td>KFSS1-Brainstem Functions</td><td>KFSS1-Brain Stem Functions</td></tr><tr></tr><tr></tr><tr><td>[5]</td><td>UN</td><td>UNDIFFERENTIATED</td></tr><tr></tr><tr></tr><tr><td>[6]</td><td>BACTEROIDES SPLANCHNICUS</td><td>ODORIBACTER SPLANCHNICUS</td></tr><tr></tr><tr></tr><tr><td>[7]</td><td>KFSS1-Sensory Function</td><td>KFSS1-Sensory Functions</td></tr><tr></tr><tr></tr><tr><td>[8]</td><td>KFSS1-Bowel and Bladder Function</td><td>KFSS1-Bowel and Bladder Functions</td></tr><tr></tr><tr></tr><tr><td>[9]</td><td>PROTOCOL VIOLATION</td><td>PROTOCOL DEVIATION</td></tr><tr></tr></tbody></table><div style='page-break-after:always;'></div><table class="table table-striped table-bordered table-condensed"><thead><th>Code</th><th>Item</th><th>Label</th><th>Original Submission Value</th><th>2013-12-20</th><th>2014-03-28</th><th>2014-06-27</th></tr></thead><tbody><tr><td>C71620</td><td>C102404</td><td>Application Dosing Unit</td><td>APPLICATION</td><td>&nbsp;</td><td>[1]</td><td>&nbsp;</td></tr><tr><td>C101857</td><td>C2271</td><td>Insulin</td><td>INSULIN</td><td>&nbsp;</td><td>[2]</td><td>&nbsp;</td></tr><tr><td>C71150</td><td>C111000</td><td>Supraventricular Tachycardia by ECG Finding</td><td>SUPRAVENTRICULAR TACHYCARDIA</td><td>&nbsp;</td><td>[3]</td><td>&nbsp;</td></tr><tr><td>C101859</td><td>C17998</td><td>Unknown</td><td>Unknown</td><td>&nbsp;</td><td>&nbsp;</td><td>[4]</td></tr><tr><td>C65047</td><td>C98869</td><td>Plasma Cell to Total Cell Ratio Measurement</td><td>PLSMCECE</td><td>&nbsp;</td><td>&nbsp;</td><td>[5]</td></tr><tr><td>C111109</td><td>C112361</td><td>Non-Study Device Issue</td><td>Non-Study Equipment Issue</td><td>&nbsp;</td><td>&nbsp;</td><td>[6]</td></tr><tr><td>C71152</td><td>C111238</td><td>Intraventricular and Intraatrial Conduction ECG Assessment</td><td>Intraventricular and Intraatrial Conduction</td><td>&nbsp;</td><td>&nbsp;</td><td>[7]</td></tr><tr><td>C101841</td><td>C100040</td><td>Thrombolysis in Myocardial Infarction Flow-0</td><td>TIMI-0</td><td>&nbsp;</td><td>&nbsp;</td><td>[8]</td></tr><tr><td>C101841</td><td>C100041</td><td>Thrombolysis in Myocardial Infarction Flow-1</td><td>TIMI-1</td><td>&nbsp;</td><td>&nbsp;</td><td>[9]</td></tr><tr><td>C101841</td><td>C100042</td><td>Thrombolysis in Myocardial Infarction Flow-2</td><td>TIMI-2</td><td>&nbsp;</td><td>&nbsp;</td><td>[10]</td></tr></tbody></table><br/><br/><table class="table table-striped table-bordered table-condensed"><thead><th>Index</th><th>From</th><th>To</th><tr></tr><tr><td>[1]</td><td>APPLICATION</td><td>[ *** Submission Value Deleted *** ]</td></tr><tr></tr><tr></tr><tr><td>[2]</td><td>INSULIN</td><td>[ *** Submission Value Deleted *** ]</td></tr><tr></tr><tr></tr><tr><td>[3]</td><td>SUPRAVENTRICULAR TACHYCARDIA</td><td>[ *** Submission Value Deleted *** ]</td></tr><tr></tr><tr></tr><tr></tr><tr><td>[4]</td><td>Unknown</td><td>UNKNOWN</td></tr><tr></tr><tr></tr><tr><td>[5]</td><td>PLSMCECE</td><td>PLSCECE</td></tr><tr></tr><tr></tr><tr><td>[6]</td><td>Non-Study Equipment Issue</td><td>NON-STUDY EQUIPMENT ISSUE</td></tr><tr></tr><tr></tr><tr><td>[7]</td><td>Intraventricular and Intraatrial Conduction</td><td>Intraventricular-Intraatrial Conduction</td></tr><tr></tr><tr></tr><tr><td>[8]</td><td>TIMI-0</td><td>GRADE 0</td></tr><tr></tr><tr></tr><tr><td>[9]</td><td>TIMI-1</td><td>GRADE 1</td></tr><tr></tr><tr></tr><tr><td>[10]</td><td>TIMI-2</td><td>GRADE 2</td></tr></tbody></table><div style='page-break-after:always;'></div><table class="table table-striped table-bordered table-condensed"><thead><th>Code</th><th>Item</th><th>Label</th><th>Original Submission Value</th><th>2013-12-20</th><th>2014-03-28</th><th>2014-06-27</th></tr></thead><tbody><tr><td>C111109</td><td>C62954</td><td>Medical Device Operational Issue</td><td>Device Operational Issue</td><td>&nbsp;</td><td>&nbsp;</td><td>[1]</td></tr><tr><td>C101841</td><td>C100043</td><td>Thrombolysis in Myocardial Infarction Flow-3</td><td>TIMI-3</td><td>&nbsp;</td><td>&nbsp;</td><td>[2]</td></tr><tr><td>C111114</td><td>C95942</td><td>Transposon</td><td>Transposon</td><td>&nbsp;</td><td>&nbsp;</td><td>[3]</td></tr><tr><td>C88025</td><td>C98800</td><td>Zymbal's Gland Adenoma</td><td>ADENOMA, ZYMBAL'S GLAND</td><td>&nbsp;</td><td>&nbsp;</td><td>[4]</td></tr><tr><td>C85494</td><td>C85710</td><td>Milligram per Liter per Milligram</td><td>mg/L/mg</td><td>&nbsp;</td><td>&nbsp;</td><td>[5]</td></tr><tr><td>C88025</td><td>C6878</td><td>Mixed Acinar-Neuroendocrine Carcinoma of the Pancreas</td><td>CARCINOMA, MIXED, ACINAR-ISLET CELL, MALIGNANT</td><td>&nbsp;</td><td>&nbsp;</td><td>[6]</td></tr><tr><td>C85492</td><td>C16805</td><td>Lymphangiogram</td><td>ANGIOGRAM</td><td>&nbsp;</td><td>&nbsp;</td><td>[7]</td></tr><tr><td>C74456</td><td>C91404</td><td>Proximal Muscle</td><td>MUSCLE, PROXIMAL</td><td>&nbsp;</td><td>&nbsp;</td><td>[8]</td></tr><tr><td>C74456</td><td>C91405</td><td>Distal Muscle</td><td>MUSCLE, DISTAL</td><td>&nbsp;</td><td>&nbsp;</td><td>[9]</td></tr><tr><td>C85491</td><td>C26431</td><td>Coronavirus</td><td>CORONAVIRUS</td><td>&nbsp;</td><td>&nbsp;</td><td>[10]</td></tr></tbody></table><br/><br/><table class="table table-striped table-bordered table-condensed"><thead><th>Index</th><th>From</th><th>To</th><tr></tr><tr></tr><tr><td>[1]</td><td>Device Operational Issue</td><td>DEVICE OPERATIONAL ISSUE</td></tr><tr></tr><tr></tr><tr><td>[2]</td><td>TIMI-3</td><td>GRADE 3</td></tr><tr></tr><tr></tr><tr><td>[3]</td><td>Transposon</td><td>TRANSPOSON</td></tr><tr></tr><tr></tr><tr><td>[4]</td><td>ADENOMA, ZYMBAL'S GLAND</td><td>ADENOMA, ZYMBAL'S GLAND, BENIGN</td></tr><tr></tr><tr></tr><tr><td>[5]</td><td>mg/L/mg</td><td>ug/mL/mg</td></tr><tr></tr><tr></tr><tr><td>[6]</td><td>CARCINOMA, MIXED, ACINAR-ISLET CELL, MALIGNANT</td><td>ACINAR-ISLET CELL TUMOR, MALIGNANT</td></tr><tr></tr><tr></tr><tr><td>[7]</td><td>ANGIOGRAM</td><td>[ *** Submission Value Deleted *** ]</td></tr><tr></tr><tr></tr><tr><td>[8]</td><td>MUSCLE, PROXIMAL</td><td>[ *** Submission Value Deleted *** ]</td></tr><tr></tr><tr></tr><tr><td>[9]</td><td>MUSCLE, DISTAL</td><td>[ *** Submission Value Deleted *** ]</td></tr><tr></tr><tr></tr><tr><td>[10]</td><td>CORONAVIRUS</td><td>[ *** Submission Value Deleted *** ]</td></tr></tbody></table><div style='page-break-after:always;'></div><table class="table table-striped table-bordered table-condensed"><thead><th>Code</th><th>Item</th><th>Label</th><th>Original Submission Value</th><th>2013-12-20</th><th>2014-03-28</th><th>2014-06-27</th></tr></thead><tbody><tr><td>C74456</td><td>C13307</td><td>Gastric</td><td>GASTRIC</td><td>&nbsp;</td><td>&nbsp;</td><td>[1]</td></tr><tr><td>C85494</td><td>C85620</td><td>Hour Times Milligram per Liter per Milligram</td><td>h*mg/L/mg</td><td>&nbsp;</td><td>&nbsp;</td><td>[2]</td></tr><tr><td>C85494</td><td>C85641</td><td>Hour Times Picomole per Milliliter per Milligram</td><td>h*nmol/L/g</td><td>&nbsp;</td><td>&nbsp;</td><td>[3]</td></tr><tr><td>C85494</td><td>C85634</td><td>Hour Times Nanomole per Milliliter per Milligram</td><td>h*umol/L/g</td><td>&nbsp;</td><td>&nbsp;</td><td>[4]</td></tr></tbody></table><table class="table table-striped table-bordered table-condensed"><thead><th>Index</th><th>From</th><th>To</th><tr></tr><tr></tr><tr><td>[1]</td><td>GASTRIC</td><td>[ *** Submission Value Deleted *** ]</td></tr><tr></tr><tr></tr><tr><td>[2]</td><td>h*mg/L/mg</td><td>[ *** Submission Value Deleted *** ]</td></tr><tr></tr><tr></tr><tr><td>[3]</td><td>h*nmol/L/g</td><td>[ *** Submission Value Deleted *** ]</td></tr><tr></tr><tr></tr><tr><td>[4]</td><td>h*umol/L/g</td><td>[ *** Submission Value Deleted *** ]</td></tr></tbody></table></body></html>