<?xml version="1.0" encoding="UTF-8"?>
<Model xmlns:sr="http://www.w3.org/2005/sparql-results#"
       xmlns="http://www.assero.co.uk/"
       Label="SDTM Model"
       Version="1"
       VersionLabel="1.2"
       Date="2008-11-12">
   <Class Name="http://rdf.cdisc.org/std/sdtm-1-2#EventVariables">
      <Variable Ordinal="17"
                Name="--RELNST"
                Label="Relationship to Non-Study Treatment"
                Type="http://rdf.cdisc.org/std/schema#Classifier.Character"
                Role="Record Qualifier"
                Description="An opinion as to whether the event may have been due to a treatment other than study drug. Example: &#34;MORE LIKELY RELATED TO ASPIRIN USE.&#34;"/>
      <Variable Ordinal="10"
                Name="--BODSYS"
                Label="Body System or Organ Class"
                Type="http://rdf.cdisc.org/std/schema#Classifier.Character"
                Role="Record Qualifier"
                Description="Body system or system organ class from a standard hierarchy (e.g. MedDRA) associated with an event. Example: GASTROINTESTINAL DISORDERS."/>
      <Variable Ordinal="11"
                Name="--LOC"
                Label="Location of Event"
                Type="http://rdf.cdisc.org/std/schema#Classifier.Character"
                Role="Record Qualifier"
                Description="Describes anatomical location relevant for the event. Example: LEFT ARM for skin rash."/>
      <Variable Ordinal="14"
                Name="--ACN"
                Label="Action Taken with Study Treatment"
                Type="http://rdf.cdisc.org/std/schema#Classifier.Character"
                Role="Record Qualifier"
                Description="Describes changes made to the study treatment as a result of the event. Examples: DOSE INCREASED, DOSE NOT CHANGED."/>
      <Variable Ordinal="15"
                Name="--ACNOTH"
                Label="Other Action Taken"
                Type="http://rdf.cdisc.org/std/schema#Classifier.Character"
                Role="Record Qualifier"
                Description="Describes other actions taken as a result of the event that are unrelated to dose adjustments of study treatment."/>
      <Variable Ordinal="19"
                Name="--OUT"
                Label="Outcome of Event"
                Type="http://rdf.cdisc.org/std/schema#Classifier.Character"
                Role="Record Qualifier"
                Description="Description of the outcome of an event. Examples: RECOVERED/RESOLVED, FATAL."/>
      <Variable Ordinal="29"
                Name="--TOX"
                Label="Toxicity"
                Type="http://rdf.cdisc.org/std/schema#Classifier.Character"
                Role="Variable Qualifier"
                Description="Description of toxicity quantified by --TOXGR such as NCI CTCAE Short Name. Examples: HYPERCALCEMIA, HYPOCALCEMIA. Sponsor should specify which scale and version is used in the Sponsor Comments column of the Define.xml document."/>
      <Variable Ordinal="3"
                Name="--DECOD"
                Label="Dictionary-Derived Term"
                Type="http://rdf.cdisc.org/std/schema#Classifier.Character"
                Role="Synonym Qualifier"
                Description="Dictionary or sponsor-defined derived text description of the topic variable, --TERM, or the modified topic variable (--MODIFY), if applicable. Equivalent to the Preferred Term (PT in MedDRA)."/>
      <Variable Ordinal="26"
                Name="--SOD"
                Label="Occurred with Overdose"
                Type="http://rdf.cdisc.org/std/schema#Classifier.Character"
                Role="Record Qualifier"
                Description="Did the event occur with an overdose? Valid values are &#34;Y&#34; and &#34;N&#34;."/>
      <Variable Ordinal="24"
                Name="--SHOSP"
                Label="Requires or Prolongs Hospitalization"
                Type="http://rdf.cdisc.org/std/schema#Classifier.Character"
                Role="Record Qualifier"
                Description="Did the event require or prolong hospitalization? Valid values are &#34;Y&#34; and &#34;N&#34;."/>
      <Variable Ordinal="23"
                Name="--SDTH"
                Label="Results in Death"
                Type="http://rdf.cdisc.org/std/schema#Classifier.Character"
                Role="Record Qualifier"
                Description="Did the event result in death? Valid values are &#34;Y&#34; and &#34;N&#34;."/>
      <Variable Ordinal="22"
                Name="--SDISAB"
                Label="Persist or Signif Disability/Incapacity"
                Type="http://rdf.cdisc.org/std/schema#Classifier.Character"
                Role="Record Qualifier"
                Description="Did the event result in persistent or significant disability/incapacity? Valid values are &#34;Y&#34; and &#34;N&#34;."/>
      <Variable Ordinal="27"
                Name="--SMIE"
                Label="Other Medically Important Serious Event"
                Type="http://rdf.cdisc.org/std/schema#Classifier.Character"
                Role="Record Qualifier"
                Description="Do additional categories for seriousness apply? Valid values are &#34;Y&#34; and &#34;N&#34;."/>
      <Variable Ordinal="2"
                Name="--MODIFY"
                Label="Modified Reported Term"
                Type="http://rdf.cdisc.org/std/schema#Classifier.Character"
                Role="Synonym Qualifier"
                Description="If the value for --TERM is modified for coding purposes, then the modified text is placed here."/>
      <Variable Ordinal="13"
                Name="--SER"
                Label="Serious Event"
                Type="http://rdf.cdisc.org/std/schema#Classifier.Character"
                Role="Record Qualifier"
                Description="Is this is a serious event? Valid values are &#34;Y&#34; and &#34;N&#34;."/>
      <Variable Ordinal="9"
                Name="--REASND"
                Label="Reason Not Done"
                Type="http://rdf.cdisc.org/std/schema#Classifier.Character"
                Role="Record Qualifier"
                Description="Reason not done. Used in conjunction with --STAT when its value is NOT DONE."/>
      <Variable Ordinal="16"
                Name="--REL"
                Label="Causality"
                Type="http://rdf.cdisc.org/std/schema#Classifier.Character"
                Role="Record Qualifier"
                Description="Records the investigator's opinion as to the causality of the event to the treatment. ICH E2A and E2B examples include NOT RELATED, UNLIKELY RELATED, POSSIBLY RELATED, RELATED."/>
      <Variable Ordinal="30"
                Name="--TOXGR"
                Label="Toxicity Grade"
                Type="http://rdf.cdisc.org/std/schema#Classifier.Character"
                Role="Record Qualifier"
                Description="Records toxicity grade using a standard toxicity scale (such as the NCI CTCAE). Sponsor should specify which scale and version is used in the Sponsor Comments column of the Define.xml document."/>
      <Variable Ordinal="12"
                Name="--SEV"
                Label="Severity/Intensity"
                Type="http://rdf.cdisc.org/std/schema#Classifier.Character"
                Role="Record Qualifier"
                Description="The severity or intensity of the event. Examples: MILD, MODERATE, SEVERE."/>
      <Variable Ordinal="1"
                Name="--TERM"
                Label="Reported Term"
                Type="http://rdf.cdisc.org/std/schema#Classifier.Character"
                Role="Topic Variable"
                Description="Topic variable for an event observation, which is the verbatim or pre-specified name of the event."/>
      <Variable Ordinal="4"
                Name="--CAT"
                Label="Category"
                Type="http://rdf.cdisc.org/std/schema#Classifier.Character"
                Role="Grouping Qualifier"
                Description="Used to define a category of topic-variable values."/>
      <Variable Ordinal="5"
                Name="--SCAT"
                Label="Subcategory"
                Type="http://rdf.cdisc.org/std/schema#Classifier.Character"
                Role="Grouping Qualifier"
                Description="Used to define a further categorization of --CAT values."/>
      <Variable Ordinal="18"
                Name="--PATT"
                Label="Pattern of Event"
                Type="http://rdf.cdisc.org/std/schema#Classifier.Character"
                Role="Record Qualifier"
                Description="Used to indicate the pattern of the event over time. Examples: INTERMITTENT, CONTINUOUS, SINGLE EVENT."/>
      <Variable Ordinal="8"
                Name="--STAT"
                Label="Completion Status"
                Type="http://rdf.cdisc.org/std/schema#Classifier.Character"
                Role="Record Qualifier"
                Description="Used to indicate when a question about the occurrence of a pre-specified event was not answered. Should be null or have a value of NOT DONE."/>
      <Variable Ordinal="6"
                Name="--PRESP"
                Label="Pre-specified"
                Type="http://rdf.cdisc.org/std/schema#Classifier.Character"
                Role="Record Qualifier"
                Description="Used to indicate whether the event described by --TERM was pre-specified on a CRF. Value is Y for pre-specified events, null for spontaneously reported events."/>
      <Variable Ordinal="7"
                Name="--OCCUR"
                Label="Occurrence"
                Type="http://rdf.cdisc.org/std/schema#Classifier.Character"
                Role="Record Qualifier"
                Description="Used to record whether a pre-specified event occurred when information about the occurrence of a specific event is solicited."/>
      <Variable Ordinal="28"
                Name="--CONTRT"
                Label="Concomitant or Additional Trtmnt Given"
                Type="http://rdf.cdisc.org/std/schema#Classifier.Character"
                Role="Record Qualifier"
                Description="Was another treatment given because of the occurrence of the event? Valid values are &#34;Y&#34; and &#34;N&#34;."/>
      <Variable Ordinal="21"
                Name="--SCONG"
                Label="Congenital Anomaly or Birth Defect"
                Type="http://rdf.cdisc.org/std/schema#Classifier.Character"
                Role="Record Qualifier"
                Description="Was the event associated with congenital anomaly or birth defect? Valid values are &#34;Y&#34; and &#34;N&#34;."/>
      <Variable Ordinal="20"
                Name="--SCAN"
                Label="Involves Cancer"
                Type="http://rdf.cdisc.org/std/schema#Classifier.Character"
                Role="Record Qualifier"
                Description="Was the event associated with the development of cancer? Valid values are &#34;Y&#34; and &#34;N&#34;."/>
      <Variable Ordinal="25"
                Name="--SLIFE"
                Label="Is Life Threatening"
                Type="http://rdf.cdisc.org/std/schema#Classifier.Character"
                Role="Record Qualifier"
                Description="Was the event life threatening? Valid values are &#34;Y&#34; and &#34;N&#34;."/>
   </Class>
   <Class Name="http://rdf.cdisc.org/std/sdtm-1-2#FindingVariables">
      <Variable Ordinal="7"
                Name="--BODSYS"
                Label="Body System or Organ Class"
                Type="http://rdf.cdisc.org/std/schema#Classifier.Character"
                Role="Record Qualifier"
                Description="Body System or Organ Class that is involved for a finding from the standard hierarchy for dictionary-coded results. Example: MedDRA SOC."/>
      <Variable Ordinal="12"
                Name="--STRESC"
                Label="Result or Finding in Standard Format"
                Type="http://rdf.cdisc.org/std/schema#Classifier.Character"
                Role="Result Qualifier"
                Description="Contains the result value for all findings, copied or derived from --ORRES in a standard format or in standard units. --STRESC should store all results or findings in character format; if results are numeric, they should also be stored in numeric format in --STRESN. For example, if various tests have results &#34;NONE&#34;, &#34;NEG&#34;, and &#34;NEGATIVE&#34; in --ORRES and these results effectively have the same meaning, they could be represented in standard format in --STRESC as &#34;NEGATIVE&#34;."/>
      <Variable Ordinal="26"
                Name="--SPCCND"
                Label="Specimen Condition"
                Type="http://rdf.cdisc.org/std/schema#Classifier.Character"
                Role="Record Qualifier"
                Description="Defines the condition of the specimen. Example: CLOUDY."/>
      <Variable Ordinal="25"
                Name="--SPEC"
                Label="Specimen Material Type"
                Type="http://rdf.cdisc.org/std/schema#Classifier.Character"
                Role="Record Qualifier"
                Description="Defines the type of specimen used for a measurement. Examples: SERUM, PLASMA, URINE."/>
      <Variable Ordinal="36"
                Name="--DTHREL"
                Label="Relationship to Death"
                Type="http://rdf.cdisc.org/std/schema#Classifier.Character"
                Role="Record Qualifier"
                Description="Describes the relationship of a particular finding to the death of a subject."/>
      <Variable Ordinal="35"
                Name="--SEV"
                Label="Severity"
                Type="http://rdf.cdisc.org/std/schema#Classifier.Character"
                Role="Record Qualifier"
                Description="Describes the severity or intensity of a particular finding. Examples: MILD, MODERATE, SEVERE."/>
      <Variable Ordinal="33"
                Name="--TOX"
                Label="Toxicity"
                Type="http://rdf.cdisc.org/std/schema#Classifier.Character"
                Role="Variable Qualifier"
                Description="Description of toxicity quantified by --TOXGR such as NCI CTCAE Short Name. Examples: HYPERCALCEMIA, HYPOCALCEMIA. Sponsor should specify which scale and version is used in the Sponsor Comments column of the Define.xml document."/>
      <Variable Ordinal="22"
                Name="--XFN"
                Label="External Filename"
                Type="http://rdf.cdisc.org/std/schema#Classifier.Character"
                Role="Record Qualifier"
                Description="Filename for an external file, such as one for an ECG waveform or a medical image."/>
      <Variable Ordinal="3"
                Name="--MODIFY"
                Label="Modified Term"
                Type="http://rdf.cdisc.org/std/schema#Classifier.Character"
                Role="Synonym Qualifier"
                Description="If the value of --ORRES is modified for coding purposes, then the modified text is placed here."/>
      <Variable Ordinal="37"
                Name="--LLOQ"
                Label="Lower Limit of Quantitation"
                Type="http://rdf.cdisc.org/std/schema#Classifier.Numeric"
                Role="Variable Qualifier"
                Description="Indicates the lower limit of quantitation for an assay. Units will be those used for --STRESU."/>
      <Variable Ordinal="29"
                Name="--BLFL"
                Label="Baseline Flag"
                Type="http://rdf.cdisc.org/std/schema#Classifier.Character"
                Role="Record Qualifier"
                Description="Indicator used to identify a baseline value. Should be Y or null."/>
      <Variable Ordinal="30"
                Name="--FAST"
                Label="Fasting Status"
                Type="http://rdf.cdisc.org/std/schema#Classifier.Character"
                Role="Record Qualifier"
                Description="Indicator used to identify fasting status. Valid values include Y, N, U or null if not relevant."/>
      <Variable Ordinal="27"
                Name="--LOC"
                Label="Location Used for the Measurement"
                Type="http://rdf.cdisc.org/std/schema#Classifier.Character"
                Role="Record Qualifier"
                Description="Location relevant to the collection of the measurement. Example: RECTAL for temperature, LEFT ARM for blood pressure or V1 for an ECG lead."/>
      <Variable Ordinal="24"
                Name="--LOINC"
                Label="LOINC Code"
                Type="http://rdf.cdisc.org/std/schema#Classifier.Character"
                Role="Synonym Qualifier"
                Description="Logical Observation Identifiers Names and Codes (LOINC) code for the topic variable such as a lab test."/>
      <Variable Ordinal="2"
                Name="--TEST"
                Label="Name of Measurement, Test or Examination"
                Type="http://rdf.cdisc.org/std/schema#Classifier.Character"
                Role="Synonym Qualifier"
                Description="Long name For --TESTCD. Examples: Platelet, Systolic Blood Pressure, Summary (Min) RR Duration, Eye Examination."/>
      <Variable Ordinal="10"
                Name="--ORNRLO"
                Label="Normal Range Lower Limit-Original Units"
                Type="http://rdf.cdisc.org/std/schema#Classifier.Character"
                Role="Variable Qualifier"
                Description="Lower end of normal range or reference range for results stored in --ORRES."/>
      <Variable Ordinal="15"
                Name="--STNRLO"
                Label="Normal Range Lower Limit-Standard Units"
                Type="http://rdf.cdisc.org/std/schema#Classifier.Numeric"
                Role="Variable Qualifier"
                Description="Lower end of normal range or reference range for standardized results (e.g., --STRESC, --STRESN) represented in standardized units (--STRESU)."/>
      <Variable Ordinal="28"
                Name="--METHOD"
                Label="Method of Test or Examination"
                Type="http://rdf.cdisc.org/std/schema#Classifier.Character"
                Role="Record Qualifier"
                Description="Method of the test or examination. Examples: EIA (Enzyme Immunoassay), ELECTROPHORESIS, DIPSTICK."/>
      <Variable Ordinal="23"
                Name="--NAM"
                Label="Laboratory/Vendor Name"
                Type="http://rdf.cdisc.org/std/schema#Classifier.Character"
                Role="Record Qualifier"
                Description="Name or identifier of the vendor (e.g., laboratory) that provided the test results."/>
      <Variable Ordinal="17"
                Name="--STNRC"
                Label="Normal Range for Character Results"
                Type="http://rdf.cdisc.org/std/schema#Classifier.Character"
                Role="Variable Qualifier"
                Description="Normal range or reference range for results stored in --STRESC that are character in ordinal or categorical scale. Example: Negative to Trace."/>
      <Variable Ordinal="6"
                Name="--POS"
                Label="Position of Subject During Observation"
                Type="http://rdf.cdisc.org/std/schema#Classifier.Character"
                Role="Record Qualifier"
                Description="Position of the subject during a measurement or examination. Examples: SUPINE, STANDING, SITTING."/>
      <Variable Ordinal="21"
                Name="--REASND"
                Label="Reason Not Done"
                Type="http://rdf.cdisc.org/std/schema#Classifier.Character"
                Role="Record Qualifier"
                Description="Reason not done. Used in conjunction with --STAT when value is NOT DONE."/>
      <Variable Ordinal="34"
                Name="--TOXGR"
                Label="Toxicity Grade"
                Type="http://rdf.cdisc.org/std/schema#Classifier.Character"
                Role="Variable Qualifier"
                Description="Records toxicity grade using a standard toxicity scale (such as the NCI CTCAE). Sponsor should specify which scale and version is used in the Sponsor Comments column of the Define data definition document. Example: 2."/>
      <Variable Ordinal="8"
                Name="--ORRES"
                Label="Result or Finding in Original Units"
                Type="http://rdf.cdisc.org/std/schema#Classifier.Character"
                Role="Result Qualifier"
                Description="Result of the measurement or finding as originally received or collected. Examples: 120, &lt;1, POS."/>
      <Variable Ordinal="32"
                Name="--EVAL"
                Label="Evaluator"
                Type="http://rdf.cdisc.org/std/schema#Classifier.Character"
                Role="Record Qualifier"
                Description="Role of the person who provided the evaluation. Used only for results that are subjective (e.g., assigned by a person or a group). Examples: ADJUDICATION COMMITTEE, VENDOR."/>
      <Variable Ordinal="1"
                Name="--TESTCD"
                Label="Short Name of Measurement, Test or Examination"
                Type="http://rdf.cdisc.org/std/schema#Classifier.Character"
                Role="Topic Variable"
                Description="Short character value for --TEST used as a column name when converting a dataset from a vertical format to a horizontal format. The short value can be up to 8 characters. Examples: PLAT, SYSBP, RRMIN, EYEEXAM."/>
      <Variable Ordinal="14"
                Name="--STRESU"
                Label="Standard Units"
                Type="http://rdf.cdisc.org/std/schema#Classifier.Character"
                Role="Variable Qualifier"
                Description="Standardized units used for --STRESC and --STRESN. Example: mol/L."/>
      <Variable Ordinal="9"
                Name="--ORRESU"
                Label="Original Units"
                Type="http://rdf.cdisc.org/std/schema#Classifier.Character"
                Role="Variable Qualifier"
                Description="Unit for --ORRES. Examples: IN, LB, kg/L."/>
      <Variable Ordinal="11"
                Name="--ORNRHI"
                Label="Normal Range Upper Limit-Original Units"
                Type="http://rdf.cdisc.org/std/schema#Classifier.Character"
                Role="Variable Qualifier"
                Description="Upper end of normal range or reference range for results stored in --ORRES."/>
      <Variable Ordinal="16"
                Name="--STNRHI"
                Label="Normal Range Upper Limit-Standard Units"
                Type="http://rdf.cdisc.org/std/schema#Classifier.Numeric"
                Role="Variable Qualifier"
                Description="Upper end of normal range or reference range for standardized results (e.g., --STRESC, --STRESN) represented in standardized units (--STRESU)."/>
      <Variable Ordinal="13"
                Name="--STRESN"
                Label="Numeric Result/Finding in Standard Units"
                Type="http://rdf.cdisc.org/std/schema#Classifier.Numeric"
                Role="Result Qualifier"
                Description="Used for continuous or numeric results or findings in standard format; copied in numeric format from --STRESC. --STRESN should store all numeric test results or findings."/>
      <Variable Ordinal="19"
                Name="--RESCAT"
                Label="Result Category"
                Type="http://rdf.cdisc.org/std/schema#Classifier.Character"
                Role="Variable Qualifier"
                Description="Used to categorize the result of a finding. Example: MALIGNANT or BENIGN for tumor findings."/>
      <Variable Ordinal="4"
                Name="--CAT"
                Label="Category"
                Type="http://rdf.cdisc.org/std/schema#Classifier.Character"
                Role="Grouping Qualifier"
                Description="Used to define a category of topic-variable values. Examples: HEMATOLOGY, URINALYSIS, CHEMISTRY, HAMILTON DEPRESSION SCALE, SF36."/>
      <Variable Ordinal="5"
                Name="--SCAT"
                Label="Subcategory"
                Type="http://rdf.cdisc.org/std/schema#Classifier.Character"
                Role="Grouping Qualifier"
                Description="Used to define a further categorization of --CAT values. Example: DIFFERENTIAL."/>
      <Variable Ordinal="31"
                Name="--DRVFL"
                Label="Derived Flag"
                Type="http://rdf.cdisc.org/std/schema#Classifier.Character"
                Role="Record Qualifier"
                Description="Used to indicate a derived record (e.g., a record that represents the average of other records such as a computed baseline). Should be Y or null."/>
      <Variable Ordinal="20"
                Name="--STAT"
                Label="Completion Status"
                Type="http://rdf.cdisc.org/std/schema#Classifier.Character"
                Role="Record Qualifier"
                Description="Used to indicate that a question was not asked or a test was not done, or a test was attempted but did not generate a result. Should be null or have a value of NOT DONE."/>
      <Variable Ordinal="18"
                Name="--NRIND"
                Label="Normal/Reference Range Indicator"
                Type="http://rdf.cdisc.org/std/schema#Classifier.Character"
                Role="Variable Qualifier"
                Description="Used to indicate the value is outside the normal range or reference range. May be defined by --ORNRLO and --ORNRHI or other objective criteria. Examples: Y, N; HIGH, LOW; NORMAL; ABNORMAL."/>
   </Class>
   <Class Name="http://rdf.cdisc.org/std/sdtm-1-2#FindingsAboutVariables">
      <Variable Ordinal="1"
                Name="--OBJ"
                Label="Object of the Observation"
                Type="http://rdf.cdisc.org/std/schema#Classifier.Character"
                Role="Record Qualifier"
                Description="Used in domains modeled as Findings About Events or Findings About Interventions. Describes the event or intervention whose property is being measured in --TESTCD/--TEST. Example: an event of vomiting which has findings, where --OBJ = &#34;VOMIT&#34; and the volume of VOMIT is being measured where --TESTCD = &#34;VOLUME&#34;."/>
   </Class>
   <Class Name="http://rdf.cdisc.org/std/sdtm-1-2#IdentifierVariables">
      <Variable Ordinal="3"
                Name="USUBJID"
                Label="Unique Subject Identifier"
                Type="http://rdf.cdisc.org/std/schema#Classifier.Character"
                Role="Identifier Variable"
                Description="Identifier used to uniquely identify a subject across all studies for all applications or submissions involving the product."/>
      <Variable Ordinal="5"
                Name="--GRPID"
                Label="Group ID"
                Type="http://rdf.cdisc.org/std/schema#Classifier.Character"
                Role="Identifier Variable"
                Description="Optional group identifier, used to link together a block of related records within a subject in a domain. Also used to link together a block of related records in the Trial Summary dataset."/>
      <Variable Ordinal="6"
                Name="--REFID"
                Label="Reference ID"
                Type="http://rdf.cdisc.org/std/schema#Classifier.Character"
                Role="Identifier Variable"
                Description="Optional internal or external identifier such as lab specimen ID, or UUID for an ECG waveform or a medical image."/>
      <Variable Ordinal="4"
                Name="--SEQ"
                Label="Sequence Number"
                Type="http://rdf.cdisc.org/std/schema#Classifier.Numeric"
                Role="Identifier Variable"
                Description="Sequence number to ensure uniqueness of records within a dataset for a subject (or within a parameter, in the case of the Trial Summary domain). May be any valid number (including decimals) and does not have to start at 1. Should be assigned to be in a consistent chronological order."/>
      <Variable Ordinal="7"
                Name="--SPID"
                Label="Sponsor ID"
                Type="http://rdf.cdisc.org/std/schema#Classifier.Character"
                Role="Identifier Variable"
                Description="Sponsor-defined identifier. Example: pre-printed line identifier on a Concomitant Medications page."/>
      <Variable Ordinal="2"
                Name="DOMAIN"
                Label="Domain Abbreviation"
                Type="http://rdf.cdisc.org/std/schema#Classifier.Character"
                Role="Identifier Variable"
                Description="Two-character abbreviation for the domain most relevant to the observation. The Domain abbreviation is also used as a prefix for variables to ensure uniqueness when datasets are merged."/>
      <Variable Ordinal="1"
                Name="STUDYID"
                Label="Study Identifier"
                Type="http://rdf.cdisc.org/std/schema#Classifier.Character"
                Role="Identifier Variable"
                Description="Unique identifier for a study."/>
   </Class>
   <Class Name="http://rdf.cdisc.org/std/sdtm-1-2#InterventionVariables">
      <Variable Ordinal="13"
                Name="--DOSE"
                Label="Dose"
                Type="http://rdf.cdisc.org/std/schema#Classifier.Numeric"
                Role="Record Qualifier"
                Description="Amount of --TRT given. Not populated when --DOSTXT is populated."/>
      <Variable Ordinal="24"
                Name="--VAMT"
                Label="Treatment Vehicle Amount"
                Type="http://rdf.cdisc.org/std/schema#Classifier.Numeric"
                Role="Record Qualifier"
                Description="Amount of the treatment vehicle administered or given."/>
      <Variable Ordinal="22"
                Name="--LOC"
                Label="Location of Dose Administration"
                Type="http://rdf.cdisc.org/std/schema#Classifier.Character"
                Role="Record Qualifier"
                Description="Anatomical location of an intervention, such as an injection site. Example: RIGHT ARM for an injection."/>
      <Variable Ordinal="11"
                Name="--CLAS"
                Label="Class"
                Type="http://rdf.cdisc.org/std/schema#Classifier.Character"
                Role="Variable Qualifier"
                Description="Class for a medication or treatment, often obtained from a coding dictionary."/>
      <Variable Ordinal="10"
                Name="--INDC"
                Label="Indication"
                Type="http://rdf.cdisc.org/std/schema#Classifier.Character"
                Role="Record Qualifier"
                Description="Denotes the indication for the intervention (e.g., why the therapy was taken or administered)."/>
      <Variable Ordinal="26"
                Name="--ADJ"
                Label="Reason for Dose Adjustment"
                Type="http://rdf.cdisc.org/std/schema#Classifier.Character"
                Role="Record Qualifier"
                Description="Describes reason or explanation of why a dose is adjusted. Examples ADVERSE EVENT, INSUFFICIENT RESPONSE, NON-MEDICAL REASON."/>
      <Variable Ordinal="16"
                Name="--DOSFRM"
                Label="Dose Form"
                Type="http://rdf.cdisc.org/std/schema#Classifier.Character"
                Role="Variable Qualifier"
                Description="Dose form for the treatment. Examples: TABLET, CAPSULE."/>
      <Variable Ordinal="14"
                Name="--DOSTXT"
                Label="Dose Description"
                Type="http://rdf.cdisc.org/std/schema#Classifier.Character"
                Role="Record Qualifier"
                Description="Dosing information collected in text form. Examples: &lt;1 per day, 200-400. Not populated when --DOSE is populated."/>
      <Variable Ordinal="2"
                Name="--MODIFY"
                Label="Modified Treatment Name"
                Type="http://rdf.cdisc.org/std/schema#Classifier.Character"
                Role="Synonym Qualifier"
                Description="If the value for --TRT is modified for coding purposes, then the modified text is placed here."/>
      <Variable Ordinal="21"
                Name="--LOT"
                Label="Lot Number"
                Type="http://rdf.cdisc.org/std/schema#Classifier.Character"
                Role="Record Qualifier"
                Description="Lot number for the intervention described in --TRT."/>
      <Variable Ordinal="9"
                Name="--REASND"
                Label="Reason Not Done"
                Type="http://rdf.cdisc.org/std/schema#Classifier.Character"
                Role="Record Qualifier"
                Description="Reason not done. Used in conjunction with --STAT when value is NOT DONE."/>
      <Variable Ordinal="20"
                Name="--ROUTE"
                Label="Route of Administration"
                Type="http://rdf.cdisc.org/std/schema#Classifier.Character"
                Role="Variable Qualifier"
                Description="Route of administration for the intervention. Examples: ORAL, INTRAVENOUS."/>
      <Variable Ordinal="3"
                Name="--DECOD"
                Label="Standardized Treatment Name"
                Type="http://rdf.cdisc.org/std/schema#Classifier.Character"
                Role="Synonym Qualifier"
                Description="Standardized or dictionary-derived name of the topic variable, --TRT, or the modified topic variable (--MODIFY), if applicable. Equivalent to the generic drug name in WHO Drug, or a term in SNOMED, ICD9, or other published or sponsor-defined dictionaries."/>
      <Variable Ordinal="19"
                Name="--DOSRGM"
                Label="Intended Dose Regimen"
                Type="http://rdf.cdisc.org/std/schema#Classifier.Character"
                Role="Variable Qualifier"
                Description="Text description of the (intended) schedule or regimen for the Intervention. Examples: TWO WEEKS ON, TWO WEEKS OFF."/>
      <Variable Ordinal="1"
                Name="--TRT"
                Label="Name of Treatment"
                Type="http://rdf.cdisc.org/std/schema#Classifier.Character"
                Role="Topic Variable"
                Description="The topic for the intervention observation, usually the verbatim name of the treatment, drug, medicine, or therapy given during the dosing interval for the observation."/>
      <Variable Ordinal="18"
                Name="--DOSTOT"
                Label="Total Daily Dose"
                Type="http://rdf.cdisc.org/std/schema#Classifier.Numeric"
                Role="Record Qualifier"
                Description="Total daily dose of --TRT using the units in --DOSU. Used when dosing is collected as Total Daily Dose."/>
      <Variable Ordinal="15"
                Name="--DOSU"
                Label="Dose Units"
                Type="http://rdf.cdisc.org/std/schema#Classifier.Character"
                Role="Variable Qualifier"
                Description="Units for --DOSE, --DOSTOT, or --DOSTXT (Examples: ng, mg, mg/kg)."/>
      <Variable Ordinal="25"
                Name="--VAMTU"
                Label="Treatment Vehicle Amount Units"
                Type="http://rdf.cdisc.org/std/schema#Classifier.Character"
                Role="Variable Qualifier"
                Description="Units for the treatment vehicle. Examples: mL, mg."/>
      <Variable Ordinal="4"
                Name="--CAT"
                Label="Category"
                Type="http://rdf.cdisc.org/std/schema#Classifier.Character"
                Role="Grouping Qualifier"
                Description="Used to define a category of topic-variable values."/>
      <Variable Ordinal="5"
                Name="--SCAT"
                Label="Subcategory"
                Type="http://rdf.cdisc.org/std/schema#Classifier.Character"
                Role="Grouping Qualifier"
                Description="Used to define a further categorization of --CAT values."/>
      <Variable Ordinal="8"
                Name="--STAT"
                Label="Completion Status"
                Type="http://rdf.cdisc.org/std/schema#Classifier.Character"
                Role="Record Qualifier"
                Description="Used to indicate when a question about the occurrence of a pre-specified intervention was not answered. Should be null or have a value of NOT DONE."/>
      <Variable Ordinal="7"
                Name="--OCCUR"
                Label="Occurrence"
                Type="http://rdf.cdisc.org/std/schema#Classifier.Character"
                Role="Record Qualifier"
                Description="Used to record whether a pre-specified intervention occurred when information about the occurrence of a specific intervention is solicited."/>
      <Variable Ordinal="12"
                Name="--CLASCD"
                Label="Class Code"
                Type="http://rdf.cdisc.org/std/schema#Classifier.Character"
                Role="Variable Qualifier"
                Description="Used to represent code for --CLAS."/>
      <Variable Ordinal="6"
                Name="--PRESP"
                Label="Pre-specified"
                Type="http://rdf.cdisc.org/std/schema#Classifier.Character"
                Role="Record Qualifier"
                Description="Used when a specific intervention is pre-specified on a CRF. Values should be &#34;Y&#34; or null."/>
      <Variable Ordinal="17"
                Name="--DOSFRQ"
                Label="Dosing Frequency per Interval"
                Type="http://rdf.cdisc.org/std/schema#Classifier.Character"
                Role="Variable Qualifier"
                Description="Usually expressed as the number of doses given per a specific interval. Examples: QD, BID, TID, QID."/>
      <Variable Ordinal="23"
                Name="--TRTV"
                Label="Treatment Vehicle"
                Type="http://rdf.cdisc.org/std/schema#Classifier.Character"
                Role="Record Qualifier"
                Description="Vehicle for administration of treatment, such as a liquid in which the treatment drug is dissolved. Example: SALINE."/>
   </Class>
   <Class Name="http://rdf.cdisc.org/std/sdtm-1-2#TimingVariables">
      <Variable Ordinal="11"
                Name="--ENDY"
                Label="Study Day of End of Observation"
                Type="http://rdf.cdisc.org/std/schema#Classifier.Numeric"
                Role="Timing Variable"
                Description="Actual study day of end of observation expressed in integer days relative to the sponsor-defined RFSTDTC in Demographics."/>
      <Variable Ordinal="10"
                Name="--STDY"
                Label="Study Day of Start of Observation"
                Type="http://rdf.cdisc.org/std/schema#Classifier.Numeric"
                Role="Timing Variable"
                Description="Actual study day of start of observation expressed in integer days relative to the sponsor-defined RFSTDTC in Demographics."/>
      <Variable Ordinal="9"
                Name="--DY"
                Label="Study Day of Visit/Collection/Exam"
                Type="http://rdf.cdisc.org/std/schema#Classifier.Numeric"
                Role="Timing Variable"
                Description="Actual study day of visit/collection/exam expressed in integer days relative to the sponsor-defined RFSTDTC in Demographics."/>
      <Variable Ordinal="1"
                Name="VISITNUM"
                Label="Visit Number"
                Type="http://rdf.cdisc.org/std/schema#Classifier.Numeric"
                Role="Timing Variable"
                Description="Clinical encounter number. Numeric version of VISIT, used for sorting."/>
      <Variable Ordinal="12"
                Name="--DUR"
                Label="Duration"
                Type="http://rdf.cdisc.org/std/schema#Classifier.Character"
                Role="Timing Variable"
                Description="Collected duration of an event, intervention, or finding represented in ISO 8601 character format. Used only if collected on the CRF and not derived."/>
      <Variable Ordinal="6"
                Name="--DTC"
                Label="Date/Time of Collection"
                Type="http://rdf.cdisc.org/std/schema#Classifier.Character"
                Role="Timing Variable"
                Description="Collection date and time of an observation represented in IS0 8601 character format."/>
      <Variable Ordinal="17"
                Name="--RFTDTC"
                Label="Date/Time of Reference Time Point"
                Type="http://rdf.cdisc.org/std/schema#Classifier.Character"
                Role="Timing Variable"
                Description="Date/time for a fixed reference time point defined by --TPTREF in ISO 8601 character format."/>
      <Variable Ordinal="16"
                Name="--TPTREF"
                Label="Time Point Reference"
                Type="http://rdf.cdisc.org/std/schema#Classifier.Character"
                Role="Timing Variable"
                Description="Description of the fixed reference point referred to by --ELTM, --TPTNUM, and --TPT. Examples: PREVIOUS DOSE, PREVIOUS MEAL."/>
      <Variable Ordinal="24"
                Name="--ENTPT"
                Label="End Reference Time Point"
                Type="http://rdf.cdisc.org/std/schema#Classifier.Character"
                Role="Timing Variable"
                Description="Description or date/time in ISO 8601 character format of the sponsor-defined reference point referred to by --ENRTPT. Examples: &#34;2003-12-25&#34; or &#34;VISIT 2&#34;."/>
      <Variable Ordinal="22"
                Name="--STTPT"
                Label="Start Reference Time Point"
                Type="http://rdf.cdisc.org/std/schema#Classifier.Character"
                Role="Timing Variable"
                Description="Description or date/time in ISO 8601 character format of the sponsor-defined reference point referred to by --STRTPT. Examples: &#34;2003-12-15&#34; or &#34;VISIT 1&#34;."/>
      <Variable Ordinal="8"
                Name="--ENDTC"
                Label="End Date/Time of Observation"
                Type="http://rdf.cdisc.org/std/schema#Classifier.Character"
                Role="Timing Variable"
                Description="End date/time of the observation represented in IS0 8601 character format."/>
      <Variable Ordinal="5"
                Name="EPOCH"
                Label="Epoch"
                Type="http://rdf.cdisc.org/std/schema#Classifier.Character"
                Role="Timing Variable"
                Description="Epoch associated with the start date/time of the observation, or the date/time of collection if start date/time is not collected."/>
      <Variable Ordinal="20"
                Name="--EVLINT"
                Label="Evaluation Interval"
                Type="http://rdf.cdisc.org/std/schema#Classifier.Character"
                Role="Timing Variable"
                Description="Evaluation interval associated with an observation such as a finding --TESTCD, represented in ISO 8601 character format. Example: -P2M to represent a period of the past 2 months as the evaluation interval for a question from a questionnaire such as SF-36."/>
      <Variable Ordinal="23"
                Name="--ENRTPT"
                Label="End Relative to Reference Time Point"
                Type="http://rdf.cdisc.org/std/schema#Classifier.Character"
                Role="Timing Variable"
                Description="Identifies the end of the observation as being before or after the sponsor-defined reference time point defined by variable --ENTPT."/>
      <Variable Ordinal="19"
                Name="--ENRF"
                Label="End Relative to Reference Period"
                Type="http://rdf.cdisc.org/std/schema#Classifier.Character"
                Role="Timing Variable"
                Description="Identifies the end of the observation as being before, during or after the sponsor-defined reference period. The sponsor-defined reference period is a continuous period of time defined by a discrete starting point and a discrete ending point represented by RFSTDTC and RFENDTC in Demographics."/>
      <Variable Ordinal="21"
                Name="--STRTPT"
                Label="Start Relative to Reference Time Point"
                Type="http://rdf.cdisc.org/std/schema#Classifier.Character"
                Role="Timing Variable"
                Description="Identifies the start of the observation as being before or after the sponsor-defined reference time point defined by variable --STTPT."/>
      <Variable Ordinal="18"
                Name="--STRF"
                Label="Start Relative to Reference Period"
                Type="http://rdf.cdisc.org/std/schema#Classifier.Character"
                Role="Timing Variable"
                Description="Identifies the start of the observation as being before, during, or after the sponsor-defined reference period. The sponsor-defined reference period is a continuous period of time defined by a discrete starting point and a discrete ending point represented by RFSTDTC and RFENDTC in Demographics."/>
      <Variable Ordinal="4"
                Name="TAETORD"
                Label="Planned Order of Elements within Arm"
                Type="http://rdf.cdisc.org/std/schema#Classifier.Numeric"
                Role="Timing Variable"
                Description="Number that gives the planned order of the Element within the Arm."/>
      <Variable Ordinal="14"
                Name="--TPTNUM"
                Label="Planned Time Point Number"
                Type="http://rdf.cdisc.org/std/schema#Classifier.Numeric"
                Role="Timing Variable"
                Description="Numeric version of planned time point used in sorting."/>
      <Variable Ordinal="15"
                Name="--ELTM"
                Label="Planned Elapsed Time from Time Point Ref"
                Type="http://rdf.cdisc.org/std/schema#Classifier.Character"
                Role="Timing Variable"
                Description="Planned Elapsed time in ISO 8601 character format relative to a planned fixed reference (--TPTREF) such as &#34;Previous Dose&#34; or &#34;Previous Meal&#34;. This variable is useful where there are repetitive measures. Not a clock time or a date/time variable, but an interval, represented as ISO duration."/>
      <Variable Ordinal="3"
                Name="VISITDY"
                Label="Planned Study Day of Visit"
                Type="http://rdf.cdisc.org/std/schema#Classifier.Numeric"
                Role="Timing Variable"
                Description="Planned study day of VISIT. Should be an integer."/>
      <Variable Ordinal="2"
                Name="VISIT"
                Label="Visit Name"
                Type="http://rdf.cdisc.org/std/schema#Classifier.Character"
                Role="Timing Variable"
                Description="Protocol-defined description of a clinical encounter."/>
      <Variable Ordinal="7"
                Name="--STDTC"
                Label="Start Date/Time of Observation"
                Type="http://rdf.cdisc.org/std/schema#Classifier.Character"
                Role="Timing Variable"
                Description="Start date/time of an observation represented in IS0 8601 character format."/>
      <Variable Ordinal="13"
                Name="--TPT"
                Label="Planned Time Point Name"
                Type="http://rdf.cdisc.org/std/schema#Classifier.Character"
                Role="Timing Variable"
                Description="Text description of time when a measurement or observation should be taken as defined in the protocol. This may be represented as an elapsed time relative to a fixed reference point, such as time of last dose. See --TPTNUM and --TPTREF."/>
   </Class>
</Model>
