<http://www.assero.co.uk/MDRForms/ACME/V1#F-ACME_MH101> 			<http://www.w3.org/1999/02/22-rdf-syntax-ns#type> 			<http://www.assero.co.uk/BusinessForm#Form> . 
<http://www.assero.co.uk/MDRForms/ACME/V1#F-ACME_MH101> 			<http://www.w3.org/2000/01/rdf-schema#label> 			"Medical History" . 
<http://www.assero.co.uk/MDRForms/ACME/V1#F-ACME_MH101> 			<http://www.assero.co.uk/ISO11179Types#creationDate> 			"2016-06-15T21:57:42.290 01:00" . 
<http://www.assero.co.uk/MDRForms/ACME/V1#F-ACME_MH101> 			<http://www.assero.co.uk/ISO11179Types#lastChangeDate> 			"2016-06-16T10:14:56 01:00" . 
<http://www.assero.co.uk/MDRForms/ACME/V1#F-ACME_MH101> 			<http://www.assero.co.uk/ISO11179Types#changeDescription> 			"Based on the MH Specification document dated 2016-03-25." . 
<http://www.assero.co.uk/MDRForms/ACME/V1#F-ACME_MH101> 			<http://www.assero.co.uk/ISO11179Types#explanatoryComment> 			"None" . 
<http://www.assero.co.uk/MDRForms/ACME/V1#F-ACME_MH101> 			<http://www.assero.co.uk/ISO11179Types#origin> 			"MH Specification document dated 2016-03-25." . 
<http://www.assero.co.uk/MDRForms/ACME/V1#F-ACME_MH101> 			<http://www.assero.co.uk/ISO11179Identification#hasIdentifier> 			<http://www.assero.co.uk/MDRItems#SI-ACME_MH101-1> . 
<http://www.assero.co.uk/MDRForms/ACME/V1#F-ACME_MH101> 			<http://www.assero.co.uk/ISO11179Registration#hasState> 			<http://www.assero.co.uk/MDRItems#RS-ACME_MH101-1> . 
<http://www.assero.co.uk/MDRForms/ACME/V1#F-ACME_MH101> 			<http://www.assero.co.uk/BusinessForm#hasGroup> 			<http://www.assero.co.uk/MDRForms/ACME/V1#F-ACME_MH101_G1> . 
<http://www.assero.co.uk/MDRForms/ACME/V1#F-ACME_MH101> 			<http://www.assero.co.uk/BusinessForm#hasGroup> 			<http://www.assero.co.uk/MDRForms/ACME/V1#F-ACME_MH101_G2> . 
<http://www.assero.co.uk/MDRForms/ACME/V1#F-ACME_MH101> 			<http://www.assero.co.uk/BusinessForm#formCompletion> 			"* Do NOT record any medical history relating to (indication under investigation) on this page." . 
<http://www.assero.co.uk/MDRForms/ACME/V1#F-ACME_MH101> 			<http://www.assero.co.uk/BusinessForm#formNote> 			"* This is a mandatory module that must appear in ALL CRFs except for extension trials where subject's medical history was collected in previous trial.\n* Text in parentheses \"(Except xxxx)\" can be customized with the disease of interest (eg, Crohn's Disease) when additional indication-specific medical history modules are used or it can be deleted if not needed.\n* For EDC studies, include 3 pages (in same DCI) and if team feels an additional page (ie, a ._ _ page) is needed, it should be added to the Annex.\n* For paper studies, only include 1 page within Visit 1.  The ._ _ page should be included in the Annex, but the visit in the header should be Visit 1.\n* For OC RDC studies, terms are entered directly into the DMODIFY field and MHTERM is not used.  The OC and SAS annotations have the MHTERM highlighted to reflect this status.\n* Hepatic Event Supplemental Medical History (MHDILI1_01) will be used for DILI CRFs only.\n* The Medical History Update module (MHU1_01) is a mandatory module for extension studies (and should only be used in extension studies) and is intended to capture conditions that were not captured during the course of the prior/lead-in study.  It is NOT intended to collect NEW conditions that initially occurred AFTER the screening visit of the prior/lead-in study.  New conditions that occurred AFTER the screening visit of the prior/lead-in study should be recorded as adverse events, not as medical history.  (Note: The \"Related to\" column can be removed if not needed.)\n" . 
<http://www.assero.co.uk/MDRForms/ACME/V1#F-ACME_MH101_G1> 			<http://www.w3.org/1999/02/22-rdf-syntax-ns#type> 			<http://www.assero.co.uk/BusinessForm#Group> . 
<http://www.assero.co.uk/MDRForms/ACME/V1#F-ACME_MH101_G1> 			<http://www.w3.org/2000/01/rdf-schema#label> 			"Group" . 
<http://www.assero.co.uk/MDRForms/ACME/V1#F-ACME_MH101_G1> 			<http://www.assero.co.uk/BusinessForm#isGroupOf> 			<http://www.assero.co.uk/MDRForms/ACME/V1#F-ACME_MH101> . 
<http://www.assero.co.uk/MDRForms/ACME/V1#F-ACME_MH101_G1> 			<http://www.assero.co.uk/BusinessForm#hasItem> 			<http://www.assero.co.uk/MDRForms/ACME/V1#F-ACME_MH101_G1_I1> . 
<http://www.assero.co.uk/MDRForms/ACME/V1#F-ACME_MH101_G1> 			<http://www.assero.co.uk/BusinessForm#note> 			"" . 
<http://www.assero.co.uk/MDRForms/ACME/V1#F-ACME_MH101_G1> 			<http://www.assero.co.uk/BusinessForm#repeating> 			"false" . 
<http://www.assero.co.uk/MDRForms/ACME/V1#F-ACME_MH101_G1> 			<http://www.assero.co.uk/BusinessForm#optional> 			"false" . 
<http://www.assero.co.uk/MDRForms/ACME/V1#F-ACME_MH101_G1> 			<http://www.assero.co.uk/BusinessForm#ordinal> 			"1" . 
<http://www.assero.co.uk/MDRForms/ACME/V1#F-ACME_MH101_G1> 			<http://www.assero.co.uk/BusinessForm#completion> 			"" . 
<http://www.assero.co.uk/MDRForms/ACME/V1#F-ACME_MH101_G1_I1> 			<http://www.w3.org/1999/02/22-rdf-syntax-ns#type> 			<http://www.assero.co.uk/BusinessForm#Question> . 
<http://www.assero.co.uk/MDRForms/ACME/V1#F-ACME_MH101_G1_I1> 			<http://www.w3.org/2000/01/rdf-schema#label> 			"Any" . 
<http://www.assero.co.uk/MDRForms/ACME/V1#F-ACME_MH101_G1_I1> 			<http://www.assero.co.uk/BusinessForm#isItemOf> 			<http://www.assero.co.uk/MDRForms/ACME/V1#F-ACME_MH101_G1> . 
<http://www.assero.co.uk/MDRForms/ACME/V1#F-ACME_MH101_G1_I1> 			<http://www.assero.co.uk/BusinessForm#hasThesaurusConcept> 			<http://www.assero.co.uk/MDRForms/ACME/V1#F-ACME_MH101_G1_I1_TCR1> . 
<http://www.assero.co.uk/MDRForms/ACME/V1#F-ACME_MH101_G1_I1> 			<http://www.assero.co.uk/BusinessForm#hasThesaurusConcept> 			<http://www.assero.co.uk/MDRForms/ACME/V1#F-ACME_MH101_G1_I1_TCR2> . 
<http://www.assero.co.uk/MDRForms/ACME/V1#F-ACME_MH101_G1_I1> 			<http://www.assero.co.uk/BusinessForm#note> 			"" . 
<http://www.assero.co.uk/MDRForms/ACME/V1#F-ACME_MH101_G1_I1> 			<http://www.assero.co.uk/BusinessForm#optional> 			"false" . 
<http://www.assero.co.uk/MDRForms/ACME/V1#F-ACME_MH101_G1_I1> 			<http://www.assero.co.uk/BusinessForm#ordinal> 			"1" . 
<http://www.assero.co.uk/MDRForms/ACME/V1#F-ACME_MH101_G1_I1> 			<http://www.assero.co.uk/BusinessForm#datatype> 			"CL" . 
<http://www.assero.co.uk/MDRForms/ACME/V1#F-ACME_MH101_G1_I1> 			<http://www.assero.co.uk/BusinessForm#format> 			"" . 
<http://www.assero.co.uk/MDRForms/ACME/V1#F-ACME_MH101_G1_I1> 			<http://www.assero.co.uk/BusinessForm#mapping> 			"[NOT SUBMITTED]" . 
<http://www.assero.co.uk/MDRForms/ACME/V1#F-ACME_MH101_G1_I1> 			<http://www.assero.co.uk/BusinessForm#qText> 			"Has the subject experienced any previous or ongoing medical conditions that occurred prior to study entry?" . 
<http://www.assero.co.uk/MDRForms/ACME/V1#F-ACME_MH101_G1_I1> 			<http://www.assero.co.uk/BusinessForm#completion> 			"* If the subject has experienced any previous or ongoing medical conditions that occurred prior to study entry tick Yes and complete the table. Otherwise tick No and leave the table blank." . 
<http://www.assero.co.uk/MDRForms/ACME/V1#F-ACME_MH101_G1_I1_TCR1> 			<http://www.w3.org/1999/02/22-rdf-syntax-ns#type> 			<http://www.assero.co.uk/BusinessOperational#TcReference> . 
<http://www.assero.co.uk/MDRForms/ACME/V1#F-ACME_MH101_G1_I1_TCR1> 			<http://www.assero.co.uk/BusinessOperational#hasThesaurusConcept> 			<http://www.assero.co.uk/MDRThesaurus/CDISC/V43#CLI-C66742_C49487> . 
<http://www.assero.co.uk/MDRForms/ACME/V1#F-ACME_MH101_G1_I1_TCR1> 			<http://www.assero.co.uk/BusinessOperational#enabled> 			"true" . 
<http://www.assero.co.uk/MDRForms/ACME/V1#F-ACME_MH101_G1_I1_TCR1> 			<http://www.assero.co.uk/BusinessOperational#optional> 			"false" . 
<http://www.assero.co.uk/MDRForms/ACME/V1#F-ACME_MH101_G1_I1_TCR2> 			<http://www.w3.org/1999/02/22-rdf-syntax-ns#type> 			<http://www.assero.co.uk/BusinessOperational#TcReference> . 
<http://www.assero.co.uk/MDRForms/ACME/V1#F-ACME_MH101_G1_I1_TCR2> 			<http://www.assero.co.uk/BusinessOperational#hasThesaurusConcept> 			<http://www.assero.co.uk/MDRThesaurus/CDISC/V43#CLI-C66742_C49488> . 
<http://www.assero.co.uk/MDRForms/ACME/V1#F-ACME_MH101_G1_I1_TCR2> 			<http://www.assero.co.uk/BusinessOperational#enabled> 			"true" . 
<http://www.assero.co.uk/MDRForms/ACME/V1#F-ACME_MH101_G1_I1_TCR2> 			<http://www.assero.co.uk/BusinessOperational#optional> 			"false" . 
<http://www.assero.co.uk/MDRForms/ACME/V1#F-ACME_MH101_G2> 			<http://www.w3.org/1999/02/22-rdf-syntax-ns#type> 			<http://www.assero.co.uk/BusinessForm#Group> . 
<http://www.assero.co.uk/MDRForms/ACME/V1#F-ACME_MH101_G2> 			<http://www.w3.org/2000/01/rdf-schema#label> 			"Repeating Group" . 
<http://www.assero.co.uk/MDRForms/ACME/V1#F-ACME_MH101_G2> 			<http://www.assero.co.uk/BusinessForm#isGroupOf> 			<http://www.assero.co.uk/MDRForms/ACME/V1#F-ACME_MH101> . 
<http://www.assero.co.uk/MDRForms/ACME/V1#F-ACME_MH101_G2> 			<http://www.assero.co.uk/BusinessForm#hasItem> 			<http://www.assero.co.uk/MDRForms/ACME/V1#F-ACME_MH101_G2_I1> . 
<http://www.assero.co.uk/MDRForms/ACME/V1#F-ACME_MH101_G2> 			<http://www.assero.co.uk/BusinessForm#hasItem> 			<http://www.assero.co.uk/MDRForms/ACME/V1#F-ACME_MH101_G2_I2> . 
<http://www.assero.co.uk/MDRForms/ACME/V1#F-ACME_MH101_G2> 			<http://www.assero.co.uk/BusinessForm#hasItem> 			<http://www.assero.co.uk/MDRForms/ACME/V1#F-ACME_MH101_G2_I3> . 
<http://www.assero.co.uk/MDRForms/ACME/V1#F-ACME_MH101_G2> 			<http://www.assero.co.uk/BusinessForm#hasItem> 			<http://www.assero.co.uk/MDRForms/ACME/V1#F-ACME_MH101_G2_I4> . 
<http://www.assero.co.uk/MDRForms/ACME/V1#F-ACME_MH101_G2> 			<http://www.assero.co.uk/BusinessForm#hasItem> 			<http://www.assero.co.uk/MDRForms/ACME/V1#F-ACME_MH101_G2_I5> . 
<http://www.assero.co.uk/MDRForms/ACME/V1#F-ACME_MH101_G2> 			<http://www.assero.co.uk/BusinessForm#note> 			"" . 
<http://www.assero.co.uk/MDRForms/ACME/V1#F-ACME_MH101_G2> 			<http://www.assero.co.uk/BusinessForm#repeating> 			"true" . 
<http://www.assero.co.uk/MDRForms/ACME/V1#F-ACME_MH101_G2> 			<http://www.assero.co.uk/BusinessForm#optional> 			"false" . 
<http://www.assero.co.uk/MDRForms/ACME/V1#F-ACME_MH101_G2> 			<http://www.assero.co.uk/BusinessForm#ordinal> 			"2" . 
<http://www.assero.co.uk/MDRForms/ACME/V1#F-ACME_MH101_G2> 			<http://www.assero.co.uk/BusinessForm#completion> 			"" . 
<http://www.assero.co.uk/MDRForms/ACME/V1#F-ACME_MH101_G2_I1> 			<http://www.w3.org/1999/02/22-rdf-syntax-ns#type> 			<http://www.assero.co.uk/BusinessForm#Question> . 
<http://www.assero.co.uk/MDRForms/ACME/V1#F-ACME_MH101_G2_I1> 			<http://www.w3.org/2000/01/rdf-schema#label> 			"Identifier" . 
<http://www.assero.co.uk/MDRForms/ACME/V1#F-ACME_MH101_G2_I1> 			<http://www.assero.co.uk/BusinessForm#isItemOf> 			<http://www.assero.co.uk/MDRForms/ACME/V1#F-ACME_MH101_G2> . 
<http://www.assero.co.uk/MDRForms/ACME/V1#F-ACME_MH101_G2_I1> 			<http://www.assero.co.uk/BusinessForm#note> 			"" . 
<http://www.assero.co.uk/MDRForms/ACME/V1#F-ACME_MH101_G2_I1> 			<http://www.assero.co.uk/BusinessForm#optional> 			"false" . 
<http://www.assero.co.uk/MDRForms/ACME/V1#F-ACME_MH101_G2_I1> 			<http://www.assero.co.uk/BusinessForm#ordinal> 			"1" . 
<http://www.assero.co.uk/MDRForms/ACME/V1#F-ACME_MH101_G2_I1> 			<http://www.assero.co.uk/BusinessForm#datatype> 			"I" . 
<http://www.assero.co.uk/MDRForms/ACME/V1#F-ACME_MH101_G2_I1> 			<http://www.assero.co.uk/BusinessForm#format> 			"2" . 
<http://www.assero.co.uk/MDRForms/ACME/V1#F-ACME_MH101_G2_I1> 			<http://www.assero.co.uk/BusinessForm#mapping> 			"MHSPID" . 
<http://www.assero.co.uk/MDRForms/ACME/V1#F-ACME_MH101_G2_I1> 			<http://www.assero.co.uk/BusinessForm#qText> 			"Id" . 
<http://www.assero.co.uk/MDRForms/ACME/V1#F-ACME_MH101_G2_I1> 			<http://www.assero.co.uk/BusinessForm#completion> 			"" . 
<http://www.assero.co.uk/MDRForms/ACME/V1#F-ACME_MH101_G2_I2> 			<http://www.w3.org/1999/02/22-rdf-syntax-ns#type> 			<http://www.assero.co.uk/BusinessForm#Question> . 
<http://www.assero.co.uk/MDRForms/ACME/V1#F-ACME_MH101_G2_I2> 			<http://www.w3.org/2000/01/rdf-schema#label> 			"Condition" . 
<http://www.assero.co.uk/MDRForms/ACME/V1#F-ACME_MH101_G2_I2> 			<http://www.assero.co.uk/BusinessForm#isItemOf> 			<http://www.assero.co.uk/MDRForms/ACME/V1#F-ACME_MH101_G2> . 
<http://www.assero.co.uk/MDRForms/ACME/V1#F-ACME_MH101_G2_I2> 			<http://www.assero.co.uk/BusinessForm#note> 			"" . 
<http://www.assero.co.uk/MDRForms/ACME/V1#F-ACME_MH101_G2_I2> 			<http://www.assero.co.uk/BusinessForm#optional> 			"false" . 
<http://www.assero.co.uk/MDRForms/ACME/V1#F-ACME_MH101_G2_I2> 			<http://www.assero.co.uk/BusinessForm#ordinal> 			"2" . 
<http://www.assero.co.uk/MDRForms/ACME/V1#F-ACME_MH101_G2_I2> 			<http://www.assero.co.uk/BusinessForm#datatype> 			"S" . 
<http://www.assero.co.uk/MDRForms/ACME/V1#F-ACME_MH101_G2_I2> 			<http://www.assero.co.uk/BusinessForm#format> 			"50" . 
<http://www.assero.co.uk/MDRForms/ACME/V1#F-ACME_MH101_G2_I2> 			<http://www.assero.co.uk/BusinessForm#mapping> 			"MHTERM" . 
<http://www.assero.co.uk/MDRForms/ACME/V1#F-ACME_MH101_G2_I2> 			<http://www.assero.co.uk/BusinessForm#qText> 			"Condition:" . 
<http://www.assero.co.uk/MDRForms/ACME/V1#F-ACME_MH101_G2_I2> 			<http://www.assero.co.uk/BusinessForm#completion> 			"* Record conditions using standard medical terminology, avoiding abbreviations if possible.\n* Ensure that any abnormalities listed on the Medical History page do not meet any of the exclusion criteria (Visit 1 only).\n" . 
<http://www.assero.co.uk/MDRForms/ACME/V1#F-ACME_MH101_G2_I3> 			<http://www.w3.org/1999/02/22-rdf-syntax-ns#type> 			<http://www.assero.co.uk/BusinessForm#Question> . 
<http://www.assero.co.uk/MDRForms/ACME/V1#F-ACME_MH101_G2_I3> 			<http://www.w3.org/2000/01/rdf-schema#label> 			"Start Date" . 
<http://www.assero.co.uk/MDRForms/ACME/V1#F-ACME_MH101_G2_I3> 			<http://www.assero.co.uk/BusinessForm#isItemOf> 			<http://www.assero.co.uk/MDRForms/ACME/V1#F-ACME_MH101_G2> . 
<http://www.assero.co.uk/MDRForms/ACME/V1#F-ACME_MH101_G2_I3> 			<http://www.assero.co.uk/BusinessForm#note> 			"" . 
<http://www.assero.co.uk/MDRForms/ACME/V1#F-ACME_MH101_G2_I3> 			<http://www.assero.co.uk/BusinessForm#optional> 			"false" . 
<http://www.assero.co.uk/MDRForms/ACME/V1#F-ACME_MH101_G2_I3> 			<http://www.assero.co.uk/BusinessForm#ordinal> 			"3" . 
<http://www.assero.co.uk/MDRForms/ACME/V1#F-ACME_MH101_G2_I3> 			<http://www.assero.co.uk/BusinessForm#datatype> 			"D" . 
<http://www.assero.co.uk/MDRForms/ACME/V1#F-ACME_MH101_G2_I3> 			<http://www.assero.co.uk/BusinessForm#format> 			"" . 
<http://www.assero.co.uk/MDRForms/ACME/V1#F-ACME_MH101_G2_I3> 			<http://www.assero.co.uk/BusinessForm#mapping> 			"MHSTDTC" . 
<http://www.assero.co.uk/MDRForms/ACME/V1#F-ACME_MH101_G2_I3> 			<http://www.assero.co.uk/BusinessForm#qText> 			"Start Date:" . 
<http://www.assero.co.uk/MDRForms/ACME/V1#F-ACME_MH101_G2_I3> 			<http://www.assero.co.uk/BusinessForm#completion> 			"* Record the month and year. If the month is unknown, record UNK.\n\nExample: \n\n| MMM | YYYY |\n|-----|------|\n| UNK | 1985 |\n\n" . 
<http://www.assero.co.uk/MDRForms/ACME/V1#F-ACME_MH101_G2_I4> 			<http://www.w3.org/1999/02/22-rdf-syntax-ns#type> 			<http://www.assero.co.uk/BusinessForm#Question> . 
<http://www.assero.co.uk/MDRForms/ACME/V1#F-ACME_MH101_G2_I4> 			<http://www.w3.org/2000/01/rdf-schema#label> 			"Ongoing" . 
<http://www.assero.co.uk/MDRForms/ACME/V1#F-ACME_MH101_G2_I4> 			<http://www.assero.co.uk/BusinessForm#isItemOf> 			<http://www.assero.co.uk/MDRForms/ACME/V1#F-ACME_MH101_G2> . 
<http://www.assero.co.uk/MDRForms/ACME/V1#F-ACME_MH101_G2_I4> 			<http://www.assero.co.uk/BusinessForm#hasThesaurusConcept> 			<http://www.assero.co.uk/MDRForms/ACME/V1#F-ACME_MH101_G2_I4_TCR1> . 
<http://www.assero.co.uk/MDRForms/ACME/V1#F-ACME_MH101_G2_I4> 			<http://www.assero.co.uk/BusinessForm#hasThesaurusConcept> 			<http://www.assero.co.uk/MDRForms/ACME/V1#F-ACME_MH101_G2_I4_TCR2> . 
<http://www.assero.co.uk/MDRForms/ACME/V1#F-ACME_MH101_G2_I4> 			<http://www.assero.co.uk/BusinessForm#note> 			"" . 
<http://www.assero.co.uk/MDRForms/ACME/V1#F-ACME_MH101_G2_I4> 			<http://www.assero.co.uk/BusinessForm#optional> 			"false" . 
<http://www.assero.co.uk/MDRForms/ACME/V1#F-ACME_MH101_G2_I4> 			<http://www.assero.co.uk/BusinessForm#ordinal> 			"4" . 
<http://www.assero.co.uk/MDRForms/ACME/V1#F-ACME_MH101_G2_I4> 			<http://www.assero.co.uk/BusinessForm#datatype> 			"CL" . 
<http://www.assero.co.uk/MDRForms/ACME/V1#F-ACME_MH101_G2_I4> 			<http://www.assero.co.uk/BusinessForm#format> 			"" . 
<http://www.assero.co.uk/MDRForms/ACME/V1#F-ACME_MH101_G2_I4> 			<http://www.assero.co.uk/BusinessForm#mapping> 			"If Yes, MHENRTPT=ONGOING" . 
<http://www.assero.co.uk/MDRForms/ACME/V1#F-ACME_MH101_G2_I4> 			<http://www.assero.co.uk/BusinessForm#qText> 			"Ongoing:" . 
<http://www.assero.co.uk/MDRForms/ACME/V1#F-ACME_MH101_G2_I4> 			<http://www.assero.co.uk/BusinessForm#completion> 			"* If No is ticked, also provide the date the medical condition stopped.  If Yes is ticked, leave the Stop Date field blank" . 
<http://www.assero.co.uk/MDRForms/ACME/V1#F-ACME_MH101_G2_I4_TCR1> 			<http://www.w3.org/1999/02/22-rdf-syntax-ns#type> 			<http://www.assero.co.uk/BusinessOperational#TcReference> . 
<http://www.assero.co.uk/MDRForms/ACME/V1#F-ACME_MH101_G2_I4_TCR1> 			<http://www.assero.co.uk/BusinessOperational#hasThesaurusConcept> 			<http://www.assero.co.uk/MDRThesaurus/CDISC/V43#CLI-C66742_C49488> . 
<http://www.assero.co.uk/MDRForms/ACME/V1#F-ACME_MH101_G2_I4_TCR1> 			<http://www.assero.co.uk/BusinessOperational#enabled> 			"true" . 
<http://www.assero.co.uk/MDRForms/ACME/V1#F-ACME_MH101_G2_I4_TCR1> 			<http://www.assero.co.uk/BusinessOperational#optional> 			"false" . 
<http://www.assero.co.uk/MDRForms/ACME/V1#F-ACME_MH101_G2_I4_TCR2> 			<http://www.w3.org/1999/02/22-rdf-syntax-ns#type> 			<http://www.assero.co.uk/BusinessOperational#TcReference> . 
<http://www.assero.co.uk/MDRForms/ACME/V1#F-ACME_MH101_G2_I4_TCR2> 			<http://www.assero.co.uk/BusinessOperational#hasThesaurusConcept> 			<http://www.assero.co.uk/MDRThesaurus/CDISC/V43#CLI-C66742_C49487> . 
<http://www.assero.co.uk/MDRForms/ACME/V1#F-ACME_MH101_G2_I4_TCR2> 			<http://www.assero.co.uk/BusinessOperational#enabled> 			"true" . 
<http://www.assero.co.uk/MDRForms/ACME/V1#F-ACME_MH101_G2_I4_TCR2> 			<http://www.assero.co.uk/BusinessOperational#optional> 			"false" . 
<http://www.assero.co.uk/MDRForms/ACME/V1#F-ACME_MH101_G2_I5> 			<http://www.w3.org/1999/02/22-rdf-syntax-ns#type> 			<http://www.assero.co.uk/BusinessForm#Question> . 
<http://www.assero.co.uk/MDRForms/ACME/V1#F-ACME_MH101_G2_I5> 			<http://www.w3.org/2000/01/rdf-schema#label> 			"Stop Date" . 
<http://www.assero.co.uk/MDRForms/ACME/V1#F-ACME_MH101_G2_I5> 			<http://www.assero.co.uk/BusinessForm#isItemOf> 			<http://www.assero.co.uk/MDRForms/ACME/V1#F-ACME_MH101_G2> . 
<http://www.assero.co.uk/MDRForms/ACME/V1#F-ACME_MH101_G2_I5> 			<http://www.assero.co.uk/BusinessForm#note> 			"" . 
<http://www.assero.co.uk/MDRForms/ACME/V1#F-ACME_MH101_G2_I5> 			<http://www.assero.co.uk/BusinessForm#optional> 			"false" . 
<http://www.assero.co.uk/MDRForms/ACME/V1#F-ACME_MH101_G2_I5> 			<http://www.assero.co.uk/BusinessForm#ordinal> 			"5" . 
<http://www.assero.co.uk/MDRForms/ACME/V1#F-ACME_MH101_G2_I5> 			<http://www.assero.co.uk/BusinessForm#datatype> 			"D" . 
<http://www.assero.co.uk/MDRForms/ACME/V1#F-ACME_MH101_G2_I5> 			<http://www.assero.co.uk/BusinessForm#format> 			"" . 
<http://www.assero.co.uk/MDRForms/ACME/V1#F-ACME_MH101_G2_I5> 			<http://www.assero.co.uk/BusinessForm#mapping> 			"MHENDTC" . 
<http://www.assero.co.uk/MDRForms/ACME/V1#F-ACME_MH101_G2_I5> 			<http://www.assero.co.uk/BusinessForm#qText> 			"Stop Date" . 
<http://www.assero.co.uk/MDRForms/ACME/V1#F-ACME_MH101_G2_I5> 			<http://www.assero.co.uk/BusinessForm#completion> 			"* Record the month and year. If the month is unknown, record UNK.\n\nExample: \n\n| MMM | YYYY |\n|-----|------|\n| UNK | 1985 |\n\n" . 
<http://www.assero.co.uk/MDRItems#SI-ACME_MH101-1> 			<http://www.w3.org/1999/02/22-rdf-syntax-ns#type> 			<http://www.assero.co.uk/ISO11179Identification#ScopedIdentifier> . 
<http://www.assero.co.uk/MDRItems#SI-ACME_MH101-1> 			<http://www.assero.co.uk/ISO11179Identification#hasScope> 			<http://www.assero.co.uk/MDRItems#NS-ACME> . 
<http://www.assero.co.uk/MDRItems#SI-ACME_MH101-1> 			<http://www.assero.co.uk/ISO11179Identification#identifier> 			"MH1 01" . 
<http://www.assero.co.uk/MDRItems#SI-ACME_MH101-1> 			<http://www.assero.co.uk/ISO11179Identification#version> 			"1" . 
<http://www.assero.co.uk/MDRItems#SI-ACME_MH101-1> 			<http://www.assero.co.uk/ISO11179Identification#versionLabel> 			"0.1" . 
<http://www.assero.co.uk/MDRItems#RS-ACME_MH101-1> 			<http://www.w3.org/1999/02/22-rdf-syntax-ns#type> 			<http://www.assero.co.uk/ISO11179Registration#RegistrationState> . 
<http://www.assero.co.uk/MDRItems#RS-ACME_MH101-1> 			<http://www.assero.co.uk/ISO11179Registration#byAuthority> 			<http://www.assero.co.uk/MDRItems#RA-123456789> . 
<http://www.assero.co.uk/MDRItems#RS-ACME_MH101-1> 			<http://www.assero.co.uk/ISO11179Registration#registrationStatus> 			"Incomplete" . 
<http://www.assero.co.uk/MDRItems#RS-ACME_MH101-1> 			<http://www.assero.co.uk/ISO11179Registration#effectiveDate> 			"2016-01-01T00:00:00Z" . 
<http://www.assero.co.uk/MDRItems#RS-ACME_MH101-1> 			<http://www.assero.co.uk/ISO11179Registration#untilDate> 			"2016-01-01T00:00:00Z" . 
<http://www.assero.co.uk/MDRItems#RS-ACME_MH101-1> 			<http://www.assero.co.uk/ISO11179Registration#administrativeNote> 			"" . 
<http://www.assero.co.uk/MDRItems#RS-ACME_MH101-1> 			<http://www.assero.co.uk/ISO11179Registration#unresolvedIssue> 			"" . 
<http://www.assero.co.uk/MDRItems#RS-ACME_MH101-1> 			<http://www.assero.co.uk/ISO11179Registration#administrativeStatus> 			"" . 
<http://www.assero.co.uk/MDRItems#RS-ACME_MH101-1> 			<http://www.assero.co.uk/ISO11179Registration#previousState> 			"Incomplete" . 
