<http://www.assero.co.uk/MDRModels/CDISC/V1#M-CDISC_SDTMMODEL> 			<http://www.w3.org/1999/02/22-rdf-syntax-ns#type> 			<http://www.assero.co.uk/BusinessDomain#ClassModel> . 
<http://www.assero.co.uk/MDRModels/CDISC/V1#M-CDISC_SDTMMODEL> 			<http://www.w3.org/2000/01/rdf-schema#label> 			"SDTM Model 2008-11-12" . 
<http://www.assero.co.uk/MDRModels/CDISC/V1#M-CDISC_SDTMMODEL> 			<http://www.assero.co.uk/ISO11179Types#creationDate> 			"2008-11-12" . 
<http://www.assero.co.uk/MDRModels/CDISC/V1#M-CDISC_SDTMMODEL> 			<http://www.assero.co.uk/ISO11179Types#lastChangeDate> 			"2016-07-20T14:20:31 01:00" . 
<http://www.assero.co.uk/MDRModels/CDISC/V1#M-CDISC_SDTMMODEL> 			<http://www.assero.co.uk/ISO11179Types#changeDescription> 			"" . 
<http://www.assero.co.uk/MDRModels/CDISC/V1#M-CDISC_SDTMMODEL> 			<http://www.assero.co.uk/ISO11179Types#explanatoryComment> 			"" . 
<http://www.assero.co.uk/MDRModels/CDISC/V1#M-CDISC_SDTMMODEL> 			<http://www.assero.co.uk/ISO11179Types#origin> 			"" . 
<http://www.assero.co.uk/MDRModels/CDISC/V1#M-CDISC_SDTMMODEL> 			<http://www.assero.co.uk/ISO11179Identification#hasIdentifier> 			<http://www.assero.co.uk/MDRItems#SI-CDISC_SDTMMODEL-1> . 
<http://www.assero.co.uk/MDRModels/CDISC/V1#M-CDISC_SDTMMODEL> 			<http://www.assero.co.uk/ISO11179Registration#hasState> 			<http://www.assero.co.uk/MDRItems#RS-CDISC_SDTMMODEL-1> . 
<http://www.assero.co.uk/MDRModels/CDISC/V1#M-CDISC_SDTMMODEL> 			<http://www.assero.co.uk/BusinessDomain#includesTabulation> 			<http://www.assero.co.uk/MDRModels/CDISC/V1#M-CDISC_SDTMMODEL_TR1> . 
<http://www.assero.co.uk/MDRModels/CDISC/V1#M-CDISC_SDTMMODEL> 			<http://www.assero.co.uk/BusinessDomain#includesTabulation> 			<http://www.assero.co.uk/MDRModels/CDISC/V1#M-CDISC_SDTMMODEL_TR2> . 
<http://www.assero.co.uk/MDRModels/CDISC/V1#M-CDISC_SDTMMODEL> 			<http://www.assero.co.uk/BusinessDomain#includesTabulation> 			<http://www.assero.co.uk/MDRModels/CDISC/V1#M-CDISC_SDTMMODEL_TR3> . 
<http://www.assero.co.uk/MDRModels/CDISC/V1#M-CDISC_SDTMMODEL> 			<http://www.assero.co.uk/BusinessDomain#includesVariable> 			<http://www.assero.co.uk/MDRModels/CDISC/V1#M-CDISC_SDTMMODEL_STUDYID> . 
<http://www.assero.co.uk/MDRModels/CDISC/V1#M-CDISC_SDTMMODEL> 			<http://www.assero.co.uk/BusinessDomain#includesVariable> 			<http://www.assero.co.uk/MDRModels/CDISC/V1#M-CDISC_SDTMMODEL_DOMAIN> . 
<http://www.assero.co.uk/MDRModels/CDISC/V1#M-CDISC_SDTMMODEL> 			<http://www.assero.co.uk/BusinessDomain#includesVariable> 			<http://www.assero.co.uk/MDRModels/CDISC/V1#M-CDISC_SDTMMODEL_USUBJID> . 
<http://www.assero.co.uk/MDRModels/CDISC/V1#M-CDISC_SDTMMODEL> 			<http://www.assero.co.uk/BusinessDomain#includesVariable> 			<http://www.assero.co.uk/MDRModels/CDISC/V1#M-CDISC_SDTMMODEL_xxSEQ> . 
<http://www.assero.co.uk/MDRModels/CDISC/V1#M-CDISC_SDTMMODEL> 			<http://www.assero.co.uk/BusinessDomain#includesVariable> 			<http://www.assero.co.uk/MDRModels/CDISC/V1#M-CDISC_SDTMMODEL_xxGRPID> . 
<http://www.assero.co.uk/MDRModels/CDISC/V1#M-CDISC_SDTMMODEL> 			<http://www.assero.co.uk/BusinessDomain#includesVariable> 			<http://www.assero.co.uk/MDRModels/CDISC/V1#M-CDISC_SDTMMODEL_xxREFID> . 
<http://www.assero.co.uk/MDRModels/CDISC/V1#M-CDISC_SDTMMODEL> 			<http://www.assero.co.uk/BusinessDomain#includesVariable> 			<http://www.assero.co.uk/MDRModels/CDISC/V1#M-CDISC_SDTMMODEL_xxSPID> . 
<http://www.assero.co.uk/MDRModels/CDISC/V1#M-CDISC_SDTMMODEL> 			<http://www.assero.co.uk/BusinessDomain#includesVariable> 			<http://www.assero.co.uk/MDRModels/CDISC/V1#M-CDISC_SDTMMODEL_VISITNUM> . 
<http://www.assero.co.uk/MDRModels/CDISC/V1#M-CDISC_SDTMMODEL> 			<http://www.assero.co.uk/BusinessDomain#includesVariable> 			<http://www.assero.co.uk/MDRModels/CDISC/V1#M-CDISC_SDTMMODEL_VISIT> . 
<http://www.assero.co.uk/MDRModels/CDISC/V1#M-CDISC_SDTMMODEL> 			<http://www.assero.co.uk/BusinessDomain#includesVariable> 			<http://www.assero.co.uk/MDRModels/CDISC/V1#M-CDISC_SDTMMODEL_VISITDY> . 
<http://www.assero.co.uk/MDRModels/CDISC/V1#M-CDISC_SDTMMODEL> 			<http://www.assero.co.uk/BusinessDomain#includesVariable> 			<http://www.assero.co.uk/MDRModels/CDISC/V1#M-CDISC_SDTMMODEL_TAETORD> . 
<http://www.assero.co.uk/MDRModels/CDISC/V1#M-CDISC_SDTMMODEL> 			<http://www.assero.co.uk/BusinessDomain#includesVariable> 			<http://www.assero.co.uk/MDRModels/CDISC/V1#M-CDISC_SDTMMODEL_EPOCH> . 
<http://www.assero.co.uk/MDRModels/CDISC/V1#M-CDISC_SDTMMODEL> 			<http://www.assero.co.uk/BusinessDomain#includesVariable> 			<http://www.assero.co.uk/MDRModels/CDISC/V1#M-CDISC_SDTMMODEL_xxDTC> . 
<http://www.assero.co.uk/MDRModels/CDISC/V1#M-CDISC_SDTMMODEL> 			<http://www.assero.co.uk/BusinessDomain#includesVariable> 			<http://www.assero.co.uk/MDRModels/CDISC/V1#M-CDISC_SDTMMODEL_xxSTDTC> . 
<http://www.assero.co.uk/MDRModels/CDISC/V1#M-CDISC_SDTMMODEL> 			<http://www.assero.co.uk/BusinessDomain#includesVariable> 			<http://www.assero.co.uk/MDRModels/CDISC/V1#M-CDISC_SDTMMODEL_xxENDTC> . 
<http://www.assero.co.uk/MDRModels/CDISC/V1#M-CDISC_SDTMMODEL> 			<http://www.assero.co.uk/BusinessDomain#includesVariable> 			<http://www.assero.co.uk/MDRModels/CDISC/V1#M-CDISC_SDTMMODEL_xxDY> . 
<http://www.assero.co.uk/MDRModels/CDISC/V1#M-CDISC_SDTMMODEL> 			<http://www.assero.co.uk/BusinessDomain#includesVariable> 			<http://www.assero.co.uk/MDRModels/CDISC/V1#M-CDISC_SDTMMODEL_xxSTDY> . 
<http://www.assero.co.uk/MDRModels/CDISC/V1#M-CDISC_SDTMMODEL> 			<http://www.assero.co.uk/BusinessDomain#includesVariable> 			<http://www.assero.co.uk/MDRModels/CDISC/V1#M-CDISC_SDTMMODEL_xxENDY> . 
<http://www.assero.co.uk/MDRModels/CDISC/V1#M-CDISC_SDTMMODEL> 			<http://www.assero.co.uk/BusinessDomain#includesVariable> 			<http://www.assero.co.uk/MDRModels/CDISC/V1#M-CDISC_SDTMMODEL_xxDUR> . 
<http://www.assero.co.uk/MDRModels/CDISC/V1#M-CDISC_SDTMMODEL> 			<http://www.assero.co.uk/BusinessDomain#includesVariable> 			<http://www.assero.co.uk/MDRModels/CDISC/V1#M-CDISC_SDTMMODEL_xxTPT> . 
<http://www.assero.co.uk/MDRModels/CDISC/V1#M-CDISC_SDTMMODEL> 			<http://www.assero.co.uk/BusinessDomain#includesVariable> 			<http://www.assero.co.uk/MDRModels/CDISC/V1#M-CDISC_SDTMMODEL_xxTPTNUM> . 
<http://www.assero.co.uk/MDRModels/CDISC/V1#M-CDISC_SDTMMODEL> 			<http://www.assero.co.uk/BusinessDomain#includesVariable> 			<http://www.assero.co.uk/MDRModels/CDISC/V1#M-CDISC_SDTMMODEL_xxELTM> . 
<http://www.assero.co.uk/MDRModels/CDISC/V1#M-CDISC_SDTMMODEL> 			<http://www.assero.co.uk/BusinessDomain#includesVariable> 			<http://www.assero.co.uk/MDRModels/CDISC/V1#M-CDISC_SDTMMODEL_xxTPTREF> . 
<http://www.assero.co.uk/MDRModels/CDISC/V1#M-CDISC_SDTMMODEL> 			<http://www.assero.co.uk/BusinessDomain#includesVariable> 			<http://www.assero.co.uk/MDRModels/CDISC/V1#M-CDISC_SDTMMODEL_xxRFTDTC> . 
<http://www.assero.co.uk/MDRModels/CDISC/V1#M-CDISC_SDTMMODEL> 			<http://www.assero.co.uk/BusinessDomain#includesVariable> 			<http://www.assero.co.uk/MDRModels/CDISC/V1#M-CDISC_SDTMMODEL_xxSTRF> . 
<http://www.assero.co.uk/MDRModels/CDISC/V1#M-CDISC_SDTMMODEL> 			<http://www.assero.co.uk/BusinessDomain#includesVariable> 			<http://www.assero.co.uk/MDRModels/CDISC/V1#M-CDISC_SDTMMODEL_xxENRF> . 
<http://www.assero.co.uk/MDRModels/CDISC/V1#M-CDISC_SDTMMODEL> 			<http://www.assero.co.uk/BusinessDomain#includesVariable> 			<http://www.assero.co.uk/MDRModels/CDISC/V1#M-CDISC_SDTMMODEL_xxEVLINT> . 
<http://www.assero.co.uk/MDRModels/CDISC/V1#M-CDISC_SDTMMODEL> 			<http://www.assero.co.uk/BusinessDomain#includesVariable> 			<http://www.assero.co.uk/MDRModels/CDISC/V1#M-CDISC_SDTMMODEL_xxSTRTPT> . 
<http://www.assero.co.uk/MDRModels/CDISC/V1#M-CDISC_SDTMMODEL> 			<http://www.assero.co.uk/BusinessDomain#includesVariable> 			<http://www.assero.co.uk/MDRModels/CDISC/V1#M-CDISC_SDTMMODEL_xxSTTPT> . 
<http://www.assero.co.uk/MDRModels/CDISC/V1#M-CDISC_SDTMMODEL> 			<http://www.assero.co.uk/BusinessDomain#includesVariable> 			<http://www.assero.co.uk/MDRModels/CDISC/V1#M-CDISC_SDTMMODEL_xxENRTPT> . 
<http://www.assero.co.uk/MDRModels/CDISC/V1#M-CDISC_SDTMMODEL> 			<http://www.assero.co.uk/BusinessDomain#includesVariable> 			<http://www.assero.co.uk/MDRModels/CDISC/V1#M-CDISC_SDTMMODEL_xxENTPT> . 
<http://www.assero.co.uk/MDRModels/CDISC/V1#M-CDISC_SDTMMODEL> 			<http://www.assero.co.uk/BusinessDomain#includesVariable> 			<http://www.assero.co.uk/MDRModels/CDISC/V1#M-CDISC_SDTMMODEL_xxTERM> . 
<http://www.assero.co.uk/MDRModels/CDISC/V1#M-CDISC_SDTMMODEL> 			<http://www.assero.co.uk/BusinessDomain#includesVariable> 			<http://www.assero.co.uk/MDRModels/CDISC/V1#M-CDISC_SDTMMODEL_xxMODIFY> . 
<http://www.assero.co.uk/MDRModels/CDISC/V1#M-CDISC_SDTMMODEL> 			<http://www.assero.co.uk/BusinessDomain#includesVariable> 			<http://www.assero.co.uk/MDRModels/CDISC/V1#M-CDISC_SDTMMODEL_xxDECOD> . 
<http://www.assero.co.uk/MDRModels/CDISC/V1#M-CDISC_SDTMMODEL> 			<http://www.assero.co.uk/BusinessDomain#includesVariable> 			<http://www.assero.co.uk/MDRModels/CDISC/V1#M-CDISC_SDTMMODEL_xxCAT> . 
<http://www.assero.co.uk/MDRModels/CDISC/V1#M-CDISC_SDTMMODEL> 			<http://www.assero.co.uk/BusinessDomain#includesVariable> 			<http://www.assero.co.uk/MDRModels/CDISC/V1#M-CDISC_SDTMMODEL_xxSCAT> . 
<http://www.assero.co.uk/MDRModels/CDISC/V1#M-CDISC_SDTMMODEL> 			<http://www.assero.co.uk/BusinessDomain#includesVariable> 			<http://www.assero.co.uk/MDRModels/CDISC/V1#M-CDISC_SDTMMODEL_xxPRESP> . 
<http://www.assero.co.uk/MDRModels/CDISC/V1#M-CDISC_SDTMMODEL> 			<http://www.assero.co.uk/BusinessDomain#includesVariable> 			<http://www.assero.co.uk/MDRModels/CDISC/V1#M-CDISC_SDTMMODEL_xxOCCUR> . 
<http://www.assero.co.uk/MDRModels/CDISC/V1#M-CDISC_SDTMMODEL> 			<http://www.assero.co.uk/BusinessDomain#includesVariable> 			<http://www.assero.co.uk/MDRModels/CDISC/V1#M-CDISC_SDTMMODEL_xxSTAT> . 
<http://www.assero.co.uk/MDRModels/CDISC/V1#M-CDISC_SDTMMODEL> 			<http://www.assero.co.uk/BusinessDomain#includesVariable> 			<http://www.assero.co.uk/MDRModels/CDISC/V1#M-CDISC_SDTMMODEL_xxREASND> . 
<http://www.assero.co.uk/MDRModels/CDISC/V1#M-CDISC_SDTMMODEL> 			<http://www.assero.co.uk/BusinessDomain#includesVariable> 			<http://www.assero.co.uk/MDRModels/CDISC/V1#M-CDISC_SDTMMODEL_xxBODSYS> . 
<http://www.assero.co.uk/MDRModels/CDISC/V1#M-CDISC_SDTMMODEL> 			<http://www.assero.co.uk/BusinessDomain#includesVariable> 			<http://www.assero.co.uk/MDRModels/CDISC/V1#M-CDISC_SDTMMODEL_xxLOC> . 
<http://www.assero.co.uk/MDRModels/CDISC/V1#M-CDISC_SDTMMODEL> 			<http://www.assero.co.uk/BusinessDomain#includesVariable> 			<http://www.assero.co.uk/MDRModels/CDISC/V1#M-CDISC_SDTMMODEL_xxSEV> . 
<http://www.assero.co.uk/MDRModels/CDISC/V1#M-CDISC_SDTMMODEL> 			<http://www.assero.co.uk/BusinessDomain#includesVariable> 			<http://www.assero.co.uk/MDRModels/CDISC/V1#M-CDISC_SDTMMODEL_xxSER> . 
<http://www.assero.co.uk/MDRModels/CDISC/V1#M-CDISC_SDTMMODEL> 			<http://www.assero.co.uk/BusinessDomain#includesVariable> 			<http://www.assero.co.uk/MDRModels/CDISC/V1#M-CDISC_SDTMMODEL_xxACN> . 
<http://www.assero.co.uk/MDRModels/CDISC/V1#M-CDISC_SDTMMODEL> 			<http://www.assero.co.uk/BusinessDomain#includesVariable> 			<http://www.assero.co.uk/MDRModels/CDISC/V1#M-CDISC_SDTMMODEL_xxACNOTH> . 
<http://www.assero.co.uk/MDRModels/CDISC/V1#M-CDISC_SDTMMODEL> 			<http://www.assero.co.uk/BusinessDomain#includesVariable> 			<http://www.assero.co.uk/MDRModels/CDISC/V1#M-CDISC_SDTMMODEL_xxREL> . 
<http://www.assero.co.uk/MDRModels/CDISC/V1#M-CDISC_SDTMMODEL> 			<http://www.assero.co.uk/BusinessDomain#includesVariable> 			<http://www.assero.co.uk/MDRModels/CDISC/V1#M-CDISC_SDTMMODEL_xxRELNST> . 
<http://www.assero.co.uk/MDRModels/CDISC/V1#M-CDISC_SDTMMODEL> 			<http://www.assero.co.uk/BusinessDomain#includesVariable> 			<http://www.assero.co.uk/MDRModels/CDISC/V1#M-CDISC_SDTMMODEL_xxPATT> . 
<http://www.assero.co.uk/MDRModels/CDISC/V1#M-CDISC_SDTMMODEL> 			<http://www.assero.co.uk/BusinessDomain#includesVariable> 			<http://www.assero.co.uk/MDRModels/CDISC/V1#M-CDISC_SDTMMODEL_xxOUT> . 
<http://www.assero.co.uk/MDRModels/CDISC/V1#M-CDISC_SDTMMODEL> 			<http://www.assero.co.uk/BusinessDomain#includesVariable> 			<http://www.assero.co.uk/MDRModels/CDISC/V1#M-CDISC_SDTMMODEL_xxSCAN> . 
<http://www.assero.co.uk/MDRModels/CDISC/V1#M-CDISC_SDTMMODEL> 			<http://www.assero.co.uk/BusinessDomain#includesVariable> 			<http://www.assero.co.uk/MDRModels/CDISC/V1#M-CDISC_SDTMMODEL_xxSCONG> . 
<http://www.assero.co.uk/MDRModels/CDISC/V1#M-CDISC_SDTMMODEL> 			<http://www.assero.co.uk/BusinessDomain#includesVariable> 			<http://www.assero.co.uk/MDRModels/CDISC/V1#M-CDISC_SDTMMODEL_xxSDISAB> . 
<http://www.assero.co.uk/MDRModels/CDISC/V1#M-CDISC_SDTMMODEL> 			<http://www.assero.co.uk/BusinessDomain#includesVariable> 			<http://www.assero.co.uk/MDRModels/CDISC/V1#M-CDISC_SDTMMODEL_xxSDTH> . 
<http://www.assero.co.uk/MDRModels/CDISC/V1#M-CDISC_SDTMMODEL> 			<http://www.assero.co.uk/BusinessDomain#includesVariable> 			<http://www.assero.co.uk/MDRModels/CDISC/V1#M-CDISC_SDTMMODEL_xxSHOSP> . 
<http://www.assero.co.uk/MDRModels/CDISC/V1#M-CDISC_SDTMMODEL> 			<http://www.assero.co.uk/BusinessDomain#includesVariable> 			<http://www.assero.co.uk/MDRModels/CDISC/V1#M-CDISC_SDTMMODEL_xxSLIFE> . 
<http://www.assero.co.uk/MDRModels/CDISC/V1#M-CDISC_SDTMMODEL> 			<http://www.assero.co.uk/BusinessDomain#includesVariable> 			<http://www.assero.co.uk/MDRModels/CDISC/V1#M-CDISC_SDTMMODEL_xxSOD> . 
<http://www.assero.co.uk/MDRModels/CDISC/V1#M-CDISC_SDTMMODEL> 			<http://www.assero.co.uk/BusinessDomain#includesVariable> 			<http://www.assero.co.uk/MDRModels/CDISC/V1#M-CDISC_SDTMMODEL_xxSMIE> . 
<http://www.assero.co.uk/MDRModels/CDISC/V1#M-CDISC_SDTMMODEL> 			<http://www.assero.co.uk/BusinessDomain#includesVariable> 			<http://www.assero.co.uk/MDRModels/CDISC/V1#M-CDISC_SDTMMODEL_xxCONTRT> . 
<http://www.assero.co.uk/MDRModels/CDISC/V1#M-CDISC_SDTMMODEL> 			<http://www.assero.co.uk/BusinessDomain#includesVariable> 			<http://www.assero.co.uk/MDRModels/CDISC/V1#M-CDISC_SDTMMODEL_xxTOX> . 
<http://www.assero.co.uk/MDRModels/CDISC/V1#M-CDISC_SDTMMODEL> 			<http://www.assero.co.uk/BusinessDomain#includesVariable> 			<http://www.assero.co.uk/MDRModels/CDISC/V1#M-CDISC_SDTMMODEL_xxTOXGR> . 
<http://www.assero.co.uk/MDRModels/CDISC/V1#M-CDISC_SDTMMODEL> 			<http://www.assero.co.uk/BusinessDomain#includesVariable> 			<http://www.assero.co.uk/MDRModels/CDISC/V1#M-CDISC_SDTMMODEL_xxTESTCD> . 
<http://www.assero.co.uk/MDRModels/CDISC/V1#M-CDISC_SDTMMODEL> 			<http://www.assero.co.uk/BusinessDomain#includesVariable> 			<http://www.assero.co.uk/MDRModels/CDISC/V1#M-CDISC_SDTMMODEL_xxTEST> . 
<http://www.assero.co.uk/MDRModels/CDISC/V1#M-CDISC_SDTMMODEL> 			<http://www.assero.co.uk/BusinessDomain#includesVariable> 			<http://www.assero.co.uk/MDRModels/CDISC/V1#M-CDISC_SDTMMODEL_xxPOS> . 
<http://www.assero.co.uk/MDRModels/CDISC/V1#M-CDISC_SDTMMODEL> 			<http://www.assero.co.uk/BusinessDomain#includesVariable> 			<http://www.assero.co.uk/MDRModels/CDISC/V1#M-CDISC_SDTMMODEL_xxORRES> . 
<http://www.assero.co.uk/MDRModels/CDISC/V1#M-CDISC_SDTMMODEL> 			<http://www.assero.co.uk/BusinessDomain#includesVariable> 			<http://www.assero.co.uk/MDRModels/CDISC/V1#M-CDISC_SDTMMODEL_xxORRESU> . 
<http://www.assero.co.uk/MDRModels/CDISC/V1#M-CDISC_SDTMMODEL> 			<http://www.assero.co.uk/BusinessDomain#includesVariable> 			<http://www.assero.co.uk/MDRModels/CDISC/V1#M-CDISC_SDTMMODEL_xxORNRLO> . 
<http://www.assero.co.uk/MDRModels/CDISC/V1#M-CDISC_SDTMMODEL> 			<http://www.assero.co.uk/BusinessDomain#includesVariable> 			<http://www.assero.co.uk/MDRModels/CDISC/V1#M-CDISC_SDTMMODEL_xxORNRHI> . 
<http://www.assero.co.uk/MDRModels/CDISC/V1#M-CDISC_SDTMMODEL> 			<http://www.assero.co.uk/BusinessDomain#includesVariable> 			<http://www.assero.co.uk/MDRModels/CDISC/V1#M-CDISC_SDTMMODEL_xxSTRESC> . 
<http://www.assero.co.uk/MDRModels/CDISC/V1#M-CDISC_SDTMMODEL> 			<http://www.assero.co.uk/BusinessDomain#includesVariable> 			<http://www.assero.co.uk/MDRModels/CDISC/V1#M-CDISC_SDTMMODEL_xxSTRESN> . 
<http://www.assero.co.uk/MDRModels/CDISC/V1#M-CDISC_SDTMMODEL> 			<http://www.assero.co.uk/BusinessDomain#includesVariable> 			<http://www.assero.co.uk/MDRModels/CDISC/V1#M-CDISC_SDTMMODEL_xxSTRESU> . 
<http://www.assero.co.uk/MDRModels/CDISC/V1#M-CDISC_SDTMMODEL> 			<http://www.assero.co.uk/BusinessDomain#includesVariable> 			<http://www.assero.co.uk/MDRModels/CDISC/V1#M-CDISC_SDTMMODEL_xxSTNRLO> . 
<http://www.assero.co.uk/MDRModels/CDISC/V1#M-CDISC_SDTMMODEL> 			<http://www.assero.co.uk/BusinessDomain#includesVariable> 			<http://www.assero.co.uk/MDRModels/CDISC/V1#M-CDISC_SDTMMODEL_xxSTNRHI> . 
<http://www.assero.co.uk/MDRModels/CDISC/V1#M-CDISC_SDTMMODEL> 			<http://www.assero.co.uk/BusinessDomain#includesVariable> 			<http://www.assero.co.uk/MDRModels/CDISC/V1#M-CDISC_SDTMMODEL_xxSTNRC> . 
<http://www.assero.co.uk/MDRModels/CDISC/V1#M-CDISC_SDTMMODEL> 			<http://www.assero.co.uk/BusinessDomain#includesVariable> 			<http://www.assero.co.uk/MDRModels/CDISC/V1#M-CDISC_SDTMMODEL_xxNRIND> . 
<http://www.assero.co.uk/MDRModels/CDISC/V1#M-CDISC_SDTMMODEL> 			<http://www.assero.co.uk/BusinessDomain#includesVariable> 			<http://www.assero.co.uk/MDRModels/CDISC/V1#M-CDISC_SDTMMODEL_xxRESCAT> . 
<http://www.assero.co.uk/MDRModels/CDISC/V1#M-CDISC_SDTMMODEL> 			<http://www.assero.co.uk/BusinessDomain#includesVariable> 			<http://www.assero.co.uk/MDRModels/CDISC/V1#M-CDISC_SDTMMODEL_xxXFN> . 
<http://www.assero.co.uk/MDRModels/CDISC/V1#M-CDISC_SDTMMODEL> 			<http://www.assero.co.uk/BusinessDomain#includesVariable> 			<http://www.assero.co.uk/MDRModels/CDISC/V1#M-CDISC_SDTMMODEL_xxNAM> . 
<http://www.assero.co.uk/MDRModels/CDISC/V1#M-CDISC_SDTMMODEL> 			<http://www.assero.co.uk/BusinessDomain#includesVariable> 			<http://www.assero.co.uk/MDRModels/CDISC/V1#M-CDISC_SDTMMODEL_xxLOINC> . 
<http://www.assero.co.uk/MDRModels/CDISC/V1#M-CDISC_SDTMMODEL> 			<http://www.assero.co.uk/BusinessDomain#includesVariable> 			<http://www.assero.co.uk/MDRModels/CDISC/V1#M-CDISC_SDTMMODEL_xxSPEC> . 
<http://www.assero.co.uk/MDRModels/CDISC/V1#M-CDISC_SDTMMODEL> 			<http://www.assero.co.uk/BusinessDomain#includesVariable> 			<http://www.assero.co.uk/MDRModels/CDISC/V1#M-CDISC_SDTMMODEL_xxSPCCND> . 
<http://www.assero.co.uk/MDRModels/CDISC/V1#M-CDISC_SDTMMODEL> 			<http://www.assero.co.uk/BusinessDomain#includesVariable> 			<http://www.assero.co.uk/MDRModels/CDISC/V1#M-CDISC_SDTMMODEL_xxMETHOD> . 
<http://www.assero.co.uk/MDRModels/CDISC/V1#M-CDISC_SDTMMODEL> 			<http://www.assero.co.uk/BusinessDomain#includesVariable> 			<http://www.assero.co.uk/MDRModels/CDISC/V1#M-CDISC_SDTMMODEL_xxBLFL> . 
<http://www.assero.co.uk/MDRModels/CDISC/V1#M-CDISC_SDTMMODEL> 			<http://www.assero.co.uk/BusinessDomain#includesVariable> 			<http://www.assero.co.uk/MDRModels/CDISC/V1#M-CDISC_SDTMMODEL_xxFAST> . 
<http://www.assero.co.uk/MDRModels/CDISC/V1#M-CDISC_SDTMMODEL> 			<http://www.assero.co.uk/BusinessDomain#includesVariable> 			<http://www.assero.co.uk/MDRModels/CDISC/V1#M-CDISC_SDTMMODEL_xxDRVFL> . 
<http://www.assero.co.uk/MDRModels/CDISC/V1#M-CDISC_SDTMMODEL> 			<http://www.assero.co.uk/BusinessDomain#includesVariable> 			<http://www.assero.co.uk/MDRModels/CDISC/V1#M-CDISC_SDTMMODEL_xxEVAL> . 
<http://www.assero.co.uk/MDRModels/CDISC/V1#M-CDISC_SDTMMODEL> 			<http://www.assero.co.uk/BusinessDomain#includesVariable> 			<http://www.assero.co.uk/MDRModels/CDISC/V1#M-CDISC_SDTMMODEL_xxDTHREL> . 
<http://www.assero.co.uk/MDRModels/CDISC/V1#M-CDISC_SDTMMODEL> 			<http://www.assero.co.uk/BusinessDomain#includesVariable> 			<http://www.assero.co.uk/MDRModels/CDISC/V1#M-CDISC_SDTMMODEL_xxLLOQ> . 
<http://www.assero.co.uk/MDRModels/CDISC/V1#M-CDISC_SDTMMODEL> 			<http://www.assero.co.uk/BusinessDomain#includesVariable> 			<http://www.assero.co.uk/MDRModels/CDISC/V1#M-CDISC_SDTMMODEL_xxOBJ> . 
<http://www.assero.co.uk/MDRModels/CDISC/V1#M-CDISC_SDTMMODEL> 			<http://www.assero.co.uk/BusinessDomain#includesVariable> 			<http://www.assero.co.uk/MDRModels/CDISC/V1#M-CDISC_SDTMMODEL_xxTRT> . 
<http://www.assero.co.uk/MDRModels/CDISC/V1#M-CDISC_SDTMMODEL> 			<http://www.assero.co.uk/BusinessDomain#includesVariable> 			<http://www.assero.co.uk/MDRModels/CDISC/V1#M-CDISC_SDTMMODEL_xxINDC> . 
<http://www.assero.co.uk/MDRModels/CDISC/V1#M-CDISC_SDTMMODEL> 			<http://www.assero.co.uk/BusinessDomain#includesVariable> 			<http://www.assero.co.uk/MDRModels/CDISC/V1#M-CDISC_SDTMMODEL_xxCLAS> . 
<http://www.assero.co.uk/MDRModels/CDISC/V1#M-CDISC_SDTMMODEL> 			<http://www.assero.co.uk/BusinessDomain#includesVariable> 			<http://www.assero.co.uk/MDRModels/CDISC/V1#M-CDISC_SDTMMODEL_xxCLASCD> . 
<http://www.assero.co.uk/MDRModels/CDISC/V1#M-CDISC_SDTMMODEL> 			<http://www.assero.co.uk/BusinessDomain#includesVariable> 			<http://www.assero.co.uk/MDRModels/CDISC/V1#M-CDISC_SDTMMODEL_xxDOSE> . 
<http://www.assero.co.uk/MDRModels/CDISC/V1#M-CDISC_SDTMMODEL> 			<http://www.assero.co.uk/BusinessDomain#includesVariable> 			<http://www.assero.co.uk/MDRModels/CDISC/V1#M-CDISC_SDTMMODEL_xxDOSTXT> . 
<http://www.assero.co.uk/MDRModels/CDISC/V1#M-CDISC_SDTMMODEL> 			<http://www.assero.co.uk/BusinessDomain#includesVariable> 			<http://www.assero.co.uk/MDRModels/CDISC/V1#M-CDISC_SDTMMODEL_xxDOSU> . 
<http://www.assero.co.uk/MDRModels/CDISC/V1#M-CDISC_SDTMMODEL> 			<http://www.assero.co.uk/BusinessDomain#includesVariable> 			<http://www.assero.co.uk/MDRModels/CDISC/V1#M-CDISC_SDTMMODEL_xxDOSFRM> . 
<http://www.assero.co.uk/MDRModels/CDISC/V1#M-CDISC_SDTMMODEL> 			<http://www.assero.co.uk/BusinessDomain#includesVariable> 			<http://www.assero.co.uk/MDRModels/CDISC/V1#M-CDISC_SDTMMODEL_xxDOSFRQ> . 
<http://www.assero.co.uk/MDRModels/CDISC/V1#M-CDISC_SDTMMODEL> 			<http://www.assero.co.uk/BusinessDomain#includesVariable> 			<http://www.assero.co.uk/MDRModels/CDISC/V1#M-CDISC_SDTMMODEL_xxDOSTOT> . 
<http://www.assero.co.uk/MDRModels/CDISC/V1#M-CDISC_SDTMMODEL> 			<http://www.assero.co.uk/BusinessDomain#includesVariable> 			<http://www.assero.co.uk/MDRModels/CDISC/V1#M-CDISC_SDTMMODEL_xxDOSRGM> . 
<http://www.assero.co.uk/MDRModels/CDISC/V1#M-CDISC_SDTMMODEL> 			<http://www.assero.co.uk/BusinessDomain#includesVariable> 			<http://www.assero.co.uk/MDRModels/CDISC/V1#M-CDISC_SDTMMODEL_xxROUTE> . 
<http://www.assero.co.uk/MDRModels/CDISC/V1#M-CDISC_SDTMMODEL> 			<http://www.assero.co.uk/BusinessDomain#includesVariable> 			<http://www.assero.co.uk/MDRModels/CDISC/V1#M-CDISC_SDTMMODEL_xxLOT> . 
<http://www.assero.co.uk/MDRModels/CDISC/V1#M-CDISC_SDTMMODEL> 			<http://www.assero.co.uk/BusinessDomain#includesVariable> 			<http://www.assero.co.uk/MDRModels/CDISC/V1#M-CDISC_SDTMMODEL_xxTRTV> . 
<http://www.assero.co.uk/MDRModels/CDISC/V1#M-CDISC_SDTMMODEL> 			<http://www.assero.co.uk/BusinessDomain#includesVariable> 			<http://www.assero.co.uk/MDRModels/CDISC/V1#M-CDISC_SDTMMODEL_xxVAMT> . 
<http://www.assero.co.uk/MDRModels/CDISC/V1#M-CDISC_SDTMMODEL> 			<http://www.assero.co.uk/BusinessDomain#includesVariable> 			<http://www.assero.co.uk/MDRModels/CDISC/V1#M-CDISC_SDTMMODEL_xxVAMTU> . 
<http://www.assero.co.uk/MDRModels/CDISC/V1#M-CDISC_SDTMMODEL> 			<http://www.assero.co.uk/BusinessDomain#includesVariable> 			<http://www.assero.co.uk/MDRModels/CDISC/V1#M-CDISC_SDTMMODEL_xxADJ> . 
<http://www.assero.co.uk/MDRModels/CDISC/V1#M-CDISC_SDTMMODEL_TR1> 			<http://www.w3.org/1999/02/22-rdf-syntax-ns#type> 			<http://www.assero.co.uk/BusinessOperational#TReference> . 
<http://www.assero.co.uk/MDRModels/CDISC/V1#M-CDISC_SDTMMODEL_TR1> 			<http://www.assero.co.uk/BusinessOperational#hasTabulation> 			<http://www.assero.co.uk/MDRModels/CDISC/V1#M-CDISC_SDTMMODEL_EVENTS> . 
<http://www.assero.co.uk/MDRModels/CDISC/V1#M-CDISC_SDTMMODEL_TR1> 			<http://www.assero.co.uk/BusinessOperational#ordinal> 			"1" . 
<http://www.assero.co.uk/MDRModels/CDISC/V1#M-CDISC_SDTMMODEL_TR1> 			<http://www.assero.co.uk/BusinessOperational#enabled> 			"true" . 
<http://www.assero.co.uk/MDRModels/CDISC/V1#M-CDISC_SDTMMODEL_TR1> 			<http://www.assero.co.uk/BusinessOperational#optional> 			"false" . 
<http://www.assero.co.uk/MDRModels/CDISC/V1#M-CDISC_SDTMMODEL_EVENTS> 			<http://www.w3.org/1999/02/22-rdf-syntax-ns#type> 			<http://www.assero.co.uk/BusinessDomain#ClassDomain> . 
<http://www.assero.co.uk/MDRModels/CDISC/V1#M-CDISC_SDTMMODEL_EVENTS> 			<http://www.w3.org/2000/01/rdf-schema#label> 			"Events" . 
<http://www.assero.co.uk/MDRModels/CDISC/V1#M-CDISC_SDTMMODEL_EVENTS> 			<http://www.assero.co.uk/ISO11179Types#creationDate> 			"2008-11-12" . 
<http://www.assero.co.uk/MDRModels/CDISC/V1#M-CDISC_SDTMMODEL_EVENTS> 			<http://www.assero.co.uk/ISO11179Types#lastChangeDate> 			"2016-07-20T14:20:31 01:00" . 
<http://www.assero.co.uk/MDRModels/CDISC/V1#M-CDISC_SDTMMODEL_EVENTS> 			<http://www.assero.co.uk/ISO11179Types#changeDescription> 			"" . 
<http://www.assero.co.uk/MDRModels/CDISC/V1#M-CDISC_SDTMMODEL_EVENTS> 			<http://www.assero.co.uk/ISO11179Types#explanatoryComment> 			"" . 
<http://www.assero.co.uk/MDRModels/CDISC/V1#M-CDISC_SDTMMODEL_EVENTS> 			<http://www.assero.co.uk/ISO11179Types#origin> 			"" . 
<http://www.assero.co.uk/MDRModels/CDISC/V1#M-CDISC_SDTMMODEL_EVENTS> 			<http://www.assero.co.uk/ISO11179Identification#hasIdentifier> 			<http://www.assero.co.uk/MDRItems#SI-CDISC_SDTMMODEL_EVENTS-1> . 
<http://www.assero.co.uk/MDRModels/CDISC/V1#M-CDISC_SDTMMODEL_EVENTS> 			<http://www.assero.co.uk/ISO11179Registration#hasState> 			<http://www.assero.co.uk/MDRItems#RS-CDISC_SDTMMODEL_EVENTS-1> . 
<http://www.assero.co.uk/MDRModels/CDISC/V1#M-CDISC_SDTMMODEL_EVENTS> 			<http://www.assero.co.uk/BusinessDomain#includesColumn> 			<http://www.assero.co.uk/MDRModels/CDISC/V1#M-CDISC_SDTMMODEL_EVENTS_STUDYID> . 
<http://www.assero.co.uk/MDRModels/CDISC/V1#M-CDISC_SDTMMODEL_EVENTS> 			<http://www.assero.co.uk/BusinessDomain#includesColumn> 			<http://www.assero.co.uk/MDRModels/CDISC/V1#M-CDISC_SDTMMODEL_EVENTS_DOMAIN> . 
<http://www.assero.co.uk/MDRModels/CDISC/V1#M-CDISC_SDTMMODEL_EVENTS> 			<http://www.assero.co.uk/BusinessDomain#includesColumn> 			<http://www.assero.co.uk/MDRModels/CDISC/V1#M-CDISC_SDTMMODEL_EVENTS_USUBJID> . 
<http://www.assero.co.uk/MDRModels/CDISC/V1#M-CDISC_SDTMMODEL_EVENTS> 			<http://www.assero.co.uk/BusinessDomain#includesColumn> 			<http://www.assero.co.uk/MDRModels/CDISC/V1#M-CDISC_SDTMMODEL_EVENTS_xxSEQ> . 
<http://www.assero.co.uk/MDRModels/CDISC/V1#M-CDISC_SDTMMODEL_EVENTS> 			<http://www.assero.co.uk/BusinessDomain#includesColumn> 			<http://www.assero.co.uk/MDRModels/CDISC/V1#M-CDISC_SDTMMODEL_EVENTS_xxGRPID> . 
<http://www.assero.co.uk/MDRModels/CDISC/V1#M-CDISC_SDTMMODEL_EVENTS> 			<http://www.assero.co.uk/BusinessDomain#includesColumn> 			<http://www.assero.co.uk/MDRModels/CDISC/V1#M-CDISC_SDTMMODEL_EVENTS_xxREFID> . 
<http://www.assero.co.uk/MDRModels/CDISC/V1#M-CDISC_SDTMMODEL_EVENTS> 			<http://www.assero.co.uk/BusinessDomain#includesColumn> 			<http://www.assero.co.uk/MDRModels/CDISC/V1#M-CDISC_SDTMMODEL_EVENTS_xxSPID> . 
<http://www.assero.co.uk/MDRModels/CDISC/V1#M-CDISC_SDTMMODEL_EVENTS> 			<http://www.assero.co.uk/BusinessDomain#includesColumn> 			<http://www.assero.co.uk/MDRModels/CDISC/V1#M-CDISC_SDTMMODEL_EVENTS_xxTERM> . 
<http://www.assero.co.uk/MDRModels/CDISC/V1#M-CDISC_SDTMMODEL_EVENTS> 			<http://www.assero.co.uk/BusinessDomain#includesColumn> 			<http://www.assero.co.uk/MDRModels/CDISC/V1#M-CDISC_SDTMMODEL_EVENTS_xxMODIFY> . 
<http://www.assero.co.uk/MDRModels/CDISC/V1#M-CDISC_SDTMMODEL_EVENTS> 			<http://www.assero.co.uk/BusinessDomain#includesColumn> 			<http://www.assero.co.uk/MDRModels/CDISC/V1#M-CDISC_SDTMMODEL_EVENTS_xxDECOD> . 
<http://www.assero.co.uk/MDRModels/CDISC/V1#M-CDISC_SDTMMODEL_EVENTS> 			<http://www.assero.co.uk/BusinessDomain#includesColumn> 			<http://www.assero.co.uk/MDRModels/CDISC/V1#M-CDISC_SDTMMODEL_EVENTS_xxCAT> . 
<http://www.assero.co.uk/MDRModels/CDISC/V1#M-CDISC_SDTMMODEL_EVENTS> 			<http://www.assero.co.uk/BusinessDomain#includesColumn> 			<http://www.assero.co.uk/MDRModels/CDISC/V1#M-CDISC_SDTMMODEL_EVENTS_xxSCAT> . 
<http://www.assero.co.uk/MDRModels/CDISC/V1#M-CDISC_SDTMMODEL_EVENTS> 			<http://www.assero.co.uk/BusinessDomain#includesColumn> 			<http://www.assero.co.uk/MDRModels/CDISC/V1#M-CDISC_SDTMMODEL_EVENTS_xxPRESP> . 
<http://www.assero.co.uk/MDRModels/CDISC/V1#M-CDISC_SDTMMODEL_EVENTS> 			<http://www.assero.co.uk/BusinessDomain#includesColumn> 			<http://www.assero.co.uk/MDRModels/CDISC/V1#M-CDISC_SDTMMODEL_EVENTS_xxOCCUR> . 
<http://www.assero.co.uk/MDRModels/CDISC/V1#M-CDISC_SDTMMODEL_EVENTS> 			<http://www.assero.co.uk/BusinessDomain#includesColumn> 			<http://www.assero.co.uk/MDRModels/CDISC/V1#M-CDISC_SDTMMODEL_EVENTS_xxSTAT> . 
<http://www.assero.co.uk/MDRModels/CDISC/V1#M-CDISC_SDTMMODEL_EVENTS> 			<http://www.assero.co.uk/BusinessDomain#includesColumn> 			<http://www.assero.co.uk/MDRModels/CDISC/V1#M-CDISC_SDTMMODEL_EVENTS_xxREASND> . 
<http://www.assero.co.uk/MDRModels/CDISC/V1#M-CDISC_SDTMMODEL_EVENTS> 			<http://www.assero.co.uk/BusinessDomain#includesColumn> 			<http://www.assero.co.uk/MDRModels/CDISC/V1#M-CDISC_SDTMMODEL_EVENTS_xxBODSYS> . 
<http://www.assero.co.uk/MDRModels/CDISC/V1#M-CDISC_SDTMMODEL_EVENTS> 			<http://www.assero.co.uk/BusinessDomain#includesColumn> 			<http://www.assero.co.uk/MDRModels/CDISC/V1#M-CDISC_SDTMMODEL_EVENTS_xxLOC> . 
<http://www.assero.co.uk/MDRModels/CDISC/V1#M-CDISC_SDTMMODEL_EVENTS> 			<http://www.assero.co.uk/BusinessDomain#includesColumn> 			<http://www.assero.co.uk/MDRModels/CDISC/V1#M-CDISC_SDTMMODEL_EVENTS_xxSEV> . 
<http://www.assero.co.uk/MDRModels/CDISC/V1#M-CDISC_SDTMMODEL_EVENTS> 			<http://www.assero.co.uk/BusinessDomain#includesColumn> 			<http://www.assero.co.uk/MDRModels/CDISC/V1#M-CDISC_SDTMMODEL_EVENTS_xxSER> . 
<http://www.assero.co.uk/MDRModels/CDISC/V1#M-CDISC_SDTMMODEL_EVENTS> 			<http://www.assero.co.uk/BusinessDomain#includesColumn> 			<http://www.assero.co.uk/MDRModels/CDISC/V1#M-CDISC_SDTMMODEL_EVENTS_xxACN> . 
<http://www.assero.co.uk/MDRModels/CDISC/V1#M-CDISC_SDTMMODEL_EVENTS> 			<http://www.assero.co.uk/BusinessDomain#includesColumn> 			<http://www.assero.co.uk/MDRModels/CDISC/V1#M-CDISC_SDTMMODEL_EVENTS_xxACNOTH> . 
<http://www.assero.co.uk/MDRModels/CDISC/V1#M-CDISC_SDTMMODEL_EVENTS> 			<http://www.assero.co.uk/BusinessDomain#includesColumn> 			<http://www.assero.co.uk/MDRModels/CDISC/V1#M-CDISC_SDTMMODEL_EVENTS_xxREL> . 
<http://www.assero.co.uk/MDRModels/CDISC/V1#M-CDISC_SDTMMODEL_EVENTS> 			<http://www.assero.co.uk/BusinessDomain#includesColumn> 			<http://www.assero.co.uk/MDRModels/CDISC/V1#M-CDISC_SDTMMODEL_EVENTS_xxRELNST> . 
<http://www.assero.co.uk/MDRModels/CDISC/V1#M-CDISC_SDTMMODEL_EVENTS> 			<http://www.assero.co.uk/BusinessDomain#includesColumn> 			<http://www.assero.co.uk/MDRModels/CDISC/V1#M-CDISC_SDTMMODEL_EVENTS_xxPATT> . 
<http://www.assero.co.uk/MDRModels/CDISC/V1#M-CDISC_SDTMMODEL_EVENTS> 			<http://www.assero.co.uk/BusinessDomain#includesColumn> 			<http://www.assero.co.uk/MDRModels/CDISC/V1#M-CDISC_SDTMMODEL_EVENTS_xxOUT> . 
<http://www.assero.co.uk/MDRModels/CDISC/V1#M-CDISC_SDTMMODEL_EVENTS> 			<http://www.assero.co.uk/BusinessDomain#includesColumn> 			<http://www.assero.co.uk/MDRModels/CDISC/V1#M-CDISC_SDTMMODEL_EVENTS_xxSCAN> . 
<http://www.assero.co.uk/MDRModels/CDISC/V1#M-CDISC_SDTMMODEL_EVENTS> 			<http://www.assero.co.uk/BusinessDomain#includesColumn> 			<http://www.assero.co.uk/MDRModels/CDISC/V1#M-CDISC_SDTMMODEL_EVENTS_xxSCONG> . 
<http://www.assero.co.uk/MDRModels/CDISC/V1#M-CDISC_SDTMMODEL_EVENTS> 			<http://www.assero.co.uk/BusinessDomain#includesColumn> 			<http://www.assero.co.uk/MDRModels/CDISC/V1#M-CDISC_SDTMMODEL_EVENTS_xxSDISAB> . 
<http://www.assero.co.uk/MDRModels/CDISC/V1#M-CDISC_SDTMMODEL_EVENTS> 			<http://www.assero.co.uk/BusinessDomain#includesColumn> 			<http://www.assero.co.uk/MDRModels/CDISC/V1#M-CDISC_SDTMMODEL_EVENTS_xxSDTH> . 
<http://www.assero.co.uk/MDRModels/CDISC/V1#M-CDISC_SDTMMODEL_EVENTS> 			<http://www.assero.co.uk/BusinessDomain#includesColumn> 			<http://www.assero.co.uk/MDRModels/CDISC/V1#M-CDISC_SDTMMODEL_EVENTS_xxSHOSP> . 
<http://www.assero.co.uk/MDRModels/CDISC/V1#M-CDISC_SDTMMODEL_EVENTS> 			<http://www.assero.co.uk/BusinessDomain#includesColumn> 			<http://www.assero.co.uk/MDRModels/CDISC/V1#M-CDISC_SDTMMODEL_EVENTS_xxSLIFE> . 
<http://www.assero.co.uk/MDRModels/CDISC/V1#M-CDISC_SDTMMODEL_EVENTS> 			<http://www.assero.co.uk/BusinessDomain#includesColumn> 			<http://www.assero.co.uk/MDRModels/CDISC/V1#M-CDISC_SDTMMODEL_EVENTS_xxSOD> . 
<http://www.assero.co.uk/MDRModels/CDISC/V1#M-CDISC_SDTMMODEL_EVENTS> 			<http://www.assero.co.uk/BusinessDomain#includesColumn> 			<http://www.assero.co.uk/MDRModels/CDISC/V1#M-CDISC_SDTMMODEL_EVENTS_xxSMIE> . 
<http://www.assero.co.uk/MDRModels/CDISC/V1#M-CDISC_SDTMMODEL_EVENTS> 			<http://www.assero.co.uk/BusinessDomain#includesColumn> 			<http://www.assero.co.uk/MDRModels/CDISC/V1#M-CDISC_SDTMMODEL_EVENTS_xxCONTRT> . 
<http://www.assero.co.uk/MDRModels/CDISC/V1#M-CDISC_SDTMMODEL_EVENTS> 			<http://www.assero.co.uk/BusinessDomain#includesColumn> 			<http://www.assero.co.uk/MDRModels/CDISC/V1#M-CDISC_SDTMMODEL_EVENTS_xxTOX> . 
<http://www.assero.co.uk/MDRModels/CDISC/V1#M-CDISC_SDTMMODEL_EVENTS> 			<http://www.assero.co.uk/BusinessDomain#includesColumn> 			<http://www.assero.co.uk/MDRModels/CDISC/V1#M-CDISC_SDTMMODEL_EVENTS_xxTOXGR> . 
<http://www.assero.co.uk/MDRModels/CDISC/V1#M-CDISC_SDTMMODEL_EVENTS> 			<http://www.assero.co.uk/BusinessDomain#includesColumn> 			<http://www.assero.co.uk/MDRModels/CDISC/V1#M-CDISC_SDTMMODEL_EVENTS_VISITNUM> . 
<http://www.assero.co.uk/MDRModels/CDISC/V1#M-CDISC_SDTMMODEL_EVENTS> 			<http://www.assero.co.uk/BusinessDomain#includesColumn> 			<http://www.assero.co.uk/MDRModels/CDISC/V1#M-CDISC_SDTMMODEL_EVENTS_VISIT> . 
<http://www.assero.co.uk/MDRModels/CDISC/V1#M-CDISC_SDTMMODEL_EVENTS> 			<http://www.assero.co.uk/BusinessDomain#includesColumn> 			<http://www.assero.co.uk/MDRModels/CDISC/V1#M-CDISC_SDTMMODEL_EVENTS_VISITDY> . 
<http://www.assero.co.uk/MDRModels/CDISC/V1#M-CDISC_SDTMMODEL_EVENTS> 			<http://www.assero.co.uk/BusinessDomain#includesColumn> 			<http://www.assero.co.uk/MDRModels/CDISC/V1#M-CDISC_SDTMMODEL_EVENTS_TAETORD> . 
<http://www.assero.co.uk/MDRModels/CDISC/V1#M-CDISC_SDTMMODEL_EVENTS> 			<http://www.assero.co.uk/BusinessDomain#includesColumn> 			<http://www.assero.co.uk/MDRModels/CDISC/V1#M-CDISC_SDTMMODEL_EVENTS_EPOCH> . 
<http://www.assero.co.uk/MDRModels/CDISC/V1#M-CDISC_SDTMMODEL_EVENTS> 			<http://www.assero.co.uk/BusinessDomain#includesColumn> 			<http://www.assero.co.uk/MDRModels/CDISC/V1#M-CDISC_SDTMMODEL_EVENTS_xxDTC> . 
<http://www.assero.co.uk/MDRModels/CDISC/V1#M-CDISC_SDTMMODEL_EVENTS> 			<http://www.assero.co.uk/BusinessDomain#includesColumn> 			<http://www.assero.co.uk/MDRModels/CDISC/V1#M-CDISC_SDTMMODEL_EVENTS_xxSTDTC> . 
<http://www.assero.co.uk/MDRModels/CDISC/V1#M-CDISC_SDTMMODEL_EVENTS> 			<http://www.assero.co.uk/BusinessDomain#includesColumn> 			<http://www.assero.co.uk/MDRModels/CDISC/V1#M-CDISC_SDTMMODEL_EVENTS_xxENDTC> . 
<http://www.assero.co.uk/MDRModels/CDISC/V1#M-CDISC_SDTMMODEL_EVENTS> 			<http://www.assero.co.uk/BusinessDomain#includesColumn> 			<http://www.assero.co.uk/MDRModels/CDISC/V1#M-CDISC_SDTMMODEL_EVENTS_xxDY> . 
<http://www.assero.co.uk/MDRModels/CDISC/V1#M-CDISC_SDTMMODEL_EVENTS> 			<http://www.assero.co.uk/BusinessDomain#includesColumn> 			<http://www.assero.co.uk/MDRModels/CDISC/V1#M-CDISC_SDTMMODEL_EVENTS_xxSTDY> . 
<http://www.assero.co.uk/MDRModels/CDISC/V1#M-CDISC_SDTMMODEL_EVENTS> 			<http://www.assero.co.uk/BusinessDomain#includesColumn> 			<http://www.assero.co.uk/MDRModels/CDISC/V1#M-CDISC_SDTMMODEL_EVENTS_xxENDY> . 
<http://www.assero.co.uk/MDRModels/CDISC/V1#M-CDISC_SDTMMODEL_EVENTS> 			<http://www.assero.co.uk/BusinessDomain#includesColumn> 			<http://www.assero.co.uk/MDRModels/CDISC/V1#M-CDISC_SDTMMODEL_EVENTS_xxDUR> . 
<http://www.assero.co.uk/MDRModels/CDISC/V1#M-CDISC_SDTMMODEL_EVENTS> 			<http://www.assero.co.uk/BusinessDomain#includesColumn> 			<http://www.assero.co.uk/MDRModels/CDISC/V1#M-CDISC_SDTMMODEL_EVENTS_xxTPT> . 
<http://www.assero.co.uk/MDRModels/CDISC/V1#M-CDISC_SDTMMODEL_EVENTS> 			<http://www.assero.co.uk/BusinessDomain#includesColumn> 			<http://www.assero.co.uk/MDRModels/CDISC/V1#M-CDISC_SDTMMODEL_EVENTS_xxTPTNUM> . 
<http://www.assero.co.uk/MDRModels/CDISC/V1#M-CDISC_SDTMMODEL_EVENTS> 			<http://www.assero.co.uk/BusinessDomain#includesColumn> 			<http://www.assero.co.uk/MDRModels/CDISC/V1#M-CDISC_SDTMMODEL_EVENTS_xxELTM> . 
<http://www.assero.co.uk/MDRModels/CDISC/V1#M-CDISC_SDTMMODEL_EVENTS> 			<http://www.assero.co.uk/BusinessDomain#includesColumn> 			<http://www.assero.co.uk/MDRModels/CDISC/V1#M-CDISC_SDTMMODEL_EVENTS_xxTPTREF> . 
<http://www.assero.co.uk/MDRModels/CDISC/V1#M-CDISC_SDTMMODEL_EVENTS> 			<http://www.assero.co.uk/BusinessDomain#includesColumn> 			<http://www.assero.co.uk/MDRModels/CDISC/V1#M-CDISC_SDTMMODEL_EVENTS_xxRFTDTC> . 
<http://www.assero.co.uk/MDRModels/CDISC/V1#M-CDISC_SDTMMODEL_EVENTS> 			<http://www.assero.co.uk/BusinessDomain#includesColumn> 			<http://www.assero.co.uk/MDRModels/CDISC/V1#M-CDISC_SDTMMODEL_EVENTS_xxSTRF> . 
<http://www.assero.co.uk/MDRModels/CDISC/V1#M-CDISC_SDTMMODEL_EVENTS> 			<http://www.assero.co.uk/BusinessDomain#includesColumn> 			<http://www.assero.co.uk/MDRModels/CDISC/V1#M-CDISC_SDTMMODEL_EVENTS_xxENRF> . 
<http://www.assero.co.uk/MDRModels/CDISC/V1#M-CDISC_SDTMMODEL_EVENTS> 			<http://www.assero.co.uk/BusinessDomain#includesColumn> 			<http://www.assero.co.uk/MDRModels/CDISC/V1#M-CDISC_SDTMMODEL_EVENTS_xxEVLINT> . 
<http://www.assero.co.uk/MDRModels/CDISC/V1#M-CDISC_SDTMMODEL_EVENTS> 			<http://www.assero.co.uk/BusinessDomain#includesColumn> 			<http://www.assero.co.uk/MDRModels/CDISC/V1#M-CDISC_SDTMMODEL_EVENTS_xxSTRTPT> . 
<http://www.assero.co.uk/MDRModels/CDISC/V1#M-CDISC_SDTMMODEL_EVENTS> 			<http://www.assero.co.uk/BusinessDomain#includesColumn> 			<http://www.assero.co.uk/MDRModels/CDISC/V1#M-CDISC_SDTMMODEL_EVENTS_xxSTTPT> . 
<http://www.assero.co.uk/MDRModels/CDISC/V1#M-CDISC_SDTMMODEL_EVENTS> 			<http://www.assero.co.uk/BusinessDomain#includesColumn> 			<http://www.assero.co.uk/MDRModels/CDISC/V1#M-CDISC_SDTMMODEL_EVENTS_xxENRTPT> . 
<http://www.assero.co.uk/MDRModels/CDISC/V1#M-CDISC_SDTMMODEL_EVENTS> 			<http://www.assero.co.uk/BusinessDomain#includesColumn> 			<http://www.assero.co.uk/MDRModels/CDISC/V1#M-CDISC_SDTMMODEL_EVENTS_xxENTPT> . 
<http://www.assero.co.uk/MDRModels/CDISC/V1#M-CDISC_SDTMMODEL_EVENTS> 			<http://www.assero.co.uk/BusinessDomain#domain_class> 			"Events" . 
<http://www.assero.co.uk/MDRModels/CDISC/V1#M-CDISC_SDTMMODEL_EVENTS_STUDYID> 			<http://www.w3.org/1999/02/22-rdf-syntax-ns#type> 			<http://www.assero.co.uk/BusinessDomain#ClassVariable> . 
<http://www.assero.co.uk/MDRModels/CDISC/V1#M-CDISC_SDTMMODEL_EVENTS_STUDYID> 			<http://www.w3.org/2000/01/rdf-schema#label> 			"Study Identifier" . 
<http://www.assero.co.uk/MDRModels/CDISC/V1#M-CDISC_SDTMMODEL_EVENTS_STUDYID> 			<http://www.assero.co.uk/BusinessDomain#basedOnVariable> 			<http://www.assero.co.uk/MDRModels/CDISC/V1#M-CDISC_SDTMMODEL_EVENTS_STUDYID_CR> . 
<http://www.assero.co.uk/MDRModels/CDISC/V1#M-CDISC_SDTMMODEL_EVENTS_STUDYID> 			<http://www.assero.co.uk/BusinessDomain#ordinal> 			"1" . 
<http://www.assero.co.uk/MDRModels/CDISC/V1#M-CDISC_SDTMMODEL_EVENTS_STUDYID_CR> 			<http://www.w3.org/1999/02/22-rdf-syntax-ns#type> 			<http://www.assero.co.uk/BusinessOperational#CReference> . 
<http://www.assero.co.uk/MDRModels/CDISC/V1#M-CDISC_SDTMMODEL_EVENTS_STUDYID_CR> 			<http://www.assero.co.uk/BusinessOperational#hasColumn> 			<http://www.assero.co.uk/MDRModels/CDISC/V1#M-CDISC_SDTMMODEL_STUDYID> . 
<http://www.assero.co.uk/MDRModels/CDISC/V1#M-CDISC_SDTMMODEL_EVENTS_STUDYID_CR> 			<http://www.assero.co.uk/BusinessOperational#ordinal> 			"1" . 
<http://www.assero.co.uk/MDRModels/CDISC/V1#M-CDISC_SDTMMODEL_EVENTS_STUDYID_CR> 			<http://www.assero.co.uk/BusinessOperational#enabled> 			"true" . 
<http://www.assero.co.uk/MDRModels/CDISC/V1#M-CDISC_SDTMMODEL_EVENTS_STUDYID_CR> 			<http://www.assero.co.uk/BusinessOperational#optional> 			"false" . 
<http://www.assero.co.uk/MDRModels/CDISC/V1#M-CDISC_SDTMMODEL_STUDYID> 			<http://www.w3.org/1999/02/22-rdf-syntax-ns#type> 			<http://www.assero.co.uk/BusinessDomain#ModelVariable> . 
<http://www.assero.co.uk/MDRModels/CDISC/V1#M-CDISC_SDTMMODEL_STUDYID> 			<http://www.w3.org/2000/01/rdf-schema#label> 			"Study Identifier" . 
<http://www.assero.co.uk/MDRModels/CDISC/V1#M-CDISC_SDTMMODEL_STUDYID> 			<http://www.assero.co.uk/BusinessDomain#classifiedAs> 			<http://www.assero.co.uk/MDRModels/CDISC/V1#M-CDISC_SDTMMODEL_C_IDENTIFIER> . 
<http://www.assero.co.uk/MDRModels/CDISC/V1#M-CDISC_SDTMMODEL_STUDYID> 			<http://www.assero.co.uk/BusinessDomain#typedAs> 			<http://www.assero.co.uk/MDRModels/CDISC/V1#M-CDISC_SDTMMODEL_DT_CHAR> . 
<http://www.assero.co.uk/MDRModels/CDISC/V1#M-CDISC_SDTMMODEL_STUDYID> 			<http://www.assero.co.uk/BusinessDomain#rule> 			"" . 
<http://www.assero.co.uk/MDRModels/CDISC/V1#M-CDISC_SDTMMODEL_STUDYID> 			<http://www.assero.co.uk/BusinessDomain#ordinal> 			"1" . 
<http://www.assero.co.uk/MDRModels/CDISC/V1#M-CDISC_SDTMMODEL_STUDYID> 			<http://www.assero.co.uk/BusinessDomain#name> 			"STUDYID" . 
<http://www.assero.co.uk/MDRModels/CDISC/V1#M-CDISC_SDTMMODEL_STUDYID> 			<http://www.assero.co.uk/BusinessDomain#prefixed> 			"false" . 
<http://www.assero.co.uk/MDRModels/CDISC/V1#M-CDISC_SDTMMODEL_STUDYID> 			<http://www.assero.co.uk/BusinessDomain#description> 			"Unique identifier for a study." . 
<http://www.assero.co.uk/MDRModels/CDISC/V1#M-CDISC_SDTMMODEL_C_IDENTIFIER> 			<http://www.w3.org/1999/02/22-rdf-syntax-ns#type> 			<http://www.assero.co.uk/BusinessDomain#VariableClassification> . 
<http://www.assero.co.uk/MDRModels/CDISC/V1#M-CDISC_SDTMMODEL_C_IDENTIFIER> 			<http://www.w3.org/2000/01/rdf-schema#label> 			"Identifier" . 
<http://www.assero.co.uk/MDRModels/CDISC/V1#M-CDISC_SDTMMODEL_DT_CHAR> 			<http://www.w3.org/1999/02/22-rdf-syntax-ns#type> 			<http://www.assero.co.uk/BusinessDomain#VariableType> . 
<http://www.assero.co.uk/MDRModels/CDISC/V1#M-CDISC_SDTMMODEL_DT_CHAR> 			<http://www.w3.org/2000/01/rdf-schema#label> 			"Char" . 
<http://www.assero.co.uk/MDRModels/CDISC/V1#M-CDISC_SDTMMODEL_EVENTS_DOMAIN> 			<http://www.w3.org/1999/02/22-rdf-syntax-ns#type> 			<http://www.assero.co.uk/BusinessDomain#ClassVariable> . 
<http://www.assero.co.uk/MDRModels/CDISC/V1#M-CDISC_SDTMMODEL_EVENTS_DOMAIN> 			<http://www.w3.org/2000/01/rdf-schema#label> 			"Domain Abbreviation" . 
<http://www.assero.co.uk/MDRModels/CDISC/V1#M-CDISC_SDTMMODEL_EVENTS_DOMAIN> 			<http://www.assero.co.uk/BusinessDomain#basedOnVariable> 			<http://www.assero.co.uk/MDRModels/CDISC/V1#M-CDISC_SDTMMODEL_EVENTS_DOMAIN_CR> . 
<http://www.assero.co.uk/MDRModels/CDISC/V1#M-CDISC_SDTMMODEL_EVENTS_DOMAIN> 			<http://www.assero.co.uk/BusinessDomain#ordinal> 			"2" . 
<http://www.assero.co.uk/MDRModels/CDISC/V1#M-CDISC_SDTMMODEL_EVENTS_DOMAIN_CR> 			<http://www.w3.org/1999/02/22-rdf-syntax-ns#type> 			<http://www.assero.co.uk/BusinessOperational#CReference> . 
<http://www.assero.co.uk/MDRModels/CDISC/V1#M-CDISC_SDTMMODEL_EVENTS_DOMAIN_CR> 			<http://www.assero.co.uk/BusinessOperational#hasColumn> 			<http://www.assero.co.uk/MDRModels/CDISC/V1#M-CDISC_SDTMMODEL_DOMAIN> . 
<http://www.assero.co.uk/MDRModels/CDISC/V1#M-CDISC_SDTMMODEL_EVENTS_DOMAIN_CR> 			<http://www.assero.co.uk/BusinessOperational#ordinal> 			"2" . 
<http://www.assero.co.uk/MDRModels/CDISC/V1#M-CDISC_SDTMMODEL_EVENTS_DOMAIN_CR> 			<http://www.assero.co.uk/BusinessOperational#enabled> 			"true" . 
<http://www.assero.co.uk/MDRModels/CDISC/V1#M-CDISC_SDTMMODEL_EVENTS_DOMAIN_CR> 			<http://www.assero.co.uk/BusinessOperational#optional> 			"false" . 
<http://www.assero.co.uk/MDRModels/CDISC/V1#M-CDISC_SDTMMODEL_DOMAIN> 			<http://www.w3.org/1999/02/22-rdf-syntax-ns#type> 			<http://www.assero.co.uk/BusinessDomain#ModelVariable> . 
<http://www.assero.co.uk/MDRModels/CDISC/V1#M-CDISC_SDTMMODEL_DOMAIN> 			<http://www.w3.org/2000/01/rdf-schema#label> 			"Domain Abbreviation" . 
<http://www.assero.co.uk/MDRModels/CDISC/V1#M-CDISC_SDTMMODEL_DOMAIN> 			<http://www.assero.co.uk/BusinessDomain#classifiedAs> 			<http://www.assero.co.uk/MDRModels/CDISC/V1#M-CDISC_SDTMMODEL_C_IDENTIFIER> . 
<http://www.assero.co.uk/MDRModels/CDISC/V1#M-CDISC_SDTMMODEL_DOMAIN> 			<http://www.assero.co.uk/BusinessDomain#typedAs> 			<http://www.assero.co.uk/MDRModels/CDISC/V1#M-CDISC_SDTMMODEL_DT_CHAR> . 
<http://www.assero.co.uk/MDRModels/CDISC/V1#M-CDISC_SDTMMODEL_DOMAIN> 			<http://www.assero.co.uk/BusinessDomain#rule> 			"" . 
<http://www.assero.co.uk/MDRModels/CDISC/V1#M-CDISC_SDTMMODEL_DOMAIN> 			<http://www.assero.co.uk/BusinessDomain#ordinal> 			"2" . 
<http://www.assero.co.uk/MDRModels/CDISC/V1#M-CDISC_SDTMMODEL_DOMAIN> 			<http://www.assero.co.uk/BusinessDomain#name> 			"DOMAIN" . 
<http://www.assero.co.uk/MDRModels/CDISC/V1#M-CDISC_SDTMMODEL_DOMAIN> 			<http://www.assero.co.uk/BusinessDomain#prefixed> 			"false" . 
<http://www.assero.co.uk/MDRModels/CDISC/V1#M-CDISC_SDTMMODEL_DOMAIN> 			<http://www.assero.co.uk/BusinessDomain#description> 			"Two-character abbreviation for the domain." . 
<http://www.assero.co.uk/MDRModels/CDISC/V1#M-CDISC_SDTMMODEL_EVENTS_USUBJID> 			<http://www.w3.org/1999/02/22-rdf-syntax-ns#type> 			<http://www.assero.co.uk/BusinessDomain#ClassVariable> . 
<http://www.assero.co.uk/MDRModels/CDISC/V1#M-CDISC_SDTMMODEL_EVENTS_USUBJID> 			<http://www.w3.org/2000/01/rdf-schema#label> 			"Unique Subject Identifier" . 
<http://www.assero.co.uk/MDRModels/CDISC/V1#M-CDISC_SDTMMODEL_EVENTS_USUBJID> 			<http://www.assero.co.uk/BusinessDomain#basedOnVariable> 			<http://www.assero.co.uk/MDRModels/CDISC/V1#M-CDISC_SDTMMODEL_EVENTS_USUBJID_CR> . 
<http://www.assero.co.uk/MDRModels/CDISC/V1#M-CDISC_SDTMMODEL_EVENTS_USUBJID> 			<http://www.assero.co.uk/BusinessDomain#ordinal> 			"3" . 
<http://www.assero.co.uk/MDRModels/CDISC/V1#M-CDISC_SDTMMODEL_EVENTS_USUBJID_CR> 			<http://www.w3.org/1999/02/22-rdf-syntax-ns#type> 			<http://www.assero.co.uk/BusinessOperational#CReference> . 
<http://www.assero.co.uk/MDRModels/CDISC/V1#M-CDISC_SDTMMODEL_EVENTS_USUBJID_CR> 			<http://www.assero.co.uk/BusinessOperational#hasColumn> 			<http://www.assero.co.uk/MDRModels/CDISC/V1#M-CDISC_SDTMMODEL_USUBJID> . 
<http://www.assero.co.uk/MDRModels/CDISC/V1#M-CDISC_SDTMMODEL_EVENTS_USUBJID_CR> 			<http://www.assero.co.uk/BusinessOperational#ordinal> 			"3" . 
<http://www.assero.co.uk/MDRModels/CDISC/V1#M-CDISC_SDTMMODEL_EVENTS_USUBJID_CR> 			<http://www.assero.co.uk/BusinessOperational#enabled> 			"true" . 
<http://www.assero.co.uk/MDRModels/CDISC/V1#M-CDISC_SDTMMODEL_EVENTS_USUBJID_CR> 			<http://www.assero.co.uk/BusinessOperational#optional> 			"false" . 
<http://www.assero.co.uk/MDRModels/CDISC/V1#M-CDISC_SDTMMODEL_USUBJID> 			<http://www.w3.org/1999/02/22-rdf-syntax-ns#type> 			<http://www.assero.co.uk/BusinessDomain#ModelVariable> . 
<http://www.assero.co.uk/MDRModels/CDISC/V1#M-CDISC_SDTMMODEL_USUBJID> 			<http://www.w3.org/2000/01/rdf-schema#label> 			"Unique Subject Identifier" . 
<http://www.assero.co.uk/MDRModels/CDISC/V1#M-CDISC_SDTMMODEL_USUBJID> 			<http://www.assero.co.uk/BusinessDomain#classifiedAs> 			<http://www.assero.co.uk/MDRModels/CDISC/V1#M-CDISC_SDTMMODEL_C_IDENTIFIER> . 
<http://www.assero.co.uk/MDRModels/CDISC/V1#M-CDISC_SDTMMODEL_USUBJID> 			<http://www.assero.co.uk/BusinessDomain#typedAs> 			<http://www.assero.co.uk/MDRModels/CDISC/V1#M-CDISC_SDTMMODEL_DT_CHAR> . 
<http://www.assero.co.uk/MDRModels/CDISC/V1#M-CDISC_SDTMMODEL_USUBJID> 			<http://www.assero.co.uk/BusinessDomain#rule> 			"" . 
<http://www.assero.co.uk/MDRModels/CDISC/V1#M-CDISC_SDTMMODEL_USUBJID> 			<http://www.assero.co.uk/BusinessDomain#ordinal> 			"3" . 
<http://www.assero.co.uk/MDRModels/CDISC/V1#M-CDISC_SDTMMODEL_USUBJID> 			<http://www.assero.co.uk/BusinessDomain#name> 			"USUBJID" . 
<http://www.assero.co.uk/MDRModels/CDISC/V1#M-CDISC_SDTMMODEL_USUBJID> 			<http://www.assero.co.uk/BusinessDomain#prefixed> 			"false" . 
<http://www.assero.co.uk/MDRModels/CDISC/V1#M-CDISC_SDTMMODEL_USUBJID> 			<http://www.assero.co.uk/BusinessDomain#description> 			"Identifier used to uniquely identify a subject across all studies for all applications or submissions involving the product." . 
<http://www.assero.co.uk/MDRModels/CDISC/V1#M-CDISC_SDTMMODEL_EVENTS_xxSEQ> 			<http://www.w3.org/1999/02/22-rdf-syntax-ns#type> 			<http://www.assero.co.uk/BusinessDomain#ClassVariable> . 
<http://www.assero.co.uk/MDRModels/CDISC/V1#M-CDISC_SDTMMODEL_EVENTS_xxSEQ> 			<http://www.w3.org/2000/01/rdf-schema#label> 			"Sequence Number" . 
<http://www.assero.co.uk/MDRModels/CDISC/V1#M-CDISC_SDTMMODEL_EVENTS_xxSEQ> 			<http://www.assero.co.uk/BusinessDomain#basedOnVariable> 			<http://www.assero.co.uk/MDRModels/CDISC/V1#M-CDISC_SDTMMODEL_EVENTS_xxSEQ_CR> . 
<http://www.assero.co.uk/MDRModels/CDISC/V1#M-CDISC_SDTMMODEL_EVENTS_xxSEQ> 			<http://www.assero.co.uk/BusinessDomain#ordinal> 			"4" . 
<http://www.assero.co.uk/MDRModels/CDISC/V1#M-CDISC_SDTMMODEL_EVENTS_xxSEQ_CR> 			<http://www.w3.org/1999/02/22-rdf-syntax-ns#type> 			<http://www.assero.co.uk/BusinessOperational#CReference> . 
<http://www.assero.co.uk/MDRModels/CDISC/V1#M-CDISC_SDTMMODEL_EVENTS_xxSEQ_CR> 			<http://www.assero.co.uk/BusinessOperational#hasColumn> 			<http://www.assero.co.uk/MDRModels/CDISC/V1#M-CDISC_SDTMMODEL_xxSEQ> . 
<http://www.assero.co.uk/MDRModels/CDISC/V1#M-CDISC_SDTMMODEL_EVENTS_xxSEQ_CR> 			<http://www.assero.co.uk/BusinessOperational#ordinal> 			"4" . 
<http://www.assero.co.uk/MDRModels/CDISC/V1#M-CDISC_SDTMMODEL_EVENTS_xxSEQ_CR> 			<http://www.assero.co.uk/BusinessOperational#enabled> 			"true" . 
<http://www.assero.co.uk/MDRModels/CDISC/V1#M-CDISC_SDTMMODEL_EVENTS_xxSEQ_CR> 			<http://www.assero.co.uk/BusinessOperational#optional> 			"false" . 
<http://www.assero.co.uk/MDRModels/CDISC/V1#M-CDISC_SDTMMODEL_xxSEQ> 			<http://www.w3.org/1999/02/22-rdf-syntax-ns#type> 			<http://www.assero.co.uk/BusinessDomain#ModelVariable> . 
<http://www.assero.co.uk/MDRModels/CDISC/V1#M-CDISC_SDTMMODEL_xxSEQ> 			<http://www.w3.org/2000/01/rdf-schema#label> 			"Sequence Number" . 
<http://www.assero.co.uk/MDRModels/CDISC/V1#M-CDISC_SDTMMODEL_xxSEQ> 			<http://www.assero.co.uk/BusinessDomain#classifiedAs> 			<http://www.assero.co.uk/MDRModels/CDISC/V1#M-CDISC_SDTMMODEL_C_IDENTIFIER> . 
<http://www.assero.co.uk/MDRModels/CDISC/V1#M-CDISC_SDTMMODEL_xxSEQ> 			<http://www.assero.co.uk/BusinessDomain#typedAs> 			<http://www.assero.co.uk/MDRModels/CDISC/V1#M-CDISC_SDTMMODEL_DT_NUM> . 
<http://www.assero.co.uk/MDRModels/CDISC/V1#M-CDISC_SDTMMODEL_xxSEQ> 			<http://www.assero.co.uk/BusinessDomain#rule> 			"" . 
<http://www.assero.co.uk/MDRModels/CDISC/V1#M-CDISC_SDTMMODEL_xxSEQ> 			<http://www.assero.co.uk/BusinessDomain#ordinal> 			"4" . 
<http://www.assero.co.uk/MDRModels/CDISC/V1#M-CDISC_SDTMMODEL_xxSEQ> 			<http://www.assero.co.uk/BusinessDomain#name> 			"--SEQ" . 
<http://www.assero.co.uk/MDRModels/CDISC/V1#M-CDISC_SDTMMODEL_xxSEQ> 			<http://www.assero.co.uk/BusinessDomain#prefixed> 			"true" . 
<http://www.assero.co.uk/MDRModels/CDISC/V1#M-CDISC_SDTMMODEL_xxSEQ> 			<http://www.assero.co.uk/BusinessDomain#description> 			"Sequence number to ensure uniqueness of records within a dataset for a subject (or within a parameter, in the case of the Trial Summary domain). May be any valid number (including decimals) and does not have to start at 1. Should be assigned to be in a consistent chronological order." . 
<http://www.assero.co.uk/MDRModels/CDISC/V1#M-CDISC_SDTMMODEL_DT_NUM> 			<http://www.w3.org/1999/02/22-rdf-syntax-ns#type> 			<http://www.assero.co.uk/BusinessDomain#VariableType> . 
<http://www.assero.co.uk/MDRModels/CDISC/V1#M-CDISC_SDTMMODEL_DT_NUM> 			<http://www.w3.org/2000/01/rdf-schema#label> 			"Num" . 
<http://www.assero.co.uk/MDRModels/CDISC/V1#M-CDISC_SDTMMODEL_EVENTS_xxGRPID> 			<http://www.w3.org/1999/02/22-rdf-syntax-ns#type> 			<http://www.assero.co.uk/BusinessDomain#ClassVariable> . 
<http://www.assero.co.uk/MDRModels/CDISC/V1#M-CDISC_SDTMMODEL_EVENTS_xxGRPID> 			<http://www.w3.org/2000/01/rdf-schema#label> 			"Group ID" . 
<http://www.assero.co.uk/MDRModels/CDISC/V1#M-CDISC_SDTMMODEL_EVENTS_xxGRPID> 			<http://www.assero.co.uk/BusinessDomain#basedOnVariable> 			<http://www.assero.co.uk/MDRModels/CDISC/V1#M-CDISC_SDTMMODEL_EVENTS_xxGRPID_CR> . 
<http://www.assero.co.uk/MDRModels/CDISC/V1#M-CDISC_SDTMMODEL_EVENTS_xxGRPID> 			<http://www.assero.co.uk/BusinessDomain#ordinal> 			"5" . 
<http://www.assero.co.uk/MDRModels/CDISC/V1#M-CDISC_SDTMMODEL_EVENTS_xxGRPID_CR> 			<http://www.w3.org/1999/02/22-rdf-syntax-ns#type> 			<http://www.assero.co.uk/BusinessOperational#CReference> . 
<http://www.assero.co.uk/MDRModels/CDISC/V1#M-CDISC_SDTMMODEL_EVENTS_xxGRPID_CR> 			<http://www.assero.co.uk/BusinessOperational#hasColumn> 			<http://www.assero.co.uk/MDRModels/CDISC/V1#M-CDISC_SDTMMODEL_xxGRPID> . 
<http://www.assero.co.uk/MDRModels/CDISC/V1#M-CDISC_SDTMMODEL_EVENTS_xxGRPID_CR> 			<http://www.assero.co.uk/BusinessOperational#ordinal> 			"5" . 
<http://www.assero.co.uk/MDRModels/CDISC/V1#M-CDISC_SDTMMODEL_EVENTS_xxGRPID_CR> 			<http://www.assero.co.uk/BusinessOperational#enabled> 			"true" . 
<http://www.assero.co.uk/MDRModels/CDISC/V1#M-CDISC_SDTMMODEL_EVENTS_xxGRPID_CR> 			<http://www.assero.co.uk/BusinessOperational#optional> 			"false" . 
<http://www.assero.co.uk/MDRModels/CDISC/V1#M-CDISC_SDTMMODEL_xxGRPID> 			<http://www.w3.org/1999/02/22-rdf-syntax-ns#type> 			<http://www.assero.co.uk/BusinessDomain#ModelVariable> . 
<http://www.assero.co.uk/MDRModels/CDISC/V1#M-CDISC_SDTMMODEL_xxGRPID> 			<http://www.w3.org/2000/01/rdf-schema#label> 			"Group ID" . 
<http://www.assero.co.uk/MDRModels/CDISC/V1#M-CDISC_SDTMMODEL_xxGRPID> 			<http://www.assero.co.uk/BusinessDomain#classifiedAs> 			<http://www.assero.co.uk/MDRModels/CDISC/V1#M-CDISC_SDTMMODEL_C_IDENTIFIER> . 
<http://www.assero.co.uk/MDRModels/CDISC/V1#M-CDISC_SDTMMODEL_xxGRPID> 			<http://www.assero.co.uk/BusinessDomain#typedAs> 			<http://www.assero.co.uk/MDRModels/CDISC/V1#M-CDISC_SDTMMODEL_DT_CHAR> . 
<http://www.assero.co.uk/MDRModels/CDISC/V1#M-CDISC_SDTMMODEL_xxGRPID> 			<http://www.assero.co.uk/BusinessDomain#rule> 			"" . 
<http://www.assero.co.uk/MDRModels/CDISC/V1#M-CDISC_SDTMMODEL_xxGRPID> 			<http://www.assero.co.uk/BusinessDomain#ordinal> 			"5" . 
<http://www.assero.co.uk/MDRModels/CDISC/V1#M-CDISC_SDTMMODEL_xxGRPID> 			<http://www.assero.co.uk/BusinessDomain#name> 			"--GRPID" . 
<http://www.assero.co.uk/MDRModels/CDISC/V1#M-CDISC_SDTMMODEL_xxGRPID> 			<http://www.assero.co.uk/BusinessDomain#prefixed> 			"true" . 
<http://www.assero.co.uk/MDRModels/CDISC/V1#M-CDISC_SDTMMODEL_xxGRPID> 			<http://www.assero.co.uk/BusinessDomain#description> 			"Optional group identifier, used to link together a block of related records within a subject in a domain. Also used to link together a block of related records in the Trial Summary dataset (Section 3.4)." . 
<http://www.assero.co.uk/MDRModels/CDISC/V1#M-CDISC_SDTMMODEL_EVENTS_xxREFID> 			<http://www.w3.org/1999/02/22-rdf-syntax-ns#type> 			<http://www.assero.co.uk/BusinessDomain#ClassVariable> . 
<http://www.assero.co.uk/MDRModels/CDISC/V1#M-CDISC_SDTMMODEL_EVENTS_xxREFID> 			<http://www.w3.org/2000/01/rdf-schema#label> 			"Reference ID" . 
<http://www.assero.co.uk/MDRModels/CDISC/V1#M-CDISC_SDTMMODEL_EVENTS_xxREFID> 			<http://www.assero.co.uk/BusinessDomain#basedOnVariable> 			<http://www.assero.co.uk/MDRModels/CDISC/V1#M-CDISC_SDTMMODEL_EVENTS_xxREFID_CR> . 
<http://www.assero.co.uk/MDRModels/CDISC/V1#M-CDISC_SDTMMODEL_EVENTS_xxREFID> 			<http://www.assero.co.uk/BusinessDomain#ordinal> 			"6" . 
<http://www.assero.co.uk/MDRModels/CDISC/V1#M-CDISC_SDTMMODEL_EVENTS_xxREFID_CR> 			<http://www.w3.org/1999/02/22-rdf-syntax-ns#type> 			<http://www.assero.co.uk/BusinessOperational#CReference> . 
<http://www.assero.co.uk/MDRModels/CDISC/V1#M-CDISC_SDTMMODEL_EVENTS_xxREFID_CR> 			<http://www.assero.co.uk/BusinessOperational#hasColumn> 			<http://www.assero.co.uk/MDRModels/CDISC/V1#M-CDISC_SDTMMODEL_xxREFID> . 
<http://www.assero.co.uk/MDRModels/CDISC/V1#M-CDISC_SDTMMODEL_EVENTS_xxREFID_CR> 			<http://www.assero.co.uk/BusinessOperational#ordinal> 			"6" . 
<http://www.assero.co.uk/MDRModels/CDISC/V1#M-CDISC_SDTMMODEL_EVENTS_xxREFID_CR> 			<http://www.assero.co.uk/BusinessOperational#enabled> 			"true" . 
<http://www.assero.co.uk/MDRModels/CDISC/V1#M-CDISC_SDTMMODEL_EVENTS_xxREFID_CR> 			<http://www.assero.co.uk/BusinessOperational#optional> 			"false" . 
<http://www.assero.co.uk/MDRModels/CDISC/V1#M-CDISC_SDTMMODEL_xxREFID> 			<http://www.w3.org/1999/02/22-rdf-syntax-ns#type> 			<http://www.assero.co.uk/BusinessDomain#ModelVariable> . 
<http://www.assero.co.uk/MDRModels/CDISC/V1#M-CDISC_SDTMMODEL_xxREFID> 			<http://www.w3.org/2000/01/rdf-schema#label> 			"Reference ID" . 
<http://www.assero.co.uk/MDRModels/CDISC/V1#M-CDISC_SDTMMODEL_xxREFID> 			<http://www.assero.co.uk/BusinessDomain#classifiedAs> 			<http://www.assero.co.uk/MDRModels/CDISC/V1#M-CDISC_SDTMMODEL_C_IDENTIFIER> . 
<http://www.assero.co.uk/MDRModels/CDISC/V1#M-CDISC_SDTMMODEL_xxREFID> 			<http://www.assero.co.uk/BusinessDomain#typedAs> 			<http://www.assero.co.uk/MDRModels/CDISC/V1#M-CDISC_SDTMMODEL_DT_CHAR> . 
<http://www.assero.co.uk/MDRModels/CDISC/V1#M-CDISC_SDTMMODEL_xxREFID> 			<http://www.assero.co.uk/BusinessDomain#rule> 			"" . 
<http://www.assero.co.uk/MDRModels/CDISC/V1#M-CDISC_SDTMMODEL_xxREFID> 			<http://www.assero.co.uk/BusinessDomain#ordinal> 			"6" . 
<http://www.assero.co.uk/MDRModels/CDISC/V1#M-CDISC_SDTMMODEL_xxREFID> 			<http://www.assero.co.uk/BusinessDomain#name> 			"--REFID" . 
<http://www.assero.co.uk/MDRModels/CDISC/V1#M-CDISC_SDTMMODEL_xxREFID> 			<http://www.assero.co.uk/BusinessDomain#prefixed> 			"true" . 
<http://www.assero.co.uk/MDRModels/CDISC/V1#M-CDISC_SDTMMODEL_xxREFID> 			<http://www.assero.co.uk/BusinessDomain#description> 			"Optional internal or external identifier such as lab specimen ID, or UUID for an ECG waveform or a medical image." . 
<http://www.assero.co.uk/MDRModels/CDISC/V1#M-CDISC_SDTMMODEL_EVENTS_xxSPID> 			<http://www.w3.org/1999/02/22-rdf-syntax-ns#type> 			<http://www.assero.co.uk/BusinessDomain#ClassVariable> . 
<http://www.assero.co.uk/MDRModels/CDISC/V1#M-CDISC_SDTMMODEL_EVENTS_xxSPID> 			<http://www.w3.org/2000/01/rdf-schema#label> 			"Sponsor ID" . 
<http://www.assero.co.uk/MDRModels/CDISC/V1#M-CDISC_SDTMMODEL_EVENTS_xxSPID> 			<http://www.assero.co.uk/BusinessDomain#basedOnVariable> 			<http://www.assero.co.uk/MDRModels/CDISC/V1#M-CDISC_SDTMMODEL_EVENTS_xxSPID_CR> . 
<http://www.assero.co.uk/MDRModels/CDISC/V1#M-CDISC_SDTMMODEL_EVENTS_xxSPID> 			<http://www.assero.co.uk/BusinessDomain#ordinal> 			"7" . 
<http://www.assero.co.uk/MDRModels/CDISC/V1#M-CDISC_SDTMMODEL_EVENTS_xxSPID_CR> 			<http://www.w3.org/1999/02/22-rdf-syntax-ns#type> 			<http://www.assero.co.uk/BusinessOperational#CReference> . 
<http://www.assero.co.uk/MDRModels/CDISC/V1#M-CDISC_SDTMMODEL_EVENTS_xxSPID_CR> 			<http://www.assero.co.uk/BusinessOperational#hasColumn> 			<http://www.assero.co.uk/MDRModels/CDISC/V1#M-CDISC_SDTMMODEL_xxSPID> . 
<http://www.assero.co.uk/MDRModels/CDISC/V1#M-CDISC_SDTMMODEL_EVENTS_xxSPID_CR> 			<http://www.assero.co.uk/BusinessOperational#ordinal> 			"7" . 
<http://www.assero.co.uk/MDRModels/CDISC/V1#M-CDISC_SDTMMODEL_EVENTS_xxSPID_CR> 			<http://www.assero.co.uk/BusinessOperational#enabled> 			"true" . 
<http://www.assero.co.uk/MDRModels/CDISC/V1#M-CDISC_SDTMMODEL_EVENTS_xxSPID_CR> 			<http://www.assero.co.uk/BusinessOperational#optional> 			"false" . 
<http://www.assero.co.uk/MDRModels/CDISC/V1#M-CDISC_SDTMMODEL_xxSPID> 			<http://www.w3.org/1999/02/22-rdf-syntax-ns#type> 			<http://www.assero.co.uk/BusinessDomain#ModelVariable> . 
<http://www.assero.co.uk/MDRModels/CDISC/V1#M-CDISC_SDTMMODEL_xxSPID> 			<http://www.w3.org/2000/01/rdf-schema#label> 			"Sponsor ID" . 
<http://www.assero.co.uk/MDRModels/CDISC/V1#M-CDISC_SDTMMODEL_xxSPID> 			<http://www.assero.co.uk/BusinessDomain#classifiedAs> 			<http://www.assero.co.uk/MDRModels/CDISC/V1#M-CDISC_SDTMMODEL_C_IDENTIFIER> . 
<http://www.assero.co.uk/MDRModels/CDISC/V1#M-CDISC_SDTMMODEL_xxSPID> 			<http://www.assero.co.uk/BusinessDomain#typedAs> 			<http://www.assero.co.uk/MDRModels/CDISC/V1#M-CDISC_SDTMMODEL_DT_CHAR> . 
<http://www.assero.co.uk/MDRModels/CDISC/V1#M-CDISC_SDTMMODEL_xxSPID> 			<http://www.assero.co.uk/BusinessDomain#rule> 			"" . 
<http://www.assero.co.uk/MDRModels/CDISC/V1#M-CDISC_SDTMMODEL_xxSPID> 			<http://www.assero.co.uk/BusinessDomain#ordinal> 			"7" . 
<http://www.assero.co.uk/MDRModels/CDISC/V1#M-CDISC_SDTMMODEL_xxSPID> 			<http://www.assero.co.uk/BusinessDomain#name> 			"--SPID" . 
<http://www.assero.co.uk/MDRModels/CDISC/V1#M-CDISC_SDTMMODEL_xxSPID> 			<http://www.assero.co.uk/BusinessDomain#prefixed> 			"true" . 
<http://www.assero.co.uk/MDRModels/CDISC/V1#M-CDISC_SDTMMODEL_xxSPID> 			<http://www.assero.co.uk/BusinessDomain#description> 			"Sponsor-defined identifier. Example: pre-printed line identifier on a Concomitant Medications page." . 
<http://www.assero.co.uk/MDRModels/CDISC/V1#M-CDISC_SDTMMODEL_EVENTS_xxTERM> 			<http://www.w3.org/1999/02/22-rdf-syntax-ns#type> 			<http://www.assero.co.uk/BusinessDomain#ClassVariable> . 
<http://www.assero.co.uk/MDRModels/CDISC/V1#M-CDISC_SDTMMODEL_EVENTS_xxTERM> 			<http://www.w3.org/2000/01/rdf-schema#label> 			"Reported Term" . 
<http://www.assero.co.uk/MDRModels/CDISC/V1#M-CDISC_SDTMMODEL_EVENTS_xxTERM> 			<http://www.assero.co.uk/BusinessDomain#basedOnVariable> 			<http://www.assero.co.uk/MDRModels/CDISC/V1#M-CDISC_SDTMMODEL_EVENTS_xxTERM_CR> . 
<http://www.assero.co.uk/MDRModels/CDISC/V1#M-CDISC_SDTMMODEL_EVENTS_xxTERM> 			<http://www.assero.co.uk/BusinessDomain#ordinal> 			"8" . 
<http://www.assero.co.uk/MDRModels/CDISC/V1#M-CDISC_SDTMMODEL_EVENTS_xxTERM_CR> 			<http://www.w3.org/1999/02/22-rdf-syntax-ns#type> 			<http://www.assero.co.uk/BusinessOperational#CReference> . 
<http://www.assero.co.uk/MDRModels/CDISC/V1#M-CDISC_SDTMMODEL_EVENTS_xxTERM_CR> 			<http://www.assero.co.uk/BusinessOperational#hasColumn> 			<http://www.assero.co.uk/MDRModels/CDISC/V1#M-CDISC_SDTMMODEL_xxTERM> . 
<http://www.assero.co.uk/MDRModels/CDISC/V1#M-CDISC_SDTMMODEL_EVENTS_xxTERM_CR> 			<http://www.assero.co.uk/BusinessOperational#ordinal> 			"8" . 
<http://www.assero.co.uk/MDRModels/CDISC/V1#M-CDISC_SDTMMODEL_EVENTS_xxTERM_CR> 			<http://www.assero.co.uk/BusinessOperational#enabled> 			"true" . 
<http://www.assero.co.uk/MDRModels/CDISC/V1#M-CDISC_SDTMMODEL_EVENTS_xxTERM_CR> 			<http://www.assero.co.uk/BusinessOperational#optional> 			"false" . 
<http://www.assero.co.uk/MDRModels/CDISC/V1#M-CDISC_SDTMMODEL_xxTERM> 			<http://www.w3.org/1999/02/22-rdf-syntax-ns#type> 			<http://www.assero.co.uk/BusinessDomain#ModelVariable> . 
<http://www.assero.co.uk/MDRModels/CDISC/V1#M-CDISC_SDTMMODEL_xxTERM> 			<http://www.w3.org/2000/01/rdf-schema#label> 			"Reported Term" . 
<http://www.assero.co.uk/MDRModels/CDISC/V1#M-CDISC_SDTMMODEL_xxTERM> 			<http://www.assero.co.uk/BusinessDomain#classifiedAs> 			<http://www.assero.co.uk/MDRModels/CDISC/V1#M-CDISC_SDTMMODEL_C_TOPIC> . 
<http://www.assero.co.uk/MDRModels/CDISC/V1#M-CDISC_SDTMMODEL_xxTERM> 			<http://www.assero.co.uk/BusinessDomain#typedAs> 			<http://www.assero.co.uk/MDRModels/CDISC/V1#M-CDISC_SDTMMODEL_DT_CHAR> . 
<http://www.assero.co.uk/MDRModels/CDISC/V1#M-CDISC_SDTMMODEL_xxTERM> 			<http://www.assero.co.uk/BusinessDomain#rule> 			"" . 
<http://www.assero.co.uk/MDRModels/CDISC/V1#M-CDISC_SDTMMODEL_xxTERM> 			<http://www.assero.co.uk/BusinessDomain#ordinal> 			"1" . 
<http://www.assero.co.uk/MDRModels/CDISC/V1#M-CDISC_SDTMMODEL_xxTERM> 			<http://www.assero.co.uk/BusinessDomain#name> 			"--TERM" . 
<http://www.assero.co.uk/MDRModels/CDISC/V1#M-CDISC_SDTMMODEL_xxTERM> 			<http://www.assero.co.uk/BusinessDomain#prefixed> 			"true" . 
<http://www.assero.co.uk/MDRModels/CDISC/V1#M-CDISC_SDTMMODEL_xxTERM> 			<http://www.assero.co.uk/BusinessDomain#description> 			"Topic variable for an event observation, which is the verbatim or pre-specified name of the event." . 
<http://www.assero.co.uk/MDRModels/CDISC/V1#M-CDISC_SDTMMODEL_C_TOPIC> 			<http://www.w3.org/1999/02/22-rdf-syntax-ns#type> 			<http://www.assero.co.uk/BusinessDomain#VariableClassification> . 
<http://www.assero.co.uk/MDRModels/CDISC/V1#M-CDISC_SDTMMODEL_C_TOPIC> 			<http://www.w3.org/2000/01/rdf-schema#label> 			"Topic" . 
<http://www.assero.co.uk/MDRModels/CDISC/V1#M-CDISC_SDTMMODEL_EVENTS_xxMODIFY> 			<http://www.w3.org/1999/02/22-rdf-syntax-ns#type> 			<http://www.assero.co.uk/BusinessDomain#ClassVariable> . 
<http://www.assero.co.uk/MDRModels/CDISC/V1#M-CDISC_SDTMMODEL_EVENTS_xxMODIFY> 			<http://www.w3.org/2000/01/rdf-schema#label> 			"Modified Reported Term" . 
<http://www.assero.co.uk/MDRModels/CDISC/V1#M-CDISC_SDTMMODEL_EVENTS_xxMODIFY> 			<http://www.assero.co.uk/BusinessDomain#basedOnVariable> 			<http://www.assero.co.uk/MDRModels/CDISC/V1#M-CDISC_SDTMMODEL_EVENTS_xxMODIFY_CR> . 
<http://www.assero.co.uk/MDRModels/CDISC/V1#M-CDISC_SDTMMODEL_EVENTS_xxMODIFY> 			<http://www.assero.co.uk/BusinessDomain#ordinal> 			"9" . 
<http://www.assero.co.uk/MDRModels/CDISC/V1#M-CDISC_SDTMMODEL_EVENTS_xxMODIFY_CR> 			<http://www.w3.org/1999/02/22-rdf-syntax-ns#type> 			<http://www.assero.co.uk/BusinessOperational#CReference> . 
<http://www.assero.co.uk/MDRModels/CDISC/V1#M-CDISC_SDTMMODEL_EVENTS_xxMODIFY_CR> 			<http://www.assero.co.uk/BusinessOperational#hasColumn> 			<http://www.assero.co.uk/MDRModels/CDISC/V1#M-CDISC_SDTMMODEL_xxMODIFY> . 
<http://www.assero.co.uk/MDRModels/CDISC/V1#M-CDISC_SDTMMODEL_EVENTS_xxMODIFY_CR> 			<http://www.assero.co.uk/BusinessOperational#ordinal> 			"9" . 
<http://www.assero.co.uk/MDRModels/CDISC/V1#M-CDISC_SDTMMODEL_EVENTS_xxMODIFY_CR> 			<http://www.assero.co.uk/BusinessOperational#enabled> 			"true" . 
<http://www.assero.co.uk/MDRModels/CDISC/V1#M-CDISC_SDTMMODEL_EVENTS_xxMODIFY_CR> 			<http://www.assero.co.uk/BusinessOperational#optional> 			"false" . 
<http://www.assero.co.uk/MDRModels/CDISC/V1#M-CDISC_SDTMMODEL_xxMODIFY> 			<http://www.w3.org/1999/02/22-rdf-syntax-ns#type> 			<http://www.assero.co.uk/BusinessDomain#ModelVariable> . 
<http://www.assero.co.uk/MDRModels/CDISC/V1#M-CDISC_SDTMMODEL_xxMODIFY> 			<http://www.w3.org/2000/01/rdf-schema#label> 			"Modified Reported Term" . 
<http://www.assero.co.uk/MDRModels/CDISC/V1#M-CDISC_SDTMMODEL_xxMODIFY> 			<http://www.w3.org/2000/01/rdf-schema#label> 			"Modified Term" . 
<http://www.assero.co.uk/MDRModels/CDISC/V1#M-CDISC_SDTMMODEL_xxMODIFY> 			<http://www.w3.org/2000/01/rdf-schema#label> 			"Modified Treatment Name" . 
<http://www.assero.co.uk/MDRModels/CDISC/V1#M-CDISC_SDTMMODEL_xxMODIFY> 			<http://www.assero.co.uk/BusinessDomain#classifiedAs> 			<http://www.assero.co.uk/MDRModels/CDISC/V1#M-CDISC_SDTMMODEL_SC_SYNONYMQUALIFIER> . 
<http://www.assero.co.uk/MDRModels/CDISC/V1#M-CDISC_SDTMMODEL_xxMODIFY> 			<http://www.assero.co.uk/BusinessDomain#typedAs> 			<http://www.assero.co.uk/MDRModels/CDISC/V1#M-CDISC_SDTMMODEL_DT_CHAR> . 
<http://www.assero.co.uk/MDRModels/CDISC/V1#M-CDISC_SDTMMODEL_xxMODIFY> 			<http://www.assero.co.uk/BusinessDomain#rule> 			"" . 
<http://www.assero.co.uk/MDRModels/CDISC/V1#M-CDISC_SDTMMODEL_xxMODIFY> 			<http://www.assero.co.uk/BusinessDomain#ordinal> 			"2" . 
<http://www.assero.co.uk/MDRModels/CDISC/V1#M-CDISC_SDTMMODEL_xxMODIFY> 			<http://www.assero.co.uk/BusinessDomain#ordinal> 			"3" . 
<http://www.assero.co.uk/MDRModels/CDISC/V1#M-CDISC_SDTMMODEL_xxMODIFY> 			<http://www.assero.co.uk/BusinessDomain#name> 			"--MODIFY" . 
<http://www.assero.co.uk/MDRModels/CDISC/V1#M-CDISC_SDTMMODEL_xxMODIFY> 			<http://www.assero.co.uk/BusinessDomain#prefixed> 			"true" . 
<http://www.assero.co.uk/MDRModels/CDISC/V1#M-CDISC_SDTMMODEL_xxMODIFY> 			<http://www.assero.co.uk/BusinessDomain#description> 			"If the value for --TRT is modified for coding purposes, then the modified text is placed here." . 
<http://www.assero.co.uk/MDRModels/CDISC/V1#M-CDISC_SDTMMODEL_SC_SYNONYMQUALIFIER> 			<http://www.w3.org/1999/02/22-rdf-syntax-ns#type> 			<http://www.assero.co.uk/BusinessDomain#VariableClassification> . 
<http://www.assero.co.uk/MDRModels/CDISC/V1#M-CDISC_SDTMMODEL_SC_SYNONYMQUALIFIER> 			<http://www.w3.org/2000/01/rdf-schema#label> 			"Synonym Qualifier" . 
<http://www.assero.co.uk/MDRModels/CDISC/V1#M-CDISC_SDTMMODEL_SC_SYNONYMQUALIFIER> 			<http://www.assero.co.uk/BusinessDomain#parentClassification> 			<http://www.assero.co.uk/MDRModels/CDISC/V1#M-CDISC_SDTMMODEL_C_QUALIFIER> . 
<http://www.assero.co.uk/MDRModels/CDISC/V1#M-CDISC_SDTMMODEL_C_QUALIFIER> 			<http://www.w3.org/1999/02/22-rdf-syntax-ns#type> 			<http://www.assero.co.uk/BusinessDomain#VariableClassification> . 
<http://www.assero.co.uk/MDRModels/CDISC/V1#M-CDISC_SDTMMODEL_C_QUALIFIER> 			<http://www.w3.org/2000/01/rdf-schema#label> 			"Qualifier" . 
<http://www.assero.co.uk/MDRModels/CDISC/V1#M-CDISC_SDTMMODEL_C_QUALIFIER> 			<http://www.assero.co.uk/BusinessDomain#childClassification> 			<http://www.assero.co.uk/MDRModels/CDISC/V1#M-CDISC_SDTMMODEL_SC_SYNONYMQUALIFIER> . 
<http://www.assero.co.uk/MDRModels/CDISC/V1#M-CDISC_SDTMMODEL_C_QUALIFIER> 			<http://www.assero.co.uk/BusinessDomain#childClassification> 			<http://www.assero.co.uk/MDRModels/CDISC/V1#M-CDISC_SDTMMODEL_SC_GROUPINGQUALIFIER> . 
<http://www.assero.co.uk/MDRModels/CDISC/V1#M-CDISC_SDTMMODEL_C_QUALIFIER> 			<http://www.assero.co.uk/BusinessDomain#childClassification> 			<http://www.assero.co.uk/MDRModels/CDISC/V1#M-CDISC_SDTMMODEL_SC_RECORDQUALIFIER> . 
<http://www.assero.co.uk/MDRModels/CDISC/V1#M-CDISC_SDTMMODEL_C_QUALIFIER> 			<http://www.assero.co.uk/BusinessDomain#childClassification> 			<http://www.assero.co.uk/MDRModels/CDISC/V1#M-CDISC_SDTMMODEL_SC_VARIABLEQUALIFIER> . 
<http://www.assero.co.uk/MDRModels/CDISC/V1#M-CDISC_SDTMMODEL_C_QUALIFIER> 			<http://www.assero.co.uk/BusinessDomain#childClassification> 			<http://www.assero.co.uk/MDRModels/CDISC/V1#M-CDISC_SDTMMODEL_SC_RESULTQUALIFIER> . 
<http://www.assero.co.uk/MDRModels/CDISC/V1#M-CDISC_SDTMMODEL_SC_GROUPINGQUALIFIER> 			<http://www.w3.org/1999/02/22-rdf-syntax-ns#type> 			<http://www.assero.co.uk/BusinessDomain#VariableClassification> . 
<http://www.assero.co.uk/MDRModels/CDISC/V1#M-CDISC_SDTMMODEL_SC_GROUPINGQUALIFIER> 			<http://www.w3.org/2000/01/rdf-schema#label> 			"Grouping Qualifier" . 
<http://www.assero.co.uk/MDRModels/CDISC/V1#M-CDISC_SDTMMODEL_SC_GROUPINGQUALIFIER> 			<http://www.assero.co.uk/BusinessDomain#parentClassification> 			<http://www.assero.co.uk/MDRModels/CDISC/V1#M-CDISC_SDTMMODEL_C_QUALIFIER> . 
<http://www.assero.co.uk/MDRModels/CDISC/V1#M-CDISC_SDTMMODEL_SC_RECORDQUALIFIER> 			<http://www.w3.org/1999/02/22-rdf-syntax-ns#type> 			<http://www.assero.co.uk/BusinessDomain#VariableClassification> . 
<http://www.assero.co.uk/MDRModels/CDISC/V1#M-CDISC_SDTMMODEL_SC_RECORDQUALIFIER> 			<http://www.w3.org/2000/01/rdf-schema#label> 			"Record Qualifier" . 
<http://www.assero.co.uk/MDRModels/CDISC/V1#M-CDISC_SDTMMODEL_SC_RECORDQUALIFIER> 			<http://www.assero.co.uk/BusinessDomain#parentClassification> 			<http://www.assero.co.uk/MDRModels/CDISC/V1#M-CDISC_SDTMMODEL_C_QUALIFIER> . 
<http://www.assero.co.uk/MDRModels/CDISC/V1#M-CDISC_SDTMMODEL_SC_VARIABLEQUALIFIER> 			<http://www.w3.org/1999/02/22-rdf-syntax-ns#type> 			<http://www.assero.co.uk/BusinessDomain#VariableClassification> . 
<http://www.assero.co.uk/MDRModels/CDISC/V1#M-CDISC_SDTMMODEL_SC_VARIABLEQUALIFIER> 			<http://www.w3.org/2000/01/rdf-schema#label> 			"Variable Qualifier" . 
<http://www.assero.co.uk/MDRModels/CDISC/V1#M-CDISC_SDTMMODEL_SC_VARIABLEQUALIFIER> 			<http://www.assero.co.uk/BusinessDomain#parentClassification> 			<http://www.assero.co.uk/MDRModels/CDISC/V1#M-CDISC_SDTMMODEL_C_QUALIFIER> . 
<http://www.assero.co.uk/MDRModels/CDISC/V1#M-CDISC_SDTMMODEL_SC_RESULTQUALIFIER> 			<http://www.w3.org/1999/02/22-rdf-syntax-ns#type> 			<http://www.assero.co.uk/BusinessDomain#VariableClassification> . 
<http://www.assero.co.uk/MDRModels/CDISC/V1#M-CDISC_SDTMMODEL_SC_RESULTQUALIFIER> 			<http://www.w3.org/2000/01/rdf-schema#label> 			"Result Qualifier" . 
<http://www.assero.co.uk/MDRModels/CDISC/V1#M-CDISC_SDTMMODEL_SC_RESULTQUALIFIER> 			<http://www.assero.co.uk/BusinessDomain#parentClassification> 			<http://www.assero.co.uk/MDRModels/CDISC/V1#M-CDISC_SDTMMODEL_C_QUALIFIER> . 
<http://www.assero.co.uk/MDRModels/CDISC/V1#M-CDISC_SDTMMODEL_EVENTS_xxDECOD> 			<http://www.w3.org/1999/02/22-rdf-syntax-ns#type> 			<http://www.assero.co.uk/BusinessDomain#ClassVariable> . 
<http://www.assero.co.uk/MDRModels/CDISC/V1#M-CDISC_SDTMMODEL_EVENTS_xxDECOD> 			<http://www.w3.org/2000/01/rdf-schema#label> 			"Dictionary-Derived Term" . 
<http://www.assero.co.uk/MDRModels/CDISC/V1#M-CDISC_SDTMMODEL_EVENTS_xxDECOD> 			<http://www.assero.co.uk/BusinessDomain#basedOnVariable> 			<http://www.assero.co.uk/MDRModels/CDISC/V1#M-CDISC_SDTMMODEL_EVENTS_xxDECOD_CR> . 
<http://www.assero.co.uk/MDRModels/CDISC/V1#M-CDISC_SDTMMODEL_EVENTS_xxDECOD> 			<http://www.assero.co.uk/BusinessDomain#ordinal> 			"10" . 
<http://www.assero.co.uk/MDRModels/CDISC/V1#M-CDISC_SDTMMODEL_EVENTS_xxDECOD_CR> 			<http://www.w3.org/1999/02/22-rdf-syntax-ns#type> 			<http://www.assero.co.uk/BusinessOperational#CReference> . 
<http://www.assero.co.uk/MDRModels/CDISC/V1#M-CDISC_SDTMMODEL_EVENTS_xxDECOD_CR> 			<http://www.assero.co.uk/BusinessOperational#hasColumn> 			<http://www.assero.co.uk/MDRModels/CDISC/V1#M-CDISC_SDTMMODEL_xxDECOD> . 
<http://www.assero.co.uk/MDRModels/CDISC/V1#M-CDISC_SDTMMODEL_EVENTS_xxDECOD_CR> 			<http://www.assero.co.uk/BusinessOperational#ordinal> 			"10" . 
<http://www.assero.co.uk/MDRModels/CDISC/V1#M-CDISC_SDTMMODEL_EVENTS_xxDECOD_CR> 			<http://www.assero.co.uk/BusinessOperational#enabled> 			"true" . 
<http://www.assero.co.uk/MDRModels/CDISC/V1#M-CDISC_SDTMMODEL_EVENTS_xxDECOD_CR> 			<http://www.assero.co.uk/BusinessOperational#optional> 			"false" . 
<http://www.assero.co.uk/MDRModels/CDISC/V1#M-CDISC_SDTMMODEL_xxDECOD> 			<http://www.w3.org/1999/02/22-rdf-syntax-ns#type> 			<http://www.assero.co.uk/BusinessDomain#ModelVariable> . 
<http://www.assero.co.uk/MDRModels/CDISC/V1#M-CDISC_SDTMMODEL_xxDECOD> 			<http://www.w3.org/2000/01/rdf-schema#label> 			"Dictionary-Derived Term" . 
<http://www.assero.co.uk/MDRModels/CDISC/V1#M-CDISC_SDTMMODEL_xxDECOD> 			<http://www.w3.org/2000/01/rdf-schema#label> 			"Standardized Treatment Name" . 
<http://www.assero.co.uk/MDRModels/CDISC/V1#M-CDISC_SDTMMODEL_xxDECOD> 			<http://www.assero.co.uk/BusinessDomain#classifiedAs> 			<http://www.assero.co.uk/MDRModels/CDISC/V1#M-CDISC_SDTMMODEL_SC_SYNONYMQUALIFIER> . 
<http://www.assero.co.uk/MDRModels/CDISC/V1#M-CDISC_SDTMMODEL_xxDECOD> 			<http://www.assero.co.uk/BusinessDomain#typedAs> 			<http://www.assero.co.uk/MDRModels/CDISC/V1#M-CDISC_SDTMMODEL_DT_CHAR> . 
<http://www.assero.co.uk/MDRModels/CDISC/V1#M-CDISC_SDTMMODEL_xxDECOD> 			<http://www.assero.co.uk/BusinessDomain#rule> 			"" . 
<http://www.assero.co.uk/MDRModels/CDISC/V1#M-CDISC_SDTMMODEL_xxDECOD> 			<http://www.assero.co.uk/BusinessDomain#ordinal> 			"3" . 
<http://www.assero.co.uk/MDRModels/CDISC/V1#M-CDISC_SDTMMODEL_xxDECOD> 			<http://www.assero.co.uk/BusinessDomain#name> 			"--DECOD" . 
<http://www.assero.co.uk/MDRModels/CDISC/V1#M-CDISC_SDTMMODEL_xxDECOD> 			<http://www.assero.co.uk/BusinessDomain#prefixed> 			"true" . 
<http://www.assero.co.uk/MDRModels/CDISC/V1#M-CDISC_SDTMMODEL_xxDECOD> 			<http://www.assero.co.uk/BusinessDomain#description> 			"Standardized or dictionary-derived name of the topic variable, --TRT, or the modified topic variable (--MODIFY), if applicable. Equivalent to the generic drug name in WHO Drug, or a term in SNOMED, ICD9, or other published or sponsor-defined dictionaries." . 
<http://www.assero.co.uk/MDRModels/CDISC/V1#M-CDISC_SDTMMODEL_EVENTS_xxCAT> 			<http://www.w3.org/1999/02/22-rdf-syntax-ns#type> 			<http://www.assero.co.uk/BusinessDomain#ClassVariable> . 
<http://www.assero.co.uk/MDRModels/CDISC/V1#M-CDISC_SDTMMODEL_EVENTS_xxCAT> 			<http://www.w3.org/2000/01/rdf-schema#label> 			"Category" . 
<http://www.assero.co.uk/MDRModels/CDISC/V1#M-CDISC_SDTMMODEL_EVENTS_xxCAT> 			<http://www.assero.co.uk/BusinessDomain#basedOnVariable> 			<http://www.assero.co.uk/MDRModels/CDISC/V1#M-CDISC_SDTMMODEL_EVENTS_xxCAT_CR> . 
<http://www.assero.co.uk/MDRModels/CDISC/V1#M-CDISC_SDTMMODEL_EVENTS_xxCAT> 			<http://www.assero.co.uk/BusinessDomain#ordinal> 			"11" . 
<http://www.assero.co.uk/MDRModels/CDISC/V1#M-CDISC_SDTMMODEL_EVENTS_xxCAT_CR> 			<http://www.w3.org/1999/02/22-rdf-syntax-ns#type> 			<http://www.assero.co.uk/BusinessOperational#CReference> . 
<http://www.assero.co.uk/MDRModels/CDISC/V1#M-CDISC_SDTMMODEL_EVENTS_xxCAT_CR> 			<http://www.assero.co.uk/BusinessOperational#hasColumn> 			<http://www.assero.co.uk/MDRModels/CDISC/V1#M-CDISC_SDTMMODEL_xxCAT> . 
<http://www.assero.co.uk/MDRModels/CDISC/V1#M-CDISC_SDTMMODEL_EVENTS_xxCAT_CR> 			<http://www.assero.co.uk/BusinessOperational#ordinal> 			"11" . 
<http://www.assero.co.uk/MDRModels/CDISC/V1#M-CDISC_SDTMMODEL_EVENTS_xxCAT_CR> 			<http://www.assero.co.uk/BusinessOperational#enabled> 			"true" . 
<http://www.assero.co.uk/MDRModels/CDISC/V1#M-CDISC_SDTMMODEL_EVENTS_xxCAT_CR> 			<http://www.assero.co.uk/BusinessOperational#optional> 			"false" . 
<http://www.assero.co.uk/MDRModels/CDISC/V1#M-CDISC_SDTMMODEL_xxCAT> 			<http://www.w3.org/1999/02/22-rdf-syntax-ns#type> 			<http://www.assero.co.uk/BusinessDomain#ModelVariable> . 
<http://www.assero.co.uk/MDRModels/CDISC/V1#M-CDISC_SDTMMODEL_xxCAT> 			<http://www.w3.org/2000/01/rdf-schema#label> 			"Category" . 
<http://www.assero.co.uk/MDRModels/CDISC/V1#M-CDISC_SDTMMODEL_xxCAT> 			<http://www.assero.co.uk/BusinessDomain#classifiedAs> 			<http://www.assero.co.uk/MDRModels/CDISC/V1#M-CDISC_SDTMMODEL_SC_GROUPINGQUALIFIER> . 
<http://www.assero.co.uk/MDRModels/CDISC/V1#M-CDISC_SDTMMODEL_xxCAT> 			<http://www.assero.co.uk/BusinessDomain#typedAs> 			<http://www.assero.co.uk/MDRModels/CDISC/V1#M-CDISC_SDTMMODEL_DT_CHAR> . 
<http://www.assero.co.uk/MDRModels/CDISC/V1#M-CDISC_SDTMMODEL_xxCAT> 			<http://www.assero.co.uk/BusinessDomain#rule> 			"" . 
<http://www.assero.co.uk/MDRModels/CDISC/V1#M-CDISC_SDTMMODEL_xxCAT> 			<http://www.assero.co.uk/BusinessDomain#ordinal> 			"4" . 
<http://www.assero.co.uk/MDRModels/CDISC/V1#M-CDISC_SDTMMODEL_xxCAT> 			<http://www.assero.co.uk/BusinessDomain#name> 			"--CAT" . 
<http://www.assero.co.uk/MDRModels/CDISC/V1#M-CDISC_SDTMMODEL_xxCAT> 			<http://www.assero.co.uk/BusinessDomain#prefixed> 			"true" . 
<http://www.assero.co.uk/MDRModels/CDISC/V1#M-CDISC_SDTMMODEL_xxCAT> 			<http://www.assero.co.uk/BusinessDomain#description> 			"Used to define a category of topic-variable values. Examples: HEMATOLOGY, URINALYSIS, CHEMISTRY, HAMILTON DEPRESSION SCALE, SF36." . 
<http://www.assero.co.uk/MDRModels/CDISC/V1#M-CDISC_SDTMMODEL_EVENTS_xxSCAT> 			<http://www.w3.org/1999/02/22-rdf-syntax-ns#type> 			<http://www.assero.co.uk/BusinessDomain#ClassVariable> . 
<http://www.assero.co.uk/MDRModels/CDISC/V1#M-CDISC_SDTMMODEL_EVENTS_xxSCAT> 			<http://www.w3.org/2000/01/rdf-schema#label> 			"Subcategory" . 
<http://www.assero.co.uk/MDRModels/CDISC/V1#M-CDISC_SDTMMODEL_EVENTS_xxSCAT> 			<http://www.assero.co.uk/BusinessDomain#basedOnVariable> 			<http://www.assero.co.uk/MDRModels/CDISC/V1#M-CDISC_SDTMMODEL_EVENTS_xxSCAT_CR> . 
<http://www.assero.co.uk/MDRModels/CDISC/V1#M-CDISC_SDTMMODEL_EVENTS_xxSCAT> 			<http://www.assero.co.uk/BusinessDomain#ordinal> 			"12" . 
<http://www.assero.co.uk/MDRModels/CDISC/V1#M-CDISC_SDTMMODEL_EVENTS_xxSCAT_CR> 			<http://www.w3.org/1999/02/22-rdf-syntax-ns#type> 			<http://www.assero.co.uk/BusinessOperational#CReference> . 
<http://www.assero.co.uk/MDRModels/CDISC/V1#M-CDISC_SDTMMODEL_EVENTS_xxSCAT_CR> 			<http://www.assero.co.uk/BusinessOperational#hasColumn> 			<http://www.assero.co.uk/MDRModels/CDISC/V1#M-CDISC_SDTMMODEL_xxSCAT> . 
<http://www.assero.co.uk/MDRModels/CDISC/V1#M-CDISC_SDTMMODEL_EVENTS_xxSCAT_CR> 			<http://www.assero.co.uk/BusinessOperational#ordinal> 			"12" . 
<http://www.assero.co.uk/MDRModels/CDISC/V1#M-CDISC_SDTMMODEL_EVENTS_xxSCAT_CR> 			<http://www.assero.co.uk/BusinessOperational#enabled> 			"true" . 
<http://www.assero.co.uk/MDRModels/CDISC/V1#M-CDISC_SDTMMODEL_EVENTS_xxSCAT_CR> 			<http://www.assero.co.uk/BusinessOperational#optional> 			"false" . 
<http://www.assero.co.uk/MDRModels/CDISC/V1#M-CDISC_SDTMMODEL_xxSCAT> 			<http://www.w3.org/1999/02/22-rdf-syntax-ns#type> 			<http://www.assero.co.uk/BusinessDomain#ModelVariable> . 
<http://www.assero.co.uk/MDRModels/CDISC/V1#M-CDISC_SDTMMODEL_xxSCAT> 			<http://www.w3.org/2000/01/rdf-schema#label> 			"Subcategory" . 
<http://www.assero.co.uk/MDRModels/CDISC/V1#M-CDISC_SDTMMODEL_xxSCAT> 			<http://www.assero.co.uk/BusinessDomain#classifiedAs> 			<http://www.assero.co.uk/MDRModels/CDISC/V1#M-CDISC_SDTMMODEL_SC_GROUPINGQUALIFIER> . 
<http://www.assero.co.uk/MDRModels/CDISC/V1#M-CDISC_SDTMMODEL_xxSCAT> 			<http://www.assero.co.uk/BusinessDomain#typedAs> 			<http://www.assero.co.uk/MDRModels/CDISC/V1#M-CDISC_SDTMMODEL_DT_CHAR> . 
<http://www.assero.co.uk/MDRModels/CDISC/V1#M-CDISC_SDTMMODEL_xxSCAT> 			<http://www.assero.co.uk/BusinessDomain#rule> 			"" . 
<http://www.assero.co.uk/MDRModels/CDISC/V1#M-CDISC_SDTMMODEL_xxSCAT> 			<http://www.assero.co.uk/BusinessDomain#ordinal> 			"5" . 
<http://www.assero.co.uk/MDRModels/CDISC/V1#M-CDISC_SDTMMODEL_xxSCAT> 			<http://www.assero.co.uk/BusinessDomain#name> 			"--SCAT" . 
<http://www.assero.co.uk/MDRModels/CDISC/V1#M-CDISC_SDTMMODEL_xxSCAT> 			<http://www.assero.co.uk/BusinessDomain#prefixed> 			"true" . 
<http://www.assero.co.uk/MDRModels/CDISC/V1#M-CDISC_SDTMMODEL_xxSCAT> 			<http://www.assero.co.uk/BusinessDomain#description> 			"Used to define a further categorization of --CAT values." . 
<http://www.assero.co.uk/MDRModels/CDISC/V1#M-CDISC_SDTMMODEL_EVENTS_xxPRESP> 			<http://www.w3.org/1999/02/22-rdf-syntax-ns#type> 			<http://www.assero.co.uk/BusinessDomain#ClassVariable> . 
<http://www.assero.co.uk/MDRModels/CDISC/V1#M-CDISC_SDTMMODEL_EVENTS_xxPRESP> 			<http://www.w3.org/2000/01/rdf-schema#label> 			"Pre-specified" . 
<http://www.assero.co.uk/MDRModels/CDISC/V1#M-CDISC_SDTMMODEL_EVENTS_xxPRESP> 			<http://www.assero.co.uk/BusinessDomain#basedOnVariable> 			<http://www.assero.co.uk/MDRModels/CDISC/V1#M-CDISC_SDTMMODEL_EVENTS_xxPRESP_CR> . 
<http://www.assero.co.uk/MDRModels/CDISC/V1#M-CDISC_SDTMMODEL_EVENTS_xxPRESP> 			<http://www.assero.co.uk/BusinessDomain#ordinal> 			"13" . 
<http://www.assero.co.uk/MDRModels/CDISC/V1#M-CDISC_SDTMMODEL_EVENTS_xxPRESP_CR> 			<http://www.w3.org/1999/02/22-rdf-syntax-ns#type> 			<http://www.assero.co.uk/BusinessOperational#CReference> . 
<http://www.assero.co.uk/MDRModels/CDISC/V1#M-CDISC_SDTMMODEL_EVENTS_xxPRESP_CR> 			<http://www.assero.co.uk/BusinessOperational#hasColumn> 			<http://www.assero.co.uk/MDRModels/CDISC/V1#M-CDISC_SDTMMODEL_xxPRESP> . 
<http://www.assero.co.uk/MDRModels/CDISC/V1#M-CDISC_SDTMMODEL_EVENTS_xxPRESP_CR> 			<http://www.assero.co.uk/BusinessOperational#ordinal> 			"13" . 
<http://www.assero.co.uk/MDRModels/CDISC/V1#M-CDISC_SDTMMODEL_EVENTS_xxPRESP_CR> 			<http://www.assero.co.uk/BusinessOperational#enabled> 			"true" . 
<http://www.assero.co.uk/MDRModels/CDISC/V1#M-CDISC_SDTMMODEL_EVENTS_xxPRESP_CR> 			<http://www.assero.co.uk/BusinessOperational#optional> 			"false" . 
<http://www.assero.co.uk/MDRModels/CDISC/V1#M-CDISC_SDTMMODEL_xxPRESP> 			<http://www.w3.org/1999/02/22-rdf-syntax-ns#type> 			<http://www.assero.co.uk/BusinessDomain#ModelVariable> . 
<http://www.assero.co.uk/MDRModels/CDISC/V1#M-CDISC_SDTMMODEL_xxPRESP> 			<http://www.w3.org/2000/01/rdf-schema#label> 			"Pre-specified" . 
<http://www.assero.co.uk/MDRModels/CDISC/V1#M-CDISC_SDTMMODEL_xxPRESP> 			<http://www.assero.co.uk/BusinessDomain#classifiedAs> 			<http://www.assero.co.uk/MDRModels/CDISC/V1#M-CDISC_SDTMMODEL_SC_RECORDQUALIFIER> . 
<http://www.assero.co.uk/MDRModels/CDISC/V1#M-CDISC_SDTMMODEL_xxPRESP> 			<http://www.assero.co.uk/BusinessDomain#typedAs> 			<http://www.assero.co.uk/MDRModels/CDISC/V1#M-CDISC_SDTMMODEL_DT_CHAR> . 
<http://www.assero.co.uk/MDRModels/CDISC/V1#M-CDISC_SDTMMODEL_xxPRESP> 			<http://www.assero.co.uk/BusinessDomain#rule> 			"" . 
<http://www.assero.co.uk/MDRModels/CDISC/V1#M-CDISC_SDTMMODEL_xxPRESP> 			<http://www.assero.co.uk/BusinessDomain#ordinal> 			"6" . 
<http://www.assero.co.uk/MDRModels/CDISC/V1#M-CDISC_SDTMMODEL_xxPRESP> 			<http://www.assero.co.uk/BusinessDomain#name> 			"--PRESP" . 
<http://www.assero.co.uk/MDRModels/CDISC/V1#M-CDISC_SDTMMODEL_xxPRESP> 			<http://www.assero.co.uk/BusinessDomain#prefixed> 			"true" . 
<http://www.assero.co.uk/MDRModels/CDISC/V1#M-CDISC_SDTMMODEL_xxPRESP> 			<http://www.assero.co.uk/BusinessDomain#description> 			"Used when a specific intervention is pre-specified on a CRF. Values should be 'Y' or null." . 
<http://www.assero.co.uk/MDRModels/CDISC/V1#M-CDISC_SDTMMODEL_EVENTS_xxOCCUR> 			<http://www.w3.org/1999/02/22-rdf-syntax-ns#type> 			<http://www.assero.co.uk/BusinessDomain#ClassVariable> . 
<http://www.assero.co.uk/MDRModels/CDISC/V1#M-CDISC_SDTMMODEL_EVENTS_xxOCCUR> 			<http://www.w3.org/2000/01/rdf-schema#label> 			"Occurrence" . 
<http://www.assero.co.uk/MDRModels/CDISC/V1#M-CDISC_SDTMMODEL_EVENTS_xxOCCUR> 			<http://www.assero.co.uk/BusinessDomain#basedOnVariable> 			<http://www.assero.co.uk/MDRModels/CDISC/V1#M-CDISC_SDTMMODEL_EVENTS_xxOCCUR_CR> . 
<http://www.assero.co.uk/MDRModels/CDISC/V1#M-CDISC_SDTMMODEL_EVENTS_xxOCCUR> 			<http://www.assero.co.uk/BusinessDomain#ordinal> 			"14" . 
<http://www.assero.co.uk/MDRModels/CDISC/V1#M-CDISC_SDTMMODEL_EVENTS_xxOCCUR_CR> 			<http://www.w3.org/1999/02/22-rdf-syntax-ns#type> 			<http://www.assero.co.uk/BusinessOperational#CReference> . 
<http://www.assero.co.uk/MDRModels/CDISC/V1#M-CDISC_SDTMMODEL_EVENTS_xxOCCUR_CR> 			<http://www.assero.co.uk/BusinessOperational#hasColumn> 			<http://www.assero.co.uk/MDRModels/CDISC/V1#M-CDISC_SDTMMODEL_xxOCCUR> . 
<http://www.assero.co.uk/MDRModels/CDISC/V1#M-CDISC_SDTMMODEL_EVENTS_xxOCCUR_CR> 			<http://www.assero.co.uk/BusinessOperational#ordinal> 			"14" . 
<http://www.assero.co.uk/MDRModels/CDISC/V1#M-CDISC_SDTMMODEL_EVENTS_xxOCCUR_CR> 			<http://www.assero.co.uk/BusinessOperational#enabled> 			"true" . 
<http://www.assero.co.uk/MDRModels/CDISC/V1#M-CDISC_SDTMMODEL_EVENTS_xxOCCUR_CR> 			<http://www.assero.co.uk/BusinessOperational#optional> 			"false" . 
<http://www.assero.co.uk/MDRModels/CDISC/V1#M-CDISC_SDTMMODEL_xxOCCUR> 			<http://www.w3.org/1999/02/22-rdf-syntax-ns#type> 			<http://www.assero.co.uk/BusinessDomain#ModelVariable> . 
<http://www.assero.co.uk/MDRModels/CDISC/V1#M-CDISC_SDTMMODEL_xxOCCUR> 			<http://www.w3.org/2000/01/rdf-schema#label> 			"Occurrence" . 
<http://www.assero.co.uk/MDRModels/CDISC/V1#M-CDISC_SDTMMODEL_xxOCCUR> 			<http://www.assero.co.uk/BusinessDomain#classifiedAs> 			<http://www.assero.co.uk/MDRModels/CDISC/V1#M-CDISC_SDTMMODEL_SC_RECORDQUALIFIER> . 
<http://www.assero.co.uk/MDRModels/CDISC/V1#M-CDISC_SDTMMODEL_xxOCCUR> 			<http://www.assero.co.uk/BusinessDomain#typedAs> 			<http://www.assero.co.uk/MDRModels/CDISC/V1#M-CDISC_SDTMMODEL_DT_CHAR> . 
<http://www.assero.co.uk/MDRModels/CDISC/V1#M-CDISC_SDTMMODEL_xxOCCUR> 			<http://www.assero.co.uk/BusinessDomain#rule> 			"" . 
<http://www.assero.co.uk/MDRModels/CDISC/V1#M-CDISC_SDTMMODEL_xxOCCUR> 			<http://www.assero.co.uk/BusinessDomain#ordinal> 			"7" . 
<http://www.assero.co.uk/MDRModels/CDISC/V1#M-CDISC_SDTMMODEL_xxOCCUR> 			<http://www.assero.co.uk/BusinessDomain#name> 			"--OCCUR" . 
<http://www.assero.co.uk/MDRModels/CDISC/V1#M-CDISC_SDTMMODEL_xxOCCUR> 			<http://www.assero.co.uk/BusinessDomain#prefixed> 			"true" . 
<http://www.assero.co.uk/MDRModels/CDISC/V1#M-CDISC_SDTMMODEL_xxOCCUR> 			<http://www.assero.co.uk/BusinessDomain#description> 			"Used to record whether a pre-specified event occurred when information about the occurrence of a specific event is solicited." . 
<http://www.assero.co.uk/MDRModels/CDISC/V1#M-CDISC_SDTMMODEL_EVENTS_xxSTAT> 			<http://www.w3.org/1999/02/22-rdf-syntax-ns#type> 			<http://www.assero.co.uk/BusinessDomain#ClassVariable> . 
<http://www.assero.co.uk/MDRModels/CDISC/V1#M-CDISC_SDTMMODEL_EVENTS_xxSTAT> 			<http://www.w3.org/2000/01/rdf-schema#label> 			"Completion Status" . 
<http://www.assero.co.uk/MDRModels/CDISC/V1#M-CDISC_SDTMMODEL_EVENTS_xxSTAT> 			<http://www.assero.co.uk/BusinessDomain#basedOnVariable> 			<http://www.assero.co.uk/MDRModels/CDISC/V1#M-CDISC_SDTMMODEL_EVENTS_xxSTAT_CR> . 
<http://www.assero.co.uk/MDRModels/CDISC/V1#M-CDISC_SDTMMODEL_EVENTS_xxSTAT> 			<http://www.assero.co.uk/BusinessDomain#ordinal> 			"15" . 
<http://www.assero.co.uk/MDRModels/CDISC/V1#M-CDISC_SDTMMODEL_EVENTS_xxSTAT_CR> 			<http://www.w3.org/1999/02/22-rdf-syntax-ns#type> 			<http://www.assero.co.uk/BusinessOperational#CReference> . 
<http://www.assero.co.uk/MDRModels/CDISC/V1#M-CDISC_SDTMMODEL_EVENTS_xxSTAT_CR> 			<http://www.assero.co.uk/BusinessOperational#hasColumn> 			<http://www.assero.co.uk/MDRModels/CDISC/V1#M-CDISC_SDTMMODEL_xxSTAT> . 
<http://www.assero.co.uk/MDRModels/CDISC/V1#M-CDISC_SDTMMODEL_EVENTS_xxSTAT_CR> 			<http://www.assero.co.uk/BusinessOperational#ordinal> 			"15" . 
<http://www.assero.co.uk/MDRModels/CDISC/V1#M-CDISC_SDTMMODEL_EVENTS_xxSTAT_CR> 			<http://www.assero.co.uk/BusinessOperational#enabled> 			"true" . 
<http://www.assero.co.uk/MDRModels/CDISC/V1#M-CDISC_SDTMMODEL_EVENTS_xxSTAT_CR> 			<http://www.assero.co.uk/BusinessOperational#optional> 			"false" . 
<http://www.assero.co.uk/MDRModels/CDISC/V1#M-CDISC_SDTMMODEL_xxSTAT> 			<http://www.w3.org/1999/02/22-rdf-syntax-ns#type> 			<http://www.assero.co.uk/BusinessDomain#ModelVariable> . 
<http://www.assero.co.uk/MDRModels/CDISC/V1#M-CDISC_SDTMMODEL_xxSTAT> 			<http://www.w3.org/2000/01/rdf-schema#label> 			"Completion Status" . 
<http://www.assero.co.uk/MDRModels/CDISC/V1#M-CDISC_SDTMMODEL_xxSTAT> 			<http://www.assero.co.uk/BusinessDomain#classifiedAs> 			<http://www.assero.co.uk/MDRModels/CDISC/V1#M-CDISC_SDTMMODEL_SC_RECORDQUALIFIER> . 
<http://www.assero.co.uk/MDRModels/CDISC/V1#M-CDISC_SDTMMODEL_xxSTAT> 			<http://www.assero.co.uk/BusinessDomain#typedAs> 			<http://www.assero.co.uk/MDRModels/CDISC/V1#M-CDISC_SDTMMODEL_DT_CHAR> . 
<http://www.assero.co.uk/MDRModels/CDISC/V1#M-CDISC_SDTMMODEL_xxSTAT> 			<http://www.assero.co.uk/BusinessDomain#rule> 			"" . 
<http://www.assero.co.uk/MDRModels/CDISC/V1#M-CDISC_SDTMMODEL_xxSTAT> 			<http://www.assero.co.uk/BusinessDomain#ordinal> 			"8" . 
<http://www.assero.co.uk/MDRModels/CDISC/V1#M-CDISC_SDTMMODEL_xxSTAT> 			<http://www.assero.co.uk/BusinessDomain#ordinal> 			"20" . 
<http://www.assero.co.uk/MDRModels/CDISC/V1#M-CDISC_SDTMMODEL_xxSTAT> 			<http://www.assero.co.uk/BusinessDomain#name> 			"--STAT" . 
<http://www.assero.co.uk/MDRModels/CDISC/V1#M-CDISC_SDTMMODEL_xxSTAT> 			<http://www.assero.co.uk/BusinessDomain#prefixed> 			"true" . 
<http://www.assero.co.uk/MDRModels/CDISC/V1#M-CDISC_SDTMMODEL_xxSTAT> 			<http://www.assero.co.uk/BusinessDomain#description> 			"Used to indicate when a question about the occurrence of a pre-specified event was not answered. Should be null or have a value of NOT DONE." . 
<http://www.assero.co.uk/MDRModels/CDISC/V1#M-CDISC_SDTMMODEL_EVENTS_xxREASND> 			<http://www.w3.org/1999/02/22-rdf-syntax-ns#type> 			<http://www.assero.co.uk/BusinessDomain#ClassVariable> . 
<http://www.assero.co.uk/MDRModels/CDISC/V1#M-CDISC_SDTMMODEL_EVENTS_xxREASND> 			<http://www.w3.org/2000/01/rdf-schema#label> 			"Reason Not Done" . 
<http://www.assero.co.uk/MDRModels/CDISC/V1#M-CDISC_SDTMMODEL_EVENTS_xxREASND> 			<http://www.assero.co.uk/BusinessDomain#basedOnVariable> 			<http://www.assero.co.uk/MDRModels/CDISC/V1#M-CDISC_SDTMMODEL_EVENTS_xxREASND_CR> . 
<http://www.assero.co.uk/MDRModels/CDISC/V1#M-CDISC_SDTMMODEL_EVENTS_xxREASND> 			<http://www.assero.co.uk/BusinessDomain#ordinal> 			"16" . 
<http://www.assero.co.uk/MDRModels/CDISC/V1#M-CDISC_SDTMMODEL_EVENTS_xxREASND_CR> 			<http://www.w3.org/1999/02/22-rdf-syntax-ns#type> 			<http://www.assero.co.uk/BusinessOperational#CReference> . 
<http://www.assero.co.uk/MDRModels/CDISC/V1#M-CDISC_SDTMMODEL_EVENTS_xxREASND_CR> 			<http://www.assero.co.uk/BusinessOperational#hasColumn> 			<http://www.assero.co.uk/MDRModels/CDISC/V1#M-CDISC_SDTMMODEL_xxREASND> . 
<http://www.assero.co.uk/MDRModels/CDISC/V1#M-CDISC_SDTMMODEL_EVENTS_xxREASND_CR> 			<http://www.assero.co.uk/BusinessOperational#ordinal> 			"16" . 
<http://www.assero.co.uk/MDRModels/CDISC/V1#M-CDISC_SDTMMODEL_EVENTS_xxREASND_CR> 			<http://www.assero.co.uk/BusinessOperational#enabled> 			"true" . 
<http://www.assero.co.uk/MDRModels/CDISC/V1#M-CDISC_SDTMMODEL_EVENTS_xxREASND_CR> 			<http://www.assero.co.uk/BusinessOperational#optional> 			"false" . 
<http://www.assero.co.uk/MDRModels/CDISC/V1#M-CDISC_SDTMMODEL_xxREASND> 			<http://www.w3.org/1999/02/22-rdf-syntax-ns#type> 			<http://www.assero.co.uk/BusinessDomain#ModelVariable> . 
<http://www.assero.co.uk/MDRModels/CDISC/V1#M-CDISC_SDTMMODEL_xxREASND> 			<http://www.w3.org/2000/01/rdf-schema#label> 			"Reason Not Done" . 
<http://www.assero.co.uk/MDRModels/CDISC/V1#M-CDISC_SDTMMODEL_xxREASND> 			<http://www.assero.co.uk/BusinessDomain#classifiedAs> 			<http://www.assero.co.uk/MDRModels/CDISC/V1#M-CDISC_SDTMMODEL_SC_RECORDQUALIFIER> . 
<http://www.assero.co.uk/MDRModels/CDISC/V1#M-CDISC_SDTMMODEL_xxREASND> 			<http://www.assero.co.uk/BusinessDomain#typedAs> 			<http://www.assero.co.uk/MDRModels/CDISC/V1#M-CDISC_SDTMMODEL_DT_CHAR> . 
<http://www.assero.co.uk/MDRModels/CDISC/V1#M-CDISC_SDTMMODEL_xxREASND> 			<http://www.assero.co.uk/BusinessDomain#rule> 			"" . 
<http://www.assero.co.uk/MDRModels/CDISC/V1#M-CDISC_SDTMMODEL_xxREASND> 			<http://www.assero.co.uk/BusinessDomain#ordinal> 			"9" . 
<http://www.assero.co.uk/MDRModels/CDISC/V1#M-CDISC_SDTMMODEL_xxREASND> 			<http://www.assero.co.uk/BusinessDomain#ordinal> 			"21" . 
<http://www.assero.co.uk/MDRModels/CDISC/V1#M-CDISC_SDTMMODEL_xxREASND> 			<http://www.assero.co.uk/BusinessDomain#name> 			"--REASND" . 
<http://www.assero.co.uk/MDRModels/CDISC/V1#M-CDISC_SDTMMODEL_xxREASND> 			<http://www.assero.co.uk/BusinessDomain#prefixed> 			"true" . 
<http://www.assero.co.uk/MDRModels/CDISC/V1#M-CDISC_SDTMMODEL_xxREASND> 			<http://www.assero.co.uk/BusinessDomain#description> 			"Reason not done. Used in conjunction with --STAT when value is NOT DONE." . 
<http://www.assero.co.uk/MDRModels/CDISC/V1#M-CDISC_SDTMMODEL_EVENTS_xxBODSYS> 			<http://www.w3.org/1999/02/22-rdf-syntax-ns#type> 			<http://www.assero.co.uk/BusinessDomain#ClassVariable> . 
<http://www.assero.co.uk/MDRModels/CDISC/V1#M-CDISC_SDTMMODEL_EVENTS_xxBODSYS> 			<http://www.w3.org/2000/01/rdf-schema#label> 			"Body System or Organ Class" . 
<http://www.assero.co.uk/MDRModels/CDISC/V1#M-CDISC_SDTMMODEL_EVENTS_xxBODSYS> 			<http://www.assero.co.uk/BusinessDomain#basedOnVariable> 			<http://www.assero.co.uk/MDRModels/CDISC/V1#M-CDISC_SDTMMODEL_EVENTS_xxBODSYS_CR> . 
<http://www.assero.co.uk/MDRModels/CDISC/V1#M-CDISC_SDTMMODEL_EVENTS_xxBODSYS> 			<http://www.assero.co.uk/BusinessDomain#ordinal> 			"17" . 
<http://www.assero.co.uk/MDRModels/CDISC/V1#M-CDISC_SDTMMODEL_EVENTS_xxBODSYS_CR> 			<http://www.w3.org/1999/02/22-rdf-syntax-ns#type> 			<http://www.assero.co.uk/BusinessOperational#CReference> . 
<http://www.assero.co.uk/MDRModels/CDISC/V1#M-CDISC_SDTMMODEL_EVENTS_xxBODSYS_CR> 			<http://www.assero.co.uk/BusinessOperational#hasColumn> 			<http://www.assero.co.uk/MDRModels/CDISC/V1#M-CDISC_SDTMMODEL_xxBODSYS> . 
<http://www.assero.co.uk/MDRModels/CDISC/V1#M-CDISC_SDTMMODEL_EVENTS_xxBODSYS_CR> 			<http://www.assero.co.uk/BusinessOperational#ordinal> 			"17" . 
<http://www.assero.co.uk/MDRModels/CDISC/V1#M-CDISC_SDTMMODEL_EVENTS_xxBODSYS_CR> 			<http://www.assero.co.uk/BusinessOperational#enabled> 			"true" . 
<http://www.assero.co.uk/MDRModels/CDISC/V1#M-CDISC_SDTMMODEL_EVENTS_xxBODSYS_CR> 			<http://www.assero.co.uk/BusinessOperational#optional> 			"false" . 
<http://www.assero.co.uk/MDRModels/CDISC/V1#M-CDISC_SDTMMODEL_xxBODSYS> 			<http://www.w3.org/1999/02/22-rdf-syntax-ns#type> 			<http://www.assero.co.uk/BusinessDomain#ModelVariable> . 
<http://www.assero.co.uk/MDRModels/CDISC/V1#M-CDISC_SDTMMODEL_xxBODSYS> 			<http://www.w3.org/2000/01/rdf-schema#label> 			"Body System or Organ Class" . 
<http://www.assero.co.uk/MDRModels/CDISC/V1#M-CDISC_SDTMMODEL_xxBODSYS> 			<http://www.assero.co.uk/BusinessDomain#classifiedAs> 			<http://www.assero.co.uk/MDRModels/CDISC/V1#M-CDISC_SDTMMODEL_SC_RECORDQUALIFIER> . 
<http://www.assero.co.uk/MDRModels/CDISC/V1#M-CDISC_SDTMMODEL_xxBODSYS> 			<http://www.assero.co.uk/BusinessDomain#typedAs> 			<http://www.assero.co.uk/MDRModels/CDISC/V1#M-CDISC_SDTMMODEL_DT_CHAR> . 
<http://www.assero.co.uk/MDRModels/CDISC/V1#M-CDISC_SDTMMODEL_xxBODSYS> 			<http://www.assero.co.uk/BusinessDomain#rule> 			"" . 
<http://www.assero.co.uk/MDRModels/CDISC/V1#M-CDISC_SDTMMODEL_xxBODSYS> 			<http://www.assero.co.uk/BusinessDomain#ordinal> 			"7" . 
<http://www.assero.co.uk/MDRModels/CDISC/V1#M-CDISC_SDTMMODEL_xxBODSYS> 			<http://www.assero.co.uk/BusinessDomain#ordinal> 			"10" . 
<http://www.assero.co.uk/MDRModels/CDISC/V1#M-CDISC_SDTMMODEL_xxBODSYS> 			<http://www.assero.co.uk/BusinessDomain#name> 			"--BODSYS" . 
<http://www.assero.co.uk/MDRModels/CDISC/V1#M-CDISC_SDTMMODEL_xxBODSYS> 			<http://www.assero.co.uk/BusinessDomain#prefixed> 			"true" . 
<http://www.assero.co.uk/MDRModels/CDISC/V1#M-CDISC_SDTMMODEL_xxBODSYS> 			<http://www.assero.co.uk/BusinessDomain#description> 			"Body System or Organ Class that is involved for a finding from the standard hierarchy for dictionary-coded results. Example: MedDRA SOC." . 
<http://www.assero.co.uk/MDRModels/CDISC/V1#M-CDISC_SDTMMODEL_EVENTS_xxLOC> 			<http://www.w3.org/1999/02/22-rdf-syntax-ns#type> 			<http://www.assero.co.uk/BusinessDomain#ClassVariable> . 
<http://www.assero.co.uk/MDRModels/CDISC/V1#M-CDISC_SDTMMODEL_EVENTS_xxLOC> 			<http://www.w3.org/2000/01/rdf-schema#label> 			"Location of Event" . 
<http://www.assero.co.uk/MDRModels/CDISC/V1#M-CDISC_SDTMMODEL_EVENTS_xxLOC> 			<http://www.assero.co.uk/BusinessDomain#basedOnVariable> 			<http://www.assero.co.uk/MDRModels/CDISC/V1#M-CDISC_SDTMMODEL_EVENTS_xxLOC_CR> . 
<http://www.assero.co.uk/MDRModels/CDISC/V1#M-CDISC_SDTMMODEL_EVENTS_xxLOC> 			<http://www.assero.co.uk/BusinessDomain#ordinal> 			"18" . 
<http://www.assero.co.uk/MDRModels/CDISC/V1#M-CDISC_SDTMMODEL_EVENTS_xxLOC_CR> 			<http://www.w3.org/1999/02/22-rdf-syntax-ns#type> 			<http://www.assero.co.uk/BusinessOperational#CReference> . 
<http://www.assero.co.uk/MDRModels/CDISC/V1#M-CDISC_SDTMMODEL_EVENTS_xxLOC_CR> 			<http://www.assero.co.uk/BusinessOperational#hasColumn> 			<http://www.assero.co.uk/MDRModels/CDISC/V1#M-CDISC_SDTMMODEL_xxLOC> . 
<http://www.assero.co.uk/MDRModels/CDISC/V1#M-CDISC_SDTMMODEL_EVENTS_xxLOC_CR> 			<http://www.assero.co.uk/BusinessOperational#ordinal> 			"18" . 
<http://www.assero.co.uk/MDRModels/CDISC/V1#M-CDISC_SDTMMODEL_EVENTS_xxLOC_CR> 			<http://www.assero.co.uk/BusinessOperational#enabled> 			"true" . 
<http://www.assero.co.uk/MDRModels/CDISC/V1#M-CDISC_SDTMMODEL_EVENTS_xxLOC_CR> 			<http://www.assero.co.uk/BusinessOperational#optional> 			"false" . 
<http://www.assero.co.uk/MDRModels/CDISC/V1#M-CDISC_SDTMMODEL_xxLOC> 			<http://www.w3.org/1999/02/22-rdf-syntax-ns#type> 			<http://www.assero.co.uk/BusinessDomain#ModelVariable> . 
<http://www.assero.co.uk/MDRModels/CDISC/V1#M-CDISC_SDTMMODEL_xxLOC> 			<http://www.w3.org/2000/01/rdf-schema#label> 			"Location of Event" . 
<http://www.assero.co.uk/MDRModels/CDISC/V1#M-CDISC_SDTMMODEL_xxLOC> 			<http://www.w3.org/2000/01/rdf-schema#label> 			"Location Used for the Measurement" . 
<http://www.assero.co.uk/MDRModels/CDISC/V1#M-CDISC_SDTMMODEL_xxLOC> 			<http://www.w3.org/2000/01/rdf-schema#label> 			"Location of Dose Administration" . 
<http://www.assero.co.uk/MDRModels/CDISC/V1#M-CDISC_SDTMMODEL_xxLOC> 			<http://www.assero.co.uk/BusinessDomain#classifiedAs> 			<http://www.assero.co.uk/MDRModels/CDISC/V1#M-CDISC_SDTMMODEL_SC_RECORDQUALIFIER> . 
<http://www.assero.co.uk/MDRModels/CDISC/V1#M-CDISC_SDTMMODEL_xxLOC> 			<http://www.assero.co.uk/BusinessDomain#typedAs> 			<http://www.assero.co.uk/MDRModels/CDISC/V1#M-CDISC_SDTMMODEL_DT_CHAR> . 
<http://www.assero.co.uk/MDRModels/CDISC/V1#M-CDISC_SDTMMODEL_xxLOC> 			<http://www.assero.co.uk/BusinessDomain#rule> 			"" . 
<http://www.assero.co.uk/MDRModels/CDISC/V1#M-CDISC_SDTMMODEL_xxLOC> 			<http://www.assero.co.uk/BusinessDomain#ordinal> 			"11" . 
<http://www.assero.co.uk/MDRModels/CDISC/V1#M-CDISC_SDTMMODEL_xxLOC> 			<http://www.assero.co.uk/BusinessDomain#ordinal> 			"22" . 
<http://www.assero.co.uk/MDRModels/CDISC/V1#M-CDISC_SDTMMODEL_xxLOC> 			<http://www.assero.co.uk/BusinessDomain#ordinal> 			"27" . 
<http://www.assero.co.uk/MDRModels/CDISC/V1#M-CDISC_SDTMMODEL_xxLOC> 			<http://www.assero.co.uk/BusinessDomain#name> 			"--LOC" . 
<http://www.assero.co.uk/MDRModels/CDISC/V1#M-CDISC_SDTMMODEL_xxLOC> 			<http://www.assero.co.uk/BusinessDomain#prefixed> 			"true" . 
<http://www.assero.co.uk/MDRModels/CDISC/V1#M-CDISC_SDTMMODEL_xxLOC> 			<http://www.assero.co.uk/BusinessDomain#description> 			"Anatomical location of an intervention, such as an injection site. Example: RIGHT ARM for an injection." . 
<http://www.assero.co.uk/MDRModels/CDISC/V1#M-CDISC_SDTMMODEL_EVENTS_xxSEV> 			<http://www.w3.org/1999/02/22-rdf-syntax-ns#type> 			<http://www.assero.co.uk/BusinessDomain#ClassVariable> . 
<http://www.assero.co.uk/MDRModels/CDISC/V1#M-CDISC_SDTMMODEL_EVENTS_xxSEV> 			<http://www.w3.org/2000/01/rdf-schema#label> 			"Severity/Intensity" . 
<http://www.assero.co.uk/MDRModels/CDISC/V1#M-CDISC_SDTMMODEL_EVENTS_xxSEV> 			<http://www.assero.co.uk/BusinessDomain#basedOnVariable> 			<http://www.assero.co.uk/MDRModels/CDISC/V1#M-CDISC_SDTMMODEL_EVENTS_xxSEV_CR> . 
<http://www.assero.co.uk/MDRModels/CDISC/V1#M-CDISC_SDTMMODEL_EVENTS_xxSEV> 			<http://www.assero.co.uk/BusinessDomain#ordinal> 			"19" . 
<http://www.assero.co.uk/MDRModels/CDISC/V1#M-CDISC_SDTMMODEL_EVENTS_xxSEV_CR> 			<http://www.w3.org/1999/02/22-rdf-syntax-ns#type> 			<http://www.assero.co.uk/BusinessOperational#CReference> . 
<http://www.assero.co.uk/MDRModels/CDISC/V1#M-CDISC_SDTMMODEL_EVENTS_xxSEV_CR> 			<http://www.assero.co.uk/BusinessOperational#hasColumn> 			<http://www.assero.co.uk/MDRModels/CDISC/V1#M-CDISC_SDTMMODEL_xxSEV> . 
<http://www.assero.co.uk/MDRModels/CDISC/V1#M-CDISC_SDTMMODEL_EVENTS_xxSEV_CR> 			<http://www.assero.co.uk/BusinessOperational#ordinal> 			"19" . 
<http://www.assero.co.uk/MDRModels/CDISC/V1#M-CDISC_SDTMMODEL_EVENTS_xxSEV_CR> 			<http://www.assero.co.uk/BusinessOperational#enabled> 			"true" . 
<http://www.assero.co.uk/MDRModels/CDISC/V1#M-CDISC_SDTMMODEL_EVENTS_xxSEV_CR> 			<http://www.assero.co.uk/BusinessOperational#optional> 			"false" . 
<http://www.assero.co.uk/MDRModels/CDISC/V1#M-CDISC_SDTMMODEL_xxSEV> 			<http://www.w3.org/1999/02/22-rdf-syntax-ns#type> 			<http://www.assero.co.uk/BusinessDomain#ModelVariable> . 
<http://www.assero.co.uk/MDRModels/CDISC/V1#M-CDISC_SDTMMODEL_xxSEV> 			<http://www.w3.org/2000/01/rdf-schema#label> 			"Severity/Intensity" . 
<http://www.assero.co.uk/MDRModels/CDISC/V1#M-CDISC_SDTMMODEL_xxSEV> 			<http://www.w3.org/2000/01/rdf-schema#label> 			"Severity" . 
<http://www.assero.co.uk/MDRModels/CDISC/V1#M-CDISC_SDTMMODEL_xxSEV> 			<http://www.assero.co.uk/BusinessDomain#classifiedAs> 			<http://www.assero.co.uk/MDRModels/CDISC/V1#M-CDISC_SDTMMODEL_SC_RECORDQUALIFIER> . 
<http://www.assero.co.uk/MDRModels/CDISC/V1#M-CDISC_SDTMMODEL_xxSEV> 			<http://www.assero.co.uk/BusinessDomain#typedAs> 			<http://www.assero.co.uk/MDRModels/CDISC/V1#M-CDISC_SDTMMODEL_DT_CHAR> . 
<http://www.assero.co.uk/MDRModels/CDISC/V1#M-CDISC_SDTMMODEL_xxSEV> 			<http://www.assero.co.uk/BusinessDomain#rule> 			"" . 
<http://www.assero.co.uk/MDRModels/CDISC/V1#M-CDISC_SDTMMODEL_xxSEV> 			<http://www.assero.co.uk/BusinessDomain#ordinal> 			"12" . 
<http://www.assero.co.uk/MDRModels/CDISC/V1#M-CDISC_SDTMMODEL_xxSEV> 			<http://www.assero.co.uk/BusinessDomain#ordinal> 			"35" . 
<http://www.assero.co.uk/MDRModels/CDISC/V1#M-CDISC_SDTMMODEL_xxSEV> 			<http://www.assero.co.uk/BusinessDomain#name> 			"--SEV" . 
<http://www.assero.co.uk/MDRModels/CDISC/V1#M-CDISC_SDTMMODEL_xxSEV> 			<http://www.assero.co.uk/BusinessDomain#prefixed> 			"true" . 
<http://www.assero.co.uk/MDRModels/CDISC/V1#M-CDISC_SDTMMODEL_xxSEV> 			<http://www.assero.co.uk/BusinessDomain#description> 			"Describes the severity or intensity of a particular finding. Examples: MILD, MODERATE, SEVERE." . 
<http://www.assero.co.uk/MDRModels/CDISC/V1#M-CDISC_SDTMMODEL_EVENTS_xxSER> 			<http://www.w3.org/1999/02/22-rdf-syntax-ns#type> 			<http://www.assero.co.uk/BusinessDomain#ClassVariable> . 
<http://www.assero.co.uk/MDRModels/CDISC/V1#M-CDISC_SDTMMODEL_EVENTS_xxSER> 			<http://www.w3.org/2000/01/rdf-schema#label> 			"Serious Event" . 
<http://www.assero.co.uk/MDRModels/CDISC/V1#M-CDISC_SDTMMODEL_EVENTS_xxSER> 			<http://www.assero.co.uk/BusinessDomain#basedOnVariable> 			<http://www.assero.co.uk/MDRModels/CDISC/V1#M-CDISC_SDTMMODEL_EVENTS_xxSER_CR> . 
<http://www.assero.co.uk/MDRModels/CDISC/V1#M-CDISC_SDTMMODEL_EVENTS_xxSER> 			<http://www.assero.co.uk/BusinessDomain#ordinal> 			"20" . 
<http://www.assero.co.uk/MDRModels/CDISC/V1#M-CDISC_SDTMMODEL_EVENTS_xxSER_CR> 			<http://www.w3.org/1999/02/22-rdf-syntax-ns#type> 			<http://www.assero.co.uk/BusinessOperational#CReference> . 
<http://www.assero.co.uk/MDRModels/CDISC/V1#M-CDISC_SDTMMODEL_EVENTS_xxSER_CR> 			<http://www.assero.co.uk/BusinessOperational#hasColumn> 			<http://www.assero.co.uk/MDRModels/CDISC/V1#M-CDISC_SDTMMODEL_xxSER> . 
<http://www.assero.co.uk/MDRModels/CDISC/V1#M-CDISC_SDTMMODEL_EVENTS_xxSER_CR> 			<http://www.assero.co.uk/BusinessOperational#ordinal> 			"20" . 
<http://www.assero.co.uk/MDRModels/CDISC/V1#M-CDISC_SDTMMODEL_EVENTS_xxSER_CR> 			<http://www.assero.co.uk/BusinessOperational#enabled> 			"true" . 
<http://www.assero.co.uk/MDRModels/CDISC/V1#M-CDISC_SDTMMODEL_EVENTS_xxSER_CR> 			<http://www.assero.co.uk/BusinessOperational#optional> 			"false" . 
<http://www.assero.co.uk/MDRModels/CDISC/V1#M-CDISC_SDTMMODEL_xxSER> 			<http://www.w3.org/1999/02/22-rdf-syntax-ns#type> 			<http://www.assero.co.uk/BusinessDomain#ModelVariable> . 
<http://www.assero.co.uk/MDRModels/CDISC/V1#M-CDISC_SDTMMODEL_xxSER> 			<http://www.w3.org/2000/01/rdf-schema#label> 			"Serious Event" . 
<http://www.assero.co.uk/MDRModels/CDISC/V1#M-CDISC_SDTMMODEL_xxSER> 			<http://www.assero.co.uk/BusinessDomain#classifiedAs> 			<http://www.assero.co.uk/MDRModels/CDISC/V1#M-CDISC_SDTMMODEL_SC_RECORDQUALIFIER> . 
<http://www.assero.co.uk/MDRModels/CDISC/V1#M-CDISC_SDTMMODEL_xxSER> 			<http://www.assero.co.uk/BusinessDomain#typedAs> 			<http://www.assero.co.uk/MDRModels/CDISC/V1#M-CDISC_SDTMMODEL_DT_CHAR> . 
<http://www.assero.co.uk/MDRModels/CDISC/V1#M-CDISC_SDTMMODEL_xxSER> 			<http://www.assero.co.uk/BusinessDomain#rule> 			"" . 
<http://www.assero.co.uk/MDRModels/CDISC/V1#M-CDISC_SDTMMODEL_xxSER> 			<http://www.assero.co.uk/BusinessDomain#ordinal> 			"13" . 
<http://www.assero.co.uk/MDRModels/CDISC/V1#M-CDISC_SDTMMODEL_xxSER> 			<http://www.assero.co.uk/BusinessDomain#name> 			"--SER" . 
<http://www.assero.co.uk/MDRModels/CDISC/V1#M-CDISC_SDTMMODEL_xxSER> 			<http://www.assero.co.uk/BusinessDomain#prefixed> 			"true" . 
<http://www.assero.co.uk/MDRModels/CDISC/V1#M-CDISC_SDTMMODEL_xxSER> 			<http://www.assero.co.uk/BusinessDomain#description> 			"Is this is a serious event? Valid values are 'Y' and 'N'." . 
<http://www.assero.co.uk/MDRModels/CDISC/V1#M-CDISC_SDTMMODEL_EVENTS_xxACN> 			<http://www.w3.org/1999/02/22-rdf-syntax-ns#type> 			<http://www.assero.co.uk/BusinessDomain#ClassVariable> . 
<http://www.assero.co.uk/MDRModels/CDISC/V1#M-CDISC_SDTMMODEL_EVENTS_xxACN> 			<http://www.w3.org/2000/01/rdf-schema#label> 			"Action Taken with Study Treatment" . 
<http://www.assero.co.uk/MDRModels/CDISC/V1#M-CDISC_SDTMMODEL_EVENTS_xxACN> 			<http://www.assero.co.uk/BusinessDomain#basedOnVariable> 			<http://www.assero.co.uk/MDRModels/CDISC/V1#M-CDISC_SDTMMODEL_EVENTS_xxACN_CR> . 
<http://www.assero.co.uk/MDRModels/CDISC/V1#M-CDISC_SDTMMODEL_EVENTS_xxACN> 			<http://www.assero.co.uk/BusinessDomain#ordinal> 			"21" . 
<http://www.assero.co.uk/MDRModels/CDISC/V1#M-CDISC_SDTMMODEL_EVENTS_xxACN_CR> 			<http://www.w3.org/1999/02/22-rdf-syntax-ns#type> 			<http://www.assero.co.uk/BusinessOperational#CReference> . 
<http://www.assero.co.uk/MDRModels/CDISC/V1#M-CDISC_SDTMMODEL_EVENTS_xxACN_CR> 			<http://www.assero.co.uk/BusinessOperational#hasColumn> 			<http://www.assero.co.uk/MDRModels/CDISC/V1#M-CDISC_SDTMMODEL_xxACN> . 
<http://www.assero.co.uk/MDRModels/CDISC/V1#M-CDISC_SDTMMODEL_EVENTS_xxACN_CR> 			<http://www.assero.co.uk/BusinessOperational#ordinal> 			"21" . 
<http://www.assero.co.uk/MDRModels/CDISC/V1#M-CDISC_SDTMMODEL_EVENTS_xxACN_CR> 			<http://www.assero.co.uk/BusinessOperational#enabled> 			"true" . 
<http://www.assero.co.uk/MDRModels/CDISC/V1#M-CDISC_SDTMMODEL_EVENTS_xxACN_CR> 			<http://www.assero.co.uk/BusinessOperational#optional> 			"false" . 
<http://www.assero.co.uk/MDRModels/CDISC/V1#M-CDISC_SDTMMODEL_xxACN> 			<http://www.w3.org/1999/02/22-rdf-syntax-ns#type> 			<http://www.assero.co.uk/BusinessDomain#ModelVariable> . 
<http://www.assero.co.uk/MDRModels/CDISC/V1#M-CDISC_SDTMMODEL_xxACN> 			<http://www.w3.org/2000/01/rdf-schema#label> 			"Action Taken with Study Treatment" . 
<http://www.assero.co.uk/MDRModels/CDISC/V1#M-CDISC_SDTMMODEL_xxACN> 			<http://www.assero.co.uk/BusinessDomain#classifiedAs> 			<http://www.assero.co.uk/MDRModels/CDISC/V1#M-CDISC_SDTMMODEL_SC_RECORDQUALIFIER> . 
<http://www.assero.co.uk/MDRModels/CDISC/V1#M-CDISC_SDTMMODEL_xxACN> 			<http://www.assero.co.uk/BusinessDomain#typedAs> 			<http://www.assero.co.uk/MDRModels/CDISC/V1#M-CDISC_SDTMMODEL_DT_CHAR> . 
<http://www.assero.co.uk/MDRModels/CDISC/V1#M-CDISC_SDTMMODEL_xxACN> 			<http://www.assero.co.uk/BusinessDomain#rule> 			"" . 
<http://www.assero.co.uk/MDRModels/CDISC/V1#M-CDISC_SDTMMODEL_xxACN> 			<http://www.assero.co.uk/BusinessDomain#ordinal> 			"14" . 
<http://www.assero.co.uk/MDRModels/CDISC/V1#M-CDISC_SDTMMODEL_xxACN> 			<http://www.assero.co.uk/BusinessDomain#name> 			"--ACN" . 
<http://www.assero.co.uk/MDRModels/CDISC/V1#M-CDISC_SDTMMODEL_xxACN> 			<http://www.assero.co.uk/BusinessDomain#prefixed> 			"true" . 
<http://www.assero.co.uk/MDRModels/CDISC/V1#M-CDISC_SDTMMODEL_xxACN> 			<http://www.assero.co.uk/BusinessDomain#description> 			"Describes changes made to the study treatment as a result of the event. Examples: DOSE INCREASED, DOSE NOT CHANGED." . 
<http://www.assero.co.uk/MDRModels/CDISC/V1#M-CDISC_SDTMMODEL_EVENTS_xxACNOTH> 			<http://www.w3.org/1999/02/22-rdf-syntax-ns#type> 			<http://www.assero.co.uk/BusinessDomain#ClassVariable> . 
<http://www.assero.co.uk/MDRModels/CDISC/V1#M-CDISC_SDTMMODEL_EVENTS_xxACNOTH> 			<http://www.w3.org/2000/01/rdf-schema#label> 			"Other Action Taken" . 
<http://www.assero.co.uk/MDRModels/CDISC/V1#M-CDISC_SDTMMODEL_EVENTS_xxACNOTH> 			<http://www.assero.co.uk/BusinessDomain#basedOnVariable> 			<http://www.assero.co.uk/MDRModels/CDISC/V1#M-CDISC_SDTMMODEL_EVENTS_xxACNOTH_CR> . 
<http://www.assero.co.uk/MDRModels/CDISC/V1#M-CDISC_SDTMMODEL_EVENTS_xxACNOTH> 			<http://www.assero.co.uk/BusinessDomain#ordinal> 			"22" . 
<http://www.assero.co.uk/MDRModels/CDISC/V1#M-CDISC_SDTMMODEL_EVENTS_xxACNOTH_CR> 			<http://www.w3.org/1999/02/22-rdf-syntax-ns#type> 			<http://www.assero.co.uk/BusinessOperational#CReference> . 
<http://www.assero.co.uk/MDRModels/CDISC/V1#M-CDISC_SDTMMODEL_EVENTS_xxACNOTH_CR> 			<http://www.assero.co.uk/BusinessOperational#hasColumn> 			<http://www.assero.co.uk/MDRModels/CDISC/V1#M-CDISC_SDTMMODEL_xxACNOTH> . 
<http://www.assero.co.uk/MDRModels/CDISC/V1#M-CDISC_SDTMMODEL_EVENTS_xxACNOTH_CR> 			<http://www.assero.co.uk/BusinessOperational#ordinal> 			"22" . 
<http://www.assero.co.uk/MDRModels/CDISC/V1#M-CDISC_SDTMMODEL_EVENTS_xxACNOTH_CR> 			<http://www.assero.co.uk/BusinessOperational#enabled> 			"true" . 
<http://www.assero.co.uk/MDRModels/CDISC/V1#M-CDISC_SDTMMODEL_EVENTS_xxACNOTH_CR> 			<http://www.assero.co.uk/BusinessOperational#optional> 			"false" . 
<http://www.assero.co.uk/MDRModels/CDISC/V1#M-CDISC_SDTMMODEL_xxACNOTH> 			<http://www.w3.org/1999/02/22-rdf-syntax-ns#type> 			<http://www.assero.co.uk/BusinessDomain#ModelVariable> . 
<http://www.assero.co.uk/MDRModels/CDISC/V1#M-CDISC_SDTMMODEL_xxACNOTH> 			<http://www.w3.org/2000/01/rdf-schema#label> 			"Other Action Taken" . 
<http://www.assero.co.uk/MDRModels/CDISC/V1#M-CDISC_SDTMMODEL_xxACNOTH> 			<http://www.assero.co.uk/BusinessDomain#classifiedAs> 			<http://www.assero.co.uk/MDRModels/CDISC/V1#M-CDISC_SDTMMODEL_SC_RECORDQUALIFIER> . 
<http://www.assero.co.uk/MDRModels/CDISC/V1#M-CDISC_SDTMMODEL_xxACNOTH> 			<http://www.assero.co.uk/BusinessDomain#typedAs> 			<http://www.assero.co.uk/MDRModels/CDISC/V1#M-CDISC_SDTMMODEL_DT_CHAR> . 
<http://www.assero.co.uk/MDRModels/CDISC/V1#M-CDISC_SDTMMODEL_xxACNOTH> 			<http://www.assero.co.uk/BusinessDomain#rule> 			"" . 
<http://www.assero.co.uk/MDRModels/CDISC/V1#M-CDISC_SDTMMODEL_xxACNOTH> 			<http://www.assero.co.uk/BusinessDomain#ordinal> 			"15" . 
<http://www.assero.co.uk/MDRModels/CDISC/V1#M-CDISC_SDTMMODEL_xxACNOTH> 			<http://www.assero.co.uk/BusinessDomain#name> 			"--ACNOTH" . 
<http://www.assero.co.uk/MDRModels/CDISC/V1#M-CDISC_SDTMMODEL_xxACNOTH> 			<http://www.assero.co.uk/BusinessDomain#prefixed> 			"true" . 
<http://www.assero.co.uk/MDRModels/CDISC/V1#M-CDISC_SDTMMODEL_xxACNOTH> 			<http://www.assero.co.uk/BusinessDomain#description> 			"Describes other actions taken as a result of the event that are unrelated to dose adjustments of study treatment." . 
<http://www.assero.co.uk/MDRModels/CDISC/V1#M-CDISC_SDTMMODEL_EVENTS_xxREL> 			<http://www.w3.org/1999/02/22-rdf-syntax-ns#type> 			<http://www.assero.co.uk/BusinessDomain#ClassVariable> . 
<http://www.assero.co.uk/MDRModels/CDISC/V1#M-CDISC_SDTMMODEL_EVENTS_xxREL> 			<http://www.w3.org/2000/01/rdf-schema#label> 			"Causality" . 
<http://www.assero.co.uk/MDRModels/CDISC/V1#M-CDISC_SDTMMODEL_EVENTS_xxREL> 			<http://www.assero.co.uk/BusinessDomain#basedOnVariable> 			<http://www.assero.co.uk/MDRModels/CDISC/V1#M-CDISC_SDTMMODEL_EVENTS_xxREL_CR> . 
<http://www.assero.co.uk/MDRModels/CDISC/V1#M-CDISC_SDTMMODEL_EVENTS_xxREL> 			<http://www.assero.co.uk/BusinessDomain#ordinal> 			"23" . 
<http://www.assero.co.uk/MDRModels/CDISC/V1#M-CDISC_SDTMMODEL_EVENTS_xxREL_CR> 			<http://www.w3.org/1999/02/22-rdf-syntax-ns#type> 			<http://www.assero.co.uk/BusinessOperational#CReference> . 
<http://www.assero.co.uk/MDRModels/CDISC/V1#M-CDISC_SDTMMODEL_EVENTS_xxREL_CR> 			<http://www.assero.co.uk/BusinessOperational#hasColumn> 			<http://www.assero.co.uk/MDRModels/CDISC/V1#M-CDISC_SDTMMODEL_xxREL> . 
<http://www.assero.co.uk/MDRModels/CDISC/V1#M-CDISC_SDTMMODEL_EVENTS_xxREL_CR> 			<http://www.assero.co.uk/BusinessOperational#ordinal> 			"23" . 
<http://www.assero.co.uk/MDRModels/CDISC/V1#M-CDISC_SDTMMODEL_EVENTS_xxREL_CR> 			<http://www.assero.co.uk/BusinessOperational#enabled> 			"true" . 
<http://www.assero.co.uk/MDRModels/CDISC/V1#M-CDISC_SDTMMODEL_EVENTS_xxREL_CR> 			<http://www.assero.co.uk/BusinessOperational#optional> 			"false" . 
<http://www.assero.co.uk/MDRModels/CDISC/V1#M-CDISC_SDTMMODEL_xxREL> 			<http://www.w3.org/1999/02/22-rdf-syntax-ns#type> 			<http://www.assero.co.uk/BusinessDomain#ModelVariable> . 
<http://www.assero.co.uk/MDRModels/CDISC/V1#M-CDISC_SDTMMODEL_xxREL> 			<http://www.w3.org/2000/01/rdf-schema#label> 			"Causality" . 
<http://www.assero.co.uk/MDRModels/CDISC/V1#M-CDISC_SDTMMODEL_xxREL> 			<http://www.assero.co.uk/BusinessDomain#classifiedAs> 			<http://www.assero.co.uk/MDRModels/CDISC/V1#M-CDISC_SDTMMODEL_SC_RECORDQUALIFIER> . 
<http://www.assero.co.uk/MDRModels/CDISC/V1#M-CDISC_SDTMMODEL_xxREL> 			<http://www.assero.co.uk/BusinessDomain#typedAs> 			<http://www.assero.co.uk/MDRModels/CDISC/V1#M-CDISC_SDTMMODEL_DT_CHAR> . 
<http://www.assero.co.uk/MDRModels/CDISC/V1#M-CDISC_SDTMMODEL_xxREL> 			<http://www.assero.co.uk/BusinessDomain#rule> 			"" . 
<http://www.assero.co.uk/MDRModels/CDISC/V1#M-CDISC_SDTMMODEL_xxREL> 			<http://www.assero.co.uk/BusinessDomain#ordinal> 			"16" . 
<http://www.assero.co.uk/MDRModels/CDISC/V1#M-CDISC_SDTMMODEL_xxREL> 			<http://www.assero.co.uk/BusinessDomain#name> 			"--REL" . 
<http://www.assero.co.uk/MDRModels/CDISC/V1#M-CDISC_SDTMMODEL_xxREL> 			<http://www.assero.co.uk/BusinessDomain#prefixed> 			"true" . 
<http://www.assero.co.uk/MDRModels/CDISC/V1#M-CDISC_SDTMMODEL_xxREL> 			<http://www.assero.co.uk/BusinessDomain#description> 			"Records the investigator's opinion as to the causality of the event to the treatment. ICH E2A and E2B examples include NOT RELATED, UNLIKELY RELATED, POSSIBLY RELATED, RELATED." . 
<http://www.assero.co.uk/MDRModels/CDISC/V1#M-CDISC_SDTMMODEL_EVENTS_xxRELNST> 			<http://www.w3.org/1999/02/22-rdf-syntax-ns#type> 			<http://www.assero.co.uk/BusinessDomain#ClassVariable> . 
<http://www.assero.co.uk/MDRModels/CDISC/V1#M-CDISC_SDTMMODEL_EVENTS_xxRELNST> 			<http://www.w3.org/2000/01/rdf-schema#label> 			"Relationship to Non-Study Treatment" . 
<http://www.assero.co.uk/MDRModels/CDISC/V1#M-CDISC_SDTMMODEL_EVENTS_xxRELNST> 			<http://www.assero.co.uk/BusinessDomain#basedOnVariable> 			<http://www.assero.co.uk/MDRModels/CDISC/V1#M-CDISC_SDTMMODEL_EVENTS_xxRELNST_CR> . 
<http://www.assero.co.uk/MDRModels/CDISC/V1#M-CDISC_SDTMMODEL_EVENTS_xxRELNST> 			<http://www.assero.co.uk/BusinessDomain#ordinal> 			"24" . 
<http://www.assero.co.uk/MDRModels/CDISC/V1#M-CDISC_SDTMMODEL_EVENTS_xxRELNST_CR> 			<http://www.w3.org/1999/02/22-rdf-syntax-ns#type> 			<http://www.assero.co.uk/BusinessOperational#CReference> . 
<http://www.assero.co.uk/MDRModels/CDISC/V1#M-CDISC_SDTMMODEL_EVENTS_xxRELNST_CR> 			<http://www.assero.co.uk/BusinessOperational#hasColumn> 			<http://www.assero.co.uk/MDRModels/CDISC/V1#M-CDISC_SDTMMODEL_xxRELNST> . 
<http://www.assero.co.uk/MDRModels/CDISC/V1#M-CDISC_SDTMMODEL_EVENTS_xxRELNST_CR> 			<http://www.assero.co.uk/BusinessOperational#ordinal> 			"24" . 
<http://www.assero.co.uk/MDRModels/CDISC/V1#M-CDISC_SDTMMODEL_EVENTS_xxRELNST_CR> 			<http://www.assero.co.uk/BusinessOperational#enabled> 			"true" . 
<http://www.assero.co.uk/MDRModels/CDISC/V1#M-CDISC_SDTMMODEL_EVENTS_xxRELNST_CR> 			<http://www.assero.co.uk/BusinessOperational#optional> 			"false" . 
<http://www.assero.co.uk/MDRModels/CDISC/V1#M-CDISC_SDTMMODEL_xxRELNST> 			<http://www.w3.org/1999/02/22-rdf-syntax-ns#type> 			<http://www.assero.co.uk/BusinessDomain#ModelVariable> . 
<http://www.assero.co.uk/MDRModels/CDISC/V1#M-CDISC_SDTMMODEL_xxRELNST> 			<http://www.w3.org/2000/01/rdf-schema#label> 			"Relationship to Non-Study Treatment" . 
<http://www.assero.co.uk/MDRModels/CDISC/V1#M-CDISC_SDTMMODEL_xxRELNST> 			<http://www.assero.co.uk/BusinessDomain#classifiedAs> 			<http://www.assero.co.uk/MDRModels/CDISC/V1#M-CDISC_SDTMMODEL_SC_RECORDQUALIFIER> . 
<http://www.assero.co.uk/MDRModels/CDISC/V1#M-CDISC_SDTMMODEL_xxRELNST> 			<http://www.assero.co.uk/BusinessDomain#typedAs> 			<http://www.assero.co.uk/MDRModels/CDISC/V1#M-CDISC_SDTMMODEL_DT_CHAR> . 
<http://www.assero.co.uk/MDRModels/CDISC/V1#M-CDISC_SDTMMODEL_xxRELNST> 			<http://www.assero.co.uk/BusinessDomain#rule> 			"" . 
<http://www.assero.co.uk/MDRModels/CDISC/V1#M-CDISC_SDTMMODEL_xxRELNST> 			<http://www.assero.co.uk/BusinessDomain#ordinal> 			"17" . 
<http://www.assero.co.uk/MDRModels/CDISC/V1#M-CDISC_SDTMMODEL_xxRELNST> 			<http://www.assero.co.uk/BusinessDomain#name> 			"--RELNST" . 
<http://www.assero.co.uk/MDRModels/CDISC/V1#M-CDISC_SDTMMODEL_xxRELNST> 			<http://www.assero.co.uk/BusinessDomain#prefixed> 			"true" . 
<http://www.assero.co.uk/MDRModels/CDISC/V1#M-CDISC_SDTMMODEL_xxRELNST> 			<http://www.assero.co.uk/BusinessDomain#description> 			"An opinion as to whether the event may have been due to a treatment other than study drug. Example: 'MORE LIKELY RELATED TO ASPIRIN USE.'" . 
<http://www.assero.co.uk/MDRModels/CDISC/V1#M-CDISC_SDTMMODEL_EVENTS_xxPATT> 			<http://www.w3.org/1999/02/22-rdf-syntax-ns#type> 			<http://www.assero.co.uk/BusinessDomain#ClassVariable> . 
<http://www.assero.co.uk/MDRModels/CDISC/V1#M-CDISC_SDTMMODEL_EVENTS_xxPATT> 			<http://www.w3.org/2000/01/rdf-schema#label> 			"Pattern of Event" . 
<http://www.assero.co.uk/MDRModels/CDISC/V1#M-CDISC_SDTMMODEL_EVENTS_xxPATT> 			<http://www.assero.co.uk/BusinessDomain#basedOnVariable> 			<http://www.assero.co.uk/MDRModels/CDISC/V1#M-CDISC_SDTMMODEL_EVENTS_xxPATT_CR> . 
<http://www.assero.co.uk/MDRModels/CDISC/V1#M-CDISC_SDTMMODEL_EVENTS_xxPATT> 			<http://www.assero.co.uk/BusinessDomain#ordinal> 			"25" . 
<http://www.assero.co.uk/MDRModels/CDISC/V1#M-CDISC_SDTMMODEL_EVENTS_xxPATT_CR> 			<http://www.w3.org/1999/02/22-rdf-syntax-ns#type> 			<http://www.assero.co.uk/BusinessOperational#CReference> . 
<http://www.assero.co.uk/MDRModels/CDISC/V1#M-CDISC_SDTMMODEL_EVENTS_xxPATT_CR> 			<http://www.assero.co.uk/BusinessOperational#hasColumn> 			<http://www.assero.co.uk/MDRModels/CDISC/V1#M-CDISC_SDTMMODEL_xxPATT> . 
<http://www.assero.co.uk/MDRModels/CDISC/V1#M-CDISC_SDTMMODEL_EVENTS_xxPATT_CR> 			<http://www.assero.co.uk/BusinessOperational#ordinal> 			"25" . 
<http://www.assero.co.uk/MDRModels/CDISC/V1#M-CDISC_SDTMMODEL_EVENTS_xxPATT_CR> 			<http://www.assero.co.uk/BusinessOperational#enabled> 			"true" . 
<http://www.assero.co.uk/MDRModels/CDISC/V1#M-CDISC_SDTMMODEL_EVENTS_xxPATT_CR> 			<http://www.assero.co.uk/BusinessOperational#optional> 			"false" . 
<http://www.assero.co.uk/MDRModels/CDISC/V1#M-CDISC_SDTMMODEL_xxPATT> 			<http://www.w3.org/1999/02/22-rdf-syntax-ns#type> 			<http://www.assero.co.uk/BusinessDomain#ModelVariable> . 
<http://www.assero.co.uk/MDRModels/CDISC/V1#M-CDISC_SDTMMODEL_xxPATT> 			<http://www.w3.org/2000/01/rdf-schema#label> 			"Pattern of Event" . 
<http://www.assero.co.uk/MDRModels/CDISC/V1#M-CDISC_SDTMMODEL_xxPATT> 			<http://www.assero.co.uk/BusinessDomain#classifiedAs> 			<http://www.assero.co.uk/MDRModels/CDISC/V1#M-CDISC_SDTMMODEL_SC_RECORDQUALIFIER> . 
<http://www.assero.co.uk/MDRModels/CDISC/V1#M-CDISC_SDTMMODEL_xxPATT> 			<http://www.assero.co.uk/BusinessDomain#typedAs> 			<http://www.assero.co.uk/MDRModels/CDISC/V1#M-CDISC_SDTMMODEL_DT_CHAR> . 
<http://www.assero.co.uk/MDRModels/CDISC/V1#M-CDISC_SDTMMODEL_xxPATT> 			<http://www.assero.co.uk/BusinessDomain#rule> 			"" . 
<http://www.assero.co.uk/MDRModels/CDISC/V1#M-CDISC_SDTMMODEL_xxPATT> 			<http://www.assero.co.uk/BusinessDomain#ordinal> 			"18" . 
<http://www.assero.co.uk/MDRModels/CDISC/V1#M-CDISC_SDTMMODEL_xxPATT> 			<http://www.assero.co.uk/BusinessDomain#name> 			"--PATT" . 
<http://www.assero.co.uk/MDRModels/CDISC/V1#M-CDISC_SDTMMODEL_xxPATT> 			<http://www.assero.co.uk/BusinessDomain#prefixed> 			"true" . 
<http://www.assero.co.uk/MDRModels/CDISC/V1#M-CDISC_SDTMMODEL_xxPATT> 			<http://www.assero.co.uk/BusinessDomain#description> 			"Used to indicate the pattern of the event over time. Examples: INTERMITTENT, CONTINUOUS, SINGLE EVENT." . 
<http://www.assero.co.uk/MDRModels/CDISC/V1#M-CDISC_SDTMMODEL_EVENTS_xxOUT> 			<http://www.w3.org/1999/02/22-rdf-syntax-ns#type> 			<http://www.assero.co.uk/BusinessDomain#ClassVariable> . 
<http://www.assero.co.uk/MDRModels/CDISC/V1#M-CDISC_SDTMMODEL_EVENTS_xxOUT> 			<http://www.w3.org/2000/01/rdf-schema#label> 			"Outcome of Event" . 
<http://www.assero.co.uk/MDRModels/CDISC/V1#M-CDISC_SDTMMODEL_EVENTS_xxOUT> 			<http://www.assero.co.uk/BusinessDomain#basedOnVariable> 			<http://www.assero.co.uk/MDRModels/CDISC/V1#M-CDISC_SDTMMODEL_EVENTS_xxOUT_CR> . 
<http://www.assero.co.uk/MDRModels/CDISC/V1#M-CDISC_SDTMMODEL_EVENTS_xxOUT> 			<http://www.assero.co.uk/BusinessDomain#ordinal> 			"26" . 
<http://www.assero.co.uk/MDRModels/CDISC/V1#M-CDISC_SDTMMODEL_EVENTS_xxOUT_CR> 			<http://www.w3.org/1999/02/22-rdf-syntax-ns#type> 			<http://www.assero.co.uk/BusinessOperational#CReference> . 
<http://www.assero.co.uk/MDRModels/CDISC/V1#M-CDISC_SDTMMODEL_EVENTS_xxOUT_CR> 			<http://www.assero.co.uk/BusinessOperational#hasColumn> 			<http://www.assero.co.uk/MDRModels/CDISC/V1#M-CDISC_SDTMMODEL_xxOUT> . 
<http://www.assero.co.uk/MDRModels/CDISC/V1#M-CDISC_SDTMMODEL_EVENTS_xxOUT_CR> 			<http://www.assero.co.uk/BusinessOperational#ordinal> 			"26" . 
<http://www.assero.co.uk/MDRModels/CDISC/V1#M-CDISC_SDTMMODEL_EVENTS_xxOUT_CR> 			<http://www.assero.co.uk/BusinessOperational#enabled> 			"true" . 
<http://www.assero.co.uk/MDRModels/CDISC/V1#M-CDISC_SDTMMODEL_EVENTS_xxOUT_CR> 			<http://www.assero.co.uk/BusinessOperational#optional> 			"false" . 
<http://www.assero.co.uk/MDRModels/CDISC/V1#M-CDISC_SDTMMODEL_xxOUT> 			<http://www.w3.org/1999/02/22-rdf-syntax-ns#type> 			<http://www.assero.co.uk/BusinessDomain#ModelVariable> . 
<http://www.assero.co.uk/MDRModels/CDISC/V1#M-CDISC_SDTMMODEL_xxOUT> 			<http://www.w3.org/2000/01/rdf-schema#label> 			"Outcome of Event" . 
<http://www.assero.co.uk/MDRModels/CDISC/V1#M-CDISC_SDTMMODEL_xxOUT> 			<http://www.assero.co.uk/BusinessDomain#classifiedAs> 			<http://www.assero.co.uk/MDRModels/CDISC/V1#M-CDISC_SDTMMODEL_SC_RECORDQUALIFIER> . 
<http://www.assero.co.uk/MDRModels/CDISC/V1#M-CDISC_SDTMMODEL_xxOUT> 			<http://www.assero.co.uk/BusinessDomain#typedAs> 			<http://www.assero.co.uk/MDRModels/CDISC/V1#M-CDISC_SDTMMODEL_DT_CHAR> . 
<http://www.assero.co.uk/MDRModels/CDISC/V1#M-CDISC_SDTMMODEL_xxOUT> 			<http://www.assero.co.uk/BusinessDomain#rule> 			"" . 
<http://www.assero.co.uk/MDRModels/CDISC/V1#M-CDISC_SDTMMODEL_xxOUT> 			<http://www.assero.co.uk/BusinessDomain#ordinal> 			"19" . 
<http://www.assero.co.uk/MDRModels/CDISC/V1#M-CDISC_SDTMMODEL_xxOUT> 			<http://www.assero.co.uk/BusinessDomain#name> 			"--OUT" . 
<http://www.assero.co.uk/MDRModels/CDISC/V1#M-CDISC_SDTMMODEL_xxOUT> 			<http://www.assero.co.uk/BusinessDomain#prefixed> 			"true" . 
<http://www.assero.co.uk/MDRModels/CDISC/V1#M-CDISC_SDTMMODEL_xxOUT> 			<http://www.assero.co.uk/BusinessDomain#description> 			"Description of the outcome of an event. Examples: RECOVERED/RESOLVED, FATAL." . 
<http://www.assero.co.uk/MDRModels/CDISC/V1#M-CDISC_SDTMMODEL_EVENTS_xxSCAN> 			<http://www.w3.org/1999/02/22-rdf-syntax-ns#type> 			<http://www.assero.co.uk/BusinessDomain#ClassVariable> . 
<http://www.assero.co.uk/MDRModels/CDISC/V1#M-CDISC_SDTMMODEL_EVENTS_xxSCAN> 			<http://www.w3.org/2000/01/rdf-schema#label> 			"Involves Cancer" . 
<http://www.assero.co.uk/MDRModels/CDISC/V1#M-CDISC_SDTMMODEL_EVENTS_xxSCAN> 			<http://www.assero.co.uk/BusinessDomain#basedOnVariable> 			<http://www.assero.co.uk/MDRModels/CDISC/V1#M-CDISC_SDTMMODEL_EVENTS_xxSCAN_CR> . 
<http://www.assero.co.uk/MDRModels/CDISC/V1#M-CDISC_SDTMMODEL_EVENTS_xxSCAN> 			<http://www.assero.co.uk/BusinessDomain#ordinal> 			"27" . 
<http://www.assero.co.uk/MDRModels/CDISC/V1#M-CDISC_SDTMMODEL_EVENTS_xxSCAN_CR> 			<http://www.w3.org/1999/02/22-rdf-syntax-ns#type> 			<http://www.assero.co.uk/BusinessOperational#CReference> . 
<http://www.assero.co.uk/MDRModels/CDISC/V1#M-CDISC_SDTMMODEL_EVENTS_xxSCAN_CR> 			<http://www.assero.co.uk/BusinessOperational#hasColumn> 			<http://www.assero.co.uk/MDRModels/CDISC/V1#M-CDISC_SDTMMODEL_xxSCAN> . 
<http://www.assero.co.uk/MDRModels/CDISC/V1#M-CDISC_SDTMMODEL_EVENTS_xxSCAN_CR> 			<http://www.assero.co.uk/BusinessOperational#ordinal> 			"27" . 
<http://www.assero.co.uk/MDRModels/CDISC/V1#M-CDISC_SDTMMODEL_EVENTS_xxSCAN_CR> 			<http://www.assero.co.uk/BusinessOperational#enabled> 			"true" . 
<http://www.assero.co.uk/MDRModels/CDISC/V1#M-CDISC_SDTMMODEL_EVENTS_xxSCAN_CR> 			<http://www.assero.co.uk/BusinessOperational#optional> 			"false" . 
<http://www.assero.co.uk/MDRModels/CDISC/V1#M-CDISC_SDTMMODEL_xxSCAN> 			<http://www.w3.org/1999/02/22-rdf-syntax-ns#type> 			<http://www.assero.co.uk/BusinessDomain#ModelVariable> . 
<http://www.assero.co.uk/MDRModels/CDISC/V1#M-CDISC_SDTMMODEL_xxSCAN> 			<http://www.w3.org/2000/01/rdf-schema#label> 			"Involves Cancer" . 
<http://www.assero.co.uk/MDRModels/CDISC/V1#M-CDISC_SDTMMODEL_xxSCAN> 			<http://www.assero.co.uk/BusinessDomain#classifiedAs> 			<http://www.assero.co.uk/MDRModels/CDISC/V1#M-CDISC_SDTMMODEL_SC_RECORDQUALIFIER> . 
<http://www.assero.co.uk/MDRModels/CDISC/V1#M-CDISC_SDTMMODEL_xxSCAN> 			<http://www.assero.co.uk/BusinessDomain#typedAs> 			<http://www.assero.co.uk/MDRModels/CDISC/V1#M-CDISC_SDTMMODEL_DT_CHAR> . 
<http://www.assero.co.uk/MDRModels/CDISC/V1#M-CDISC_SDTMMODEL_xxSCAN> 			<http://www.assero.co.uk/BusinessDomain#rule> 			"" . 
<http://www.assero.co.uk/MDRModels/CDISC/V1#M-CDISC_SDTMMODEL_xxSCAN> 			<http://www.assero.co.uk/BusinessDomain#ordinal> 			"20" . 
<http://www.assero.co.uk/MDRModels/CDISC/V1#M-CDISC_SDTMMODEL_xxSCAN> 			<http://www.assero.co.uk/BusinessDomain#name> 			"--SCAN" . 
<http://www.assero.co.uk/MDRModels/CDISC/V1#M-CDISC_SDTMMODEL_xxSCAN> 			<http://www.assero.co.uk/BusinessDomain#prefixed> 			"true" . 
<http://www.assero.co.uk/MDRModels/CDISC/V1#M-CDISC_SDTMMODEL_xxSCAN> 			<http://www.assero.co.uk/BusinessDomain#description> 			"Was the event associated with the development of cancer? Valid values are 'Y' and 'N'." . 
<http://www.assero.co.uk/MDRModels/CDISC/V1#M-CDISC_SDTMMODEL_EVENTS_xxSCONG> 			<http://www.w3.org/1999/02/22-rdf-syntax-ns#type> 			<http://www.assero.co.uk/BusinessDomain#ClassVariable> . 
<http://www.assero.co.uk/MDRModels/CDISC/V1#M-CDISC_SDTMMODEL_EVENTS_xxSCONG> 			<http://www.w3.org/2000/01/rdf-schema#label> 			"Congenital Anomaly or Birth Defect" . 
<http://www.assero.co.uk/MDRModels/CDISC/V1#M-CDISC_SDTMMODEL_EVENTS_xxSCONG> 			<http://www.assero.co.uk/BusinessDomain#basedOnVariable> 			<http://www.assero.co.uk/MDRModels/CDISC/V1#M-CDISC_SDTMMODEL_EVENTS_xxSCONG_CR> . 
<http://www.assero.co.uk/MDRModels/CDISC/V1#M-CDISC_SDTMMODEL_EVENTS_xxSCONG> 			<http://www.assero.co.uk/BusinessDomain#ordinal> 			"28" . 
<http://www.assero.co.uk/MDRModels/CDISC/V1#M-CDISC_SDTMMODEL_EVENTS_xxSCONG_CR> 			<http://www.w3.org/1999/02/22-rdf-syntax-ns#type> 			<http://www.assero.co.uk/BusinessOperational#CReference> . 
<http://www.assero.co.uk/MDRModels/CDISC/V1#M-CDISC_SDTMMODEL_EVENTS_xxSCONG_CR> 			<http://www.assero.co.uk/BusinessOperational#hasColumn> 			<http://www.assero.co.uk/MDRModels/CDISC/V1#M-CDISC_SDTMMODEL_xxSCONG> . 
<http://www.assero.co.uk/MDRModels/CDISC/V1#M-CDISC_SDTMMODEL_EVENTS_xxSCONG_CR> 			<http://www.assero.co.uk/BusinessOperational#ordinal> 			"28" . 
<http://www.assero.co.uk/MDRModels/CDISC/V1#M-CDISC_SDTMMODEL_EVENTS_xxSCONG_CR> 			<http://www.assero.co.uk/BusinessOperational#enabled> 			"true" . 
<http://www.assero.co.uk/MDRModels/CDISC/V1#M-CDISC_SDTMMODEL_EVENTS_xxSCONG_CR> 			<http://www.assero.co.uk/BusinessOperational#optional> 			"false" . 
<http://www.assero.co.uk/MDRModels/CDISC/V1#M-CDISC_SDTMMODEL_xxSCONG> 			<http://www.w3.org/1999/02/22-rdf-syntax-ns#type> 			<http://www.assero.co.uk/BusinessDomain#ModelVariable> . 
<http://www.assero.co.uk/MDRModels/CDISC/V1#M-CDISC_SDTMMODEL_xxSCONG> 			<http://www.w3.org/2000/01/rdf-schema#label> 			"Congenital Anomaly or Birth Defect" . 
<http://www.assero.co.uk/MDRModels/CDISC/V1#M-CDISC_SDTMMODEL_xxSCONG> 			<http://www.assero.co.uk/BusinessDomain#classifiedAs> 			<http://www.assero.co.uk/MDRModels/CDISC/V1#M-CDISC_SDTMMODEL_SC_RECORDQUALIFIER> . 
<http://www.assero.co.uk/MDRModels/CDISC/V1#M-CDISC_SDTMMODEL_xxSCONG> 			<http://www.assero.co.uk/BusinessDomain#typedAs> 			<http://www.assero.co.uk/MDRModels/CDISC/V1#M-CDISC_SDTMMODEL_DT_CHAR> . 
<http://www.assero.co.uk/MDRModels/CDISC/V1#M-CDISC_SDTMMODEL_xxSCONG> 			<http://www.assero.co.uk/BusinessDomain#rule> 			"" . 
<http://www.assero.co.uk/MDRModels/CDISC/V1#M-CDISC_SDTMMODEL_xxSCONG> 			<http://www.assero.co.uk/BusinessDomain#ordinal> 			"21" . 
<http://www.assero.co.uk/MDRModels/CDISC/V1#M-CDISC_SDTMMODEL_xxSCONG> 			<http://www.assero.co.uk/BusinessDomain#name> 			"--SCONG" . 
<http://www.assero.co.uk/MDRModels/CDISC/V1#M-CDISC_SDTMMODEL_xxSCONG> 			<http://www.assero.co.uk/BusinessDomain#prefixed> 			"true" . 
<http://www.assero.co.uk/MDRModels/CDISC/V1#M-CDISC_SDTMMODEL_xxSCONG> 			<http://www.assero.co.uk/BusinessDomain#description> 			"Was the event associated with congenital anomaly or birth defect? Valid values are 'Y' and 'N'." . 
<http://www.assero.co.uk/MDRModels/CDISC/V1#M-CDISC_SDTMMODEL_EVENTS_xxSDISAB> 			<http://www.w3.org/1999/02/22-rdf-syntax-ns#type> 			<http://www.assero.co.uk/BusinessDomain#ClassVariable> . 
<http://www.assero.co.uk/MDRModels/CDISC/V1#M-CDISC_SDTMMODEL_EVENTS_xxSDISAB> 			<http://www.w3.org/2000/01/rdf-schema#label> 			"Persist or Signif Disability/Incapacity" . 
<http://www.assero.co.uk/MDRModels/CDISC/V1#M-CDISC_SDTMMODEL_EVENTS_xxSDISAB> 			<http://www.assero.co.uk/BusinessDomain#basedOnVariable> 			<http://www.assero.co.uk/MDRModels/CDISC/V1#M-CDISC_SDTMMODEL_EVENTS_xxSDISAB_CR> . 
<http://www.assero.co.uk/MDRModels/CDISC/V1#M-CDISC_SDTMMODEL_EVENTS_xxSDISAB> 			<http://www.assero.co.uk/BusinessDomain#ordinal> 			"29" . 
<http://www.assero.co.uk/MDRModels/CDISC/V1#M-CDISC_SDTMMODEL_EVENTS_xxSDISAB_CR> 			<http://www.w3.org/1999/02/22-rdf-syntax-ns#type> 			<http://www.assero.co.uk/BusinessOperational#CReference> . 
<http://www.assero.co.uk/MDRModels/CDISC/V1#M-CDISC_SDTMMODEL_EVENTS_xxSDISAB_CR> 			<http://www.assero.co.uk/BusinessOperational#hasColumn> 			<http://www.assero.co.uk/MDRModels/CDISC/V1#M-CDISC_SDTMMODEL_xxSDISAB> . 
<http://www.assero.co.uk/MDRModels/CDISC/V1#M-CDISC_SDTMMODEL_EVENTS_xxSDISAB_CR> 			<http://www.assero.co.uk/BusinessOperational#ordinal> 			"29" . 
<http://www.assero.co.uk/MDRModels/CDISC/V1#M-CDISC_SDTMMODEL_EVENTS_xxSDISAB_CR> 			<http://www.assero.co.uk/BusinessOperational#enabled> 			"true" . 
<http://www.assero.co.uk/MDRModels/CDISC/V1#M-CDISC_SDTMMODEL_EVENTS_xxSDISAB_CR> 			<http://www.assero.co.uk/BusinessOperational#optional> 			"false" . 
<http://www.assero.co.uk/MDRModels/CDISC/V1#M-CDISC_SDTMMODEL_xxSDISAB> 			<http://www.w3.org/1999/02/22-rdf-syntax-ns#type> 			<http://www.assero.co.uk/BusinessDomain#ModelVariable> . 
<http://www.assero.co.uk/MDRModels/CDISC/V1#M-CDISC_SDTMMODEL_xxSDISAB> 			<http://www.w3.org/2000/01/rdf-schema#label> 			"Persist or Signif Disability/Incapacity" . 
<http://www.assero.co.uk/MDRModels/CDISC/V1#M-CDISC_SDTMMODEL_xxSDISAB> 			<http://www.assero.co.uk/BusinessDomain#classifiedAs> 			<http://www.assero.co.uk/MDRModels/CDISC/V1#M-CDISC_SDTMMODEL_SC_RECORDQUALIFIER> . 
<http://www.assero.co.uk/MDRModels/CDISC/V1#M-CDISC_SDTMMODEL_xxSDISAB> 			<http://www.assero.co.uk/BusinessDomain#typedAs> 			<http://www.assero.co.uk/MDRModels/CDISC/V1#M-CDISC_SDTMMODEL_DT_CHAR> . 
<http://www.assero.co.uk/MDRModels/CDISC/V1#M-CDISC_SDTMMODEL_xxSDISAB> 			<http://www.assero.co.uk/BusinessDomain#rule> 			"" . 
<http://www.assero.co.uk/MDRModels/CDISC/V1#M-CDISC_SDTMMODEL_xxSDISAB> 			<http://www.assero.co.uk/BusinessDomain#ordinal> 			"22" . 
<http://www.assero.co.uk/MDRModels/CDISC/V1#M-CDISC_SDTMMODEL_xxSDISAB> 			<http://www.assero.co.uk/BusinessDomain#name> 			"--SDISAB" . 
<http://www.assero.co.uk/MDRModels/CDISC/V1#M-CDISC_SDTMMODEL_xxSDISAB> 			<http://www.assero.co.uk/BusinessDomain#prefixed> 			"true" . 
<http://www.assero.co.uk/MDRModels/CDISC/V1#M-CDISC_SDTMMODEL_xxSDISAB> 			<http://www.assero.co.uk/BusinessDomain#description> 			"Did the event result in persistent or significant disability/incapacity? Valid values are 'Y' and 'N'." . 
<http://www.assero.co.uk/MDRModels/CDISC/V1#M-CDISC_SDTMMODEL_EVENTS_xxSDTH> 			<http://www.w3.org/1999/02/22-rdf-syntax-ns#type> 			<http://www.assero.co.uk/BusinessDomain#ClassVariable> . 
<http://www.assero.co.uk/MDRModels/CDISC/V1#M-CDISC_SDTMMODEL_EVENTS_xxSDTH> 			<http://www.w3.org/2000/01/rdf-schema#label> 			"Results in Death" . 
<http://www.assero.co.uk/MDRModels/CDISC/V1#M-CDISC_SDTMMODEL_EVENTS_xxSDTH> 			<http://www.assero.co.uk/BusinessDomain#basedOnVariable> 			<http://www.assero.co.uk/MDRModels/CDISC/V1#M-CDISC_SDTMMODEL_EVENTS_xxSDTH_CR> . 
<http://www.assero.co.uk/MDRModels/CDISC/V1#M-CDISC_SDTMMODEL_EVENTS_xxSDTH> 			<http://www.assero.co.uk/BusinessDomain#ordinal> 			"30" . 
<http://www.assero.co.uk/MDRModels/CDISC/V1#M-CDISC_SDTMMODEL_EVENTS_xxSDTH_CR> 			<http://www.w3.org/1999/02/22-rdf-syntax-ns#type> 			<http://www.assero.co.uk/BusinessOperational#CReference> . 
<http://www.assero.co.uk/MDRModels/CDISC/V1#M-CDISC_SDTMMODEL_EVENTS_xxSDTH_CR> 			<http://www.assero.co.uk/BusinessOperational#hasColumn> 			<http://www.assero.co.uk/MDRModels/CDISC/V1#M-CDISC_SDTMMODEL_xxSDTH> . 
<http://www.assero.co.uk/MDRModels/CDISC/V1#M-CDISC_SDTMMODEL_EVENTS_xxSDTH_CR> 			<http://www.assero.co.uk/BusinessOperational#ordinal> 			"30" . 
<http://www.assero.co.uk/MDRModels/CDISC/V1#M-CDISC_SDTMMODEL_EVENTS_xxSDTH_CR> 			<http://www.assero.co.uk/BusinessOperational#enabled> 			"true" . 
<http://www.assero.co.uk/MDRModels/CDISC/V1#M-CDISC_SDTMMODEL_EVENTS_xxSDTH_CR> 			<http://www.assero.co.uk/BusinessOperational#optional> 			"false" . 
<http://www.assero.co.uk/MDRModels/CDISC/V1#M-CDISC_SDTMMODEL_xxSDTH> 			<http://www.w3.org/1999/02/22-rdf-syntax-ns#type> 			<http://www.assero.co.uk/BusinessDomain#ModelVariable> . 
<http://www.assero.co.uk/MDRModels/CDISC/V1#M-CDISC_SDTMMODEL_xxSDTH> 			<http://www.w3.org/2000/01/rdf-schema#label> 			"Results in Death" . 
<http://www.assero.co.uk/MDRModels/CDISC/V1#M-CDISC_SDTMMODEL_xxSDTH> 			<http://www.assero.co.uk/BusinessDomain#classifiedAs> 			<http://www.assero.co.uk/MDRModels/CDISC/V1#M-CDISC_SDTMMODEL_SC_RECORDQUALIFIER> . 
<http://www.assero.co.uk/MDRModels/CDISC/V1#M-CDISC_SDTMMODEL_xxSDTH> 			<http://www.assero.co.uk/BusinessDomain#typedAs> 			<http://www.assero.co.uk/MDRModels/CDISC/V1#M-CDISC_SDTMMODEL_DT_CHAR> . 
<http://www.assero.co.uk/MDRModels/CDISC/V1#M-CDISC_SDTMMODEL_xxSDTH> 			<http://www.assero.co.uk/BusinessDomain#rule> 			"" . 
<http://www.assero.co.uk/MDRModels/CDISC/V1#M-CDISC_SDTMMODEL_xxSDTH> 			<http://www.assero.co.uk/BusinessDomain#ordinal> 			"23" . 
<http://www.assero.co.uk/MDRModels/CDISC/V1#M-CDISC_SDTMMODEL_xxSDTH> 			<http://www.assero.co.uk/BusinessDomain#name> 			"--SDTH" . 
<http://www.assero.co.uk/MDRModels/CDISC/V1#M-CDISC_SDTMMODEL_xxSDTH> 			<http://www.assero.co.uk/BusinessDomain#prefixed> 			"true" . 
<http://www.assero.co.uk/MDRModels/CDISC/V1#M-CDISC_SDTMMODEL_xxSDTH> 			<http://www.assero.co.uk/BusinessDomain#description> 			"Did the event result in death? Valid values are 'Y' and 'N'." . 
<http://www.assero.co.uk/MDRModels/CDISC/V1#M-CDISC_SDTMMODEL_EVENTS_xxSHOSP> 			<http://www.w3.org/1999/02/22-rdf-syntax-ns#type> 			<http://www.assero.co.uk/BusinessDomain#ClassVariable> . 
<http://www.assero.co.uk/MDRModels/CDISC/V1#M-CDISC_SDTMMODEL_EVENTS_xxSHOSP> 			<http://www.w3.org/2000/01/rdf-schema#label> 			"Requires or Prolongs Hospitalization" . 
<http://www.assero.co.uk/MDRModels/CDISC/V1#M-CDISC_SDTMMODEL_EVENTS_xxSHOSP> 			<http://www.assero.co.uk/BusinessDomain#basedOnVariable> 			<http://www.assero.co.uk/MDRModels/CDISC/V1#M-CDISC_SDTMMODEL_EVENTS_xxSHOSP_CR> . 
<http://www.assero.co.uk/MDRModels/CDISC/V1#M-CDISC_SDTMMODEL_EVENTS_xxSHOSP> 			<http://www.assero.co.uk/BusinessDomain#ordinal> 			"31" . 
<http://www.assero.co.uk/MDRModels/CDISC/V1#M-CDISC_SDTMMODEL_EVENTS_xxSHOSP_CR> 			<http://www.w3.org/1999/02/22-rdf-syntax-ns#type> 			<http://www.assero.co.uk/BusinessOperational#CReference> . 
<http://www.assero.co.uk/MDRModels/CDISC/V1#M-CDISC_SDTMMODEL_EVENTS_xxSHOSP_CR> 			<http://www.assero.co.uk/BusinessOperational#hasColumn> 			<http://www.assero.co.uk/MDRModels/CDISC/V1#M-CDISC_SDTMMODEL_xxSHOSP> . 
<http://www.assero.co.uk/MDRModels/CDISC/V1#M-CDISC_SDTMMODEL_EVENTS_xxSHOSP_CR> 			<http://www.assero.co.uk/BusinessOperational#ordinal> 			"31" . 
<http://www.assero.co.uk/MDRModels/CDISC/V1#M-CDISC_SDTMMODEL_EVENTS_xxSHOSP_CR> 			<http://www.assero.co.uk/BusinessOperational#enabled> 			"true" . 
<http://www.assero.co.uk/MDRModels/CDISC/V1#M-CDISC_SDTMMODEL_EVENTS_xxSHOSP_CR> 			<http://www.assero.co.uk/BusinessOperational#optional> 			"false" . 
<http://www.assero.co.uk/MDRModels/CDISC/V1#M-CDISC_SDTMMODEL_xxSHOSP> 			<http://www.w3.org/1999/02/22-rdf-syntax-ns#type> 			<http://www.assero.co.uk/BusinessDomain#ModelVariable> . 
<http://www.assero.co.uk/MDRModels/CDISC/V1#M-CDISC_SDTMMODEL_xxSHOSP> 			<http://www.w3.org/2000/01/rdf-schema#label> 			"Requires or Prolongs Hospitalization" . 
<http://www.assero.co.uk/MDRModels/CDISC/V1#M-CDISC_SDTMMODEL_xxSHOSP> 			<http://www.assero.co.uk/BusinessDomain#classifiedAs> 			<http://www.assero.co.uk/MDRModels/CDISC/V1#M-CDISC_SDTMMODEL_SC_RECORDQUALIFIER> . 
<http://www.assero.co.uk/MDRModels/CDISC/V1#M-CDISC_SDTMMODEL_xxSHOSP> 			<http://www.assero.co.uk/BusinessDomain#typedAs> 			<http://www.assero.co.uk/MDRModels/CDISC/V1#M-CDISC_SDTMMODEL_DT_CHAR> . 
<http://www.assero.co.uk/MDRModels/CDISC/V1#M-CDISC_SDTMMODEL_xxSHOSP> 			<http://www.assero.co.uk/BusinessDomain#rule> 			"" . 
<http://www.assero.co.uk/MDRModels/CDISC/V1#M-CDISC_SDTMMODEL_xxSHOSP> 			<http://www.assero.co.uk/BusinessDomain#ordinal> 			"24" . 
<http://www.assero.co.uk/MDRModels/CDISC/V1#M-CDISC_SDTMMODEL_xxSHOSP> 			<http://www.assero.co.uk/BusinessDomain#name> 			"--SHOSP" . 
<http://www.assero.co.uk/MDRModels/CDISC/V1#M-CDISC_SDTMMODEL_xxSHOSP> 			<http://www.assero.co.uk/BusinessDomain#prefixed> 			"true" . 
<http://www.assero.co.uk/MDRModels/CDISC/V1#M-CDISC_SDTMMODEL_xxSHOSP> 			<http://www.assero.co.uk/BusinessDomain#description> 			"Did the event require or prolong hospitalization? Valid values are 'Y' and 'N'." . 
<http://www.assero.co.uk/MDRModels/CDISC/V1#M-CDISC_SDTMMODEL_EVENTS_xxSLIFE> 			<http://www.w3.org/1999/02/22-rdf-syntax-ns#type> 			<http://www.assero.co.uk/BusinessDomain#ClassVariable> . 
<http://www.assero.co.uk/MDRModels/CDISC/V1#M-CDISC_SDTMMODEL_EVENTS_xxSLIFE> 			<http://www.w3.org/2000/01/rdf-schema#label> 			"Is Life Threatening" . 
<http://www.assero.co.uk/MDRModels/CDISC/V1#M-CDISC_SDTMMODEL_EVENTS_xxSLIFE> 			<http://www.assero.co.uk/BusinessDomain#basedOnVariable> 			<http://www.assero.co.uk/MDRModels/CDISC/V1#M-CDISC_SDTMMODEL_EVENTS_xxSLIFE_CR> . 
<http://www.assero.co.uk/MDRModels/CDISC/V1#M-CDISC_SDTMMODEL_EVENTS_xxSLIFE> 			<http://www.assero.co.uk/BusinessDomain#ordinal> 			"32" . 
<http://www.assero.co.uk/MDRModels/CDISC/V1#M-CDISC_SDTMMODEL_EVENTS_xxSLIFE_CR> 			<http://www.w3.org/1999/02/22-rdf-syntax-ns#type> 			<http://www.assero.co.uk/BusinessOperational#CReference> . 
<http://www.assero.co.uk/MDRModels/CDISC/V1#M-CDISC_SDTMMODEL_EVENTS_xxSLIFE_CR> 			<http://www.assero.co.uk/BusinessOperational#hasColumn> 			<http://www.assero.co.uk/MDRModels/CDISC/V1#M-CDISC_SDTMMODEL_xxSLIFE> . 
<http://www.assero.co.uk/MDRModels/CDISC/V1#M-CDISC_SDTMMODEL_EVENTS_xxSLIFE_CR> 			<http://www.assero.co.uk/BusinessOperational#ordinal> 			"32" . 
<http://www.assero.co.uk/MDRModels/CDISC/V1#M-CDISC_SDTMMODEL_EVENTS_xxSLIFE_CR> 			<http://www.assero.co.uk/BusinessOperational#enabled> 			"true" . 
<http://www.assero.co.uk/MDRModels/CDISC/V1#M-CDISC_SDTMMODEL_EVENTS_xxSLIFE_CR> 			<http://www.assero.co.uk/BusinessOperational#optional> 			"false" . 
<http://www.assero.co.uk/MDRModels/CDISC/V1#M-CDISC_SDTMMODEL_xxSLIFE> 			<http://www.w3.org/1999/02/22-rdf-syntax-ns#type> 			<http://www.assero.co.uk/BusinessDomain#ModelVariable> . 
<http://www.assero.co.uk/MDRModels/CDISC/V1#M-CDISC_SDTMMODEL_xxSLIFE> 			<http://www.w3.org/2000/01/rdf-schema#label> 			"Is Life Threatening" . 
<http://www.assero.co.uk/MDRModels/CDISC/V1#M-CDISC_SDTMMODEL_xxSLIFE> 			<http://www.assero.co.uk/BusinessDomain#classifiedAs> 			<http://www.assero.co.uk/MDRModels/CDISC/V1#M-CDISC_SDTMMODEL_SC_RECORDQUALIFIER> . 
<http://www.assero.co.uk/MDRModels/CDISC/V1#M-CDISC_SDTMMODEL_xxSLIFE> 			<http://www.assero.co.uk/BusinessDomain#typedAs> 			<http://www.assero.co.uk/MDRModels/CDISC/V1#M-CDISC_SDTMMODEL_DT_CHAR> . 
<http://www.assero.co.uk/MDRModels/CDISC/V1#M-CDISC_SDTMMODEL_xxSLIFE> 			<http://www.assero.co.uk/BusinessDomain#rule> 			"" . 
<http://www.assero.co.uk/MDRModels/CDISC/V1#M-CDISC_SDTMMODEL_xxSLIFE> 			<http://www.assero.co.uk/BusinessDomain#ordinal> 			"25" . 
<http://www.assero.co.uk/MDRModels/CDISC/V1#M-CDISC_SDTMMODEL_xxSLIFE> 			<http://www.assero.co.uk/BusinessDomain#name> 			"--SLIFE" . 
<http://www.assero.co.uk/MDRModels/CDISC/V1#M-CDISC_SDTMMODEL_xxSLIFE> 			<http://www.assero.co.uk/BusinessDomain#prefixed> 			"true" . 
<http://www.assero.co.uk/MDRModels/CDISC/V1#M-CDISC_SDTMMODEL_xxSLIFE> 			<http://www.assero.co.uk/BusinessDomain#description> 			"Was the event life threatening? Valid values are 'Y' and 'N'." . 
<http://www.assero.co.uk/MDRModels/CDISC/V1#M-CDISC_SDTMMODEL_EVENTS_xxSOD> 			<http://www.w3.org/1999/02/22-rdf-syntax-ns#type> 			<http://www.assero.co.uk/BusinessDomain#ClassVariable> . 
<http://www.assero.co.uk/MDRModels/CDISC/V1#M-CDISC_SDTMMODEL_EVENTS_xxSOD> 			<http://www.w3.org/2000/01/rdf-schema#label> 			"Occurred with Overdose" . 
<http://www.assero.co.uk/MDRModels/CDISC/V1#M-CDISC_SDTMMODEL_EVENTS_xxSOD> 			<http://www.assero.co.uk/BusinessDomain#basedOnVariable> 			<http://www.assero.co.uk/MDRModels/CDISC/V1#M-CDISC_SDTMMODEL_EVENTS_xxSOD_CR> . 
<http://www.assero.co.uk/MDRModels/CDISC/V1#M-CDISC_SDTMMODEL_EVENTS_xxSOD> 			<http://www.assero.co.uk/BusinessDomain#ordinal> 			"33" . 
<http://www.assero.co.uk/MDRModels/CDISC/V1#M-CDISC_SDTMMODEL_EVENTS_xxSOD_CR> 			<http://www.w3.org/1999/02/22-rdf-syntax-ns#type> 			<http://www.assero.co.uk/BusinessOperational#CReference> . 
<http://www.assero.co.uk/MDRModels/CDISC/V1#M-CDISC_SDTMMODEL_EVENTS_xxSOD_CR> 			<http://www.assero.co.uk/BusinessOperational#hasColumn> 			<http://www.assero.co.uk/MDRModels/CDISC/V1#M-CDISC_SDTMMODEL_xxSOD> . 
<http://www.assero.co.uk/MDRModels/CDISC/V1#M-CDISC_SDTMMODEL_EVENTS_xxSOD_CR> 			<http://www.assero.co.uk/BusinessOperational#ordinal> 			"33" . 
<http://www.assero.co.uk/MDRModels/CDISC/V1#M-CDISC_SDTMMODEL_EVENTS_xxSOD_CR> 			<http://www.assero.co.uk/BusinessOperational#enabled> 			"true" . 
<http://www.assero.co.uk/MDRModels/CDISC/V1#M-CDISC_SDTMMODEL_EVENTS_xxSOD_CR> 			<http://www.assero.co.uk/BusinessOperational#optional> 			"false" . 
<http://www.assero.co.uk/MDRModels/CDISC/V1#M-CDISC_SDTMMODEL_xxSOD> 			<http://www.w3.org/1999/02/22-rdf-syntax-ns#type> 			<http://www.assero.co.uk/BusinessDomain#ModelVariable> . 
<http://www.assero.co.uk/MDRModels/CDISC/V1#M-CDISC_SDTMMODEL_xxSOD> 			<http://www.w3.org/2000/01/rdf-schema#label> 			"Occurred with Overdose" . 
<http://www.assero.co.uk/MDRModels/CDISC/V1#M-CDISC_SDTMMODEL_xxSOD> 			<http://www.assero.co.uk/BusinessDomain#classifiedAs> 			<http://www.assero.co.uk/MDRModels/CDISC/V1#M-CDISC_SDTMMODEL_SC_RECORDQUALIFIER> . 
<http://www.assero.co.uk/MDRModels/CDISC/V1#M-CDISC_SDTMMODEL_xxSOD> 			<http://www.assero.co.uk/BusinessDomain#typedAs> 			<http://www.assero.co.uk/MDRModels/CDISC/V1#M-CDISC_SDTMMODEL_DT_CHAR> . 
<http://www.assero.co.uk/MDRModels/CDISC/V1#M-CDISC_SDTMMODEL_xxSOD> 			<http://www.assero.co.uk/BusinessDomain#rule> 			"" . 
<http://www.assero.co.uk/MDRModels/CDISC/V1#M-CDISC_SDTMMODEL_xxSOD> 			<http://www.assero.co.uk/BusinessDomain#ordinal> 			"26" . 
<http://www.assero.co.uk/MDRModels/CDISC/V1#M-CDISC_SDTMMODEL_xxSOD> 			<http://www.assero.co.uk/BusinessDomain#name> 			"--SOD" . 
<http://www.assero.co.uk/MDRModels/CDISC/V1#M-CDISC_SDTMMODEL_xxSOD> 			<http://www.assero.co.uk/BusinessDomain#prefixed> 			"true" . 
<http://www.assero.co.uk/MDRModels/CDISC/V1#M-CDISC_SDTMMODEL_xxSOD> 			<http://www.assero.co.uk/BusinessDomain#description> 			"Did the event occur with an overdose? Valid values are 'Y' and 'N'." . 
<http://www.assero.co.uk/MDRModels/CDISC/V1#M-CDISC_SDTMMODEL_EVENTS_xxSMIE> 			<http://www.w3.org/1999/02/22-rdf-syntax-ns#type> 			<http://www.assero.co.uk/BusinessDomain#ClassVariable> . 
<http://www.assero.co.uk/MDRModels/CDISC/V1#M-CDISC_SDTMMODEL_EVENTS_xxSMIE> 			<http://www.w3.org/2000/01/rdf-schema#label> 			"Other Medically Important Serious Event" . 
<http://www.assero.co.uk/MDRModels/CDISC/V1#M-CDISC_SDTMMODEL_EVENTS_xxSMIE> 			<http://www.assero.co.uk/BusinessDomain#basedOnVariable> 			<http://www.assero.co.uk/MDRModels/CDISC/V1#M-CDISC_SDTMMODEL_EVENTS_xxSMIE_CR> . 
<http://www.assero.co.uk/MDRModels/CDISC/V1#M-CDISC_SDTMMODEL_EVENTS_xxSMIE> 			<http://www.assero.co.uk/BusinessDomain#ordinal> 			"34" . 
<http://www.assero.co.uk/MDRModels/CDISC/V1#M-CDISC_SDTMMODEL_EVENTS_xxSMIE_CR> 			<http://www.w3.org/1999/02/22-rdf-syntax-ns#type> 			<http://www.assero.co.uk/BusinessOperational#CReference> . 
<http://www.assero.co.uk/MDRModels/CDISC/V1#M-CDISC_SDTMMODEL_EVENTS_xxSMIE_CR> 			<http://www.assero.co.uk/BusinessOperational#hasColumn> 			<http://www.assero.co.uk/MDRModels/CDISC/V1#M-CDISC_SDTMMODEL_xxSMIE> . 
<http://www.assero.co.uk/MDRModels/CDISC/V1#M-CDISC_SDTMMODEL_EVENTS_xxSMIE_CR> 			<http://www.assero.co.uk/BusinessOperational#ordinal> 			"34" . 
<http://www.assero.co.uk/MDRModels/CDISC/V1#M-CDISC_SDTMMODEL_EVENTS_xxSMIE_CR> 			<http://www.assero.co.uk/BusinessOperational#enabled> 			"true" . 
<http://www.assero.co.uk/MDRModels/CDISC/V1#M-CDISC_SDTMMODEL_EVENTS_xxSMIE_CR> 			<http://www.assero.co.uk/BusinessOperational#optional> 			"false" . 
<http://www.assero.co.uk/MDRModels/CDISC/V1#M-CDISC_SDTMMODEL_xxSMIE> 			<http://www.w3.org/1999/02/22-rdf-syntax-ns#type> 			<http://www.assero.co.uk/BusinessDomain#ModelVariable> . 
<http://www.assero.co.uk/MDRModels/CDISC/V1#M-CDISC_SDTMMODEL_xxSMIE> 			<http://www.w3.org/2000/01/rdf-schema#label> 			"Other Medically Important Serious Event" . 
<http://www.assero.co.uk/MDRModels/CDISC/V1#M-CDISC_SDTMMODEL_xxSMIE> 			<http://www.assero.co.uk/BusinessDomain#classifiedAs> 			<http://www.assero.co.uk/MDRModels/CDISC/V1#M-CDISC_SDTMMODEL_SC_RECORDQUALIFIER> . 
<http://www.assero.co.uk/MDRModels/CDISC/V1#M-CDISC_SDTMMODEL_xxSMIE> 			<http://www.assero.co.uk/BusinessDomain#typedAs> 			<http://www.assero.co.uk/MDRModels/CDISC/V1#M-CDISC_SDTMMODEL_DT_CHAR> . 
<http://www.assero.co.uk/MDRModels/CDISC/V1#M-CDISC_SDTMMODEL_xxSMIE> 			<http://www.assero.co.uk/BusinessDomain#rule> 			"" . 
<http://www.assero.co.uk/MDRModels/CDISC/V1#M-CDISC_SDTMMODEL_xxSMIE> 			<http://www.assero.co.uk/BusinessDomain#ordinal> 			"27" . 
<http://www.assero.co.uk/MDRModels/CDISC/V1#M-CDISC_SDTMMODEL_xxSMIE> 			<http://www.assero.co.uk/BusinessDomain#name> 			"--SMIE" . 
<http://www.assero.co.uk/MDRModels/CDISC/V1#M-CDISC_SDTMMODEL_xxSMIE> 			<http://www.assero.co.uk/BusinessDomain#prefixed> 			"true" . 
<http://www.assero.co.uk/MDRModels/CDISC/V1#M-CDISC_SDTMMODEL_xxSMIE> 			<http://www.assero.co.uk/BusinessDomain#description> 			"Do additional categories for seriousness apply? Valid values are 'Y' and 'N'." . 
<http://www.assero.co.uk/MDRModels/CDISC/V1#M-CDISC_SDTMMODEL_EVENTS_xxCONTRT> 			<http://www.w3.org/1999/02/22-rdf-syntax-ns#type> 			<http://www.assero.co.uk/BusinessDomain#ClassVariable> . 
<http://www.assero.co.uk/MDRModels/CDISC/V1#M-CDISC_SDTMMODEL_EVENTS_xxCONTRT> 			<http://www.w3.org/2000/01/rdf-schema#label> 			"Concomitant or Additional Trtmnt Given" . 
<http://www.assero.co.uk/MDRModels/CDISC/V1#M-CDISC_SDTMMODEL_EVENTS_xxCONTRT> 			<http://www.assero.co.uk/BusinessDomain#basedOnVariable> 			<http://www.assero.co.uk/MDRModels/CDISC/V1#M-CDISC_SDTMMODEL_EVENTS_xxCONTRT_CR> . 
<http://www.assero.co.uk/MDRModels/CDISC/V1#M-CDISC_SDTMMODEL_EVENTS_xxCONTRT> 			<http://www.assero.co.uk/BusinessDomain#ordinal> 			"35" . 
<http://www.assero.co.uk/MDRModels/CDISC/V1#M-CDISC_SDTMMODEL_EVENTS_xxCONTRT_CR> 			<http://www.w3.org/1999/02/22-rdf-syntax-ns#type> 			<http://www.assero.co.uk/BusinessOperational#CReference> . 
<http://www.assero.co.uk/MDRModels/CDISC/V1#M-CDISC_SDTMMODEL_EVENTS_xxCONTRT_CR> 			<http://www.assero.co.uk/BusinessOperational#hasColumn> 			<http://www.assero.co.uk/MDRModels/CDISC/V1#M-CDISC_SDTMMODEL_xxCONTRT> . 
<http://www.assero.co.uk/MDRModels/CDISC/V1#M-CDISC_SDTMMODEL_EVENTS_xxCONTRT_CR> 			<http://www.assero.co.uk/BusinessOperational#ordinal> 			"35" . 
<http://www.assero.co.uk/MDRModels/CDISC/V1#M-CDISC_SDTMMODEL_EVENTS_xxCONTRT_CR> 			<http://www.assero.co.uk/BusinessOperational#enabled> 			"true" . 
<http://www.assero.co.uk/MDRModels/CDISC/V1#M-CDISC_SDTMMODEL_EVENTS_xxCONTRT_CR> 			<http://www.assero.co.uk/BusinessOperational#optional> 			"false" . 
<http://www.assero.co.uk/MDRModels/CDISC/V1#M-CDISC_SDTMMODEL_xxCONTRT> 			<http://www.w3.org/1999/02/22-rdf-syntax-ns#type> 			<http://www.assero.co.uk/BusinessDomain#ModelVariable> . 
<http://www.assero.co.uk/MDRModels/CDISC/V1#M-CDISC_SDTMMODEL_xxCONTRT> 			<http://www.w3.org/2000/01/rdf-schema#label> 			"Concomitant or Additional Trtmnt Given" . 
<http://www.assero.co.uk/MDRModels/CDISC/V1#M-CDISC_SDTMMODEL_xxCONTRT> 			<http://www.assero.co.uk/BusinessDomain#classifiedAs> 			<http://www.assero.co.uk/MDRModels/CDISC/V1#M-CDISC_SDTMMODEL_SC_RECORDQUALIFIER> . 
<http://www.assero.co.uk/MDRModels/CDISC/V1#M-CDISC_SDTMMODEL_xxCONTRT> 			<http://www.assero.co.uk/BusinessDomain#typedAs> 			<http://www.assero.co.uk/MDRModels/CDISC/V1#M-CDISC_SDTMMODEL_DT_CHAR> . 
<http://www.assero.co.uk/MDRModels/CDISC/V1#M-CDISC_SDTMMODEL_xxCONTRT> 			<http://www.assero.co.uk/BusinessDomain#rule> 			"" . 
<http://www.assero.co.uk/MDRModels/CDISC/V1#M-CDISC_SDTMMODEL_xxCONTRT> 			<http://www.assero.co.uk/BusinessDomain#ordinal> 			"28" . 
<http://www.assero.co.uk/MDRModels/CDISC/V1#M-CDISC_SDTMMODEL_xxCONTRT> 			<http://www.assero.co.uk/BusinessDomain#name> 			"--CONTRT" . 
<http://www.assero.co.uk/MDRModels/CDISC/V1#M-CDISC_SDTMMODEL_xxCONTRT> 			<http://www.assero.co.uk/BusinessDomain#prefixed> 			"true" . 
<http://www.assero.co.uk/MDRModels/CDISC/V1#M-CDISC_SDTMMODEL_xxCONTRT> 			<http://www.assero.co.uk/BusinessDomain#description> 			"Was another treatment given because of the occurrence of the event? Valid values are 'Y' and 'N'." . 
<http://www.assero.co.uk/MDRModels/CDISC/V1#M-CDISC_SDTMMODEL_EVENTS_xxTOX> 			<http://www.w3.org/1999/02/22-rdf-syntax-ns#type> 			<http://www.assero.co.uk/BusinessDomain#ClassVariable> . 
<http://www.assero.co.uk/MDRModels/CDISC/V1#M-CDISC_SDTMMODEL_EVENTS_xxTOX> 			<http://www.w3.org/2000/01/rdf-schema#label> 			"Toxicity" . 
<http://www.assero.co.uk/MDRModels/CDISC/V1#M-CDISC_SDTMMODEL_EVENTS_xxTOX> 			<http://www.assero.co.uk/BusinessDomain#basedOnVariable> 			<http://www.assero.co.uk/MDRModels/CDISC/V1#M-CDISC_SDTMMODEL_EVENTS_xxTOX_CR> . 
<http://www.assero.co.uk/MDRModels/CDISC/V1#M-CDISC_SDTMMODEL_EVENTS_xxTOX> 			<http://www.assero.co.uk/BusinessDomain#ordinal> 			"36" . 
<http://www.assero.co.uk/MDRModels/CDISC/V1#M-CDISC_SDTMMODEL_EVENTS_xxTOX_CR> 			<http://www.w3.org/1999/02/22-rdf-syntax-ns#type> 			<http://www.assero.co.uk/BusinessOperational#CReference> . 
<http://www.assero.co.uk/MDRModels/CDISC/V1#M-CDISC_SDTMMODEL_EVENTS_xxTOX_CR> 			<http://www.assero.co.uk/BusinessOperational#hasColumn> 			<http://www.assero.co.uk/MDRModels/CDISC/V1#M-CDISC_SDTMMODEL_xxTOX> . 
<http://www.assero.co.uk/MDRModels/CDISC/V1#M-CDISC_SDTMMODEL_EVENTS_xxTOX_CR> 			<http://www.assero.co.uk/BusinessOperational#ordinal> 			"36" . 
<http://www.assero.co.uk/MDRModels/CDISC/V1#M-CDISC_SDTMMODEL_EVENTS_xxTOX_CR> 			<http://www.assero.co.uk/BusinessOperational#enabled> 			"true" . 
<http://www.assero.co.uk/MDRModels/CDISC/V1#M-CDISC_SDTMMODEL_EVENTS_xxTOX_CR> 			<http://www.assero.co.uk/BusinessOperational#optional> 			"false" . 
<http://www.assero.co.uk/MDRModels/CDISC/V1#M-CDISC_SDTMMODEL_xxTOX> 			<http://www.w3.org/1999/02/22-rdf-syntax-ns#type> 			<http://www.assero.co.uk/BusinessDomain#ModelVariable> . 
<http://www.assero.co.uk/MDRModels/CDISC/V1#M-CDISC_SDTMMODEL_xxTOX> 			<http://www.w3.org/2000/01/rdf-schema#label> 			"Toxicity" . 
<http://www.assero.co.uk/MDRModels/CDISC/V1#M-CDISC_SDTMMODEL_xxTOX> 			<http://www.assero.co.uk/BusinessDomain#classifiedAs> 			<http://www.assero.co.uk/MDRModels/CDISC/V1#M-CDISC_SDTMMODEL_SC_VARIABLEQUALIFIER> . 
<http://www.assero.co.uk/MDRModels/CDISC/V1#M-CDISC_SDTMMODEL_xxTOX> 			<http://www.assero.co.uk/BusinessDomain#typedAs> 			<http://www.assero.co.uk/MDRModels/CDISC/V1#M-CDISC_SDTMMODEL_DT_CHAR> . 
<http://www.assero.co.uk/MDRModels/CDISC/V1#M-CDISC_SDTMMODEL_xxTOX> 			<http://www.assero.co.uk/BusinessDomain#rule> 			"" . 
<http://www.assero.co.uk/MDRModels/CDISC/V1#M-CDISC_SDTMMODEL_xxTOX> 			<http://www.assero.co.uk/BusinessDomain#ordinal> 			"29" . 
<http://www.assero.co.uk/MDRModels/CDISC/V1#M-CDISC_SDTMMODEL_xxTOX> 			<http://www.assero.co.uk/BusinessDomain#ordinal> 			"33" . 
<http://www.assero.co.uk/MDRModels/CDISC/V1#M-CDISC_SDTMMODEL_xxTOX> 			<http://www.assero.co.uk/BusinessDomain#name> 			"--TOX" . 
<http://www.assero.co.uk/MDRModels/CDISC/V1#M-CDISC_SDTMMODEL_xxTOX> 			<http://www.assero.co.uk/BusinessDomain#prefixed> 			"true" . 
<http://www.assero.co.uk/MDRModels/CDISC/V1#M-CDISC_SDTMMODEL_xxTOX> 			<http://www.assero.co.uk/BusinessDomain#description> 			"Description of toxicity quantified by --TOXGR such as NCI CTCAE Short Name. Examples: HYPERCALCEMIA, HYPOCALCEMIA. Sponsor should specify which scale and version is used in the Sponsor Comments column of the Define.xml document." . 
<http://www.assero.co.uk/MDRModels/CDISC/V1#M-CDISC_SDTMMODEL_EVENTS_xxTOXGR> 			<http://www.w3.org/1999/02/22-rdf-syntax-ns#type> 			<http://www.assero.co.uk/BusinessDomain#ClassVariable> . 
<http://www.assero.co.uk/MDRModels/CDISC/V1#M-CDISC_SDTMMODEL_EVENTS_xxTOXGR> 			<http://www.w3.org/2000/01/rdf-schema#label> 			"Toxicity Grade" . 
<http://www.assero.co.uk/MDRModels/CDISC/V1#M-CDISC_SDTMMODEL_EVENTS_xxTOXGR> 			<http://www.assero.co.uk/BusinessDomain#basedOnVariable> 			<http://www.assero.co.uk/MDRModels/CDISC/V1#M-CDISC_SDTMMODEL_EVENTS_xxTOXGR_CR> . 
<http://www.assero.co.uk/MDRModels/CDISC/V1#M-CDISC_SDTMMODEL_EVENTS_xxTOXGR> 			<http://www.assero.co.uk/BusinessDomain#ordinal> 			"37" . 
<http://www.assero.co.uk/MDRModels/CDISC/V1#M-CDISC_SDTMMODEL_EVENTS_xxTOXGR_CR> 			<http://www.w3.org/1999/02/22-rdf-syntax-ns#type> 			<http://www.assero.co.uk/BusinessOperational#CReference> . 
<http://www.assero.co.uk/MDRModels/CDISC/V1#M-CDISC_SDTMMODEL_EVENTS_xxTOXGR_CR> 			<http://www.assero.co.uk/BusinessOperational#hasColumn> 			<http://www.assero.co.uk/MDRModels/CDISC/V1#M-CDISC_SDTMMODEL_xxTOXGR> . 
<http://www.assero.co.uk/MDRModels/CDISC/V1#M-CDISC_SDTMMODEL_EVENTS_xxTOXGR_CR> 			<http://www.assero.co.uk/BusinessOperational#ordinal> 			"37" . 
<http://www.assero.co.uk/MDRModels/CDISC/V1#M-CDISC_SDTMMODEL_EVENTS_xxTOXGR_CR> 			<http://www.assero.co.uk/BusinessOperational#enabled> 			"true" . 
<http://www.assero.co.uk/MDRModels/CDISC/V1#M-CDISC_SDTMMODEL_EVENTS_xxTOXGR_CR> 			<http://www.assero.co.uk/BusinessOperational#optional> 			"false" . 
<http://www.assero.co.uk/MDRModels/CDISC/V1#M-CDISC_SDTMMODEL_xxTOXGR> 			<http://www.w3.org/1999/02/22-rdf-syntax-ns#type> 			<http://www.assero.co.uk/BusinessDomain#ModelVariable> . 
<http://www.assero.co.uk/MDRModels/CDISC/V1#M-CDISC_SDTMMODEL_xxTOXGR> 			<http://www.w3.org/2000/01/rdf-schema#label> 			"Toxicity Grade" . 
<http://www.assero.co.uk/MDRModels/CDISC/V1#M-CDISC_SDTMMODEL_xxTOXGR> 			<http://www.assero.co.uk/BusinessDomain#classifiedAs> 			<http://www.assero.co.uk/MDRModels/CDISC/V1#M-CDISC_SDTMMODEL_SC_RECORDQUALIFIER> . 
<http://www.assero.co.uk/MDRModels/CDISC/V1#M-CDISC_SDTMMODEL_xxTOXGR> 			<http://www.assero.co.uk/BusinessDomain#classifiedAs> 			<http://www.assero.co.uk/MDRModels/CDISC/V1#M-CDISC_SDTMMODEL_SC_VARIABLEQUALIFIER> . 
<http://www.assero.co.uk/MDRModels/CDISC/V1#M-CDISC_SDTMMODEL_xxTOXGR> 			<http://www.assero.co.uk/BusinessDomain#typedAs> 			<http://www.assero.co.uk/MDRModels/CDISC/V1#M-CDISC_SDTMMODEL_DT_CHAR> . 
<http://www.assero.co.uk/MDRModels/CDISC/V1#M-CDISC_SDTMMODEL_xxTOXGR> 			<http://www.assero.co.uk/BusinessDomain#rule> 			"" . 
<http://www.assero.co.uk/MDRModels/CDISC/V1#M-CDISC_SDTMMODEL_xxTOXGR> 			<http://www.assero.co.uk/BusinessDomain#ordinal> 			"30" . 
<http://www.assero.co.uk/MDRModels/CDISC/V1#M-CDISC_SDTMMODEL_xxTOXGR> 			<http://www.assero.co.uk/BusinessDomain#ordinal> 			"34" . 
<http://www.assero.co.uk/MDRModels/CDISC/V1#M-CDISC_SDTMMODEL_xxTOXGR> 			<http://www.assero.co.uk/BusinessDomain#name> 			"--TOXGR" . 
<http://www.assero.co.uk/MDRModels/CDISC/V1#M-CDISC_SDTMMODEL_xxTOXGR> 			<http://www.assero.co.uk/BusinessDomain#prefixed> 			"true" . 
<http://www.assero.co.uk/MDRModels/CDISC/V1#M-CDISC_SDTMMODEL_xxTOXGR> 			<http://www.assero.co.uk/BusinessDomain#description> 			"Records toxicity grade using a standard toxicity scale (such as the NCI CTCAE). Sponsor should specify which scale and version is used in the Sponsor Comments column of the Define.xml document." . 
<http://www.assero.co.uk/MDRModels/CDISC/V1#M-CDISC_SDTMMODEL_EVENTS_VISITNUM> 			<http://www.w3.org/1999/02/22-rdf-syntax-ns#type> 			<http://www.assero.co.uk/BusinessDomain#ClassVariable> . 
<http://www.assero.co.uk/MDRModels/CDISC/V1#M-CDISC_SDTMMODEL_EVENTS_VISITNUM> 			<http://www.w3.org/2000/01/rdf-schema#label> 			"Visit Number" . 
<http://www.assero.co.uk/MDRModels/CDISC/V1#M-CDISC_SDTMMODEL_EVENTS_VISITNUM> 			<http://www.assero.co.uk/BusinessDomain#basedOnVariable> 			<http://www.assero.co.uk/MDRModels/CDISC/V1#M-CDISC_SDTMMODEL_EVENTS_VISITNUM_CR> . 
<http://www.assero.co.uk/MDRModels/CDISC/V1#M-CDISC_SDTMMODEL_EVENTS_VISITNUM> 			<http://www.assero.co.uk/BusinessDomain#ordinal> 			"38" . 
<http://www.assero.co.uk/MDRModels/CDISC/V1#M-CDISC_SDTMMODEL_EVENTS_VISITNUM_CR> 			<http://www.w3.org/1999/02/22-rdf-syntax-ns#type> 			<http://www.assero.co.uk/BusinessOperational#CReference> . 
<http://www.assero.co.uk/MDRModels/CDISC/V1#M-CDISC_SDTMMODEL_EVENTS_VISITNUM_CR> 			<http://www.assero.co.uk/BusinessOperational#hasColumn> 			<http://www.assero.co.uk/MDRModels/CDISC/V1#M-CDISC_SDTMMODEL_VISITNUM> . 
<http://www.assero.co.uk/MDRModels/CDISC/V1#M-CDISC_SDTMMODEL_EVENTS_VISITNUM_CR> 			<http://www.assero.co.uk/BusinessOperational#ordinal> 			"38" . 
<http://www.assero.co.uk/MDRModels/CDISC/V1#M-CDISC_SDTMMODEL_EVENTS_VISITNUM_CR> 			<http://www.assero.co.uk/BusinessOperational#enabled> 			"true" . 
<http://www.assero.co.uk/MDRModels/CDISC/V1#M-CDISC_SDTMMODEL_EVENTS_VISITNUM_CR> 			<http://www.assero.co.uk/BusinessOperational#optional> 			"false" . 
<http://www.assero.co.uk/MDRModels/CDISC/V1#M-CDISC_SDTMMODEL_VISITNUM> 			<http://www.w3.org/1999/02/22-rdf-syntax-ns#type> 			<http://www.assero.co.uk/BusinessDomain#ModelVariable> . 
<http://www.assero.co.uk/MDRModels/CDISC/V1#M-CDISC_SDTMMODEL_VISITNUM> 			<http://www.w3.org/2000/01/rdf-schema#label> 			"Visit Number" . 
<http://www.assero.co.uk/MDRModels/CDISC/V1#M-CDISC_SDTMMODEL_VISITNUM> 			<http://www.assero.co.uk/BusinessDomain#classifiedAs> 			<http://www.assero.co.uk/MDRModels/CDISC/V1#M-CDISC_SDTMMODEL_C_TIMING> . 
<http://www.assero.co.uk/MDRModels/CDISC/V1#M-CDISC_SDTMMODEL_VISITNUM> 			<http://www.assero.co.uk/BusinessDomain#typedAs> 			<http://www.assero.co.uk/MDRModels/CDISC/V1#M-CDISC_SDTMMODEL_DT_NUM> . 
<http://www.assero.co.uk/MDRModels/CDISC/V1#M-CDISC_SDTMMODEL_VISITNUM> 			<http://www.assero.co.uk/BusinessDomain#rule> 			"" . 
<http://www.assero.co.uk/MDRModels/CDISC/V1#M-CDISC_SDTMMODEL_VISITNUM> 			<http://www.assero.co.uk/BusinessDomain#ordinal> 			"8" . 
<http://www.assero.co.uk/MDRModels/CDISC/V1#M-CDISC_SDTMMODEL_VISITNUM> 			<http://www.assero.co.uk/BusinessDomain#name> 			"VISITNUM" . 
<http://www.assero.co.uk/MDRModels/CDISC/V1#M-CDISC_SDTMMODEL_VISITNUM> 			<http://www.assero.co.uk/BusinessDomain#prefixed> 			"false" . 
<http://www.assero.co.uk/MDRModels/CDISC/V1#M-CDISC_SDTMMODEL_VISITNUM> 			<http://www.assero.co.uk/BusinessDomain#description> 			"Clinical encounter number. Numeric version of VISIT, used for sorting." . 
<http://www.assero.co.uk/MDRModels/CDISC/V1#M-CDISC_SDTMMODEL_C_TIMING> 			<http://www.w3.org/1999/02/22-rdf-syntax-ns#type> 			<http://www.assero.co.uk/BusinessDomain#VariableClassification> . 
<http://www.assero.co.uk/MDRModels/CDISC/V1#M-CDISC_SDTMMODEL_C_TIMING> 			<http://www.w3.org/2000/01/rdf-schema#label> 			"Timing" . 
<http://www.assero.co.uk/MDRModels/CDISC/V1#M-CDISC_SDTMMODEL_EVENTS_VISIT> 			<http://www.w3.org/1999/02/22-rdf-syntax-ns#type> 			<http://www.assero.co.uk/BusinessDomain#ClassVariable> . 
<http://www.assero.co.uk/MDRModels/CDISC/V1#M-CDISC_SDTMMODEL_EVENTS_VISIT> 			<http://www.w3.org/2000/01/rdf-schema#label> 			"Visit Name" . 
<http://www.assero.co.uk/MDRModels/CDISC/V1#M-CDISC_SDTMMODEL_EVENTS_VISIT> 			<http://www.assero.co.uk/BusinessDomain#basedOnVariable> 			<http://www.assero.co.uk/MDRModels/CDISC/V1#M-CDISC_SDTMMODEL_EVENTS_VISIT_CR> . 
<http://www.assero.co.uk/MDRModels/CDISC/V1#M-CDISC_SDTMMODEL_EVENTS_VISIT> 			<http://www.assero.co.uk/BusinessDomain#ordinal> 			"39" . 
<http://www.assero.co.uk/MDRModels/CDISC/V1#M-CDISC_SDTMMODEL_EVENTS_VISIT_CR> 			<http://www.w3.org/1999/02/22-rdf-syntax-ns#type> 			<http://www.assero.co.uk/BusinessOperational#CReference> . 
<http://www.assero.co.uk/MDRModels/CDISC/V1#M-CDISC_SDTMMODEL_EVENTS_VISIT_CR> 			<http://www.assero.co.uk/BusinessOperational#hasColumn> 			<http://www.assero.co.uk/MDRModels/CDISC/V1#M-CDISC_SDTMMODEL_VISIT> . 
<http://www.assero.co.uk/MDRModels/CDISC/V1#M-CDISC_SDTMMODEL_EVENTS_VISIT_CR> 			<http://www.assero.co.uk/BusinessOperational#ordinal> 			"39" . 
<http://www.assero.co.uk/MDRModels/CDISC/V1#M-CDISC_SDTMMODEL_EVENTS_VISIT_CR> 			<http://www.assero.co.uk/BusinessOperational#enabled> 			"true" . 
<http://www.assero.co.uk/MDRModels/CDISC/V1#M-CDISC_SDTMMODEL_EVENTS_VISIT_CR> 			<http://www.assero.co.uk/BusinessOperational#optional> 			"false" . 
<http://www.assero.co.uk/MDRModels/CDISC/V1#M-CDISC_SDTMMODEL_VISIT> 			<http://www.w3.org/1999/02/22-rdf-syntax-ns#type> 			<http://www.assero.co.uk/BusinessDomain#ModelVariable> . 
<http://www.assero.co.uk/MDRModels/CDISC/V1#M-CDISC_SDTMMODEL_VISIT> 			<http://www.w3.org/2000/01/rdf-schema#label> 			"Visit Name" . 
<http://www.assero.co.uk/MDRModels/CDISC/V1#M-CDISC_SDTMMODEL_VISIT> 			<http://www.assero.co.uk/BusinessDomain#classifiedAs> 			<http://www.assero.co.uk/MDRModels/CDISC/V1#M-CDISC_SDTMMODEL_C_TIMING> . 
<http://www.assero.co.uk/MDRModels/CDISC/V1#M-CDISC_SDTMMODEL_VISIT> 			<http://www.assero.co.uk/BusinessDomain#typedAs> 			<http://www.assero.co.uk/MDRModels/CDISC/V1#M-CDISC_SDTMMODEL_DT_CHAR> . 
<http://www.assero.co.uk/MDRModels/CDISC/V1#M-CDISC_SDTMMODEL_VISIT> 			<http://www.assero.co.uk/BusinessDomain#rule> 			"" . 
<http://www.assero.co.uk/MDRModels/CDISC/V1#M-CDISC_SDTMMODEL_VISIT> 			<http://www.assero.co.uk/BusinessDomain#ordinal> 			"9" . 
<http://www.assero.co.uk/MDRModels/CDISC/V1#M-CDISC_SDTMMODEL_VISIT> 			<http://www.assero.co.uk/BusinessDomain#name> 			"VISIT" . 
<http://www.assero.co.uk/MDRModels/CDISC/V1#M-CDISC_SDTMMODEL_VISIT> 			<http://www.assero.co.uk/BusinessDomain#prefixed> 			"false" . 
<http://www.assero.co.uk/MDRModels/CDISC/V1#M-CDISC_SDTMMODEL_VISIT> 			<http://www.assero.co.uk/BusinessDomain#description> 			"1. Protocol-defined description of clinical encounter. 2. May be used in addition to VISITNUM and/or VISITDY." . 
<http://www.assero.co.uk/MDRModels/CDISC/V1#M-CDISC_SDTMMODEL_EVENTS_VISITDY> 			<http://www.w3.org/1999/02/22-rdf-syntax-ns#type> 			<http://www.assero.co.uk/BusinessDomain#ClassVariable> . 
<http://www.assero.co.uk/MDRModels/CDISC/V1#M-CDISC_SDTMMODEL_EVENTS_VISITDY> 			<http://www.w3.org/2000/01/rdf-schema#label> 			"Planned Study Day of Visit" . 
<http://www.assero.co.uk/MDRModels/CDISC/V1#M-CDISC_SDTMMODEL_EVENTS_VISITDY> 			<http://www.assero.co.uk/BusinessDomain#basedOnVariable> 			<http://www.assero.co.uk/MDRModels/CDISC/V1#M-CDISC_SDTMMODEL_EVENTS_VISITDY_CR> . 
<http://www.assero.co.uk/MDRModels/CDISC/V1#M-CDISC_SDTMMODEL_EVENTS_VISITDY> 			<http://www.assero.co.uk/BusinessDomain#ordinal> 			"40" . 
<http://www.assero.co.uk/MDRModels/CDISC/V1#M-CDISC_SDTMMODEL_EVENTS_VISITDY_CR> 			<http://www.w3.org/1999/02/22-rdf-syntax-ns#type> 			<http://www.assero.co.uk/BusinessOperational#CReference> . 
<http://www.assero.co.uk/MDRModels/CDISC/V1#M-CDISC_SDTMMODEL_EVENTS_VISITDY_CR> 			<http://www.assero.co.uk/BusinessOperational#hasColumn> 			<http://www.assero.co.uk/MDRModels/CDISC/V1#M-CDISC_SDTMMODEL_VISITDY> . 
<http://www.assero.co.uk/MDRModels/CDISC/V1#M-CDISC_SDTMMODEL_EVENTS_VISITDY_CR> 			<http://www.assero.co.uk/BusinessOperational#ordinal> 			"40" . 
<http://www.assero.co.uk/MDRModels/CDISC/V1#M-CDISC_SDTMMODEL_EVENTS_VISITDY_CR> 			<http://www.assero.co.uk/BusinessOperational#enabled> 			"true" . 
<http://www.assero.co.uk/MDRModels/CDISC/V1#M-CDISC_SDTMMODEL_EVENTS_VISITDY_CR> 			<http://www.assero.co.uk/BusinessOperational#optional> 			"false" . 
<http://www.assero.co.uk/MDRModels/CDISC/V1#M-CDISC_SDTMMODEL_VISITDY> 			<http://www.w3.org/1999/02/22-rdf-syntax-ns#type> 			<http://www.assero.co.uk/BusinessDomain#ModelVariable> . 
<http://www.assero.co.uk/MDRModels/CDISC/V1#M-CDISC_SDTMMODEL_VISITDY> 			<http://www.w3.org/2000/01/rdf-schema#label> 			"Planned Study Day of Visit" . 
<http://www.assero.co.uk/MDRModels/CDISC/V1#M-CDISC_SDTMMODEL_VISITDY> 			<http://www.assero.co.uk/BusinessDomain#classifiedAs> 			<http://www.assero.co.uk/MDRModels/CDISC/V1#M-CDISC_SDTMMODEL_C_TIMING> . 
<http://www.assero.co.uk/MDRModels/CDISC/V1#M-CDISC_SDTMMODEL_VISITDY> 			<http://www.assero.co.uk/BusinessDomain#typedAs> 			<http://www.assero.co.uk/MDRModels/CDISC/V1#M-CDISC_SDTMMODEL_DT_NUM> . 
<http://www.assero.co.uk/MDRModels/CDISC/V1#M-CDISC_SDTMMODEL_VISITDY> 			<http://www.assero.co.uk/BusinessDomain#rule> 			"" . 
<http://www.assero.co.uk/MDRModels/CDISC/V1#M-CDISC_SDTMMODEL_VISITDY> 			<http://www.assero.co.uk/BusinessDomain#ordinal> 			"10" . 
<http://www.assero.co.uk/MDRModels/CDISC/V1#M-CDISC_SDTMMODEL_VISITDY> 			<http://www.assero.co.uk/BusinessDomain#name> 			"VISITDY" . 
<http://www.assero.co.uk/MDRModels/CDISC/V1#M-CDISC_SDTMMODEL_VISITDY> 			<http://www.assero.co.uk/BusinessDomain#prefixed> 			"false" . 
<http://www.assero.co.uk/MDRModels/CDISC/V1#M-CDISC_SDTMMODEL_VISITDY> 			<http://www.assero.co.uk/BusinessDomain#description> 			"Planned study day of the visit based upon RFSTDTC in Demographics." . 
<http://www.assero.co.uk/MDRModels/CDISC/V1#M-CDISC_SDTMMODEL_EVENTS_TAETORD> 			<http://www.w3.org/1999/02/22-rdf-syntax-ns#type> 			<http://www.assero.co.uk/BusinessDomain#ClassVariable> . 
<http://www.assero.co.uk/MDRModels/CDISC/V1#M-CDISC_SDTMMODEL_EVENTS_TAETORD> 			<http://www.w3.org/2000/01/rdf-schema#label> 			"Planned Order of Elements within Arm" . 
<http://www.assero.co.uk/MDRModels/CDISC/V1#M-CDISC_SDTMMODEL_EVENTS_TAETORD> 			<http://www.assero.co.uk/BusinessDomain#basedOnVariable> 			<http://www.assero.co.uk/MDRModels/CDISC/V1#M-CDISC_SDTMMODEL_EVENTS_TAETORD_CR> . 
<http://www.assero.co.uk/MDRModels/CDISC/V1#M-CDISC_SDTMMODEL_EVENTS_TAETORD> 			<http://www.assero.co.uk/BusinessDomain#ordinal> 			"41" . 
<http://www.assero.co.uk/MDRModels/CDISC/V1#M-CDISC_SDTMMODEL_EVENTS_TAETORD_CR> 			<http://www.w3.org/1999/02/22-rdf-syntax-ns#type> 			<http://www.assero.co.uk/BusinessOperational#CReference> . 
<http://www.assero.co.uk/MDRModels/CDISC/V1#M-CDISC_SDTMMODEL_EVENTS_TAETORD_CR> 			<http://www.assero.co.uk/BusinessOperational#hasColumn> 			<http://www.assero.co.uk/MDRModels/CDISC/V1#M-CDISC_SDTMMODEL_TAETORD> . 
<http://www.assero.co.uk/MDRModels/CDISC/V1#M-CDISC_SDTMMODEL_EVENTS_TAETORD_CR> 			<http://www.assero.co.uk/BusinessOperational#ordinal> 			"41" . 
<http://www.assero.co.uk/MDRModels/CDISC/V1#M-CDISC_SDTMMODEL_EVENTS_TAETORD_CR> 			<http://www.assero.co.uk/BusinessOperational#enabled> 			"true" . 
<http://www.assero.co.uk/MDRModels/CDISC/V1#M-CDISC_SDTMMODEL_EVENTS_TAETORD_CR> 			<http://www.assero.co.uk/BusinessOperational#optional> 			"false" . 
<http://www.assero.co.uk/MDRModels/CDISC/V1#M-CDISC_SDTMMODEL_TAETORD> 			<http://www.w3.org/1999/02/22-rdf-syntax-ns#type> 			<http://www.assero.co.uk/BusinessDomain#ModelVariable> . 
<http://www.assero.co.uk/MDRModels/CDISC/V1#M-CDISC_SDTMMODEL_TAETORD> 			<http://www.w3.org/2000/01/rdf-schema#label> 			"Planned Order of Elements within Arm" . 
<http://www.assero.co.uk/MDRModels/CDISC/V1#M-CDISC_SDTMMODEL_TAETORD> 			<http://www.assero.co.uk/BusinessDomain#classifiedAs> 			<http://www.assero.co.uk/MDRModels/CDISC/V1#M-CDISC_SDTMMODEL_C_TIMING> . 
<http://www.assero.co.uk/MDRModels/CDISC/V1#M-CDISC_SDTMMODEL_TAETORD> 			<http://www.assero.co.uk/BusinessDomain#typedAs> 			<http://www.assero.co.uk/MDRModels/CDISC/V1#M-CDISC_SDTMMODEL_DT_NUM> . 
<http://www.assero.co.uk/MDRModels/CDISC/V1#M-CDISC_SDTMMODEL_TAETORD> 			<http://www.assero.co.uk/BusinessDomain#rule> 			"" . 
<http://www.assero.co.uk/MDRModels/CDISC/V1#M-CDISC_SDTMMODEL_TAETORD> 			<http://www.assero.co.uk/BusinessDomain#ordinal> 			"11" . 
<http://www.assero.co.uk/MDRModels/CDISC/V1#M-CDISC_SDTMMODEL_TAETORD> 			<http://www.assero.co.uk/BusinessDomain#name> 			"TAETORD" . 
<http://www.assero.co.uk/MDRModels/CDISC/V1#M-CDISC_SDTMMODEL_TAETORD> 			<http://www.assero.co.uk/BusinessDomain#prefixed> 			"false" . 
<http://www.assero.co.uk/MDRModels/CDISC/V1#M-CDISC_SDTMMODEL_TAETORD> 			<http://www.assero.co.uk/BusinessDomain#description> 			"Number that gives the order of the Element within the Arm." . 
<http://www.assero.co.uk/MDRModels/CDISC/V1#M-CDISC_SDTMMODEL_EVENTS_EPOCH> 			<http://www.w3.org/1999/02/22-rdf-syntax-ns#type> 			<http://www.assero.co.uk/BusinessDomain#ClassVariable> . 
<http://www.assero.co.uk/MDRModels/CDISC/V1#M-CDISC_SDTMMODEL_EVENTS_EPOCH> 			<http://www.w3.org/2000/01/rdf-schema#label> 			"Epoch" . 
<http://www.assero.co.uk/MDRModels/CDISC/V1#M-CDISC_SDTMMODEL_EVENTS_EPOCH> 			<http://www.assero.co.uk/BusinessDomain#basedOnVariable> 			<http://www.assero.co.uk/MDRModels/CDISC/V1#M-CDISC_SDTMMODEL_EVENTS_EPOCH_CR> . 
<http://www.assero.co.uk/MDRModels/CDISC/V1#M-CDISC_SDTMMODEL_EVENTS_EPOCH> 			<http://www.assero.co.uk/BusinessDomain#ordinal> 			"42" . 
<http://www.assero.co.uk/MDRModels/CDISC/V1#M-CDISC_SDTMMODEL_EVENTS_EPOCH_CR> 			<http://www.w3.org/1999/02/22-rdf-syntax-ns#type> 			<http://www.assero.co.uk/BusinessOperational#CReference> . 
<http://www.assero.co.uk/MDRModels/CDISC/V1#M-CDISC_SDTMMODEL_EVENTS_EPOCH_CR> 			<http://www.assero.co.uk/BusinessOperational#hasColumn> 			<http://www.assero.co.uk/MDRModels/CDISC/V1#M-CDISC_SDTMMODEL_EPOCH> . 
<http://www.assero.co.uk/MDRModels/CDISC/V1#M-CDISC_SDTMMODEL_EVENTS_EPOCH_CR> 			<http://www.assero.co.uk/BusinessOperational#ordinal> 			"42" . 
<http://www.assero.co.uk/MDRModels/CDISC/V1#M-CDISC_SDTMMODEL_EVENTS_EPOCH_CR> 			<http://www.assero.co.uk/BusinessOperational#enabled> 			"true" . 
<http://www.assero.co.uk/MDRModels/CDISC/V1#M-CDISC_SDTMMODEL_EVENTS_EPOCH_CR> 			<http://www.assero.co.uk/BusinessOperational#optional> 			"false" . 
<http://www.assero.co.uk/MDRModels/CDISC/V1#M-CDISC_SDTMMODEL_EPOCH> 			<http://www.w3.org/1999/02/22-rdf-syntax-ns#type> 			<http://www.assero.co.uk/BusinessDomain#ModelVariable> . 
<http://www.assero.co.uk/MDRModels/CDISC/V1#M-CDISC_SDTMMODEL_EPOCH> 			<http://www.w3.org/2000/01/rdf-schema#label> 			"Epoch" . 
<http://www.assero.co.uk/MDRModels/CDISC/V1#M-CDISC_SDTMMODEL_EPOCH> 			<http://www.assero.co.uk/BusinessDomain#classifiedAs> 			<http://www.assero.co.uk/MDRModels/CDISC/V1#M-CDISC_SDTMMODEL_C_TIMING> . 
<http://www.assero.co.uk/MDRModels/CDISC/V1#M-CDISC_SDTMMODEL_EPOCH> 			<http://www.assero.co.uk/BusinessDomain#typedAs> 			<http://www.assero.co.uk/MDRModels/CDISC/V1#M-CDISC_SDTMMODEL_DT_CHAR> . 
<http://www.assero.co.uk/MDRModels/CDISC/V1#M-CDISC_SDTMMODEL_EPOCH> 			<http://www.assero.co.uk/BusinessDomain#rule> 			"" . 
<http://www.assero.co.uk/MDRModels/CDISC/V1#M-CDISC_SDTMMODEL_EPOCH> 			<http://www.assero.co.uk/BusinessDomain#ordinal> 			"12" . 
<http://www.assero.co.uk/MDRModels/CDISC/V1#M-CDISC_SDTMMODEL_EPOCH> 			<http://www.assero.co.uk/BusinessDomain#name> 			"EPOCH" . 
<http://www.assero.co.uk/MDRModels/CDISC/V1#M-CDISC_SDTMMODEL_EPOCH> 			<http://www.assero.co.uk/BusinessDomain#prefixed> 			"false" . 
<http://www.assero.co.uk/MDRModels/CDISC/V1#M-CDISC_SDTMMODEL_EPOCH> 			<http://www.assero.co.uk/BusinessDomain#description> 			"Epoch associated with the Element in the planned sequence of Elements for the ARM to which the subject was assigned" . 
<http://www.assero.co.uk/MDRModels/CDISC/V1#M-CDISC_SDTMMODEL_EVENTS_xxDTC> 			<http://www.w3.org/1999/02/22-rdf-syntax-ns#type> 			<http://www.assero.co.uk/BusinessDomain#ClassVariable> . 
<http://www.assero.co.uk/MDRModels/CDISC/V1#M-CDISC_SDTMMODEL_EVENTS_xxDTC> 			<http://www.w3.org/2000/01/rdf-schema#label> 			"Date/Time of Collection" . 
<http://www.assero.co.uk/MDRModels/CDISC/V1#M-CDISC_SDTMMODEL_EVENTS_xxDTC> 			<http://www.assero.co.uk/BusinessDomain#basedOnVariable> 			<http://www.assero.co.uk/MDRModels/CDISC/V1#M-CDISC_SDTMMODEL_EVENTS_xxDTC_CR> . 
<http://www.assero.co.uk/MDRModels/CDISC/V1#M-CDISC_SDTMMODEL_EVENTS_xxDTC> 			<http://www.assero.co.uk/BusinessDomain#ordinal> 			"43" . 
<http://www.assero.co.uk/MDRModels/CDISC/V1#M-CDISC_SDTMMODEL_EVENTS_xxDTC_CR> 			<http://www.w3.org/1999/02/22-rdf-syntax-ns#type> 			<http://www.assero.co.uk/BusinessOperational#CReference> . 
<http://www.assero.co.uk/MDRModels/CDISC/V1#M-CDISC_SDTMMODEL_EVENTS_xxDTC_CR> 			<http://www.assero.co.uk/BusinessOperational#hasColumn> 			<http://www.assero.co.uk/MDRModels/CDISC/V1#M-CDISC_SDTMMODEL_xxDTC> . 
<http://www.assero.co.uk/MDRModels/CDISC/V1#M-CDISC_SDTMMODEL_EVENTS_xxDTC_CR> 			<http://www.assero.co.uk/BusinessOperational#ordinal> 			"43" . 
<http://www.assero.co.uk/MDRModels/CDISC/V1#M-CDISC_SDTMMODEL_EVENTS_xxDTC_CR> 			<http://www.assero.co.uk/BusinessOperational#enabled> 			"true" . 
<http://www.assero.co.uk/MDRModels/CDISC/V1#M-CDISC_SDTMMODEL_EVENTS_xxDTC_CR> 			<http://www.assero.co.uk/BusinessOperational#optional> 			"false" . 
<http://www.assero.co.uk/MDRModels/CDISC/V1#M-CDISC_SDTMMODEL_xxDTC> 			<http://www.w3.org/1999/02/22-rdf-syntax-ns#type> 			<http://www.assero.co.uk/BusinessDomain#ModelVariable> . 
<http://www.assero.co.uk/MDRModels/CDISC/V1#M-CDISC_SDTMMODEL_xxDTC> 			<http://www.w3.org/2000/01/rdf-schema#label> 			"Date/Time of Collection" . 
<http://www.assero.co.uk/MDRModels/CDISC/V1#M-CDISC_SDTMMODEL_xxDTC> 			<http://www.assero.co.uk/BusinessDomain#classifiedAs> 			<http://www.assero.co.uk/MDRModels/CDISC/V1#M-CDISC_SDTMMODEL_C_TIMING> . 
<http://www.assero.co.uk/MDRModels/CDISC/V1#M-CDISC_SDTMMODEL_xxDTC> 			<http://www.assero.co.uk/BusinessDomain#typedAs> 			<http://www.assero.co.uk/MDRModels/CDISC/V1#M-CDISC_SDTMMODEL_DT_CHAR> . 
<http://www.assero.co.uk/MDRModels/CDISC/V1#M-CDISC_SDTMMODEL_xxDTC> 			<http://www.assero.co.uk/BusinessDomain#rule> 			"" . 
<http://www.assero.co.uk/MDRModels/CDISC/V1#M-CDISC_SDTMMODEL_xxDTC> 			<http://www.assero.co.uk/BusinessDomain#ordinal> 			"13" . 
<http://www.assero.co.uk/MDRModels/CDISC/V1#M-CDISC_SDTMMODEL_xxDTC> 			<http://www.assero.co.uk/BusinessDomain#name> 			"--DTC" . 
<http://www.assero.co.uk/MDRModels/CDISC/V1#M-CDISC_SDTMMODEL_xxDTC> 			<http://www.assero.co.uk/BusinessDomain#prefixed> 			"true" . 
<http://www.assero.co.uk/MDRModels/CDISC/V1#M-CDISC_SDTMMODEL_xxDTC> 			<http://www.assero.co.uk/BusinessDomain#description> 			"Collection date and time of an observation represented in IS0 8601 character format." . 
<http://www.assero.co.uk/MDRModels/CDISC/V1#M-CDISC_SDTMMODEL_EVENTS_xxSTDTC> 			<http://www.w3.org/1999/02/22-rdf-syntax-ns#type> 			<http://www.assero.co.uk/BusinessDomain#ClassVariable> . 
<http://www.assero.co.uk/MDRModels/CDISC/V1#M-CDISC_SDTMMODEL_EVENTS_xxSTDTC> 			<http://www.w3.org/2000/01/rdf-schema#label> 			"Start Date/Time of Observation" . 
<http://www.assero.co.uk/MDRModels/CDISC/V1#M-CDISC_SDTMMODEL_EVENTS_xxSTDTC> 			<http://www.assero.co.uk/BusinessDomain#basedOnVariable> 			<http://www.assero.co.uk/MDRModels/CDISC/V1#M-CDISC_SDTMMODEL_EVENTS_xxSTDTC_CR> . 
<http://www.assero.co.uk/MDRModels/CDISC/V1#M-CDISC_SDTMMODEL_EVENTS_xxSTDTC> 			<http://www.assero.co.uk/BusinessDomain#ordinal> 			"44" . 
<http://www.assero.co.uk/MDRModels/CDISC/V1#M-CDISC_SDTMMODEL_EVENTS_xxSTDTC_CR> 			<http://www.w3.org/1999/02/22-rdf-syntax-ns#type> 			<http://www.assero.co.uk/BusinessOperational#CReference> . 
<http://www.assero.co.uk/MDRModels/CDISC/V1#M-CDISC_SDTMMODEL_EVENTS_xxSTDTC_CR> 			<http://www.assero.co.uk/BusinessOperational#hasColumn> 			<http://www.assero.co.uk/MDRModels/CDISC/V1#M-CDISC_SDTMMODEL_xxSTDTC> . 
<http://www.assero.co.uk/MDRModels/CDISC/V1#M-CDISC_SDTMMODEL_EVENTS_xxSTDTC_CR> 			<http://www.assero.co.uk/BusinessOperational#ordinal> 			"44" . 
<http://www.assero.co.uk/MDRModels/CDISC/V1#M-CDISC_SDTMMODEL_EVENTS_xxSTDTC_CR> 			<http://www.assero.co.uk/BusinessOperational#enabled> 			"true" . 
<http://www.assero.co.uk/MDRModels/CDISC/V1#M-CDISC_SDTMMODEL_EVENTS_xxSTDTC_CR> 			<http://www.assero.co.uk/BusinessOperational#optional> 			"false" . 
<http://www.assero.co.uk/MDRModels/CDISC/V1#M-CDISC_SDTMMODEL_xxSTDTC> 			<http://www.w3.org/1999/02/22-rdf-syntax-ns#type> 			<http://www.assero.co.uk/BusinessDomain#ModelVariable> . 
<http://www.assero.co.uk/MDRModels/CDISC/V1#M-CDISC_SDTMMODEL_xxSTDTC> 			<http://www.w3.org/2000/01/rdf-schema#label> 			"Start Date/Time of Observation" . 
<http://www.assero.co.uk/MDRModels/CDISC/V1#M-CDISC_SDTMMODEL_xxSTDTC> 			<http://www.assero.co.uk/BusinessDomain#classifiedAs> 			<http://www.assero.co.uk/MDRModels/CDISC/V1#M-CDISC_SDTMMODEL_C_TIMING> . 
<http://www.assero.co.uk/MDRModels/CDISC/V1#M-CDISC_SDTMMODEL_xxSTDTC> 			<http://www.assero.co.uk/BusinessDomain#typedAs> 			<http://www.assero.co.uk/MDRModels/CDISC/V1#M-CDISC_SDTMMODEL_DT_CHAR> . 
<http://www.assero.co.uk/MDRModels/CDISC/V1#M-CDISC_SDTMMODEL_xxSTDTC> 			<http://www.assero.co.uk/BusinessDomain#rule> 			"" . 
<http://www.assero.co.uk/MDRModels/CDISC/V1#M-CDISC_SDTMMODEL_xxSTDTC> 			<http://www.assero.co.uk/BusinessDomain#ordinal> 			"14" . 
<http://www.assero.co.uk/MDRModels/CDISC/V1#M-CDISC_SDTMMODEL_xxSTDTC> 			<http://www.assero.co.uk/BusinessDomain#name> 			"--STDTC" . 
<http://www.assero.co.uk/MDRModels/CDISC/V1#M-CDISC_SDTMMODEL_xxSTDTC> 			<http://www.assero.co.uk/BusinessDomain#prefixed> 			"true" . 
<http://www.assero.co.uk/MDRModels/CDISC/V1#M-CDISC_SDTMMODEL_xxSTDTC> 			<http://www.assero.co.uk/BusinessDomain#description> 			"Start date/time of an observation represented in IS0 8601 character format." . 
<http://www.assero.co.uk/MDRModels/CDISC/V1#M-CDISC_SDTMMODEL_EVENTS_xxENDTC> 			<http://www.w3.org/1999/02/22-rdf-syntax-ns#type> 			<http://www.assero.co.uk/BusinessDomain#ClassVariable> . 
<http://www.assero.co.uk/MDRModels/CDISC/V1#M-CDISC_SDTMMODEL_EVENTS_xxENDTC> 			<http://www.w3.org/2000/01/rdf-schema#label> 			"End Date/Time of Observation" . 
<http://www.assero.co.uk/MDRModels/CDISC/V1#M-CDISC_SDTMMODEL_EVENTS_xxENDTC> 			<http://www.assero.co.uk/BusinessDomain#basedOnVariable> 			<http://www.assero.co.uk/MDRModels/CDISC/V1#M-CDISC_SDTMMODEL_EVENTS_xxENDTC_CR> . 
<http://www.assero.co.uk/MDRModels/CDISC/V1#M-CDISC_SDTMMODEL_EVENTS_xxENDTC> 			<http://www.assero.co.uk/BusinessDomain#ordinal> 			"45" . 
<http://www.assero.co.uk/MDRModels/CDISC/V1#M-CDISC_SDTMMODEL_EVENTS_xxENDTC_CR> 			<http://www.w3.org/1999/02/22-rdf-syntax-ns#type> 			<http://www.assero.co.uk/BusinessOperational#CReference> . 
<http://www.assero.co.uk/MDRModels/CDISC/V1#M-CDISC_SDTMMODEL_EVENTS_xxENDTC_CR> 			<http://www.assero.co.uk/BusinessOperational#hasColumn> 			<http://www.assero.co.uk/MDRModels/CDISC/V1#M-CDISC_SDTMMODEL_xxENDTC> . 
<http://www.assero.co.uk/MDRModels/CDISC/V1#M-CDISC_SDTMMODEL_EVENTS_xxENDTC_CR> 			<http://www.assero.co.uk/BusinessOperational#ordinal> 			"45" . 
<http://www.assero.co.uk/MDRModels/CDISC/V1#M-CDISC_SDTMMODEL_EVENTS_xxENDTC_CR> 			<http://www.assero.co.uk/BusinessOperational#enabled> 			"true" . 
<http://www.assero.co.uk/MDRModels/CDISC/V1#M-CDISC_SDTMMODEL_EVENTS_xxENDTC_CR> 			<http://www.assero.co.uk/BusinessOperational#optional> 			"false" . 
<http://www.assero.co.uk/MDRModels/CDISC/V1#M-CDISC_SDTMMODEL_xxENDTC> 			<http://www.w3.org/1999/02/22-rdf-syntax-ns#type> 			<http://www.assero.co.uk/BusinessDomain#ModelVariable> . 
<http://www.assero.co.uk/MDRModels/CDISC/V1#M-CDISC_SDTMMODEL_xxENDTC> 			<http://www.w3.org/2000/01/rdf-schema#label> 			"End Date/Time of Observation" . 
<http://www.assero.co.uk/MDRModels/CDISC/V1#M-CDISC_SDTMMODEL_xxENDTC> 			<http://www.assero.co.uk/BusinessDomain#classifiedAs> 			<http://www.assero.co.uk/MDRModels/CDISC/V1#M-CDISC_SDTMMODEL_C_TIMING> . 
<http://www.assero.co.uk/MDRModels/CDISC/V1#M-CDISC_SDTMMODEL_xxENDTC> 			<http://www.assero.co.uk/BusinessDomain#typedAs> 			<http://www.assero.co.uk/MDRModels/CDISC/V1#M-CDISC_SDTMMODEL_DT_CHAR> . 
<http://www.assero.co.uk/MDRModels/CDISC/V1#M-CDISC_SDTMMODEL_xxENDTC> 			<http://www.assero.co.uk/BusinessDomain#rule> 			"" . 
<http://www.assero.co.uk/MDRModels/CDISC/V1#M-CDISC_SDTMMODEL_xxENDTC> 			<http://www.assero.co.uk/BusinessDomain#ordinal> 			"15" . 
<http://www.assero.co.uk/MDRModels/CDISC/V1#M-CDISC_SDTMMODEL_xxENDTC> 			<http://www.assero.co.uk/BusinessDomain#name> 			"--ENDTC" . 
<http://www.assero.co.uk/MDRModels/CDISC/V1#M-CDISC_SDTMMODEL_xxENDTC> 			<http://www.assero.co.uk/BusinessDomain#prefixed> 			"true" . 
<http://www.assero.co.uk/MDRModels/CDISC/V1#M-CDISC_SDTMMODEL_xxENDTC> 			<http://www.assero.co.uk/BusinessDomain#description> 			"End date/time of the observation represented in IS0 8601 character format." . 
<http://www.assero.co.uk/MDRModels/CDISC/V1#M-CDISC_SDTMMODEL_EVENTS_xxDY> 			<http://www.w3.org/1999/02/22-rdf-syntax-ns#type> 			<http://www.assero.co.uk/BusinessDomain#ClassVariable> . 
<http://www.assero.co.uk/MDRModels/CDISC/V1#M-CDISC_SDTMMODEL_EVENTS_xxDY> 			<http://www.w3.org/2000/01/rdf-schema#label> 			"Study Day of Visit/Collection/Exam" . 
<http://www.assero.co.uk/MDRModels/CDISC/V1#M-CDISC_SDTMMODEL_EVENTS_xxDY> 			<http://www.assero.co.uk/BusinessDomain#basedOnVariable> 			<http://www.assero.co.uk/MDRModels/CDISC/V1#M-CDISC_SDTMMODEL_EVENTS_xxDY_CR> . 
<http://www.assero.co.uk/MDRModels/CDISC/V1#M-CDISC_SDTMMODEL_EVENTS_xxDY> 			<http://www.assero.co.uk/BusinessDomain#ordinal> 			"46" . 
<http://www.assero.co.uk/MDRModels/CDISC/V1#M-CDISC_SDTMMODEL_EVENTS_xxDY_CR> 			<http://www.w3.org/1999/02/22-rdf-syntax-ns#type> 			<http://www.assero.co.uk/BusinessOperational#CReference> . 
<http://www.assero.co.uk/MDRModels/CDISC/V1#M-CDISC_SDTMMODEL_EVENTS_xxDY_CR> 			<http://www.assero.co.uk/BusinessOperational#hasColumn> 			<http://www.assero.co.uk/MDRModels/CDISC/V1#M-CDISC_SDTMMODEL_xxDY> . 
<http://www.assero.co.uk/MDRModels/CDISC/V1#M-CDISC_SDTMMODEL_EVENTS_xxDY_CR> 			<http://www.assero.co.uk/BusinessOperational#ordinal> 			"46" . 
<http://www.assero.co.uk/MDRModels/CDISC/V1#M-CDISC_SDTMMODEL_EVENTS_xxDY_CR> 			<http://www.assero.co.uk/BusinessOperational#enabled> 			"true" . 
<http://www.assero.co.uk/MDRModels/CDISC/V1#M-CDISC_SDTMMODEL_EVENTS_xxDY_CR> 			<http://www.assero.co.uk/BusinessOperational#optional> 			"false" . 
<http://www.assero.co.uk/MDRModels/CDISC/V1#M-CDISC_SDTMMODEL_xxDY> 			<http://www.w3.org/1999/02/22-rdf-syntax-ns#type> 			<http://www.assero.co.uk/BusinessDomain#ModelVariable> . 
<http://www.assero.co.uk/MDRModels/CDISC/V1#M-CDISC_SDTMMODEL_xxDY> 			<http://www.w3.org/2000/01/rdf-schema#label> 			"Study Day of Visit/Collection/Exam" . 
<http://www.assero.co.uk/MDRModels/CDISC/V1#M-CDISC_SDTMMODEL_xxDY> 			<http://www.assero.co.uk/BusinessDomain#classifiedAs> 			<http://www.assero.co.uk/MDRModels/CDISC/V1#M-CDISC_SDTMMODEL_C_TIMING> . 
<http://www.assero.co.uk/MDRModels/CDISC/V1#M-CDISC_SDTMMODEL_xxDY> 			<http://www.assero.co.uk/BusinessDomain#typedAs> 			<http://www.assero.co.uk/MDRModels/CDISC/V1#M-CDISC_SDTMMODEL_DT_NUM> . 
<http://www.assero.co.uk/MDRModels/CDISC/V1#M-CDISC_SDTMMODEL_xxDY> 			<http://www.assero.co.uk/BusinessDomain#rule> 			"" . 
<http://www.assero.co.uk/MDRModels/CDISC/V1#M-CDISC_SDTMMODEL_xxDY> 			<http://www.assero.co.uk/BusinessDomain#ordinal> 			"16" . 
<http://www.assero.co.uk/MDRModels/CDISC/V1#M-CDISC_SDTMMODEL_xxDY> 			<http://www.assero.co.uk/BusinessDomain#name> 			"--DY" . 
<http://www.assero.co.uk/MDRModels/CDISC/V1#M-CDISC_SDTMMODEL_xxDY> 			<http://www.assero.co.uk/BusinessDomain#prefixed> 			"true" . 
<http://www.assero.co.uk/MDRModels/CDISC/V1#M-CDISC_SDTMMODEL_xxDY> 			<http://www.assero.co.uk/BusinessDomain#description> 			"Actual study day of visit/collection/exam expressed in integer days relative to the sponsor-defined RFSTDTC in Demographics." . 
<http://www.assero.co.uk/MDRModels/CDISC/V1#M-CDISC_SDTMMODEL_EVENTS_xxSTDY> 			<http://www.w3.org/1999/02/22-rdf-syntax-ns#type> 			<http://www.assero.co.uk/BusinessDomain#ClassVariable> . 
<http://www.assero.co.uk/MDRModels/CDISC/V1#M-CDISC_SDTMMODEL_EVENTS_xxSTDY> 			<http://www.w3.org/2000/01/rdf-schema#label> 			"Study Day of Start of Observation" . 
<http://www.assero.co.uk/MDRModels/CDISC/V1#M-CDISC_SDTMMODEL_EVENTS_xxSTDY> 			<http://www.assero.co.uk/BusinessDomain#basedOnVariable> 			<http://www.assero.co.uk/MDRModels/CDISC/V1#M-CDISC_SDTMMODEL_EVENTS_xxSTDY_CR> . 
<http://www.assero.co.uk/MDRModels/CDISC/V1#M-CDISC_SDTMMODEL_EVENTS_xxSTDY> 			<http://www.assero.co.uk/BusinessDomain#ordinal> 			"47" . 
<http://www.assero.co.uk/MDRModels/CDISC/V1#M-CDISC_SDTMMODEL_EVENTS_xxSTDY_CR> 			<http://www.w3.org/1999/02/22-rdf-syntax-ns#type> 			<http://www.assero.co.uk/BusinessOperational#CReference> . 
<http://www.assero.co.uk/MDRModels/CDISC/V1#M-CDISC_SDTMMODEL_EVENTS_xxSTDY_CR> 			<http://www.assero.co.uk/BusinessOperational#hasColumn> 			<http://www.assero.co.uk/MDRModels/CDISC/V1#M-CDISC_SDTMMODEL_xxSTDY> . 
<http://www.assero.co.uk/MDRModels/CDISC/V1#M-CDISC_SDTMMODEL_EVENTS_xxSTDY_CR> 			<http://www.assero.co.uk/BusinessOperational#ordinal> 			"47" . 
<http://www.assero.co.uk/MDRModels/CDISC/V1#M-CDISC_SDTMMODEL_EVENTS_xxSTDY_CR> 			<http://www.assero.co.uk/BusinessOperational#enabled> 			"true" . 
<http://www.assero.co.uk/MDRModels/CDISC/V1#M-CDISC_SDTMMODEL_EVENTS_xxSTDY_CR> 			<http://www.assero.co.uk/BusinessOperational#optional> 			"false" . 
<http://www.assero.co.uk/MDRModels/CDISC/V1#M-CDISC_SDTMMODEL_xxSTDY> 			<http://www.w3.org/1999/02/22-rdf-syntax-ns#type> 			<http://www.assero.co.uk/BusinessDomain#ModelVariable> . 
<http://www.assero.co.uk/MDRModels/CDISC/V1#M-CDISC_SDTMMODEL_xxSTDY> 			<http://www.w3.org/2000/01/rdf-schema#label> 			"Study Day of Start of Observation" . 
<http://www.assero.co.uk/MDRModels/CDISC/V1#M-CDISC_SDTMMODEL_xxSTDY> 			<http://www.assero.co.uk/BusinessDomain#classifiedAs> 			<http://www.assero.co.uk/MDRModels/CDISC/V1#M-CDISC_SDTMMODEL_C_TIMING> . 
<http://www.assero.co.uk/MDRModels/CDISC/V1#M-CDISC_SDTMMODEL_xxSTDY> 			<http://www.assero.co.uk/BusinessDomain#typedAs> 			<http://www.assero.co.uk/MDRModels/CDISC/V1#M-CDISC_SDTMMODEL_DT_NUM> . 
<http://www.assero.co.uk/MDRModels/CDISC/V1#M-CDISC_SDTMMODEL_xxSTDY> 			<http://www.assero.co.uk/BusinessDomain#rule> 			"" . 
<http://www.assero.co.uk/MDRModels/CDISC/V1#M-CDISC_SDTMMODEL_xxSTDY> 			<http://www.assero.co.uk/BusinessDomain#ordinal> 			"17" . 
<http://www.assero.co.uk/MDRModels/CDISC/V1#M-CDISC_SDTMMODEL_xxSTDY> 			<http://www.assero.co.uk/BusinessDomain#name> 			"--STDY" . 
<http://www.assero.co.uk/MDRModels/CDISC/V1#M-CDISC_SDTMMODEL_xxSTDY> 			<http://www.assero.co.uk/BusinessDomain#prefixed> 			"true" . 
<http://www.assero.co.uk/MDRModels/CDISC/V1#M-CDISC_SDTMMODEL_xxSTDY> 			<http://www.assero.co.uk/BusinessDomain#description> 			"Actual study day of start of observation expressed in integer days relative to the sponsor-defined RFSTDTC in Demographics." . 
<http://www.assero.co.uk/MDRModels/CDISC/V1#M-CDISC_SDTMMODEL_EVENTS_xxENDY> 			<http://www.w3.org/1999/02/22-rdf-syntax-ns#type> 			<http://www.assero.co.uk/BusinessDomain#ClassVariable> . 
<http://www.assero.co.uk/MDRModels/CDISC/V1#M-CDISC_SDTMMODEL_EVENTS_xxENDY> 			<http://www.w3.org/2000/01/rdf-schema#label> 			"Study Day of End of Observation" . 
<http://www.assero.co.uk/MDRModels/CDISC/V1#M-CDISC_SDTMMODEL_EVENTS_xxENDY> 			<http://www.assero.co.uk/BusinessDomain#basedOnVariable> 			<http://www.assero.co.uk/MDRModels/CDISC/V1#M-CDISC_SDTMMODEL_EVENTS_xxENDY_CR> . 
<http://www.assero.co.uk/MDRModels/CDISC/V1#M-CDISC_SDTMMODEL_EVENTS_xxENDY> 			<http://www.assero.co.uk/BusinessDomain#ordinal> 			"48" . 
<http://www.assero.co.uk/MDRModels/CDISC/V1#M-CDISC_SDTMMODEL_EVENTS_xxENDY_CR> 			<http://www.w3.org/1999/02/22-rdf-syntax-ns#type> 			<http://www.assero.co.uk/BusinessOperational#CReference> . 
<http://www.assero.co.uk/MDRModels/CDISC/V1#M-CDISC_SDTMMODEL_EVENTS_xxENDY_CR> 			<http://www.assero.co.uk/BusinessOperational#hasColumn> 			<http://www.assero.co.uk/MDRModels/CDISC/V1#M-CDISC_SDTMMODEL_xxENDY> . 
<http://www.assero.co.uk/MDRModels/CDISC/V1#M-CDISC_SDTMMODEL_EVENTS_xxENDY_CR> 			<http://www.assero.co.uk/BusinessOperational#ordinal> 			"48" . 
<http://www.assero.co.uk/MDRModels/CDISC/V1#M-CDISC_SDTMMODEL_EVENTS_xxENDY_CR> 			<http://www.assero.co.uk/BusinessOperational#enabled> 			"true" . 
<http://www.assero.co.uk/MDRModels/CDISC/V1#M-CDISC_SDTMMODEL_EVENTS_xxENDY_CR> 			<http://www.assero.co.uk/BusinessOperational#optional> 			"false" . 
<http://www.assero.co.uk/MDRModels/CDISC/V1#M-CDISC_SDTMMODEL_xxENDY> 			<http://www.w3.org/1999/02/22-rdf-syntax-ns#type> 			<http://www.assero.co.uk/BusinessDomain#ModelVariable> . 
<http://www.assero.co.uk/MDRModels/CDISC/V1#M-CDISC_SDTMMODEL_xxENDY> 			<http://www.w3.org/2000/01/rdf-schema#label> 			"Study Day of End of Observation" . 
<http://www.assero.co.uk/MDRModels/CDISC/V1#M-CDISC_SDTMMODEL_xxENDY> 			<http://www.assero.co.uk/BusinessDomain#classifiedAs> 			<http://www.assero.co.uk/MDRModels/CDISC/V1#M-CDISC_SDTMMODEL_C_TIMING> . 
<http://www.assero.co.uk/MDRModels/CDISC/V1#M-CDISC_SDTMMODEL_xxENDY> 			<http://www.assero.co.uk/BusinessDomain#typedAs> 			<http://www.assero.co.uk/MDRModels/CDISC/V1#M-CDISC_SDTMMODEL_DT_NUM> . 
<http://www.assero.co.uk/MDRModels/CDISC/V1#M-CDISC_SDTMMODEL_xxENDY> 			<http://www.assero.co.uk/BusinessDomain#rule> 			"" . 
<http://www.assero.co.uk/MDRModels/CDISC/V1#M-CDISC_SDTMMODEL_xxENDY> 			<http://www.assero.co.uk/BusinessDomain#ordinal> 			"18" . 
<http://www.assero.co.uk/MDRModels/CDISC/V1#M-CDISC_SDTMMODEL_xxENDY> 			<http://www.assero.co.uk/BusinessDomain#name> 			"--ENDY" . 
<http://www.assero.co.uk/MDRModels/CDISC/V1#M-CDISC_SDTMMODEL_xxENDY> 			<http://www.assero.co.uk/BusinessDomain#prefixed> 			"true" . 
<http://www.assero.co.uk/MDRModels/CDISC/V1#M-CDISC_SDTMMODEL_xxENDY> 			<http://www.assero.co.uk/BusinessDomain#description> 			"Actual study day of end of observation expressed in integer days relative to the sponsor-defined RFSTDTC in Demographics." . 
<http://www.assero.co.uk/MDRModels/CDISC/V1#M-CDISC_SDTMMODEL_EVENTS_xxDUR> 			<http://www.w3.org/1999/02/22-rdf-syntax-ns#type> 			<http://www.assero.co.uk/BusinessDomain#ClassVariable> . 
<http://www.assero.co.uk/MDRModels/CDISC/V1#M-CDISC_SDTMMODEL_EVENTS_xxDUR> 			<http://www.w3.org/2000/01/rdf-schema#label> 			"Duration" . 
<http://www.assero.co.uk/MDRModels/CDISC/V1#M-CDISC_SDTMMODEL_EVENTS_xxDUR> 			<http://www.assero.co.uk/BusinessDomain#basedOnVariable> 			<http://www.assero.co.uk/MDRModels/CDISC/V1#M-CDISC_SDTMMODEL_EVENTS_xxDUR_CR> . 
<http://www.assero.co.uk/MDRModels/CDISC/V1#M-CDISC_SDTMMODEL_EVENTS_xxDUR> 			<http://www.assero.co.uk/BusinessDomain#ordinal> 			"49" . 
<http://www.assero.co.uk/MDRModels/CDISC/V1#M-CDISC_SDTMMODEL_EVENTS_xxDUR_CR> 			<http://www.w3.org/1999/02/22-rdf-syntax-ns#type> 			<http://www.assero.co.uk/BusinessOperational#CReference> . 
<http://www.assero.co.uk/MDRModels/CDISC/V1#M-CDISC_SDTMMODEL_EVENTS_xxDUR_CR> 			<http://www.assero.co.uk/BusinessOperational#hasColumn> 			<http://www.assero.co.uk/MDRModels/CDISC/V1#M-CDISC_SDTMMODEL_xxDUR> . 
<http://www.assero.co.uk/MDRModels/CDISC/V1#M-CDISC_SDTMMODEL_EVENTS_xxDUR_CR> 			<http://www.assero.co.uk/BusinessOperational#ordinal> 			"49" . 
<http://www.assero.co.uk/MDRModels/CDISC/V1#M-CDISC_SDTMMODEL_EVENTS_xxDUR_CR> 			<http://www.assero.co.uk/BusinessOperational#enabled> 			"true" . 
<http://www.assero.co.uk/MDRModels/CDISC/V1#M-CDISC_SDTMMODEL_EVENTS_xxDUR_CR> 			<http://www.assero.co.uk/BusinessOperational#optional> 			"false" . 
<http://www.assero.co.uk/MDRModels/CDISC/V1#M-CDISC_SDTMMODEL_xxDUR> 			<http://www.w3.org/1999/02/22-rdf-syntax-ns#type> 			<http://www.assero.co.uk/BusinessDomain#ModelVariable> . 
<http://www.assero.co.uk/MDRModels/CDISC/V1#M-CDISC_SDTMMODEL_xxDUR> 			<http://www.w3.org/2000/01/rdf-schema#label> 			"Duration" . 
<http://www.assero.co.uk/MDRModels/CDISC/V1#M-CDISC_SDTMMODEL_xxDUR> 			<http://www.assero.co.uk/BusinessDomain#classifiedAs> 			<http://www.assero.co.uk/MDRModels/CDISC/V1#M-CDISC_SDTMMODEL_C_TIMING> . 
<http://www.assero.co.uk/MDRModels/CDISC/V1#M-CDISC_SDTMMODEL_xxDUR> 			<http://www.assero.co.uk/BusinessDomain#typedAs> 			<http://www.assero.co.uk/MDRModels/CDISC/V1#M-CDISC_SDTMMODEL_DT_CHAR> . 
<http://www.assero.co.uk/MDRModels/CDISC/V1#M-CDISC_SDTMMODEL_xxDUR> 			<http://www.assero.co.uk/BusinessDomain#rule> 			"" . 
<http://www.assero.co.uk/MDRModels/CDISC/V1#M-CDISC_SDTMMODEL_xxDUR> 			<http://www.assero.co.uk/BusinessDomain#ordinal> 			"19" . 
<http://www.assero.co.uk/MDRModels/CDISC/V1#M-CDISC_SDTMMODEL_xxDUR> 			<http://www.assero.co.uk/BusinessDomain#name> 			"--DUR" . 
<http://www.assero.co.uk/MDRModels/CDISC/V1#M-CDISC_SDTMMODEL_xxDUR> 			<http://www.assero.co.uk/BusinessDomain#prefixed> 			"true" . 
<http://www.assero.co.uk/MDRModels/CDISC/V1#M-CDISC_SDTMMODEL_xxDUR> 			<http://www.assero.co.uk/BusinessDomain#description> 			"Collected duration of an event, intervention, or finding represented in ISO 8601 character format. Used only if collected on the CRF and not derived." . 
<http://www.assero.co.uk/MDRModels/CDISC/V1#M-CDISC_SDTMMODEL_EVENTS_xxTPT> 			<http://www.w3.org/1999/02/22-rdf-syntax-ns#type> 			<http://www.assero.co.uk/BusinessDomain#ClassVariable> . 
<http://www.assero.co.uk/MDRModels/CDISC/V1#M-CDISC_SDTMMODEL_EVENTS_xxTPT> 			<http://www.w3.org/2000/01/rdf-schema#label> 			"Planned Time Point Name" . 
<http://www.assero.co.uk/MDRModels/CDISC/V1#M-CDISC_SDTMMODEL_EVENTS_xxTPT> 			<http://www.assero.co.uk/BusinessDomain#basedOnVariable> 			<http://www.assero.co.uk/MDRModels/CDISC/V1#M-CDISC_SDTMMODEL_EVENTS_xxTPT_CR> . 
<http://www.assero.co.uk/MDRModels/CDISC/V1#M-CDISC_SDTMMODEL_EVENTS_xxTPT> 			<http://www.assero.co.uk/BusinessDomain#ordinal> 			"50" . 
<http://www.assero.co.uk/MDRModels/CDISC/V1#M-CDISC_SDTMMODEL_EVENTS_xxTPT_CR> 			<http://www.w3.org/1999/02/22-rdf-syntax-ns#type> 			<http://www.assero.co.uk/BusinessOperational#CReference> . 
<http://www.assero.co.uk/MDRModels/CDISC/V1#M-CDISC_SDTMMODEL_EVENTS_xxTPT_CR> 			<http://www.assero.co.uk/BusinessOperational#hasColumn> 			<http://www.assero.co.uk/MDRModels/CDISC/V1#M-CDISC_SDTMMODEL_xxTPT> . 
<http://www.assero.co.uk/MDRModels/CDISC/V1#M-CDISC_SDTMMODEL_EVENTS_xxTPT_CR> 			<http://www.assero.co.uk/BusinessOperational#ordinal> 			"50" . 
<http://www.assero.co.uk/MDRModels/CDISC/V1#M-CDISC_SDTMMODEL_EVENTS_xxTPT_CR> 			<http://www.assero.co.uk/BusinessOperational#enabled> 			"true" . 
