<http://www.assero.co.uk/MDRModels/CDISC/V1#IG-CDISC_SDTMIG> 			<http://www.w3.org/1999/02/22-rdf-syntax-ns#type> 			<http://www.assero.co.uk/BusinessDomain#ImplementationGuide> . 
<http://www.assero.co.uk/MDRModels/CDISC/V1#IG-CDISC_SDTMIG> 			<http://www.w3.org/2000/01/rdf-schema#label> 			"SDTM Implementation Guide 2008-11-12" . 
<http://www.assero.co.uk/MDRModels/CDISC/V1#IG-CDISC_SDTMIG> 			<http://www.assero.co.uk/ISO11179Types#creationDate> 			"2008-11-12" . 
<http://www.assero.co.uk/MDRModels/CDISC/V1#IG-CDISC_SDTMIG> 			<http://www.assero.co.uk/ISO11179Types#lastChangeDate> 			"2016-07-20T14:38:35 01:00" . 
<http://www.assero.co.uk/MDRModels/CDISC/V1#IG-CDISC_SDTMIG> 			<http://www.assero.co.uk/ISO11179Types#changeDescription> 			"" . 
<http://www.assero.co.uk/MDRModels/CDISC/V1#IG-CDISC_SDTMIG> 			<http://www.assero.co.uk/ISO11179Types#explanatoryComment> 			"" . 
<http://www.assero.co.uk/MDRModels/CDISC/V1#IG-CDISC_SDTMIG> 			<http://www.assero.co.uk/ISO11179Types#origin> 			"" . 
<http://www.assero.co.uk/MDRModels/CDISC/V1#IG-CDISC_SDTMIG> 			<http://www.assero.co.uk/ISO11179Identification#hasIdentifier> 			<http://www.assero.co.uk/MDRItems#SI-CDISC_SDTMIG-1> . 
<http://www.assero.co.uk/MDRModels/CDISC/V1#IG-CDISC_SDTMIG> 			<http://www.assero.co.uk/ISO11179Registration#hasState> 			<http://www.assero.co.uk/MDRItems#RS-CDISC_SDTMIG-1> . 
<http://www.assero.co.uk/MDRModels/CDISC/V1#IG-CDISC_SDTMIG> 			<http://www.assero.co.uk/BusinessDomain#includesTabulation> 			<http://www.assero.co.uk/MDRModels/CDISC/V1#IG-CDISC_SDTMIG_TR1> . 
<http://www.assero.co.uk/MDRModels/CDISC/V1#IG-CDISC_SDTMIG> 			<http://www.assero.co.uk/BusinessDomain#includesTabulation> 			<http://www.assero.co.uk/MDRModels/CDISC/V1#IG-CDISC_SDTMIG_TR2> . 
<http://www.assero.co.uk/MDRModels/CDISC/V1#IG-CDISC_SDTMIG> 			<http://www.assero.co.uk/BusinessDomain#includesTabulation> 			<http://www.assero.co.uk/MDRModels/CDISC/V1#IG-CDISC_SDTMIG_TR3> . 
<http://www.assero.co.uk/MDRModels/CDISC/V1#IG-CDISC_SDTMIG> 			<http://www.assero.co.uk/BusinessDomain#includesTabulation> 			<http://www.assero.co.uk/MDRModels/CDISC/V1#IG-CDISC_SDTMIG_TR4> . 
<http://www.assero.co.uk/MDRModels/CDISC/V1#IG-CDISC_SDTMIG> 			<http://www.assero.co.uk/BusinessDomain#includesTabulation> 			<http://www.assero.co.uk/MDRModels/CDISC/V1#IG-CDISC_SDTMIG_TR5> . 
<http://www.assero.co.uk/MDRModels/CDISC/V1#IG-CDISC_SDTMIG> 			<http://www.assero.co.uk/BusinessDomain#includesTabulation> 			<http://www.assero.co.uk/MDRModels/CDISC/V1#IG-CDISC_SDTMIG_TR6> . 
<http://www.assero.co.uk/MDRModels/CDISC/V1#IG-CDISC_SDTMIG> 			<http://www.assero.co.uk/BusinessDomain#includesTabulation> 			<http://www.assero.co.uk/MDRModels/CDISC/V1#IG-CDISC_SDTMIG_TR7> . 
<http://www.assero.co.uk/MDRModels/CDISC/V1#IG-CDISC_SDTMIG> 			<http://www.assero.co.uk/BusinessDomain#includesTabulation> 			<http://www.assero.co.uk/MDRModels/CDISC/V1#IG-CDISC_SDTMIG_TR8> . 
<http://www.assero.co.uk/MDRModels/CDISC/V1#IG-CDISC_SDTMIG> 			<http://www.assero.co.uk/BusinessDomain#includesTabulation> 			<http://www.assero.co.uk/MDRModels/CDISC/V1#IG-CDISC_SDTMIG_TR9> . 
<http://www.assero.co.uk/MDRModels/CDISC/V1#IG-CDISC_SDTMIG> 			<http://www.assero.co.uk/BusinessDomain#includesTabulation> 			<http://www.assero.co.uk/MDRModels/CDISC/V1#IG-CDISC_SDTMIG_TR10> . 
<http://www.assero.co.uk/MDRModels/CDISC/V1#IG-CDISC_SDTMIG> 			<http://www.assero.co.uk/BusinessDomain#includesTabulation> 			<http://www.assero.co.uk/MDRModels/CDISC/V1#IG-CDISC_SDTMIG_TR11> . 
<http://www.assero.co.uk/MDRModels/CDISC/V1#IG-CDISC_SDTMIG> 			<http://www.assero.co.uk/BusinessDomain#includesTabulation> 			<http://www.assero.co.uk/MDRModels/CDISC/V1#IG-CDISC_SDTMIG_TR12> . 
<http://www.assero.co.uk/MDRModels/CDISC/V1#IG-CDISC_SDTMIG> 			<http://www.assero.co.uk/BusinessDomain#includesTabulation> 			<http://www.assero.co.uk/MDRModels/CDISC/V1#IG-CDISC_SDTMIG_TR13> . 
<http://www.assero.co.uk/MDRModels/CDISC/V1#IG-CDISC_SDTMIG> 			<http://www.assero.co.uk/BusinessDomain#includesTabulation> 			<http://www.assero.co.uk/MDRModels/CDISC/V1#IG-CDISC_SDTMIG_TR14> . 
<http://www.assero.co.uk/MDRModels/CDISC/V1#IG-CDISC_SDTMIG> 			<http://www.assero.co.uk/BusinessDomain#includesTabulation> 			<http://www.assero.co.uk/MDRModels/CDISC/V1#IG-CDISC_SDTMIG_TR15> . 
<http://www.assero.co.uk/MDRModels/CDISC/V1#IG-CDISC_SDTMIG> 			<http://www.assero.co.uk/BusinessDomain#includesTabulation> 			<http://www.assero.co.uk/MDRModels/CDISC/V1#IG-CDISC_SDTMIG_TR16> . 
<http://www.assero.co.uk/MDRModels/CDISC/V1#IG-CDISC_SDTMIG> 			<http://www.assero.co.uk/BusinessDomain#includesTabulation> 			<http://www.assero.co.uk/MDRModels/CDISC/V1#IG-CDISC_SDTMIG_TR17> . 
<http://www.assero.co.uk/MDRModels/CDISC/V1#IG-CDISC_SDTMIG> 			<http://www.assero.co.uk/BusinessDomain#includesTabulation> 			<http://www.assero.co.uk/MDRModels/CDISC/V1#IG-CDISC_SDTMIG_TR18> . 
<http://www.assero.co.uk/MDRModels/CDISC/V1#IG-CDISC_SDTMIG> 			<http://www.assero.co.uk/BusinessDomain#includesTabulation> 			<http://www.assero.co.uk/MDRModels/CDISC/V1#IG-CDISC_SDTMIG_TR19> . 
<http://www.assero.co.uk/MDRModels/CDISC/V1#IG-CDISC_SDTMIG> 			<http://www.assero.co.uk/BusinessDomain#includesTabulation> 			<http://www.assero.co.uk/MDRModels/CDISC/V1#IG-CDISC_SDTMIG_TR20> . 
<http://www.assero.co.uk/MDRModels/CDISC/V1#IG-CDISC_SDTMIG> 			<http://www.assero.co.uk/BusinessDomain#includesTabulation> 			<http://www.assero.co.uk/MDRModels/CDISC/V1#IG-CDISC_SDTMIG_TR21> . 
<http://www.assero.co.uk/MDRModels/CDISC/V1#IG-CDISC_SDTMIG> 			<http://www.assero.co.uk/BusinessDomain#includesTabulation> 			<http://www.assero.co.uk/MDRModels/CDISC/V1#IG-CDISC_SDTMIG_TR22> . 
<http://www.assero.co.uk/MDRModels/CDISC/V1#IG-CDISC_SDTMIG> 			<http://www.assero.co.uk/BusinessDomain#includesTabulation> 			<http://www.assero.co.uk/MDRModels/CDISC/V1#IG-CDISC_SDTMIG_TR23> . 
<http://www.assero.co.uk/MDRModels/CDISC/V1#IG-CDISC_SDTMIG> 			<http://www.assero.co.uk/BusinessDomain#includesTabulation> 			<http://www.assero.co.uk/MDRModels/CDISC/V1#IG-CDISC_SDTMIG_TR24> . 
<http://www.assero.co.uk/MDRModels/CDISC/V1#IG-CDISC_SDTMIG> 			<http://www.assero.co.uk/BusinessDomain#includesTabulation> 			<http://www.assero.co.uk/MDRModels/CDISC/V1#IG-CDISC_SDTMIG_TR25> . 
<http://www.assero.co.uk/MDRModels/CDISC/V1#IG-CDISC_SDTMIG> 			<http://www.assero.co.uk/BusinessDomain#includesTabulation> 			<http://www.assero.co.uk/MDRModels/CDISC/V1#IG-CDISC_SDTMIG_TR26> . 
<http://www.assero.co.uk/MDRModels/CDISC/V1#IG-CDISC_SDTMIG> 			<http://www.assero.co.uk/BusinessDomain#includesTabulation> 			<http://www.assero.co.uk/MDRModels/CDISC/V1#IG-CDISC_SDTMIG_TR27> . 
<http://www.assero.co.uk/MDRModels/CDISC/V1#IG-CDISC_SDTMIG> 			<http://www.assero.co.uk/BusinessDomain#includesTabulation> 			<http://www.assero.co.uk/MDRModels/CDISC/V1#IG-CDISC_SDTMIG_TR28> . 
<http://www.assero.co.uk/MDRModels/CDISC/V1#IG-CDISC_SDTMIG> 			<http://www.assero.co.uk/BusinessDomain#includesTabulation> 			<http://www.assero.co.uk/MDRModels/CDISC/V1#IG-CDISC_SDTMIG_TR29> . 
<http://www.assero.co.uk/MDRModels/CDISC/V1#IG-CDISC_SDTMIG> 			<http://www.assero.co.uk/BusinessDomain#includesTabulation> 			<http://www.assero.co.uk/MDRModels/CDISC/V1#IG-CDISC_SDTMIG_TR30> . 
<http://www.assero.co.uk/MDRModels/CDISC/V1#IG-CDISC_SDTMIG_TR1> 			<http://www.w3.org/1999/02/22-rdf-syntax-ns#type> 			<http://www.assero.co.uk/BusinessOperational#TReference> . 
<http://www.assero.co.uk/MDRModels/CDISC/V1#IG-CDISC_SDTMIG_TR1> 			<http://www.assero.co.uk/BusinessOperational#hasTabulation> 			<http://www.assero.co.uk/MDRModels/CDISC/V1#IG-CDISC_SDTMIGAE> . 
<http://www.assero.co.uk/MDRModels/CDISC/V1#IG-CDISC_SDTMIG_TR1> 			<http://www.assero.co.uk/BusinessOperational#ordinal> 			"1" . 
<http://www.assero.co.uk/MDRModels/CDISC/V1#IG-CDISC_SDTMIG_TR1> 			<http://www.assero.co.uk/BusinessOperational#enabled> 			"true" . 
<http://www.assero.co.uk/MDRModels/CDISC/V1#IG-CDISC_SDTMIG_TR1> 			<http://www.assero.co.uk/BusinessOperational#optional> 			"false" . 
<http://www.assero.co.uk/MDRModels/CDISC/V1#IG-CDISC_SDTMIGAE> 			<http://www.w3.org/1999/02/22-rdf-syntax-ns#type> 			<http://www.assero.co.uk/BusinessDomain#IGDomain> . 
<http://www.assero.co.uk/MDRModels/CDISC/V1#IG-CDISC_SDTMIGAE> 			<http://www.w3.org/2000/01/rdf-schema#label> 			"Adverse Events" . 
<http://www.assero.co.uk/MDRModels/CDISC/V1#IG-CDISC_SDTMIGAE> 			<http://www.assero.co.uk/ISO11179Types#creationDate> 			"2008-11-12" . 
<http://www.assero.co.uk/MDRModels/CDISC/V1#IG-CDISC_SDTMIGAE> 			<http://www.assero.co.uk/ISO11179Types#lastChangeDate> 			"2016-07-20T14:38:35 01:00" . 
<http://www.assero.co.uk/MDRModels/CDISC/V1#IG-CDISC_SDTMIGAE> 			<http://www.assero.co.uk/ISO11179Types#changeDescription> 			"" . 
<http://www.assero.co.uk/MDRModels/CDISC/V1#IG-CDISC_SDTMIGAE> 			<http://www.assero.co.uk/ISO11179Types#explanatoryComment> 			"" . 
<http://www.assero.co.uk/MDRModels/CDISC/V1#IG-CDISC_SDTMIGAE> 			<http://www.assero.co.uk/ISO11179Types#origin> 			"" . 
<http://www.assero.co.uk/MDRModels/CDISC/V1#IG-CDISC_SDTMIGAE> 			<http://www.assero.co.uk/ISO11179Identification#hasIdentifier> 			<http://www.assero.co.uk/MDRItems#SI-CDISC_SDTMIGAE-1> . 
<http://www.assero.co.uk/MDRModels/CDISC/V1#IG-CDISC_SDTMIGAE> 			<http://www.assero.co.uk/ISO11179Registration#hasState> 			<http://www.assero.co.uk/MDRItems#RS-CDISC_SDTMIGAE-1> . 
<http://www.assero.co.uk/MDRModels/CDISC/V1#IG-CDISC_SDTMIGAE> 			<http://www.assero.co.uk/BusinessDomain#includesColumn> 			<http://www.assero.co.uk/MDRModels/CDISC/V1#IG-CDISC_SDTMIGAE_STUDYID> . 
<http://www.assero.co.uk/MDRModels/CDISC/V1#IG-CDISC_SDTMIGAE> 			<http://www.assero.co.uk/BusinessDomain#includesColumn> 			<http://www.assero.co.uk/MDRModels/CDISC/V1#IG-CDISC_SDTMIGAE_DOMAIN> . 
<http://www.assero.co.uk/MDRModels/CDISC/V1#IG-CDISC_SDTMIGAE> 			<http://www.assero.co.uk/BusinessDomain#includesColumn> 			<http://www.assero.co.uk/MDRModels/CDISC/V1#IG-CDISC_SDTMIGAE_USUBJID> . 
<http://www.assero.co.uk/MDRModels/CDISC/V1#IG-CDISC_SDTMIGAE> 			<http://www.assero.co.uk/BusinessDomain#includesColumn> 			<http://www.assero.co.uk/MDRModels/CDISC/V1#IG-CDISC_SDTMIGAE_AESEQ> . 
<http://www.assero.co.uk/MDRModels/CDISC/V1#IG-CDISC_SDTMIGAE> 			<http://www.assero.co.uk/BusinessDomain#includesColumn> 			<http://www.assero.co.uk/MDRModels/CDISC/V1#IG-CDISC_SDTMIGAE_AEGRPID> . 
<http://www.assero.co.uk/MDRModels/CDISC/V1#IG-CDISC_SDTMIGAE> 			<http://www.assero.co.uk/BusinessDomain#includesColumn> 			<http://www.assero.co.uk/MDRModels/CDISC/V1#IG-CDISC_SDTMIGAE_AEREFID> . 
<http://www.assero.co.uk/MDRModels/CDISC/V1#IG-CDISC_SDTMIGAE> 			<http://www.assero.co.uk/BusinessDomain#includesColumn> 			<http://www.assero.co.uk/MDRModels/CDISC/V1#IG-CDISC_SDTMIGAE_AESPID> . 
<http://www.assero.co.uk/MDRModels/CDISC/V1#IG-CDISC_SDTMIGAE> 			<http://www.assero.co.uk/BusinessDomain#includesColumn> 			<http://www.assero.co.uk/MDRModels/CDISC/V1#IG-CDISC_SDTMIGAE_AETERM> . 
<http://www.assero.co.uk/MDRModels/CDISC/V1#IG-CDISC_SDTMIGAE> 			<http://www.assero.co.uk/BusinessDomain#includesColumn> 			<http://www.assero.co.uk/MDRModels/CDISC/V1#IG-CDISC_SDTMIGAE_AEMODIFY> . 
<http://www.assero.co.uk/MDRModels/CDISC/V1#IG-CDISC_SDTMIGAE> 			<http://www.assero.co.uk/BusinessDomain#includesColumn> 			<http://www.assero.co.uk/MDRModels/CDISC/V1#IG-CDISC_SDTMIGAE_AEDECOD> . 
<http://www.assero.co.uk/MDRModels/CDISC/V1#IG-CDISC_SDTMIGAE> 			<http://www.assero.co.uk/BusinessDomain#includesColumn> 			<http://www.assero.co.uk/MDRModels/CDISC/V1#IG-CDISC_SDTMIGAE_AECAT> . 
<http://www.assero.co.uk/MDRModels/CDISC/V1#IG-CDISC_SDTMIGAE> 			<http://www.assero.co.uk/BusinessDomain#includesColumn> 			<http://www.assero.co.uk/MDRModels/CDISC/V1#IG-CDISC_SDTMIGAE_AESCAT> . 
<http://www.assero.co.uk/MDRModels/CDISC/V1#IG-CDISC_SDTMIGAE> 			<http://www.assero.co.uk/BusinessDomain#includesColumn> 			<http://www.assero.co.uk/MDRModels/CDISC/V1#IG-CDISC_SDTMIGAE_AEPRESP> . 
<http://www.assero.co.uk/MDRModels/CDISC/V1#IG-CDISC_SDTMIGAE> 			<http://www.assero.co.uk/BusinessDomain#includesColumn> 			<http://www.assero.co.uk/MDRModels/CDISC/V1#IG-CDISC_SDTMIGAE_AEBODSYS> . 
<http://www.assero.co.uk/MDRModels/CDISC/V1#IG-CDISC_SDTMIGAE> 			<http://www.assero.co.uk/BusinessDomain#includesColumn> 			<http://www.assero.co.uk/MDRModels/CDISC/V1#IG-CDISC_SDTMIGAE_AELOC> . 
<http://www.assero.co.uk/MDRModels/CDISC/V1#IG-CDISC_SDTMIGAE> 			<http://www.assero.co.uk/BusinessDomain#includesColumn> 			<http://www.assero.co.uk/MDRModels/CDISC/V1#IG-CDISC_SDTMIGAE_AESEV> . 
<http://www.assero.co.uk/MDRModels/CDISC/V1#IG-CDISC_SDTMIGAE> 			<http://www.assero.co.uk/BusinessDomain#includesColumn> 			<http://www.assero.co.uk/MDRModels/CDISC/V1#IG-CDISC_SDTMIGAE_AESER> . 
<http://www.assero.co.uk/MDRModels/CDISC/V1#IG-CDISC_SDTMIGAE> 			<http://www.assero.co.uk/BusinessDomain#includesColumn> 			<http://www.assero.co.uk/MDRModels/CDISC/V1#IG-CDISC_SDTMIGAE_AEACN> . 
<http://www.assero.co.uk/MDRModels/CDISC/V1#IG-CDISC_SDTMIGAE> 			<http://www.assero.co.uk/BusinessDomain#includesColumn> 			<http://www.assero.co.uk/MDRModels/CDISC/V1#IG-CDISC_SDTMIGAE_AEACNOTH> . 
<http://www.assero.co.uk/MDRModels/CDISC/V1#IG-CDISC_SDTMIGAE> 			<http://www.assero.co.uk/BusinessDomain#includesColumn> 			<http://www.assero.co.uk/MDRModels/CDISC/V1#IG-CDISC_SDTMIGAE_AEREL> . 
<http://www.assero.co.uk/MDRModels/CDISC/V1#IG-CDISC_SDTMIGAE> 			<http://www.assero.co.uk/BusinessDomain#includesColumn> 			<http://www.assero.co.uk/MDRModels/CDISC/V1#IG-CDISC_SDTMIGAE_AERELNST> . 
<http://www.assero.co.uk/MDRModels/CDISC/V1#IG-CDISC_SDTMIGAE> 			<http://www.assero.co.uk/BusinessDomain#includesColumn> 			<http://www.assero.co.uk/MDRModels/CDISC/V1#IG-CDISC_SDTMIGAE_AEPATT> . 
<http://www.assero.co.uk/MDRModels/CDISC/V1#IG-CDISC_SDTMIGAE> 			<http://www.assero.co.uk/BusinessDomain#includesColumn> 			<http://www.assero.co.uk/MDRModels/CDISC/V1#IG-CDISC_SDTMIGAE_AEOUT> . 
<http://www.assero.co.uk/MDRModels/CDISC/V1#IG-CDISC_SDTMIGAE> 			<http://www.assero.co.uk/BusinessDomain#includesColumn> 			<http://www.assero.co.uk/MDRModels/CDISC/V1#IG-CDISC_SDTMIGAE_AESCAN> . 
<http://www.assero.co.uk/MDRModels/CDISC/V1#IG-CDISC_SDTMIGAE> 			<http://www.assero.co.uk/BusinessDomain#includesColumn> 			<http://www.assero.co.uk/MDRModels/CDISC/V1#IG-CDISC_SDTMIGAE_AESCONG> . 
<http://www.assero.co.uk/MDRModels/CDISC/V1#IG-CDISC_SDTMIGAE> 			<http://www.assero.co.uk/BusinessDomain#includesColumn> 			<http://www.assero.co.uk/MDRModels/CDISC/V1#IG-CDISC_SDTMIGAE_AESDISAB> . 
<http://www.assero.co.uk/MDRModels/CDISC/V1#IG-CDISC_SDTMIGAE> 			<http://www.assero.co.uk/BusinessDomain#includesColumn> 			<http://www.assero.co.uk/MDRModels/CDISC/V1#IG-CDISC_SDTMIGAE_AESDTH> . 
<http://www.assero.co.uk/MDRModels/CDISC/V1#IG-CDISC_SDTMIGAE> 			<http://www.assero.co.uk/BusinessDomain#includesColumn> 			<http://www.assero.co.uk/MDRModels/CDISC/V1#IG-CDISC_SDTMIGAE_AESHOSP> . 
<http://www.assero.co.uk/MDRModels/CDISC/V1#IG-CDISC_SDTMIGAE> 			<http://www.assero.co.uk/BusinessDomain#includesColumn> 			<http://www.assero.co.uk/MDRModels/CDISC/V1#IG-CDISC_SDTMIGAE_AESLIFE> . 
<http://www.assero.co.uk/MDRModels/CDISC/V1#IG-CDISC_SDTMIGAE> 			<http://www.assero.co.uk/BusinessDomain#includesColumn> 			<http://www.assero.co.uk/MDRModels/CDISC/V1#IG-CDISC_SDTMIGAE_AESOD> . 
<http://www.assero.co.uk/MDRModels/CDISC/V1#IG-CDISC_SDTMIGAE> 			<http://www.assero.co.uk/BusinessDomain#includesColumn> 			<http://www.assero.co.uk/MDRModels/CDISC/V1#IG-CDISC_SDTMIGAE_AESMIE> . 
<http://www.assero.co.uk/MDRModels/CDISC/V1#IG-CDISC_SDTMIGAE> 			<http://www.assero.co.uk/BusinessDomain#includesColumn> 			<http://www.assero.co.uk/MDRModels/CDISC/V1#IG-CDISC_SDTMIGAE_AECONTRT> . 
<http://www.assero.co.uk/MDRModels/CDISC/V1#IG-CDISC_SDTMIGAE> 			<http://www.assero.co.uk/BusinessDomain#includesColumn> 			<http://www.assero.co.uk/MDRModels/CDISC/V1#IG-CDISC_SDTMIGAE_AETOXGR> . 
<http://www.assero.co.uk/MDRModels/CDISC/V1#IG-CDISC_SDTMIGAE> 			<http://www.assero.co.uk/BusinessDomain#includesColumn> 			<http://www.assero.co.uk/MDRModels/CDISC/V1#IG-CDISC_SDTMIGAE_AESTDTC> . 
<http://www.assero.co.uk/MDRModels/CDISC/V1#IG-CDISC_SDTMIGAE> 			<http://www.assero.co.uk/BusinessDomain#includesColumn> 			<http://www.assero.co.uk/MDRModels/CDISC/V1#IG-CDISC_SDTMIGAE_AEENDTC> . 
<http://www.assero.co.uk/MDRModels/CDISC/V1#IG-CDISC_SDTMIGAE> 			<http://www.assero.co.uk/BusinessDomain#includesColumn> 			<http://www.assero.co.uk/MDRModels/CDISC/V1#IG-CDISC_SDTMIGAE_AESTDY> . 
<http://www.assero.co.uk/MDRModels/CDISC/V1#IG-CDISC_SDTMIGAE> 			<http://www.assero.co.uk/BusinessDomain#includesColumn> 			<http://www.assero.co.uk/MDRModels/CDISC/V1#IG-CDISC_SDTMIGAE_AEENDY> . 
<http://www.assero.co.uk/MDRModels/CDISC/V1#IG-CDISC_SDTMIGAE> 			<http://www.assero.co.uk/BusinessDomain#includesColumn> 			<http://www.assero.co.uk/MDRModels/CDISC/V1#IG-CDISC_SDTMIGAE_AEDUR> . 
<http://www.assero.co.uk/MDRModels/CDISC/V1#IG-CDISC_SDTMIGAE> 			<http://www.assero.co.uk/BusinessDomain#includesColumn> 			<http://www.assero.co.uk/MDRModels/CDISC/V1#IG-CDISC_SDTMIGAE_AEENRF> . 
<http://www.assero.co.uk/MDRModels/CDISC/V1#IG-CDISC_SDTMIGAE> 			<http://www.assero.co.uk/BusinessDomain#includesColumn> 			<http://www.assero.co.uk/MDRModels/CDISC/V1#IG-CDISC_SDTMIGAE_AEENRTPT> . 
<http://www.assero.co.uk/MDRModels/CDISC/V1#IG-CDISC_SDTMIGAE> 			<http://www.assero.co.uk/BusinessDomain#includesColumn> 			<http://www.assero.co.uk/MDRModels/CDISC/V1#IG-CDISC_SDTMIGAE_AEENTPT> . 
<http://www.assero.co.uk/MDRModels/CDISC/V1#IG-CDISC_SDTMIGAE> 			<http://www.assero.co.uk/BusinessDomain#basedOnDomain> 			<http://www.assero.co.uk/MDRModels/CDISC/V1#IG-CDISC_SDTMIGAE_CLR> . 
<http://www.assero.co.uk/MDRModels/CDISC/V1#IG-CDISC_SDTMIGAE> 			<http://www.assero.co.uk/BusinessDomain#prefix> 			"" . 
<http://www.assero.co.uk/MDRModels/CDISC/V1#IG-CDISC_SDTMIGAE> 			<http://www.assero.co.uk/BusinessDomain#structure> 			"" . 
<http://www.assero.co.uk/MDRModels/CDISC/V1#IG-CDISC_SDTMIGAE_STUDYID> 			<http://www.w3.org/1999/02/22-rdf-syntax-ns#type> 			<http://www.assero.co.uk/BusinessDomain#IgVariable> . 
<http://www.assero.co.uk/MDRModels/CDISC/V1#IG-CDISC_SDTMIGAE_STUDYID> 			<http://www.w3.org/2000/01/rdf-schema#label> 			"Study Identifier" . 
<http://www.assero.co.uk/MDRModels/CDISC/V1#IG-CDISC_SDTMIGAE_STUDYID> 			<http://www.assero.co.uk/BusinessDomain#basedOnVariable> 			<http://www.assero.co.uk/MDRModels/CDISC/V1#IG-CDISC_SDTMIGAE_STUDYID_VR> . 
<http://www.assero.co.uk/MDRModels/CDISC/V1#IG-CDISC_SDTMIGAE_STUDYID> 			<http://www.assero.co.uk/BusinessDomain#compliance> 			<http://www.assero.co.uk/MDRModels/CDISC/V1#IG-CDISC_SDTMIG_C_REQUIRED> . 
<http://www.assero.co.uk/MDRModels/CDISC/V1#IG-CDISC_SDTMIGAE_STUDYID> 			<http://www.assero.co.uk/BusinessDomain#ordinal> 			"1" . 
<http://www.assero.co.uk/MDRModels/CDISC/V1#IG-CDISC_SDTMIGAE_STUDYID> 			<http://www.assero.co.uk/BusinessDomain#name> 			"STUDYID" . 
<http://www.assero.co.uk/MDRModels/CDISC/V1#IG-CDISC_SDTMIGAE_STUDYID> 			<http://www.assero.co.uk/BusinessDomain#notes> 			"Unique identifier for a study." . 
<http://www.assero.co.uk/MDRModels/CDISC/V1#IG-CDISC_SDTMIGAE_STUDYID> 			<http://www.assero.co.uk/BusinessDomain#controlled_term_or_format> 			"" . 
<http://www.assero.co.uk/MDRModels/CDISC/V1#IG-CDISC_SDTMIGAE_STUDYID_VR> 			<http://www.w3.org/1999/02/22-rdf-syntax-ns#type> 			<http://www.assero.co.uk/BusinessOperational#CReference> . 
<http://www.assero.co.uk/MDRModels/CDISC/V1#IG-CDISC_SDTMIGAE_STUDYID_VR> 			<http://www.assero.co.uk/BusinessOperational#hasColumn> 			<http://www.assero.co.uk/MDRModels/CDISC/V1#M-CDISC_SDTMMODEL_EVENTS_STUDYID> . 
<http://www.assero.co.uk/MDRModels/CDISC/V1#IG-CDISC_SDTMIGAE_STUDYID_VR> 			<http://www.assero.co.uk/BusinessOperational#ordinal> 			"1" . 
<http://www.assero.co.uk/MDRModels/CDISC/V1#IG-CDISC_SDTMIGAE_STUDYID_VR> 			<http://www.assero.co.uk/BusinessOperational#enabled> 			"true" . 
<http://www.assero.co.uk/MDRModels/CDISC/V1#IG-CDISC_SDTMIGAE_STUDYID_VR> 			<http://www.assero.co.uk/BusinessOperational#optional> 			"false" . 
<http://www.assero.co.uk/MDRModels/CDISC/V1#M-CDISC_SDTMMODEL_EVENTS_STUDYID> 			<http://www.w3.org/1999/02/22-rdf-syntax-ns#type> 			<http://www.assero.co.uk/BusinessDomain#ClassVariable> . 
<http://www.assero.co.uk/MDRModels/CDISC/V1#M-CDISC_SDTMMODEL_EVENTS_STUDYID> 			<http://www.w3.org/2000/01/rdf-schema#label> 			"Study Identifier" . 
<http://www.assero.co.uk/MDRModels/CDISC/V1#M-CDISC_SDTMMODEL_EVENTS_STUDYID> 			<http://www.assero.co.uk/BusinessDomain#basedOnVariable> 			<http://www.assero.co.uk/MDRModels/CDISC/V1#M-CDISC_SDTMMODEL_EVENTS_STUDYID_CR> . 
<http://www.assero.co.uk/MDRModels/CDISC/V1#M-CDISC_SDTMMODEL_EVENTS_STUDYID> 			<http://www.assero.co.uk/BusinessDomain#ordinal> 			"1" . 
<http://www.assero.co.uk/MDRModels/CDISC/V1#M-CDISC_SDTMMODEL_EVENTS_STUDYID_CR> 			<http://www.w3.org/1999/02/22-rdf-syntax-ns#type> 			<http://www.assero.co.uk/BusinessOperational#CReference> . 
<http://www.assero.co.uk/MDRModels/CDISC/V1#M-CDISC_SDTMMODEL_EVENTS_STUDYID_CR> 			<http://www.assero.co.uk/BusinessOperational#hasColumn> 			<http://www.assero.co.uk/MDRModels/CDISC/V1#M-CDISC_SDTMMODEL_STUDYID> . 
<http://www.assero.co.uk/MDRModels/CDISC/V1#M-CDISC_SDTMMODEL_EVENTS_STUDYID_CR> 			<http://www.assero.co.uk/BusinessOperational#ordinal> 			"1" . 
<http://www.assero.co.uk/MDRModels/CDISC/V1#M-CDISC_SDTMMODEL_EVENTS_STUDYID_CR> 			<http://www.assero.co.uk/BusinessOperational#enabled> 			"true" . 
<http://www.assero.co.uk/MDRModels/CDISC/V1#M-CDISC_SDTMMODEL_EVENTS_STUDYID_CR> 			<http://www.assero.co.uk/BusinessOperational#optional> 			"false" . 
<http://www.assero.co.uk/MDRModels/CDISC/V1#M-CDISC_SDTMMODEL_STUDYID> 			<http://www.w3.org/1999/02/22-rdf-syntax-ns#type> 			<http://www.assero.co.uk/BusinessDomain#ModelVariable> . 
<http://www.assero.co.uk/MDRModels/CDISC/V1#M-CDISC_SDTMMODEL_STUDYID> 			<http://www.w3.org/2000/01/rdf-schema#label> 			"Study Identifier" . 
<http://www.assero.co.uk/MDRModels/CDISC/V1#M-CDISC_SDTMMODEL_STUDYID> 			<http://www.assero.co.uk/BusinessDomain#classifiedAs> 			<http://www.assero.co.uk/MDRModels/CDISC/V1#M-CDISC_SDTMMODEL_C_IDENTIFIER> . 
<http://www.assero.co.uk/MDRModels/CDISC/V1#M-CDISC_SDTMMODEL_STUDYID> 			<http://www.assero.co.uk/BusinessDomain#typedAs> 			<http://www.assero.co.uk/MDRModels/CDISC/V1#M-CDISC_SDTMMODEL_DT_CHAR> . 
<http://www.assero.co.uk/MDRModels/CDISC/V1#M-CDISC_SDTMMODEL_STUDYID> 			<http://www.assero.co.uk/BusinessDomain#rule> 			"" . 
<http://www.assero.co.uk/MDRModels/CDISC/V1#M-CDISC_SDTMMODEL_STUDYID> 			<http://www.assero.co.uk/BusinessDomain#ordinal> 			"1" . 
<http://www.assero.co.uk/MDRModels/CDISC/V1#M-CDISC_SDTMMODEL_STUDYID> 			<http://www.assero.co.uk/BusinessDomain#name> 			"STUDYID" . 
<http://www.assero.co.uk/MDRModels/CDISC/V1#M-CDISC_SDTMMODEL_STUDYID> 			<http://www.assero.co.uk/BusinessDomain#prefixed> 			"false" . 
<http://www.assero.co.uk/MDRModels/CDISC/V1#M-CDISC_SDTMMODEL_STUDYID> 			<http://www.assero.co.uk/BusinessDomain#description> 			"Unique identifier for a study." . 
<http://www.assero.co.uk/MDRModels/CDISC/V1#M-CDISC_SDTMMODEL_C_IDENTIFIER> 			<http://www.w3.org/1999/02/22-rdf-syntax-ns#type> 			<http://www.assero.co.uk/BusinessDomain#VariableClassification> . 
<http://www.assero.co.uk/MDRModels/CDISC/V1#M-CDISC_SDTMMODEL_C_IDENTIFIER> 			<http://www.w3.org/2000/01/rdf-schema#label> 			"Identifier" . 
<http://www.assero.co.uk/MDRModels/CDISC/V1#M-CDISC_SDTMMODEL_DT_CHAR> 			<http://www.w3.org/1999/02/22-rdf-syntax-ns#type> 			<http://www.assero.co.uk/BusinessDomain#VariableType> . 
<http://www.assero.co.uk/MDRModels/CDISC/V1#M-CDISC_SDTMMODEL_DT_CHAR> 			<http://www.w3.org/2000/01/rdf-schema#label> 			"Char" . 
<http://www.assero.co.uk/MDRModels/CDISC/V1#IG-CDISC_SDTMIG_C_REQUIRED> 			<http://www.w3.org/1999/02/22-rdf-syntax-ns#type> 			<http://www.assero.co.uk/BusinessDomain#VariableCompliance> . 
<http://www.assero.co.uk/MDRModels/CDISC/V1#IG-CDISC_SDTMIG_C_REQUIRED> 			<http://www.w3.org/2000/01/rdf-schema#label> 			"Required" . 
<http://www.assero.co.uk/MDRModels/CDISC/V1#IG-CDISC_SDTMIGAE_DOMAIN> 			<http://www.w3.org/1999/02/22-rdf-syntax-ns#type> 			<http://www.assero.co.uk/BusinessDomain#IgVariable> . 
<http://www.assero.co.uk/MDRModels/CDISC/V1#IG-CDISC_SDTMIGAE_DOMAIN> 			<http://www.w3.org/2000/01/rdf-schema#label> 			"Domain Abbreviation" . 
<http://www.assero.co.uk/MDRModels/CDISC/V1#IG-CDISC_SDTMIGAE_DOMAIN> 			<http://www.assero.co.uk/BusinessDomain#basedOnVariable> 			<http://www.assero.co.uk/MDRModels/CDISC/V1#IG-CDISC_SDTMIGAE_DOMAIN_VR> . 
<http://www.assero.co.uk/MDRModels/CDISC/V1#IG-CDISC_SDTMIGAE_DOMAIN> 			<http://www.assero.co.uk/BusinessDomain#compliance> 			<http://www.assero.co.uk/MDRModels/CDISC/V1#IG-CDISC_SDTMIG_C_REQUIRED> . 
<http://www.assero.co.uk/MDRModels/CDISC/V1#IG-CDISC_SDTMIGAE_DOMAIN> 			<http://www.assero.co.uk/BusinessDomain#ordinal> 			"2" . 
<http://www.assero.co.uk/MDRModels/CDISC/V1#IG-CDISC_SDTMIGAE_DOMAIN> 			<http://www.assero.co.uk/BusinessDomain#name> 			"DOMAIN" . 
<http://www.assero.co.uk/MDRModels/CDISC/V1#IG-CDISC_SDTMIGAE_DOMAIN> 			<http://www.assero.co.uk/BusinessDomain#notes> 			"Two-character abbreviation for the domain." . 
<http://www.assero.co.uk/MDRModels/CDISC/V1#IG-CDISC_SDTMIGAE_DOMAIN> 			<http://www.assero.co.uk/BusinessDomain#controlled_term_or_format> 			"" . 
<http://www.assero.co.uk/MDRModels/CDISC/V1#IG-CDISC_SDTMIGAE_DOMAIN_VR> 			<http://www.w3.org/1999/02/22-rdf-syntax-ns#type> 			<http://www.assero.co.uk/BusinessOperational#CReference> . 
<http://www.assero.co.uk/MDRModels/CDISC/V1#IG-CDISC_SDTMIGAE_DOMAIN_VR> 			<http://www.assero.co.uk/BusinessOperational#hasColumn> 			<http://www.assero.co.uk/MDRModels/CDISC/V1#M-CDISC_SDTMMODEL_EVENTS_DOMAIN> . 
<http://www.assero.co.uk/MDRModels/CDISC/V1#IG-CDISC_SDTMIGAE_DOMAIN_VR> 			<http://www.assero.co.uk/BusinessOperational#ordinal> 			"1" . 
<http://www.assero.co.uk/MDRModels/CDISC/V1#IG-CDISC_SDTMIGAE_DOMAIN_VR> 			<http://www.assero.co.uk/BusinessOperational#enabled> 			"true" . 
<http://www.assero.co.uk/MDRModels/CDISC/V1#IG-CDISC_SDTMIGAE_DOMAIN_VR> 			<http://www.assero.co.uk/BusinessOperational#optional> 			"false" . 
<http://www.assero.co.uk/MDRModels/CDISC/V1#M-CDISC_SDTMMODEL_EVENTS_DOMAIN> 			<http://www.w3.org/1999/02/22-rdf-syntax-ns#type> 			<http://www.assero.co.uk/BusinessDomain#ClassVariable> . 
<http://www.assero.co.uk/MDRModels/CDISC/V1#M-CDISC_SDTMMODEL_EVENTS_DOMAIN> 			<http://www.w3.org/2000/01/rdf-schema#label> 			"Domain Abbreviation" . 
<http://www.assero.co.uk/MDRModels/CDISC/V1#M-CDISC_SDTMMODEL_EVENTS_DOMAIN> 			<http://www.assero.co.uk/BusinessDomain#basedOnVariable> 			<http://www.assero.co.uk/MDRModels/CDISC/V1#M-CDISC_SDTMMODEL_EVENTS_DOMAIN_CR> . 
<http://www.assero.co.uk/MDRModels/CDISC/V1#M-CDISC_SDTMMODEL_EVENTS_DOMAIN> 			<http://www.assero.co.uk/BusinessDomain#ordinal> 			"2" . 
<http://www.assero.co.uk/MDRModels/CDISC/V1#M-CDISC_SDTMMODEL_EVENTS_DOMAIN_CR> 			<http://www.w3.org/1999/02/22-rdf-syntax-ns#type> 			<http://www.assero.co.uk/BusinessOperational#CReference> . 
<http://www.assero.co.uk/MDRModels/CDISC/V1#M-CDISC_SDTMMODEL_EVENTS_DOMAIN_CR> 			<http://www.assero.co.uk/BusinessOperational#hasColumn> 			<http://www.assero.co.uk/MDRModels/CDISC/V1#M-CDISC_SDTMMODEL_DOMAIN> . 
<http://www.assero.co.uk/MDRModels/CDISC/V1#M-CDISC_SDTMMODEL_EVENTS_DOMAIN_CR> 			<http://www.assero.co.uk/BusinessOperational#ordinal> 			"2" . 
<http://www.assero.co.uk/MDRModels/CDISC/V1#M-CDISC_SDTMMODEL_EVENTS_DOMAIN_CR> 			<http://www.assero.co.uk/BusinessOperational#enabled> 			"true" . 
<http://www.assero.co.uk/MDRModels/CDISC/V1#M-CDISC_SDTMMODEL_EVENTS_DOMAIN_CR> 			<http://www.assero.co.uk/BusinessOperational#optional> 			"false" . 
<http://www.assero.co.uk/MDRModels/CDISC/V1#M-CDISC_SDTMMODEL_DOMAIN> 			<http://www.w3.org/1999/02/22-rdf-syntax-ns#type> 			<http://www.assero.co.uk/BusinessDomain#ModelVariable> . 
<http://www.assero.co.uk/MDRModels/CDISC/V1#M-CDISC_SDTMMODEL_DOMAIN> 			<http://www.w3.org/2000/01/rdf-schema#label> 			"Domain Abbreviation" . 
<http://www.assero.co.uk/MDRModels/CDISC/V1#M-CDISC_SDTMMODEL_DOMAIN> 			<http://www.assero.co.uk/BusinessDomain#classifiedAs> 			<http://www.assero.co.uk/MDRModels/CDISC/V1#M-CDISC_SDTMMODEL_C_IDENTIFIER> . 
<http://www.assero.co.uk/MDRModels/CDISC/V1#M-CDISC_SDTMMODEL_DOMAIN> 			<http://www.assero.co.uk/BusinessDomain#typedAs> 			<http://www.assero.co.uk/MDRModels/CDISC/V1#M-CDISC_SDTMMODEL_DT_CHAR> . 
<http://www.assero.co.uk/MDRModels/CDISC/V1#M-CDISC_SDTMMODEL_DOMAIN> 			<http://www.assero.co.uk/BusinessDomain#rule> 			"" . 
<http://www.assero.co.uk/MDRModels/CDISC/V1#M-CDISC_SDTMMODEL_DOMAIN> 			<http://www.assero.co.uk/BusinessDomain#ordinal> 			"2" . 
<http://www.assero.co.uk/MDRModels/CDISC/V1#M-CDISC_SDTMMODEL_DOMAIN> 			<http://www.assero.co.uk/BusinessDomain#name> 			"DOMAIN" . 
<http://www.assero.co.uk/MDRModels/CDISC/V1#M-CDISC_SDTMMODEL_DOMAIN> 			<http://www.assero.co.uk/BusinessDomain#prefixed> 			"false" . 
<http://www.assero.co.uk/MDRModels/CDISC/V1#M-CDISC_SDTMMODEL_DOMAIN> 			<http://www.assero.co.uk/BusinessDomain#description> 			"Two-character abbreviation for the domain." . 
<http://www.assero.co.uk/MDRModels/CDISC/V1#IG-CDISC_SDTMIGAE_USUBJID> 			<http://www.w3.org/1999/02/22-rdf-syntax-ns#type> 			<http://www.assero.co.uk/BusinessDomain#IgVariable> . 
<http://www.assero.co.uk/MDRModels/CDISC/V1#IG-CDISC_SDTMIGAE_USUBJID> 			<http://www.w3.org/2000/01/rdf-schema#label> 			"Unique Subject Identifier" . 
<http://www.assero.co.uk/MDRModels/CDISC/V1#IG-CDISC_SDTMIGAE_USUBJID> 			<http://www.assero.co.uk/BusinessDomain#basedOnVariable> 			<http://www.assero.co.uk/MDRModels/CDISC/V1#IG-CDISC_SDTMIGAE_USUBJID_VR> . 
<http://www.assero.co.uk/MDRModels/CDISC/V1#IG-CDISC_SDTMIGAE_USUBJID> 			<http://www.assero.co.uk/BusinessDomain#compliance> 			<http://www.assero.co.uk/MDRModels/CDISC/V1#IG-CDISC_SDTMIG_C_REQUIRED> . 
<http://www.assero.co.uk/MDRModels/CDISC/V1#IG-CDISC_SDTMIGAE_USUBJID> 			<http://www.assero.co.uk/BusinessDomain#ordinal> 			"3" . 
<http://www.assero.co.uk/MDRModels/CDISC/V1#IG-CDISC_SDTMIGAE_USUBJID> 			<http://www.assero.co.uk/BusinessDomain#name> 			"USUBJID" . 
<http://www.assero.co.uk/MDRModels/CDISC/V1#IG-CDISC_SDTMIGAE_USUBJID> 			<http://www.assero.co.uk/BusinessDomain#notes> 			"Identifier used to uniquely identify a subject across all studies for all applications or submissions involving the product." . 
<http://www.assero.co.uk/MDRModels/CDISC/V1#IG-CDISC_SDTMIGAE_USUBJID> 			<http://www.assero.co.uk/BusinessDomain#controlled_term_or_format> 			"" . 
<http://www.assero.co.uk/MDRModels/CDISC/V1#IG-CDISC_SDTMIGAE_USUBJID_VR> 			<http://www.w3.org/1999/02/22-rdf-syntax-ns#type> 			<http://www.assero.co.uk/BusinessOperational#CReference> . 
<http://www.assero.co.uk/MDRModels/CDISC/V1#IG-CDISC_SDTMIGAE_USUBJID_VR> 			<http://www.assero.co.uk/BusinessOperational#hasColumn> 			<http://www.assero.co.uk/MDRModels/CDISC/V1#M-CDISC_SDTMMODEL_EVENTS_USUBJID> . 
<http://www.assero.co.uk/MDRModels/CDISC/V1#IG-CDISC_SDTMIGAE_USUBJID_VR> 			<http://www.assero.co.uk/BusinessOperational#ordinal> 			"1" . 
<http://www.assero.co.uk/MDRModels/CDISC/V1#IG-CDISC_SDTMIGAE_USUBJID_VR> 			<http://www.assero.co.uk/BusinessOperational#enabled> 			"true" . 
<http://www.assero.co.uk/MDRModels/CDISC/V1#IG-CDISC_SDTMIGAE_USUBJID_VR> 			<http://www.assero.co.uk/BusinessOperational#optional> 			"false" . 
<http://www.assero.co.uk/MDRModels/CDISC/V1#M-CDISC_SDTMMODEL_EVENTS_USUBJID> 			<http://www.w3.org/1999/02/22-rdf-syntax-ns#type> 			<http://www.assero.co.uk/BusinessDomain#ClassVariable> . 
<http://www.assero.co.uk/MDRModels/CDISC/V1#M-CDISC_SDTMMODEL_EVENTS_USUBJID> 			<http://www.w3.org/2000/01/rdf-schema#label> 			"Unique Subject Identifier" . 
<http://www.assero.co.uk/MDRModels/CDISC/V1#M-CDISC_SDTMMODEL_EVENTS_USUBJID> 			<http://www.assero.co.uk/BusinessDomain#basedOnVariable> 			<http://www.assero.co.uk/MDRModels/CDISC/V1#M-CDISC_SDTMMODEL_EVENTS_USUBJID_CR> . 
<http://www.assero.co.uk/MDRModels/CDISC/V1#M-CDISC_SDTMMODEL_EVENTS_USUBJID> 			<http://www.assero.co.uk/BusinessDomain#ordinal> 			"3" . 
<http://www.assero.co.uk/MDRModels/CDISC/V1#M-CDISC_SDTMMODEL_EVENTS_USUBJID_CR> 			<http://www.w3.org/1999/02/22-rdf-syntax-ns#type> 			<http://www.assero.co.uk/BusinessOperational#CReference> . 
<http://www.assero.co.uk/MDRModels/CDISC/V1#M-CDISC_SDTMMODEL_EVENTS_USUBJID_CR> 			<http://www.assero.co.uk/BusinessOperational#hasColumn> 			<http://www.assero.co.uk/MDRModels/CDISC/V1#M-CDISC_SDTMMODEL_USUBJID> . 
<http://www.assero.co.uk/MDRModels/CDISC/V1#M-CDISC_SDTMMODEL_EVENTS_USUBJID_CR> 			<http://www.assero.co.uk/BusinessOperational#ordinal> 			"3" . 
<http://www.assero.co.uk/MDRModels/CDISC/V1#M-CDISC_SDTMMODEL_EVENTS_USUBJID_CR> 			<http://www.assero.co.uk/BusinessOperational#enabled> 			"true" . 
<http://www.assero.co.uk/MDRModels/CDISC/V1#M-CDISC_SDTMMODEL_EVENTS_USUBJID_CR> 			<http://www.assero.co.uk/BusinessOperational#optional> 			"false" . 
<http://www.assero.co.uk/MDRModels/CDISC/V1#M-CDISC_SDTMMODEL_USUBJID> 			<http://www.w3.org/1999/02/22-rdf-syntax-ns#type> 			<http://www.assero.co.uk/BusinessDomain#ModelVariable> . 
<http://www.assero.co.uk/MDRModels/CDISC/V1#M-CDISC_SDTMMODEL_USUBJID> 			<http://www.w3.org/2000/01/rdf-schema#label> 			"Unique Subject Identifier" . 
<http://www.assero.co.uk/MDRModels/CDISC/V1#M-CDISC_SDTMMODEL_USUBJID> 			<http://www.assero.co.uk/BusinessDomain#classifiedAs> 			<http://www.assero.co.uk/MDRModels/CDISC/V1#M-CDISC_SDTMMODEL_C_IDENTIFIER> . 
<http://www.assero.co.uk/MDRModels/CDISC/V1#M-CDISC_SDTMMODEL_USUBJID> 			<http://www.assero.co.uk/BusinessDomain#typedAs> 			<http://www.assero.co.uk/MDRModels/CDISC/V1#M-CDISC_SDTMMODEL_DT_CHAR> . 
<http://www.assero.co.uk/MDRModels/CDISC/V1#M-CDISC_SDTMMODEL_USUBJID> 			<http://www.assero.co.uk/BusinessDomain#rule> 			"" . 
<http://www.assero.co.uk/MDRModels/CDISC/V1#M-CDISC_SDTMMODEL_USUBJID> 			<http://www.assero.co.uk/BusinessDomain#ordinal> 			"3" . 
<http://www.assero.co.uk/MDRModels/CDISC/V1#M-CDISC_SDTMMODEL_USUBJID> 			<http://www.assero.co.uk/BusinessDomain#name> 			"USUBJID" . 
<http://www.assero.co.uk/MDRModels/CDISC/V1#M-CDISC_SDTMMODEL_USUBJID> 			<http://www.assero.co.uk/BusinessDomain#prefixed> 			"false" . 
<http://www.assero.co.uk/MDRModels/CDISC/V1#M-CDISC_SDTMMODEL_USUBJID> 			<http://www.assero.co.uk/BusinessDomain#description> 			"Identifier used to uniquely identify a subject across all studies for all applications or submissions involving the product." . 
<http://www.assero.co.uk/MDRModels/CDISC/V1#IG-CDISC_SDTMIGAE_AESEQ> 			<http://www.w3.org/1999/02/22-rdf-syntax-ns#type> 			<http://www.assero.co.uk/BusinessDomain#IgVariable> . 
<http://www.assero.co.uk/MDRModels/CDISC/V1#IG-CDISC_SDTMIGAE_AESEQ> 			<http://www.w3.org/2000/01/rdf-schema#label> 			"Sequence Number" . 
<http://www.assero.co.uk/MDRModels/CDISC/V1#IG-CDISC_SDTMIGAE_AESEQ> 			<http://www.assero.co.uk/BusinessDomain#basedOnVariable> 			<http://www.assero.co.uk/MDRModels/CDISC/V1#IG-CDISC_SDTMIGAE_AESEQ_VR> . 
<http://www.assero.co.uk/MDRModels/CDISC/V1#IG-CDISC_SDTMIGAE_AESEQ> 			<http://www.assero.co.uk/BusinessDomain#compliance> 			<http://www.assero.co.uk/MDRModels/CDISC/V1#IG-CDISC_SDTMIG_C_REQUIRED> . 
<http://www.assero.co.uk/MDRModels/CDISC/V1#IG-CDISC_SDTMIGAE_AESEQ> 			<http://www.assero.co.uk/BusinessDomain#ordinal> 			"4" . 
<http://www.assero.co.uk/MDRModels/CDISC/V1#IG-CDISC_SDTMIGAE_AESEQ> 			<http://www.assero.co.uk/BusinessDomain#name> 			"AESEQ" . 
<http://www.assero.co.uk/MDRModels/CDISC/V1#IG-CDISC_SDTMIGAE_AESEQ> 			<http://www.assero.co.uk/BusinessDomain#notes> 			"Sequence Number given to ensure uniqueness of subject records within a domain. May be any valid number." . 
<http://www.assero.co.uk/MDRModels/CDISC/V1#IG-CDISC_SDTMIGAE_AESEQ> 			<http://www.assero.co.uk/BusinessDomain#controlled_term_or_format> 			"" . 
<http://www.assero.co.uk/MDRModels/CDISC/V1#IG-CDISC_SDTMIGAE_AESEQ_VR> 			<http://www.w3.org/1999/02/22-rdf-syntax-ns#type> 			<http://www.assero.co.uk/BusinessOperational#CReference> . 
<http://www.assero.co.uk/MDRModels/CDISC/V1#IG-CDISC_SDTMIGAE_AESEQ_VR> 			<http://www.assero.co.uk/BusinessOperational#hasColumn> 			<http://www.assero.co.uk/MDRModels/CDISC/V1#M-CDISC_SDTMMODEL_EVENTS_xxSEQ> . 
<http://www.assero.co.uk/MDRModels/CDISC/V1#IG-CDISC_SDTMIGAE_AESEQ_VR> 			<http://www.assero.co.uk/BusinessOperational#ordinal> 			"1" . 
<http://www.assero.co.uk/MDRModels/CDISC/V1#IG-CDISC_SDTMIGAE_AESEQ_VR> 			<http://www.assero.co.uk/BusinessOperational#enabled> 			"true" . 
<http://www.assero.co.uk/MDRModels/CDISC/V1#IG-CDISC_SDTMIGAE_AESEQ_VR> 			<http://www.assero.co.uk/BusinessOperational#optional> 			"false" . 
<http://www.assero.co.uk/MDRModels/CDISC/V1#M-CDISC_SDTMMODEL_EVENTS_xxSEQ> 			<http://www.w3.org/1999/02/22-rdf-syntax-ns#type> 			<http://www.assero.co.uk/BusinessDomain#ClassVariable> . 
<http://www.assero.co.uk/MDRModels/CDISC/V1#M-CDISC_SDTMMODEL_EVENTS_xxSEQ> 			<http://www.w3.org/2000/01/rdf-schema#label> 			"Sequence Number" . 
<http://www.assero.co.uk/MDRModels/CDISC/V1#M-CDISC_SDTMMODEL_EVENTS_xxSEQ> 			<http://www.assero.co.uk/BusinessDomain#basedOnVariable> 			<http://www.assero.co.uk/MDRModels/CDISC/V1#M-CDISC_SDTMMODEL_EVENTS_xxSEQ_CR> . 
<http://www.assero.co.uk/MDRModels/CDISC/V1#M-CDISC_SDTMMODEL_EVENTS_xxSEQ> 			<http://www.assero.co.uk/BusinessDomain#ordinal> 			"4" . 
<http://www.assero.co.uk/MDRModels/CDISC/V1#M-CDISC_SDTMMODEL_EVENTS_xxSEQ_CR> 			<http://www.w3.org/1999/02/22-rdf-syntax-ns#type> 			<http://www.assero.co.uk/BusinessOperational#CReference> . 
<http://www.assero.co.uk/MDRModels/CDISC/V1#M-CDISC_SDTMMODEL_EVENTS_xxSEQ_CR> 			<http://www.assero.co.uk/BusinessOperational#hasColumn> 			<http://www.assero.co.uk/MDRModels/CDISC/V1#M-CDISC_SDTMMODEL_xxSEQ> . 
<http://www.assero.co.uk/MDRModels/CDISC/V1#M-CDISC_SDTMMODEL_EVENTS_xxSEQ_CR> 			<http://www.assero.co.uk/BusinessOperational#ordinal> 			"4" . 
<http://www.assero.co.uk/MDRModels/CDISC/V1#M-CDISC_SDTMMODEL_EVENTS_xxSEQ_CR> 			<http://www.assero.co.uk/BusinessOperational#enabled> 			"true" . 
<http://www.assero.co.uk/MDRModels/CDISC/V1#M-CDISC_SDTMMODEL_EVENTS_xxSEQ_CR> 			<http://www.assero.co.uk/BusinessOperational#optional> 			"false" . 
<http://www.assero.co.uk/MDRModels/CDISC/V1#M-CDISC_SDTMMODEL_xxSEQ> 			<http://www.w3.org/1999/02/22-rdf-syntax-ns#type> 			<http://www.assero.co.uk/BusinessDomain#ModelVariable> . 
<http://www.assero.co.uk/MDRModels/CDISC/V1#M-CDISC_SDTMMODEL_xxSEQ> 			<http://www.w3.org/2000/01/rdf-schema#label> 			"Sequence Number" . 
<http://www.assero.co.uk/MDRModels/CDISC/V1#M-CDISC_SDTMMODEL_xxSEQ> 			<http://www.assero.co.uk/BusinessDomain#classifiedAs> 			<http://www.assero.co.uk/MDRModels/CDISC/V1#M-CDISC_SDTMMODEL_C_IDENTIFIER> . 
<http://www.assero.co.uk/MDRModels/CDISC/V1#M-CDISC_SDTMMODEL_xxSEQ> 			<http://www.assero.co.uk/BusinessDomain#typedAs> 			<http://www.assero.co.uk/MDRModels/CDISC/V1#M-CDISC_SDTMMODEL_DT_NUM> . 
<http://www.assero.co.uk/MDRModels/CDISC/V1#M-CDISC_SDTMMODEL_xxSEQ> 			<http://www.assero.co.uk/BusinessDomain#rule> 			"" . 
<http://www.assero.co.uk/MDRModels/CDISC/V1#M-CDISC_SDTMMODEL_xxSEQ> 			<http://www.assero.co.uk/BusinessDomain#ordinal> 			"4" . 
<http://www.assero.co.uk/MDRModels/CDISC/V1#M-CDISC_SDTMMODEL_xxSEQ> 			<http://www.assero.co.uk/BusinessDomain#name> 			"--SEQ" . 
<http://www.assero.co.uk/MDRModels/CDISC/V1#M-CDISC_SDTMMODEL_xxSEQ> 			<http://www.assero.co.uk/BusinessDomain#prefixed> 			"true" . 
<http://www.assero.co.uk/MDRModels/CDISC/V1#M-CDISC_SDTMMODEL_xxSEQ> 			<http://www.assero.co.uk/BusinessDomain#description> 			"Sequence number to ensure uniqueness of records within a dataset for a subject (or within a parameter, in the case of the Trial Summary domain). May be any valid number (including decimals) and does not have to start at 1. Should be assigned to be in a consistent chronological order." . 
<http://www.assero.co.uk/MDRModels/CDISC/V1#M-CDISC_SDTMMODEL_DT_NUM> 			<http://www.w3.org/1999/02/22-rdf-syntax-ns#type> 			<http://www.assero.co.uk/BusinessDomain#VariableType> . 
<http://www.assero.co.uk/MDRModels/CDISC/V1#M-CDISC_SDTMMODEL_DT_NUM> 			<http://www.w3.org/2000/01/rdf-schema#label> 			"Num" . 
<http://www.assero.co.uk/MDRModels/CDISC/V1#IG-CDISC_SDTMIGAE_AEGRPID> 			<http://www.w3.org/1999/02/22-rdf-syntax-ns#type> 			<http://www.assero.co.uk/BusinessDomain#IgVariable> . 
<http://www.assero.co.uk/MDRModels/CDISC/V1#IG-CDISC_SDTMIGAE_AEGRPID> 			<http://www.w3.org/2000/01/rdf-schema#label> 			"Group ID" . 
<http://www.assero.co.uk/MDRModels/CDISC/V1#IG-CDISC_SDTMIGAE_AEGRPID> 			<http://www.assero.co.uk/BusinessDomain#basedOnVariable> 			<http://www.assero.co.uk/MDRModels/CDISC/V1#IG-CDISC_SDTMIGAE_AEGRPID_VR> . 
<http://www.assero.co.uk/MDRModels/CDISC/V1#IG-CDISC_SDTMIGAE_AEGRPID> 			<http://www.assero.co.uk/BusinessDomain#compliance> 			<http://www.assero.co.uk/MDRModels/CDISC/V1#IG-CDISC_SDTMIG_C_PERMISSIBLE> . 
<http://www.assero.co.uk/MDRModels/CDISC/V1#IG-CDISC_SDTMIGAE_AEGRPID> 			<http://www.assero.co.uk/BusinessDomain#ordinal> 			"5" . 
<http://www.assero.co.uk/MDRModels/CDISC/V1#IG-CDISC_SDTMIGAE_AEGRPID> 			<http://www.assero.co.uk/BusinessDomain#name> 			"AEGRPID" . 
<http://www.assero.co.uk/MDRModels/CDISC/V1#IG-CDISC_SDTMIGAE_AEGRPID> 			<http://www.assero.co.uk/BusinessDomain#notes> 			"Used to tie together a block of related records in a single domain for a subject." . 
<http://www.assero.co.uk/MDRModels/CDISC/V1#IG-CDISC_SDTMIGAE_AEGRPID> 			<http://www.assero.co.uk/BusinessDomain#controlled_term_or_format> 			"" . 
<http://www.assero.co.uk/MDRModels/CDISC/V1#IG-CDISC_SDTMIGAE_AEGRPID_VR> 			<http://www.w3.org/1999/02/22-rdf-syntax-ns#type> 			<http://www.assero.co.uk/BusinessOperational#CReference> . 
<http://www.assero.co.uk/MDRModels/CDISC/V1#IG-CDISC_SDTMIGAE_AEGRPID_VR> 			<http://www.assero.co.uk/BusinessOperational#hasColumn> 			<http://www.assero.co.uk/MDRModels/CDISC/V1#M-CDISC_SDTMMODEL_EVENTS_xxGRPID> . 
<http://www.assero.co.uk/MDRModels/CDISC/V1#IG-CDISC_SDTMIGAE_AEGRPID_VR> 			<http://www.assero.co.uk/BusinessOperational#ordinal> 			"1" . 
<http://www.assero.co.uk/MDRModels/CDISC/V1#IG-CDISC_SDTMIGAE_AEGRPID_VR> 			<http://www.assero.co.uk/BusinessOperational#enabled> 			"true" . 
<http://www.assero.co.uk/MDRModels/CDISC/V1#IG-CDISC_SDTMIGAE_AEGRPID_VR> 			<http://www.assero.co.uk/BusinessOperational#optional> 			"false" . 
<http://www.assero.co.uk/MDRModels/CDISC/V1#M-CDISC_SDTMMODEL_EVENTS_xxGRPID> 			<http://www.w3.org/1999/02/22-rdf-syntax-ns#type> 			<http://www.assero.co.uk/BusinessDomain#ClassVariable> . 
<http://www.assero.co.uk/MDRModels/CDISC/V1#M-CDISC_SDTMMODEL_EVENTS_xxGRPID> 			<http://www.w3.org/2000/01/rdf-schema#label> 			"Group ID" . 
<http://www.assero.co.uk/MDRModels/CDISC/V1#M-CDISC_SDTMMODEL_EVENTS_xxGRPID> 			<http://www.assero.co.uk/BusinessDomain#basedOnVariable> 			<http://www.assero.co.uk/MDRModels/CDISC/V1#M-CDISC_SDTMMODEL_EVENTS_xxGRPID_CR> . 
<http://www.assero.co.uk/MDRModels/CDISC/V1#M-CDISC_SDTMMODEL_EVENTS_xxGRPID> 			<http://www.assero.co.uk/BusinessDomain#ordinal> 			"5" . 
<http://www.assero.co.uk/MDRModels/CDISC/V1#M-CDISC_SDTMMODEL_EVENTS_xxGRPID_CR> 			<http://www.w3.org/1999/02/22-rdf-syntax-ns#type> 			<http://www.assero.co.uk/BusinessOperational#CReference> . 
<http://www.assero.co.uk/MDRModels/CDISC/V1#M-CDISC_SDTMMODEL_EVENTS_xxGRPID_CR> 			<http://www.assero.co.uk/BusinessOperational#hasColumn> 			<http://www.assero.co.uk/MDRModels/CDISC/V1#M-CDISC_SDTMMODEL_xxGRPID> . 
<http://www.assero.co.uk/MDRModels/CDISC/V1#M-CDISC_SDTMMODEL_EVENTS_xxGRPID_CR> 			<http://www.assero.co.uk/BusinessOperational#ordinal> 			"5" . 
<http://www.assero.co.uk/MDRModels/CDISC/V1#M-CDISC_SDTMMODEL_EVENTS_xxGRPID_CR> 			<http://www.assero.co.uk/BusinessOperational#enabled> 			"true" . 
<http://www.assero.co.uk/MDRModels/CDISC/V1#M-CDISC_SDTMMODEL_EVENTS_xxGRPID_CR> 			<http://www.assero.co.uk/BusinessOperational#optional> 			"false" . 
<http://www.assero.co.uk/MDRModels/CDISC/V1#M-CDISC_SDTMMODEL_xxGRPID> 			<http://www.w3.org/1999/02/22-rdf-syntax-ns#type> 			<http://www.assero.co.uk/BusinessDomain#ModelVariable> . 
<http://www.assero.co.uk/MDRModels/CDISC/V1#M-CDISC_SDTMMODEL_xxGRPID> 			<http://www.w3.org/2000/01/rdf-schema#label> 			"Group ID" . 
<http://www.assero.co.uk/MDRModels/CDISC/V1#M-CDISC_SDTMMODEL_xxGRPID> 			<http://www.assero.co.uk/BusinessDomain#classifiedAs> 			<http://www.assero.co.uk/MDRModels/CDISC/V1#M-CDISC_SDTMMODEL_C_IDENTIFIER> . 
<http://www.assero.co.uk/MDRModels/CDISC/V1#M-CDISC_SDTMMODEL_xxGRPID> 			<http://www.assero.co.uk/BusinessDomain#typedAs> 			<http://www.assero.co.uk/MDRModels/CDISC/V1#M-CDISC_SDTMMODEL_DT_CHAR> . 
<http://www.assero.co.uk/MDRModels/CDISC/V1#M-CDISC_SDTMMODEL_xxGRPID> 			<http://www.assero.co.uk/BusinessDomain#rule> 			"" . 
<http://www.assero.co.uk/MDRModels/CDISC/V1#M-CDISC_SDTMMODEL_xxGRPID> 			<http://www.assero.co.uk/BusinessDomain#ordinal> 			"5" . 
<http://www.assero.co.uk/MDRModels/CDISC/V1#M-CDISC_SDTMMODEL_xxGRPID> 			<http://www.assero.co.uk/BusinessDomain#name> 			"--GRPID" . 
<http://www.assero.co.uk/MDRModels/CDISC/V1#M-CDISC_SDTMMODEL_xxGRPID> 			<http://www.assero.co.uk/BusinessDomain#prefixed> 			"true" . 
<http://www.assero.co.uk/MDRModels/CDISC/V1#M-CDISC_SDTMMODEL_xxGRPID> 			<http://www.assero.co.uk/BusinessDomain#description> 			"Optional group identifier, used to link together a block of related records within a subject in a domain. Also used to link together a block of related records in the Trial Summary dataset (Section 3.4)." . 
<http://www.assero.co.uk/MDRModels/CDISC/V1#IG-CDISC_SDTMIG_C_PERMISSIBLE> 			<http://www.w3.org/1999/02/22-rdf-syntax-ns#type> 			<http://www.assero.co.uk/BusinessDomain#VariableCompliance> . 
<http://www.assero.co.uk/MDRModels/CDISC/V1#IG-CDISC_SDTMIG_C_PERMISSIBLE> 			<http://www.w3.org/2000/01/rdf-schema#label> 			"Permissible" . 
<http://www.assero.co.uk/MDRModels/CDISC/V1#IG-CDISC_SDTMIGAE_AEREFID> 			<http://www.w3.org/1999/02/22-rdf-syntax-ns#type> 			<http://www.assero.co.uk/BusinessDomain#IgVariable> . 
<http://www.assero.co.uk/MDRModels/CDISC/V1#IG-CDISC_SDTMIGAE_AEREFID> 			<http://www.w3.org/2000/01/rdf-schema#label> 			"Reference ID" . 
<http://www.assero.co.uk/MDRModels/CDISC/V1#IG-CDISC_SDTMIGAE_AEREFID> 			<http://www.assero.co.uk/BusinessDomain#basedOnVariable> 			<http://www.assero.co.uk/MDRModels/CDISC/V1#IG-CDISC_SDTMIGAE_AEREFID_VR> . 
<http://www.assero.co.uk/MDRModels/CDISC/V1#IG-CDISC_SDTMIGAE_AEREFID> 			<http://www.assero.co.uk/BusinessDomain#compliance> 			<http://www.assero.co.uk/MDRModels/CDISC/V1#IG-CDISC_SDTMIG_C_PERMISSIBLE> . 
<http://www.assero.co.uk/MDRModels/CDISC/V1#IG-CDISC_SDTMIGAE_AEREFID> 			<http://www.assero.co.uk/BusinessDomain#ordinal> 			"6" . 
<http://www.assero.co.uk/MDRModels/CDISC/V1#IG-CDISC_SDTMIGAE_AEREFID> 			<http://www.assero.co.uk/BusinessDomain#name> 			"AEREFID" . 
<http://www.assero.co.uk/MDRModels/CDISC/V1#IG-CDISC_SDTMIGAE_AEREFID> 			<http://www.assero.co.uk/BusinessDomain#notes> 			"Internal or external identifier such as a serial number on an SAE reporting form" . 
<http://www.assero.co.uk/MDRModels/CDISC/V1#IG-CDISC_SDTMIGAE_AEREFID> 			<http://www.assero.co.uk/BusinessDomain#controlled_term_or_format> 			"" . 
<http://www.assero.co.uk/MDRModels/CDISC/V1#IG-CDISC_SDTMIGAE_AEREFID_VR> 			<http://www.w3.org/1999/02/22-rdf-syntax-ns#type> 			<http://www.assero.co.uk/BusinessOperational#CReference> . 
<http://www.assero.co.uk/MDRModels/CDISC/V1#IG-CDISC_SDTMIGAE_AEREFID_VR> 			<http://www.assero.co.uk/BusinessOperational#hasColumn> 			<http://www.assero.co.uk/MDRModels/CDISC/V1#M-CDISC_SDTMMODEL_EVENTS_xxREFID> . 
<http://www.assero.co.uk/MDRModels/CDISC/V1#IG-CDISC_SDTMIGAE_AEREFID_VR> 			<http://www.assero.co.uk/BusinessOperational#ordinal> 			"1" . 
<http://www.assero.co.uk/MDRModels/CDISC/V1#IG-CDISC_SDTMIGAE_AEREFID_VR> 			<http://www.assero.co.uk/BusinessOperational#enabled> 			"true" . 
<http://www.assero.co.uk/MDRModels/CDISC/V1#IG-CDISC_SDTMIGAE_AEREFID_VR> 			<http://www.assero.co.uk/BusinessOperational#optional> 			"false" . 
<http://www.assero.co.uk/MDRModels/CDISC/V1#M-CDISC_SDTMMODEL_EVENTS_xxREFID> 			<http://www.w3.org/1999/02/22-rdf-syntax-ns#type> 			<http://www.assero.co.uk/BusinessDomain#ClassVariable> . 
<http://www.assero.co.uk/MDRModels/CDISC/V1#M-CDISC_SDTMMODEL_EVENTS_xxREFID> 			<http://www.w3.org/2000/01/rdf-schema#label> 			"Reference ID" . 
<http://www.assero.co.uk/MDRModels/CDISC/V1#M-CDISC_SDTMMODEL_EVENTS_xxREFID> 			<http://www.assero.co.uk/BusinessDomain#basedOnVariable> 			<http://www.assero.co.uk/MDRModels/CDISC/V1#M-CDISC_SDTMMODEL_EVENTS_xxREFID_CR> . 
<http://www.assero.co.uk/MDRModels/CDISC/V1#M-CDISC_SDTMMODEL_EVENTS_xxREFID> 			<http://www.assero.co.uk/BusinessDomain#ordinal> 			"6" . 
<http://www.assero.co.uk/MDRModels/CDISC/V1#M-CDISC_SDTMMODEL_EVENTS_xxREFID_CR> 			<http://www.w3.org/1999/02/22-rdf-syntax-ns#type> 			<http://www.assero.co.uk/BusinessOperational#CReference> . 
<http://www.assero.co.uk/MDRModels/CDISC/V1#M-CDISC_SDTMMODEL_EVENTS_xxREFID_CR> 			<http://www.assero.co.uk/BusinessOperational#hasColumn> 			<http://www.assero.co.uk/MDRModels/CDISC/V1#M-CDISC_SDTMMODEL_xxREFID> . 
<http://www.assero.co.uk/MDRModels/CDISC/V1#M-CDISC_SDTMMODEL_EVENTS_xxREFID_CR> 			<http://www.assero.co.uk/BusinessOperational#ordinal> 			"6" . 
<http://www.assero.co.uk/MDRModels/CDISC/V1#M-CDISC_SDTMMODEL_EVENTS_xxREFID_CR> 			<http://www.assero.co.uk/BusinessOperational#enabled> 			"true" . 
<http://www.assero.co.uk/MDRModels/CDISC/V1#M-CDISC_SDTMMODEL_EVENTS_xxREFID_CR> 			<http://www.assero.co.uk/BusinessOperational#optional> 			"false" . 
<http://www.assero.co.uk/MDRModels/CDISC/V1#M-CDISC_SDTMMODEL_xxREFID> 			<http://www.w3.org/1999/02/22-rdf-syntax-ns#type> 			<http://www.assero.co.uk/BusinessDomain#ModelVariable> . 
<http://www.assero.co.uk/MDRModels/CDISC/V1#M-CDISC_SDTMMODEL_xxREFID> 			<http://www.w3.org/2000/01/rdf-schema#label> 			"Reference ID" . 
<http://www.assero.co.uk/MDRModels/CDISC/V1#M-CDISC_SDTMMODEL_xxREFID> 			<http://www.assero.co.uk/BusinessDomain#classifiedAs> 			<http://www.assero.co.uk/MDRModels/CDISC/V1#M-CDISC_SDTMMODEL_C_IDENTIFIER> . 
<http://www.assero.co.uk/MDRModels/CDISC/V1#M-CDISC_SDTMMODEL_xxREFID> 			<http://www.assero.co.uk/BusinessDomain#typedAs> 			<http://www.assero.co.uk/MDRModels/CDISC/V1#M-CDISC_SDTMMODEL_DT_CHAR> . 
<http://www.assero.co.uk/MDRModels/CDISC/V1#M-CDISC_SDTMMODEL_xxREFID> 			<http://www.assero.co.uk/BusinessDomain#rule> 			"" . 
<http://www.assero.co.uk/MDRModels/CDISC/V1#M-CDISC_SDTMMODEL_xxREFID> 			<http://www.assero.co.uk/BusinessDomain#ordinal> 			"6" . 
<http://www.assero.co.uk/MDRModels/CDISC/V1#M-CDISC_SDTMMODEL_xxREFID> 			<http://www.assero.co.uk/BusinessDomain#name> 			"--REFID" . 
<http://www.assero.co.uk/MDRModels/CDISC/V1#M-CDISC_SDTMMODEL_xxREFID> 			<http://www.assero.co.uk/BusinessDomain#prefixed> 			"true" . 
<http://www.assero.co.uk/MDRModels/CDISC/V1#M-CDISC_SDTMMODEL_xxREFID> 			<http://www.assero.co.uk/BusinessDomain#description> 			"Optional internal or external identifier such as lab specimen ID, or UUID for an ECG waveform or a medical image." . 
<http://www.assero.co.uk/MDRModels/CDISC/V1#IG-CDISC_SDTMIGAE_AESPID> 			<http://www.w3.org/1999/02/22-rdf-syntax-ns#type> 			<http://www.assero.co.uk/BusinessDomain#IgVariable> . 
<http://www.assero.co.uk/MDRModels/CDISC/V1#IG-CDISC_SDTMIGAE_AESPID> 			<http://www.w3.org/2000/01/rdf-schema#label> 			"Sponsor-Defined Identifier" . 
<http://www.assero.co.uk/MDRModels/CDISC/V1#IG-CDISC_SDTMIGAE_AESPID> 			<http://www.assero.co.uk/BusinessDomain#basedOnVariable> 			<http://www.assero.co.uk/MDRModels/CDISC/V1#IG-CDISC_SDTMIGAE_AESPID_VR> . 
<http://www.assero.co.uk/MDRModels/CDISC/V1#IG-CDISC_SDTMIGAE_AESPID> 			<http://www.assero.co.uk/BusinessDomain#compliance> 			<http://www.assero.co.uk/MDRModels/CDISC/V1#IG-CDISC_SDTMIG_C_PERMISSIBLE> . 
<http://www.assero.co.uk/MDRModels/CDISC/V1#IG-CDISC_SDTMIGAE_AESPID> 			<http://www.assero.co.uk/BusinessDomain#ordinal> 			"7" . 
<http://www.assero.co.uk/MDRModels/CDISC/V1#IG-CDISC_SDTMIGAE_AESPID> 			<http://www.assero.co.uk/BusinessDomain#name> 			"AESPID" . 
<http://www.assero.co.uk/MDRModels/CDISC/V1#IG-CDISC_SDTMIGAE_AESPID> 			<http://www.assero.co.uk/BusinessDomain#notes> 			"Sponsor-defined identifier. It may be pre-printed on the CRF as an explicit line identifier or defined in the sponsor's operational database. Example: Line number on an Adverse Events page." . 
<http://www.assero.co.uk/MDRModels/CDISC/V1#IG-CDISC_SDTMIGAE_AESPID> 			<http://www.assero.co.uk/BusinessDomain#controlled_term_or_format> 			"" . 
<http://www.assero.co.uk/MDRModels/CDISC/V1#IG-CDISC_SDTMIGAE_AESPID_VR> 			<http://www.w3.org/1999/02/22-rdf-syntax-ns#type> 			<http://www.assero.co.uk/BusinessOperational#CReference> . 
<http://www.assero.co.uk/MDRModels/CDISC/V1#IG-CDISC_SDTMIGAE_AESPID_VR> 			<http://www.assero.co.uk/BusinessOperational#hasColumn> 			<http://www.assero.co.uk/MDRModels/CDISC/V1#M-CDISC_SDTMMODEL_EVENTS_xxSPID> . 
<http://www.assero.co.uk/MDRModels/CDISC/V1#IG-CDISC_SDTMIGAE_AESPID_VR> 			<http://www.assero.co.uk/BusinessOperational#ordinal> 			"1" . 
<http://www.assero.co.uk/MDRModels/CDISC/V1#IG-CDISC_SDTMIGAE_AESPID_VR> 			<http://www.assero.co.uk/BusinessOperational#enabled> 			"true" . 
<http://www.assero.co.uk/MDRModels/CDISC/V1#IG-CDISC_SDTMIGAE_AESPID_VR> 			<http://www.assero.co.uk/BusinessOperational#optional> 			"false" . 
<http://www.assero.co.uk/MDRModels/CDISC/V1#M-CDISC_SDTMMODEL_EVENTS_xxSPID> 			<http://www.w3.org/1999/02/22-rdf-syntax-ns#type> 			<http://www.assero.co.uk/BusinessDomain#ClassVariable> . 
<http://www.assero.co.uk/MDRModels/CDISC/V1#M-CDISC_SDTMMODEL_EVENTS_xxSPID> 			<http://www.w3.org/2000/01/rdf-schema#label> 			"Sponsor ID" . 
<http://www.assero.co.uk/MDRModels/CDISC/V1#M-CDISC_SDTMMODEL_EVENTS_xxSPID> 			<http://www.assero.co.uk/BusinessDomain#basedOnVariable> 			<http://www.assero.co.uk/MDRModels/CDISC/V1#M-CDISC_SDTMMODEL_EVENTS_xxSPID_CR> . 
<http://www.assero.co.uk/MDRModels/CDISC/V1#M-CDISC_SDTMMODEL_EVENTS_xxSPID> 			<http://www.assero.co.uk/BusinessDomain#ordinal> 			"7" . 
<http://www.assero.co.uk/MDRModels/CDISC/V1#M-CDISC_SDTMMODEL_EVENTS_xxSPID_CR> 			<http://www.w3.org/1999/02/22-rdf-syntax-ns#type> 			<http://www.assero.co.uk/BusinessOperational#CReference> . 
<http://www.assero.co.uk/MDRModels/CDISC/V1#M-CDISC_SDTMMODEL_EVENTS_xxSPID_CR> 			<http://www.assero.co.uk/BusinessOperational#hasColumn> 			<http://www.assero.co.uk/MDRModels/CDISC/V1#M-CDISC_SDTMMODEL_xxSPID> . 
<http://www.assero.co.uk/MDRModels/CDISC/V1#M-CDISC_SDTMMODEL_EVENTS_xxSPID_CR> 			<http://www.assero.co.uk/BusinessOperational#ordinal> 			"7" . 
<http://www.assero.co.uk/MDRModels/CDISC/V1#M-CDISC_SDTMMODEL_EVENTS_xxSPID_CR> 			<http://www.assero.co.uk/BusinessOperational#enabled> 			"true" . 
<http://www.assero.co.uk/MDRModels/CDISC/V1#M-CDISC_SDTMMODEL_EVENTS_xxSPID_CR> 			<http://www.assero.co.uk/BusinessOperational#optional> 			"false" . 
<http://www.assero.co.uk/MDRModels/CDISC/V1#M-CDISC_SDTMMODEL_xxSPID> 			<http://www.w3.org/1999/02/22-rdf-syntax-ns#type> 			<http://www.assero.co.uk/BusinessDomain#ModelVariable> . 
<http://www.assero.co.uk/MDRModels/CDISC/V1#M-CDISC_SDTMMODEL_xxSPID> 			<http://www.w3.org/2000/01/rdf-schema#label> 			"Sponsor ID" . 
<http://www.assero.co.uk/MDRModels/CDISC/V1#M-CDISC_SDTMMODEL_xxSPID> 			<http://www.assero.co.uk/BusinessDomain#classifiedAs> 			<http://www.assero.co.uk/MDRModels/CDISC/V1#M-CDISC_SDTMMODEL_C_IDENTIFIER> . 
<http://www.assero.co.uk/MDRModels/CDISC/V1#M-CDISC_SDTMMODEL_xxSPID> 			<http://www.assero.co.uk/BusinessDomain#typedAs> 			<http://www.assero.co.uk/MDRModels/CDISC/V1#M-CDISC_SDTMMODEL_DT_CHAR> . 
<http://www.assero.co.uk/MDRModels/CDISC/V1#M-CDISC_SDTMMODEL_xxSPID> 			<http://www.assero.co.uk/BusinessDomain#rule> 			"" . 
<http://www.assero.co.uk/MDRModels/CDISC/V1#M-CDISC_SDTMMODEL_xxSPID> 			<http://www.assero.co.uk/BusinessDomain#ordinal> 			"7" . 
<http://www.assero.co.uk/MDRModels/CDISC/V1#M-CDISC_SDTMMODEL_xxSPID> 			<http://www.assero.co.uk/BusinessDomain#name> 			"--SPID" . 
<http://www.assero.co.uk/MDRModels/CDISC/V1#M-CDISC_SDTMMODEL_xxSPID> 			<http://www.assero.co.uk/BusinessDomain#prefixed> 			"true" . 
<http://www.assero.co.uk/MDRModels/CDISC/V1#M-CDISC_SDTMMODEL_xxSPID> 			<http://www.assero.co.uk/BusinessDomain#description> 			"Sponsor-defined identifier. Example: pre-printed line identifier on a Concomitant Medications page." . 
<http://www.assero.co.uk/MDRModels/CDISC/V1#IG-CDISC_SDTMIGAE_AETERM> 			<http://www.w3.org/1999/02/22-rdf-syntax-ns#type> 			<http://www.assero.co.uk/BusinessDomain#IgVariable> . 
<http://www.assero.co.uk/MDRModels/CDISC/V1#IG-CDISC_SDTMIGAE_AETERM> 			<http://www.w3.org/2000/01/rdf-schema#label> 			"Reported Term for the Adverse Event" . 
<http://www.assero.co.uk/MDRModels/CDISC/V1#IG-CDISC_SDTMIGAE_AETERM> 			<http://www.assero.co.uk/BusinessDomain#basedOnVariable> 			<http://www.assero.co.uk/MDRModels/CDISC/V1#IG-CDISC_SDTMIGAE_AETERM_VR> . 
<http://www.assero.co.uk/MDRModels/CDISC/V1#IG-CDISC_SDTMIGAE_AETERM> 			<http://www.assero.co.uk/BusinessDomain#compliance> 			<http://www.assero.co.uk/MDRModels/CDISC/V1#IG-CDISC_SDTMIG_C_REQUIRED> . 
<http://www.assero.co.uk/MDRModels/CDISC/V1#IG-CDISC_SDTMIGAE_AETERM> 			<http://www.assero.co.uk/BusinessDomain#ordinal> 			"8" . 
<http://www.assero.co.uk/MDRModels/CDISC/V1#IG-CDISC_SDTMIGAE_AETERM> 			<http://www.assero.co.uk/BusinessDomain#name> 			"AETERM" . 
<http://www.assero.co.uk/MDRModels/CDISC/V1#IG-CDISC_SDTMIGAE_AETERM> 			<http://www.assero.co.uk/BusinessDomain#notes> 			"Verbatim name of the event." . 
<http://www.assero.co.uk/MDRModels/CDISC/V1#IG-CDISC_SDTMIGAE_AETERM> 			<http://www.assero.co.uk/BusinessDomain#controlled_term_or_format> 			"" . 
<http://www.assero.co.uk/MDRModels/CDISC/V1#IG-CDISC_SDTMIGAE_AETERM_VR> 			<http://www.w3.org/1999/02/22-rdf-syntax-ns#type> 			<http://www.assero.co.uk/BusinessOperational#CReference> . 
<http://www.assero.co.uk/MDRModels/CDISC/V1#IG-CDISC_SDTMIGAE_AETERM_VR> 			<http://www.assero.co.uk/BusinessOperational#hasColumn> 			<http://www.assero.co.uk/MDRModels/CDISC/V1#M-CDISC_SDTMMODEL_EVENTS_xxTERM> . 
<http://www.assero.co.uk/MDRModels/CDISC/V1#IG-CDISC_SDTMIGAE_AETERM_VR> 			<http://www.assero.co.uk/BusinessOperational#ordinal> 			"1" . 
<http://www.assero.co.uk/MDRModels/CDISC/V1#IG-CDISC_SDTMIGAE_AETERM_VR> 			<http://www.assero.co.uk/BusinessOperational#enabled> 			"true" . 
<http://www.assero.co.uk/MDRModels/CDISC/V1#IG-CDISC_SDTMIGAE_AETERM_VR> 			<http://www.assero.co.uk/BusinessOperational#optional> 			"false" . 
<http://www.assero.co.uk/MDRModels/CDISC/V1#M-CDISC_SDTMMODEL_EVENTS_xxTERM> 			<http://www.w3.org/1999/02/22-rdf-syntax-ns#type> 			<http://www.assero.co.uk/BusinessDomain#ClassVariable> . 
<http://www.assero.co.uk/MDRModels/CDISC/V1#M-CDISC_SDTMMODEL_EVENTS_xxTERM> 			<http://www.w3.org/2000/01/rdf-schema#label> 			"Reported Term" . 
<http://www.assero.co.uk/MDRModels/CDISC/V1#M-CDISC_SDTMMODEL_EVENTS_xxTERM> 			<http://www.assero.co.uk/BusinessDomain#basedOnVariable> 			<http://www.assero.co.uk/MDRModels/CDISC/V1#M-CDISC_SDTMMODEL_EVENTS_xxTERM_CR> . 
<http://www.assero.co.uk/MDRModels/CDISC/V1#M-CDISC_SDTMMODEL_EVENTS_xxTERM> 			<http://www.assero.co.uk/BusinessDomain#ordinal> 			"8" . 
<http://www.assero.co.uk/MDRModels/CDISC/V1#M-CDISC_SDTMMODEL_EVENTS_xxTERM_CR> 			<http://www.w3.org/1999/02/22-rdf-syntax-ns#type> 			<http://www.assero.co.uk/BusinessOperational#CReference> . 
<http://www.assero.co.uk/MDRModels/CDISC/V1#M-CDISC_SDTMMODEL_EVENTS_xxTERM_CR> 			<http://www.assero.co.uk/BusinessOperational#hasColumn> 			<http://www.assero.co.uk/MDRModels/CDISC/V1#M-CDISC_SDTMMODEL_xxTERM> . 
<http://www.assero.co.uk/MDRModels/CDISC/V1#M-CDISC_SDTMMODEL_EVENTS_xxTERM_CR> 			<http://www.assero.co.uk/BusinessOperational#ordinal> 			"8" . 
<http://www.assero.co.uk/MDRModels/CDISC/V1#M-CDISC_SDTMMODEL_EVENTS_xxTERM_CR> 			<http://www.assero.co.uk/BusinessOperational#enabled> 			"true" . 
<http://www.assero.co.uk/MDRModels/CDISC/V1#M-CDISC_SDTMMODEL_EVENTS_xxTERM_CR> 			<http://www.assero.co.uk/BusinessOperational#optional> 			"false" . 
<http://www.assero.co.uk/MDRModels/CDISC/V1#M-CDISC_SDTMMODEL_xxTERM> 			<http://www.w3.org/1999/02/22-rdf-syntax-ns#type> 			<http://www.assero.co.uk/BusinessDomain#ModelVariable> . 
<http://www.assero.co.uk/MDRModels/CDISC/V1#M-CDISC_SDTMMODEL_xxTERM> 			<http://www.w3.org/2000/01/rdf-schema#label> 			"Reported Term" . 
<http://www.assero.co.uk/MDRModels/CDISC/V1#M-CDISC_SDTMMODEL_xxTERM> 			<http://www.assero.co.uk/BusinessDomain#classifiedAs> 			<http://www.assero.co.uk/MDRModels/CDISC/V1#M-CDISC_SDTMMODEL_C_TOPIC> . 
<http://www.assero.co.uk/MDRModels/CDISC/V1#M-CDISC_SDTMMODEL_xxTERM> 			<http://www.assero.co.uk/BusinessDomain#typedAs> 			<http://www.assero.co.uk/MDRModels/CDISC/V1#M-CDISC_SDTMMODEL_DT_CHAR> . 
<http://www.assero.co.uk/MDRModels/CDISC/V1#M-CDISC_SDTMMODEL_xxTERM> 			<http://www.assero.co.uk/BusinessDomain#rule> 			"" . 
<http://www.assero.co.uk/MDRModels/CDISC/V1#M-CDISC_SDTMMODEL_xxTERM> 			<http://www.assero.co.uk/BusinessDomain#ordinal> 			"1" . 
<http://www.assero.co.uk/MDRModels/CDISC/V1#M-CDISC_SDTMMODEL_xxTERM> 			<http://www.assero.co.uk/BusinessDomain#name> 			"--TERM" . 
<http://www.assero.co.uk/MDRModels/CDISC/V1#M-CDISC_SDTMMODEL_xxTERM> 			<http://www.assero.co.uk/BusinessDomain#prefixed> 			"true" . 
<http://www.assero.co.uk/MDRModels/CDISC/V1#M-CDISC_SDTMMODEL_xxTERM> 			<http://www.assero.co.uk/BusinessDomain#description> 			"Topic variable for an event observation, which is the verbatim or pre-specified name of the event." . 
<http://www.assero.co.uk/MDRModels/CDISC/V1#M-CDISC_SDTMMODEL_C_TOPIC> 			<http://www.w3.org/1999/02/22-rdf-syntax-ns#type> 			<http://www.assero.co.uk/BusinessDomain#VariableClassification> . 
<http://www.assero.co.uk/MDRModels/CDISC/V1#M-CDISC_SDTMMODEL_C_TOPIC> 			<http://www.w3.org/2000/01/rdf-schema#label> 			"Topic" . 
<http://www.assero.co.uk/MDRModels/CDISC/V1#IG-CDISC_SDTMIGAE_AEMODIFY> 			<http://www.w3.org/1999/02/22-rdf-syntax-ns#type> 			<http://www.assero.co.uk/BusinessDomain#IgVariable> . 
<http://www.assero.co.uk/MDRModels/CDISC/V1#IG-CDISC_SDTMIGAE_AEMODIFY> 			<http://www.w3.org/2000/01/rdf-schema#label> 			"Modified Reported Term" . 
<http://www.assero.co.uk/MDRModels/CDISC/V1#IG-CDISC_SDTMIGAE_AEMODIFY> 			<http://www.assero.co.uk/BusinessDomain#basedOnVariable> 			<http://www.assero.co.uk/MDRModels/CDISC/V1#IG-CDISC_SDTMIGAE_AEMODIFY_VR> . 
<http://www.assero.co.uk/MDRModels/CDISC/V1#IG-CDISC_SDTMIGAE_AEMODIFY> 			<http://www.assero.co.uk/BusinessDomain#compliance> 			<http://www.assero.co.uk/MDRModels/CDISC/V1#IG-CDISC_SDTMIG_C_PERMISSIBLE> . 
<http://www.assero.co.uk/MDRModels/CDISC/V1#IG-CDISC_SDTMIGAE_AEMODIFY> 			<http://www.assero.co.uk/BusinessDomain#ordinal> 			"9" . 
<http://www.assero.co.uk/MDRModels/CDISC/V1#IG-CDISC_SDTMIGAE_AEMODIFY> 			<http://www.assero.co.uk/BusinessDomain#name> 			"AEMODIFY" . 
<http://www.assero.co.uk/MDRModels/CDISC/V1#IG-CDISC_SDTMIGAE_AEMODIFY> 			<http://www.assero.co.uk/BusinessDomain#notes> 			"If AETERM is modified to facilitate coding, then AEMODIFY will contain the modified text." . 
<http://www.assero.co.uk/MDRModels/CDISC/V1#IG-CDISC_SDTMIGAE_AEMODIFY> 			<http://www.assero.co.uk/BusinessDomain#controlled_term_or_format> 			"" . 
<http://www.assero.co.uk/MDRModels/CDISC/V1#IG-CDISC_SDTMIGAE_AEMODIFY_VR> 			<http://www.w3.org/1999/02/22-rdf-syntax-ns#type> 			<http://www.assero.co.uk/BusinessOperational#CReference> . 
<http://www.assero.co.uk/MDRModels/CDISC/V1#IG-CDISC_SDTMIGAE_AEMODIFY_VR> 			<http://www.assero.co.uk/BusinessOperational#hasColumn> 			<http://www.assero.co.uk/MDRModels/CDISC/V1#M-CDISC_SDTMMODEL_EVENTS_xxMODIFY> . 
<http://www.assero.co.uk/MDRModels/CDISC/V1#IG-CDISC_SDTMIGAE_AEMODIFY_VR> 			<http://www.assero.co.uk/BusinessOperational#ordinal> 			"1" . 
<http://www.assero.co.uk/MDRModels/CDISC/V1#IG-CDISC_SDTMIGAE_AEMODIFY_VR> 			<http://www.assero.co.uk/BusinessOperational#enabled> 			"true" . 
<http://www.assero.co.uk/MDRModels/CDISC/V1#IG-CDISC_SDTMIGAE_AEMODIFY_VR> 			<http://www.assero.co.uk/BusinessOperational#optional> 			"false" . 
<http://www.assero.co.uk/MDRModels/CDISC/V1#M-CDISC_SDTMMODEL_EVENTS_xxMODIFY> 			<http://www.w3.org/1999/02/22-rdf-syntax-ns#type> 			<http://www.assero.co.uk/BusinessDomain#ClassVariable> . 
<http://www.assero.co.uk/MDRModels/CDISC/V1#M-CDISC_SDTMMODEL_EVENTS_xxMODIFY> 			<http://www.w3.org/2000/01/rdf-schema#label> 			"Modified Reported Term" . 
<http://www.assero.co.uk/MDRModels/CDISC/V1#M-CDISC_SDTMMODEL_EVENTS_xxMODIFY> 			<http://www.assero.co.uk/BusinessDomain#basedOnVariable> 			<http://www.assero.co.uk/MDRModels/CDISC/V1#M-CDISC_SDTMMODEL_EVENTS_xxMODIFY_CR> . 
<http://www.assero.co.uk/MDRModels/CDISC/V1#M-CDISC_SDTMMODEL_EVENTS_xxMODIFY> 			<http://www.assero.co.uk/BusinessDomain#ordinal> 			"9" . 
<http://www.assero.co.uk/MDRModels/CDISC/V1#M-CDISC_SDTMMODEL_EVENTS_xxMODIFY_CR> 			<http://www.w3.org/1999/02/22-rdf-syntax-ns#type> 			<http://www.assero.co.uk/BusinessOperational#CReference> . 
<http://www.assero.co.uk/MDRModels/CDISC/V1#M-CDISC_SDTMMODEL_EVENTS_xxMODIFY_CR> 			<http://www.assero.co.uk/BusinessOperational#hasColumn> 			<http://www.assero.co.uk/MDRModels/CDISC/V1#M-CDISC_SDTMMODEL_xxMODIFY> . 
<http://www.assero.co.uk/MDRModels/CDISC/V1#M-CDISC_SDTMMODEL_EVENTS_xxMODIFY_CR> 			<http://www.assero.co.uk/BusinessOperational#ordinal> 			"9" . 
<http://www.assero.co.uk/MDRModels/CDISC/V1#M-CDISC_SDTMMODEL_EVENTS_xxMODIFY_CR> 			<http://www.assero.co.uk/BusinessOperational#enabled> 			"true" . 
<http://www.assero.co.uk/MDRModels/CDISC/V1#M-CDISC_SDTMMODEL_EVENTS_xxMODIFY_CR> 			<http://www.assero.co.uk/BusinessOperational#optional> 			"false" . 
<http://www.assero.co.uk/MDRModels/CDISC/V1#M-CDISC_SDTMMODEL_xxMODIFY> 			<http://www.w3.org/1999/02/22-rdf-syntax-ns#type> 			<http://www.assero.co.uk/BusinessDomain#ModelVariable> . 
<http://www.assero.co.uk/MDRModels/CDISC/V1#M-CDISC_SDTMMODEL_xxMODIFY> 			<http://www.w3.org/2000/01/rdf-schema#label> 			"Modified Reported Term" . 
<http://www.assero.co.uk/MDRModels/CDISC/V1#M-CDISC_SDTMMODEL_xxMODIFY> 			<http://www.w3.org/2000/01/rdf-schema#label> 			"Modified Term" . 
<http://www.assero.co.uk/MDRModels/CDISC/V1#M-CDISC_SDTMMODEL_xxMODIFY> 			<http://www.w3.org/2000/01/rdf-schema#label> 			"Modified Treatment Name" . 
<http://www.assero.co.uk/MDRModels/CDISC/V1#M-CDISC_SDTMMODEL_xxMODIFY> 			<http://www.assero.co.uk/BusinessDomain#classifiedAs> 			<http://www.assero.co.uk/MDRModels/CDISC/V1#M-CDISC_SDTMMODEL_SC_SYNONYMQUALIFIER> . 
<http://www.assero.co.uk/MDRModels/CDISC/V1#M-CDISC_SDTMMODEL_xxMODIFY> 			<http://www.assero.co.uk/BusinessDomain#typedAs> 			<http://www.assero.co.uk/MDRModels/CDISC/V1#M-CDISC_SDTMMODEL_DT_CHAR> . 
<http://www.assero.co.uk/MDRModels/CDISC/V1#M-CDISC_SDTMMODEL_xxMODIFY> 			<http://www.assero.co.uk/BusinessDomain#rule> 			"" . 
<http://www.assero.co.uk/MDRModels/CDISC/V1#M-CDISC_SDTMMODEL_xxMODIFY> 			<http://www.assero.co.uk/BusinessDomain#ordinal> 			"2" . 
<http://www.assero.co.uk/MDRModels/CDISC/V1#M-CDISC_SDTMMODEL_xxMODIFY> 			<http://www.assero.co.uk/BusinessDomain#ordinal> 			"3" . 
<http://www.assero.co.uk/MDRModels/CDISC/V1#M-CDISC_SDTMMODEL_xxMODIFY> 			<http://www.assero.co.uk/BusinessDomain#name> 			"--MODIFY" . 
<http://www.assero.co.uk/MDRModels/CDISC/V1#M-CDISC_SDTMMODEL_xxMODIFY> 			<http://www.assero.co.uk/BusinessDomain#prefixed> 			"true" . 
<http://www.assero.co.uk/MDRModels/CDISC/V1#M-CDISC_SDTMMODEL_xxMODIFY> 			<http://www.assero.co.uk/BusinessDomain#description> 			"If the value for --TRT is modified for coding purposes, then the modified text is placed here." . 
<http://www.assero.co.uk/MDRModels/CDISC/V1#M-CDISC_SDTMMODEL_SC_SYNONYMQUALIFIER> 			<http://www.w3.org/1999/02/22-rdf-syntax-ns#type> 			<http://www.assero.co.uk/BusinessDomain#VariableClassification> . 
<http://www.assero.co.uk/MDRModels/CDISC/V1#M-CDISC_SDTMMODEL_SC_SYNONYMQUALIFIER> 			<http://www.w3.org/2000/01/rdf-schema#label> 			"Synonym Qualifier" . 
<http://www.assero.co.uk/MDRModels/CDISC/V1#M-CDISC_SDTMMODEL_SC_SYNONYMQUALIFIER> 			<http://www.assero.co.uk/BusinessDomain#parentClassification> 			<http://www.assero.co.uk/MDRModels/CDISC/V1#M-CDISC_SDTMMODEL_C_QUALIFIER> . 
<http://www.assero.co.uk/MDRModels/CDISC/V1#M-CDISC_SDTMMODEL_C_QUALIFIER> 			<http://www.w3.org/1999/02/22-rdf-syntax-ns#type> 			<http://www.assero.co.uk/BusinessDomain#VariableClassification> . 
<http://www.assero.co.uk/MDRModels/CDISC/V1#M-CDISC_SDTMMODEL_C_QUALIFIER> 			<http://www.w3.org/2000/01/rdf-schema#label> 			"Qualifier" . 
<http://www.assero.co.uk/MDRModels/CDISC/V1#M-CDISC_SDTMMODEL_C_QUALIFIER> 			<http://www.assero.co.uk/BusinessDomain#childClassification> 			<http://www.assero.co.uk/MDRModels/CDISC/V1#M-CDISC_SDTMMODEL_SC_SYNONYMQUALIFIER> . 
<http://www.assero.co.uk/MDRModels/CDISC/V1#M-CDISC_SDTMMODEL_C_QUALIFIER> 			<http://www.assero.co.uk/BusinessDomain#childClassification> 			<http://www.assero.co.uk/MDRModels/CDISC/V1#M-CDISC_SDTMMODEL_SC_GROUPINGQUALIFIER> . 
<http://www.assero.co.uk/MDRModels/CDISC/V1#M-CDISC_SDTMMODEL_C_QUALIFIER> 			<http://www.assero.co.uk/BusinessDomain#childClassification> 			<http://www.assero.co.uk/MDRModels/CDISC/V1#M-CDISC_SDTMMODEL_SC_RECORDQUALIFIER> . 
<http://www.assero.co.uk/MDRModels/CDISC/V1#M-CDISC_SDTMMODEL_C_QUALIFIER> 			<http://www.assero.co.uk/BusinessDomain#childClassification> 			<http://www.assero.co.uk/MDRModels/CDISC/V1#M-CDISC_SDTMMODEL_SC_VARIABLEQUALIFIER> . 
<http://www.assero.co.uk/MDRModels/CDISC/V1#M-CDISC_SDTMMODEL_C_QUALIFIER> 			<http://www.assero.co.uk/BusinessDomain#childClassification> 			<http://www.assero.co.uk/MDRModels/CDISC/V1#M-CDISC_SDTMMODEL_SC_RESULTQUALIFIER> . 
<http://www.assero.co.uk/MDRModels/CDISC/V1#M-CDISC_SDTMMODEL_SC_GROUPINGQUALIFIER> 			<http://www.w3.org/1999/02/22-rdf-syntax-ns#type> 			<http://www.assero.co.uk/BusinessDomain#VariableClassification> . 
<http://www.assero.co.uk/MDRModels/CDISC/V1#M-CDISC_SDTMMODEL_SC_GROUPINGQUALIFIER> 			<http://www.w3.org/2000/01/rdf-schema#label> 			"Grouping Qualifier" . 
<http://www.assero.co.uk/MDRModels/CDISC/V1#M-CDISC_SDTMMODEL_SC_GROUPINGQUALIFIER> 			<http://www.assero.co.uk/BusinessDomain#parentClassification> 			<http://www.assero.co.uk/MDRModels/CDISC/V1#M-CDISC_SDTMMODEL_C_QUALIFIER> . 
<http://www.assero.co.uk/MDRModels/CDISC/V1#M-CDISC_SDTMMODEL_SC_RECORDQUALIFIER> 			<http://www.w3.org/1999/02/22-rdf-syntax-ns#type> 			<http://www.assero.co.uk/BusinessDomain#VariableClassification> . 
<http://www.assero.co.uk/MDRModels/CDISC/V1#M-CDISC_SDTMMODEL_SC_RECORDQUALIFIER> 			<http://www.w3.org/2000/01/rdf-schema#label> 			"Record Qualifier" . 
<http://www.assero.co.uk/MDRModels/CDISC/V1#M-CDISC_SDTMMODEL_SC_RECORDQUALIFIER> 			<http://www.assero.co.uk/BusinessDomain#parentClassification> 			<http://www.assero.co.uk/MDRModels/CDISC/V1#M-CDISC_SDTMMODEL_C_QUALIFIER> . 
<http://www.assero.co.uk/MDRModels/CDISC/V1#M-CDISC_SDTMMODEL_SC_VARIABLEQUALIFIER> 			<http://www.w3.org/1999/02/22-rdf-syntax-ns#type> 			<http://www.assero.co.uk/BusinessDomain#VariableClassification> . 
<http://www.assero.co.uk/MDRModels/CDISC/V1#M-CDISC_SDTMMODEL_SC_VARIABLEQUALIFIER> 			<http://www.w3.org/2000/01/rdf-schema#label> 			"Variable Qualifier" . 
<http://www.assero.co.uk/MDRModels/CDISC/V1#M-CDISC_SDTMMODEL_SC_VARIABLEQUALIFIER> 			<http://www.assero.co.uk/BusinessDomain#parentClassification> 			<http://www.assero.co.uk/MDRModels/CDISC/V1#M-CDISC_SDTMMODEL_C_QUALIFIER> . 
<http://www.assero.co.uk/MDRModels/CDISC/V1#M-CDISC_SDTMMODEL_SC_RESULTQUALIFIER> 			<http://www.w3.org/1999/02/22-rdf-syntax-ns#type> 			<http://www.assero.co.uk/BusinessDomain#VariableClassification> . 
<http://www.assero.co.uk/MDRModels/CDISC/V1#M-CDISC_SDTMMODEL_SC_RESULTQUALIFIER> 			<http://www.w3.org/2000/01/rdf-schema#label> 			"Result Qualifier" . 
<http://www.assero.co.uk/MDRModels/CDISC/V1#M-CDISC_SDTMMODEL_SC_RESULTQUALIFIER> 			<http://www.assero.co.uk/BusinessDomain#parentClassification> 			<http://www.assero.co.uk/MDRModels/CDISC/V1#M-CDISC_SDTMMODEL_C_QUALIFIER> . 
<http://www.assero.co.uk/MDRModels/CDISC/V1#IG-CDISC_SDTMIGAE_AEDECOD> 			<http://www.w3.org/1999/02/22-rdf-syntax-ns#type> 			<http://www.assero.co.uk/BusinessDomain#IgVariable> . 
<http://www.assero.co.uk/MDRModels/CDISC/V1#IG-CDISC_SDTMIGAE_AEDECOD> 			<http://www.w3.org/2000/01/rdf-schema#label> 			"Dictionary-Derived Term" . 
<http://www.assero.co.uk/MDRModels/CDISC/V1#IG-CDISC_SDTMIGAE_AEDECOD> 			<http://www.assero.co.uk/BusinessDomain#basedOnVariable> 			<http://www.assero.co.uk/MDRModels/CDISC/V1#IG-CDISC_SDTMIGAE_AEDECOD_VR> . 
<http://www.assero.co.uk/MDRModels/CDISC/V1#IG-CDISC_SDTMIGAE_AEDECOD> 			<http://www.assero.co.uk/BusinessDomain#compliance> 			<http://www.assero.co.uk/MDRModels/CDISC/V1#IG-CDISC_SDTMIG_C_REQUIRED> . 
<http://www.assero.co.uk/MDRModels/CDISC/V1#IG-CDISC_SDTMIGAE_AEDECOD> 			<http://www.assero.co.uk/BusinessDomain#ordinal> 			"10" . 
<http://www.assero.co.uk/MDRModels/CDISC/V1#IG-CDISC_SDTMIGAE_AEDECOD> 			<http://www.assero.co.uk/BusinessDomain#name> 			"AEDECOD" . 
<http://www.assero.co.uk/MDRModels/CDISC/V1#IG-CDISC_SDTMIGAE_AEDECOD> 			<http://www.assero.co.uk/BusinessDomain#notes> 			"Dictionary-derived text description of AETERM or AEMODIFY. Equivalent to the Preferred Term (PT in MedDRA). The sponsor is expected to provide the dictionary name and version used to map the terms utilizing the define.xml external codelist attributes" . 
<http://www.assero.co.uk/MDRModels/CDISC/V1#IG-CDISC_SDTMIGAE_AEDECOD> 			<http://www.assero.co.uk/BusinessDomain#controlled_term_or_format> 			"" . 
<http://www.assero.co.uk/MDRModels/CDISC/V1#IG-CDISC_SDTMIGAE_AEDECOD_VR> 			<http://www.w3.org/1999/02/22-rdf-syntax-ns#type> 			<http://www.assero.co.uk/BusinessOperational#CReference> . 
<http://www.assero.co.uk/MDRModels/CDISC/V1#IG-CDISC_SDTMIGAE_AEDECOD_VR> 			<http://www.assero.co.uk/BusinessOperational#hasColumn> 			<http://www.assero.co.uk/MDRModels/CDISC/V1#M-CDISC_SDTMMODEL_EVENTS_xxDECOD> . 
<http://www.assero.co.uk/MDRModels/CDISC/V1#IG-CDISC_SDTMIGAE_AEDECOD_VR> 			<http://www.assero.co.uk/BusinessOperational#ordinal> 			"1" . 
<http://www.assero.co.uk/MDRModels/CDISC/V1#IG-CDISC_SDTMIGAE_AEDECOD_VR> 			<http://www.assero.co.uk/BusinessOperational#enabled> 			"true" . 
<http://www.assero.co.uk/MDRModels/CDISC/V1#IG-CDISC_SDTMIGAE_AEDECOD_VR> 			<http://www.assero.co.uk/BusinessOperational#optional> 			"false" . 
<http://www.assero.co.uk/MDRModels/CDISC/V1#M-CDISC_SDTMMODEL_EVENTS_xxDECOD> 			<http://www.w3.org/1999/02/22-rdf-syntax-ns#type> 			<http://www.assero.co.uk/BusinessDomain#ClassVariable> . 
<http://www.assero.co.uk/MDRModels/CDISC/V1#M-CDISC_SDTMMODEL_EVENTS_xxDECOD> 			<http://www.w3.org/2000/01/rdf-schema#label> 			"Dictionary-Derived Term" . 
<http://www.assero.co.uk/MDRModels/CDISC/V1#M-CDISC_SDTMMODEL_EVENTS_xxDECOD> 			<http://www.assero.co.uk/BusinessDomain#basedOnVariable> 			<http://www.assero.co.uk/MDRModels/CDISC/V1#M-CDISC_SDTMMODEL_EVENTS_xxDECOD_CR> . 
<http://www.assero.co.uk/MDRModels/CDISC/V1#M-CDISC_SDTMMODEL_EVENTS_xxDECOD> 			<http://www.assero.co.uk/BusinessDomain#ordinal> 			"10" . 
<http://www.assero.co.uk/MDRModels/CDISC/V1#M-CDISC_SDTMMODEL_EVENTS_xxDECOD_CR> 			<http://www.w3.org/1999/02/22-rdf-syntax-ns#type> 			<http://www.assero.co.uk/BusinessOperational#CReference> . 
<http://www.assero.co.uk/MDRModels/CDISC/V1#M-CDISC_SDTMMODEL_EVENTS_xxDECOD_CR> 			<http://www.assero.co.uk/BusinessOperational#hasColumn> 			<http://www.assero.co.uk/MDRModels/CDISC/V1#M-CDISC_SDTMMODEL_xxDECOD> . 
<http://www.assero.co.uk/MDRModels/CDISC/V1#M-CDISC_SDTMMODEL_EVENTS_xxDECOD_CR> 			<http://www.assero.co.uk/BusinessOperational#ordinal> 			"10" . 
<http://www.assero.co.uk/MDRModels/CDISC/V1#M-CDISC_SDTMMODEL_EVENTS_xxDECOD_CR> 			<http://www.assero.co.uk/BusinessOperational#enabled> 			"true" . 
<http://www.assero.co.uk/MDRModels/CDISC/V1#M-CDISC_SDTMMODEL_EVENTS_xxDECOD_CR> 			<http://www.assero.co.uk/BusinessOperational#optional> 			"false" . 
<http://www.assero.co.uk/MDRModels/CDISC/V1#M-CDISC_SDTMMODEL_xxDECOD> 			<http://www.w3.org/1999/02/22-rdf-syntax-ns#type> 			<http://www.assero.co.uk/BusinessDomain#ModelVariable> . 
<http://www.assero.co.uk/MDRModels/CDISC/V1#M-CDISC_SDTMMODEL_xxDECOD> 			<http://www.w3.org/2000/01/rdf-schema#label> 			"Dictionary-Derived Term" . 
<http://www.assero.co.uk/MDRModels/CDISC/V1#M-CDISC_SDTMMODEL_xxDECOD> 			<http://www.w3.org/2000/01/rdf-schema#label> 			"Standardized Treatment Name" . 
<http://www.assero.co.uk/MDRModels/CDISC/V1#M-CDISC_SDTMMODEL_xxDECOD> 			<http://www.assero.co.uk/BusinessDomain#classifiedAs> 			<http://www.assero.co.uk/MDRModels/CDISC/V1#M-CDISC_SDTMMODEL_SC_SYNONYMQUALIFIER> . 
<http://www.assero.co.uk/MDRModels/CDISC/V1#M-CDISC_SDTMMODEL_xxDECOD> 			<http://www.assero.co.uk/BusinessDomain#typedAs> 			<http://www.assero.co.uk/MDRModels/CDISC/V1#M-CDISC_SDTMMODEL_DT_CHAR> . 
<http://www.assero.co.uk/MDRModels/CDISC/V1#M-CDISC_SDTMMODEL_xxDECOD> 			<http://www.assero.co.uk/BusinessDomain#rule> 			"" . 
<http://www.assero.co.uk/MDRModels/CDISC/V1#M-CDISC_SDTMMODEL_xxDECOD> 			<http://www.assero.co.uk/BusinessDomain#ordinal> 			"3" . 
<http://www.assero.co.uk/MDRModels/CDISC/V1#M-CDISC_SDTMMODEL_xxDECOD> 			<http://www.assero.co.uk/BusinessDomain#name> 			"--DECOD" . 
<http://www.assero.co.uk/MDRModels/CDISC/V1#M-CDISC_SDTMMODEL_xxDECOD> 			<http://www.assero.co.uk/BusinessDomain#prefixed> 			"true" . 
<http://www.assero.co.uk/MDRModels/CDISC/V1#M-CDISC_SDTMMODEL_xxDECOD> 			<http://www.assero.co.uk/BusinessDomain#description> 			"Standardized or dictionary-derived name of the topic variable, --TRT, or the modified topic variable (--MODIFY), if applicable. Equivalent to the generic drug name in WHO Drug, or a term in SNOMED, ICD9, or other published or sponsor-defined dictionaries." . 
<http://www.assero.co.uk/MDRModels/CDISC/V1#IG-CDISC_SDTMIGAE_AECAT> 			<http://www.w3.org/1999/02/22-rdf-syntax-ns#type> 			<http://www.assero.co.uk/BusinessDomain#IgVariable> . 
<http://www.assero.co.uk/MDRModels/CDISC/V1#IG-CDISC_SDTMIGAE_AECAT> 			<http://www.w3.org/2000/01/rdf-schema#label> 			"Category for Adverse Event" . 
<http://www.assero.co.uk/MDRModels/CDISC/V1#IG-CDISC_SDTMIGAE_AECAT> 			<http://www.assero.co.uk/BusinessDomain#basedOnVariable> 			<http://www.assero.co.uk/MDRModels/CDISC/V1#IG-CDISC_SDTMIGAE_AECAT_VR> . 
<http://www.assero.co.uk/MDRModels/CDISC/V1#IG-CDISC_SDTMIGAE_AECAT> 			<http://www.assero.co.uk/BusinessDomain#compliance> 			<http://www.assero.co.uk/MDRModels/CDISC/V1#IG-CDISC_SDTMIG_C_PERMISSIBLE> . 
<http://www.assero.co.uk/MDRModels/CDISC/V1#IG-CDISC_SDTMIGAE_AECAT> 			<http://www.assero.co.uk/BusinessDomain#ordinal> 			"11" . 
<http://www.assero.co.uk/MDRModels/CDISC/V1#IG-CDISC_SDTMIGAE_AECAT> 			<http://www.assero.co.uk/BusinessDomain#name> 			"AECAT" . 
<http://www.assero.co.uk/MDRModels/CDISC/V1#IG-CDISC_SDTMIGAE_AECAT> 			<http://www.assero.co.uk/BusinessDomain#notes> 			"Used to define a category of related records. Example: BLEEDING, NEUROPSYCHIATRIC." . 
<http://www.assero.co.uk/MDRModels/CDISC/V1#IG-CDISC_SDTMIGAE_AECAT> 			<http://www.assero.co.uk/BusinessDomain#controlled_term_or_format> 			"" . 
<http://www.assero.co.uk/MDRModels/CDISC/V1#IG-CDISC_SDTMIGAE_AECAT_VR> 			<http://www.w3.org/1999/02/22-rdf-syntax-ns#type> 			<http://www.assero.co.uk/BusinessOperational#CReference> . 
<http://www.assero.co.uk/MDRModels/CDISC/V1#IG-CDISC_SDTMIGAE_AECAT_VR> 			<http://www.assero.co.uk/BusinessOperational#hasColumn> 			<http://www.assero.co.uk/MDRModels/CDISC/V1#M-CDISC_SDTMMODEL_EVENTS_xxCAT> . 
<http://www.assero.co.uk/MDRModels/CDISC/V1#IG-CDISC_SDTMIGAE_AECAT_VR> 			<http://www.assero.co.uk/BusinessOperational#ordinal> 			"1" . 
<http://www.assero.co.uk/MDRModels/CDISC/V1#IG-CDISC_SDTMIGAE_AECAT_VR> 			<http://www.assero.co.uk/BusinessOperational#enabled> 			"true" . 
<http://www.assero.co.uk/MDRModels/CDISC/V1#IG-CDISC_SDTMIGAE_AECAT_VR> 			<http://www.assero.co.uk/BusinessOperational#optional> 			"false" . 
<http://www.assero.co.uk/MDRModels/CDISC/V1#M-CDISC_SDTMMODEL_EVENTS_xxCAT> 			<http://www.w3.org/1999/02/22-rdf-syntax-ns#type> 			<http://www.assero.co.uk/BusinessDomain#ClassVariable> . 
<http://www.assero.co.uk/MDRModels/CDISC/V1#M-CDISC_SDTMMODEL_EVENTS_xxCAT> 			<http://www.w3.org/2000/01/rdf-schema#label> 			"Category" . 
<http://www.assero.co.uk/MDRModels/CDISC/V1#M-CDISC_SDTMMODEL_EVENTS_xxCAT> 			<http://www.assero.co.uk/BusinessDomain#basedOnVariable> 			<http://www.assero.co.uk/MDRModels/CDISC/V1#M-CDISC_SDTMMODEL_EVENTS_xxCAT_CR> . 
<http://www.assero.co.uk/MDRModels/CDISC/V1#M-CDISC_SDTMMODEL_EVENTS_xxCAT> 			<http://www.assero.co.uk/BusinessDomain#ordinal> 			"11" . 
<http://www.assero.co.uk/MDRModels/CDISC/V1#M-CDISC_SDTMMODEL_EVENTS_xxCAT_CR> 			<http://www.w3.org/1999/02/22-rdf-syntax-ns#type> 			<http://www.assero.co.uk/BusinessOperational#CReference> . 
<http://www.assero.co.uk/MDRModels/CDISC/V1#M-CDISC_SDTMMODEL_EVENTS_xxCAT_CR> 			<http://www.assero.co.uk/BusinessOperational#hasColumn> 			<http://www.assero.co.uk/MDRModels/CDISC/V1#M-CDISC_SDTMMODEL_xxCAT> . 
<http://www.assero.co.uk/MDRModels/CDISC/V1#M-CDISC_SDTMMODEL_EVENTS_xxCAT_CR> 			<http://www.assero.co.uk/BusinessOperational#ordinal> 			"11" . 
<http://www.assero.co.uk/MDRModels/CDISC/V1#M-CDISC_SDTMMODEL_EVENTS_xxCAT_CR> 			<http://www.assero.co.uk/BusinessOperational#enabled> 			"true" . 
<http://www.assero.co.uk/MDRModels/CDISC/V1#M-CDISC_SDTMMODEL_EVENTS_xxCAT_CR> 			<http://www.assero.co.uk/BusinessOperational#optional> 			"false" . 
<http://www.assero.co.uk/MDRModels/CDISC/V1#M-CDISC_SDTMMODEL_xxCAT> 			<http://www.w3.org/1999/02/22-rdf-syntax-ns#type> 			<http://www.assero.co.uk/BusinessDomain#ModelVariable> . 
<http://www.assero.co.uk/MDRModels/CDISC/V1#M-CDISC_SDTMMODEL_xxCAT> 			<http://www.w3.org/2000/01/rdf-schema#label> 			"Category" . 
<http://www.assero.co.uk/MDRModels/CDISC/V1#M-CDISC_SDTMMODEL_xxCAT> 			<http://www.assero.co.uk/BusinessDomain#classifiedAs> 			<http://www.assero.co.uk/MDRModels/CDISC/V1#M-CDISC_SDTMMODEL_SC_GROUPINGQUALIFIER> . 
<http://www.assero.co.uk/MDRModels/CDISC/V1#M-CDISC_SDTMMODEL_xxCAT> 			<http://www.assero.co.uk/BusinessDomain#typedAs> 			<http://www.assero.co.uk/MDRModels/CDISC/V1#M-CDISC_SDTMMODEL_DT_CHAR> . 
<http://www.assero.co.uk/MDRModels/CDISC/V1#M-CDISC_SDTMMODEL_xxCAT> 			<http://www.assero.co.uk/BusinessDomain#rule> 			"" . 
<http://www.assero.co.uk/MDRModels/CDISC/V1#M-CDISC_SDTMMODEL_xxCAT> 			<http://www.assero.co.uk/BusinessDomain#ordinal> 			"4" . 
<http://www.assero.co.uk/MDRModels/CDISC/V1#M-CDISC_SDTMMODEL_xxCAT> 			<http://www.assero.co.uk/BusinessDomain#name> 			"--CAT" . 
<http://www.assero.co.uk/MDRModels/CDISC/V1#M-CDISC_SDTMMODEL_xxCAT> 			<http://www.assero.co.uk/BusinessDomain#prefixed> 			"true" . 
<http://www.assero.co.uk/MDRModels/CDISC/V1#M-CDISC_SDTMMODEL_xxCAT> 			<http://www.assero.co.uk/BusinessDomain#description> 			"Used to define a category of topic-variable values. Examples: HEMATOLOGY, URINALYSIS, CHEMISTRY, HAMILTON DEPRESSION SCALE, SF36." . 
<http://www.assero.co.uk/MDRModels/CDISC/V1#IG-CDISC_SDTMIGAE_AESCAT> 			<http://www.w3.org/1999/02/22-rdf-syntax-ns#type> 			<http://www.assero.co.uk/BusinessDomain#IgVariable> . 
<http://www.assero.co.uk/MDRModels/CDISC/V1#IG-CDISC_SDTMIGAE_AESCAT> 			<http://www.w3.org/2000/01/rdf-schema#label> 			"Subcategory for Adverse Event" . 
<http://www.assero.co.uk/MDRModels/CDISC/V1#IG-CDISC_SDTMIGAE_AESCAT> 			<http://www.assero.co.uk/BusinessDomain#basedOnVariable> 			<http://www.assero.co.uk/MDRModels/CDISC/V1#IG-CDISC_SDTMIGAE_AESCAT_VR> . 
<http://www.assero.co.uk/MDRModels/CDISC/V1#IG-CDISC_SDTMIGAE_AESCAT> 			<http://www.assero.co.uk/BusinessDomain#compliance> 			<http://www.assero.co.uk/MDRModels/CDISC/V1#IG-CDISC_SDTMIG_C_PERMISSIBLE> . 
<http://www.assero.co.uk/MDRModels/CDISC/V1#IG-CDISC_SDTMIGAE_AESCAT> 			<http://www.assero.co.uk/BusinessDomain#ordinal> 			"12" . 
<http://www.assero.co.uk/MDRModels/CDISC/V1#IG-CDISC_SDTMIGAE_AESCAT> 			<http://www.assero.co.uk/BusinessDomain#name> 			"AESCAT" . 
<http://www.assero.co.uk/MDRModels/CDISC/V1#IG-CDISC_SDTMIGAE_AESCAT> 			<http://www.assero.co.uk/BusinessDomain#notes> 			"A further categorization of adverse event. Example: NEUROLOGIC." . 
<http://www.assero.co.uk/MDRModels/CDISC/V1#IG-CDISC_SDTMIGAE_AESCAT> 			<http://www.assero.co.uk/BusinessDomain#controlled_term_or_format> 			"" . 
<http://www.assero.co.uk/MDRModels/CDISC/V1#IG-CDISC_SDTMIGAE_AESCAT_VR> 			<http://www.w3.org/1999/02/22-rdf-syntax-ns#type> 			<http://www.assero.co.uk/BusinessOperational#CReference> . 
<http://www.assero.co.uk/MDRModels/CDISC/V1#IG-CDISC_SDTMIGAE_AESCAT_VR> 			<http://www.assero.co.uk/BusinessOperational#hasColumn> 			<http://www.assero.co.uk/MDRModels/CDISC/V1#M-CDISC_SDTMMODEL_EVENTS_xxSCAT> . 
<http://www.assero.co.uk/MDRModels/CDISC/V1#IG-CDISC_SDTMIGAE_AESCAT_VR> 			<http://www.assero.co.uk/BusinessOperational#ordinal> 			"1" . 
<http://www.assero.co.uk/MDRModels/CDISC/V1#IG-CDISC_SDTMIGAE_AESCAT_VR> 			<http://www.assero.co.uk/BusinessOperational#enabled> 			"true" . 
<http://www.assero.co.uk/MDRModels/CDISC/V1#IG-CDISC_SDTMIGAE_AESCAT_VR> 			<http://www.assero.co.uk/BusinessOperational#optional> 			"false" . 
<http://www.assero.co.uk/MDRModels/CDISC/V1#M-CDISC_SDTMMODEL_EVENTS_xxSCAT> 			<http://www.w3.org/1999/02/22-rdf-syntax-ns#type> 			<http://www.assero.co.uk/BusinessDomain#ClassVariable> . 
<http://www.assero.co.uk/MDRModels/CDISC/V1#M-CDISC_SDTMMODEL_EVENTS_xxSCAT> 			<http://www.w3.org/2000/01/rdf-schema#label> 			"Subcategory" . 
<http://www.assero.co.uk/MDRModels/CDISC/V1#M-CDISC_SDTMMODEL_EVENTS_xxSCAT> 			<http://www.assero.co.uk/BusinessDomain#basedOnVariable> 			<http://www.assero.co.uk/MDRModels/CDISC/V1#M-CDISC_SDTMMODEL_EVENTS_xxSCAT_CR> . 
<http://www.assero.co.uk/MDRModels/CDISC/V1#M-CDISC_SDTMMODEL_EVENTS_xxSCAT> 			<http://www.assero.co.uk/BusinessDomain#ordinal> 			"12" . 
<http://www.assero.co.uk/MDRModels/CDISC/V1#M-CDISC_SDTMMODEL_EVENTS_xxSCAT_CR> 			<http://www.w3.org/1999/02/22-rdf-syntax-ns#type> 			<http://www.assero.co.uk/BusinessOperational#CReference> . 
<http://www.assero.co.uk/MDRModels/CDISC/V1#M-CDISC_SDTMMODEL_EVENTS_xxSCAT_CR> 			<http://www.assero.co.uk/BusinessOperational#hasColumn> 			<http://www.assero.co.uk/MDRModels/CDISC/V1#M-CDISC_SDTMMODEL_xxSCAT> . 
<http://www.assero.co.uk/MDRModels/CDISC/V1#M-CDISC_SDTMMODEL_EVENTS_xxSCAT_CR> 			<http://www.assero.co.uk/BusinessOperational#ordinal> 			"12" . 
<http://www.assero.co.uk/MDRModels/CDISC/V1#M-CDISC_SDTMMODEL_EVENTS_xxSCAT_CR> 			<http://www.assero.co.uk/BusinessOperational#enabled> 			"true" . 
<http://www.assero.co.uk/MDRModels/CDISC/V1#M-CDISC_SDTMMODEL_EVENTS_xxSCAT_CR> 			<http://www.assero.co.uk/BusinessOperational#optional> 			"false" . 
<http://www.assero.co.uk/MDRModels/CDISC/V1#M-CDISC_SDTMMODEL_xxSCAT> 			<http://www.w3.org/1999/02/22-rdf-syntax-ns#type> 			<http://www.assero.co.uk/BusinessDomain#ModelVariable> . 
<http://www.assero.co.uk/MDRModels/CDISC/V1#M-CDISC_SDTMMODEL_xxSCAT> 			<http://www.w3.org/2000/01/rdf-schema#label> 			"Subcategory" . 
<http://www.assero.co.uk/MDRModels/CDISC/V1#M-CDISC_SDTMMODEL_xxSCAT> 			<http://www.assero.co.uk/BusinessDomain#classifiedAs> 			<http://www.assero.co.uk/MDRModels/CDISC/V1#M-CDISC_SDTMMODEL_SC_GROUPINGQUALIFIER> . 
<http://www.assero.co.uk/MDRModels/CDISC/V1#M-CDISC_SDTMMODEL_xxSCAT> 			<http://www.assero.co.uk/BusinessDomain#typedAs> 			<http://www.assero.co.uk/MDRModels/CDISC/V1#M-CDISC_SDTMMODEL_DT_CHAR> . 
<http://www.assero.co.uk/MDRModels/CDISC/V1#M-CDISC_SDTMMODEL_xxSCAT> 			<http://www.assero.co.uk/BusinessDomain#rule> 			"" . 
<http://www.assero.co.uk/MDRModels/CDISC/V1#M-CDISC_SDTMMODEL_xxSCAT> 			<http://www.assero.co.uk/BusinessDomain#ordinal> 			"5" . 
<http://www.assero.co.uk/MDRModels/CDISC/V1#M-CDISC_SDTMMODEL_xxSCAT> 			<http://www.assero.co.uk/BusinessDomain#name> 			"--SCAT" . 
<http://www.assero.co.uk/MDRModels/CDISC/V1#M-CDISC_SDTMMODEL_xxSCAT> 			<http://www.assero.co.uk/BusinessDomain#prefixed> 			"true" . 
<http://www.assero.co.uk/MDRModels/CDISC/V1#M-CDISC_SDTMMODEL_xxSCAT> 			<http://www.assero.co.uk/BusinessDomain#description> 			"Used to define a further categorization of --CAT values." . 
<http://www.assero.co.uk/MDRModels/CDISC/V1#IG-CDISC_SDTMIGAE_AEPRESP> 			<http://www.w3.org/1999/02/22-rdf-syntax-ns#type> 			<http://www.assero.co.uk/BusinessDomain#IgVariable> . 
<http://www.assero.co.uk/MDRModels/CDISC/V1#IG-CDISC_SDTMIGAE_AEPRESP> 			<http://www.w3.org/2000/01/rdf-schema#label> 			"Pre-Specified Adverse Event" . 
<http://www.assero.co.uk/MDRModels/CDISC/V1#IG-CDISC_SDTMIGAE_AEPRESP> 			<http://www.assero.co.uk/BusinessDomain#basedOnVariable> 			<http://www.assero.co.uk/MDRModels/CDISC/V1#IG-CDISC_SDTMIGAE_AEPRESP_VR> . 
<http://www.assero.co.uk/MDRModels/CDISC/V1#IG-CDISC_SDTMIGAE_AEPRESP> 			<http://www.assero.co.uk/BusinessDomain#compliance> 			<http://www.assero.co.uk/MDRModels/CDISC/V1#IG-CDISC_SDTMIG_C_PERMISSIBLE> . 
<http://www.assero.co.uk/MDRModels/CDISC/V1#IG-CDISC_SDTMIGAE_AEPRESP> 			<http://www.assero.co.uk/BusinessDomain#ordinal> 			"13" . 
<http://www.assero.co.uk/MDRModels/CDISC/V1#IG-CDISC_SDTMIGAE_AEPRESP> 			<http://www.assero.co.uk/BusinessDomain#name> 			"AEPRESP" . 
<http://www.assero.co.uk/MDRModels/CDISC/V1#IG-CDISC_SDTMIGAE_AEPRESP> 			<http://www.assero.co.uk/BusinessDomain#notes> 			"A value of 'Y' indicates that this adverse event was pre-specified on the CRF. Values are null for spontaneously reported events (i.e., those collected as free-text verbatim terms)" . 
<http://www.assero.co.uk/MDRModels/CDISC/V1#IG-CDISC_SDTMIGAE_AEPRESP> 			<http://www.assero.co.uk/BusinessDomain#controlled_term_or_format> 			"NY" . 
<http://www.assero.co.uk/MDRModels/CDISC/V1#IG-CDISC_SDTMIGAE_AEPRESP_VR> 			<http://www.w3.org/1999/02/22-rdf-syntax-ns#type> 			<http://www.assero.co.uk/BusinessOperational#CReference> . 
<http://www.assero.co.uk/MDRModels/CDISC/V1#IG-CDISC_SDTMIGAE_AEPRESP_VR> 			<http://www.assero.co.uk/BusinessOperational#hasColumn> 			<http://www.assero.co.uk/MDRModels/CDISC/V1#M-CDISC_SDTMMODEL_EVENTS_xxPRESP> . 
<http://www.assero.co.uk/MDRModels/CDISC/V1#IG-CDISC_SDTMIGAE_AEPRESP_VR> 			<http://www.assero.co.uk/BusinessOperational#ordinal> 			"1" . 
<http://www.assero.co.uk/MDRModels/CDISC/V1#IG-CDISC_SDTMIGAE_AEPRESP_VR> 			<http://www.assero.co.uk/BusinessOperational#enabled> 			"true" . 
<http://www.assero.co.uk/MDRModels/CDISC/V1#IG-CDISC_SDTMIGAE_AEPRESP_VR> 			<http://www.assero.co.uk/BusinessOperational#optional> 			"false" . 
<http://www.assero.co.uk/MDRModels/CDISC/V1#M-CDISC_SDTMMODEL_EVENTS_xxPRESP> 			<http://www.w3.org/1999/02/22-rdf-syntax-ns#type> 			<http://www.assero.co.uk/BusinessDomain#ClassVariable> . 
<http://www.assero.co.uk/MDRModels/CDISC/V1#M-CDISC_SDTMMODEL_EVENTS_xxPRESP> 			<http://www.w3.org/2000/01/rdf-schema#label> 			"Pre-specified" . 
<http://www.assero.co.uk/MDRModels/CDISC/V1#M-CDISC_SDTMMODEL_EVENTS_xxPRESP> 			<http://www.assero.co.uk/BusinessDomain#basedOnVariable> 			<http://www.assero.co.uk/MDRModels/CDISC/V1#M-CDISC_SDTMMODEL_EVENTS_xxPRESP_CR> . 
<http://www.assero.co.uk/MDRModels/CDISC/V1#M-CDISC_SDTMMODEL_EVENTS_xxPRESP> 			<http://www.assero.co.uk/BusinessDomain#ordinal> 			"13" . 
<http://www.assero.co.uk/MDRModels/CDISC/V1#M-CDISC_SDTMMODEL_EVENTS_xxPRESP_CR> 			<http://www.w3.org/1999/02/22-rdf-syntax-ns#type> 			<http://www.assero.co.uk/BusinessOperational#CReference> . 
<http://www.assero.co.uk/MDRModels/CDISC/V1#M-CDISC_SDTMMODEL_EVENTS_xxPRESP_CR> 			<http://www.assero.co.uk/BusinessOperational#hasColumn> 			<http://www.assero.co.uk/MDRModels/CDISC/V1#M-CDISC_SDTMMODEL_xxPRESP> . 
<http://www.assero.co.uk/MDRModels/CDISC/V1#M-CDISC_SDTMMODEL_EVENTS_xxPRESP_CR> 			<http://www.assero.co.uk/BusinessOperational#ordinal> 			"13" . 
<http://www.assero.co.uk/MDRModels/CDISC/V1#M-CDISC_SDTMMODEL_EVENTS_xxPRESP_CR> 			<http://www.assero.co.uk/BusinessOperational#enabled> 			"true" . 
<http://www.assero.co.uk/MDRModels/CDISC/V1#M-CDISC_SDTMMODEL_EVENTS_xxPRESP_CR> 			<http://www.assero.co.uk/BusinessOperational#optional> 			"false" . 
<http://www.assero.co.uk/MDRModels/CDISC/V1#M-CDISC_SDTMMODEL_xxPRESP> 			<http://www.w3.org/1999/02/22-rdf-syntax-ns#type> 			<http://www.assero.co.uk/BusinessDomain#ModelVariable> . 
<http://www.assero.co.uk/MDRModels/CDISC/V1#M-CDISC_SDTMMODEL_xxPRESP> 			<http://www.w3.org/2000/01/rdf-schema#label> 			"Pre-specified" . 
<http://www.assero.co.uk/MDRModels/CDISC/V1#M-CDISC_SDTMMODEL_xxPRESP> 			<http://www.assero.co.uk/BusinessDomain#classifiedAs> 			<http://www.assero.co.uk/MDRModels/CDISC/V1#M-CDISC_SDTMMODEL_SC_RECORDQUALIFIER> . 
<http://www.assero.co.uk/MDRModels/CDISC/V1#M-CDISC_SDTMMODEL_xxPRESP> 			<http://www.assero.co.uk/BusinessDomain#typedAs> 			<http://www.assero.co.uk/MDRModels/CDISC/V1#M-CDISC_SDTMMODEL_DT_CHAR> . 
<http://www.assero.co.uk/MDRModels/CDISC/V1#M-CDISC_SDTMMODEL_xxPRESP> 			<http://www.assero.co.uk/BusinessDomain#rule> 			"" . 
<http://www.assero.co.uk/MDRModels/CDISC/V1#M-CDISC_SDTMMODEL_xxPRESP> 			<http://www.assero.co.uk/BusinessDomain#ordinal> 			"6" . 
<http://www.assero.co.uk/MDRModels/CDISC/V1#M-CDISC_SDTMMODEL_xxPRESP> 			<http://www.assero.co.uk/BusinessDomain#name> 			"--PRESP" . 
<http://www.assero.co.uk/MDRModels/CDISC/V1#M-CDISC_SDTMMODEL_xxPRESP> 			<http://www.assero.co.uk/BusinessDomain#prefixed> 			"true" . 
<http://www.assero.co.uk/MDRModels/CDISC/V1#M-CDISC_SDTMMODEL_xxPRESP> 			<http://www.assero.co.uk/BusinessDomain#description> 			"Used when a specific intervention is pre-specified on a CRF. Values should be 'Y' or null." . 
<http://www.assero.co.uk/MDRModels/CDISC/V1#IG-CDISC_SDTMIGAE_AEBODSYS> 			<http://www.w3.org/1999/02/22-rdf-syntax-ns#type> 			<http://www.assero.co.uk/BusinessDomain#IgVariable> . 
<http://www.assero.co.uk/MDRModels/CDISC/V1#IG-CDISC_SDTMIGAE_AEBODSYS> 			<http://www.w3.org/2000/01/rdf-schema#label> 			"Body System or Organ Class" . 
<http://www.assero.co.uk/MDRModels/CDISC/V1#IG-CDISC_SDTMIGAE_AEBODSYS> 			<http://www.assero.co.uk/BusinessDomain#basedOnVariable> 			<http://www.assero.co.uk/MDRModels/CDISC/V1#IG-CDISC_SDTMIGAE_AEBODSYS_VR> . 
<http://www.assero.co.uk/MDRModels/CDISC/V1#IG-CDISC_SDTMIGAE_AEBODSYS> 			<http://www.assero.co.uk/BusinessDomain#compliance> 			<http://www.assero.co.uk/MDRModels/CDISC/V1#IG-CDISC_SDTMIG_C_EXPECTED> . 
<http://www.assero.co.uk/MDRModels/CDISC/V1#IG-CDISC_SDTMIGAE_AEBODSYS> 			<http://www.assero.co.uk/BusinessDomain#ordinal> 			"14" . 
<http://www.assero.co.uk/MDRModels/CDISC/V1#IG-CDISC_SDTMIGAE_AEBODSYS> 			<http://www.assero.co.uk/BusinessDomain#name> 			"AEBODSYS" . 
<http://www.assero.co.uk/MDRModels/CDISC/V1#IG-CDISC_SDTMIGAE_AEBODSYS> 			<http://www.assero.co.uk/BusinessDomain#notes> 			"Dictionary derived. Body system or organ class used by the sponsor from the coding dictionary (e.g., MedDRA). When using a multi-axial dictionary such as MedDRA, this should contain the SOC used for the sponsor's analyses and summary tables which may not necessarily be the primary SOC." . 
<http://www.assero.co.uk/MDRModels/CDISC/V1#IG-CDISC_SDTMIGAE_AEBODSYS> 			<http://www.assero.co.uk/BusinessDomain#controlled_term_or_format> 			"" . 
<http://www.assero.co.uk/MDRModels/CDISC/V1#IG-CDISC_SDTMIGAE_AEBODSYS_VR> 			<http://www.w3.org/1999/02/22-rdf-syntax-ns#type> 			<http://www.assero.co.uk/BusinessOperational#CReference> . 
<http://www.assero.co.uk/MDRModels/CDISC/V1#IG-CDISC_SDTMIGAE_AEBODSYS_VR> 			<http://www.assero.co.uk/BusinessOperational#hasColumn> 			<http://www.assero.co.uk/MDRModels/CDISC/V1#M-CDISC_SDTMMODEL_EVENTS_xxBODSYS> . 
<http://www.assero.co.uk/MDRModels/CDISC/V1#IG-CDISC_SDTMIGAE_AEBODSYS_VR> 			<http://www.assero.co.uk/BusinessOperational#ordinal> 			"1" . 
<http://www.assero.co.uk/MDRModels/CDISC/V1#IG-CDISC_SDTMIGAE_AEBODSYS_VR> 			<http://www.assero.co.uk/BusinessOperational#enabled> 			"true" . 
<http://www.assero.co.uk/MDRModels/CDISC/V1#IG-CDISC_SDTMIGAE_AEBODSYS_VR> 			<http://www.assero.co.uk/BusinessOperational#optional> 			"false" . 
<http://www.assero.co.uk/MDRModels/CDISC/V1#M-CDISC_SDTMMODEL_EVENTS_xxBODSYS> 			<http://www.w3.org/1999/02/22-rdf-syntax-ns#type> 			<http://www.assero.co.uk/BusinessDomain#ClassVariable> . 
<http://www.assero.co.uk/MDRModels/CDISC/V1#M-CDISC_SDTMMODEL_EVENTS_xxBODSYS> 			<http://www.w3.org/2000/01/rdf-schema#label> 			"Body System or Organ Class" . 
<http://www.assero.co.uk/MDRModels/CDISC/V1#M-CDISC_SDTMMODEL_EVENTS_xxBODSYS> 			<http://www.assero.co.uk/BusinessDomain#basedOnVariable> 			<http://www.assero.co.uk/MDRModels/CDISC/V1#M-CDISC_SDTMMODEL_EVENTS_xxBODSYS_CR> . 
<http://www.assero.co.uk/MDRModels/CDISC/V1#M-CDISC_SDTMMODEL_EVENTS_xxBODSYS> 			<http://www.assero.co.uk/BusinessDomain#ordinal> 			"17" . 
<http://www.assero.co.uk/MDRModels/CDISC/V1#M-CDISC_SDTMMODEL_EVENTS_xxBODSYS_CR> 			<http://www.w3.org/1999/02/22-rdf-syntax-ns#type> 			<http://www.assero.co.uk/BusinessOperational#CReference> . 
<http://www.assero.co.uk/MDRModels/CDISC/V1#M-CDISC_SDTMMODEL_EVENTS_xxBODSYS_CR> 			<http://www.assero.co.uk/BusinessOperational#hasColumn> 			<http://www.assero.co.uk/MDRModels/CDISC/V1#M-CDISC_SDTMMODEL_xxBODSYS> . 
<http://www.assero.co.uk/MDRModels/CDISC/V1#M-CDISC_SDTMMODEL_EVENTS_xxBODSYS_CR> 			<http://www.assero.co.uk/BusinessOperational#ordinal> 			"17" . 
<http://www.assero.co.uk/MDRModels/CDISC/V1#M-CDISC_SDTMMODEL_EVENTS_xxBODSYS_CR> 			<http://www.assero.co.uk/BusinessOperational#enabled> 			"true" . 
<http://www.assero.co.uk/MDRModels/CDISC/V1#M-CDISC_SDTMMODEL_EVENTS_xxBODSYS_CR> 			<http://www.assero.co.uk/BusinessOperational#optional> 			"false" . 
<http://www.assero.co.uk/MDRModels/CDISC/V1#M-CDISC_SDTMMODEL_xxBODSYS> 			<http://www.w3.org/1999/02/22-rdf-syntax-ns#type> 			<http://www.assero.co.uk/BusinessDomain#ModelVariable> . 
<http://www.assero.co.uk/MDRModels/CDISC/V1#M-CDISC_SDTMMODEL_xxBODSYS> 			<http://www.w3.org/2000/01/rdf-schema#label> 			"Body System or Organ Class" . 
<http://www.assero.co.uk/MDRModels/CDISC/V1#M-CDISC_SDTMMODEL_xxBODSYS> 			<http://www.assero.co.uk/BusinessDomain#classifiedAs> 			<http://www.assero.co.uk/MDRModels/CDISC/V1#M-CDISC_SDTMMODEL_SC_RECORDQUALIFIER> . 
<http://www.assero.co.uk/MDRModels/CDISC/V1#M-CDISC_SDTMMODEL_xxBODSYS> 			<http://www.assero.co.uk/BusinessDomain#typedAs> 			<http://www.assero.co.uk/MDRModels/CDISC/V1#M-CDISC_SDTMMODEL_DT_CHAR> . 
<http://www.assero.co.uk/MDRModels/CDISC/V1#M-CDISC_SDTMMODEL_xxBODSYS> 			<http://www.assero.co.uk/BusinessDomain#rule> 			"" . 
<http://www.assero.co.uk/MDRModels/CDISC/V1#M-CDISC_SDTMMODEL_xxBODSYS> 			<http://www.assero.co.uk/BusinessDomain#ordinal> 			"7" . 
<http://www.assero.co.uk/MDRModels/CDISC/V1#M-CDISC_SDTMMODEL_xxBODSYS> 			<http://www.assero.co.uk/BusinessDomain#ordinal> 			"10" . 
<http://www.assero.co.uk/MDRModels/CDISC/V1#M-CDISC_SDTMMODEL_xxBODSYS> 			<http://www.assero.co.uk/BusinessDomain#name> 			"--BODSYS" . 
<http://www.assero.co.uk/MDRModels/CDISC/V1#M-CDISC_SDTMMODEL_xxBODSYS> 			<http://www.assero.co.uk/BusinessDomain#prefixed> 			"true" . 
<http://www.assero.co.uk/MDRModels/CDISC/V1#M-CDISC_SDTMMODEL_xxBODSYS> 			<http://www.assero.co.uk/BusinessDomain#description> 			"Body System or Organ Class that is involved for a finding from the standard hierarchy for dictionary-coded results. Example: MedDRA SOC." . 
<http://www.assero.co.uk/MDRModels/CDISC/V1#IG-CDISC_SDTMIG_C_EXPECTED> 			<http://www.w3.org/1999/02/22-rdf-syntax-ns#type> 			<http://www.assero.co.uk/BusinessDomain#VariableCompliance> . 
<http://www.assero.co.uk/MDRModels/CDISC/V1#IG-CDISC_SDTMIG_C_EXPECTED> 			<http://www.w3.org/2000/01/rdf-schema#label> 			"Expected" . 
<http://www.assero.co.uk/MDRModels/CDISC/V1#IG-CDISC_SDTMIGAE_AELOC> 			<http://www.w3.org/1999/02/22-rdf-syntax-ns#type> 			<http://www.assero.co.uk/BusinessDomain#IgVariable> . 
<http://www.assero.co.uk/MDRModels/CDISC/V1#IG-CDISC_SDTMIGAE_AELOC> 			<http://www.w3.org/2000/01/rdf-schema#label> 			"Location of Event" . 
<http://www.assero.co.uk/MDRModels/CDISC/V1#IG-CDISC_SDTMIGAE_AELOC> 			<http://www.assero.co.uk/BusinessDomain#basedOnVariable> 			<http://www.assero.co.uk/MDRModels/CDISC/V1#IG-CDISC_SDTMIGAE_AELOC_VR> . 
<http://www.assero.co.uk/MDRModels/CDISC/V1#IG-CDISC_SDTMIGAE_AELOC> 			<http://www.assero.co.uk/BusinessDomain#compliance> 			<http://www.assero.co.uk/MDRModels/CDISC/V1#IG-CDISC_SDTMIG_C_PERMISSIBLE> . 
<http://www.assero.co.uk/MDRModels/CDISC/V1#IG-CDISC_SDTMIGAE_AELOC> 			<http://www.assero.co.uk/BusinessDomain#ordinal> 			"15" . 
<http://www.assero.co.uk/MDRModels/CDISC/V1#IG-CDISC_SDTMIGAE_AELOC> 			<http://www.assero.co.uk/BusinessDomain#name> 			"AELOC" . 
<http://www.assero.co.uk/MDRModels/CDISC/V1#IG-CDISC_SDTMIGAE_AELOC> 			<http://www.assero.co.uk/BusinessDomain#notes> 			"Describes anatomical location relevant for the event (e.g., LEFT ARM for skin rash)." . 
<http://www.assero.co.uk/MDRModels/CDISC/V1#IG-CDISC_SDTMIGAE_AELOC> 			<http://www.assero.co.uk/BusinessDomain#controlled_term_or_format> 			"LOC" . 
<http://www.assero.co.uk/MDRModels/CDISC/V1#IG-CDISC_SDTMIGAE_AELOC_VR> 			<http://www.w3.org/1999/02/22-rdf-syntax-ns#type> 			<http://www.assero.co.uk/BusinessOperational#CReference> . 
<http://www.assero.co.uk/MDRModels/CDISC/V1#IG-CDISC_SDTMIGAE_AELOC_VR> 			<http://www.assero.co.uk/BusinessOperational#hasColumn> 			<http://www.assero.co.uk/MDRModels/CDISC/V1#M-CDISC_SDTMMODEL_EVENTS_xxLOC> . 
<http://www.assero.co.uk/MDRModels/CDISC/V1#IG-CDISC_SDTMIGAE_AELOC_VR> 			<http://www.assero.co.uk/BusinessOperational#ordinal> 			"1" . 
<http://www.assero.co.uk/MDRModels/CDISC/V1#IG-CDISC_SDTMIGAE_AELOC_VR> 			<http://www.assero.co.uk/BusinessOperational#enabled> 			"true" . 
<http://www.assero.co.uk/MDRModels/CDISC/V1#IG-CDISC_SDTMIGAE_AELOC_VR> 			<http://www.assero.co.uk/BusinessOperational#optional> 			"false" . 
<http://www.assero.co.uk/MDRModels/CDISC/V1#M-CDISC_SDTMMODEL_EVENTS_xxLOC> 			<http://www.w3.org/1999/02/22-rdf-syntax-ns#type> 			<http://www.assero.co.uk/BusinessDomain#ClassVariable> . 
<http://www.assero.co.uk/MDRModels/CDISC/V1#M-CDISC_SDTMMODEL_EVENTS_xxLOC> 			<http://www.w3.org/2000/01/rdf-schema#label> 			"Location of Event" . 
<http://www.assero.co.uk/MDRModels/CDISC/V1#M-CDISC_SDTMMODEL_EVENTS_xxLOC> 			<http://www.assero.co.uk/BusinessDomain#basedOnVariable> 			<http://www.assero.co.uk/MDRModels/CDISC/V1#M-CDISC_SDTMMODEL_EVENTS_xxLOC_CR> . 
<http://www.assero.co.uk/MDRModels/CDISC/V1#M-CDISC_SDTMMODEL_EVENTS_xxLOC> 			<http://www.assero.co.uk/BusinessDomain#ordinal> 			"18" . 
<http://www.assero.co.uk/MDRModels/CDISC/V1#M-CDISC_SDTMMODEL_EVENTS_xxLOC_CR> 			<http://www.w3.org/1999/02/22-rdf-syntax-ns#type> 			<http://www.assero.co.uk/BusinessOperational#CReference> . 
<http://www.assero.co.uk/MDRModels/CDISC/V1#M-CDISC_SDTMMODEL_EVENTS_xxLOC_CR> 			<http://www.assero.co.uk/BusinessOperational#hasColumn> 			<http://www.assero.co.uk/MDRModels/CDISC/V1#M-CDISC_SDTMMODEL_xxLOC> . 
<http://www.assero.co.uk/MDRModels/CDISC/V1#M-CDISC_SDTMMODEL_EVENTS_xxLOC_CR> 			<http://www.assero.co.uk/BusinessOperational#ordinal> 			"18" . 
<http://www.assero.co.uk/MDRModels/CDISC/V1#M-CDISC_SDTMMODEL_EVENTS_xxLOC_CR> 			<http://www.assero.co.uk/BusinessOperational#enabled> 			"true" . 
<http://www.assero.co.uk/MDRModels/CDISC/V1#M-CDISC_SDTMMODEL_EVENTS_xxLOC_CR> 			<http://www.assero.co.uk/BusinessOperational#optional> 			"false" . 
<http://www.assero.co.uk/MDRModels/CDISC/V1#M-CDISC_SDTMMODEL_xxLOC> 			<http://www.w3.org/1999/02/22-rdf-syntax-ns#type> 			<http://www.assero.co.uk/BusinessDomain#ModelVariable> . 
<http://www.assero.co.uk/MDRModels/CDISC/V1#M-CDISC_SDTMMODEL_xxLOC> 			<http://www.w3.org/2000/01/rdf-schema#label> 			"Location of Event" . 
<http://www.assero.co.uk/MDRModels/CDISC/V1#M-CDISC_SDTMMODEL_xxLOC> 			<http://www.w3.org/2000/01/rdf-schema#label> 			"Location Used for the Measurement" . 
<http://www.assero.co.uk/MDRModels/CDISC/V1#M-CDISC_SDTMMODEL_xxLOC> 			<http://www.w3.org/2000/01/rdf-schema#label> 			"Location of Dose Administration" . 
<http://www.assero.co.uk/MDRModels/CDISC/V1#M-CDISC_SDTMMODEL_xxLOC> 			<http://www.assero.co.uk/BusinessDomain#classifiedAs> 			<http://www.assero.co.uk/MDRModels/CDISC/V1#M-CDISC_SDTMMODEL_SC_RECORDQUALIFIER> . 
<http://www.assero.co.uk/MDRModels/CDISC/V1#M-CDISC_SDTMMODEL_xxLOC> 			<http://www.assero.co.uk/BusinessDomain#typedAs> 			<http://www.assero.co.uk/MDRModels/CDISC/V1#M-CDISC_SDTMMODEL_DT_CHAR> . 
<http://www.assero.co.uk/MDRModels/CDISC/V1#M-CDISC_SDTMMODEL_xxLOC> 			<http://www.assero.co.uk/BusinessDomain#rule> 			"" . 
<http://www.assero.co.uk/MDRModels/CDISC/V1#M-CDISC_SDTMMODEL_xxLOC> 			<http://www.assero.co.uk/BusinessDomain#ordinal> 			"11" . 
<http://www.assero.co.uk/MDRModels/CDISC/V1#M-CDISC_SDTMMODEL_xxLOC> 			<http://www.assero.co.uk/BusinessDomain#ordinal> 			"22" . 
<http://www.assero.co.uk/MDRModels/CDISC/V1#M-CDISC_SDTMMODEL_xxLOC> 			<http://www.assero.co.uk/BusinessDomain#ordinal> 			"27" . 
<http://www.assero.co.uk/MDRModels/CDISC/V1#M-CDISC_SDTMMODEL_xxLOC> 			<http://www.assero.co.uk/BusinessDomain#name> 			"--LOC" . 
<http://www.assero.co.uk/MDRModels/CDISC/V1#M-CDISC_SDTMMODEL_xxLOC> 			<http://www.assero.co.uk/BusinessDomain#prefixed> 			"true" . 
<http://www.assero.co.uk/MDRModels/CDISC/V1#M-CDISC_SDTMMODEL_xxLOC> 			<http://www.assero.co.uk/BusinessDomain#description> 			"Anatomical location of an intervention, such as an injection site. Example: RIGHT ARM for an injection." . 
<http://www.assero.co.uk/MDRModels/CDISC/V1#IG-CDISC_SDTMIGAE_AESEV> 			<http://www.w3.org/1999/02/22-rdf-syntax-ns#type> 			<http://www.assero.co.uk/BusinessDomain#IgVariable> . 
<http://www.assero.co.uk/MDRModels/CDISC/V1#IG-CDISC_SDTMIGAE_AESEV> 			<http://www.w3.org/2000/01/rdf-schema#label> 			"Severity/Intensity" . 
<http://www.assero.co.uk/MDRModels/CDISC/V1#IG-CDISC_SDTMIGAE_AESEV> 			<http://www.assero.co.uk/BusinessDomain#basedOnVariable> 			<http://www.assero.co.uk/MDRModels/CDISC/V1#IG-CDISC_SDTMIGAE_AESEV_VR> . 
<http://www.assero.co.uk/MDRModels/CDISC/V1#IG-CDISC_SDTMIGAE_AESEV> 			<http://www.assero.co.uk/BusinessDomain#compliance> 			<http://www.assero.co.uk/MDRModels/CDISC/V1#IG-CDISC_SDTMIG_C_PERMISSIBLE> . 
<http://www.assero.co.uk/MDRModels/CDISC/V1#IG-CDISC_SDTMIGAE_AESEV> 			<http://www.assero.co.uk/BusinessDomain#ordinal> 			"16" . 
<http://www.assero.co.uk/MDRModels/CDISC/V1#IG-CDISC_SDTMIGAE_AESEV> 			<http://www.assero.co.uk/BusinessDomain#name> 			"AESEV" . 
<http://www.assero.co.uk/MDRModels/CDISC/V1#IG-CDISC_SDTMIGAE_AESEV> 			<http://www.assero.co.uk/BusinessDomain#notes> 			"The severity or intensity of the event. Examples: MILD, MODERATE, SEVERE." . 
<http://www.assero.co.uk/MDRModels/CDISC/V1#IG-CDISC_SDTMIGAE_AESEV> 			<http://www.assero.co.uk/BusinessDomain#controlled_term_or_format> 			"AESEV" . 
<http://www.assero.co.uk/MDRModels/CDISC/V1#IG-CDISC_SDTMIGAE_AESEV_VR> 			<http://www.w3.org/1999/02/22-rdf-syntax-ns#type> 			<http://www.assero.co.uk/BusinessOperational#CReference> . 
<http://www.assero.co.uk/MDRModels/CDISC/V1#IG-CDISC_SDTMIGAE_AESEV_VR> 			<http://www.assero.co.uk/BusinessOperational#hasColumn> 			<http://www.assero.co.uk/MDRModels/CDISC/V1#M-CDISC_SDTMMODEL_EVENTS_xxSEV> . 
<http://www.assero.co.uk/MDRModels/CDISC/V1#IG-CDISC_SDTMIGAE_AESEV_VR> 			<http://www.assero.co.uk/BusinessOperational#ordinal> 			"1" . 
<http://www.assero.co.uk/MDRModels/CDISC/V1#IG-CDISC_SDTMIGAE_AESEV_VR> 			<http://www.assero.co.uk/BusinessOperational#enabled> 			"true" . 
<http://www.assero.co.uk/MDRModels/CDISC/V1#IG-CDISC_SDTMIGAE_AESEV_VR> 			<http://www.assero.co.uk/BusinessOperational#optional> 			"false" . 
<http://www.assero.co.uk/MDRModels/CDISC/V1#M-CDISC_SDTMMODEL_EVENTS_xxSEV> 			<http://www.w3.org/1999/02/22-rdf-syntax-ns#type> 			<http://www.assero.co.uk/BusinessDomain#ClassVariable> . 
<http://www.assero.co.uk/MDRModels/CDISC/V1#M-CDISC_SDTMMODEL_EVENTS_xxSEV> 			<http://www.w3.org/2000/01/rdf-schema#label> 			"Severity/Intensity" . 
<http://www.assero.co.uk/MDRModels/CDISC/V1#M-CDISC_SDTMMODEL_EVENTS_xxSEV> 			<http://www.assero.co.uk/BusinessDomain#basedOnVariable> 			<http://www.assero.co.uk/MDRModels/CDISC/V1#M-CDISC_SDTMMODEL_EVENTS_xxSEV_CR> . 
<http://www.assero.co.uk/MDRModels/CDISC/V1#M-CDISC_SDTMMODEL_EVENTS_xxSEV> 			<http://www.assero.co.uk/BusinessDomain#ordinal> 			"19" . 
<http://www.assero.co.uk/MDRModels/CDISC/V1#M-CDISC_SDTMMODEL_EVENTS_xxSEV_CR> 			<http://www.w3.org/1999/02/22-rdf-syntax-ns#type> 			<http://www.assero.co.uk/BusinessOperational#CReference> . 
<http://www.assero.co.uk/MDRModels/CDISC/V1#M-CDISC_SDTMMODEL_EVENTS_xxSEV_CR> 			<http://www.assero.co.uk/BusinessOperational#hasColumn> 			<http://www.assero.co.uk/MDRModels/CDISC/V1#M-CDISC_SDTMMODEL_xxSEV> . 
<http://www.assero.co.uk/MDRModels/CDISC/V1#M-CDISC_SDTMMODEL_EVENTS_xxSEV_CR> 			<http://www.assero.co.uk/BusinessOperational#ordinal> 			"19" . 
<http://www.assero.co.uk/MDRModels/CDISC/V1#M-CDISC_SDTMMODEL_EVENTS_xxSEV_CR> 			<http://www.assero.co.uk/BusinessOperational#enabled> 			"true" . 
<http://www.assero.co.uk/MDRModels/CDISC/V1#M-CDISC_SDTMMODEL_EVENTS_xxSEV_CR> 			<http://www.assero.co.uk/BusinessOperational#optional> 			"false" . 
<http://www.assero.co.uk/MDRModels/CDISC/V1#M-CDISC_SDTMMODEL_xxSEV> 			<http://www.w3.org/1999/02/22-rdf-syntax-ns#type> 			<http://www.assero.co.uk/BusinessDomain#ModelVariable> . 
<http://www.assero.co.uk/MDRModels/CDISC/V1#M-CDISC_SDTMMODEL_xxSEV> 			<http://www.w3.org/2000/01/rdf-schema#label> 			"Severity/Intensity" . 
<http://www.assero.co.uk/MDRModels/CDISC/V1#M-CDISC_SDTMMODEL_xxSEV> 			<http://www.w3.org/2000/01/rdf-schema#label> 			"Severity" . 
<http://www.assero.co.uk/MDRModels/CDISC/V1#M-CDISC_SDTMMODEL_xxSEV> 			<http://www.assero.co.uk/BusinessDomain#classifiedAs> 			<http://www.assero.co.uk/MDRModels/CDISC/V1#M-CDISC_SDTMMODEL_SC_RECORDQUALIFIER> . 
<http://www.assero.co.uk/MDRModels/CDISC/V1#M-CDISC_SDTMMODEL_xxSEV> 			<http://www.assero.co.uk/BusinessDomain#typedAs> 			<http://www.assero.co.uk/MDRModels/CDISC/V1#M-CDISC_SDTMMODEL_DT_CHAR> . 
<http://www.assero.co.uk/MDRModels/CDISC/V1#M-CDISC_SDTMMODEL_xxSEV> 			<http://www.assero.co.uk/BusinessDomain#rule> 			"" . 
<http://www.assero.co.uk/MDRModels/CDISC/V1#M-CDISC_SDTMMODEL_xxSEV> 			<http://www.assero.co.uk/BusinessDomain#ordinal> 			"12" . 
<http://www.assero.co.uk/MDRModels/CDISC/V1#M-CDISC_SDTMMODEL_xxSEV> 			<http://www.assero.co.uk/BusinessDomain#ordinal> 			"35" . 
<http://www.assero.co.uk/MDRModels/CDISC/V1#M-CDISC_SDTMMODEL_xxSEV> 			<http://www.assero.co.uk/BusinessDomain#name> 			"--SEV" . 
<http://www.assero.co.uk/MDRModels/CDISC/V1#M-CDISC_SDTMMODEL_xxSEV> 			<http://www.assero.co.uk/BusinessDomain#prefixed> 			"true" . 
<http://www.assero.co.uk/MDRModels/CDISC/V1#M-CDISC_SDTMMODEL_xxSEV> 			<http://www.assero.co.uk/BusinessDomain#description> 			"Describes the severity or intensity of a particular finding. Examples: MILD, MODERATE, SEVERE." . 
<http://www.assero.co.uk/MDRModels/CDISC/V1#IG-CDISC_SDTMIGAE_AESER> 			<http://www.w3.org/1999/02/22-rdf-syntax-ns#type> 			<http://www.assero.co.uk/BusinessDomain#IgVariable> . 
<http://www.assero.co.uk/MDRModels/CDISC/V1#IG-CDISC_SDTMIGAE_AESER> 			<http://www.w3.org/2000/01/rdf-schema#label> 			"Serious Event" . 
<http://www.assero.co.uk/MDRModels/CDISC/V1#IG-CDISC_SDTMIGAE_AESER> 			<http://www.assero.co.uk/BusinessDomain#basedOnVariable> 			<http://www.assero.co.uk/MDRModels/CDISC/V1#IG-CDISC_SDTMIGAE_AESER_VR> . 
<http://www.assero.co.uk/MDRModels/CDISC/V1#IG-CDISC_SDTMIGAE_AESER> 			<http://www.assero.co.uk/BusinessDomain#compliance> 			<http://www.assero.co.uk/MDRModels/CDISC/V1#IG-CDISC_SDTMIG_C_EXPECTED> . 
<http://www.assero.co.uk/MDRModels/CDISC/V1#IG-CDISC_SDTMIGAE_AESER> 			<http://www.assero.co.uk/BusinessDomain#ordinal> 			"17" . 
<http://www.assero.co.uk/MDRModels/CDISC/V1#IG-CDISC_SDTMIGAE_AESER> 			<http://www.assero.co.uk/BusinessDomain#name> 			"AESER" . 
<http://www.assero.co.uk/MDRModels/CDISC/V1#IG-CDISC_SDTMIGAE_AESER> 			<http://www.assero.co.uk/BusinessDomain#notes> 			"Is this a serious event?" . 
<http://www.assero.co.uk/MDRModels/CDISC/V1#IG-CDISC_SDTMIGAE_AESER> 			<http://www.assero.co.uk/BusinessDomain#controlled_term_or_format> 			"NY" . 
<http://www.assero.co.uk/MDRModels/CDISC/V1#IG-CDISC_SDTMIGAE_AESER_VR> 			<http://www.w3.org/1999/02/22-rdf-syntax-ns#type> 			<http://www.assero.co.uk/BusinessOperational#CReference> . 
<http://www.assero.co.uk/MDRModels/CDISC/V1#IG-CDISC_SDTMIGAE_AESER_VR> 			<http://www.assero.co.uk/BusinessOperational#hasColumn> 			<http://www.assero.co.uk/MDRModels/CDISC/V1#M-CDISC_SDTMMODEL_EVENTS_xxSER> . 
<http://www.assero.co.uk/MDRModels/CDISC/V1#IG-CDISC_SDTMIGAE_AESER_VR> 			<http://www.assero.co.uk/BusinessOperational#ordinal> 			"1" . 
<http://www.assero.co.uk/MDRModels/CDISC/V1#IG-CDISC_SDTMIGAE_AESER_VR> 			<http://www.assero.co.uk/BusinessOperational#enabled> 			"true" . 
<http://www.assero.co.uk/MDRModels/CDISC/V1#IG-CDISC_SDTMIGAE_AESER_VR> 			<http://www.assero.co.uk/BusinessOperational#optional> 			"false" . 
<http://www.assero.co.uk/MDRModels/CDISC/V1#M-CDISC_SDTMMODEL_EVENTS_xxSER> 			<http://www.w3.org/1999/02/22-rdf-syntax-ns#type> 			<http://www.assero.co.uk/BusinessDomain#ClassVariable> . 
<http://www.assero.co.uk/MDRModels/CDISC/V1#M-CDISC_SDTMMODEL_EVENTS_xxSER> 			<http://www.w3.org/2000/01/rdf-schema#label> 			"Serious Event" . 
<http://www.assero.co.uk/MDRModels/CDISC/V1#M-CDISC_SDTMMODEL_EVENTS_xxSER> 			<http://www.assero.co.uk/BusinessDomain#basedOnVariable> 			<http://www.assero.co.uk/MDRModels/CDISC/V1#M-CDISC_SDTMMODEL_EVENTS_xxSER_CR> . 
<http://www.assero.co.uk/MDRModels/CDISC/V1#M-CDISC_SDTMMODEL_EVENTS_xxSER> 			<http://www.assero.co.uk/BusinessDomain#ordinal> 			"20" . 
<http://www.assero.co.uk/MDRModels/CDISC/V1#M-CDISC_SDTMMODEL_EVENTS_xxSER_CR> 			<http://www.w3.org/1999/02/22-rdf-syntax-ns#type> 			<http://www.assero.co.uk/BusinessOperational#CReference> . 
<http://www.assero.co.uk/MDRModels/CDISC/V1#M-CDISC_SDTMMODEL_EVENTS_xxSER_CR> 			<http://www.assero.co.uk/BusinessOperational#hasColumn> 			<http://www.assero.co.uk/MDRModels/CDISC/V1#M-CDISC_SDTMMODEL_xxSER> . 
<http://www.assero.co.uk/MDRModels/CDISC/V1#M-CDISC_SDTMMODEL_EVENTS_xxSER_CR> 			<http://www.assero.co.uk/BusinessOperational#ordinal> 			"20" . 
<http://www.assero.co.uk/MDRModels/CDISC/V1#M-CDISC_SDTMMODEL_EVENTS_xxSER_CR> 			<http://www.assero.co.uk/BusinessOperational#enabled> 			"true" . 
<http://www.assero.co.uk/MDRModels/CDISC/V1#M-CDISC_SDTMMODEL_EVENTS_xxSER_CR> 			<http://www.assero.co.uk/BusinessOperational#optional> 			"false" . 
<http://www.assero.co.uk/MDRModels/CDISC/V1#M-CDISC_SDTMMODEL_xxSER> 			<http://www.w3.org/1999/02/22-rdf-syntax-ns#type> 			<http://www.assero.co.uk/BusinessDomain#ModelVariable> . 
<http://www.assero.co.uk/MDRModels/CDISC/V1#M-CDISC_SDTMMODEL_xxSER> 			<http://www.w3.org/2000/01/rdf-schema#label> 			"Serious Event" . 
<http://www.assero.co.uk/MDRModels/CDISC/V1#M-CDISC_SDTMMODEL_xxSER> 			<http://www.assero.co.uk/BusinessDomain#classifiedAs> 			<http://www.assero.co.uk/MDRModels/CDISC/V1#M-CDISC_SDTMMODEL_SC_RECORDQUALIFIER> . 
<http://www.assero.co.uk/MDRModels/CDISC/V1#M-CDISC_SDTMMODEL_xxSER> 			<http://www.assero.co.uk/BusinessDomain#typedAs> 			<http://www.assero.co.uk/MDRModels/CDISC/V1#M-CDISC_SDTMMODEL_DT_CHAR> . 
<http://www.assero.co.uk/MDRModels/CDISC/V1#M-CDISC_SDTMMODEL_xxSER> 			<http://www.assero.co.uk/BusinessDomain#rule> 			"" . 
<http://www.assero.co.uk/MDRModels/CDISC/V1#M-CDISC_SDTMMODEL_xxSER> 			<http://www.assero.co.uk/BusinessDomain#ordinal> 			"13" . 
<http://www.assero.co.uk/MDRModels/CDISC/V1#M-CDISC_SDTMMODEL_xxSER> 			<http://www.assero.co.uk/BusinessDomain#name> 			"--SER" . 
<http://www.assero.co.uk/MDRModels/CDISC/V1#M-CDISC_SDTMMODEL_xxSER> 			<http://www.assero.co.uk/BusinessDomain#prefixed> 			"true" . 
<http://www.assero.co.uk/MDRModels/CDISC/V1#M-CDISC_SDTMMODEL_xxSER> 			<http://www.assero.co.uk/BusinessDomain#description> 			"Is this is a serious event? Valid values are 'Y' and 'N'." . 
<http://www.assero.co.uk/MDRModels/CDISC/V1#IG-CDISC_SDTMIGAE_AEACN> 			<http://www.w3.org/1999/02/22-rdf-syntax-ns#type> 			<http://www.assero.co.uk/BusinessDomain#IgVariable> . 
<http://www.assero.co.uk/MDRModels/CDISC/V1#IG-CDISC_SDTMIGAE_AEACN> 			<http://www.w3.org/2000/01/rdf-schema#label> 			"Action Taken with Study Treatment" . 
<http://www.assero.co.uk/MDRModels/CDISC/V1#IG-CDISC_SDTMIGAE_AEACN> 			<http://www.assero.co.uk/BusinessDomain#basedOnVariable> 			<http://www.assero.co.uk/MDRModels/CDISC/V1#IG-CDISC_SDTMIGAE_AEACN_VR> . 
<http://www.assero.co.uk/MDRModels/CDISC/V1#IG-CDISC_SDTMIGAE_AEACN> 			<http://www.assero.co.uk/BusinessDomain#compliance> 			<http://www.assero.co.uk/MDRModels/CDISC/V1#IG-CDISC_SDTMIG_C_EXPECTED> . 
<http://www.assero.co.uk/MDRModels/CDISC/V1#IG-CDISC_SDTMIGAE_AEACN> 			<http://www.assero.co.uk/BusinessDomain#ordinal> 			"18" . 
<http://www.assero.co.uk/MDRModels/CDISC/V1#IG-CDISC_SDTMIGAE_AEACN> 			<http://www.assero.co.uk/BusinessDomain#name> 			"AEACN" . 
<http://www.assero.co.uk/MDRModels/CDISC/V1#IG-CDISC_SDTMIGAE_AEACN> 			<http://www.assero.co.uk/BusinessDomain#notes> 			"Describes changes to the study treatment as a result of the event. AEACN is specifically for the relationship to study treatment. AEACNOTH is for actions unrelated to dose adjustments of study treatment. Examples of AEACN values include ICH E2B values: DRUG WITHDRAWN, DOSE REDUCED, DOSE INCREASED, DOSE NOT CHANGED, UNKNOWN or NOT APPLICABLE" . 
<http://www.assero.co.uk/MDRModels/CDISC/V1#IG-CDISC_SDTMIGAE_AEACN> 			<http://www.assero.co.uk/BusinessDomain#controlled_term_or_format> 			"ACN" . 
<http://www.assero.co.uk/MDRModels/CDISC/V1#IG-CDISC_SDTMIGAE_AEACN_VR> 			<http://www.w3.org/1999/02/22-rdf-syntax-ns#type> 			<http://www.assero.co.uk/BusinessOperational#CReference> . 
<http://www.assero.co.uk/MDRModels/CDISC/V1#IG-CDISC_SDTMIGAE_AEACN_VR> 			<http://www.assero.co.uk/BusinessOperational#hasColumn> 			<http://www.assero.co.uk/MDRModels/CDISC/V1#M-CDISC_SDTMMODEL_EVENTS_xxACN> . 
<http://www.assero.co.uk/MDRModels/CDISC/V1#IG-CDISC_SDTMIGAE_AEACN_VR> 			<http://www.assero.co.uk/BusinessOperational#ordinal> 			"1" . 
<http://www.assero.co.uk/MDRModels/CDISC/V1#IG-CDISC_SDTMIGAE_AEACN_VR> 			<http://www.assero.co.uk/BusinessOperational#enabled> 			"true" . 
<http://www.assero.co.uk/MDRModels/CDISC/V1#IG-CDISC_SDTMIGAE_AEACN_VR> 			<http://www.assero.co.uk/BusinessOperational#optional> 			"false" . 
<http://www.assero.co.uk/MDRModels/CDISC/V1#M-CDISC_SDTMMODEL_EVENTS_xxACN> 			<http://www.w3.org/1999/02/22-rdf-syntax-ns#type> 			<http://www.assero.co.uk/BusinessDomain#ClassVariable> . 
<http://www.assero.co.uk/MDRModels/CDISC/V1#M-CDISC_SDTMMODEL_EVENTS_xxACN> 			<http://www.w3.org/2000/01/rdf-schema#label> 			"Action Taken with Study Treatment" . 
<http://www.assero.co.uk/MDRModels/CDISC/V1#M-CDISC_SDTMMODEL_EVENTS_xxACN> 			<http://www.assero.co.uk/BusinessDomain#basedOnVariable> 			<http://www.assero.co.uk/MDRModels/CDISC/V1#M-CDISC_SDTMMODEL_EVENTS_xxACN_CR> . 
<http://www.assero.co.uk/MDRModels/CDISC/V1#M-CDISC_SDTMMODEL_EVENTS_xxACN> 			<http://www.assero.co.uk/BusinessDomain#ordinal> 			"21" . 
<http://www.assero.co.uk/MDRModels/CDISC/V1#M-CDISC_SDTMMODEL_EVENTS_xxACN_CR> 			<http://www.w3.org/1999/02/22-rdf-syntax-ns#type> 			<http://www.assero.co.uk/BusinessOperational#CReference> . 
<http://www.assero.co.uk/MDRModels/CDISC/V1#M-CDISC_SDTMMODEL_EVENTS_xxACN_CR> 			<http://www.assero.co.uk/BusinessOperational#hasColumn> 			<http://www.assero.co.uk/MDRModels/CDISC/V1#M-CDISC_SDTMMODEL_xxACN> . 
<http://www.assero.co.uk/MDRModels/CDISC/V1#M-CDISC_SDTMMODEL_EVENTS_xxACN_CR> 			<http://www.assero.co.uk/BusinessOperational#ordinal> 			"21" . 
<http://www.assero.co.uk/MDRModels/CDISC/V1#M-CDISC_SDTMMODEL_EVENTS_xxACN_CR> 			<http://www.assero.co.uk/BusinessOperational#enabled> 			"true" . 
<http://www.assero.co.uk/MDRModels/CDISC/V1#M-CDISC_SDTMMODEL_EVENTS_xxACN_CR> 			<http://www.assero.co.uk/BusinessOperational#optional> 			"false" . 
<http://www.assero.co.uk/MDRModels/CDISC/V1#M-CDISC_SDTMMODEL_xxACN> 			<http://www.w3.org/1999/02/22-rdf-syntax-ns#type> 			<http://www.assero.co.uk/BusinessDomain#ModelVariable> . 
<http://www.assero.co.uk/MDRModels/CDISC/V1#M-CDISC_SDTMMODEL_xxACN> 			<http://www.w3.org/2000/01/rdf-schema#label> 			"Action Taken with Study Treatment" . 
<http://www.assero.co.uk/MDRModels/CDISC/V1#M-CDISC_SDTMMODEL_xxACN> 			<http://www.assero.co.uk/BusinessDomain#classifiedAs> 			<http://www.assero.co.uk/MDRModels/CDISC/V1#M-CDISC_SDTMMODEL_SC_RECORDQUALIFIER> . 
<http://www.assero.co.uk/MDRModels/CDISC/V1#M-CDISC_SDTMMODEL_xxACN> 			<http://www.assero.co.uk/BusinessDomain#typedAs> 			<http://www.assero.co.uk/MDRModels/CDISC/V1#M-CDISC_SDTMMODEL_DT_CHAR> . 
<http://www.assero.co.uk/MDRModels/CDISC/V1#M-CDISC_SDTMMODEL_xxACN> 			<http://www.assero.co.uk/BusinessDomain#rule> 			"" . 
<http://www.assero.co.uk/MDRModels/CDISC/V1#M-CDISC_SDTMMODEL_xxACN> 			<http://www.assero.co.uk/BusinessDomain#ordinal> 			"14" . 
<http://www.assero.co.uk/MDRModels/CDISC/V1#M-CDISC_SDTMMODEL_xxACN> 			<http://www.assero.co.uk/BusinessDomain#name> 			"--ACN" . 
<http://www.assero.co.uk/MDRModels/CDISC/V1#M-CDISC_SDTMMODEL_xxACN> 			<http://www.assero.co.uk/BusinessDomain#prefixed> 			"true" . 
<http://www.assero.co.uk/MDRModels/CDISC/V1#M-CDISC_SDTMMODEL_xxACN> 			<http://www.assero.co.uk/BusinessDomain#description> 			"Describes changes made to the study treatment as a result of the event. Examples: DOSE INCREASED, DOSE NOT CHANGED." . 
<http://www.assero.co.uk/MDRModels/CDISC/V1#IG-CDISC_SDTMIGAE_AEACNOTH> 			<http://www.w3.org/1999/02/22-rdf-syntax-ns#type> 			<http://www.assero.co.uk/BusinessDomain#IgVariable> . 
<http://www.assero.co.uk/MDRModels/CDISC/V1#IG-CDISC_SDTMIGAE_AEACNOTH> 			<http://www.w3.org/2000/01/rdf-schema#label> 			"Other Action Taken" . 
<http://www.assero.co.uk/MDRModels/CDISC/V1#IG-CDISC_SDTMIGAE_AEACNOTH> 			<http://www.assero.co.uk/BusinessDomain#basedOnVariable> 			<http://www.assero.co.uk/MDRModels/CDISC/V1#IG-CDISC_SDTMIGAE_AEACNOTH_VR> . 
<http://www.assero.co.uk/MDRModels/CDISC/V1#IG-CDISC_SDTMIGAE_AEACNOTH> 			<http://www.assero.co.uk/BusinessDomain#compliance> 			<http://www.assero.co.uk/MDRModels/CDISC/V1#IG-CDISC_SDTMIG_C_PERMISSIBLE> . 
<http://www.assero.co.uk/MDRModels/CDISC/V1#IG-CDISC_SDTMIGAE_AEACNOTH> 			<http://www.assero.co.uk/BusinessDomain#ordinal> 			"19" . 
<http://www.assero.co.uk/MDRModels/CDISC/V1#IG-CDISC_SDTMIGAE_AEACNOTH> 			<http://www.assero.co.uk/BusinessDomain#name> 			"AEACNOTH" . 
<http://www.assero.co.uk/MDRModels/CDISC/V1#IG-CDISC_SDTMIGAE_AEACNOTH> 			<http://www.assero.co.uk/BusinessDomain#notes> 			"Describes other actions taken as a result of the event that are unrelated to dose adjustments of study treatment. Usually reported as free text. Example: 'TREATMENT UNBLINDED. PRIMARY CARE PHYSICIAN NOTIFIED.'" . 
<http://www.assero.co.uk/MDRModels/CDISC/V1#IG-CDISC_SDTMIGAE_AEACNOTH> 			<http://www.assero.co.uk/BusinessDomain#controlled_term_or_format> 			"" . 
<http://www.assero.co.uk/MDRModels/CDISC/V1#IG-CDISC_SDTMIGAE_AEACNOTH_VR> 			<http://www.w3.org/1999/02/22-rdf-syntax-ns#type> 			<http://www.assero.co.uk/BusinessOperational#CReference> . 
<http://www.assero.co.uk/MDRModels/CDISC/V1#IG-CDISC_SDTMIGAE_AEACNOTH_VR> 			<http://www.assero.co.uk/BusinessOperational#hasColumn> 			<http://www.assero.co.uk/MDRModels/CDISC/V1#M-CDISC_SDTMMODEL_EVENTS_xxACNOTH> . 
<http://www.assero.co.uk/MDRModels/CDISC/V1#IG-CDISC_SDTMIGAE_AEACNOTH_VR> 			<http://www.assero.co.uk/BusinessOperational#ordinal> 			"1" . 
<http://www.assero.co.uk/MDRModels/CDISC/V1#IG-CDISC_SDTMIGAE_AEACNOTH_VR> 			<http://www.assero.co.uk/BusinessOperational#enabled> 			"true" . 
<http://www.assero.co.uk/MDRModels/CDISC/V1#IG-CDISC_SDTMIGAE_AEACNOTH_VR> 			<http://www.assero.co.uk/BusinessOperational#optional> 			"false" . 
<http://www.assero.co.uk/MDRModels/CDISC/V1#M-CDISC_SDTMMODEL_EVENTS_xxACNOTH> 			<http://www.w3.org/1999/02/22-rdf-syntax-ns#type> 			<http://www.assero.co.uk/BusinessDomain#ClassVariable> . 
<http://www.assero.co.uk/MDRModels/CDISC/V1#M-CDISC_SDTMMODEL_EVENTS_xxACNOTH> 			<http://www.w3.org/2000/01/rdf-schema#label> 			"Other Action Taken" . 
<http://www.assero.co.uk/MDRModels/CDISC/V1#M-CDISC_SDTMMODEL_EVENTS_xxACNOTH> 			<http://www.assero.co.uk/BusinessDomain#basedOnVariable> 			<http://www.assero.co.uk/MDRModels/CDISC/V1#M-CDISC_SDTMMODEL_EVENTS_xxACNOTH_CR> . 
<http://www.assero.co.uk/MDRModels/CDISC/V1#M-CDISC_SDTMMODEL_EVENTS_xxACNOTH> 			<http://www.assero.co.uk/BusinessDomain#ordinal> 			"22" . 
<http://www.assero.co.uk/MDRModels/CDISC/V1#M-CDISC_SDTMMODEL_EVENTS_xxACNOTH_CR> 			<http://www.w3.org/1999/02/22-rdf-syntax-ns#type> 			<http://www.assero.co.uk/BusinessOperational#CReference> . 
<http://www.assero.co.uk/MDRModels/CDISC/V1#M-CDISC_SDTMMODEL_EVENTS_xxACNOTH_CR> 			<http://www.assero.co.uk/BusinessOperational#hasColumn> 			<http://www.assero.co.uk/MDRModels/CDISC/V1#M-CDISC_SDTMMODEL_xxACNOTH> . 
<http://www.assero.co.uk/MDRModels/CDISC/V1#M-CDISC_SDTMMODEL_EVENTS_xxACNOTH_CR> 			<http://www.assero.co.uk/BusinessOperational#ordinal> 			"22" . 
<http://www.assero.co.uk/MDRModels/CDISC/V1#M-CDISC_SDTMMODEL_EVENTS_xxACNOTH_CR> 			<http://www.assero.co.uk/BusinessOperational#enabled> 			"true" . 
<http://www.assero.co.uk/MDRModels/CDISC/V1#M-CDISC_SDTMMODEL_EVENTS_xxACNOTH_CR> 			<http://www.assero.co.uk/BusinessOperational#optional> 			"false" . 
<http://www.assero.co.uk/MDRModels/CDISC/V1#M-CDISC_SDTMMODEL_xxACNOTH> 			<http://www.w3.org/1999/02/22-rdf-syntax-ns#type> 			<http://www.assero.co.uk/BusinessDomain#ModelVariable> . 
<http://www.assero.co.uk/MDRModels/CDISC/V1#M-CDISC_SDTMMODEL_xxACNOTH> 			<http://www.w3.org/2000/01/rdf-schema#label> 			"Other Action Taken" . 
<http://www.assero.co.uk/MDRModels/CDISC/V1#M-CDISC_SDTMMODEL_xxACNOTH> 			<http://www.assero.co.uk/BusinessDomain#classifiedAs> 			<http://www.assero.co.uk/MDRModels/CDISC/V1#M-CDISC_SDTMMODEL_SC_RECORDQUALIFIER> . 
<http://www.assero.co.uk/MDRModels/CDISC/V1#M-CDISC_SDTMMODEL_xxACNOTH> 			<http://www.assero.co.uk/BusinessDomain#typedAs> 			<http://www.assero.co.uk/MDRModels/CDISC/V1#M-CDISC_SDTMMODEL_DT_CHAR> . 
<http://www.assero.co.uk/MDRModels/CDISC/V1#M-CDISC_SDTMMODEL_xxACNOTH> 			<http://www.assero.co.uk/BusinessDomain#rule> 			"" . 
<http://www.assero.co.uk/MDRModels/CDISC/V1#M-CDISC_SDTMMODEL_xxACNOTH> 			<http://www.assero.co.uk/BusinessDomain#ordinal> 			"15" . 
<http://www.assero.co.uk/MDRModels/CDISC/V1#M-CDISC_SDTMMODEL_xxACNOTH> 			<http://www.assero.co.uk/BusinessDomain#name> 			"--ACNOTH" . 
<http://www.assero.co.uk/MDRModels/CDISC/V1#M-CDISC_SDTMMODEL_xxACNOTH> 			<http://www.assero.co.uk/BusinessDomain#prefixed> 			"true" . 
<http://www.assero.co.uk/MDRModels/CDISC/V1#M-CDISC_SDTMMODEL_xxACNOTH> 			<http://www.assero.co.uk/BusinessDomain#description> 			"Describes other actions taken as a result of the event that are unrelated to dose adjustments of study treatment." . 
<http://www.assero.co.uk/MDRModels/CDISC/V1#IG-CDISC_SDTMIGAE_AEREL> 			<http://www.w3.org/1999/02/22-rdf-syntax-ns#type> 			<http://www.assero.co.uk/BusinessDomain#IgVariable> . 
<http://www.assero.co.uk/MDRModels/CDISC/V1#IG-CDISC_SDTMIGAE_AEREL> 			<http://www.w3.org/2000/01/rdf-schema#label> 			"Causality" . 
<http://www.assero.co.uk/MDRModels/CDISC/V1#IG-CDISC_SDTMIGAE_AEREL> 			<http://www.assero.co.uk/BusinessDomain#basedOnVariable> 			<http://www.assero.co.uk/MDRModels/CDISC/V1#IG-CDISC_SDTMIGAE_AEREL_VR> . 
<http://www.assero.co.uk/MDRModels/CDISC/V1#IG-CDISC_SDTMIGAE_AEREL> 			<http://www.assero.co.uk/BusinessDomain#compliance> 			<http://www.assero.co.uk/MDRModels/CDISC/V1#IG-CDISC_SDTMIG_C_EXPECTED> . 
<http://www.assero.co.uk/MDRModels/CDISC/V1#IG-CDISC_SDTMIGAE_AEREL> 			<http://www.assero.co.uk/BusinessDomain#ordinal> 			"20" . 
<http://www.assero.co.uk/MDRModels/CDISC/V1#IG-CDISC_SDTMIGAE_AEREL> 			<http://www.assero.co.uk/BusinessDomain#name> 			"AEREL" . 
<http://www.assero.co.uk/MDRModels/CDISC/V1#IG-CDISC_SDTMIGAE_AEREL> 			<http://www.assero.co.uk/BusinessDomain#notes> 			"Records the investigator's opinion as to the causality of the event to the treatment. ICH E2A and E2B examples include NOT RELATED, UNLIKELY RELATED, POSSIBLY RELATED, RELATED. Controlled Terminology may be defined in the future. Check with regulatory authority for population of this variable" . 
<http://www.assero.co.uk/MDRModels/CDISC/V1#IG-CDISC_SDTMIGAE_AEREL> 			<http://www.assero.co.uk/BusinessDomain#controlled_term_or_format> 			"" . 
<http://www.assero.co.uk/MDRModels/CDISC/V1#IG-CDISC_SDTMIGAE_AEREL_VR> 			<http://www.w3.org/1999/02/22-rdf-syntax-ns#type> 			<http://www.assero.co.uk/BusinessOperational#CReference> . 
<http://www.assero.co.uk/MDRModels/CDISC/V1#IG-CDISC_SDTMIGAE_AEREL_VR> 			<http://www.assero.co.uk/BusinessOperational#hasColumn> 			<http://www.assero.co.uk/MDRModels/CDISC/V1#M-CDISC_SDTMMODEL_EVENTS_xxREL> . 
<http://www.assero.co.uk/MDRModels/CDISC/V1#IG-CDISC_SDTMIGAE_AEREL_VR> 			<http://www.assero.co.uk/BusinessOperational#ordinal> 			"1" . 
<http://www.assero.co.uk/MDRModels/CDISC/V1#IG-CDISC_SDTMIGAE_AEREL_VR> 			<http://www.assero.co.uk/BusinessOperational#enabled> 			"true" . 
<http://www.assero.co.uk/MDRModels/CDISC/V1#IG-CDISC_SDTMIGAE_AEREL_VR> 			<http://www.assero.co.uk/BusinessOperational#optional> 			"false" . 
<http://www.assero.co.uk/MDRModels/CDISC/V1#M-CDISC_SDTMMODEL_EVENTS_xxREL> 			<http://www.w3.org/1999/02/22-rdf-syntax-ns#type> 			<http://www.assero.co.uk/BusinessDomain#ClassVariable> . 
<http://www.assero.co.uk/MDRModels/CDISC/V1#M-CDISC_SDTMMODEL_EVENTS_xxREL> 			<http://www.w3.org/2000/01/rdf-schema#label> 			"Causality" . 
<http://www.assero.co.uk/MDRModels/CDISC/V1#M-CDISC_SDTMMODEL_EVENTS_xxREL> 			<http://www.assero.co.uk/BusinessDomain#basedOnVariable> 			<http://www.assero.co.uk/MDRModels/CDISC/V1#M-CDISC_SDTMMODEL_EVENTS_xxREL_CR> . 
<http://www.assero.co.uk/MDRModels/CDISC/V1#M-CDISC_SDTMMODEL_EVENTS_xxREL> 			<http://www.assero.co.uk/BusinessDomain#ordinal> 			"23" . 
<http://www.assero.co.uk/MDRModels/CDISC/V1#M-CDISC_SDTMMODEL_EVENTS_xxREL_CR> 			<http://www.w3.org/1999/02/22-rdf-syntax-ns#type> 			<http://www.assero.co.uk/BusinessOperational#CReference> . 
<http://www.assero.co.uk/MDRModels/CDISC/V1#M-CDISC_SDTMMODEL_EVENTS_xxREL_CR> 			<http://www.assero.co.uk/BusinessOperational#hasColumn> 			<http://www.assero.co.uk/MDRModels/CDISC/V1#M-CDISC_SDTMMODEL_xxREL> . 
<http://www.assero.co.uk/MDRModels/CDISC/V1#M-CDISC_SDTMMODEL_EVENTS_xxREL_CR> 			<http://www.assero.co.uk/BusinessOperational#ordinal> 			"23" . 
<http://www.assero.co.uk/MDRModels/CDISC/V1#M-CDISC_SDTMMODEL_EVENTS_xxREL_CR> 			<http://www.assero.co.uk/BusinessOperational#enabled> 			"true" . 
<http://www.assero.co.uk/MDRModels/CDISC/V1#M-CDISC_SDTMMODEL_EVENTS_xxREL_CR> 			<http://www.assero.co.uk/BusinessOperational#optional> 			"false" . 
<http://www.assero.co.uk/MDRModels/CDISC/V1#M-CDISC_SDTMMODEL_xxREL> 			<http://www.w3.org/1999/02/22-rdf-syntax-ns#type> 			<http://www.assero.co.uk/BusinessDomain#ModelVariable> . 
<http://www.assero.co.uk/MDRModels/CDISC/V1#M-CDISC_SDTMMODEL_xxREL> 			<http://www.w3.org/2000/01/rdf-schema#label> 			"Causality" . 
<http://www.assero.co.uk/MDRModels/CDISC/V1#M-CDISC_SDTMMODEL_xxREL> 			<http://www.assero.co.uk/BusinessDomain#classifiedAs> 			<http://www.assero.co.uk/MDRModels/CDISC/V1#M-CDISC_SDTMMODEL_SC_RECORDQUALIFIER> . 
<http://www.assero.co.uk/MDRModels/CDISC/V1#M-CDISC_SDTMMODEL_xxREL> 			<http://www.assero.co.uk/BusinessDomain#typedAs> 			<http://www.assero.co.uk/MDRModels/CDISC/V1#M-CDISC_SDTMMODEL_DT_CHAR> . 
<http://www.assero.co.uk/MDRModels/CDISC/V1#M-CDISC_SDTMMODEL_xxREL> 			<http://www.assero.co.uk/BusinessDomain#rule> 			"" . 
<http://www.assero.co.uk/MDRModels/CDISC/V1#M-CDISC_SDTMMODEL_xxREL> 			<http://www.assero.co.uk/BusinessDomain#ordinal> 			"16" . 
<http://www.assero.co.uk/MDRModels/CDISC/V1#M-CDISC_SDTMMODEL_xxREL> 			<http://www.assero.co.uk/BusinessDomain#name> 			"--REL" . 
<http://www.assero.co.uk/MDRModels/CDISC/V1#M-CDISC_SDTMMODEL_xxREL> 			<http://www.assero.co.uk/BusinessDomain#prefixed> 			"true" . 
<http://www.assero.co.uk/MDRModels/CDISC/V1#M-CDISC_SDTMMODEL_xxREL> 			<http://www.assero.co.uk/BusinessDomain#description> 			"Records the investigator's opinion as to the causality of the event to the treatment. ICH E2A and E2B examples include NOT RELATED, UNLIKELY RELATED, POSSIBLY RELATED, RELATED." . 
<http://www.assero.co.uk/MDRModels/CDISC/V1#IG-CDISC_SDTMIGAE_AERELNST> 			<http://www.w3.org/1999/02/22-rdf-syntax-ns#type> 			<http://www.assero.co.uk/BusinessDomain#IgVariable> . 
<http://www.assero.co.uk/MDRModels/CDISC/V1#IG-CDISC_SDTMIGAE_AERELNST> 			<http://www.w3.org/2000/01/rdf-schema#label> 			"Relationship to Non-Study Treatment" . 
<http://www.assero.co.uk/MDRModels/CDISC/V1#IG-CDISC_SDTMIGAE_AERELNST> 			<http://www.assero.co.uk/BusinessDomain#basedOnVariable> 			<http://www.assero.co.uk/MDRModels/CDISC/V1#IG-CDISC_SDTMIGAE_AERELNST_VR> . 
<http://www.assero.co.uk/MDRModels/CDISC/V1#IG-CDISC_SDTMIGAE_AERELNST> 			<http://www.assero.co.uk/BusinessDomain#compliance> 			<http://www.assero.co.uk/MDRModels/CDISC/V1#IG-CDISC_SDTMIG_C_PERMISSIBLE> . 
<http://www.assero.co.uk/MDRModels/CDISC/V1#IG-CDISC_SDTMIGAE_AERELNST> 			<http://www.assero.co.uk/BusinessDomain#ordinal> 			"21" . 
<http://www.assero.co.uk/MDRModels/CDISC/V1#IG-CDISC_SDTMIGAE_AERELNST> 			<http://www.assero.co.uk/BusinessDomain#name> 			"AERELNST" . 
<http://www.assero.co.uk/MDRModels/CDISC/V1#IG-CDISC_SDTMIGAE_AERELNST> 			<http://www.assero.co.uk/BusinessDomain#notes> 			"Records the investigator's opinion as to whether the event may have been due to a treatment other than study drug. May be reported as free text. Example: 'MORE LIKELY RELATED TO ASPIRIN USE.'." . 
<http://www.assero.co.uk/MDRModels/CDISC/V1#IG-CDISC_SDTMIGAE_AERELNST> 			<http://www.assero.co.uk/BusinessDomain#controlled_term_or_format> 			"" . 
<http://www.assero.co.uk/MDRModels/CDISC/V1#IG-CDISC_SDTMIGAE_AERELNST_VR> 			<http://www.w3.org/1999/02/22-rdf-syntax-ns#type> 			<http://www.assero.co.uk/BusinessOperational#CReference> . 
<http://www.assero.co.uk/MDRModels/CDISC/V1#IG-CDISC_SDTMIGAE_AERELNST_VR> 			<http://www.assero.co.uk/BusinessOperational#hasColumn> 			<http://www.assero.co.uk/MDRModels/CDISC/V1#M-CDISC_SDTMMODEL_EVENTS_xxRELNST> . 
<http://www.assero.co.uk/MDRModels/CDISC/V1#IG-CDISC_SDTMIGAE_AERELNST_VR> 			<http://www.assero.co.uk/BusinessOperational#ordinal> 			"1" . 
<http://www.assero.co.uk/MDRModels/CDISC/V1#IG-CDISC_SDTMIGAE_AERELNST_VR> 			<http://www.assero.co.uk/BusinessOperational#enabled> 			"true" . 
<http://www.assero.co.uk/MDRModels/CDISC/V1#IG-CDISC_SDTMIGAE_AERELNST_VR> 			<http://www.assero.co.uk/BusinessOperational#optional> 			"false" . 
<http://www.assero.co.uk/MDRModels/CDISC/V1#M-CDISC_SDTMMODEL_EVENTS_xxRELNST> 			<http://www.w3.org/1999/02/22-rdf-syntax-ns#type> 			<http://www.assero.co.uk/BusinessDomain#ClassVariable> . 
<http://www.assero.co.uk/MDRModels/CDISC/V1#M-CDISC_SDTMMODEL_EVENTS_xxRELNST> 			<http://www.w3.org/2000/01/rdf-schema#label> 			"Relationship to Non-Study Treatment" . 
<http://www.assero.co.uk/MDRModels/CDISC/V1#M-CDISC_SDTMMODEL_EVENTS_xxRELNST> 			<http://www.assero.co.uk/BusinessDomain#basedOnVariable> 			<http://www.assero.co.uk/MDRModels/CDISC/V1#M-CDISC_SDTMMODEL_EVENTS_xxRELNST_CR> . 
<http://www.assero.co.uk/MDRModels/CDISC/V1#M-CDISC_SDTMMODEL_EVENTS_xxRELNST> 			<http://www.assero.co.uk/BusinessDomain#ordinal> 			"24" . 
<http://www.assero.co.uk/MDRModels/CDISC/V1#M-CDISC_SDTMMODEL_EVENTS_xxRELNST_CR> 			<http://www.w3.org/1999/02/22-rdf-syntax-ns#type> 			<http://www.assero.co.uk/BusinessOperational#CReference> . 
<http://www.assero.co.uk/MDRModels/CDISC/V1#M-CDISC_SDTMMODEL_EVENTS_xxRELNST_CR> 			<http://www.assero.co.uk/BusinessOperational#hasColumn> 			<http://www.assero.co.uk/MDRModels/CDISC/V1#M-CDISC_SDTMMODEL_xxRELNST> . 
<http://www.assero.co.uk/MDRModels/CDISC/V1#M-CDISC_SDTMMODEL_EVENTS_xxRELNST_CR> 			<http://www.assero.co.uk/BusinessOperational#ordinal> 			"24" . 
<http://www.assero.co.uk/MDRModels/CDISC/V1#M-CDISC_SDTMMODEL_EVENTS_xxRELNST_CR> 			<http://www.assero.co.uk/BusinessOperational#enabled> 			"true" . 
<http://www.assero.co.uk/MDRModels/CDISC/V1#M-CDISC_SDTMMODEL_EVENTS_xxRELNST_CR> 			<http://www.assero.co.uk/BusinessOperational#optional> 			"false" . 
<http://www.assero.co.uk/MDRModels/CDISC/V1#M-CDISC_SDTMMODEL_xxRELNST> 			<http://www.w3.org/1999/02/22-rdf-syntax-ns#type> 			<http://www.assero.co.uk/BusinessDomain#ModelVariable> . 
<http://www.assero.co.uk/MDRModels/CDISC/V1#M-CDISC_SDTMMODEL_xxRELNST> 			<http://www.w3.org/2000/01/rdf-schema#label> 			"Relationship to Non-Study Treatment" . 
<http://www.assero.co.uk/MDRModels/CDISC/V1#M-CDISC_SDTMMODEL_xxRELNST> 			<http://www.assero.co.uk/BusinessDomain#classifiedAs> 			<http://www.assero.co.uk/MDRModels/CDISC/V1#M-CDISC_SDTMMODEL_SC_RECORDQUALIFIER> . 
<http://www.assero.co.uk/MDRModels/CDISC/V1#M-CDISC_SDTMMODEL_xxRELNST> 			<http://www.assero.co.uk/BusinessDomain#typedAs> 			<http://www.assero.co.uk/MDRModels/CDISC/V1#M-CDISC_SDTMMODEL_DT_CHAR> . 
<http://www.assero.co.uk/MDRModels/CDISC/V1#M-CDISC_SDTMMODEL_xxRELNST> 			<http://www.assero.co.uk/BusinessDomain#rule> 			"" . 
<http://www.assero.co.uk/MDRModels/CDISC/V1#M-CDISC_SDTMMODEL_xxRELNST> 			<http://www.assero.co.uk/BusinessDomain#ordinal> 			"17" . 
<http://www.assero.co.uk/MDRModels/CDISC/V1#M-CDISC_SDTMMODEL_xxRELNST> 			<http://www.assero.co.uk/BusinessDomain#name> 			"--RELNST" . 
<http://www.assero.co.uk/MDRModels/CDISC/V1#M-CDISC_SDTMMODEL_xxRELNST> 			<http://www.assero.co.uk/BusinessDomain#prefixed> 			"true" . 
<http://www.assero.co.uk/MDRModels/CDISC/V1#M-CDISC_SDTMMODEL_xxRELNST> 			<http://www.assero.co.uk/BusinessDomain#description> 			"An opinion as to whether the event may have been due to a treatment other than study drug. Example: 'MORE LIKELY RELATED TO ASPIRIN USE.'" . 
<http://www.assero.co.uk/MDRModels/CDISC/V1#IG-CDISC_SDTMIGAE_AEPATT> 			<http://www.w3.org/1999/02/22-rdf-syntax-ns#type> 			<http://www.assero.co.uk/BusinessDomain#IgVariable> . 
<http://www.assero.co.uk/MDRModels/CDISC/V1#IG-CDISC_SDTMIGAE_AEPATT> 			<http://www.w3.org/2000/01/rdf-schema#label> 			"Pattern of Adverse Event" . 
<http://www.assero.co.uk/MDRModels/CDISC/V1#IG-CDISC_SDTMIGAE_AEPATT> 			<http://www.assero.co.uk/BusinessDomain#basedOnVariable> 			<http://www.assero.co.uk/MDRModels/CDISC/V1#IG-CDISC_SDTMIGAE_AEPATT_VR> . 
<http://www.assero.co.uk/MDRModels/CDISC/V1#IG-CDISC_SDTMIGAE_AEPATT> 			<http://www.assero.co.uk/BusinessDomain#compliance> 			<http://www.assero.co.uk/MDRModels/CDISC/V1#IG-CDISC_SDTMIG_C_PERMISSIBLE> . 
<http://www.assero.co.uk/MDRModels/CDISC/V1#IG-CDISC_SDTMIGAE_AEPATT> 			<http://www.assero.co.uk/BusinessDomain#ordinal> 			"22" . 
<http://www.assero.co.uk/MDRModels/CDISC/V1#IG-CDISC_SDTMIGAE_AEPATT> 			<http://www.assero.co.uk/BusinessDomain#name> 			"AEPATT" . 
<http://www.assero.co.uk/MDRModels/CDISC/V1#IG-CDISC_SDTMIGAE_AEPATT> 			<http://www.assero.co.uk/BusinessDomain#notes> 			"Used to indicate the pattern of the event over time. Examples: INTERMITTENT, CONTINUOUS, SINGLE EVENT." . 
<http://www.assero.co.uk/MDRModels/CDISC/V1#IG-CDISC_SDTMIGAE_AEPATT> 			<http://www.assero.co.uk/BusinessDomain#controlled_term_or_format> 			"" . 
<http://www.assero.co.uk/MDRModels/CDISC/V1#IG-CDISC_SDTMIGAE_AEPATT_VR> 			<http://www.w3.org/1999/02/22-rdf-syntax-ns#type> 			<http://www.assero.co.uk/BusinessOperational#CReference> . 
<http://www.assero.co.uk/MDRModels/CDISC/V1#IG-CDISC_SDTMIGAE_AEPATT_VR> 			<http://www.assero.co.uk/BusinessOperational#hasColumn> 			<http://www.assero.co.uk/MDRModels/CDISC/V1#M-CDISC_SDTMMODEL_EVENTS_xxPATT> . 
<http://www.assero.co.uk/MDRModels/CDISC/V1#IG-CDISC_SDTMIGAE_AEPATT_VR> 			<http://www.assero.co.uk/BusinessOperational#ordinal> 			"1" . 
<http://www.assero.co.uk/MDRModels/CDISC/V1#IG-CDISC_SDTMIGAE_AEPATT_VR> 			<http://www.assero.co.uk/BusinessOperational#enabled> 			"true" . 
<http://www.assero.co.uk/MDRModels/CDISC/V1#IG-CDISC_SDTMIGAE_AEPATT_VR> 			<http://www.assero.co.uk/BusinessOperational#optional> 			"false" . 
<http://www.assero.co.uk/MDRModels/CDISC/V1#M-CDISC_SDTMMODEL_EVENTS_xxPATT> 			<http://www.w3.org/1999/02/22-rdf-syntax-ns#type> 			<http://www.assero.co.uk/BusinessDomain#ClassVariable> . 
<http://www.assero.co.uk/MDRModels/CDISC/V1#M-CDISC_SDTMMODEL_EVENTS_xxPATT> 			<http://www.w3.org/2000/01/rdf-schema#label> 			"Pattern of Event" . 
<http://www.assero.co.uk/MDRModels/CDISC/V1#M-CDISC_SDTMMODEL_EVENTS_xxPATT> 			<http://www.assero.co.uk/BusinessDomain#basedOnVariable> 			<http://www.assero.co.uk/MDRModels/CDISC/V1#M-CDISC_SDTMMODEL_EVENTS_xxPATT_CR> . 
<http://www.assero.co.uk/MDRModels/CDISC/V1#M-CDISC_SDTMMODEL_EVENTS_xxPATT> 			<http://www.assero.co.uk/BusinessDomain#ordinal> 			"25" . 
<http://www.assero.co.uk/MDRModels/CDISC/V1#M-CDISC_SDTMMODEL_EVENTS_xxPATT_CR> 			<http://www.w3.org/1999/02/22-rdf-syntax-ns#type> 			<http://www.assero.co.uk/BusinessOperational#CReference> . 
<http://www.assero.co.uk/MDRModels/CDISC/V1#M-CDISC_SDTMMODEL_EVENTS_xxPATT_CR> 			<http://www.assero.co.uk/BusinessOperational#hasColumn> 			<http://www.assero.co.uk/MDRModels/CDISC/V1#M-CDISC_SDTMMODEL_xxPATT> . 
<http://www.assero.co.uk/MDRModels/CDISC/V1#M-CDISC_SDTMMODEL_EVENTS_xxPATT_CR> 			<http://www.assero.co.uk/BusinessOperational#ordinal> 			"25" . 
<http://www.assero.co.uk/MDRModels/CDISC/V1#M-CDISC_SDTMMODEL_EVENTS_xxPATT_CR> 			<http://www.assero.co.uk/BusinessOperational#enabled> 			"true" . 
<http://www.assero.co.uk/MDRModels/CDISC/V1#M-CDISC_SDTMMODEL_EVENTS_xxPATT_CR> 			<http://www.assero.co.uk/BusinessOperational#optional> 			"false" . 
<http://www.assero.co.uk/MDRModels/CDISC/V1#M-CDISC_SDTMMODEL_xxPATT> 			<http://www.w3.org/1999/02/22-rdf-syntax-ns#type> 			<http://www.assero.co.uk/BusinessDomain#ModelVariable> . 
<http://www.assero.co.uk/MDRModels/CDISC/V1#M-CDISC_SDTMMODEL_xxPATT> 			<http://www.w3.org/2000/01/rdf-schema#label> 			"Pattern of Event" . 
<http://www.assero.co.uk/MDRModels/CDISC/V1#M-CDISC_SDTMMODEL_xxPATT> 			<http://www.assero.co.uk/BusinessDomain#classifiedAs> 			<http://www.assero.co.uk/MDRModels/CDISC/V1#M-CDISC_SDTMMODEL_SC_RECORDQUALIFIER> . 
<http://www.assero.co.uk/MDRModels/CDISC/V1#M-CDISC_SDTMMODEL_xxPATT> 			<http://www.assero.co.uk/BusinessDomain#typedAs> 			<http://www.assero.co.uk/MDRModels/CDISC/V1#M-CDISC_SDTMMODEL_DT_CHAR> . 
<http://www.assero.co.uk/MDRModels/CDISC/V1#M-CDISC_SDTMMODEL_xxPATT> 			<http://www.assero.co.uk/BusinessDomain#rule> 			"" . 
<http://www.assero.co.uk/MDRModels/CDISC/V1#M-CDISC_SDTMMODEL_xxPATT> 			<http://www.assero.co.uk/BusinessDomain#ordinal> 			"18" . 
<http://www.assero.co.uk/MDRModels/CDISC/V1#M-CDISC_SDTMMODEL_xxPATT> 			<http://www.assero.co.uk/BusinessDomain#name> 			"--PATT" . 
<http://www.assero.co.uk/MDRModels/CDISC/V1#M-CDISC_SDTMMODEL_xxPATT> 			<http://www.assero.co.uk/BusinessDomain#prefixed> 			"true" . 
<http://www.assero.co.uk/MDRModels/CDISC/V1#M-CDISC_SDTMMODEL_xxPATT> 			<http://www.assero.co.uk/BusinessDomain#description> 			"Used to indicate the pattern of the event over time. Examples: INTERMITTENT, CONTINUOUS, SINGLE EVENT." . 
<http://www.assero.co.uk/MDRModels/CDISC/V1#IG-CDISC_SDTMIGAE_AEOUT> 			<http://www.w3.org/1999/02/22-rdf-syntax-ns#type> 			<http://www.assero.co.uk/BusinessDomain#IgVariable> . 
<http://www.assero.co.uk/MDRModels/CDISC/V1#IG-CDISC_SDTMIGAE_AEOUT> 			<http://www.w3.org/2000/01/rdf-schema#label> 			"Outcome of Adverse Event" . 
<http://www.assero.co.uk/MDRModels/CDISC/V1#IG-CDISC_SDTMIGAE_AEOUT> 			<http://www.assero.co.uk/BusinessDomain#basedOnVariable> 			<http://www.assero.co.uk/MDRModels/CDISC/V1#IG-CDISC_SDTMIGAE_AEOUT_VR> . 
<http://www.assero.co.uk/MDRModels/CDISC/V1#IG-CDISC_SDTMIGAE_AEOUT> 			<http://www.assero.co.uk/BusinessDomain#compliance> 			<http://www.assero.co.uk/MDRModels/CDISC/V1#IG-CDISC_SDTMIG_C_PERMISSIBLE> . 
<http://www.assero.co.uk/MDRModels/CDISC/V1#IG-CDISC_SDTMIGAE_AEOUT> 			<http://www.assero.co.uk/BusinessDomain#ordinal> 			"23" . 
<http://www.assero.co.uk/MDRModels/CDISC/V1#IG-CDISC_SDTMIGAE_AEOUT> 			<http://www.assero.co.uk/BusinessDomain#name> 			"AEOUT" . 
<http://www.assero.co.uk/MDRModels/CDISC/V1#IG-CDISC_SDTMIGAE_AEOUT> 			<http://www.assero.co.uk/BusinessDomain#notes> 			"Description of the outcome of an event." . 
<http://www.assero.co.uk/MDRModels/CDISC/V1#IG-CDISC_SDTMIGAE_AEOUT> 			<http://www.assero.co.uk/BusinessDomain#controlled_term_or_format> 			"OUT" . 
<http://www.assero.co.uk/MDRModels/CDISC/V1#IG-CDISC_SDTMIGAE_AEOUT_VR> 			<http://www.w3.org/1999/02/22-rdf-syntax-ns#type> 			<http://www.assero.co.uk/BusinessOperational#CReference> . 
<http://www.assero.co.uk/MDRModels/CDISC/V1#IG-CDISC_SDTMIGAE_AEOUT_VR> 			<http://www.assero.co.uk/BusinessOperational#hasColumn> 			<http://www.assero.co.uk/MDRModels/CDISC/V1#M-CDISC_SDTMMODEL_EVENTS_xxOUT> . 
<http://www.assero.co.uk/MDRModels/CDISC/V1#IG-CDISC_SDTMIGAE_AEOUT_VR> 			<http://www.assero.co.uk/BusinessOperational#ordinal> 			"1" . 
<http://www.assero.co.uk/MDRModels/CDISC/V1#IG-CDISC_SDTMIGAE_AEOUT_VR> 			<http://www.assero.co.uk/BusinessOperational#enabled> 			"true" . 
<http://www.assero.co.uk/MDRModels/CDISC/V1#IG-CDISC_SDTMIGAE_AEOUT_VR> 			<http://www.assero.co.uk/BusinessOperational#optional> 			"false" . 
<http://www.assero.co.uk/MDRModels/CDISC/V1#M-CDISC_SDTMMODEL_EVENTS_xxOUT> 			<http://www.w3.org/1999/02/22-rdf-syntax-ns#type> 			<http://www.assero.co.uk/BusinessDomain#ClassVariable> . 
<http://www.assero.co.uk/MDRModels/CDISC/V1#M-CDISC_SDTMMODEL_EVENTS_xxOUT> 			<http://www.w3.org/2000/01/rdf-schema#label> 			"Outcome of Event" . 
<http://www.assero.co.uk/MDRModels/CDISC/V1#M-CDISC_SDTMMODEL_EVENTS_xxOUT> 			<http://www.assero.co.uk/BusinessDomain#basedOnVariable> 			<http://www.assero.co.uk/MDRModels/CDISC/V1#M-CDISC_SDTMMODEL_EVENTS_xxOUT_CR> . 
<http://www.assero.co.uk/MDRModels/CDISC/V1#M-CDISC_SDTMMODEL_EVENTS_xxOUT> 			<http://www.assero.co.uk/BusinessDomain#ordinal> 			"26" . 
<http://www.assero.co.uk/MDRModels/CDISC/V1#M-CDISC_SDTMMODEL_EVENTS_xxOUT_CR> 			<http://www.w3.org/1999/02/22-rdf-syntax-ns#type> 			<http://www.assero.co.uk/BusinessOperational#CReference> . 
<http://www.assero.co.uk/MDRModels/CDISC/V1#M-CDISC_SDTMMODEL_EVENTS_xxOUT_CR> 			<http://www.assero.co.uk/BusinessOperational#hasColumn> 			<http://www.assero.co.uk/MDRModels/CDISC/V1#M-CDISC_SDTMMODEL_xxOUT> . 
<http://www.assero.co.uk/MDRModels/CDISC/V1#M-CDISC_SDTMMODEL_EVENTS_xxOUT_CR> 			<http://www.assero.co.uk/BusinessOperational#ordinal> 			"26" . 
<http://www.assero.co.uk/MDRModels/CDISC/V1#M-CDISC_SDTMMODEL_EVENTS_xxOUT_CR> 			<http://www.assero.co.uk/BusinessOperational#enabled> 			"true" . 
<http://www.assero.co.uk/MDRModels/CDISC/V1#M-CDISC_SDTMMODEL_EVENTS_xxOUT_CR> 			<http://www.assero.co.uk/BusinessOperational#optional> 			"false" . 
<http://www.assero.co.uk/MDRModels/CDISC/V1#M-CDISC_SDTMMODEL_xxOUT> 			<http://www.w3.org/1999/02/22-rdf-syntax-ns#type> 			<http://www.assero.co.uk/BusinessDomain#ModelVariable> . 
<http://www.assero.co.uk/MDRModels/CDISC/V1#M-CDISC_SDTMMODEL_xxOUT> 			<http://www.w3.org/2000/01/rdf-schema#label> 			"Outcome of Event" . 
<http://www.assero.co.uk/MDRModels/CDISC/V1#M-CDISC_SDTMMODEL_xxOUT> 			<http://www.assero.co.uk/BusinessDomain#classifiedAs> 			<http://www.assero.co.uk/MDRModels/CDISC/V1#M-CDISC_SDTMMODEL_SC_RECORDQUALIFIER> . 
<http://www.assero.co.uk/MDRModels/CDISC/V1#M-CDISC_SDTMMODEL_xxOUT> 			<http://www.assero.co.uk/BusinessDomain#typedAs> 			<http://www.assero.co.uk/MDRModels/CDISC/V1#M-CDISC_SDTMMODEL_DT_CHAR> . 
<http://www.assero.co.uk/MDRModels/CDISC/V1#M-CDISC_SDTMMODEL_xxOUT> 			<http://www.assero.co.uk/BusinessDomain#rule> 			"" . 
<http://www.assero.co.uk/MDRModels/CDISC/V1#M-CDISC_SDTMMODEL_xxOUT> 			<http://www.assero.co.uk/BusinessDomain#ordinal> 			"19" . 
<http://www.assero.co.uk/MDRModels/CDISC/V1#M-CDISC_SDTMMODEL_xxOUT> 			<http://www.assero.co.uk/BusinessDomain#name> 			"--OUT" . 
<http://www.assero.co.uk/MDRModels/CDISC/V1#M-CDISC_SDTMMODEL_xxOUT> 			<http://www.assero.co.uk/BusinessDomain#prefixed> 			"true" . 
<http://www.assero.co.uk/MDRModels/CDISC/V1#M-CDISC_SDTMMODEL_xxOUT> 			<http://www.assero.co.uk/BusinessDomain#description> 			"Description of the outcome of an event. Examples: RECOVERED/RESOLVED, FATAL." . 
<http://www.assero.co.uk/MDRModels/CDISC/V1#IG-CDISC_SDTMIGAE_AESCAN> 			<http://www.w3.org/1999/02/22-rdf-syntax-ns#type> 			<http://www.assero.co.uk/BusinessDomain#IgVariable> . 
<http://www.assero.co.uk/MDRModels/CDISC/V1#IG-CDISC_SDTMIGAE_AESCAN> 			<http://www.w3.org/2000/01/rdf-schema#label> 			"Involves Cancer" . 
<http://www.assero.co.uk/MDRModels/CDISC/V1#IG-CDISC_SDTMIGAE_AESCAN> 			<http://www.assero.co.uk/BusinessDomain#basedOnVariable> 			<http://www.assero.co.uk/MDRModels/CDISC/V1#IG-CDISC_SDTMIGAE_AESCAN_VR> . 
<http://www.assero.co.uk/MDRModels/CDISC/V1#IG-CDISC_SDTMIGAE_AESCAN> 			<http://www.assero.co.uk/BusinessDomain#compliance> 			<http://www.assero.co.uk/MDRModels/CDISC/V1#IG-CDISC_SDTMIG_C_PERMISSIBLE> . 
<http://www.assero.co.uk/MDRModels/CDISC/V1#IG-CDISC_SDTMIGAE_AESCAN> 			<http://www.assero.co.uk/BusinessDomain#ordinal> 			"24" . 
<http://www.assero.co.uk/MDRModels/CDISC/V1#IG-CDISC_SDTMIGAE_AESCAN> 			<http://www.assero.co.uk/BusinessDomain#name> 			"AESCAN" . 
<http://www.assero.co.uk/MDRModels/CDISC/V1#IG-CDISC_SDTMIGAE_AESCAN> 			<http://www.assero.co.uk/BusinessDomain#notes> 			"Was the serious event associated with the development of cancer?" . 
<http://www.assero.co.uk/MDRModels/CDISC/V1#IG-CDISC_SDTMIGAE_AESCAN> 			<http://www.assero.co.uk/BusinessDomain#controlled_term_or_format> 			"NY" . 
<http://www.assero.co.uk/MDRModels/CDISC/V1#IG-CDISC_SDTMIGAE_AESCAN_VR> 			<http://www.w3.org/1999/02/22-rdf-syntax-ns#type> 			<http://www.assero.co.uk/BusinessOperational#CReference> . 
<http://www.assero.co.uk/MDRModels/CDISC/V1#IG-CDISC_SDTMIGAE_AESCAN_VR> 			<http://www.assero.co.uk/BusinessOperational#hasColumn> 			<http://www.assero.co.uk/MDRModels/CDISC/V1#M-CDISC_SDTMMODEL_EVENTS_xxSCAN> . 
<http://www.assero.co.uk/MDRModels/CDISC/V1#IG-CDISC_SDTMIGAE_AESCAN_VR> 			<http://www.assero.co.uk/BusinessOperational#ordinal> 			"1" . 
<http://www.assero.co.uk/MDRModels/CDISC/V1#IG-CDISC_SDTMIGAE_AESCAN_VR> 			<http://www.assero.co.uk/BusinessOperational#enabled> 			"true" . 
<http://www.assero.co.uk/MDRModels/CDISC/V1#IG-CDISC_SDTMIGAE_AESCAN_VR> 			<http://www.assero.co.uk/BusinessOperational#optional> 			"false" . 
<http://www.assero.co.uk/MDRModels/CDISC/V1#M-CDISC_SDTMMODEL_EVENTS_xxSCAN> 			<http://www.w3.org/1999/02/22-rdf-syntax-ns#type> 			<http://www.assero.co.uk/BusinessDomain#ClassVariable> . 
<http://www.assero.co.uk/MDRModels/CDISC/V1#M-CDISC_SDTMMODEL_EVENTS_xxSCAN> 			<http://www.w3.org/2000/01/rdf-schema#label> 			"Involves Cancer" . 
<http://www.assero.co.uk/MDRModels/CDISC/V1#M-CDISC_SDTMMODEL_EVENTS_xxSCAN> 			<http://www.assero.co.uk/BusinessDomain#basedOnVariable> 			<http://www.assero.co.uk/MDRModels/CDISC/V1#M-CDISC_SDTMMODEL_EVENTS_xxSCAN_CR> . 
<http://www.assero.co.uk/MDRModels/CDISC/V1#M-CDISC_SDTMMODEL_EVENTS_xxSCAN> 			<http://www.assero.co.uk/BusinessDomain#ordinal> 			"27" . 
<http://www.assero.co.uk/MDRModels/CDISC/V1#M-CDISC_SDTMMODEL_EVENTS_xxSCAN_CR> 			<http://www.w3.org/1999/02/22-rdf-syntax-ns#type> 			<http://www.assero.co.uk/BusinessOperational#CReference> . 
<http://www.assero.co.uk/MDRModels/CDISC/V1#M-CDISC_SDTMMODEL_EVENTS_xxSCAN_CR> 			<http://www.assero.co.uk/BusinessOperational#hasColumn> 			<http://www.assero.co.uk/MDRModels/CDISC/V1#M-CDISC_SDTMMODEL_xxSCAN> . 
<http://www.assero.co.uk/MDRModels/CDISC/V1#M-CDISC_SDTMMODEL_EVENTS_xxSCAN_CR> 			<http://www.assero.co.uk/BusinessOperational#ordinal> 			"27" . 
<http://www.assero.co.uk/MDRModels/CDISC/V1#M-CDISC_SDTMMODEL_EVENTS_xxSCAN_CR> 			<http://www.assero.co.uk/BusinessOperational#enabled> 			"true" . 
<http://www.assero.co.uk/MDRModels/CDISC/V1#M-CDISC_SDTMMODEL_EVENTS_xxSCAN_CR> 			<http://www.assero.co.uk/BusinessOperational#optional> 			"false" . 
<http://www.assero.co.uk/MDRModels/CDISC/V1#M-CDISC_SDTMMODEL_xxSCAN> 			<http://www.w3.org/1999/02/22-rdf-syntax-ns#type> 			<http://www.assero.co.uk/BusinessDomain#ModelVariable> . 
<http://www.assero.co.uk/MDRModels/CDISC/V1#M-CDISC_SDTMMODEL_xxSCAN> 			<http://www.w3.org/2000/01/rdf-schema#label> 			"Involves Cancer" . 
<http://www.assero.co.uk/MDRModels/CDISC/V1#M-CDISC_SDTMMODEL_xxSCAN> 			<http://www.assero.co.uk/BusinessDomain#classifiedAs> 			<http://www.assero.co.uk/MDRModels/CDISC/V1#M-CDISC_SDTMMODEL_SC_RECORDQUALIFIER> . 
<http://www.assero.co.uk/MDRModels/CDISC/V1#M-CDISC_SDTMMODEL_xxSCAN> 			<http://www.assero.co.uk/BusinessDomain#typedAs> 			<http://www.assero.co.uk/MDRModels/CDISC/V1#M-CDISC_SDTMMODEL_DT_CHAR> . 
<http://www.assero.co.uk/MDRModels/CDISC/V1#M-CDISC_SDTMMODEL_xxSCAN> 			<http://www.assero.co.uk/BusinessDomain#rule> 			"" . 
<http://www.assero.co.uk/MDRModels/CDISC/V1#M-CDISC_SDTMMODEL_xxSCAN> 			<http://www.assero.co.uk/BusinessDomain#ordinal> 			"20" . 
<http://www.assero.co.uk/MDRModels/CDISC/V1#M-CDISC_SDTMMODEL_xxSCAN> 			<http://www.assero.co.uk/BusinessDomain#name> 			"--SCAN" . 
<http://www.assero.co.uk/MDRModels/CDISC/V1#M-CDISC_SDTMMODEL_xxSCAN> 			<http://www.assero.co.uk/BusinessDomain#prefixed> 			"true" . 
<http://www.assero.co.uk/MDRModels/CDISC/V1#M-CDISC_SDTMMODEL_xxSCAN> 			<http://www.assero.co.uk/BusinessDomain#description> 			"Was the event associated with the development of cancer? Valid values are 'Y' and 'N'." . 
<http://www.assero.co.uk/MDRModels/CDISC/V1#IG-CDISC_SDTMIGAE_AESCONG> 			<http://www.w3.org/1999/02/22-rdf-syntax-ns#type> 			<http://www.assero.co.uk/BusinessDomain#IgVariable> . 
<http://www.assero.co.uk/MDRModels/CDISC/V1#IG-CDISC_SDTMIGAE_AESCONG> 			<http://www.w3.org/2000/01/rdf-schema#label> 			"Congenital Anomaly or Birth Defect" . 
<http://www.assero.co.uk/MDRModels/CDISC/V1#IG-CDISC_SDTMIGAE_AESCONG> 			<http://www.assero.co.uk/BusinessDomain#basedOnVariable> 			<http://www.assero.co.uk/MDRModels/CDISC/V1#IG-CDISC_SDTMIGAE_AESCONG_VR> . 
<http://www.assero.co.uk/MDRModels/CDISC/V1#IG-CDISC_SDTMIGAE_AESCONG> 			<http://www.assero.co.uk/BusinessDomain#compliance> 			<http://www.assero.co.uk/MDRModels/CDISC/V1#IG-CDISC_SDTMIG_C_PERMISSIBLE> . 
<http://www.assero.co.uk/MDRModels/CDISC/V1#IG-CDISC_SDTMIGAE_AESCONG> 			<http://www.assero.co.uk/BusinessDomain#ordinal> 			"25" . 
<http://www.assero.co.uk/MDRModels/CDISC/V1#IG-CDISC_SDTMIGAE_AESCONG> 			<http://www.assero.co.uk/BusinessDomain#name> 			"AESCONG" . 
<http://www.assero.co.uk/MDRModels/CDISC/V1#IG-CDISC_SDTMIGAE_AESCONG> 			<http://www.assero.co.uk/BusinessDomain#notes> 			"Was the serious event associated with congenital anomaly or birth defect?" . 
<http://www.assero.co.uk/MDRModels/CDISC/V1#IG-CDISC_SDTMIGAE_AESCONG> 			<http://www.assero.co.uk/BusinessDomain#controlled_term_or_format> 			"NY" . 
<http://www.assero.co.uk/MDRModels/CDISC/V1#IG-CDISC_SDTMIGAE_AESCONG_VR> 			<http://www.w3.org/1999/02/22-rdf-syntax-ns#type> 			<http://www.assero.co.uk/BusinessOperational#CReference> . 
<http://www.assero.co.uk/MDRModels/CDISC/V1#IG-CDISC_SDTMIGAE_AESCONG_VR> 			<http://www.assero.co.uk/BusinessOperational#hasColumn> 			<http://www.assero.co.uk/MDRModels/CDISC/V1#M-CDISC_SDTMMODEL_EVENTS_xxSCONG> . 
<http://www.assero.co.uk/MDRModels/CDISC/V1#IG-CDISC_SDTMIGAE_AESCONG_VR> 			<http://www.assero.co.uk/BusinessOperational#ordinal> 			"1" . 
<http://www.assero.co.uk/MDRModels/CDISC/V1#IG-CDISC_SDTMIGAE_AESCONG_VR> 			<http://www.assero.co.uk/BusinessOperational#enabled> 			"true" . 
<http://www.assero.co.uk/MDRModels/CDISC/V1#IG-CDISC_SDTMIGAE_AESCONG_VR> 			<http://www.assero.co.uk/BusinessOperational#optional> 			"false" . 
<http://www.assero.co.uk/MDRModels/CDISC/V1#M-CDISC_SDTMMODEL_EVENTS_xxSCONG> 			<http://www.w3.org/1999/02/22-rdf-syntax-ns#type> 			<http://www.assero.co.uk/BusinessDomain#ClassVariable> . 
<http://www.assero.co.uk/MDRModels/CDISC/V1#M-CDISC_SDTMMODEL_EVENTS_xxSCONG> 			<http://www.w3.org/2000/01/rdf-schema#label> 			"Congenital Anomaly or Birth Defect" . 
<http://www.assero.co.uk/MDRModels/CDISC/V1#M-CDISC_SDTMMODEL_EVENTS_xxSCONG> 			<http://www.assero.co.uk/BusinessDomain#basedOnVariable> 			<http://www.assero.co.uk/MDRModels/CDISC/V1#M-CDISC_SDTMMODEL_EVENTS_xxSCONG_CR> . 
<http://www.assero.co.uk/MDRModels/CDISC/V1#M-CDISC_SDTMMODEL_EVENTS_xxSCONG> 			<http://www.assero.co.uk/BusinessDomain#ordinal> 			"28" . 
<http://www.assero.co.uk/MDRModels/CDISC/V1#M-CDISC_SDTMMODEL_EVENTS_xxSCONG_CR> 			<http://www.w3.org/1999/02/22-rdf-syntax-ns#type> 			<http://www.assero.co.uk/BusinessOperational#CReference> . 
<http://www.assero.co.uk/MDRModels/CDISC/V1#M-CDISC_SDTMMODEL_EVENTS_xxSCONG_CR> 			<http://www.assero.co.uk/BusinessOperational#hasColumn> 			<http://www.assero.co.uk/MDRModels/CDISC/V1#M-CDISC_SDTMMODEL_xxSCONG> . 
<http://www.assero.co.uk/MDRModels/CDISC/V1#M-CDISC_SDTMMODEL_EVENTS_xxSCONG_CR> 			<http://www.assero.co.uk/BusinessOperational#ordinal> 			"28" . 
<http://www.assero.co.uk/MDRModels/CDISC/V1#M-CDISC_SDTMMODEL_EVENTS_xxSCONG_CR> 			<http://www.assero.co.uk/BusinessOperational#enabled> 			"true" . 
<http://www.assero.co.uk/MDRModels/CDISC/V1#M-CDISC_SDTMMODEL_EVENTS_xxSCONG_CR> 			<http://www.assero.co.uk/BusinessOperational#optional> 			"false" . 
<http://www.assero.co.uk/MDRModels/CDISC/V1#M-CDISC_SDTMMODEL_xxSCONG> 			<http://www.w3.org/1999/02/22-rdf-syntax-ns#type> 			<http://www.assero.co.uk/BusinessDomain#ModelVariable> . 
<http://www.assero.co.uk/MDRModels/CDISC/V1#M-CDISC_SDTMMODEL_xxSCONG> 			<http://www.w3.org/2000/01/rdf-schema#label> 			"Congenital Anomaly or Birth Defect" . 
<http://www.assero.co.uk/MDRModels/CDISC/V1#M-CDISC_SDTMMODEL_xxSCONG> 			<http://www.assero.co.uk/BusinessDomain#classifiedAs> 			<http://www.assero.co.uk/MDRModels/CDISC/V1#M-CDISC_SDTMMODEL_SC_RECORDQUALIFIER> . 
<http://www.assero.co.uk/MDRModels/CDISC/V1#M-CDISC_SDTMMODEL_xxSCONG> 			<http://www.assero.co.uk/BusinessDomain#typedAs> 			<http://www.assero.co.uk/MDRModels/CDISC/V1#M-CDISC_SDTMMODEL_DT_CHAR> . 
<http://www.assero.co.uk/MDRModels/CDISC/V1#M-CDISC_SDTMMODEL_xxSCONG> 			<http://www.assero.co.uk/BusinessDomain#rule> 			"" . 
<http://www.assero.co.uk/MDRModels/CDISC/V1#M-CDISC_SDTMMODEL_xxSCONG> 			<http://www.assero.co.uk/BusinessDomain#ordinal> 			"21" . 
<http://www.assero.co.uk/MDRModels/CDISC/V1#M-CDISC_SDTMMODEL_xxSCONG> 			<http://www.assero.co.uk/BusinessDomain#name> 			"--SCONG" . 
<http://www.assero.co.uk/MDRModels/CDISC/V1#M-CDISC_SDTMMODEL_xxSCONG> 			<http://www.assero.co.uk/BusinessDomain#prefixed> 			"true" . 
<http://www.assero.co.uk/MDRModels/CDISC/V1#M-CDISC_SDTMMODEL_xxSCONG> 			<http://www.assero.co.uk/BusinessDomain#description> 			"Was the event associated with congenital anomaly or birth defect? Valid values are 'Y' and 'N'." . 
<http://www.assero.co.uk/MDRModels/CDISC/V1#IG-CDISC_SDTMIGAE_AESDISAB> 			<http://www.w3.org/1999/02/22-rdf-syntax-ns#type> 			<http://www.assero.co.uk/BusinessDomain#IgVariable> . 
<http://www.assero.co.uk/MDRModels/CDISC/V1#IG-CDISC_SDTMIGAE_AESDISAB> 			<http://www.w3.org/2000/01/rdf-schema#label> 			"Persist or Signif Disability/Incapacity" . 
<http://www.assero.co.uk/MDRModels/CDISC/V1#IG-CDISC_SDTMIGAE_AESDISAB> 			<http://www.assero.co.uk/BusinessDomain#basedOnVariable> 			<http://www.assero.co.uk/MDRModels/CDISC/V1#IG-CDISC_SDTMIGAE_AESDISAB_VR> . 
<http://www.assero.co.uk/MDRModels/CDISC/V1#IG-CDISC_SDTMIGAE_AESDISAB> 			<http://www.assero.co.uk/BusinessDomain#compliance> 			<http://www.assero.co.uk/MDRModels/CDISC/V1#IG-CDISC_SDTMIG_C_PERMISSIBLE> . 
<http://www.assero.co.uk/MDRModels/CDISC/V1#IG-CDISC_SDTMIGAE_AESDISAB> 			<http://www.assero.co.uk/BusinessDomain#ordinal> 			"26" . 
<http://www.assero.co.uk/MDRModels/CDISC/V1#IG-CDISC_SDTMIGAE_AESDISAB> 			<http://www.assero.co.uk/BusinessDomain#name> 			"AESDISAB" . 
<http://www.assero.co.uk/MDRModels/CDISC/V1#IG-CDISC_SDTMIGAE_AESDISAB> 			<http://www.assero.co.uk/BusinessDomain#notes> 			"Did the serious event result in persistent or significant disability/incapacity?" . 
<http://www.assero.co.uk/MDRModels/CDISC/V1#IG-CDISC_SDTMIGAE_AESDISAB> 			<http://www.assero.co.uk/BusinessDomain#controlled_term_or_format> 			"NY" . 
<http://www.assero.co.uk/MDRModels/CDISC/V1#IG-CDISC_SDTMIGAE_AESDISAB_VR> 			<http://www.w3.org/1999/02/22-rdf-syntax-ns#type> 			<http://www.assero.co.uk/BusinessOperational#CReference> . 
<http://www.assero.co.uk/MDRModels/CDISC/V1#IG-CDISC_SDTMIGAE_AESDISAB_VR> 			<http://www.assero.co.uk/BusinessOperational#hasColumn> 			<http://www.assero.co.uk/MDRModels/CDISC/V1#M-CDISC_SDTMMODEL_EVENTS_xxSDISAB> . 
<http://www.assero.co.uk/MDRModels/CDISC/V1#IG-CDISC_SDTMIGAE_AESDISAB_VR> 			<http://www.assero.co.uk/BusinessOperational#ordinal> 			"1" . 
<http://www.assero.co.uk/MDRModels/CDISC/V1#IG-CDISC_SDTMIGAE_AESDISAB_VR> 			<http://www.assero.co.uk/BusinessOperational#enabled> 			"true" . 
<http://www.assero.co.uk/MDRModels/CDISC/V1#IG-CDISC_SDTMIGAE_AESDISAB_VR> 			<http://www.assero.co.uk/BusinessOperational#optional> 			"false" . 
<http://www.assero.co.uk/MDRModels/CDISC/V1#M-CDISC_SDTMMODEL_EVENTS_xxSDISAB> 			<http://www.w3.org/1999/02/22-rdf-syntax-ns#type> 			<http://www.assero.co.uk/BusinessDomain#ClassVariable> . 
<http://www.assero.co.uk/MDRModels/CDISC/V1#M-CDISC_SDTMMODEL_EVENTS_xxSDISAB> 			<http://www.w3.org/2000/01/rdf-schema#label> 			"Persist or Signif Disability/Incapacity" . 
<http://www.assero.co.uk/MDRModels/CDISC/V1#M-CDISC_SDTMMODEL_EVENTS_xxSDISAB> 			<http://www.assero.co.uk/BusinessDomain#basedOnVariable> 			<http://www.assero.co.uk/MDRModels/CDISC/V1#M-CDISC_SDTMMODEL_EVENTS_xxSDISAB_CR> . 
<http://www.assero.co.uk/MDRModels/CDISC/V1#M-CDISC_SDTMMODEL_EVENTS_xxSDISAB> 			<http://www.assero.co.uk/BusinessDomain#ordinal> 			"29" . 
<http://www.assero.co.uk/MDRModels/CDISC/V1#M-CDISC_SDTMMODEL_EVENTS_xxSDISAB_CR> 			<http://www.w3.org/1999/02/22-rdf-syntax-ns#type> 			<http://www.assero.co.uk/BusinessOperational#CReference> . 
<http://www.assero.co.uk/MDRModels/CDISC/V1#M-CDISC_SDTMMODEL_EVENTS_xxSDISAB_CR> 			<http://www.assero.co.uk/BusinessOperational#hasColumn> 			<http://www.assero.co.uk/MDRModels/CDISC/V1#M-CDISC_SDTMMODEL_xxSDISAB> . 
<http://www.assero.co.uk/MDRModels/CDISC/V1#M-CDISC_SDTMMODEL_EVENTS_xxSDISAB_CR> 			<http://www.assero.co.uk/BusinessOperational#ordinal> 			"29" . 
<http://www.assero.co.uk/MDRModels/CDISC/V1#M-CDISC_SDTMMODEL_EVENTS_xxSDISAB_CR> 			<http://www.assero.co.uk/BusinessOperational#enabled> 			"true" . 
<http://www.assero.co.uk/MDRModels/CDISC/V1#M-CDISC_SDTMMODEL_EVENTS_xxSDISAB_CR> 			<http://www.assero.co.uk/BusinessOperational#optional> 			"false" . 
<http://www.assero.co.uk/MDRModels/CDISC/V1#M-CDISC_SDTMMODEL_xxSDISAB> 			<http://www.w3.org/1999/02/22-rdf-syntax-ns#type> 			<http://www.assero.co.uk/BusinessDomain#ModelVariable> . 
<http://www.assero.co.uk/MDRModels/CDISC/V1#M-CDISC_SDTMMODEL_xxSDISAB> 			<http://www.w3.org/2000/01/rdf-schema#label> 			"Persist or Signif Disability/Incapacity" . 
<http://www.assero.co.uk/MDRModels/CDISC/V1#M-CDISC_SDTMMODEL_xxSDISAB> 			<http://www.assero.co.uk/BusinessDomain#classifiedAs> 			<http://www.assero.co.uk/MDRModels/CDISC/V1#M-CDISC_SDTMMODEL_SC_RECORDQUALIFIER> . 
<http://www.assero.co.uk/MDRModels/CDISC/V1#M-CDISC_SDTMMODEL_xxSDISAB> 			<http://www.assero.co.uk/BusinessDomain#typedAs> 			<http://www.assero.co.uk/MDRModels/CDISC/V1#M-CDISC_SDTMMODEL_DT_CHAR> . 
<http://www.assero.co.uk/MDRModels/CDISC/V1#M-CDISC_SDTMMODEL_xxSDISAB> 			<http://www.assero.co.uk/BusinessDomain#rule> 			"" . 
<http://www.assero.co.uk/MDRModels/CDISC/V1#M-CDISC_SDTMMODEL_xxSDISAB> 			<http://www.assero.co.uk/BusinessDomain#ordinal> 			"22" . 
<http://www.assero.co.uk/MDRModels/CDISC/V1#M-CDISC_SDTMMODEL_xxSDISAB> 			<http://www.assero.co.uk/BusinessDomain#name> 			"--SDISAB" . 
<http://www.assero.co.uk/MDRModels/CDISC/V1#M-CDISC_SDTMMODEL_xxSDISAB> 			<http://www.assero.co.uk/BusinessDomain#prefixed> 			"true" . 
<http://www.assero.co.uk/MDRModels/CDISC/V1#M-CDISC_SDTMMODEL_xxSDISAB> 			<http://www.assero.co.uk/BusinessDomain#description> 			"Did the event result in persistent or significant disability/incapacity? Valid values are 'Y' and 'N'." . 
<http://www.assero.co.uk/MDRModels/CDISC/V1#IG-CDISC_SDTMIGAE_AESDTH> 			<http://www.w3.org/1999/02/22-rdf-syntax-ns#type> 			<http://www.assero.co.uk/BusinessDomain#IgVariable> . 
<http://www.assero.co.uk/MDRModels/CDISC/V1#IG-CDISC_SDTMIGAE_AESDTH> 			<http://www.w3.org/2000/01/rdf-schema#label> 			"Results in Death" . 
<http://www.assero.co.uk/MDRModels/CDISC/V1#IG-CDISC_SDTMIGAE_AESDTH> 			<http://www.assero.co.uk/BusinessDomain#basedOnVariable> 			<http://www.assero.co.uk/MDRModels/CDISC/V1#IG-CDISC_SDTMIGAE_AESDTH_VR> . 
<http://www.assero.co.uk/MDRModels/CDISC/V1#IG-CDISC_SDTMIGAE_AESDTH> 			<http://www.assero.co.uk/BusinessDomain#compliance> 			<http://www.assero.co.uk/MDRModels/CDISC/V1#IG-CDISC_SDTMIG_C_PERMISSIBLE> . 
<http://www.assero.co.uk/MDRModels/CDISC/V1#IG-CDISC_SDTMIGAE_AESDTH> 			<http://www.assero.co.uk/BusinessDomain#ordinal> 			"27" . 
<http://www.assero.co.uk/MDRModels/CDISC/V1#IG-CDISC_SDTMIGAE_AESDTH> 			<http://www.assero.co.uk/BusinessDomain#name> 			"AESDTH" . 
<http://www.assero.co.uk/MDRModels/CDISC/V1#IG-CDISC_SDTMIGAE_AESDTH> 			<http://www.assero.co.uk/BusinessDomain#notes> 			"Did the serious event result in death?" . 
<http://www.assero.co.uk/MDRModels/CDISC/V1#IG-CDISC_SDTMIGAE_AESDTH> 			<http://www.assero.co.uk/BusinessDomain#controlled_term_or_format> 			"NY" . 
<http://www.assero.co.uk/MDRModels/CDISC/V1#IG-CDISC_SDTMIGAE_AESDTH_VR> 			<http://www.w3.org/1999/02/22-rdf-syntax-ns#type> 			<http://www.assero.co.uk/BusinessOperational#CReference> . 
<http://www.assero.co.uk/MDRModels/CDISC/V1#IG-CDISC_SDTMIGAE_AESDTH_VR> 			<http://www.assero.co.uk/BusinessOperational#hasColumn> 			<http://www.assero.co.uk/MDRModels/CDISC/V1#M-CDISC_SDTMMODEL_EVENTS_xxSDTH> . 
<http://www.assero.co.uk/MDRModels/CDISC/V1#IG-CDISC_SDTMIGAE_AESDTH_VR> 			<http://www.assero.co.uk/BusinessOperational#ordinal> 			"1" . 
<http://www.assero.co.uk/MDRModels/CDISC/V1#IG-CDISC_SDTMIGAE_AESDTH_VR> 			<http://www.assero.co.uk/BusinessOperational#enabled> 			"true" . 
<http://www.assero.co.uk/MDRModels/CDISC/V1#IG-CDISC_SDTMIGAE_AESDTH_VR> 			<http://www.assero.co.uk/BusinessOperational#optional> 			"false" . 
<http://www.assero.co.uk/MDRModels/CDISC/V1#M-CDISC_SDTMMODEL_EVENTS_xxSDTH> 			<http://www.w3.org/1999/02/22-rdf-syntax-ns#type> 			<http://www.assero.co.uk/BusinessDomain#ClassVariable> . 
<http://www.assero.co.uk/MDRModels/CDISC/V1#M-CDISC_SDTMMODEL_EVENTS_xxSDTH> 			<http://www.w3.org/2000/01/rdf-schema#label> 			"Results in Death" . 
<http://www.assero.co.uk/MDRModels/CDISC/V1#M-CDISC_SDTMMODEL_EVENTS_xxSDTH> 			<http://www.assero.co.uk/BusinessDomain#basedOnVariable> 			<http://www.assero.co.uk/MDRModels/CDISC/V1#M-CDISC_SDTMMODEL_EVENTS_xxSDTH_CR> . 
<http://www.assero.co.uk/MDRModels/CDISC/V1#M-CDISC_SDTMMODEL_EVENTS_xxSDTH> 			<http://www.assero.co.uk/BusinessDomain#ordinal> 			"30" . 
<http://www.assero.co.uk/MDRModels/CDISC/V1#M-CDISC_SDTMMODEL_EVENTS_xxSDTH_CR> 			<http://www.w3.org/1999/02/22-rdf-syntax-ns#type> 			<http://www.assero.co.uk/BusinessOperational#CReference> . 
<http://www.assero.co.uk/MDRModels/CDISC/V1#M-CDISC_SDTMMODEL_EVENTS_xxSDTH_CR> 			<http://www.assero.co.uk/BusinessOperational#hasColumn> 			<http://www.assero.co.uk/MDRModels/CDISC/V1#M-CDISC_SDTMMODEL_xxSDTH> . 
<http://www.assero.co.uk/MDRModels/CDISC/V1#M-CDISC_SDTMMODEL_EVENTS_xxSDTH_CR> 			<http://www.assero.co.uk/BusinessOperational#ordinal> 			"30" . 
<http://www.assero.co.uk/MDRModels/CDISC/V1#M-CDISC_SDTMMODEL_EVENTS_xxSDTH_CR> 			<http://www.assero.co.uk/BusinessOperational#enabled> 			"true" . 
<http://www.assero.co.uk/MDRModels/CDISC/V1#M-CDISC_SDTMMODEL_EVENTS_xxSDTH_CR> 			<http://www.assero.co.uk/BusinessOperational#optional> 			"false" . 
<http://www.assero.co.uk/MDRModels/CDISC/V1#M-CDISC_SDTMMODEL_xxSDTH> 			<http://www.w3.org/1999/02/22-rdf-syntax-ns#type> 			<http://www.assero.co.uk/BusinessDomain#ModelVariable> . 
<http://www.assero.co.uk/MDRModels/CDISC/V1#M-CDISC_SDTMMODEL_xxSDTH> 			<http://www.w3.org/2000/01/rdf-schema#label> 			"Results in Death" . 
<http://www.assero.co.uk/MDRModels/CDISC/V1#M-CDISC_SDTMMODEL_xxSDTH> 			<http://www.assero.co.uk/BusinessDomain#classifiedAs> 			<http://www.assero.co.uk/MDRModels/CDISC/V1#M-CDISC_SDTMMODEL_SC_RECORDQUALIFIER> . 
<http://www.assero.co.uk/MDRModels/CDISC/V1#M-CDISC_SDTMMODEL_xxSDTH> 			<http://www.assero.co.uk/BusinessDomain#typedAs> 			<http://www.assero.co.uk/MDRModels/CDISC/V1#M-CDISC_SDTMMODEL_DT_CHAR> . 
<http://www.assero.co.uk/MDRModels/CDISC/V1#M-CDISC_SDTMMODEL_xxSDTH> 			<http://www.assero.co.uk/BusinessDomain#rule> 			"" . 
<http://www.assero.co.uk/MDRModels/CDISC/V1#M-CDISC_SDTMMODEL_xxSDTH> 			<http://www.assero.co.uk/BusinessDomain#ordinal> 			"23" . 
<http://www.assero.co.uk/MDRModels/CDISC/V1#M-CDISC_SDTMMODEL_xxSDTH> 			<http://www.assero.co.uk/BusinessDomain#name> 			"--SDTH" . 
<http://www.assero.co.uk/MDRModels/CDISC/V1#M-CDISC_SDTMMODEL_xxSDTH> 			<http://www.assero.co.uk/BusinessDomain#prefixed> 			"true" . 
<http://www.assero.co.uk/MDRModels/CDISC/V1#M-CDISC_SDTMMODEL_xxSDTH> 			<http://www.assero.co.uk/BusinessDomain#description> 			"Did the event result in death? Valid values are 'Y' and 'N'." . 
<http://www.assero.co.uk/MDRModels/CDISC/V1#IG-CDISC_SDTMIGAE_AESHOSP> 			<http://www.w3.org/1999/02/22-rdf-syntax-ns#type> 			<http://www.assero.co.uk/BusinessDomain#IgVariable> . 
<http://www.assero.co.uk/MDRModels/CDISC/V1#IG-CDISC_SDTMIGAE_AESHOSP> 			<http://www.w3.org/2000/01/rdf-schema#label> 			"Requires or Prolongs Hospitalization" . 
<http://www.assero.co.uk/MDRModels/CDISC/V1#IG-CDISC_SDTMIGAE_AESHOSP> 			<http://www.assero.co.uk/BusinessDomain#basedOnVariable> 			<http://www.assero.co.uk/MDRModels/CDISC/V1#IG-CDISC_SDTMIGAE_AESHOSP_VR> . 
<http://www.assero.co.uk/MDRModels/CDISC/V1#IG-CDISC_SDTMIGAE_AESHOSP> 			<http://www.assero.co.uk/BusinessDomain#compliance> 			<http://www.assero.co.uk/MDRModels/CDISC/V1#IG-CDISC_SDTMIG_C_PERMISSIBLE> . 
<http://www.assero.co.uk/MDRModels/CDISC/V1#IG-CDISC_SDTMIGAE_AESHOSP> 			<http://www.assero.co.uk/BusinessDomain#ordinal> 			"28" . 
<http://www.assero.co.uk/MDRModels/CDISC/V1#IG-CDISC_SDTMIGAE_AESHOSP> 			<http://www.assero.co.uk/BusinessDomain#name> 			"AESHOSP" . 
<http://www.assero.co.uk/MDRModels/CDISC/V1#IG-CDISC_SDTMIGAE_AESHOSP> 			<http://www.assero.co.uk/BusinessDomain#notes> 			"Did the serious event require or prolong hospitalization?" . 
<http://www.assero.co.uk/MDRModels/CDISC/V1#IG-CDISC_SDTMIGAE_AESHOSP> 			<http://www.assero.co.uk/BusinessDomain#controlled_term_or_format> 			"NY" . 
<http://www.assero.co.uk/MDRModels/CDISC/V1#IG-CDISC_SDTMIGAE_AESHOSP_VR> 			<http://www.w3.org/1999/02/22-rdf-syntax-ns#type> 			<http://www.assero.co.uk/BusinessOperational#CReference> . 
<http://www.assero.co.uk/MDRModels/CDISC/V1#IG-CDISC_SDTMIGAE_AESHOSP_VR> 			<http://www.assero.co.uk/BusinessOperational#hasColumn> 			<http://www.assero.co.uk/MDRModels/CDISC/V1#M-CDISC_SDTMMODEL_EVENTS_xxSHOSP> . 
<http://www.assero.co.uk/MDRModels/CDISC/V1#IG-CDISC_SDTMIGAE_AESHOSP_VR> 			<http://www.assero.co.uk/BusinessOperational#ordinal> 			"1" . 
<http://www.assero.co.uk/MDRModels/CDISC/V1#IG-CDISC_SDTMIGAE_AESHOSP_VR> 			<http://www.assero.co.uk/BusinessOperational#enabled> 			"true" . 
<http://www.assero.co.uk/MDRModels/CDISC/V1#IG-CDISC_SDTMIGAE_AESHOSP_VR> 			<http://www.assero.co.uk/BusinessOperational#optional> 			"false" . 
<http://www.assero.co.uk/MDRModels/CDISC/V1#M-CDISC_SDTMMODEL_EVENTS_xxSHOSP> 			<http://www.w3.org/1999/02/22-rdf-syntax-ns#type> 			<http://www.assero.co.uk/BusinessDomain#ClassVariable> . 
<http://www.assero.co.uk/MDRModels/CDISC/V1#M-CDISC_SDTMMODEL_EVENTS_xxSHOSP> 			<http://www.w3.org/2000/01/rdf-schema#label> 			"Requires or Prolongs Hospitalization" . 
<http://www.assero.co.uk/MDRModels/CDISC/V1#M-CDISC_SDTMMODEL_EVENTS_xxSHOSP> 			<http://www.assero.co.uk/BusinessDomain#basedOnVariable> 			<http://www.assero.co.uk/MDRModels/CDISC/V1#M-CDISC_SDTMMODEL_EVENTS_xxSHOSP_CR> . 
<http://www.assero.co.uk/MDRModels/CDISC/V1#M-CDISC_SDTMMODEL_EVENTS_xxSHOSP> 			<http://www.assero.co.uk/BusinessDomain#ordinal> 			"31" . 
<http://www.assero.co.uk/MDRModels/CDISC/V1#M-CDISC_SDTMMODEL_EVENTS_xxSHOSP_CR> 			<http://www.w3.org/1999/02/22-rdf-syntax-ns#type> 			<http://www.assero.co.uk/BusinessOperational#CReference> . 
<http://www.assero.co.uk/MDRModels/CDISC/V1#M-CDISC_SDTMMODEL_EVENTS_xxSHOSP_CR> 			<http://www.assero.co.uk/BusinessOperational#hasColumn> 			<http://www.assero.co.uk/MDRModels/CDISC/V1#M-CDISC_SDTMMODEL_xxSHOSP> . 
<http://www.assero.co.uk/MDRModels/CDISC/V1#M-CDISC_SDTMMODEL_EVENTS_xxSHOSP_CR> 			<http://www.assero.co.uk/BusinessOperational#ordinal> 			"31" . 
<http://www.assero.co.uk/MDRModels/CDISC/V1#M-CDISC_SDTMMODEL_EVENTS_xxSHOSP_CR> 			<http://www.assero.co.uk/BusinessOperational#enabled> 			"true" . 
<http://www.assero.co.uk/MDRModels/CDISC/V1#M-CDISC_SDTMMODEL_EVENTS_xxSHOSP_CR> 			<http://www.assero.co.uk/BusinessOperational#optional> 			"false" . 
<http://www.assero.co.uk/MDRModels/CDISC/V1#M-CDISC_SDTMMODEL_xxSHOSP> 			<http://www.w3.org/1999/02/22-rdf-syntax-ns#type> 			<http://www.assero.co.uk/BusinessDomain#ModelVariable> . 
<http://www.assero.co.uk/MDRModels/CDISC/V1#M-CDISC_SDTMMODEL_xxSHOSP> 			<http://www.w3.org/2000/01/rdf-schema#label> 			"Requires or Prolongs Hospitalization" . 
<http://www.assero.co.uk/MDRModels/CDISC/V1#M-CDISC_SDTMMODEL_xxSHOSP> 			<http://www.assero.co.uk/BusinessDomain#classifiedAs> 			<http://www.assero.co.uk/MDRModels/CDISC/V1#M-CDISC_SDTMMODEL_SC_RECORDQUALIFIER> . 
<http://www.assero.co.uk/MDRModels/CDISC/V1#M-CDISC_SDTMMODEL_xxSHOSP> 			<http://www.assero.co.uk/BusinessDomain#typedAs> 			<http://www.assero.co.uk/MDRModels/CDISC/V1#M-CDISC_SDTMMODEL_DT_CHAR> . 
<http://www.assero.co.uk/MDRModels/CDISC/V1#M-CDISC_SDTMMODEL_xxSHOSP> 			<http://www.assero.co.uk/BusinessDomain#rule> 			"" . 
<http://www.assero.co.uk/MDRModels/CDISC/V1#M-CDISC_SDTMMODEL_xxSHOSP> 			<http://www.assero.co.uk/BusinessDomain#ordinal> 			"24" . 
<http://www.assero.co.uk/MDRModels/CDISC/V1#M-CDISC_SDTMMODEL_xxSHOSP> 			<http://www.assero.co.uk/BusinessDomain#name> 			"--SHOSP" . 
<http://www.assero.co.uk/MDRModels/CDISC/V1#M-CDISC_SDTMMODEL_xxSHOSP> 			<http://www.assero.co.uk/BusinessDomain#prefixed> 			"true" . 
<http://www.assero.co.uk/MDRModels/CDISC/V1#M-CDISC_SDTMMODEL_xxSHOSP> 			<http://www.assero.co.uk/BusinessDomain#description> 			"Did the event require or prolong hospitalization? Valid values are 'Y' and 'N'." . 
<http://www.assero.co.uk/MDRModels/CDISC/V1#IG-CDISC_SDTMIGAE_AESLIFE> 			<http://www.w3.org/1999/02/22-rdf-syntax-ns#type> 			<http://www.assero.co.uk/BusinessDomain#IgVariable> . 
<http://www.assero.co.uk/MDRModels/CDISC/V1#IG-CDISC_SDTMIGAE_AESLIFE> 			<http://www.w3.org/2000/01/rdf-schema#label> 			"Is Life Threatening" . 
<http://www.assero.co.uk/MDRModels/CDISC/V1#IG-CDISC_SDTMIGAE_AESLIFE> 			<http://www.assero.co.uk/BusinessDomain#basedOnVariable> 			<http://www.assero.co.uk/MDRModels/CDISC/V1#IG-CDISC_SDTMIGAE_AESLIFE_VR> . 
<http://www.assero.co.uk/MDRModels/CDISC/V1#IG-CDISC_SDTMIGAE_AESLIFE> 			<http://www.assero.co.uk/BusinessDomain#compliance> 			<http://www.assero.co.uk/MDRModels/CDISC/V1#IG-CDISC_SDTMIG_C_PERMISSIBLE> . 
<http://www.assero.co.uk/MDRModels/CDISC/V1#IG-CDISC_SDTMIGAE_AESLIFE> 			<http://www.assero.co.uk/BusinessDomain#ordinal> 			"29" . 
<http://www.assero.co.uk/MDRModels/CDISC/V1#IG-CDISC_SDTMIGAE_AESLIFE> 			<http://www.assero.co.uk/BusinessDomain#name> 			"AESLIFE" . 
<http://www.assero.co.uk/MDRModels/CDISC/V1#IG-CDISC_SDTMIGAE_AESLIFE> 			<http://www.assero.co.uk/BusinessDomain#notes> 			"Was the serious event life threatening?" . 
<http://www.assero.co.uk/MDRModels/CDISC/V1#IG-CDISC_SDTMIGAE_AESLIFE> 			<http://www.assero.co.uk/BusinessDomain#controlled_term_or_format> 			"NY" . 
<http://www.assero.co.uk/MDRModels/CDISC/V1#IG-CDISC_SDTMIGAE_AESLIFE_VR> 			<http://www.w3.org/1999/02/22-rdf-syntax-ns#type> 			<http://www.assero.co.uk/BusinessOperational#CReference> . 
<http://www.assero.co.uk/MDRModels/CDISC/V1#IG-CDISC_SDTMIGAE_AESLIFE_VR> 			<http://www.assero.co.uk/BusinessOperational#hasColumn> 			<http://www.assero.co.uk/MDRModels/CDISC/V1#M-CDISC_SDTMMODEL_EVENTS_xxSLIFE> . 
<http://www.assero.co.uk/MDRModels/CDISC/V1#IG-CDISC_SDTMIGAE_AESLIFE_VR> 			<http://www.assero.co.uk/BusinessOperational#ordinal> 			"1" . 
<http://www.assero.co.uk/MDRModels/CDISC/V1#IG-CDISC_SDTMIGAE_AESLIFE_VR> 			<http://www.assero.co.uk/BusinessOperational#enabled> 			"true" . 
<http://www.assero.co.uk/MDRModels/CDISC/V1#IG-CDISC_SDTMIGAE_AESLIFE_VR> 			<http://www.assero.co.uk/BusinessOperational#optional> 			"false" . 
<http://www.assero.co.uk/MDRModels/CDISC/V1#M-CDISC_SDTMMODEL_EVENTS_xxSLIFE> 			<http://www.w3.org/1999/02/22-rdf-syntax-ns#type> 			<http://www.assero.co.uk/BusinessDomain#ClassVariable> . 
<http://www.assero.co.uk/MDRModels/CDISC/V1#M-CDISC_SDTMMODEL_EVENTS_xxSLIFE> 			<http://www.w3.org/2000/01/rdf-schema#label> 			"Is Life Threatening" . 
<http://www.assero.co.uk/MDRModels/CDISC/V1#M-CDISC_SDTMMODEL_EVENTS_xxSLIFE> 			<http://www.assero.co.uk/BusinessDomain#basedOnVariable> 			<http://www.assero.co.uk/MDRModels/CDISC/V1#M-CDISC_SDTMMODEL_EVENTS_xxSLIFE_CR> . 
<http://www.assero.co.uk/MDRModels/CDISC/V1#M-CDISC_SDTMMODEL_EVENTS_xxSLIFE> 			<http://www.assero.co.uk/BusinessDomain#ordinal> 			"32" . 
<http://www.assero.co.uk/MDRModels/CDISC/V1#M-CDISC_SDTMMODEL_EVENTS_xxSLIFE_CR> 			<http://www.w3.org/1999/02/22-rdf-syntax-ns#type> 			<http://www.assero.co.uk/BusinessOperational#CReference> . 
<http://www.assero.co.uk/MDRModels/CDISC/V1#M-CDISC_SDTMMODEL_EVENTS_xxSLIFE_CR> 			<http://www.assero.co.uk/BusinessOperational#hasColumn> 			<http://www.assero.co.uk/MDRModels/CDISC/V1#M-CDISC_SDTMMODEL_xxSLIFE> . 
<http://www.assero.co.uk/MDRModels/CDISC/V1#M-CDISC_SDTMMODEL_EVENTS_xxSLIFE_CR> 			<http://www.assero.co.uk/BusinessOperational#ordinal> 			"32" . 
<http://www.assero.co.uk/MDRModels/CDISC/V1#M-CDISC_SDTMMODEL_EVENTS_xxSLIFE_CR> 			<http://www.assero.co.uk/BusinessOperational#enabled> 			"true" . 
<http://www.assero.co.uk/MDRModels/CDISC/V1#M-CDISC_SDTMMODEL_EVENTS_xxSLIFE_CR> 			<http://www.assero.co.uk/BusinessOperational#optional> 			"false" . 
<http://www.assero.co.uk/MDRModels/CDISC/V1#M-CDISC_SDTMMODEL_xxSLIFE> 			<http://www.w3.org/1999/02/22-rdf-syntax-ns#type> 			<http://www.assero.co.uk/BusinessDomain#ModelVariable> . 
<http://www.assero.co.uk/MDRModels/CDISC/V1#M-CDISC_SDTMMODEL_xxSLIFE> 			<http://www.w3.org/2000/01/rdf-schema#label> 			"Is Life Threatening" . 
<http://www.assero.co.uk/MDRModels/CDISC/V1#M-CDISC_SDTMMODEL_xxSLIFE> 			<http://www.assero.co.uk/BusinessDomain#classifiedAs> 			<http://www.assero.co.uk/MDRModels/CDISC/V1#M-CDISC_SDTMMODEL_SC_RECORDQUALIFIER> . 
<http://www.assero.co.uk/MDRModels/CDISC/V1#M-CDISC_SDTMMODEL_xxSLIFE> 			<http://www.assero.co.uk/BusinessDomain#typedAs> 			<http://www.assero.co.uk/MDRModels/CDISC/V1#M-CDISC_SDTMMODEL_DT_CHAR> . 
<http://www.assero.co.uk/MDRModels/CDISC/V1#M-CDISC_SDTMMODEL_xxSLIFE> 			<http://www.assero.co.uk/BusinessDomain#rule> 			"" . 
<http://www.assero.co.uk/MDRModels/CDISC/V1#M-CDISC_SDTMMODEL_xxSLIFE> 			<http://www.assero.co.uk/BusinessDomain#ordinal> 			"25" . 
<http://www.assero.co.uk/MDRModels/CDISC/V1#M-CDISC_SDTMMODEL_xxSLIFE> 			<http://www.assero.co.uk/BusinessDomain#name> 			"--SLIFE" . 
<http://www.assero.co.uk/MDRModels/CDISC/V1#M-CDISC_SDTMMODEL_xxSLIFE> 			<http://www.assero.co.uk/BusinessDomain#prefixed> 			"true" . 
<http://www.assero.co.uk/MDRModels/CDISC/V1#M-CDISC_SDTMMODEL_xxSLIFE> 			<http://www.assero.co.uk/BusinessDomain#description> 			"Was the event life threatening? Valid values are 'Y' and 'N'." . 
<http://www.assero.co.uk/MDRModels/CDISC/V1#IG-CDISC_SDTMIGAE_AESOD> 			<http://www.w3.org/1999/02/22-rdf-syntax-ns#type> 			<http://www.assero.co.uk/BusinessDomain#IgVariable> . 
<http://www.assero.co.uk/MDRModels/CDISC/V1#IG-CDISC_SDTMIGAE_AESOD> 			<http://www.w3.org/2000/01/rdf-schema#label> 			"Occurred with Overdose" . 
<http://www.assero.co.uk/MDRModels/CDISC/V1#IG-CDISC_SDTMIGAE_AESOD> 			<http://www.assero.co.uk/BusinessDomain#basedOnVariable> 			<http://www.assero.co.uk/MDRModels/CDISC/V1#IG-CDISC_SDTMIGAE_AESOD_VR> . 
<http://www.assero.co.uk/MDRModels/CDISC/V1#IG-CDISC_SDTMIGAE_AESOD> 			<http://www.assero.co.uk/BusinessDomain#compliance> 			<http://www.assero.co.uk/MDRModels/CDISC/V1#IG-CDISC_SDTMIG_C_PERMISSIBLE> . 
<http://www.assero.co.uk/MDRModels/CDISC/V1#IG-CDISC_SDTMIGAE_AESOD> 			<http://www.assero.co.uk/BusinessDomain#ordinal> 			"30" . 
<http://www.assero.co.uk/MDRModels/CDISC/V1#IG-CDISC_SDTMIGAE_AESOD> 			<http://www.assero.co.uk/BusinessDomain#name> 			"AESOD" . 
<http://www.assero.co.uk/MDRModels/CDISC/V1#IG-CDISC_SDTMIGAE_AESOD> 			<http://www.assero.co.uk/BusinessDomain#notes> 			"Did the serious event occur with an overdose?" . 
<http://www.assero.co.uk/MDRModels/CDISC/V1#IG-CDISC_SDTMIGAE_AESOD> 			<http://www.assero.co.uk/BusinessDomain#controlled_term_or_format> 			"NY" . 
<http://www.assero.co.uk/MDRModels/CDISC/V1#IG-CDISC_SDTMIGAE_AESOD_VR> 			<http://www.w3.org/1999/02/22-rdf-syntax-ns#type> 			<http://www.assero.co.uk/BusinessOperational#CReference> . 
<http://www.assero.co.uk/MDRModels/CDISC/V1#IG-CDISC_SDTMIGAE_AESOD_VR> 			<http://www.assero.co.uk/BusinessOperational#hasColumn> 			<http://www.assero.co.uk/MDRModels/CDISC/V1#M-CDISC_SDTMMODEL_EVENTS_xxSOD> . 
<http://www.assero.co.uk/MDRModels/CDISC/V1#IG-CDISC_SDTMIGAE_AESOD_VR> 			<http://www.assero.co.uk/BusinessOperational#ordinal> 			"1" . 
<http://www.assero.co.uk/MDRModels/CDISC/V1#IG-CDISC_SDTMIGAE_AESOD_VR> 			<http://www.assero.co.uk/BusinessOperational#enabled> 			"true" . 
<http://www.assero.co.uk/MDRModels/CDISC/V1#IG-CDISC_SDTMIGAE_AESOD_VR> 			<http://www.assero.co.uk/BusinessOperational#optional> 			"false" . 
<http://www.assero.co.uk/MDRModels/CDISC/V1#M-CDISC_SDTMMODEL_EVENTS_xxSOD> 			<http://www.w3.org/1999/02/22-rdf-syntax-ns#type> 			<http://www.assero.co.uk/BusinessDomain#ClassVariable> . 
<http://www.assero.co.uk/MDRModels/CDISC/V1#M-CDISC_SDTMMODEL_EVENTS_xxSOD> 			<http://www.w3.org/2000/01/rdf-schema#label> 			"Occurred with Overdose" . 
<http://www.assero.co.uk/MDRModels/CDISC/V1#M-CDISC_SDTMMODEL_EVENTS_xxSOD> 			<http://www.assero.co.uk/BusinessDomain#basedOnVariable> 			<http://www.assero.co.uk/MDRModels/CDISC/V1#M-CDISC_SDTMMODEL_EVENTS_xxSOD_CR> . 
<http://www.assero.co.uk/MDRModels/CDISC/V1#M-CDISC_SDTMMODEL_EVENTS_xxSOD> 			<http://www.assero.co.uk/BusinessDomain#ordinal> 			"33" . 
<http://www.assero.co.uk/MDRModels/CDISC/V1#M-CDISC_SDTMMODEL_EVENTS_xxSOD_CR> 			<http://www.w3.org/1999/02/22-rdf-syntax-ns#type> 			<http://www.assero.co.uk/BusinessOperational#CReference> . 
<http://www.assero.co.uk/MDRModels/CDISC/V1#M-CDISC_SDTMMODEL_EVENTS_xxSOD_CR> 			<http://www.assero.co.uk/BusinessOperational#hasColumn> 			<http://www.assero.co.uk/MDRModels/CDISC/V1#M-CDISC_SDTMMODEL_xxSOD> . 
<http://www.assero.co.uk/MDRModels/CDISC/V1#M-CDISC_SDTMMODEL_EVENTS_xxSOD_CR> 			<http://www.assero.co.uk/BusinessOperational#ordinal> 			"33" . 
<http://www.assero.co.uk/MDRModels/CDISC/V1#M-CDISC_SDTMMODEL_EVENTS_xxSOD_CR> 			<http://www.assero.co.uk/BusinessOperational#enabled> 			"true" . 
<http://www.assero.co.uk/MDRModels/CDISC/V1#M-CDISC_SDTMMODEL_EVENTS_xxSOD_CR> 			<http://www.assero.co.uk/BusinessOperational#optional> 			"false" . 
<http://www.assero.co.uk/MDRModels/CDISC/V1#M-CDISC_SDTMMODEL_xxSOD> 			<http://www.w3.org/1999/02/22-rdf-syntax-ns#type> 			<http://www.assero.co.uk/BusinessDomain#ModelVariable> . 
<http://www.assero.co.uk/MDRModels/CDISC/V1#M-CDISC_SDTMMODEL_xxSOD> 			<http://www.w3.org/2000/01/rdf-schema#label> 			"Occurred with Overdose" . 
<http://www.assero.co.uk/MDRModels/CDISC/V1#M-CDISC_SDTMMODEL_xxSOD> 			<http://www.assero.co.uk/BusinessDomain#classifiedAs> 			<http://www.assero.co.uk/MDRModels/CDISC/V1#M-CDISC_SDTMMODEL_SC_RECORDQUALIFIER> . 
<http://www.assero.co.uk/MDRModels/CDISC/V1#M-CDISC_SDTMMODEL_xxSOD> 			<http://www.assero.co.uk/BusinessDomain#typedAs> 			<http://www.assero.co.uk/MDRModels/CDISC/V1#M-CDISC_SDTMMODEL_DT_CHAR> . 
<http://www.assero.co.uk/MDRModels/CDISC/V1#M-CDISC_SDTMMODEL_xxSOD> 			<http://www.assero.co.uk/BusinessDomain#rule> 			"" . 
<http://www.assero.co.uk/MDRModels/CDISC/V1#M-CDISC_SDTMMODEL_xxSOD> 			<http://www.assero.co.uk/BusinessDomain#ordinal> 			"26" . 
<http://www.assero.co.uk/MDRModels/CDISC/V1#M-CDISC_SDTMMODEL_xxSOD> 			<http://www.assero.co.uk/BusinessDomain#name> 			"--SOD" . 
<http://www.assero.co.uk/MDRModels/CDISC/V1#M-CDISC_SDTMMODEL_xxSOD> 			<http://www.assero.co.uk/BusinessDomain#prefixed> 			"true" . 
<http://www.assero.co.uk/MDRModels/CDISC/V1#M-CDISC_SDTMMODEL_xxSOD> 			<http://www.assero.co.uk/BusinessDomain#description> 			"Did the event occur with an overdose? Valid values are 'Y' and 'N'." . 
<http://www.assero.co.uk/MDRModels/CDISC/V1#IG-CDISC_SDTMIGAE_AESMIE> 			<http://www.w3.org/1999/02/22-rdf-syntax-ns#type> 			<http://www.assero.co.uk/BusinessDomain#IgVariable> . 
<http://www.assero.co.uk/MDRModels/CDISC/V1#IG-CDISC_SDTMIGAE_AESMIE> 			<http://www.w3.org/2000/01/rdf-schema#label> 			"Other Medically Important Serious Event" . 
<http://www.assero.co.uk/MDRModels/CDISC/V1#IG-CDISC_SDTMIGAE_AESMIE> 			<http://www.assero.co.uk/BusinessDomain#basedOnVariable> 			<http://www.assero.co.uk/MDRModels/CDISC/V1#IG-CDISC_SDTMIGAE_AESMIE_VR> . 
<http://www.assero.co.uk/MDRModels/CDISC/V1#IG-CDISC_SDTMIGAE_AESMIE> 			<http://www.assero.co.uk/BusinessDomain#compliance> 			<http://www.assero.co.uk/MDRModels/CDISC/V1#IG-CDISC_SDTMIG_C_PERMISSIBLE> . 
<http://www.assero.co.uk/MDRModels/CDISC/V1#IG-CDISC_SDTMIGAE_AESMIE> 			<http://www.assero.co.uk/BusinessDomain#ordinal> 			"31" . 
<http://www.assero.co.uk/MDRModels/CDISC/V1#IG-CDISC_SDTMIGAE_AESMIE> 			<http://www.assero.co.uk/BusinessDomain#name> 			"AESMIE" . 
<http://www.assero.co.uk/MDRModels/CDISC/V1#IG-CDISC_SDTMIGAE_AESMIE> 			<http://www.assero.co.uk/BusinessDomain#notes> 			"Do additional categories for seriousness apply?" . 
<http://www.assero.co.uk/MDRModels/CDISC/V1#IG-CDISC_SDTMIGAE_AESMIE> 			<http://www.assero.co.uk/BusinessDomain#controlled_term_or_format> 			"NY" . 
<http://www.assero.co.uk/MDRModels/CDISC/V1#IG-CDISC_SDTMIGAE_AESMIE_VR> 			<http://www.w3.org/1999/02/22-rdf-syntax-ns#type> 			<http://www.assero.co.uk/BusinessOperational#CReference> . 
<http://www.assero.co.uk/MDRModels/CDISC/V1#IG-CDISC_SDTMIGAE_AESMIE_VR> 			<http://www.assero.co.uk/BusinessOperational#hasColumn> 			<http://www.assero.co.uk/MDRModels/CDISC/V1#M-CDISC_SDTMMODEL_EVENTS_xxSMIE> . 
<http://www.assero.co.uk/MDRModels/CDISC/V1#IG-CDISC_SDTMIGAE_AESMIE_VR> 			<http://www.assero.co.uk/BusinessOperational#ordinal> 			"1" . 
<http://www.assero.co.uk/MDRModels/CDISC/V1#IG-CDISC_SDTMIGAE_AESMIE_VR> 			<http://www.assero.co.uk/BusinessOperational#enabled> 			"true" . 
<http://www.assero.co.uk/MDRModels/CDISC/V1#IG-CDISC_SDTMIGAE_AESMIE_VR> 			<http://www.assero.co.uk/BusinessOperational#optional> 			"false" . 
<http://www.assero.co.uk/MDRModels/CDISC/V1#M-CDISC_SDTMMODEL_EVENTS_xxSMIE> 			<http://www.w3.org/1999/02/22-rdf-syntax-ns#type> 			<http://www.assero.co.uk/BusinessDomain#ClassVariable> . 
<http://www.assero.co.uk/MDRModels/CDISC/V1#M-CDISC_SDTMMODEL_EVENTS_xxSMIE> 			<http://www.w3.org/2000/01/rdf-schema#label> 			"Other Medically Important Serious Event" . 
<http://www.assero.co.uk/MDRModels/CDISC/V1#M-CDISC_SDTMMODEL_EVENTS_xxSMIE> 			<http://www.assero.co.uk/BusinessDomain#basedOnVariable> 			<http://www.assero.co.uk/MDRModels/CDISC/V1#M-CDISC_SDTMMODEL_EVENTS_xxSMIE_CR> . 
<http://www.assero.co.uk/MDRModels/CDISC/V1#M-CDISC_SDTMMODEL_EVENTS_xxSMIE> 			<http://www.assero.co.uk/BusinessDomain#ordinal> 			"34" . 
<http://www.assero.co.uk/MDRModels/CDISC/V1#M-CDISC_SDTMMODEL_EVENTS_xxSMIE_CR> 			<http://www.w3.org/1999/02/22-rdf-syntax-ns#type> 			<http://www.assero.co.uk/BusinessOperational#CReference> . 
<http://www.assero.co.uk/MDRModels/CDISC/V1#M-CDISC_SDTMMODEL_EVENTS_xxSMIE_CR> 			<http://www.assero.co.uk/BusinessOperational#hasColumn> 			<http://www.assero.co.uk/MDRModels/CDISC/V1#M-CDISC_SDTMMODEL_xxSMIE> . 
<http://www.assero.co.uk/MDRModels/CDISC/V1#M-CDISC_SDTMMODEL_EVENTS_xxSMIE_CR> 			<http://www.assero.co.uk/BusinessOperational#ordinal> 			"34" . 
<http://www.assero.co.uk/MDRModels/CDISC/V1#M-CDISC_SDTMMODEL_EVENTS_xxSMIE_CR> 			<http://www.assero.co.uk/BusinessOperational#enabled> 			"true" . 
<http://www.assero.co.uk/MDRModels/CDISC/V1#M-CDISC_SDTMMODEL_EVENTS_xxSMIE_CR> 			<http://www.assero.co.uk/BusinessOperational#optional> 			"false" . 
<http://www.assero.co.uk/MDRModels/CDISC/V1#M-CDISC_SDTMMODEL_xxSMIE> 			<http://www.w3.org/1999/02/22-rdf-syntax-ns#type> 			<http://www.assero.co.uk/BusinessDomain#ModelVariable> . 
<http://www.assero.co.uk/MDRModels/CDISC/V1#M-CDISC_SDTMMODEL_xxSMIE> 			<http://www.w3.org/2000/01/rdf-schema#label> 			"Other Medically Important Serious Event" . 
<http://www.assero.co.uk/MDRModels/CDISC/V1#M-CDISC_SDTMMODEL_xxSMIE> 			<http://www.assero.co.uk/BusinessDomain#classifiedAs> 			<http://www.assero.co.uk/MDRModels/CDISC/V1#M-CDISC_SDTMMODEL_SC_RECORDQUALIFIER> . 
<http://www.assero.co.uk/MDRModels/CDISC/V1#M-CDISC_SDTMMODEL_xxSMIE> 			<http://www.assero.co.uk/BusinessDomain#typedAs> 			<http://www.assero.co.uk/MDRModels/CDISC/V1#M-CDISC_SDTMMODEL_DT_CHAR> . 
<http://www.assero.co.uk/MDRModels/CDISC/V1#M-CDISC_SDTMMODEL_xxSMIE> 			<http://www.assero.co.uk/BusinessDomain#rule> 			"" . 
<http://www.assero.co.uk/MDRModels/CDISC/V1#M-CDISC_SDTMMODEL_xxSMIE> 			<http://www.assero.co.uk/BusinessDomain#ordinal> 			"27" . 
<http://www.assero.co.uk/MDRModels/CDISC/V1#M-CDISC_SDTMMODEL_xxSMIE> 			<http://www.assero.co.uk/BusinessDomain#name> 			"--SMIE" . 
<http://www.assero.co.uk/MDRModels/CDISC/V1#M-CDISC_SDTMMODEL_xxSMIE> 			<http://www.assero.co.uk/BusinessDomain#prefixed> 			"true" . 
<http://www.assero.co.uk/MDRModels/CDISC/V1#M-CDISC_SDTMMODEL_xxSMIE> 			<http://www.assero.co.uk/BusinessDomain#description> 			"Do additional categories for seriousness apply? Valid values are 'Y' and 'N'." . 
<http://www.assero.co.uk/MDRModels/CDISC/V1#IG-CDISC_SDTMIGAE_AECONTRT> 			<http://www.w3.org/1999/02/22-rdf-syntax-ns#type> 			<http://www.assero.co.uk/BusinessDomain#IgVariable> . 
<http://www.assero.co.uk/MDRModels/CDISC/V1#IG-CDISC_SDTMIGAE_AECONTRT> 			<http://www.w3.org/2000/01/rdf-schema#label> 			"Concomitant or Additional Trtmnt Given" . 
<http://www.assero.co.uk/MDRModels/CDISC/V1#IG-CDISC_SDTMIGAE_AECONTRT> 			<http://www.assero.co.uk/BusinessDomain#basedOnVariable> 			<http://www.assero.co.uk/MDRModels/CDISC/V1#IG-CDISC_SDTMIGAE_AECONTRT_VR> . 
<http://www.assero.co.uk/MDRModels/CDISC/V1#IG-CDISC_SDTMIGAE_AECONTRT> 			<http://www.assero.co.uk/BusinessDomain#compliance> 			<http://www.assero.co.uk/MDRModels/CDISC/V1#IG-CDISC_SDTMIG_C_PERMISSIBLE> . 
<http://www.assero.co.uk/MDRModels/CDISC/V1#IG-CDISC_SDTMIGAE_AECONTRT> 			<http://www.assero.co.uk/BusinessDomain#ordinal> 			"32" . 
<http://www.assero.co.uk/MDRModels/CDISC/V1#IG-CDISC_SDTMIGAE_AECONTRT> 			<http://www.assero.co.uk/BusinessDomain#name> 			"AECONTRT" . 
<http://www.assero.co.uk/MDRModels/CDISC/V1#IG-CDISC_SDTMIGAE_AECONTRT> 			<http://www.assero.co.uk/BusinessDomain#notes> 			"Was another treatment given because of the occurrence of the event?" . 
<http://www.assero.co.uk/MDRModels/CDISC/V1#IG-CDISC_SDTMIGAE_AECONTRT> 			<http://www.assero.co.uk/BusinessDomain#controlled_term_or_format> 			"NY" . 
<http://www.assero.co.uk/MDRModels/CDISC/V1#IG-CDISC_SDTMIGAE_AECONTRT_VR> 			<http://www.w3.org/1999/02/22-rdf-syntax-ns#type> 			<http://www.assero.co.uk/BusinessOperational#CReference> . 
<http://www.assero.co.uk/MDRModels/CDISC/V1#IG-CDISC_SDTMIGAE_AECONTRT_VR> 			<http://www.assero.co.uk/BusinessOperational#hasColumn> 			<http://www.assero.co.uk/MDRModels/CDISC/V1#M-CDISC_SDTMMODEL_EVENTS_xxCONTRT> . 
<http://www.assero.co.uk/MDRModels/CDISC/V1#IG-CDISC_SDTMIGAE_AECONTRT_VR> 			<http://www.assero.co.uk/BusinessOperational#ordinal> 			"1" . 
<http://www.assero.co.uk/MDRModels/CDISC/V1#IG-CDISC_SDTMIGAE_AECONTRT_VR> 			<http://www.assero.co.uk/BusinessOperational#enabled> 			"true" . 
<http://www.assero.co.uk/MDRModels/CDISC/V1#IG-CDISC_SDTMIGAE_AECONTRT_VR> 			<http://www.assero.co.uk/BusinessOperational#optional> 			"false" . 
<http://www.assero.co.uk/MDRModels/CDISC/V1#M-CDISC_SDTMMODEL_EVENTS_xxCONTRT> 			<http://www.w3.org/1999/02/22-rdf-syntax-ns#type> 			<http://www.assero.co.uk/BusinessDomain#ClassVariable> . 
<http://www.assero.co.uk/MDRModels/CDISC/V1#M-CDISC_SDTMMODEL_EVENTS_xxCONTRT> 			<http://www.w3.org/2000/01/rdf-schema#label> 			"Concomitant or Additional Trtmnt Given" . 
<http://www.assero.co.uk/MDRModels/CDISC/V1#M-CDISC_SDTMMODEL_EVENTS_xxCONTRT> 			<http://www.assero.co.uk/BusinessDomain#basedOnVariable> 			<http://www.assero.co.uk/MDRModels/CDISC/V1#M-CDISC_SDTMMODEL_EVENTS_xxCONTRT_CR> . 
<http://www.assero.co.uk/MDRModels/CDISC/V1#M-CDISC_SDTMMODEL_EVENTS_xxCONTRT> 			<http://www.assero.co.uk/BusinessDomain#ordinal> 			"35" . 
<http://www.assero.co.uk/MDRModels/CDISC/V1#M-CDISC_SDTMMODEL_EVENTS_xxCONTRT_CR> 			<http://www.w3.org/1999/02/22-rdf-syntax-ns#type> 			<http://www.assero.co.uk/BusinessOperational#CReference> . 
<http://www.assero.co.uk/MDRModels/CDISC/V1#M-CDISC_SDTMMODEL_EVENTS_xxCONTRT_CR> 			<http://www.assero.co.uk/BusinessOperational#hasColumn> 			<http://www.assero.co.uk/MDRModels/CDISC/V1#M-CDISC_SDTMMODEL_xxCONTRT> . 
<http://www.assero.co.uk/MDRModels/CDISC/V1#M-CDISC_SDTMMODEL_EVENTS_xxCONTRT_CR> 			<http://www.assero.co.uk/BusinessOperational#ordinal> 			"35" . 
<http://www.assero.co.uk/MDRModels/CDISC/V1#M-CDISC_SDTMMODEL_EVENTS_xxCONTRT_CR> 			<http://www.assero.co.uk/BusinessOperational#enabled> 			"true" . 
<http://www.assero.co.uk/MDRModels/CDISC/V1#M-CDISC_SDTMMODEL_EVENTS_xxCONTRT_CR> 			<http://www.assero.co.uk/BusinessOperational#optional> 			"false" . 
<http://www.assero.co.uk/MDRModels/CDISC/V1#M-CDISC_SDTMMODEL_xxCONTRT> 			<http://www.w3.org/1999/02/22-rdf-syntax-ns#type> 			<http://www.assero.co.uk/BusinessDomain#ModelVariable> . 
<http://www.assero.co.uk/MDRModels/CDISC/V1#M-CDISC_SDTMMODEL_xxCONTRT> 			<http://www.w3.org/2000/01/rdf-schema#label> 			"Concomitant or Additional Trtmnt Given" . 
<http://www.assero.co.uk/MDRModels/CDISC/V1#M-CDISC_SDTMMODEL_xxCONTRT> 			<http://www.assero.co.uk/BusinessDomain#classifiedAs> 			<http://www.assero.co.uk/MDRModels/CDISC/V1#M-CDISC_SDTMMODEL_SC_RECORDQUALIFIER> . 
<http://www.assero.co.uk/MDRModels/CDISC/V1#M-CDISC_SDTMMODEL_xxCONTRT> 			<http://www.assero.co.uk/BusinessDomain#typedAs> 			<http://www.assero.co.uk/MDRModels/CDISC/V1#M-CDISC_SDTMMODEL_DT_CHAR> . 
<http://www.assero.co.uk/MDRModels/CDISC/V1#M-CDISC_SDTMMODEL_xxCONTRT> 			<http://www.assero.co.uk/BusinessDomain#rule> 			"" . 
<http://www.assero.co.uk/MDRModels/CDISC/V1#M-CDISC_SDTMMODEL_xxCONTRT> 			<http://www.assero.co.uk/BusinessDomain#ordinal> 			"28" . 
<http://www.assero.co.uk/MDRModels/CDISC/V1#M-CDISC_SDTMMODEL_xxCONTRT> 			<http://www.assero.co.uk/BusinessDomain#name> 			"--CONTRT" . 
<http://www.assero.co.uk/MDRModels/CDISC/V1#M-CDISC_SDTMMODEL_xxCONTRT> 			<http://www.assero.co.uk/BusinessDomain#prefixed> 			"true" . 
<http://www.assero.co.uk/MDRModels/CDISC/V1#M-CDISC_SDTMMODEL_xxCONTRT> 			<http://www.assero.co.uk/BusinessDomain#description> 			"Was another treatment given because of the occurrence of the event? Valid values are 'Y' and 'N'." . 
<http://www.assero.co.uk/MDRModels/CDISC/V1#IG-CDISC_SDTMIGAE_AETOXGR> 			<http://www.w3.org/1999/02/22-rdf-syntax-ns#type> 			<http://www.assero.co.uk/BusinessDomain#IgVariable> . 
<http://www.assero.co.uk/MDRModels/CDISC/V1#IG-CDISC_SDTMIGAE_AETOXGR> 			<http://www.w3.org/2000/01/rdf-schema#label> 			"Standard Toxicity Grade" . 
<http://www.assero.co.uk/MDRModels/CDISC/V1#IG-CDISC_SDTMIGAE_AETOXGR> 			<http://www.assero.co.uk/BusinessDomain#basedOnVariable> 			<http://www.assero.co.uk/MDRModels/CDISC/V1#IG-CDISC_SDTMIGAE_AETOXGR_VR> . 
<http://www.assero.co.uk/MDRModels/CDISC/V1#IG-CDISC_SDTMIGAE_AETOXGR> 			<http://www.assero.co.uk/BusinessDomain#compliance> 			<http://www.assero.co.uk/MDRModels/CDISC/V1#IG-CDISC_SDTMIG_C_PERMISSIBLE> . 
<http://www.assero.co.uk/MDRModels/CDISC/V1#IG-CDISC_SDTMIGAE_AETOXGR> 			<http://www.assero.co.uk/BusinessDomain#ordinal> 			"33" . 
<http://www.assero.co.uk/MDRModels/CDISC/V1#IG-CDISC_SDTMIGAE_AETOXGR> 			<http://www.assero.co.uk/BusinessDomain#name> 			"AETOXGR" . 
<http://www.assero.co.uk/MDRModels/CDISC/V1#IG-CDISC_SDTMIGAE_AETOXGR> 			<http://www.assero.co.uk/BusinessDomain#notes> 			"Toxicity grade according to a standard toxicity scale such as Common Terminology Criteria for Adverse Events v3.0 (CTCAE). Sponsor should specify name of the scale and version used in the metadata (see 6.2.1.1, Assumption 6c). If value is from a numeric scale, represent only the number (e.g., '2' and not 'Grade 2')." . 
<http://www.assero.co.uk/MDRModels/CDISC/V1#IG-CDISC_SDTMIGAE_AETOXGR> 			<http://www.assero.co.uk/BusinessDomain#controlled_term_or_format> 			"" . 
<http://www.assero.co.uk/MDRModels/CDISC/V1#IG-CDISC_SDTMIGAE_AETOXGR_VR> 			<http://www.w3.org/1999/02/22-rdf-syntax-ns#type> 			<http://www.assero.co.uk/BusinessOperational#CReference> . 
<http://www.assero.co.uk/MDRModels/CDISC/V1#IG-CDISC_SDTMIGAE_AETOXGR_VR> 			<http://www.assero.co.uk/BusinessOperational#hasColumn> 			<http://www.assero.co.uk/MDRModels/CDISC/V1#M-CDISC_SDTMMODEL_EVENTS_xxTOXGR> . 
<http://www.assero.co.uk/MDRModels/CDISC/V1#IG-CDISC_SDTMIGAE_AETOXGR_VR> 			<http://www.assero.co.uk/BusinessOperational#ordinal> 			"1" . 
<http://www.assero.co.uk/MDRModels/CDISC/V1#IG-CDISC_SDTMIGAE_AETOXGR_VR> 			<http://www.assero.co.uk/BusinessOperational#enabled> 			"true" . 
<http://www.assero.co.uk/MDRModels/CDISC/V1#IG-CDISC_SDTMIGAE_AETOXGR_VR> 			<http://www.assero.co.uk/BusinessOperational#optional> 			"false" . 
<http://www.assero.co.uk/MDRModels/CDISC/V1#M-CDISC_SDTMMODEL_EVENTS_xxTOXGR> 			<http://www.w3.org/1999/02/22-rdf-syntax-ns#type> 			<http://www.assero.co.uk/BusinessDomain#ClassVariable> . 
<http://www.assero.co.uk/MDRModels/CDISC/V1#M-CDISC_SDTMMODEL_EVENTS_xxTOXGR> 			<http://www.w3.org/2000/01/rdf-schema#label> 			"Toxicity Grade" . 
<http://www.assero.co.uk/MDRModels/CDISC/V1#M-CDISC_SDTMMODEL_EVENTS_xxTOXGR> 			<http://www.assero.co.uk/BusinessDomain#basedOnVariable> 			<http://www.assero.co.uk/MDRModels/CDISC/V1#M-CDISC_SDTMMODEL_EVENTS_xxTOXGR_CR> . 
