PREFIX : <http://www.assero.co.uk/MDRModels/CDISC/V1#>
PREFIX isoI: <http://www.assero.co.uk/ISO11179Identification#>
PREFIX mdrItems: <http://www.assero.co.uk/MDRItems#>
PREFIX isoR: <http://www.assero.co.uk/ISO11179Registration#>
PREFIX bd: <http://www.assero.co.uk/BusinessDomain#>
PREFIX isoT: <http://www.assero.co.uk/ISO11179Types#>
PREFIX bo: <http://www.assero.co.uk/BusinessOperational#>
PREFIX rdf: <http://www.w3.org/1999/02/22-rdf-syntax-ns#>
PREFIX rdfs: <http://www.w3.org/2000/01/rdf-schema#>
PREFIX xsd: <http://www.w3.org/2001/XMLSchema#>
PREFIX skos: <http://www.w3.org/2004/02/skos/core#>
INSERT DATA 
{ 
mdrItems:SI-CDISC_SDTMMODEL-1 rdf:type isoI:ScopedIdentifier . 
mdrItems:SI-CDISC_SDTMMODEL-1 isoI:identifier "SDTM MODEL"^^xsd:string . 
mdrItems:SI-CDISC_SDTMMODEL-1 isoI:version "1"^^xsd:positiveInteger . 
mdrItems:SI-CDISC_SDTMMODEL-1 isoI:versionLabel "1.2"^^xsd:string . 
mdrItems:SI-CDISC_SDTMMODEL-1 isoI:hasScope mdrItems:NS-CDISC . 
mdrItems:RS-CDISC_SDTMMODEL-1 rdf:type isoR:RegistrationState . 
mdrItems:RS-CDISC_SDTMMODEL-1 isoR:byAuthority mdrItems:RA-084433759 . 
mdrItems:RS-CDISC_SDTMMODEL-1 isoR:registrationStatus "Standard"^^xsd:string . 
mdrItems:RS-CDISC_SDTMMODEL-1 isoR:administrativeNote ""^^xsd:string . 
mdrItems:RS-CDISC_SDTMMODEL-1 isoR:effectiveDate "2016-01-01T00:00:00Z"^^xsd:dateTime . 
mdrItems:RS-CDISC_SDTMMODEL-1 isoR:untilDate "2016-01-01T00:00:00Z"^^xsd:dateTime . 
mdrItems:RS-CDISC_SDTMMODEL-1 isoR:unresolvedIssue ""^^xsd:string . 
mdrItems:RS-CDISC_SDTMMODEL-1 isoR:administrativeStatus ""^^xsd:string . 
mdrItems:RS-CDISC_SDTMMODEL-1 isoR:previousState "Standard"^^xsd:string . 
:M-CDISC_SDTMMODEL rdf:type bd:ClassModel . 
:M-CDISC_SDTMMODEL isoI:hasIdentifier mdrItems:SI-CDISC_SDTMMODEL-1 . 
:M-CDISC_SDTMMODEL isoR:hasState mdrItems:RS-CDISC_SDTMMODEL-1 . 
:M-CDISC_SDTMMODEL rdfs:label "SDTM Model 2008-11-12"^^xsd:string . 
:M-CDISC_SDTMMODEL isoT:creationDate "2008-11-12"^^xsd:string . 
:M-CDISC_SDTMMODEL isoT:lastChangeDate "2016-07-15T07:28:45+01:00"^^xsd:string . 
:M-CDISC_SDTMMODEL isoT:changeDescription ""^^xsd:string . 
:M-CDISC_SDTMMODEL isoT:explanatoryComment ""^^xsd:string . 
:M-CDISC_SDTMMODEL isoT:origin ""^^xsd:string . 
:M-CDISC_SDTMMODEL_STUDYID rdf:type bd:ModelVariable . 
:M-CDISC_SDTMMODEL_STUDYID rdfs:label "Study Identifier"^^xsd:string . 
:M-CDISC_SDTMMODEL_STUDYID bd:ordinal "1"^^xsd:positiveInteger . 
:M-CDISC_SDTMMODEL_STUDYID bd:name "STUDYID"^^xsd:string . 
:M-CDISC_SDTMMODEL_STUDYID bd:prefixed "false"^^xsd:boolean . 
:M-CDISC_SDTMMODEL_STUDYID bd:description "Unique identifier for a study."^^xsd:string . 
:M-CDISC_SDTMMODEL_STUDYID bd:rule ""^^xsd:string . 
:M-CDISC_SDTMMODEL_STUDYID bd:typedAs :M-CDISC_SDTMMODEL_DT_CHAR . 
:M-CDISC_SDTMMODEL_STUDYID bd:classifiedAs :M-CDISC_SDTMMODEL_C_IDENTIFIER . 
:M-CDISC_SDTMMODEL bd:includesVariable :M-CDISC_SDTMMODEL_STUDYID . 
:M-CDISC_SDTMMODEL_DOMAIN rdf:type bd:ModelVariable . 
:M-CDISC_SDTMMODEL_DOMAIN rdfs:label "Domain Abbreviation"^^xsd:string . 
:M-CDISC_SDTMMODEL_DOMAIN bd:ordinal "2"^^xsd:positiveInteger . 
:M-CDISC_SDTMMODEL_DOMAIN bd:name "DOMAIN"^^xsd:string . 
:M-CDISC_SDTMMODEL_DOMAIN bd:prefixed "false"^^xsd:boolean . 
:M-CDISC_SDTMMODEL_DOMAIN bd:description "Two-character abbreviation for the domain."^^xsd:string . 
:M-CDISC_SDTMMODEL_DOMAIN bd:rule ""^^xsd:string . 
:M-CDISC_SDTMMODEL_DOMAIN bd:typedAs :M-CDISC_SDTMMODEL_DT_CHAR . 
:M-CDISC_SDTMMODEL_DOMAIN bd:classifiedAs :M-CDISC_SDTMMODEL_C_IDENTIFIER . 
:M-CDISC_SDTMMODEL bd:includesVariable :M-CDISC_SDTMMODEL_DOMAIN . 
:M-CDISC_SDTMMODEL_USUBJID rdf:type bd:ModelVariable . 
:M-CDISC_SDTMMODEL_USUBJID rdfs:label "Unique Subject Identifier"^^xsd:string . 
:M-CDISC_SDTMMODEL_USUBJID bd:ordinal "3"^^xsd:positiveInteger . 
:M-CDISC_SDTMMODEL_USUBJID bd:name "USUBJID"^^xsd:string . 
:M-CDISC_SDTMMODEL_USUBJID bd:prefixed "false"^^xsd:boolean . 
:M-CDISC_SDTMMODEL_USUBJID bd:description "Identifier used to uniquely identify a subject across all studies for all applications or submissions involving the product."^^xsd:string . 
:M-CDISC_SDTMMODEL_USUBJID bd:rule ""^^xsd:string . 
:M-CDISC_SDTMMODEL_USUBJID bd:typedAs :M-CDISC_SDTMMODEL_DT_CHAR . 
:M-CDISC_SDTMMODEL_USUBJID bd:classifiedAs :M-CDISC_SDTMMODEL_C_IDENTIFIER . 
:M-CDISC_SDTMMODEL bd:includesVariable :M-CDISC_SDTMMODEL_USUBJID . 
:M-CDISC_SDTMMODEL_xxSEQ rdf:type bd:ModelVariable . 
:M-CDISC_SDTMMODEL_xxSEQ rdfs:label "Sequence Number"^^xsd:string . 
:M-CDISC_SDTMMODEL_xxSEQ bd:ordinal "4"^^xsd:positiveInteger . 
:M-CDISC_SDTMMODEL_xxSEQ bd:name "--SEQ"^^xsd:string . 
:M-CDISC_SDTMMODEL_xxSEQ bd:prefixed "true"^^xsd:boolean . 
:M-CDISC_SDTMMODEL_xxSEQ bd:description "Sequence number to ensure uniqueness of records within a dataset for a subject (or within a parameter, in the case of the Trial Summary domain). May be any valid number (including decimals) and does not have to start at 1. Should be assigned to be in a consistent chronological order."^^xsd:string . 
:M-CDISC_SDTMMODEL_xxSEQ bd:rule ""^^xsd:string . 
:M-CDISC_SDTMMODEL_xxSEQ bd:typedAs :M-CDISC_SDTMMODEL_DT_NUM . 
:M-CDISC_SDTMMODEL_xxSEQ bd:classifiedAs :M-CDISC_SDTMMODEL_C_IDENTIFIER . 
:M-CDISC_SDTMMODEL bd:includesVariable :M-CDISC_SDTMMODEL_xxSEQ . 
:M-CDISC_SDTMMODEL_xxGRPID rdf:type bd:ModelVariable . 
:M-CDISC_SDTMMODEL_xxGRPID rdfs:label "Group ID"^^xsd:string . 
:M-CDISC_SDTMMODEL_xxGRPID bd:ordinal "5"^^xsd:positiveInteger . 
:M-CDISC_SDTMMODEL_xxGRPID bd:name "--GRPID"^^xsd:string . 
:M-CDISC_SDTMMODEL_xxGRPID bd:prefixed "true"^^xsd:boolean . 
:M-CDISC_SDTMMODEL_xxGRPID bd:description "Optional group identifier, used to link together a block of related records within a subject in a domain. Also used to link together a block of related records in the Trial Summary dataset (Section 3.4)."^^xsd:string . 
:M-CDISC_SDTMMODEL_xxGRPID bd:rule ""^^xsd:string . 
:M-CDISC_SDTMMODEL_xxGRPID bd:typedAs :M-CDISC_SDTMMODEL_DT_CHAR . 
:M-CDISC_SDTMMODEL_xxGRPID bd:classifiedAs :M-CDISC_SDTMMODEL_C_IDENTIFIER . 
:M-CDISC_SDTMMODEL bd:includesVariable :M-CDISC_SDTMMODEL_xxGRPID . 
:M-CDISC_SDTMMODEL_xxREFID rdf:type bd:ModelVariable . 
:M-CDISC_SDTMMODEL_xxREFID rdfs:label "Reference ID"^^xsd:string . 
:M-CDISC_SDTMMODEL_xxREFID bd:ordinal "6"^^xsd:positiveInteger . 
:M-CDISC_SDTMMODEL_xxREFID bd:name "--REFID"^^xsd:string . 
:M-CDISC_SDTMMODEL_xxREFID bd:prefixed "true"^^xsd:boolean . 
:M-CDISC_SDTMMODEL_xxREFID bd:description "Optional internal or external identifier such as lab specimen ID, or UUID for an ECG waveform or a medical image."^^xsd:string . 
:M-CDISC_SDTMMODEL_xxREFID bd:rule ""^^xsd:string . 
:M-CDISC_SDTMMODEL_xxREFID bd:typedAs :M-CDISC_SDTMMODEL_DT_CHAR . 
:M-CDISC_SDTMMODEL_xxREFID bd:classifiedAs :M-CDISC_SDTMMODEL_C_IDENTIFIER . 
:M-CDISC_SDTMMODEL bd:includesVariable :M-CDISC_SDTMMODEL_xxREFID . 
:M-CDISC_SDTMMODEL_xxSPID rdf:type bd:ModelVariable . 
:M-CDISC_SDTMMODEL_xxSPID rdfs:label "Sponsor ID"^^xsd:string . 
:M-CDISC_SDTMMODEL_xxSPID bd:ordinal "7"^^xsd:positiveInteger . 
:M-CDISC_SDTMMODEL_xxSPID bd:name "--SPID"^^xsd:string . 
:M-CDISC_SDTMMODEL_xxSPID bd:prefixed "true"^^xsd:boolean . 
:M-CDISC_SDTMMODEL_xxSPID bd:description "Sponsor-defined identifier. Example: pre-printed line identifier on a Concomitant Medications page."^^xsd:string . 
:M-CDISC_SDTMMODEL_xxSPID bd:rule ""^^xsd:string . 
:M-CDISC_SDTMMODEL_xxSPID bd:typedAs :M-CDISC_SDTMMODEL_DT_CHAR . 
:M-CDISC_SDTMMODEL_xxSPID bd:classifiedAs :M-CDISC_SDTMMODEL_C_IDENTIFIER . 
:M-CDISC_SDTMMODEL bd:includesVariable :M-CDISC_SDTMMODEL_xxSPID . 
:M-CDISC_SDTMMODEL_VISITNUM rdf:type bd:ModelVariable . 
:M-CDISC_SDTMMODEL_VISITNUM rdfs:label "Visit Number"^^xsd:string . 
:M-CDISC_SDTMMODEL_VISITNUM bd:ordinal "8"^^xsd:positiveInteger . 
:M-CDISC_SDTMMODEL_VISITNUM bd:name "VISITNUM"^^xsd:string . 
:M-CDISC_SDTMMODEL_VISITNUM bd:prefixed "false"^^xsd:boolean . 
:M-CDISC_SDTMMODEL_VISITNUM bd:description "Clinical encounter number. Numeric version of VISIT, used for sorting."^^xsd:string . 
:M-CDISC_SDTMMODEL_VISITNUM bd:rule ""^^xsd:string . 
:M-CDISC_SDTMMODEL_VISITNUM bd:typedAs :M-CDISC_SDTMMODEL_DT_NUM . 
:M-CDISC_SDTMMODEL_VISITNUM bd:classifiedAs :M-CDISC_SDTMMODEL_C_TIMING . 
:M-CDISC_SDTMMODEL bd:includesVariable :M-CDISC_SDTMMODEL_VISITNUM . 
:M-CDISC_SDTMMODEL_VISIT rdf:type bd:ModelVariable . 
:M-CDISC_SDTMMODEL_VISIT rdfs:label "Visit Name"^^xsd:string . 
:M-CDISC_SDTMMODEL_VISIT bd:ordinal "9"^^xsd:positiveInteger . 
:M-CDISC_SDTMMODEL_VISIT bd:name "VISIT"^^xsd:string . 
:M-CDISC_SDTMMODEL_VISIT bd:prefixed "false"^^xsd:boolean . 
:M-CDISC_SDTMMODEL_VISIT bd:description "1. Protocol-defined description of clinical encounter. 2. May be used in addition to VISITNUM and/or VISITDY."^^xsd:string . 
:M-CDISC_SDTMMODEL_VISIT bd:rule ""^^xsd:string . 
:M-CDISC_SDTMMODEL_VISIT bd:typedAs :M-CDISC_SDTMMODEL_DT_CHAR . 
:M-CDISC_SDTMMODEL_VISIT bd:classifiedAs :M-CDISC_SDTMMODEL_C_TIMING . 
:M-CDISC_SDTMMODEL bd:includesVariable :M-CDISC_SDTMMODEL_VISIT . 
:M-CDISC_SDTMMODEL_VISITDY rdf:type bd:ModelVariable . 
:M-CDISC_SDTMMODEL_VISITDY rdfs:label "Planned Study Day of Visit"^^xsd:string . 
:M-CDISC_SDTMMODEL_VISITDY bd:ordinal "10"^^xsd:positiveInteger . 
:M-CDISC_SDTMMODEL_VISITDY bd:name "VISITDY"^^xsd:string . 
:M-CDISC_SDTMMODEL_VISITDY bd:prefixed "false"^^xsd:boolean . 
:M-CDISC_SDTMMODEL_VISITDY bd:description "Planned study day of the visit based upon RFSTDTC in Demographics."^^xsd:string . 
:M-CDISC_SDTMMODEL_VISITDY bd:rule ""^^xsd:string . 
:M-CDISC_SDTMMODEL_VISITDY bd:typedAs :M-CDISC_SDTMMODEL_DT_NUM . 
:M-CDISC_SDTMMODEL_VISITDY bd:classifiedAs :M-CDISC_SDTMMODEL_C_TIMING . 
:M-CDISC_SDTMMODEL bd:includesVariable :M-CDISC_SDTMMODEL_VISITDY . 
:M-CDISC_SDTMMODEL_TAETORD rdf:type bd:ModelVariable . 
:M-CDISC_SDTMMODEL_TAETORD rdfs:label "Planned Order of Elements within Arm"^^xsd:string . 
:M-CDISC_SDTMMODEL_TAETORD bd:ordinal "11"^^xsd:positiveInteger . 
:M-CDISC_SDTMMODEL_TAETORD bd:name "TAETORD"^^xsd:string . 
:M-CDISC_SDTMMODEL_TAETORD bd:prefixed "false"^^xsd:boolean . 
:M-CDISC_SDTMMODEL_TAETORD bd:description "Number that gives the order of the Element within the Arm."^^xsd:string . 
:M-CDISC_SDTMMODEL_TAETORD bd:rule ""^^xsd:string . 
:M-CDISC_SDTMMODEL_TAETORD bd:typedAs :M-CDISC_SDTMMODEL_DT_NUM . 
:M-CDISC_SDTMMODEL_TAETORD bd:classifiedAs :M-CDISC_SDTMMODEL_C_TIMING . 
:M-CDISC_SDTMMODEL bd:includesVariable :M-CDISC_SDTMMODEL_TAETORD . 
:M-CDISC_SDTMMODEL_EPOCH rdf:type bd:ModelVariable . 
:M-CDISC_SDTMMODEL_EPOCH rdfs:label "Epoch"^^xsd:string . 
:M-CDISC_SDTMMODEL_EPOCH bd:ordinal "12"^^xsd:positiveInteger . 
:M-CDISC_SDTMMODEL_EPOCH bd:name "EPOCH"^^xsd:string . 
:M-CDISC_SDTMMODEL_EPOCH bd:prefixed "false"^^xsd:boolean . 
:M-CDISC_SDTMMODEL_EPOCH bd:description "Epoch associated with the Element in the planned sequence of Elements for the ARM to which the subject was assigned"^^xsd:string . 
:M-CDISC_SDTMMODEL_EPOCH bd:rule ""^^xsd:string . 
:M-CDISC_SDTMMODEL_EPOCH bd:typedAs :M-CDISC_SDTMMODEL_DT_CHAR . 
:M-CDISC_SDTMMODEL_EPOCH bd:classifiedAs :M-CDISC_SDTMMODEL_C_TIMING . 
:M-CDISC_SDTMMODEL bd:includesVariable :M-CDISC_SDTMMODEL_EPOCH . 
:M-CDISC_SDTMMODEL_xxDTC rdf:type bd:ModelVariable . 
:M-CDISC_SDTMMODEL_xxDTC rdfs:label "Date/Time of Collection"^^xsd:string . 
:M-CDISC_SDTMMODEL_xxDTC bd:ordinal "13"^^xsd:positiveInteger . 
:M-CDISC_SDTMMODEL_xxDTC bd:name "--DTC"^^xsd:string . 
:M-CDISC_SDTMMODEL_xxDTC bd:prefixed "true"^^xsd:boolean . 
:M-CDISC_SDTMMODEL_xxDTC bd:description "Collection date and time of an observation represented in IS0 8601 character format."^^xsd:string . 
:M-CDISC_SDTMMODEL_xxDTC bd:rule ""^^xsd:string . 
:M-CDISC_SDTMMODEL_xxDTC bd:typedAs :M-CDISC_SDTMMODEL_DT_CHAR . 
:M-CDISC_SDTMMODEL_xxDTC bd:classifiedAs :M-CDISC_SDTMMODEL_C_TIMING . 
:M-CDISC_SDTMMODEL bd:includesVariable :M-CDISC_SDTMMODEL_xxDTC . 
:M-CDISC_SDTMMODEL_xxSTDTC rdf:type bd:ModelVariable . 
:M-CDISC_SDTMMODEL_xxSTDTC rdfs:label "Start Date/Time of Observation"^^xsd:string . 
:M-CDISC_SDTMMODEL_xxSTDTC bd:ordinal "14"^^xsd:positiveInteger . 
:M-CDISC_SDTMMODEL_xxSTDTC bd:name "--STDTC"^^xsd:string . 
:M-CDISC_SDTMMODEL_xxSTDTC bd:prefixed "true"^^xsd:boolean . 
:M-CDISC_SDTMMODEL_xxSTDTC bd:description "Start date/time of an observation represented in IS0 8601 character format."^^xsd:string . 
:M-CDISC_SDTMMODEL_xxSTDTC bd:rule ""^^xsd:string . 
:M-CDISC_SDTMMODEL_xxSTDTC bd:typedAs :M-CDISC_SDTMMODEL_DT_CHAR . 
:M-CDISC_SDTMMODEL_xxSTDTC bd:classifiedAs :M-CDISC_SDTMMODEL_C_TIMING . 
:M-CDISC_SDTMMODEL bd:includesVariable :M-CDISC_SDTMMODEL_xxSTDTC . 
:M-CDISC_SDTMMODEL_xxENDTC rdf:type bd:ModelVariable . 
:M-CDISC_SDTMMODEL_xxENDTC rdfs:label "End Date/Time of Observation"^^xsd:string . 
:M-CDISC_SDTMMODEL_xxENDTC bd:ordinal "15"^^xsd:positiveInteger . 
:M-CDISC_SDTMMODEL_xxENDTC bd:name "--ENDTC"^^xsd:string . 
:M-CDISC_SDTMMODEL_xxENDTC bd:prefixed "true"^^xsd:boolean . 
:M-CDISC_SDTMMODEL_xxENDTC bd:description "End date/time of the observation represented in IS0 8601 character format."^^xsd:string . 
:M-CDISC_SDTMMODEL_xxENDTC bd:rule ""^^xsd:string . 
:M-CDISC_SDTMMODEL_xxENDTC bd:typedAs :M-CDISC_SDTMMODEL_DT_CHAR . 
:M-CDISC_SDTMMODEL_xxENDTC bd:classifiedAs :M-CDISC_SDTMMODEL_C_TIMING . 
:M-CDISC_SDTMMODEL bd:includesVariable :M-CDISC_SDTMMODEL_xxENDTC . 
:M-CDISC_SDTMMODEL_xxDY rdf:type bd:ModelVariable . 
:M-CDISC_SDTMMODEL_xxDY rdfs:label "Study Day of Visit/Collection/Exam"^^xsd:string . 
:M-CDISC_SDTMMODEL_xxDY bd:ordinal "16"^^xsd:positiveInteger . 
:M-CDISC_SDTMMODEL_xxDY bd:name "--DY"^^xsd:string . 
:M-CDISC_SDTMMODEL_xxDY bd:prefixed "true"^^xsd:boolean . 
:M-CDISC_SDTMMODEL_xxDY bd:description "Actual study day of visit/collection/exam expressed in integer days relative to the sponsor-defined RFSTDTC in Demographics."^^xsd:string . 
:M-CDISC_SDTMMODEL_xxDY bd:rule ""^^xsd:string . 
:M-CDISC_SDTMMODEL_xxDY bd:typedAs :M-CDISC_SDTMMODEL_DT_NUM . 
:M-CDISC_SDTMMODEL_xxDY bd:classifiedAs :M-CDISC_SDTMMODEL_C_TIMING . 
:M-CDISC_SDTMMODEL bd:includesVariable :M-CDISC_SDTMMODEL_xxDY . 
:M-CDISC_SDTMMODEL_xxSTDY rdf:type bd:ModelVariable . 
:M-CDISC_SDTMMODEL_xxSTDY rdfs:label "Study Day of Start of Observation"^^xsd:string . 
:M-CDISC_SDTMMODEL_xxSTDY bd:ordinal "17"^^xsd:positiveInteger . 
:M-CDISC_SDTMMODEL_xxSTDY bd:name "--STDY"^^xsd:string . 
:M-CDISC_SDTMMODEL_xxSTDY bd:prefixed "true"^^xsd:boolean . 
:M-CDISC_SDTMMODEL_xxSTDY bd:description "Actual study day of start of observation expressed in integer days relative to the sponsor-defined RFSTDTC in Demographics."^^xsd:string . 
:M-CDISC_SDTMMODEL_xxSTDY bd:rule ""^^xsd:string . 
:M-CDISC_SDTMMODEL_xxSTDY bd:typedAs :M-CDISC_SDTMMODEL_DT_NUM . 
:M-CDISC_SDTMMODEL_xxSTDY bd:classifiedAs :M-CDISC_SDTMMODEL_C_TIMING . 
:M-CDISC_SDTMMODEL bd:includesVariable :M-CDISC_SDTMMODEL_xxSTDY . 
:M-CDISC_SDTMMODEL_xxENDY rdf:type bd:ModelVariable . 
:M-CDISC_SDTMMODEL_xxENDY rdfs:label "Study Day of End of Observation"^^xsd:string . 
:M-CDISC_SDTMMODEL_xxENDY bd:ordinal "18"^^xsd:positiveInteger . 
:M-CDISC_SDTMMODEL_xxENDY bd:name "--ENDY"^^xsd:string . 
:M-CDISC_SDTMMODEL_xxENDY bd:prefixed "true"^^xsd:boolean . 
:M-CDISC_SDTMMODEL_xxENDY bd:description "Actual study day of end of observation expressed in integer days relative to the sponsor-defined RFSTDTC in Demographics."^^xsd:string . 
:M-CDISC_SDTMMODEL_xxENDY bd:rule ""^^xsd:string . 
:M-CDISC_SDTMMODEL_xxENDY bd:typedAs :M-CDISC_SDTMMODEL_DT_NUM . 
:M-CDISC_SDTMMODEL_xxENDY bd:classifiedAs :M-CDISC_SDTMMODEL_C_TIMING . 
:M-CDISC_SDTMMODEL bd:includesVariable :M-CDISC_SDTMMODEL_xxENDY . 
:M-CDISC_SDTMMODEL_xxDUR rdf:type bd:ModelVariable . 
:M-CDISC_SDTMMODEL_xxDUR rdfs:label "Duration"^^xsd:string . 
:M-CDISC_SDTMMODEL_xxDUR bd:ordinal "19"^^xsd:positiveInteger . 
:M-CDISC_SDTMMODEL_xxDUR bd:name "--DUR"^^xsd:string . 
:M-CDISC_SDTMMODEL_xxDUR bd:prefixed "true"^^xsd:boolean . 
:M-CDISC_SDTMMODEL_xxDUR bd:description "Collected duration of an event, intervention, or finding represented in ISO 8601 character format. Used only if collected on the CRF and not derived."^^xsd:string . 
:M-CDISC_SDTMMODEL_xxDUR bd:rule ""^^xsd:string . 
:M-CDISC_SDTMMODEL_xxDUR bd:typedAs :M-CDISC_SDTMMODEL_DT_CHAR . 
:M-CDISC_SDTMMODEL_xxDUR bd:classifiedAs :M-CDISC_SDTMMODEL_C_TIMING . 
:M-CDISC_SDTMMODEL bd:includesVariable :M-CDISC_SDTMMODEL_xxDUR . 
:M-CDISC_SDTMMODEL_xxTPT rdf:type bd:ModelVariable . 
:M-CDISC_SDTMMODEL_xxTPT rdfs:label "Planned Time Point Name"^^xsd:string . 
:M-CDISC_SDTMMODEL_xxTPT bd:ordinal "20"^^xsd:positiveInteger . 
:M-CDISC_SDTMMODEL_xxTPT bd:name "--TPT"^^xsd:string . 
:M-CDISC_SDTMMODEL_xxTPT bd:prefixed "true"^^xsd:boolean . 
:M-CDISC_SDTMMODEL_xxTPT bd:description "Text description of time when a measurement or observation should be taken as defined in the protocol. This may be represented as an elapsed time relative to a fixed reference point, such as time of last dose. See --TPTNUM and --TPTREF."^^xsd:string . 
:M-CDISC_SDTMMODEL_xxTPT bd:rule ""^^xsd:string . 
:M-CDISC_SDTMMODEL_xxTPT bd:typedAs :M-CDISC_SDTMMODEL_DT_CHAR . 
:M-CDISC_SDTMMODEL_xxTPT bd:classifiedAs :M-CDISC_SDTMMODEL_C_TIMING . 
:M-CDISC_SDTMMODEL bd:includesVariable :M-CDISC_SDTMMODEL_xxTPT . 
:M-CDISC_SDTMMODEL_xxTPTNUM rdf:type bd:ModelVariable . 
:M-CDISC_SDTMMODEL_xxTPTNUM rdfs:label "Planned Time Point Number"^^xsd:string . 
:M-CDISC_SDTMMODEL_xxTPTNUM bd:ordinal "21"^^xsd:positiveInteger . 
:M-CDISC_SDTMMODEL_xxTPTNUM bd:name "--TPTNUM"^^xsd:string . 
:M-CDISC_SDTMMODEL_xxTPTNUM bd:prefixed "true"^^xsd:boolean . 
:M-CDISC_SDTMMODEL_xxTPTNUM bd:description "Numeric version of planned time point used in sorting."^^xsd:string . 
:M-CDISC_SDTMMODEL_xxTPTNUM bd:rule ""^^xsd:string . 
:M-CDISC_SDTMMODEL_xxTPTNUM bd:typedAs :M-CDISC_SDTMMODEL_DT_NUM . 
:M-CDISC_SDTMMODEL_xxTPTNUM bd:classifiedAs :M-CDISC_SDTMMODEL_C_TIMING . 
:M-CDISC_SDTMMODEL bd:includesVariable :M-CDISC_SDTMMODEL_xxTPTNUM . 
:M-CDISC_SDTMMODEL_xxELTM rdf:type bd:ModelVariable . 
:M-CDISC_SDTMMODEL_xxELTM rdfs:label "Planned Elapsed Time from Time Point Ref"^^xsd:string . 
:M-CDISC_SDTMMODEL_xxELTM bd:ordinal "22"^^xsd:positiveInteger . 
:M-CDISC_SDTMMODEL_xxELTM bd:name "--ELTM"^^xsd:string . 
:M-CDISC_SDTMMODEL_xxELTM bd:prefixed "true"^^xsd:boolean . 
:M-CDISC_SDTMMODEL_xxELTM bd:description "Planned Elapsed time in ISO 8601 character format relative to a planned fixed reference (--TPTREF) such as 'Previous Dose' or 'Previous Meal'. This variable is useful where there are repetitive measures. Not a clock time or a date/time variable, but an interval, represented as ISO duration."^^xsd:string . 
:M-CDISC_SDTMMODEL_xxELTM bd:rule ""^^xsd:string . 
:M-CDISC_SDTMMODEL_xxELTM bd:typedAs :M-CDISC_SDTMMODEL_DT_CHAR . 
:M-CDISC_SDTMMODEL_xxELTM bd:classifiedAs :M-CDISC_SDTMMODEL_C_TIMING . 
:M-CDISC_SDTMMODEL bd:includesVariable :M-CDISC_SDTMMODEL_xxELTM . 
:M-CDISC_SDTMMODEL_xxTPTREF rdf:type bd:ModelVariable . 
:M-CDISC_SDTMMODEL_xxTPTREF rdfs:label "Time Point Reference"^^xsd:string . 
:M-CDISC_SDTMMODEL_xxTPTREF bd:ordinal "23"^^xsd:positiveInteger . 
:M-CDISC_SDTMMODEL_xxTPTREF bd:name "--TPTREF"^^xsd:string . 
:M-CDISC_SDTMMODEL_xxTPTREF bd:prefixed "true"^^xsd:boolean . 
:M-CDISC_SDTMMODEL_xxTPTREF bd:description "Description of the fixed reference point referred to by --ELTM, --TPTNUM, and --TPT. Examples: PREVIOUS DOSE, PREVIOUS MEAL."^^xsd:string . 
:M-CDISC_SDTMMODEL_xxTPTREF bd:rule ""^^xsd:string . 
:M-CDISC_SDTMMODEL_xxTPTREF bd:typedAs :M-CDISC_SDTMMODEL_DT_CHAR . 
:M-CDISC_SDTMMODEL_xxTPTREF bd:classifiedAs :M-CDISC_SDTMMODEL_C_TIMING . 
:M-CDISC_SDTMMODEL bd:includesVariable :M-CDISC_SDTMMODEL_xxTPTREF . 
:M-CDISC_SDTMMODEL_xxRFTDTC rdf:type bd:ModelVariable . 
:M-CDISC_SDTMMODEL_xxRFTDTC rdfs:label "Date/Time of Reference Time Point"^^xsd:string . 
:M-CDISC_SDTMMODEL_xxRFTDTC bd:ordinal "24"^^xsd:positiveInteger . 
:M-CDISC_SDTMMODEL_xxRFTDTC bd:name "--RFTDTC"^^xsd:string . 
:M-CDISC_SDTMMODEL_xxRFTDTC bd:prefixed "true"^^xsd:boolean . 
:M-CDISC_SDTMMODEL_xxRFTDTC bd:description "Date/time for a fixed reference time point defined by --TPTREF in ISO 8601 character format."^^xsd:string . 
:M-CDISC_SDTMMODEL_xxRFTDTC bd:rule ""^^xsd:string . 
:M-CDISC_SDTMMODEL_xxRFTDTC bd:typedAs :M-CDISC_SDTMMODEL_DT_CHAR . 
:M-CDISC_SDTMMODEL_xxRFTDTC bd:classifiedAs :M-CDISC_SDTMMODEL_C_TIMING . 
:M-CDISC_SDTMMODEL bd:includesVariable :M-CDISC_SDTMMODEL_xxRFTDTC . 
:M-CDISC_SDTMMODEL_xxSTRF rdf:type bd:ModelVariable . 
:M-CDISC_SDTMMODEL_xxSTRF rdfs:label "Start Relative to Reference Period"^^xsd:string . 
:M-CDISC_SDTMMODEL_xxSTRF bd:ordinal "25"^^xsd:positiveInteger . 
:M-CDISC_SDTMMODEL_xxSTRF bd:name "--STRF"^^xsd:string . 
:M-CDISC_SDTMMODEL_xxSTRF bd:prefixed "true"^^xsd:boolean . 
:M-CDISC_SDTMMODEL_xxSTRF bd:description "Identifies the start of the observation as being before, during, or after the sponsor-defined reference period. The sponsor-defined reference period is a continuous period of time defined by a discrete starting point and a discrete ending point represented by RFSTDTC and RFENDTC in Demographics."^^xsd:string . 
:M-CDISC_SDTMMODEL_xxSTRF bd:rule ""^^xsd:string . 
:M-CDISC_SDTMMODEL_xxSTRF bd:typedAs :M-CDISC_SDTMMODEL_DT_CHAR . 
:M-CDISC_SDTMMODEL_xxSTRF bd:classifiedAs :M-CDISC_SDTMMODEL_C_TIMING . 
:M-CDISC_SDTMMODEL bd:includesVariable :M-CDISC_SDTMMODEL_xxSTRF . 
:M-CDISC_SDTMMODEL_xxENRF rdf:type bd:ModelVariable . 
:M-CDISC_SDTMMODEL_xxENRF rdfs:label "End Relative to Reference Period"^^xsd:string . 
:M-CDISC_SDTMMODEL_xxENRF bd:ordinal "26"^^xsd:positiveInteger . 
:M-CDISC_SDTMMODEL_xxENRF bd:name "--ENRF"^^xsd:string . 
:M-CDISC_SDTMMODEL_xxENRF bd:prefixed "true"^^xsd:boolean . 
:M-CDISC_SDTMMODEL_xxENRF bd:description "Identifies the end of the observation as being before, during or after the sponsor-defined reference period. The sponsor-defined reference period is a continuous period of time defined by a discrete starting point and a discrete ending point represented by RFSTDTC and RFENDTC in Demographics."^^xsd:string . 
:M-CDISC_SDTMMODEL_xxENRF bd:rule ""^^xsd:string . 
:M-CDISC_SDTMMODEL_xxENRF bd:typedAs :M-CDISC_SDTMMODEL_DT_CHAR . 
:M-CDISC_SDTMMODEL_xxENRF bd:classifiedAs :M-CDISC_SDTMMODEL_C_TIMING . 
:M-CDISC_SDTMMODEL bd:includesVariable :M-CDISC_SDTMMODEL_xxENRF . 
:M-CDISC_SDTMMODEL_xxEVLINT rdf:type bd:ModelVariable . 
:M-CDISC_SDTMMODEL_xxEVLINT rdfs:label "Evaluation Interval"^^xsd:string . 
:M-CDISC_SDTMMODEL_xxEVLINT bd:ordinal "27"^^xsd:positiveInteger . 
:M-CDISC_SDTMMODEL_xxEVLINT bd:name "--EVLINT"^^xsd:string . 
:M-CDISC_SDTMMODEL_xxEVLINT bd:prefixed "true"^^xsd:boolean . 
:M-CDISC_SDTMMODEL_xxEVLINT bd:description "Evaluation interval associated with an observation such as a finding --TESTCD, represented in ISO 8601 character format. Example: -P2M to represent a period of the past 2 months as the evaluation interval for a question from a questionnaire such as SF-36."^^xsd:string . 
:M-CDISC_SDTMMODEL_xxEVLINT bd:rule ""^^xsd:string . 
:M-CDISC_SDTMMODEL_xxEVLINT bd:typedAs :M-CDISC_SDTMMODEL_DT_CHAR . 
:M-CDISC_SDTMMODEL_xxEVLINT bd:classifiedAs :M-CDISC_SDTMMODEL_C_TIMING . 
:M-CDISC_SDTMMODEL bd:includesVariable :M-CDISC_SDTMMODEL_xxEVLINT . 
:M-CDISC_SDTMMODEL_xxSTRTPT rdf:type bd:ModelVariable . 
:M-CDISC_SDTMMODEL_xxSTRTPT rdfs:label "Start Relative to Reference Time Point"^^xsd:string . 
:M-CDISC_SDTMMODEL_xxSTRTPT bd:ordinal "28"^^xsd:positiveInteger . 
:M-CDISC_SDTMMODEL_xxSTRTPT bd:name "--STRTPT"^^xsd:string . 
:M-CDISC_SDTMMODEL_xxSTRTPT bd:prefixed "true"^^xsd:boolean . 
:M-CDISC_SDTMMODEL_xxSTRTPT bd:description "Identifies the start of the observation as being before or after the sponsor-defined reference time point defined by variable --STTPT."^^xsd:string . 
:M-CDISC_SDTMMODEL_xxSTRTPT bd:rule ""^^xsd:string . 
:M-CDISC_SDTMMODEL_xxSTRTPT bd:typedAs :M-CDISC_SDTMMODEL_DT_CHAR . 
:M-CDISC_SDTMMODEL_xxSTRTPT bd:classifiedAs :M-CDISC_SDTMMODEL_C_TIMING . 
:M-CDISC_SDTMMODEL bd:includesVariable :M-CDISC_SDTMMODEL_xxSTRTPT . 
:M-CDISC_SDTMMODEL_xxSTTPT rdf:type bd:ModelVariable . 
:M-CDISC_SDTMMODEL_xxSTTPT rdfs:label "Start Reference Time Point"^^xsd:string . 
:M-CDISC_SDTMMODEL_xxSTTPT bd:ordinal "29"^^xsd:positiveInteger . 
:M-CDISC_SDTMMODEL_xxSTTPT bd:name "--STTPT"^^xsd:string . 
:M-CDISC_SDTMMODEL_xxSTTPT bd:prefixed "true"^^xsd:boolean . 
:M-CDISC_SDTMMODEL_xxSTTPT bd:description "Description or date/time in ISO 8601 character format of the sponsor-defined reference point referred to by --STRTPT. Examples: '2003-12-15' or 'VISIT 1'."^^xsd:string . 
:M-CDISC_SDTMMODEL_xxSTTPT bd:rule ""^^xsd:string . 
:M-CDISC_SDTMMODEL_xxSTTPT bd:typedAs :M-CDISC_SDTMMODEL_DT_CHAR . 
:M-CDISC_SDTMMODEL_xxSTTPT bd:classifiedAs :M-CDISC_SDTMMODEL_C_TIMING . 
:M-CDISC_SDTMMODEL bd:includesVariable :M-CDISC_SDTMMODEL_xxSTTPT . 
:M-CDISC_SDTMMODEL_xxENRTPT rdf:type bd:ModelVariable . 
:M-CDISC_SDTMMODEL_xxENRTPT rdfs:label "End Relative to Reference Time Point"^^xsd:string . 
:M-CDISC_SDTMMODEL_xxENRTPT bd:ordinal "30"^^xsd:positiveInteger . 
:M-CDISC_SDTMMODEL_xxENRTPT bd:name "--ENRTPT"^^xsd:string . 
:M-CDISC_SDTMMODEL_xxENRTPT bd:prefixed "true"^^xsd:boolean . 
:M-CDISC_SDTMMODEL_xxENRTPT bd:description "Identifies the end of the observation as being before or after the sponsor-defined reference time point defined by variable --ENTPT."^^xsd:string . 
:M-CDISC_SDTMMODEL_xxENRTPT bd:rule ""^^xsd:string . 
:M-CDISC_SDTMMODEL_xxENRTPT bd:typedAs :M-CDISC_SDTMMODEL_DT_CHAR . 
:M-CDISC_SDTMMODEL_xxENRTPT bd:classifiedAs :M-CDISC_SDTMMODEL_C_TIMING . 
:M-CDISC_SDTMMODEL bd:includesVariable :M-CDISC_SDTMMODEL_xxENRTPT . 
:M-CDISC_SDTMMODEL_xxENTPT rdf:type bd:ModelVariable . 
:M-CDISC_SDTMMODEL_xxENTPT rdfs:label "End Reference Time Point"^^xsd:string . 
:M-CDISC_SDTMMODEL_xxENTPT bd:ordinal "31"^^xsd:positiveInteger . 
:M-CDISC_SDTMMODEL_xxENTPT bd:name "--ENTPT"^^xsd:string . 
:M-CDISC_SDTMMODEL_xxENTPT bd:prefixed "true"^^xsd:boolean . 
:M-CDISC_SDTMMODEL_xxENTPT bd:description "Description or date/time in ISO 8601 character format of the sponsor-defined reference point referred to by --ENRTPT. Examples: '2003-12-25' or 'VISIT 2'."^^xsd:string . 
:M-CDISC_SDTMMODEL_xxENTPT bd:rule ""^^xsd:string . 
:M-CDISC_SDTMMODEL_xxENTPT bd:typedAs :M-CDISC_SDTMMODEL_DT_CHAR . 
:M-CDISC_SDTMMODEL_xxENTPT bd:classifiedAs :M-CDISC_SDTMMODEL_C_TIMING . 
:M-CDISC_SDTMMODEL bd:includesVariable :M-CDISC_SDTMMODEL_xxENTPT . 
:M-CDISC_SDTMMODEL_xxTERM rdf:type bd:ModelVariable . 
:M-CDISC_SDTMMODEL_xxTERM rdfs:label "Reported Term"^^xsd:string . 
:M-CDISC_SDTMMODEL_xxTERM bd:ordinal "1"^^xsd:positiveInteger . 
:M-CDISC_SDTMMODEL_xxTERM bd:name "--TERM"^^xsd:string . 
:M-CDISC_SDTMMODEL_xxTERM bd:prefixed "true"^^xsd:boolean . 
:M-CDISC_SDTMMODEL_xxTERM bd:description "Topic variable for an event observation, which is the verbatim or pre-specified name of the event."^^xsd:string . 
:M-CDISC_SDTMMODEL_xxTERM bd:rule ""^^xsd:string . 
:M-CDISC_SDTMMODEL_xxTERM bd:typedAs :M-CDISC_SDTMMODEL_DT_CHAR . 
:M-CDISC_SDTMMODEL_xxTERM bd:classifiedAs :M-CDISC_SDTMMODEL_C_TOPIC . 
:M-CDISC_SDTMMODEL bd:includesVariable :M-CDISC_SDTMMODEL_xxTERM . 
:M-CDISC_SDTMMODEL_xxMODIFY rdf:type bd:ModelVariable . 
:M-CDISC_SDTMMODEL_xxMODIFY rdfs:label "Modified Reported Term"^^xsd:string . 
:M-CDISC_SDTMMODEL_xxMODIFY bd:ordinal "2"^^xsd:positiveInteger . 
:M-CDISC_SDTMMODEL_xxMODIFY bd:name "--MODIFY"^^xsd:string . 
:M-CDISC_SDTMMODEL_xxMODIFY bd:prefixed "true"^^xsd:boolean . 
:M-CDISC_SDTMMODEL_xxMODIFY bd:description "If the value for --TRT is modified for coding purposes, then the modified text is placed here."^^xsd:string . 
:M-CDISC_SDTMMODEL_xxMODIFY bd:rule ""^^xsd:string . 
:M-CDISC_SDTMMODEL_xxMODIFY bd:typedAs :M-CDISC_SDTMMODEL_DT_CHAR . 
:M-CDISC_SDTMMODEL_xxMODIFY bd:classifiedAs :M-CDISC_SDTMMODEL_SC_SYNONYMQUALIFIER . 
:M-CDISC_SDTMMODEL bd:includesVariable :M-CDISC_SDTMMODEL_xxMODIFY . 
:M-CDISC_SDTMMODEL_xxDECOD rdf:type bd:ModelVariable . 
:M-CDISC_SDTMMODEL_xxDECOD rdfs:label "Dictionary-Derived Term"^^xsd:string . 
:M-CDISC_SDTMMODEL_xxDECOD bd:ordinal "3"^^xsd:positiveInteger . 
:M-CDISC_SDTMMODEL_xxDECOD bd:name "--DECOD"^^xsd:string . 
:M-CDISC_SDTMMODEL_xxDECOD bd:prefixed "true"^^xsd:boolean . 
:M-CDISC_SDTMMODEL_xxDECOD bd:description "Standardized or dictionary-derived name of the topic variable, --TRT, or the modified topic variable (--MODIFY), if applicable. Equivalent to the generic drug name in WHO Drug, or a term in SNOMED, ICD9, or other published or sponsor-defined dictionaries."^^xsd:string . 
:M-CDISC_SDTMMODEL_xxDECOD bd:rule ""^^xsd:string . 
:M-CDISC_SDTMMODEL_xxDECOD bd:typedAs :M-CDISC_SDTMMODEL_DT_CHAR . 
:M-CDISC_SDTMMODEL_xxDECOD bd:classifiedAs :M-CDISC_SDTMMODEL_SC_SYNONYMQUALIFIER . 
:M-CDISC_SDTMMODEL bd:includesVariable :M-CDISC_SDTMMODEL_xxDECOD . 
:M-CDISC_SDTMMODEL_xxCAT rdf:type bd:ModelVariable . 
:M-CDISC_SDTMMODEL_xxCAT rdfs:label "Category"^^xsd:string . 
:M-CDISC_SDTMMODEL_xxCAT bd:ordinal "4"^^xsd:positiveInteger . 
:M-CDISC_SDTMMODEL_xxCAT bd:name "--CAT"^^xsd:string . 
:M-CDISC_SDTMMODEL_xxCAT bd:prefixed "true"^^xsd:boolean . 
:M-CDISC_SDTMMODEL_xxCAT bd:description "Used to define a category of topic-variable values. Examples: HEMATOLOGY, URINALYSIS, CHEMISTRY, HAMILTON DEPRESSION SCALE, SF36."^^xsd:string . 
:M-CDISC_SDTMMODEL_xxCAT bd:rule ""^^xsd:string . 
:M-CDISC_SDTMMODEL_xxCAT bd:typedAs :M-CDISC_SDTMMODEL_DT_CHAR . 
:M-CDISC_SDTMMODEL_xxCAT bd:classifiedAs :M-CDISC_SDTMMODEL_SC_GROUPINGQUALIFIER . 
:M-CDISC_SDTMMODEL bd:includesVariable :M-CDISC_SDTMMODEL_xxCAT . 
:M-CDISC_SDTMMODEL_xxSCAT rdf:type bd:ModelVariable . 
:M-CDISC_SDTMMODEL_xxSCAT rdfs:label "Subcategory"^^xsd:string . 
:M-CDISC_SDTMMODEL_xxSCAT bd:ordinal "5"^^xsd:positiveInteger . 
:M-CDISC_SDTMMODEL_xxSCAT bd:name "--SCAT"^^xsd:string . 
:M-CDISC_SDTMMODEL_xxSCAT bd:prefixed "true"^^xsd:boolean . 
:M-CDISC_SDTMMODEL_xxSCAT bd:description "Used to define a further categorization of --CAT values."^^xsd:string . 
:M-CDISC_SDTMMODEL_xxSCAT bd:rule ""^^xsd:string . 
:M-CDISC_SDTMMODEL_xxSCAT bd:typedAs :M-CDISC_SDTMMODEL_DT_CHAR . 
:M-CDISC_SDTMMODEL_xxSCAT bd:classifiedAs :M-CDISC_SDTMMODEL_SC_GROUPINGQUALIFIER . 
:M-CDISC_SDTMMODEL bd:includesVariable :M-CDISC_SDTMMODEL_xxSCAT . 
:M-CDISC_SDTMMODEL_xxPRESP rdf:type bd:ModelVariable . 
:M-CDISC_SDTMMODEL_xxPRESP rdfs:label "Pre-specified"^^xsd:string . 
:M-CDISC_SDTMMODEL_xxPRESP bd:ordinal "6"^^xsd:positiveInteger . 
:M-CDISC_SDTMMODEL_xxPRESP bd:name "--PRESP"^^xsd:string . 
:M-CDISC_SDTMMODEL_xxPRESP bd:prefixed "true"^^xsd:boolean . 
:M-CDISC_SDTMMODEL_xxPRESP bd:description "Used when a specific intervention is pre-specified on a CRF. Values should be 'Y' or null."^^xsd:string . 
:M-CDISC_SDTMMODEL_xxPRESP bd:rule ""^^xsd:string . 
:M-CDISC_SDTMMODEL_xxPRESP bd:typedAs :M-CDISC_SDTMMODEL_DT_CHAR . 
:M-CDISC_SDTMMODEL_xxPRESP bd:classifiedAs :M-CDISC_SDTMMODEL_SC_RECORDQUALIFIER . 
:M-CDISC_SDTMMODEL bd:includesVariable :M-CDISC_SDTMMODEL_xxPRESP . 
:M-CDISC_SDTMMODEL_xxOCCUR rdf:type bd:ModelVariable . 
:M-CDISC_SDTMMODEL_xxOCCUR rdfs:label "Occurrence"^^xsd:string . 
:M-CDISC_SDTMMODEL_xxOCCUR bd:ordinal "7"^^xsd:positiveInteger . 
:M-CDISC_SDTMMODEL_xxOCCUR bd:name "--OCCUR"^^xsd:string . 
:M-CDISC_SDTMMODEL_xxOCCUR bd:prefixed "true"^^xsd:boolean . 
:M-CDISC_SDTMMODEL_xxOCCUR bd:description "Used to record whether a pre-specified event occurred when information about the occurrence of a specific event is solicited."^^xsd:string . 
:M-CDISC_SDTMMODEL_xxOCCUR bd:rule ""^^xsd:string . 
:M-CDISC_SDTMMODEL_xxOCCUR bd:typedAs :M-CDISC_SDTMMODEL_DT_CHAR . 
:M-CDISC_SDTMMODEL_xxOCCUR bd:classifiedAs :M-CDISC_SDTMMODEL_SC_RECORDQUALIFIER . 
:M-CDISC_SDTMMODEL bd:includesVariable :M-CDISC_SDTMMODEL_xxOCCUR . 
:M-CDISC_SDTMMODEL_xxSTAT rdf:type bd:ModelVariable . 
:M-CDISC_SDTMMODEL_xxSTAT rdfs:label "Completion Status"^^xsd:string . 
:M-CDISC_SDTMMODEL_xxSTAT bd:ordinal "8"^^xsd:positiveInteger . 
:M-CDISC_SDTMMODEL_xxSTAT bd:name "--STAT"^^xsd:string . 
:M-CDISC_SDTMMODEL_xxSTAT bd:prefixed "true"^^xsd:boolean . 
:M-CDISC_SDTMMODEL_xxSTAT bd:description "Used to indicate when a question about the occurrence of a pre-specified event was not answered. Should be null or have a value of NOT DONE."^^xsd:string . 
:M-CDISC_SDTMMODEL_xxSTAT bd:rule ""^^xsd:string . 
:M-CDISC_SDTMMODEL_xxSTAT bd:typedAs :M-CDISC_SDTMMODEL_DT_CHAR . 
:M-CDISC_SDTMMODEL_xxSTAT bd:classifiedAs :M-CDISC_SDTMMODEL_SC_RECORDQUALIFIER . 
:M-CDISC_SDTMMODEL bd:includesVariable :M-CDISC_SDTMMODEL_xxSTAT . 
:M-CDISC_SDTMMODEL_xxREASND rdf:type bd:ModelVariable . 
:M-CDISC_SDTMMODEL_xxREASND rdfs:label "Reason Not Done"^^xsd:string . 
:M-CDISC_SDTMMODEL_xxREASND bd:ordinal "9"^^xsd:positiveInteger . 
:M-CDISC_SDTMMODEL_xxREASND bd:name "--REASND"^^xsd:string . 
:M-CDISC_SDTMMODEL_xxREASND bd:prefixed "true"^^xsd:boolean . 
:M-CDISC_SDTMMODEL_xxREASND bd:description "Reason not done. Used in conjunction with --STAT when value is NOT DONE."^^xsd:string . 
:M-CDISC_SDTMMODEL_xxREASND bd:rule ""^^xsd:string . 
:M-CDISC_SDTMMODEL_xxREASND bd:typedAs :M-CDISC_SDTMMODEL_DT_CHAR . 
:M-CDISC_SDTMMODEL_xxREASND bd:classifiedAs :M-CDISC_SDTMMODEL_SC_RECORDQUALIFIER . 
:M-CDISC_SDTMMODEL bd:includesVariable :M-CDISC_SDTMMODEL_xxREASND . 
:M-CDISC_SDTMMODEL_xxBODSYS rdf:type bd:ModelVariable . 
:M-CDISC_SDTMMODEL_xxBODSYS rdfs:label "Body System or Organ Class"^^xsd:string . 
:M-CDISC_SDTMMODEL_xxBODSYS bd:ordinal "10"^^xsd:positiveInteger . 
:M-CDISC_SDTMMODEL_xxBODSYS bd:name "--BODSYS"^^xsd:string . 
:M-CDISC_SDTMMODEL_xxBODSYS bd:prefixed "true"^^xsd:boolean . 
:M-CDISC_SDTMMODEL_xxBODSYS bd:description "Body System or Organ Class that is involved for a finding from the standard hierarchy for dictionary-coded results. Example: MedDRA SOC."^^xsd:string . 
:M-CDISC_SDTMMODEL_xxBODSYS bd:rule ""^^xsd:string . 
:M-CDISC_SDTMMODEL_xxBODSYS bd:typedAs :M-CDISC_SDTMMODEL_DT_CHAR . 
:M-CDISC_SDTMMODEL_xxBODSYS bd:classifiedAs :M-CDISC_SDTMMODEL_SC_RECORDQUALIFIER . 
:M-CDISC_SDTMMODEL bd:includesVariable :M-CDISC_SDTMMODEL_xxBODSYS . 
:M-CDISC_SDTMMODEL_xxLOC rdf:type bd:ModelVariable . 
:M-CDISC_SDTMMODEL_xxLOC rdfs:label "Location of Event"^^xsd:string . 
:M-CDISC_SDTMMODEL_xxLOC bd:ordinal "11"^^xsd:positiveInteger . 
:M-CDISC_SDTMMODEL_xxLOC bd:name "--LOC"^^xsd:string . 
:M-CDISC_SDTMMODEL_xxLOC bd:prefixed "true"^^xsd:boolean . 
:M-CDISC_SDTMMODEL_xxLOC bd:description "Anatomical location of an intervention, such as an injection site. Example: RIGHT ARM for an injection."^^xsd:string . 
:M-CDISC_SDTMMODEL_xxLOC bd:rule ""^^xsd:string . 
:M-CDISC_SDTMMODEL_xxLOC bd:typedAs :M-CDISC_SDTMMODEL_DT_CHAR . 
:M-CDISC_SDTMMODEL_xxLOC bd:classifiedAs :M-CDISC_SDTMMODEL_SC_RECORDQUALIFIER . 
:M-CDISC_SDTMMODEL bd:includesVariable :M-CDISC_SDTMMODEL_xxLOC . 
:M-CDISC_SDTMMODEL_xxSEV rdf:type bd:ModelVariable . 
:M-CDISC_SDTMMODEL_xxSEV rdfs:label "Severity/Intensity"^^xsd:string . 
:M-CDISC_SDTMMODEL_xxSEV bd:ordinal "12"^^xsd:positiveInteger . 
:M-CDISC_SDTMMODEL_xxSEV bd:name "--SEV"^^xsd:string . 
:M-CDISC_SDTMMODEL_xxSEV bd:prefixed "true"^^xsd:boolean . 
:M-CDISC_SDTMMODEL_xxSEV bd:description "Describes the severity or intensity of a particular finding. Examples: MILD, MODERATE, SEVERE."^^xsd:string . 
:M-CDISC_SDTMMODEL_xxSEV bd:rule ""^^xsd:string . 
:M-CDISC_SDTMMODEL_xxSEV bd:typedAs :M-CDISC_SDTMMODEL_DT_CHAR . 
:M-CDISC_SDTMMODEL_xxSEV bd:classifiedAs :M-CDISC_SDTMMODEL_SC_RECORDQUALIFIER . 
:M-CDISC_SDTMMODEL bd:includesVariable :M-CDISC_SDTMMODEL_xxSEV . 
:M-CDISC_SDTMMODEL_xxSER rdf:type bd:ModelVariable . 
:M-CDISC_SDTMMODEL_xxSER rdfs:label "Serious Event"^^xsd:string . 
:M-CDISC_SDTMMODEL_xxSER bd:ordinal "13"^^xsd:positiveInteger . 
:M-CDISC_SDTMMODEL_xxSER bd:name "--SER"^^xsd:string . 
:M-CDISC_SDTMMODEL_xxSER bd:prefixed "true"^^xsd:boolean . 
:M-CDISC_SDTMMODEL_xxSER bd:description "Is this is a serious event? Valid values are 'Y' and 'N'."^^xsd:string . 
:M-CDISC_SDTMMODEL_xxSER bd:rule ""^^xsd:string . 
:M-CDISC_SDTMMODEL_xxSER bd:typedAs :M-CDISC_SDTMMODEL_DT_CHAR . 
:M-CDISC_SDTMMODEL_xxSER bd:classifiedAs :M-CDISC_SDTMMODEL_SC_RECORDQUALIFIER . 
:M-CDISC_SDTMMODEL bd:includesVariable :M-CDISC_SDTMMODEL_xxSER . 
:M-CDISC_SDTMMODEL_xxACN rdf:type bd:ModelVariable . 
:M-CDISC_SDTMMODEL_xxACN rdfs:label "Action Taken with Study Treatment"^^xsd:string . 
:M-CDISC_SDTMMODEL_xxACN bd:ordinal "14"^^xsd:positiveInteger . 
:M-CDISC_SDTMMODEL_xxACN bd:name "--ACN"^^xsd:string . 
:M-CDISC_SDTMMODEL_xxACN bd:prefixed "true"^^xsd:boolean . 
:M-CDISC_SDTMMODEL_xxACN bd:description "Describes changes made to the study treatment as a result of the event. Examples: DOSE INCREASED, DOSE NOT CHANGED."^^xsd:string . 
:M-CDISC_SDTMMODEL_xxACN bd:rule ""^^xsd:string . 
:M-CDISC_SDTMMODEL_xxACN bd:typedAs :M-CDISC_SDTMMODEL_DT_CHAR . 
:M-CDISC_SDTMMODEL_xxACN bd:classifiedAs :M-CDISC_SDTMMODEL_SC_RECORDQUALIFIER . 
:M-CDISC_SDTMMODEL bd:includesVariable :M-CDISC_SDTMMODEL_xxACN . 
:M-CDISC_SDTMMODEL_xxACNOTH rdf:type bd:ModelVariable . 
:M-CDISC_SDTMMODEL_xxACNOTH rdfs:label "Other Action Taken"^^xsd:string . 
:M-CDISC_SDTMMODEL_xxACNOTH bd:ordinal "15"^^xsd:positiveInteger . 
:M-CDISC_SDTMMODEL_xxACNOTH bd:name "--ACNOTH"^^xsd:string . 
:M-CDISC_SDTMMODEL_xxACNOTH bd:prefixed "true"^^xsd:boolean . 
:M-CDISC_SDTMMODEL_xxACNOTH bd:description "Describes other actions taken as a result of the event that are unrelated to dose adjustments of study treatment."^^xsd:string . 
:M-CDISC_SDTMMODEL_xxACNOTH bd:rule ""^^xsd:string . 
:M-CDISC_SDTMMODEL_xxACNOTH bd:typedAs :M-CDISC_SDTMMODEL_DT_CHAR . 
:M-CDISC_SDTMMODEL_xxACNOTH bd:classifiedAs :M-CDISC_SDTMMODEL_SC_RECORDQUALIFIER . 
:M-CDISC_SDTMMODEL bd:includesVariable :M-CDISC_SDTMMODEL_xxACNOTH . 
:M-CDISC_SDTMMODEL_xxREL rdf:type bd:ModelVariable . 
:M-CDISC_SDTMMODEL_xxREL rdfs:label "Causality"^^xsd:string . 
:M-CDISC_SDTMMODEL_xxREL bd:ordinal "16"^^xsd:positiveInteger . 
:M-CDISC_SDTMMODEL_xxREL bd:name "--REL"^^xsd:string . 
:M-CDISC_SDTMMODEL_xxREL bd:prefixed "true"^^xsd:boolean . 
:M-CDISC_SDTMMODEL_xxREL bd:description "Records the investigator's opinion as to the causality of the event to the treatment. ICH E2A and E2B examples include NOT RELATED, UNLIKELY RELATED, POSSIBLY RELATED, RELATED."^^xsd:string . 
:M-CDISC_SDTMMODEL_xxREL bd:rule ""^^xsd:string . 
:M-CDISC_SDTMMODEL_xxREL bd:typedAs :M-CDISC_SDTMMODEL_DT_CHAR . 
:M-CDISC_SDTMMODEL_xxREL bd:classifiedAs :M-CDISC_SDTMMODEL_SC_RECORDQUALIFIER . 
:M-CDISC_SDTMMODEL bd:includesVariable :M-CDISC_SDTMMODEL_xxREL . 
:M-CDISC_SDTMMODEL_xxRELNST rdf:type bd:ModelVariable . 
:M-CDISC_SDTMMODEL_xxRELNST rdfs:label "Relationship to Non-Study Treatment"^^xsd:string . 
:M-CDISC_SDTMMODEL_xxRELNST bd:ordinal "17"^^xsd:positiveInteger . 
:M-CDISC_SDTMMODEL_xxRELNST bd:name "--RELNST"^^xsd:string . 
:M-CDISC_SDTMMODEL_xxRELNST bd:prefixed "true"^^xsd:boolean . 
:M-CDISC_SDTMMODEL_xxRELNST bd:description "An opinion as to whether the event may have been due to a treatment other than study drug. Example: 'MORE LIKELY RELATED TO ASPIRIN USE.'"^^xsd:string . 
:M-CDISC_SDTMMODEL_xxRELNST bd:rule ""^^xsd:string . 
:M-CDISC_SDTMMODEL_xxRELNST bd:typedAs :M-CDISC_SDTMMODEL_DT_CHAR . 
:M-CDISC_SDTMMODEL_xxRELNST bd:classifiedAs :M-CDISC_SDTMMODEL_SC_RECORDQUALIFIER . 
:M-CDISC_SDTMMODEL bd:includesVariable :M-CDISC_SDTMMODEL_xxRELNST . 
:M-CDISC_SDTMMODEL_xxPATT rdf:type bd:ModelVariable . 
:M-CDISC_SDTMMODEL_xxPATT rdfs:label "Pattern of Event"^^xsd:string . 
:M-CDISC_SDTMMODEL_xxPATT bd:ordinal "18"^^xsd:positiveInteger . 
:M-CDISC_SDTMMODEL_xxPATT bd:name "--PATT"^^xsd:string . 
:M-CDISC_SDTMMODEL_xxPATT bd:prefixed "true"^^xsd:boolean . 
:M-CDISC_SDTMMODEL_xxPATT bd:description "Used to indicate the pattern of the event over time. Examples: INTERMITTENT, CONTINUOUS, SINGLE EVENT."^^xsd:string . 
:M-CDISC_SDTMMODEL_xxPATT bd:rule ""^^xsd:string . 
:M-CDISC_SDTMMODEL_xxPATT bd:typedAs :M-CDISC_SDTMMODEL_DT_CHAR . 
:M-CDISC_SDTMMODEL_xxPATT bd:classifiedAs :M-CDISC_SDTMMODEL_SC_RECORDQUALIFIER . 
:M-CDISC_SDTMMODEL bd:includesVariable :M-CDISC_SDTMMODEL_xxPATT . 
:M-CDISC_SDTMMODEL_xxOUT rdf:type bd:ModelVariable . 
:M-CDISC_SDTMMODEL_xxOUT rdfs:label "Outcome of Event"^^xsd:string . 
:M-CDISC_SDTMMODEL_xxOUT bd:ordinal "19"^^xsd:positiveInteger . 
:M-CDISC_SDTMMODEL_xxOUT bd:name "--OUT"^^xsd:string . 
:M-CDISC_SDTMMODEL_xxOUT bd:prefixed "true"^^xsd:boolean . 
:M-CDISC_SDTMMODEL_xxOUT bd:description "Description of the outcome of an event. Examples: RECOVERED/RESOLVED, FATAL."^^xsd:string . 
:M-CDISC_SDTMMODEL_xxOUT bd:rule ""^^xsd:string . 
:M-CDISC_SDTMMODEL_xxOUT bd:typedAs :M-CDISC_SDTMMODEL_DT_CHAR . 
:M-CDISC_SDTMMODEL_xxOUT bd:classifiedAs :M-CDISC_SDTMMODEL_SC_RECORDQUALIFIER . 
:M-CDISC_SDTMMODEL bd:includesVariable :M-CDISC_SDTMMODEL_xxOUT . 
:M-CDISC_SDTMMODEL_xxSCAN rdf:type bd:ModelVariable . 
:M-CDISC_SDTMMODEL_xxSCAN rdfs:label "Involves Cancer"^^xsd:string . 
:M-CDISC_SDTMMODEL_xxSCAN bd:ordinal "20"^^xsd:positiveInteger . 
:M-CDISC_SDTMMODEL_xxSCAN bd:name "--SCAN"^^xsd:string . 
:M-CDISC_SDTMMODEL_xxSCAN bd:prefixed "true"^^xsd:boolean . 
:M-CDISC_SDTMMODEL_xxSCAN bd:description "Was the event associated with the development of cancer? Valid values are 'Y' and 'N'."^^xsd:string . 
:M-CDISC_SDTMMODEL_xxSCAN bd:rule ""^^xsd:string . 
:M-CDISC_SDTMMODEL_xxSCAN bd:typedAs :M-CDISC_SDTMMODEL_DT_CHAR . 
:M-CDISC_SDTMMODEL_xxSCAN bd:classifiedAs :M-CDISC_SDTMMODEL_SC_RECORDQUALIFIER . 
:M-CDISC_SDTMMODEL bd:includesVariable :M-CDISC_SDTMMODEL_xxSCAN . 
:M-CDISC_SDTMMODEL_xxSCONG rdf:type bd:ModelVariable . 
:M-CDISC_SDTMMODEL_xxSCONG rdfs:label "Congenital Anomaly or Birth Defect"^^xsd:string . 
:M-CDISC_SDTMMODEL_xxSCONG bd:ordinal "21"^^xsd:positiveInteger . 
:M-CDISC_SDTMMODEL_xxSCONG bd:name "--SCONG"^^xsd:string . 
:M-CDISC_SDTMMODEL_xxSCONG bd:prefixed "true"^^xsd:boolean . 
:M-CDISC_SDTMMODEL_xxSCONG bd:description "Was the event associated with congenital anomaly or birth defect? Valid values are 'Y' and 'N'."^^xsd:string . 
:M-CDISC_SDTMMODEL_xxSCONG bd:rule ""^^xsd:string . 
:M-CDISC_SDTMMODEL_xxSCONG bd:typedAs :M-CDISC_SDTMMODEL_DT_CHAR . 
:M-CDISC_SDTMMODEL_xxSCONG bd:classifiedAs :M-CDISC_SDTMMODEL_SC_RECORDQUALIFIER . 
:M-CDISC_SDTMMODEL bd:includesVariable :M-CDISC_SDTMMODEL_xxSCONG . 
:M-CDISC_SDTMMODEL_xxSDISAB rdf:type bd:ModelVariable . 
:M-CDISC_SDTMMODEL_xxSDISAB rdfs:label "Persist or Signif Disability/Incapacity"^^xsd:string . 
:M-CDISC_SDTMMODEL_xxSDISAB bd:ordinal "22"^^xsd:positiveInteger . 
:M-CDISC_SDTMMODEL_xxSDISAB bd:name "--SDISAB"^^xsd:string . 
:M-CDISC_SDTMMODEL_xxSDISAB bd:prefixed "true"^^xsd:boolean . 
:M-CDISC_SDTMMODEL_xxSDISAB bd:description "Did the event result in persistent or significant disability/incapacity? Valid values are 'Y' and 'N'."^^xsd:string . 
:M-CDISC_SDTMMODEL_xxSDISAB bd:rule ""^^xsd:string . 
:M-CDISC_SDTMMODEL_xxSDISAB bd:typedAs :M-CDISC_SDTMMODEL_DT_CHAR . 
:M-CDISC_SDTMMODEL_xxSDISAB bd:classifiedAs :M-CDISC_SDTMMODEL_SC_RECORDQUALIFIER . 
:M-CDISC_SDTMMODEL bd:includesVariable :M-CDISC_SDTMMODEL_xxSDISAB . 
:M-CDISC_SDTMMODEL_xxSDTH rdf:type bd:ModelVariable . 
:M-CDISC_SDTMMODEL_xxSDTH rdfs:label "Results in Death"^^xsd:string . 
:M-CDISC_SDTMMODEL_xxSDTH bd:ordinal "23"^^xsd:positiveInteger . 
:M-CDISC_SDTMMODEL_xxSDTH bd:name "--SDTH"^^xsd:string . 
:M-CDISC_SDTMMODEL_xxSDTH bd:prefixed "true"^^xsd:boolean . 
:M-CDISC_SDTMMODEL_xxSDTH bd:description "Did the event result in death? Valid values are 'Y' and 'N'."^^xsd:string . 
:M-CDISC_SDTMMODEL_xxSDTH bd:rule ""^^xsd:string . 
:M-CDISC_SDTMMODEL_xxSDTH bd:typedAs :M-CDISC_SDTMMODEL_DT_CHAR . 
:M-CDISC_SDTMMODEL_xxSDTH bd:classifiedAs :M-CDISC_SDTMMODEL_SC_RECORDQUALIFIER . 
:M-CDISC_SDTMMODEL bd:includesVariable :M-CDISC_SDTMMODEL_xxSDTH . 
:M-CDISC_SDTMMODEL_xxSHOSP rdf:type bd:ModelVariable . 
:M-CDISC_SDTMMODEL_xxSHOSP rdfs:label "Requires or Prolongs Hospitalization"^^xsd:string . 
:M-CDISC_SDTMMODEL_xxSHOSP bd:ordinal "24"^^xsd:positiveInteger . 
:M-CDISC_SDTMMODEL_xxSHOSP bd:name "--SHOSP"^^xsd:string . 
:M-CDISC_SDTMMODEL_xxSHOSP bd:prefixed "true"^^xsd:boolean . 
:M-CDISC_SDTMMODEL_xxSHOSP bd:description "Did the event require or prolong hospitalization? Valid values are 'Y' and 'N'."^^xsd:string . 
:M-CDISC_SDTMMODEL_xxSHOSP bd:rule ""^^xsd:string . 
:M-CDISC_SDTMMODEL_xxSHOSP bd:typedAs :M-CDISC_SDTMMODEL_DT_CHAR . 
:M-CDISC_SDTMMODEL_xxSHOSP bd:classifiedAs :M-CDISC_SDTMMODEL_SC_RECORDQUALIFIER . 
:M-CDISC_SDTMMODEL bd:includesVariable :M-CDISC_SDTMMODEL_xxSHOSP . 
:M-CDISC_SDTMMODEL_xxSLIFE rdf:type bd:ModelVariable . 
:M-CDISC_SDTMMODEL_xxSLIFE rdfs:label "Is Life Threatening"^^xsd:string . 
:M-CDISC_SDTMMODEL_xxSLIFE bd:ordinal "25"^^xsd:positiveInteger . 
:M-CDISC_SDTMMODEL_xxSLIFE bd:name "--SLIFE"^^xsd:string . 
:M-CDISC_SDTMMODEL_xxSLIFE bd:prefixed "true"^^xsd:boolean . 
:M-CDISC_SDTMMODEL_xxSLIFE bd:description "Was the event life threatening? Valid values are 'Y' and 'N'."^^xsd:string . 
:M-CDISC_SDTMMODEL_xxSLIFE bd:rule ""^^xsd:string . 
:M-CDISC_SDTMMODEL_xxSLIFE bd:typedAs :M-CDISC_SDTMMODEL_DT_CHAR . 
:M-CDISC_SDTMMODEL_xxSLIFE bd:classifiedAs :M-CDISC_SDTMMODEL_SC_RECORDQUALIFIER . 
:M-CDISC_SDTMMODEL bd:includesVariable :M-CDISC_SDTMMODEL_xxSLIFE . 
:M-CDISC_SDTMMODEL_xxSOD rdf:type bd:ModelVariable . 
:M-CDISC_SDTMMODEL_xxSOD rdfs:label "Occurred with Overdose"^^xsd:string . 
:M-CDISC_SDTMMODEL_xxSOD bd:ordinal "26"^^xsd:positiveInteger . 
:M-CDISC_SDTMMODEL_xxSOD bd:name "--SOD"^^xsd:string . 
:M-CDISC_SDTMMODEL_xxSOD bd:prefixed "true"^^xsd:boolean . 
:M-CDISC_SDTMMODEL_xxSOD bd:description "Did the event occur with an overdose? Valid values are 'Y' and 'N'."^^xsd:string . 
:M-CDISC_SDTMMODEL_xxSOD bd:rule ""^^xsd:string . 
:M-CDISC_SDTMMODEL_xxSOD bd:typedAs :M-CDISC_SDTMMODEL_DT_CHAR . 
:M-CDISC_SDTMMODEL_xxSOD bd:classifiedAs :M-CDISC_SDTMMODEL_SC_RECORDQUALIFIER . 
:M-CDISC_SDTMMODEL bd:includesVariable :M-CDISC_SDTMMODEL_xxSOD . 
:M-CDISC_SDTMMODEL_xxSMIE rdf:type bd:ModelVariable . 
:M-CDISC_SDTMMODEL_xxSMIE rdfs:label "Other Medically Important Serious Event"^^xsd:string . 
:M-CDISC_SDTMMODEL_xxSMIE bd:ordinal "27"^^xsd:positiveInteger . 
:M-CDISC_SDTMMODEL_xxSMIE bd:name "--SMIE"^^xsd:string . 
:M-CDISC_SDTMMODEL_xxSMIE bd:prefixed "true"^^xsd:boolean . 
:M-CDISC_SDTMMODEL_xxSMIE bd:description "Do additional categories for seriousness apply? Valid values are 'Y' and 'N'."^^xsd:string . 
:M-CDISC_SDTMMODEL_xxSMIE bd:rule ""^^xsd:string . 
:M-CDISC_SDTMMODEL_xxSMIE bd:typedAs :M-CDISC_SDTMMODEL_DT_CHAR . 
:M-CDISC_SDTMMODEL_xxSMIE bd:classifiedAs :M-CDISC_SDTMMODEL_SC_RECORDQUALIFIER . 
:M-CDISC_SDTMMODEL bd:includesVariable :M-CDISC_SDTMMODEL_xxSMIE . 
:M-CDISC_SDTMMODEL_xxCONTRT rdf:type bd:ModelVariable . 
:M-CDISC_SDTMMODEL_xxCONTRT rdfs:label "Concomitant or Additional Trtmnt Given"^^xsd:string . 
:M-CDISC_SDTMMODEL_xxCONTRT bd:ordinal "28"^^xsd:positiveInteger . 
:M-CDISC_SDTMMODEL_xxCONTRT bd:name "--CONTRT"^^xsd:string . 
:M-CDISC_SDTMMODEL_xxCONTRT bd:prefixed "true"^^xsd:boolean . 
:M-CDISC_SDTMMODEL_xxCONTRT bd:description "Was another treatment given because of the occurrence of the event? Valid values are 'Y' and 'N'."^^xsd:string . 
:M-CDISC_SDTMMODEL_xxCONTRT bd:rule ""^^xsd:string . 
:M-CDISC_SDTMMODEL_xxCONTRT bd:typedAs :M-CDISC_SDTMMODEL_DT_CHAR . 
:M-CDISC_SDTMMODEL_xxCONTRT bd:classifiedAs :M-CDISC_SDTMMODEL_SC_RECORDQUALIFIER . 
:M-CDISC_SDTMMODEL bd:includesVariable :M-CDISC_SDTMMODEL_xxCONTRT . 
:M-CDISC_SDTMMODEL_xxTOX rdf:type bd:ModelVariable . 
:M-CDISC_SDTMMODEL_xxTOX rdfs:label "Toxicity"^^xsd:string . 
:M-CDISC_SDTMMODEL_xxTOX bd:ordinal "29"^^xsd:positiveInteger . 
:M-CDISC_SDTMMODEL_xxTOX bd:name "--TOX"^^xsd:string . 
:M-CDISC_SDTMMODEL_xxTOX bd:prefixed "true"^^xsd:boolean . 
:M-CDISC_SDTMMODEL_xxTOX bd:description "Description of toxicity quantified by --TOXGR such as NCI CTCAE Short Name. Examples: HYPERCALCEMIA, HYPOCALCEMIA. Sponsor should specify which scale and version is used in the Sponsor Comments column of the Define.xml document."^^xsd:string . 
:M-CDISC_SDTMMODEL_xxTOX bd:rule ""^^xsd:string . 
:M-CDISC_SDTMMODEL_xxTOX bd:typedAs :M-CDISC_SDTMMODEL_DT_CHAR . 
:M-CDISC_SDTMMODEL_xxTOX bd:classifiedAs :M-CDISC_SDTMMODEL_SC_VARIABLEQUALIFIER . 
:M-CDISC_SDTMMODEL bd:includesVariable :M-CDISC_SDTMMODEL_xxTOX . 
:M-CDISC_SDTMMODEL_xxTOXGR rdf:type bd:ModelVariable . 
:M-CDISC_SDTMMODEL_xxTOXGR rdfs:label "Toxicity Grade"^^xsd:string . 
:M-CDISC_SDTMMODEL_xxTOXGR bd:ordinal "30"^^xsd:positiveInteger . 
:M-CDISC_SDTMMODEL_xxTOXGR bd:name "--TOXGR"^^xsd:string . 
:M-CDISC_SDTMMODEL_xxTOXGR bd:prefixed "true"^^xsd:boolean . 
:M-CDISC_SDTMMODEL_xxTOXGR bd:description "Records toxicity grade using a standard toxicity scale (such as the NCI CTCAE). Sponsor should specify which scale and version is used in the Sponsor Comments column of the Define.xml document."^^xsd:string . 
:M-CDISC_SDTMMODEL_xxTOXGR bd:rule ""^^xsd:string . 
:M-CDISC_SDTMMODEL_xxTOXGR bd:typedAs :M-CDISC_SDTMMODEL_DT_CHAR . 
:M-CDISC_SDTMMODEL_xxTOXGR bd:classifiedAs :M-CDISC_SDTMMODEL_SC_RECORDQUALIFIER . 
:M-CDISC_SDTMMODEL bd:includesVariable :M-CDISC_SDTMMODEL_xxTOXGR . 
:M-CDISC_SDTMMODEL_xxTESTCD rdf:type bd:ModelVariable . 
:M-CDISC_SDTMMODEL_xxTESTCD rdfs:label "Short Name of Measurement, Test or Examination"^^xsd:string . 
:M-CDISC_SDTMMODEL_xxTESTCD bd:ordinal "1"^^xsd:positiveInteger . 
:M-CDISC_SDTMMODEL_xxTESTCD bd:name "--TESTCD"^^xsd:string . 
:M-CDISC_SDTMMODEL_xxTESTCD bd:prefixed "true"^^xsd:boolean . 
:M-CDISC_SDTMMODEL_xxTESTCD bd:description "Short character value for --TEST used as a column name when converting a dataset from a vertical format to a horizontal format. The short value can be up to 8 characters. Examples: PLAT, SYSBP, RRMIN, EYEEXAM."^^xsd:string . 
:M-CDISC_SDTMMODEL_xxTESTCD bd:rule ""^^xsd:string . 
:M-CDISC_SDTMMODEL_xxTESTCD bd:typedAs :M-CDISC_SDTMMODEL_DT_CHAR . 
:M-CDISC_SDTMMODEL_xxTESTCD bd:classifiedAs :M-CDISC_SDTMMODEL_C_TOPIC . 
:M-CDISC_SDTMMODEL bd:includesVariable :M-CDISC_SDTMMODEL_xxTESTCD . 
:M-CDISC_SDTMMODEL_xxTEST rdf:type bd:ModelVariable . 
:M-CDISC_SDTMMODEL_xxTEST rdfs:label "Name of Measurement, Test or Examination"^^xsd:string . 
:M-CDISC_SDTMMODEL_xxTEST bd:ordinal "2"^^xsd:positiveInteger . 
:M-CDISC_SDTMMODEL_xxTEST bd:name "--TEST"^^xsd:string . 
:M-CDISC_SDTMMODEL_xxTEST bd:prefixed "true"^^xsd:boolean . 
:M-CDISC_SDTMMODEL_xxTEST bd:description "Long name For --TESTCD. Examples: Platelet, Systolic Blood Pressure, Summary (Min) RR Duration, Eye Examination."^^xsd:string . 
:M-CDISC_SDTMMODEL_xxTEST bd:rule ""^^xsd:string . 
:M-CDISC_SDTMMODEL_xxTEST bd:typedAs :M-CDISC_SDTMMODEL_DT_CHAR . 
:M-CDISC_SDTMMODEL_xxTEST bd:classifiedAs :M-CDISC_SDTMMODEL_SC_SYNONYMQUALIFIER . 
:M-CDISC_SDTMMODEL bd:includesVariable :M-CDISC_SDTMMODEL_xxTEST . 
:M-CDISC_SDTMMODEL_xxMODIFY rdf:type bd:ModelVariable . 
:M-CDISC_SDTMMODEL_xxMODIFY rdfs:label "Modified Term"^^xsd:string . 
:M-CDISC_SDTMMODEL_xxMODIFY bd:ordinal "3"^^xsd:positiveInteger . 
:M-CDISC_SDTMMODEL_xxMODIFY bd:name "--MODIFY"^^xsd:string . 
:M-CDISC_SDTMMODEL_xxMODIFY bd:prefixed "true"^^xsd:boolean . 
:M-CDISC_SDTMMODEL_xxMODIFY bd:description "If the value for --TRT is modified for coding purposes, then the modified text is placed here."^^xsd:string . 
:M-CDISC_SDTMMODEL_xxMODIFY bd:rule ""^^xsd:string . 
:M-CDISC_SDTMMODEL_xxMODIFY bd:typedAs :M-CDISC_SDTMMODEL_DT_CHAR . 
:M-CDISC_SDTMMODEL_xxMODIFY bd:classifiedAs :M-CDISC_SDTMMODEL_SC_SYNONYMQUALIFIER . 
:M-CDISC_SDTMMODEL bd:includesVariable :M-CDISC_SDTMMODEL_xxMODIFY . 
:M-CDISC_SDTMMODEL_xxCAT rdf:type bd:ModelVariable . 
:M-CDISC_SDTMMODEL_xxCAT rdfs:label "Category"^^xsd:string . 
:M-CDISC_SDTMMODEL_xxCAT bd:ordinal "4"^^xsd:positiveInteger . 
:M-CDISC_SDTMMODEL_xxCAT bd:name "--CAT"^^xsd:string . 
:M-CDISC_SDTMMODEL_xxCAT bd:prefixed "true"^^xsd:boolean . 
:M-CDISC_SDTMMODEL_xxCAT bd:description "Used to define a category of topic-variable values. Examples: HEMATOLOGY, URINALYSIS, CHEMISTRY, HAMILTON DEPRESSION SCALE, SF36."^^xsd:string . 
:M-CDISC_SDTMMODEL_xxCAT bd:rule ""^^xsd:string . 
:M-CDISC_SDTMMODEL_xxCAT bd:typedAs :M-CDISC_SDTMMODEL_DT_CHAR . 
:M-CDISC_SDTMMODEL_xxCAT bd:classifiedAs :M-CDISC_SDTMMODEL_SC_GROUPINGQUALIFIER . 
:M-CDISC_SDTMMODEL bd:includesVariable :M-CDISC_SDTMMODEL_xxCAT . 
:M-CDISC_SDTMMODEL_xxSCAT rdf:type bd:ModelVariable . 
:M-CDISC_SDTMMODEL_xxSCAT rdfs:label "Subcategory"^^xsd:string . 
:M-CDISC_SDTMMODEL_xxSCAT bd:ordinal "5"^^xsd:positiveInteger . 
:M-CDISC_SDTMMODEL_xxSCAT bd:name "--SCAT"^^xsd:string . 
:M-CDISC_SDTMMODEL_xxSCAT bd:prefixed "true"^^xsd:boolean . 
:M-CDISC_SDTMMODEL_xxSCAT bd:description "Used to define a further categorization of --CAT values."^^xsd:string . 
:M-CDISC_SDTMMODEL_xxSCAT bd:rule ""^^xsd:string . 
:M-CDISC_SDTMMODEL_xxSCAT bd:typedAs :M-CDISC_SDTMMODEL_DT_CHAR . 
:M-CDISC_SDTMMODEL_xxSCAT bd:classifiedAs :M-CDISC_SDTMMODEL_SC_GROUPINGQUALIFIER . 
:M-CDISC_SDTMMODEL bd:includesVariable :M-CDISC_SDTMMODEL_xxSCAT . 
:M-CDISC_SDTMMODEL_xxPOS rdf:type bd:ModelVariable . 
:M-CDISC_SDTMMODEL_xxPOS rdfs:label "Position of Subject During Observation"^^xsd:string . 
:M-CDISC_SDTMMODEL_xxPOS bd:ordinal "6"^^xsd:positiveInteger . 
:M-CDISC_SDTMMODEL_xxPOS bd:name "--POS"^^xsd:string . 
:M-CDISC_SDTMMODEL_xxPOS bd:prefixed "true"^^xsd:boolean . 
:M-CDISC_SDTMMODEL_xxPOS bd:description "Position of the subject during a measurement or examination. Examples: SUPINE, STANDING, SITTING."^^xsd:string . 
:M-CDISC_SDTMMODEL_xxPOS bd:rule ""^^xsd:string . 
:M-CDISC_SDTMMODEL_xxPOS bd:typedAs :M-CDISC_SDTMMODEL_DT_CHAR . 
:M-CDISC_SDTMMODEL_xxPOS bd:classifiedAs :M-CDISC_SDTMMODEL_SC_RECORDQUALIFIER . 
:M-CDISC_SDTMMODEL bd:includesVariable :M-CDISC_SDTMMODEL_xxPOS . 
:M-CDISC_SDTMMODEL_xxBODSYS rdf:type bd:ModelVariable . 
:M-CDISC_SDTMMODEL_xxBODSYS rdfs:label "Body System or Organ Class"^^xsd:string . 
:M-CDISC_SDTMMODEL_xxBODSYS bd:ordinal "7"^^xsd:positiveInteger . 
:M-CDISC_SDTMMODEL_xxBODSYS bd:name "--BODSYS"^^xsd:string . 
:M-CDISC_SDTMMODEL_xxBODSYS bd:prefixed "true"^^xsd:boolean . 
:M-CDISC_SDTMMODEL_xxBODSYS bd:description "Body System or Organ Class that is involved for a finding from the standard hierarchy for dictionary-coded results. Example: MedDRA SOC."^^xsd:string . 
:M-CDISC_SDTMMODEL_xxBODSYS bd:rule ""^^xsd:string . 
:M-CDISC_SDTMMODEL_xxBODSYS bd:typedAs :M-CDISC_SDTMMODEL_DT_CHAR . 
:M-CDISC_SDTMMODEL_xxBODSYS bd:classifiedAs :M-CDISC_SDTMMODEL_SC_RECORDQUALIFIER . 
:M-CDISC_SDTMMODEL bd:includesVariable :M-CDISC_SDTMMODEL_xxBODSYS . 
:M-CDISC_SDTMMODEL_xxORRES rdf:type bd:ModelVariable . 
:M-CDISC_SDTMMODEL_xxORRES rdfs:label "Result or Finding in Original Units"^^xsd:string . 
:M-CDISC_SDTMMODEL_xxORRES bd:ordinal "8"^^xsd:positiveInteger . 
:M-CDISC_SDTMMODEL_xxORRES bd:name "--ORRES"^^xsd:string . 
:M-CDISC_SDTMMODEL_xxORRES bd:prefixed "true"^^xsd:boolean . 
:M-CDISC_SDTMMODEL_xxORRES bd:description "Result of the measurement or finding as originally received or collected. Examples: 120, <1, POS."^^xsd:string . 
:M-CDISC_SDTMMODEL_xxORRES bd:rule ""^^xsd:string . 
:M-CDISC_SDTMMODEL_xxORRES bd:typedAs :M-CDISC_SDTMMODEL_DT_CHAR . 
:M-CDISC_SDTMMODEL_xxORRES bd:classifiedAs :M-CDISC_SDTMMODEL_SC_RESULTQUALIFIER . 
:M-CDISC_SDTMMODEL bd:includesVariable :M-CDISC_SDTMMODEL_xxORRES . 
:M-CDISC_SDTMMODEL_xxORRESU rdf:type bd:ModelVariable . 
:M-CDISC_SDTMMODEL_xxORRESU rdfs:label "Original Units"^^xsd:string . 
:M-CDISC_SDTMMODEL_xxORRESU bd:ordinal "9"^^xsd:positiveInteger . 
:M-CDISC_SDTMMODEL_xxORRESU bd:name "--ORRESU"^^xsd:string . 
:M-CDISC_SDTMMODEL_xxORRESU bd:prefixed "true"^^xsd:boolean . 
:M-CDISC_SDTMMODEL_xxORRESU bd:description "Unit for --ORRES. Examples: IN, LB, kg/L."^^xsd:string . 
:M-CDISC_SDTMMODEL_xxORRESU bd:rule ""^^xsd:string . 
:M-CDISC_SDTMMODEL_xxORRESU bd:typedAs :M-CDISC_SDTMMODEL_DT_CHAR . 
:M-CDISC_SDTMMODEL_xxORRESU bd:classifiedAs :M-CDISC_SDTMMODEL_SC_VARIABLEQUALIFIER . 
:M-CDISC_SDTMMODEL bd:includesVariable :M-CDISC_SDTMMODEL_xxORRESU . 
:M-CDISC_SDTMMODEL_xxORNRLO rdf:type bd:ModelVariable . 
:M-CDISC_SDTMMODEL_xxORNRLO rdfs:label "Normal Range Lower Limit-Original Units"^^xsd:string . 
:M-CDISC_SDTMMODEL_xxORNRLO bd:ordinal "10"^^xsd:positiveInteger . 
:M-CDISC_SDTMMODEL_xxORNRLO bd:name "--ORNRLO"^^xsd:string . 
:M-CDISC_SDTMMODEL_xxORNRLO bd:prefixed "true"^^xsd:boolean . 
:M-CDISC_SDTMMODEL_xxORNRLO bd:description "Lower end of normal range or reference range for results stored in --ORRES."^^xsd:string . 
:M-CDISC_SDTMMODEL_xxORNRLO bd:rule ""^^xsd:string . 
:M-CDISC_SDTMMODEL_xxORNRLO bd:typedAs :M-CDISC_SDTMMODEL_DT_CHAR . 
:M-CDISC_SDTMMODEL_xxORNRLO bd:classifiedAs :M-CDISC_SDTMMODEL_SC_VARIABLEQUALIFIER . 
:M-CDISC_SDTMMODEL bd:includesVariable :M-CDISC_SDTMMODEL_xxORNRLO . 
:M-CDISC_SDTMMODEL_xxORNRHI rdf:type bd:ModelVariable . 
:M-CDISC_SDTMMODEL_xxORNRHI rdfs:label "Normal Range Upper Limit-Original Units"^^xsd:string . 
:M-CDISC_SDTMMODEL_xxORNRHI bd:ordinal "11"^^xsd:positiveInteger . 
:M-CDISC_SDTMMODEL_xxORNRHI bd:name "--ORNRHI"^^xsd:string . 
:M-CDISC_SDTMMODEL_xxORNRHI bd:prefixed "true"^^xsd:boolean . 
:M-CDISC_SDTMMODEL_xxORNRHI bd:description "Upper end of normal range or reference range for results stored in --ORRES."^^xsd:string . 
:M-CDISC_SDTMMODEL_xxORNRHI bd:rule ""^^xsd:string . 
:M-CDISC_SDTMMODEL_xxORNRHI bd:typedAs :M-CDISC_SDTMMODEL_DT_CHAR . 
:M-CDISC_SDTMMODEL_xxORNRHI bd:classifiedAs :M-CDISC_SDTMMODEL_SC_VARIABLEQUALIFIER . 
:M-CDISC_SDTMMODEL bd:includesVariable :M-CDISC_SDTMMODEL_xxORNRHI . 
:M-CDISC_SDTMMODEL_xxSTRESC rdf:type bd:ModelVariable . 
:M-CDISC_SDTMMODEL_xxSTRESC rdfs:label "Result or Finding in Standard Format"^^xsd:string . 
:M-CDISC_SDTMMODEL_xxSTRESC bd:ordinal "12"^^xsd:positiveInteger . 
:M-CDISC_SDTMMODEL_xxSTRESC bd:name "--STRESC"^^xsd:string . 
:M-CDISC_SDTMMODEL_xxSTRESC bd:prefixed "true"^^xsd:boolean . 
:M-CDISC_SDTMMODEL_xxSTRESC bd:description "Contains the result value for all findings, copied or derived from --ORRES in a standard format or in standard units. --STRESC should store all results or findings in character format; if results are numeric, they should also be stored in numeric format in --STRESN. For example, if various tests have results 'NONE', 'NEG', and 'NEGATIVE' in --ORRES and these results effectively have the same meaning, they could be represented in standard format in --STRESC as 'NEGATIVE'."^^xsd:string . 
:M-CDISC_SDTMMODEL_xxSTRESC bd:rule ""^^xsd:string . 
:M-CDISC_SDTMMODEL_xxSTRESC bd:typedAs :M-CDISC_SDTMMODEL_DT_CHAR . 
:M-CDISC_SDTMMODEL_xxSTRESC bd:classifiedAs :M-CDISC_SDTMMODEL_SC_RESULTQUALIFIER . 
:M-CDISC_SDTMMODEL bd:includesVariable :M-CDISC_SDTMMODEL_xxSTRESC . 
:M-CDISC_SDTMMODEL_xxSTRESN rdf:type bd:ModelVariable . 
:M-CDISC_SDTMMODEL_xxSTRESN rdfs:label "Numeric Result/Finding in Standard Units"^^xsd:string . 
:M-CDISC_SDTMMODEL_xxSTRESN bd:ordinal "13"^^xsd:positiveInteger . 
:M-CDISC_SDTMMODEL_xxSTRESN bd:name "--STRESN"^^xsd:string . 
:M-CDISC_SDTMMODEL_xxSTRESN bd:prefixed "true"^^xsd:boolean . 
:M-CDISC_SDTMMODEL_xxSTRESN bd:description "Used for continuous or numeric results or findings in standard format; copied in numeric format from --STRESC. --STRESN should store all numeric test results or findings."^^xsd:string . 
:M-CDISC_SDTMMODEL_xxSTRESN bd:rule ""^^xsd:string . 
:M-CDISC_SDTMMODEL_xxSTRESN bd:typedAs :M-CDISC_SDTMMODEL_DT_NUM . 
:M-CDISC_SDTMMODEL_xxSTRESN bd:classifiedAs :M-CDISC_SDTMMODEL_SC_RESULTQUALIFIER . 
:M-CDISC_SDTMMODEL bd:includesVariable :M-CDISC_SDTMMODEL_xxSTRESN . 
:M-CDISC_SDTMMODEL_xxSTRESU rdf:type bd:ModelVariable . 
:M-CDISC_SDTMMODEL_xxSTRESU rdfs:label "Standard Units"^^xsd:string . 
:M-CDISC_SDTMMODEL_xxSTRESU bd:ordinal "14"^^xsd:positiveInteger . 
:M-CDISC_SDTMMODEL_xxSTRESU bd:name "--STRESU"^^xsd:string . 
:M-CDISC_SDTMMODEL_xxSTRESU bd:prefixed "true"^^xsd:boolean . 
:M-CDISC_SDTMMODEL_xxSTRESU bd:description "Standardized units used for --STRESC and --STRESN. Example: mol/L."^^xsd:string . 
:M-CDISC_SDTMMODEL_xxSTRESU bd:rule ""^^xsd:string . 
:M-CDISC_SDTMMODEL_xxSTRESU bd:typedAs :M-CDISC_SDTMMODEL_DT_CHAR . 
:M-CDISC_SDTMMODEL_xxSTRESU bd:classifiedAs :M-CDISC_SDTMMODEL_SC_VARIABLEQUALIFIER . 
:M-CDISC_SDTMMODEL bd:includesVariable :M-CDISC_SDTMMODEL_xxSTRESU . 
:M-CDISC_SDTMMODEL_xxSTNRLO rdf:type bd:ModelVariable . 
:M-CDISC_SDTMMODEL_xxSTNRLO rdfs:label "Normal Range Lower Limit-Standard Units"^^xsd:string . 
:M-CDISC_SDTMMODEL_xxSTNRLO bd:ordinal "15"^^xsd:positiveInteger . 
:M-CDISC_SDTMMODEL_xxSTNRLO bd:name "--STNRLO"^^xsd:string . 
:M-CDISC_SDTMMODEL_xxSTNRLO bd:prefixed "true"^^xsd:boolean . 
:M-CDISC_SDTMMODEL_xxSTNRLO bd:description "Lower end of normal range or reference range for standardized results (e.g., --STRESC, --STRESN) represented in standardized units (--STRESU)."^^xsd:string . 
:M-CDISC_SDTMMODEL_xxSTNRLO bd:rule ""^^xsd:string . 
:M-CDISC_SDTMMODEL_xxSTNRLO bd:typedAs :M-CDISC_SDTMMODEL_DT_NUM . 
:M-CDISC_SDTMMODEL_xxSTNRLO bd:classifiedAs :M-CDISC_SDTMMODEL_SC_VARIABLEQUALIFIER . 
:M-CDISC_SDTMMODEL bd:includesVariable :M-CDISC_SDTMMODEL_xxSTNRLO . 
:M-CDISC_SDTMMODEL_xxSTNRHI rdf:type bd:ModelVariable . 
:M-CDISC_SDTMMODEL_xxSTNRHI rdfs:label "Normal Range Upper Limit-Standard Units"^^xsd:string . 
:M-CDISC_SDTMMODEL_xxSTNRHI bd:ordinal "16"^^xsd:positiveInteger . 
:M-CDISC_SDTMMODEL_xxSTNRHI bd:name "--STNRHI"^^xsd:string . 
:M-CDISC_SDTMMODEL_xxSTNRHI bd:prefixed "true"^^xsd:boolean . 
:M-CDISC_SDTMMODEL_xxSTNRHI bd:description "Upper end of normal range or reference range for standardized results (e.g., --STRESC, --STRESN) represented in standardized units (--STRESU)."^^xsd:string . 
:M-CDISC_SDTMMODEL_xxSTNRHI bd:rule ""^^xsd:string . 
:M-CDISC_SDTMMODEL_xxSTNRHI bd:typedAs :M-CDISC_SDTMMODEL_DT_NUM . 
:M-CDISC_SDTMMODEL_xxSTNRHI bd:classifiedAs :M-CDISC_SDTMMODEL_SC_VARIABLEQUALIFIER . 
:M-CDISC_SDTMMODEL bd:includesVariable :M-CDISC_SDTMMODEL_xxSTNRHI . 
:M-CDISC_SDTMMODEL_xxSTNRC rdf:type bd:ModelVariable . 
:M-CDISC_SDTMMODEL_xxSTNRC rdfs:label "Normal Range for Character Results"^^xsd:string . 
:M-CDISC_SDTMMODEL_xxSTNRC bd:ordinal "17"^^xsd:positiveInteger . 
:M-CDISC_SDTMMODEL_xxSTNRC bd:name "--STNRC"^^xsd:string . 
:M-CDISC_SDTMMODEL_xxSTNRC bd:prefixed "true"^^xsd:boolean . 
:M-CDISC_SDTMMODEL_xxSTNRC bd:description "Normal range or reference range for results stored in --STRESC that are character in ordinal or categorical scale. Example: Negative to Trace."^^xsd:string . 
:M-CDISC_SDTMMODEL_xxSTNRC bd:rule ""^^xsd:string . 
:M-CDISC_SDTMMODEL_xxSTNRC bd:typedAs :M-CDISC_SDTMMODEL_DT_CHAR . 
:M-CDISC_SDTMMODEL_xxSTNRC bd:classifiedAs :M-CDISC_SDTMMODEL_SC_VARIABLEQUALIFIER . 
:M-CDISC_SDTMMODEL bd:includesVariable :M-CDISC_SDTMMODEL_xxSTNRC . 
:M-CDISC_SDTMMODEL_xxNRIND rdf:type bd:ModelVariable . 
:M-CDISC_SDTMMODEL_xxNRIND rdfs:label "Normal/Reference Range Indicator"^^xsd:string . 
:M-CDISC_SDTMMODEL_xxNRIND bd:ordinal "18"^^xsd:positiveInteger . 
:M-CDISC_SDTMMODEL_xxNRIND bd:name "--NRIND"^^xsd:string . 
:M-CDISC_SDTMMODEL_xxNRIND bd:prefixed "true"^^xsd:boolean . 
:M-CDISC_SDTMMODEL_xxNRIND bd:description "Used to indicate the value is outside the normal range or reference range. May be defined by --ORNRLO and --ORNRHI or other objective criteria. Examples: Y, N; HIGH, LOW; NORMAL; ABNORMAL."^^xsd:string . 
:M-CDISC_SDTMMODEL_xxNRIND bd:rule ""^^xsd:string . 
:M-CDISC_SDTMMODEL_xxNRIND bd:typedAs :M-CDISC_SDTMMODEL_DT_CHAR . 
:M-CDISC_SDTMMODEL_xxNRIND bd:classifiedAs :M-CDISC_SDTMMODEL_SC_VARIABLEQUALIFIER . 
:M-CDISC_SDTMMODEL bd:includesVariable :M-CDISC_SDTMMODEL_xxNRIND . 
:M-CDISC_SDTMMODEL_xxRESCAT rdf:type bd:ModelVariable . 
:M-CDISC_SDTMMODEL_xxRESCAT rdfs:label "Result Category"^^xsd:string . 
:M-CDISC_SDTMMODEL_xxRESCAT bd:ordinal "19"^^xsd:positiveInteger . 
:M-CDISC_SDTMMODEL_xxRESCAT bd:name "--RESCAT"^^xsd:string . 
:M-CDISC_SDTMMODEL_xxRESCAT bd:prefixed "true"^^xsd:boolean . 
:M-CDISC_SDTMMODEL_xxRESCAT bd:description "Used to categorize the result of a finding. Example: MALIGNANT or BENIGN for tumor findings."^^xsd:string . 
:M-CDISC_SDTMMODEL_xxRESCAT bd:rule ""^^xsd:string . 
:M-CDISC_SDTMMODEL_xxRESCAT bd:typedAs :M-CDISC_SDTMMODEL_DT_CHAR . 
:M-CDISC_SDTMMODEL_xxRESCAT bd:classifiedAs :M-CDISC_SDTMMODEL_SC_VARIABLEQUALIFIER . 
:M-CDISC_SDTMMODEL bd:includesVariable :M-CDISC_SDTMMODEL_xxRESCAT . 
:M-CDISC_SDTMMODEL_xxSTAT rdf:type bd:ModelVariable . 
:M-CDISC_SDTMMODEL_xxSTAT rdfs:label "Completion Status"^^xsd:string . 
:M-CDISC_SDTMMODEL_xxSTAT bd:ordinal "20"^^xsd:positiveInteger . 
:M-CDISC_SDTMMODEL_xxSTAT bd:name "--STAT"^^xsd:string . 
:M-CDISC_SDTMMODEL_xxSTAT bd:prefixed "true"^^xsd:boolean . 
:M-CDISC_SDTMMODEL_xxSTAT bd:description "Used to indicate when a question about the occurrence of a pre-specified event was not answered. Should be null or have a value of NOT DONE."^^xsd:string . 
:M-CDISC_SDTMMODEL_xxSTAT bd:rule ""^^xsd:string . 
:M-CDISC_SDTMMODEL_xxSTAT bd:typedAs :M-CDISC_SDTMMODEL_DT_CHAR . 
:M-CDISC_SDTMMODEL_xxSTAT bd:classifiedAs :M-CDISC_SDTMMODEL_SC_RECORDQUALIFIER . 
:M-CDISC_SDTMMODEL bd:includesVariable :M-CDISC_SDTMMODEL_xxSTAT . 
:M-CDISC_SDTMMODEL_xxREASND rdf:type bd:ModelVariable . 
:M-CDISC_SDTMMODEL_xxREASND rdfs:label "Reason Not Done"^^xsd:string . 
:M-CDISC_SDTMMODEL_xxREASND bd:ordinal "21"^^xsd:positiveInteger . 
:M-CDISC_SDTMMODEL_xxREASND bd:name "--REASND"^^xsd:string . 
:M-CDISC_SDTMMODEL_xxREASND bd:prefixed "true"^^xsd:boolean . 
:M-CDISC_SDTMMODEL_xxREASND bd:description "Reason not done. Used in conjunction with --STAT when value is NOT DONE."^^xsd:string . 
:M-CDISC_SDTMMODEL_xxREASND bd:rule ""^^xsd:string . 
:M-CDISC_SDTMMODEL_xxREASND bd:typedAs :M-CDISC_SDTMMODEL_DT_CHAR . 
:M-CDISC_SDTMMODEL_xxREASND bd:classifiedAs :M-CDISC_SDTMMODEL_SC_RECORDQUALIFIER . 
:M-CDISC_SDTMMODEL bd:includesVariable :M-CDISC_SDTMMODEL_xxREASND . 
:M-CDISC_SDTMMODEL_xxXFN rdf:type bd:ModelVariable . 
:M-CDISC_SDTMMODEL_xxXFN rdfs:label "External Filename"^^xsd:string . 
:M-CDISC_SDTMMODEL_xxXFN bd:ordinal "22"^^xsd:positiveInteger . 
:M-CDISC_SDTMMODEL_xxXFN bd:name "--XFN"^^xsd:string . 
:M-CDISC_SDTMMODEL_xxXFN bd:prefixed "true"^^xsd:boolean . 
:M-CDISC_SDTMMODEL_xxXFN bd:description "Filename for an external file, such as one for an ECG waveform or a medical image."^^xsd:string . 
:M-CDISC_SDTMMODEL_xxXFN bd:rule ""^^xsd:string . 
:M-CDISC_SDTMMODEL_xxXFN bd:typedAs :M-CDISC_SDTMMODEL_DT_CHAR . 
:M-CDISC_SDTMMODEL_xxXFN bd:classifiedAs :M-CDISC_SDTMMODEL_SC_RECORDQUALIFIER . 
:M-CDISC_SDTMMODEL bd:includesVariable :M-CDISC_SDTMMODEL_xxXFN . 
:M-CDISC_SDTMMODEL_xxNAM rdf:type bd:ModelVariable . 
:M-CDISC_SDTMMODEL_xxNAM rdfs:label "Laboratory/Vendor Name"^^xsd:string . 
:M-CDISC_SDTMMODEL_xxNAM bd:ordinal "23"^^xsd:positiveInteger . 
:M-CDISC_SDTMMODEL_xxNAM bd:name "--NAM"^^xsd:string . 
:M-CDISC_SDTMMODEL_xxNAM bd:prefixed "true"^^xsd:boolean . 
:M-CDISC_SDTMMODEL_xxNAM bd:description "Name or identifier of the vendor (e.g., laboratory) that provided the test results."^^xsd:string . 
:M-CDISC_SDTMMODEL_xxNAM bd:rule ""^^xsd:string . 
:M-CDISC_SDTMMODEL_xxNAM bd:typedAs :M-CDISC_SDTMMODEL_DT_CHAR . 
:M-CDISC_SDTMMODEL_xxNAM bd:classifiedAs :M-CDISC_SDTMMODEL_SC_RECORDQUALIFIER . 
:M-CDISC_SDTMMODEL bd:includesVariable :M-CDISC_SDTMMODEL_xxNAM . 
:M-CDISC_SDTMMODEL_xxLOINC rdf:type bd:ModelVariable . 
:M-CDISC_SDTMMODEL_xxLOINC rdfs:label "LOINC Code"^^xsd:string . 
:M-CDISC_SDTMMODEL_xxLOINC bd:ordinal "24"^^xsd:positiveInteger . 
:M-CDISC_SDTMMODEL_xxLOINC bd:name "--LOINC"^^xsd:string . 
:M-CDISC_SDTMMODEL_xxLOINC bd:prefixed "true"^^xsd:boolean . 
:M-CDISC_SDTMMODEL_xxLOINC bd:description "Logical Observation Identifiers Names and Codes (LOINC) code for the topic variable such as a lab test."^^xsd:string . 
:M-CDISC_SDTMMODEL_xxLOINC bd:rule ""^^xsd:string . 
:M-CDISC_SDTMMODEL_xxLOINC bd:typedAs :M-CDISC_SDTMMODEL_DT_CHAR . 
:M-CDISC_SDTMMODEL_xxLOINC bd:classifiedAs :M-CDISC_SDTMMODEL_SC_SYNONYMQUALIFIER . 
:M-CDISC_SDTMMODEL bd:includesVariable :M-CDISC_SDTMMODEL_xxLOINC . 
:M-CDISC_SDTMMODEL_xxSPEC rdf:type bd:ModelVariable . 
:M-CDISC_SDTMMODEL_xxSPEC rdfs:label "Specimen Material Type"^^xsd:string . 
:M-CDISC_SDTMMODEL_xxSPEC bd:ordinal "25"^^xsd:positiveInteger . 
:M-CDISC_SDTMMODEL_xxSPEC bd:name "--SPEC"^^xsd:string . 
:M-CDISC_SDTMMODEL_xxSPEC bd:prefixed "true"^^xsd:boolean . 
:M-CDISC_SDTMMODEL_xxSPEC bd:description "Defines the type of specimen used for a measurement. Examples: SERUM, PLASMA, URINE."^^xsd:string . 
:M-CDISC_SDTMMODEL_xxSPEC bd:rule ""^^xsd:string . 
:M-CDISC_SDTMMODEL_xxSPEC bd:typedAs :M-CDISC_SDTMMODEL_DT_CHAR . 
:M-CDISC_SDTMMODEL_xxSPEC bd:classifiedAs :M-CDISC_SDTMMODEL_SC_RECORDQUALIFIER . 
:M-CDISC_SDTMMODEL bd:includesVariable :M-CDISC_SDTMMODEL_xxSPEC . 
:M-CDISC_SDTMMODEL_xxSPCCND rdf:type bd:ModelVariable . 
:M-CDISC_SDTMMODEL_xxSPCCND rdfs:label "Specimen Condition"^^xsd:string . 
:M-CDISC_SDTMMODEL_xxSPCCND bd:ordinal "26"^^xsd:positiveInteger . 
:M-CDISC_SDTMMODEL_xxSPCCND bd:name "--SPCCND"^^xsd:string . 
:M-CDISC_SDTMMODEL_xxSPCCND bd:prefixed "true"^^xsd:boolean . 
:M-CDISC_SDTMMODEL_xxSPCCND bd:description "Defines the condition of the specimen. Example: CLOUDY."^^xsd:string . 
:M-CDISC_SDTMMODEL_xxSPCCND bd:rule ""^^xsd:string . 
:M-CDISC_SDTMMODEL_xxSPCCND bd:typedAs :M-CDISC_SDTMMODEL_DT_CHAR . 
:M-CDISC_SDTMMODEL_xxSPCCND bd:classifiedAs :M-CDISC_SDTMMODEL_SC_RECORDQUALIFIER . 
:M-CDISC_SDTMMODEL bd:includesVariable :M-CDISC_SDTMMODEL_xxSPCCND . 
:M-CDISC_SDTMMODEL_xxLOC rdf:type bd:ModelVariable . 
:M-CDISC_SDTMMODEL_xxLOC rdfs:label "Location Used for the Measurement"^^xsd:string . 
:M-CDISC_SDTMMODEL_xxLOC bd:ordinal "27"^^xsd:positiveInteger . 
:M-CDISC_SDTMMODEL_xxLOC bd:name "--LOC"^^xsd:string . 
:M-CDISC_SDTMMODEL_xxLOC bd:prefixed "true"^^xsd:boolean . 
:M-CDISC_SDTMMODEL_xxLOC bd:description "Anatomical location of an intervention, such as an injection site. Example: RIGHT ARM for an injection."^^xsd:string . 
:M-CDISC_SDTMMODEL_xxLOC bd:rule ""^^xsd:string . 
:M-CDISC_SDTMMODEL_xxLOC bd:typedAs :M-CDISC_SDTMMODEL_DT_CHAR . 
:M-CDISC_SDTMMODEL_xxLOC bd:classifiedAs :M-CDISC_SDTMMODEL_SC_RECORDQUALIFIER . 
:M-CDISC_SDTMMODEL bd:includesVariable :M-CDISC_SDTMMODEL_xxLOC . 
:M-CDISC_SDTMMODEL_xxMETHOD rdf:type bd:ModelVariable . 
:M-CDISC_SDTMMODEL_xxMETHOD rdfs:label "Method of Test or Examination"^^xsd:string . 
:M-CDISC_SDTMMODEL_xxMETHOD bd:ordinal "28"^^xsd:positiveInteger . 
:M-CDISC_SDTMMODEL_xxMETHOD bd:name "--METHOD"^^xsd:string . 
:M-CDISC_SDTMMODEL_xxMETHOD bd:prefixed "true"^^xsd:boolean . 
:M-CDISC_SDTMMODEL_xxMETHOD bd:description "Method of the test or examination. Examples: EIA (Enzyme Immunoassay), ELECTROPHORESIS, DIPSTICK."^^xsd:string . 
:M-CDISC_SDTMMODEL_xxMETHOD bd:rule ""^^xsd:string . 
:M-CDISC_SDTMMODEL_xxMETHOD bd:typedAs :M-CDISC_SDTMMODEL_DT_CHAR . 
:M-CDISC_SDTMMODEL_xxMETHOD bd:classifiedAs :M-CDISC_SDTMMODEL_SC_RECORDQUALIFIER . 
:M-CDISC_SDTMMODEL bd:includesVariable :M-CDISC_SDTMMODEL_xxMETHOD . 
:M-CDISC_SDTMMODEL_xxBLFL rdf:type bd:ModelVariable . 
:M-CDISC_SDTMMODEL_xxBLFL rdfs:label "Baseline Flag"^^xsd:string . 
:M-CDISC_SDTMMODEL_xxBLFL bd:ordinal "29"^^xsd:positiveInteger . 
:M-CDISC_SDTMMODEL_xxBLFL bd:name "--BLFL"^^xsd:string . 
:M-CDISC_SDTMMODEL_xxBLFL bd:prefixed "true"^^xsd:boolean . 
:M-CDISC_SDTMMODEL_xxBLFL bd:description "Indicator used to identify a baseline value. Should be Y or null."^^xsd:string . 
:M-CDISC_SDTMMODEL_xxBLFL bd:rule ""^^xsd:string . 
:M-CDISC_SDTMMODEL_xxBLFL bd:typedAs :M-CDISC_SDTMMODEL_DT_CHAR . 
:M-CDISC_SDTMMODEL_xxBLFL bd:classifiedAs :M-CDISC_SDTMMODEL_SC_RECORDQUALIFIER . 
:M-CDISC_SDTMMODEL bd:includesVariable :M-CDISC_SDTMMODEL_xxBLFL . 
:M-CDISC_SDTMMODEL_xxFAST rdf:type bd:ModelVariable . 
:M-CDISC_SDTMMODEL_xxFAST rdfs:label "Fasting Status"^^xsd:string . 
:M-CDISC_SDTMMODEL_xxFAST bd:ordinal "30"^^xsd:positiveInteger . 
:M-CDISC_SDTMMODEL_xxFAST bd:name "--FAST"^^xsd:string . 
:M-CDISC_SDTMMODEL_xxFAST bd:prefixed "true"^^xsd:boolean . 
:M-CDISC_SDTMMODEL_xxFAST bd:description "Indicator used to identify fasting status. Valid values include Y, N, U or null if not relevant."^^xsd:string . 
:M-CDISC_SDTMMODEL_xxFAST bd:rule ""^^xsd:string . 
:M-CDISC_SDTMMODEL_xxFAST bd:typedAs :M-CDISC_SDTMMODEL_DT_CHAR . 
:M-CDISC_SDTMMODEL_xxFAST bd:classifiedAs :M-CDISC_SDTMMODEL_SC_RECORDQUALIFIER . 
:M-CDISC_SDTMMODEL bd:includesVariable :M-CDISC_SDTMMODEL_xxFAST . 
:M-CDISC_SDTMMODEL_xxDRVFL rdf:type bd:ModelVariable . 
:M-CDISC_SDTMMODEL_xxDRVFL rdfs:label "Derived Flag"^^xsd:string . 
:M-CDISC_SDTMMODEL_xxDRVFL bd:ordinal "31"^^xsd:positiveInteger . 
:M-CDISC_SDTMMODEL_xxDRVFL bd:name "--DRVFL"^^xsd:string . 
:M-CDISC_SDTMMODEL_xxDRVFL bd:prefixed "true"^^xsd:boolean . 
:M-CDISC_SDTMMODEL_xxDRVFL bd:description "Used to indicate a derived record (e.g., a record that represents the average of other records such as a computed baseline). Should be Y or null."^^xsd:string . 
:M-CDISC_SDTMMODEL_xxDRVFL bd:rule ""^^xsd:string . 
:M-CDISC_SDTMMODEL_xxDRVFL bd:typedAs :M-CDISC_SDTMMODEL_DT_CHAR . 
:M-CDISC_SDTMMODEL_xxDRVFL bd:classifiedAs :M-CDISC_SDTMMODEL_SC_RECORDQUALIFIER . 
:M-CDISC_SDTMMODEL bd:includesVariable :M-CDISC_SDTMMODEL_xxDRVFL . 
:M-CDISC_SDTMMODEL_xxEVAL rdf:type bd:ModelVariable . 
:M-CDISC_SDTMMODEL_xxEVAL rdfs:label "Evaluator"^^xsd:string . 
:M-CDISC_SDTMMODEL_xxEVAL bd:ordinal "32"^^xsd:positiveInteger . 
:M-CDISC_SDTMMODEL_xxEVAL bd:name "--EVAL"^^xsd:string . 
:M-CDISC_SDTMMODEL_xxEVAL bd:prefixed "true"^^xsd:boolean . 
:M-CDISC_SDTMMODEL_xxEVAL bd:description "Role of the person who provided the evaluation. Used only for results that are subjective (e.g., assigned by a person or a group). Examples: ADJUDICATION COMMITTEE, VENDOR."^^xsd:string . 
:M-CDISC_SDTMMODEL_xxEVAL bd:rule ""^^xsd:string . 
:M-CDISC_SDTMMODEL_xxEVAL bd:typedAs :M-CDISC_SDTMMODEL_DT_CHAR . 
:M-CDISC_SDTMMODEL_xxEVAL bd:classifiedAs :M-CDISC_SDTMMODEL_SC_RECORDQUALIFIER . 
:M-CDISC_SDTMMODEL bd:includesVariable :M-CDISC_SDTMMODEL_xxEVAL . 
:M-CDISC_SDTMMODEL_xxTOX rdf:type bd:ModelVariable . 
:M-CDISC_SDTMMODEL_xxTOX rdfs:label "Toxicity"^^xsd:string . 
:M-CDISC_SDTMMODEL_xxTOX bd:ordinal "33"^^xsd:positiveInteger . 
:M-CDISC_SDTMMODEL_xxTOX bd:name "--TOX"^^xsd:string . 
:M-CDISC_SDTMMODEL_xxTOX bd:prefixed "true"^^xsd:boolean . 
:M-CDISC_SDTMMODEL_xxTOX bd:description "Description of toxicity quantified by --TOXGR such as NCI CTCAE Short Name. Examples: HYPERCALCEMIA, HYPOCALCEMIA. Sponsor should specify which scale and version is used in the Sponsor Comments column of the Define.xml document."^^xsd:string . 
:M-CDISC_SDTMMODEL_xxTOX bd:rule ""^^xsd:string . 
:M-CDISC_SDTMMODEL_xxTOX bd:typedAs :M-CDISC_SDTMMODEL_DT_CHAR . 
:M-CDISC_SDTMMODEL_xxTOX bd:classifiedAs :M-CDISC_SDTMMODEL_SC_VARIABLEQUALIFIER . 
:M-CDISC_SDTMMODEL bd:includesVariable :M-CDISC_SDTMMODEL_xxTOX . 
:M-CDISC_SDTMMODEL_xxTOXGR rdf:type bd:ModelVariable . 
:M-CDISC_SDTMMODEL_xxTOXGR rdfs:label "Toxicity Grade"^^xsd:string . 
:M-CDISC_SDTMMODEL_xxTOXGR bd:ordinal "34"^^xsd:positiveInteger . 
:M-CDISC_SDTMMODEL_xxTOXGR bd:name "--TOXGR"^^xsd:string . 
:M-CDISC_SDTMMODEL_xxTOXGR bd:prefixed "true"^^xsd:boolean . 
:M-CDISC_SDTMMODEL_xxTOXGR bd:description "Records toxicity grade using a standard toxicity scale (such as the NCI CTCAE). Sponsor should specify which scale and version is used in the Sponsor Comments column of the Define.xml document."^^xsd:string . 
:M-CDISC_SDTMMODEL_xxTOXGR bd:rule ""^^xsd:string . 
:M-CDISC_SDTMMODEL_xxTOXGR bd:typedAs :M-CDISC_SDTMMODEL_DT_CHAR . 
:M-CDISC_SDTMMODEL_xxTOXGR bd:classifiedAs :M-CDISC_SDTMMODEL_SC_VARIABLEQUALIFIER . 
:M-CDISC_SDTMMODEL bd:includesVariable :M-CDISC_SDTMMODEL_xxTOXGR . 
:M-CDISC_SDTMMODEL_xxSEV rdf:type bd:ModelVariable . 
:M-CDISC_SDTMMODEL_xxSEV rdfs:label "Severity"^^xsd:string . 
:M-CDISC_SDTMMODEL_xxSEV bd:ordinal "35"^^xsd:positiveInteger . 
:M-CDISC_SDTMMODEL_xxSEV bd:name "--SEV"^^xsd:string . 
:M-CDISC_SDTMMODEL_xxSEV bd:prefixed "true"^^xsd:boolean . 
:M-CDISC_SDTMMODEL_xxSEV bd:description "Describes the severity or intensity of a particular finding. Examples: MILD, MODERATE, SEVERE."^^xsd:string . 
:M-CDISC_SDTMMODEL_xxSEV bd:rule ""^^xsd:string . 
:M-CDISC_SDTMMODEL_xxSEV bd:typedAs :M-CDISC_SDTMMODEL_DT_CHAR . 
:M-CDISC_SDTMMODEL_xxSEV bd:classifiedAs :M-CDISC_SDTMMODEL_SC_RECORDQUALIFIER . 
:M-CDISC_SDTMMODEL bd:includesVariable :M-CDISC_SDTMMODEL_xxSEV . 
:M-CDISC_SDTMMODEL_xxDTHREL rdf:type bd:ModelVariable . 
:M-CDISC_SDTMMODEL_xxDTHREL rdfs:label "Relationship to Death"^^xsd:string . 
:M-CDISC_SDTMMODEL_xxDTHREL bd:ordinal "36"^^xsd:positiveInteger . 
:M-CDISC_SDTMMODEL_xxDTHREL bd:name "--DTHREL"^^xsd:string . 
:M-CDISC_SDTMMODEL_xxDTHREL bd:prefixed "true"^^xsd:boolean . 
:M-CDISC_SDTMMODEL_xxDTHREL bd:description "Describes the relationship of a particular finding to the death of a subject."^^xsd:string . 
:M-CDISC_SDTMMODEL_xxDTHREL bd:rule ""^^xsd:string . 
:M-CDISC_SDTMMODEL_xxDTHREL bd:typedAs :M-CDISC_SDTMMODEL_DT_CHAR . 
:M-CDISC_SDTMMODEL_xxDTHREL bd:classifiedAs :M-CDISC_SDTMMODEL_SC_RECORDQUALIFIER . 
:M-CDISC_SDTMMODEL bd:includesVariable :M-CDISC_SDTMMODEL_xxDTHREL . 
:M-CDISC_SDTMMODEL_xxLLOQ rdf:type bd:ModelVariable . 
:M-CDISC_SDTMMODEL_xxLLOQ rdfs:label "Lower Limit of Quantitation"^^xsd:string . 
:M-CDISC_SDTMMODEL_xxLLOQ bd:ordinal "37"^^xsd:positiveInteger . 
:M-CDISC_SDTMMODEL_xxLLOQ bd:name "--LLOQ"^^xsd:string . 
:M-CDISC_SDTMMODEL_xxLLOQ bd:prefixed "true"^^xsd:boolean . 
:M-CDISC_SDTMMODEL_xxLLOQ bd:description "Indicates the lower limit of quantitation for an assay. Units will be those used for --STRESU."^^xsd:string . 
:M-CDISC_SDTMMODEL_xxLLOQ bd:rule ""^^xsd:string . 
:M-CDISC_SDTMMODEL_xxLLOQ bd:typedAs :M-CDISC_SDTMMODEL_DT_NUM . 
:M-CDISC_SDTMMODEL_xxLLOQ bd:classifiedAs :M-CDISC_SDTMMODEL_SC_VARIABLEQUALIFIER . 
:M-CDISC_SDTMMODEL bd:includesVariable :M-CDISC_SDTMMODEL_xxLLOQ . 
:M-CDISC_SDTMMODEL_xxOBJ rdf:type bd:ModelVariable . 
:M-CDISC_SDTMMODEL_xxOBJ rdfs:label "Object of the Observation"^^xsd:string . 
:M-CDISC_SDTMMODEL_xxOBJ bd:ordinal "1"^^xsd:positiveInteger . 
:M-CDISC_SDTMMODEL_xxOBJ bd:name "--OBJ"^^xsd:string . 
:M-CDISC_SDTMMODEL_xxOBJ bd:prefixed "true"^^xsd:boolean . 
:M-CDISC_SDTMMODEL_xxOBJ bd:description "Used in domains modeled as Findings About Events or Findings About Interventions. Describes the event or intervention whose property is being measured in --TESTCD/--TEST. Example: an event of vomiting which has findings, where --OBJ = 'VOMIT' and the volume of VOMIT is being measured where --TESTCD = 'VOLUME'."^^xsd:string . 
:M-CDISC_SDTMMODEL_xxOBJ bd:rule ""^^xsd:string . 
:M-CDISC_SDTMMODEL_xxOBJ bd:typedAs :M-CDISC_SDTMMODEL_DT_CHAR . 
:M-CDISC_SDTMMODEL_xxOBJ bd:classifiedAs :M-CDISC_SDTMMODEL_SC_RECORDQUALIFIER . 
:M-CDISC_SDTMMODEL bd:includesVariable :M-CDISC_SDTMMODEL_xxOBJ . 
:M-CDISC_SDTMMODEL_xxTRT rdf:type bd:ModelVariable . 
:M-CDISC_SDTMMODEL_xxTRT rdfs:label "Name of Treatment"^^xsd:string . 
:M-CDISC_SDTMMODEL_xxTRT bd:ordinal "1"^^xsd:positiveInteger . 
:M-CDISC_SDTMMODEL_xxTRT bd:name "--TRT"^^xsd:string . 
:M-CDISC_SDTMMODEL_xxTRT bd:prefixed "true"^^xsd:boolean . 
:M-CDISC_SDTMMODEL_xxTRT bd:description "The topic for the intervention observation, usually the verbatim name of the treatment, drug, medicine, or therapy given during the dosing interval for the observation."^^xsd:string . 
:M-CDISC_SDTMMODEL_xxTRT bd:rule ""^^xsd:string . 
:M-CDISC_SDTMMODEL_xxTRT bd:typedAs :M-CDISC_SDTMMODEL_DT_CHAR . 
:M-CDISC_SDTMMODEL_xxTRT bd:classifiedAs :M-CDISC_SDTMMODEL_C_TOPIC . 
:M-CDISC_SDTMMODEL bd:includesVariable :M-CDISC_SDTMMODEL_xxTRT . 
:M-CDISC_SDTMMODEL_xxMODIFY rdf:type bd:ModelVariable . 
:M-CDISC_SDTMMODEL_xxMODIFY rdfs:label "Modified Treatment Name"^^xsd:string . 
:M-CDISC_SDTMMODEL_xxMODIFY bd:ordinal "2"^^xsd:positiveInteger . 
:M-CDISC_SDTMMODEL_xxMODIFY bd:name "--MODIFY"^^xsd:string . 
:M-CDISC_SDTMMODEL_xxMODIFY bd:prefixed "true"^^xsd:boolean . 
:M-CDISC_SDTMMODEL_xxMODIFY bd:description "If the value for --TRT is modified for coding purposes, then the modified text is placed here."^^xsd:string . 
:M-CDISC_SDTMMODEL_xxMODIFY bd:rule ""^^xsd:string . 
:M-CDISC_SDTMMODEL_xxMODIFY bd:typedAs :M-CDISC_SDTMMODEL_DT_CHAR . 
:M-CDISC_SDTMMODEL_xxMODIFY bd:classifiedAs :M-CDISC_SDTMMODEL_SC_SYNONYMQUALIFIER . 
:M-CDISC_SDTMMODEL bd:includesVariable :M-CDISC_SDTMMODEL_xxMODIFY . 
:M-CDISC_SDTMMODEL_xxDECOD rdf:type bd:ModelVariable . 
:M-CDISC_SDTMMODEL_xxDECOD rdfs:label "Standardized Treatment Name"^^xsd:string . 
:M-CDISC_SDTMMODEL_xxDECOD bd:ordinal "3"^^xsd:positiveInteger . 
:M-CDISC_SDTMMODEL_xxDECOD bd:name "--DECOD"^^xsd:string . 
:M-CDISC_SDTMMODEL_xxDECOD bd:prefixed "true"^^xsd:boolean . 
:M-CDISC_SDTMMODEL_xxDECOD bd:description "Standardized or dictionary-derived name of the topic variable, --TRT, or the modified topic variable (--MODIFY), if applicable. Equivalent to the generic drug name in WHO Drug, or a term in SNOMED, ICD9, or other published or sponsor-defined dictionaries."^^xsd:string . 
:M-CDISC_SDTMMODEL_xxDECOD bd:rule ""^^xsd:string . 
:M-CDISC_SDTMMODEL_xxDECOD bd:typedAs :M-CDISC_SDTMMODEL_DT_CHAR . 
:M-CDISC_SDTMMODEL_xxDECOD bd:classifiedAs :M-CDISC_SDTMMODEL_SC_SYNONYMQUALIFIER . 
:M-CDISC_SDTMMODEL bd:includesVariable :M-CDISC_SDTMMODEL_xxDECOD . 
:M-CDISC_SDTMMODEL_xxCAT rdf:type bd:ModelVariable . 
:M-CDISC_SDTMMODEL_xxCAT rdfs:label "Category"^^xsd:string . 
:M-CDISC_SDTMMODEL_xxCAT bd:ordinal "4"^^xsd:positiveInteger . 
:M-CDISC_SDTMMODEL_xxCAT bd:name "--CAT"^^xsd:string . 
:M-CDISC_SDTMMODEL_xxCAT bd:prefixed "true"^^xsd:boolean . 
:M-CDISC_SDTMMODEL_xxCAT bd:description "Used to define a category of topic-variable values. Examples: HEMATOLOGY, URINALYSIS, CHEMISTRY, HAMILTON DEPRESSION SCALE, SF36."^^xsd:string . 
:M-CDISC_SDTMMODEL_xxCAT bd:rule ""^^xsd:string . 
:M-CDISC_SDTMMODEL_xxCAT bd:typedAs :M-CDISC_SDTMMODEL_DT_CHAR . 
:M-CDISC_SDTMMODEL_xxCAT bd:classifiedAs :M-CDISC_SDTMMODEL_SC_GROUPINGQUALIFIER . 
:M-CDISC_SDTMMODEL bd:includesVariable :M-CDISC_SDTMMODEL_xxCAT . 
:M-CDISC_SDTMMODEL_xxSCAT rdf:type bd:ModelVariable . 
:M-CDISC_SDTMMODEL_xxSCAT rdfs:label "Subcategory"^^xsd:string . 
:M-CDISC_SDTMMODEL_xxSCAT bd:ordinal "5"^^xsd:positiveInteger . 
:M-CDISC_SDTMMODEL_xxSCAT bd:name "--SCAT"^^xsd:string . 
:M-CDISC_SDTMMODEL_xxSCAT bd:prefixed "true"^^xsd:boolean . 
:M-CDISC_SDTMMODEL_xxSCAT bd:description "Used to define a further categorization of --CAT values."^^xsd:string . 
:M-CDISC_SDTMMODEL_xxSCAT bd:rule ""^^xsd:string . 
:M-CDISC_SDTMMODEL_xxSCAT bd:typedAs :M-CDISC_SDTMMODEL_DT_CHAR . 
:M-CDISC_SDTMMODEL_xxSCAT bd:classifiedAs :M-CDISC_SDTMMODEL_SC_GROUPINGQUALIFIER . 
:M-CDISC_SDTMMODEL bd:includesVariable :M-CDISC_SDTMMODEL_xxSCAT . 
:M-CDISC_SDTMMODEL_xxPRESP rdf:type bd:ModelVariable . 
:M-CDISC_SDTMMODEL_xxPRESP rdfs:label "Pre-specified"^^xsd:string . 
:M-CDISC_SDTMMODEL_xxPRESP bd:ordinal "6"^^xsd:positiveInteger . 
:M-CDISC_SDTMMODEL_xxPRESP bd:name "--PRESP"^^xsd:string . 
:M-CDISC_SDTMMODEL_xxPRESP bd:prefixed "true"^^xsd:boolean . 
:M-CDISC_SDTMMODEL_xxPRESP bd:description "Used when a specific intervention is pre-specified on a CRF. Values should be 'Y' or null."^^xsd:string . 
:M-CDISC_SDTMMODEL_xxPRESP bd:rule ""^^xsd:string . 
:M-CDISC_SDTMMODEL_xxPRESP bd:typedAs :M-CDISC_SDTMMODEL_DT_CHAR . 
:M-CDISC_SDTMMODEL_xxPRESP bd:classifiedAs :M-CDISC_SDTMMODEL_SC_RECORDQUALIFIER . 
:M-CDISC_SDTMMODEL bd:includesVariable :M-CDISC_SDTMMODEL_xxPRESP . 
:M-CDISC_SDTMMODEL_xxOCCUR rdf:type bd:ModelVariable . 
:M-CDISC_SDTMMODEL_xxOCCUR rdfs:label "Occurrence"^^xsd:string . 
:M-CDISC_SDTMMODEL_xxOCCUR bd:ordinal "7"^^xsd:positiveInteger . 
:M-CDISC_SDTMMODEL_xxOCCUR bd:name "--OCCUR"^^xsd:string . 
:M-CDISC_SDTMMODEL_xxOCCUR bd:prefixed "true"^^xsd:boolean . 
:M-CDISC_SDTMMODEL_xxOCCUR bd:description "Used to record whether a pre-specified event occurred when information about the occurrence of a specific event is solicited."^^xsd:string . 
:M-CDISC_SDTMMODEL_xxOCCUR bd:rule ""^^xsd:string . 
:M-CDISC_SDTMMODEL_xxOCCUR bd:typedAs :M-CDISC_SDTMMODEL_DT_CHAR . 
:M-CDISC_SDTMMODEL_xxOCCUR bd:classifiedAs :M-CDISC_SDTMMODEL_SC_RECORDQUALIFIER . 
:M-CDISC_SDTMMODEL bd:includesVariable :M-CDISC_SDTMMODEL_xxOCCUR . 
:M-CDISC_SDTMMODEL_xxSTAT rdf:type bd:ModelVariable . 
:M-CDISC_SDTMMODEL_xxSTAT rdfs:label "Completion Status"^^xsd:string . 
:M-CDISC_SDTMMODEL_xxSTAT bd:ordinal "8"^^xsd:positiveInteger . 
:M-CDISC_SDTMMODEL_xxSTAT bd:name "--STAT"^^xsd:string . 
:M-CDISC_SDTMMODEL_xxSTAT bd:prefixed "true"^^xsd:boolean . 
:M-CDISC_SDTMMODEL_xxSTAT bd:description "Used to indicate when a question about the occurrence of a pre-specified event was not answered. Should be null or have a value of NOT DONE."^^xsd:string . 
:M-CDISC_SDTMMODEL_xxSTAT bd:rule ""^^xsd:string . 
:M-CDISC_SDTMMODEL_xxSTAT bd:typedAs :M-CDISC_SDTMMODEL_DT_CHAR . 
:M-CDISC_SDTMMODEL_xxSTAT bd:classifiedAs :M-CDISC_SDTMMODEL_SC_RECORDQUALIFIER . 
:M-CDISC_SDTMMODEL bd:includesVariable :M-CDISC_SDTMMODEL_xxSTAT . 
:M-CDISC_SDTMMODEL_xxREASND rdf:type bd:ModelVariable . 
:M-CDISC_SDTMMODEL_xxREASND rdfs:label "Reason Not Done"^^xsd:string . 
:M-CDISC_SDTMMODEL_xxREASND bd:ordinal "9"^^xsd:positiveInteger . 
:M-CDISC_SDTMMODEL_xxREASND bd:name "--REASND"^^xsd:string . 
:M-CDISC_SDTMMODEL_xxREASND bd:prefixed "true"^^xsd:boolean . 
:M-CDISC_SDTMMODEL_xxREASND bd:description "Reason not done. Used in conjunction with --STAT when value is NOT DONE."^^xsd:string . 
:M-CDISC_SDTMMODEL_xxREASND bd:rule ""^^xsd:string . 
:M-CDISC_SDTMMODEL_xxREASND bd:typedAs :M-CDISC_SDTMMODEL_DT_CHAR . 
:M-CDISC_SDTMMODEL_xxREASND bd:classifiedAs :M-CDISC_SDTMMODEL_SC_RECORDQUALIFIER . 
:M-CDISC_SDTMMODEL bd:includesVariable :M-CDISC_SDTMMODEL_xxREASND . 
:M-CDISC_SDTMMODEL_xxINDC rdf:type bd:ModelVariable . 
:M-CDISC_SDTMMODEL_xxINDC rdfs:label "Indication"^^xsd:string . 
:M-CDISC_SDTMMODEL_xxINDC bd:ordinal "10"^^xsd:positiveInteger . 
:M-CDISC_SDTMMODEL_xxINDC bd:name "--INDC"^^xsd:string . 
:M-CDISC_SDTMMODEL_xxINDC bd:prefixed "true"^^xsd:boolean . 
:M-CDISC_SDTMMODEL_xxINDC bd:description "Denotes the indication for the intervention (e.g., why the therapy was taken or administered)."^^xsd:string . 
:M-CDISC_SDTMMODEL_xxINDC bd:rule ""^^xsd:string . 
:M-CDISC_SDTMMODEL_xxINDC bd:typedAs :M-CDISC_SDTMMODEL_DT_CHAR . 
:M-CDISC_SDTMMODEL_xxINDC bd:classifiedAs :M-CDISC_SDTMMODEL_SC_RECORDQUALIFIER . 
:M-CDISC_SDTMMODEL bd:includesVariable :M-CDISC_SDTMMODEL_xxINDC . 
:M-CDISC_SDTMMODEL_xxCLAS rdf:type bd:ModelVariable . 
:M-CDISC_SDTMMODEL_xxCLAS rdfs:label "Class"^^xsd:string . 
:M-CDISC_SDTMMODEL_xxCLAS bd:ordinal "11"^^xsd:positiveInteger . 
:M-CDISC_SDTMMODEL_xxCLAS bd:name "--CLAS"^^xsd:string . 
:M-CDISC_SDTMMODEL_xxCLAS bd:prefixed "true"^^xsd:boolean . 
:M-CDISC_SDTMMODEL_xxCLAS bd:description "Class for a medication or treatment, often obtained from a coding dictionary."^^xsd:string . 
:M-CDISC_SDTMMODEL_xxCLAS bd:rule ""^^xsd:string . 
:M-CDISC_SDTMMODEL_xxCLAS bd:typedAs :M-CDISC_SDTMMODEL_DT_CHAR . 
:M-CDISC_SDTMMODEL_xxCLAS bd:classifiedAs :M-CDISC_SDTMMODEL_SC_VARIABLEQUALIFIER . 
:M-CDISC_SDTMMODEL bd:includesVariable :M-CDISC_SDTMMODEL_xxCLAS . 
:M-CDISC_SDTMMODEL_xxCLASCD rdf:type bd:ModelVariable . 
:M-CDISC_SDTMMODEL_xxCLASCD rdfs:label "Class Code"^^xsd:string . 
:M-CDISC_SDTMMODEL_xxCLASCD bd:ordinal "12"^^xsd:positiveInteger . 
:M-CDISC_SDTMMODEL_xxCLASCD bd:name "--CLASCD"^^xsd:string . 
:M-CDISC_SDTMMODEL_xxCLASCD bd:prefixed "true"^^xsd:boolean . 
:M-CDISC_SDTMMODEL_xxCLASCD bd:description "Used to represent code for --CLAS."^^xsd:string . 
:M-CDISC_SDTMMODEL_xxCLASCD bd:rule ""^^xsd:string . 
:M-CDISC_SDTMMODEL_xxCLASCD bd:typedAs :M-CDISC_SDTMMODEL_DT_CHAR . 
:M-CDISC_SDTMMODEL_xxCLASCD bd:classifiedAs :M-CDISC_SDTMMODEL_SC_VARIABLEQUALIFIER . 
:M-CDISC_SDTMMODEL bd:includesVariable :M-CDISC_SDTMMODEL_xxCLASCD . 
:M-CDISC_SDTMMODEL_xxDOSE rdf:type bd:ModelVariable . 
:M-CDISC_SDTMMODEL_xxDOSE rdfs:label "Dose"^^xsd:string . 
:M-CDISC_SDTMMODEL_xxDOSE bd:ordinal "13"^^xsd:positiveInteger . 
:M-CDISC_SDTMMODEL_xxDOSE bd:name "--DOSE"^^xsd:string . 
:M-CDISC_SDTMMODEL_xxDOSE bd:prefixed "true"^^xsd:boolean . 
:M-CDISC_SDTMMODEL_xxDOSE bd:description "Amount of --TRT given. Not populated when --DOSTXT is populated."^^xsd:string . 
:M-CDISC_SDTMMODEL_xxDOSE bd:rule ""^^xsd:string . 
:M-CDISC_SDTMMODEL_xxDOSE bd:typedAs :M-CDISC_SDTMMODEL_DT_NUM . 
:M-CDISC_SDTMMODEL_xxDOSE bd:classifiedAs :M-CDISC_SDTMMODEL_SC_RECORDQUALIFIER . 
:M-CDISC_SDTMMODEL bd:includesVariable :M-CDISC_SDTMMODEL_xxDOSE . 
:M-CDISC_SDTMMODEL_xxDOSTXT rdf:type bd:ModelVariable . 
:M-CDISC_SDTMMODEL_xxDOSTXT rdfs:label "Dose Description"^^xsd:string . 
:M-CDISC_SDTMMODEL_xxDOSTXT bd:ordinal "14"^^xsd:positiveInteger . 
:M-CDISC_SDTMMODEL_xxDOSTXT bd:name "--DOSTXT"^^xsd:string . 
:M-CDISC_SDTMMODEL_xxDOSTXT bd:prefixed "true"^^xsd:boolean . 
:M-CDISC_SDTMMODEL_xxDOSTXT bd:description "Dosing information collected in text form. Examples: <1 per day, 200-400. Not populated when --DOSE is populated."^^xsd:string . 
:M-CDISC_SDTMMODEL_xxDOSTXT bd:rule ""^^xsd:string . 
:M-CDISC_SDTMMODEL_xxDOSTXT bd:typedAs :M-CDISC_SDTMMODEL_DT_CHAR . 
:M-CDISC_SDTMMODEL_xxDOSTXT bd:classifiedAs :M-CDISC_SDTMMODEL_SC_RECORDQUALIFIER . 
:M-CDISC_SDTMMODEL bd:includesVariable :M-CDISC_SDTMMODEL_xxDOSTXT . 
:M-CDISC_SDTMMODEL_xxDOSU rdf:type bd:ModelVariable . 
:M-CDISC_SDTMMODEL_xxDOSU rdfs:label "Dose Units"^^xsd:string . 
:M-CDISC_SDTMMODEL_xxDOSU bd:ordinal "15"^^xsd:positiveInteger . 
:M-CDISC_SDTMMODEL_xxDOSU bd:name "--DOSU"^^xsd:string . 
:M-CDISC_SDTMMODEL_xxDOSU bd:prefixed "true"^^xsd:boolean . 
:M-CDISC_SDTMMODEL_xxDOSU bd:description "Units for --DOSE, --DOSTOT, or --DOSTXT (Examples: ng, mg, mg/kg)."^^xsd:string . 
:M-CDISC_SDTMMODEL_xxDOSU bd:rule ""^^xsd:string . 
:M-CDISC_SDTMMODEL_xxDOSU bd:typedAs :M-CDISC_SDTMMODEL_DT_CHAR . 
:M-CDISC_SDTMMODEL_xxDOSU bd:classifiedAs :M-CDISC_SDTMMODEL_SC_VARIABLEQUALIFIER . 
:M-CDISC_SDTMMODEL bd:includesVariable :M-CDISC_SDTMMODEL_xxDOSU . 
:M-CDISC_SDTMMODEL_xxDOSFRM rdf:type bd:ModelVariable . 
:M-CDISC_SDTMMODEL_xxDOSFRM rdfs:label "Dose Form"^^xsd:string . 
:M-CDISC_SDTMMODEL_xxDOSFRM bd:ordinal "16"^^xsd:positiveInteger . 
:M-CDISC_SDTMMODEL_xxDOSFRM bd:name "--DOSFRM"^^xsd:string . 
:M-CDISC_SDTMMODEL_xxDOSFRM bd:prefixed "true"^^xsd:boolean . 
:M-CDISC_SDTMMODEL_xxDOSFRM bd:description "Dose form for the treatment. Examples: TABLET, CAPSULE."^^xsd:string . 
:M-CDISC_SDTMMODEL_xxDOSFRM bd:rule ""^^xsd:string . 
:M-CDISC_SDTMMODEL_xxDOSFRM bd:typedAs :M-CDISC_SDTMMODEL_DT_CHAR . 
:M-CDISC_SDTMMODEL_xxDOSFRM bd:classifiedAs :M-CDISC_SDTMMODEL_SC_VARIABLEQUALIFIER . 
:M-CDISC_SDTMMODEL bd:includesVariable :M-CDISC_SDTMMODEL_xxDOSFRM . 
:M-CDISC_SDTMMODEL_xxDOSFRQ rdf:type bd:ModelVariable . 
:M-CDISC_SDTMMODEL_xxDOSFRQ rdfs:label "Dosing Frequency per Interval"^^xsd:string . 
:M-CDISC_SDTMMODEL_xxDOSFRQ bd:ordinal "17"^^xsd:positiveInteger . 
:M-CDISC_SDTMMODEL_xxDOSFRQ bd:name "--DOSFRQ"^^xsd:string . 
:M-CDISC_SDTMMODEL_xxDOSFRQ bd:prefixed "true"^^xsd:boolean . 
:M-CDISC_SDTMMODEL_xxDOSFRQ bd:description "Usually expressed as the number of doses given per a specific interval. Examples: QD, BID, TID, QID."^^xsd:string . 
:M-CDISC_SDTMMODEL_xxDOSFRQ bd:rule ""^^xsd:string . 
:M-CDISC_SDTMMODEL_xxDOSFRQ bd:typedAs :M-CDISC_SDTMMODEL_DT_CHAR . 
:M-CDISC_SDTMMODEL_xxDOSFRQ bd:classifiedAs :M-CDISC_SDTMMODEL_SC_VARIABLEQUALIFIER . 
:M-CDISC_SDTMMODEL bd:includesVariable :M-CDISC_SDTMMODEL_xxDOSFRQ . 
:M-CDISC_SDTMMODEL_xxDOSTOT rdf:type bd:ModelVariable . 
:M-CDISC_SDTMMODEL_xxDOSTOT rdfs:label "Total Daily Dose"^^xsd:string . 
:M-CDISC_SDTMMODEL_xxDOSTOT bd:ordinal "18"^^xsd:positiveInteger . 
:M-CDISC_SDTMMODEL_xxDOSTOT bd:name "--DOSTOT"^^xsd:string . 
:M-CDISC_SDTMMODEL_xxDOSTOT bd:prefixed "true"^^xsd:boolean . 
:M-CDISC_SDTMMODEL_xxDOSTOT bd:description "Total daily dose of --TRT using the units in --DOSU. Used when dosing is collected as Total Daily Dose."^^xsd:string . 
:M-CDISC_SDTMMODEL_xxDOSTOT bd:rule ""^^xsd:string . 
:M-CDISC_SDTMMODEL_xxDOSTOT bd:typedAs :M-CDISC_SDTMMODEL_DT_NUM . 
:M-CDISC_SDTMMODEL_xxDOSTOT bd:classifiedAs :M-CDISC_SDTMMODEL_SC_RECORDQUALIFIER . 
:M-CDISC_SDTMMODEL bd:includesVariable :M-CDISC_SDTMMODEL_xxDOSTOT . 
:M-CDISC_SDTMMODEL_xxDOSRGM rdf:type bd:ModelVariable . 
:M-CDISC_SDTMMODEL_xxDOSRGM rdfs:label "Intended Dose Regimen"^^xsd:string . 
:M-CDISC_SDTMMODEL_xxDOSRGM bd:ordinal "19"^^xsd:positiveInteger . 
:M-CDISC_SDTMMODEL_xxDOSRGM bd:name "--DOSRGM"^^xsd:string . 
:M-CDISC_SDTMMODEL_xxDOSRGM bd:prefixed "true"^^xsd:boolean . 
:M-CDISC_SDTMMODEL_xxDOSRGM bd:description "Text description of the (intended) schedule or regimen for the Intervention. Examples: TWO WEEKS ON, TWO WEEKS OFF."^^xsd:string . 
:M-CDISC_SDTMMODEL_xxDOSRGM bd:rule ""^^xsd:string . 
:M-CDISC_SDTMMODEL_xxDOSRGM bd:typedAs :M-CDISC_SDTMMODEL_DT_CHAR . 
:M-CDISC_SDTMMODEL_xxDOSRGM bd:classifiedAs :M-CDISC_SDTMMODEL_SC_VARIABLEQUALIFIER . 
:M-CDISC_SDTMMODEL bd:includesVariable :M-CDISC_SDTMMODEL_xxDOSRGM . 
:M-CDISC_SDTMMODEL_xxROUTE rdf:type bd:ModelVariable . 
:M-CDISC_SDTMMODEL_xxROUTE rdfs:label "Route of Administration"^^xsd:string . 
:M-CDISC_SDTMMODEL_xxROUTE bd:ordinal "20"^^xsd:positiveInteger . 
:M-CDISC_SDTMMODEL_xxROUTE bd:name "--ROUTE"^^xsd:string . 
:M-CDISC_SDTMMODEL_xxROUTE bd:prefixed "true"^^xsd:boolean . 
:M-CDISC_SDTMMODEL_xxROUTE bd:description "Route of administration for the intervention. Examples: ORAL, INTRAVENOUS."^^xsd:string . 
:M-CDISC_SDTMMODEL_xxROUTE bd:rule ""^^xsd:string . 
:M-CDISC_SDTMMODEL_xxROUTE bd:typedAs :M-CDISC_SDTMMODEL_DT_CHAR . 
:M-CDISC_SDTMMODEL_xxROUTE bd:classifiedAs :M-CDISC_SDTMMODEL_SC_VARIABLEQUALIFIER . 
:M-CDISC_SDTMMODEL bd:includesVariable :M-CDISC_SDTMMODEL_xxROUTE . 
:M-CDISC_SDTMMODEL_xxLOT rdf:type bd:ModelVariable . 
:M-CDISC_SDTMMODEL_xxLOT rdfs:label "Lot Number"^^xsd:string . 
:M-CDISC_SDTMMODEL_xxLOT bd:ordinal "21"^^xsd:positiveInteger . 
:M-CDISC_SDTMMODEL_xxLOT bd:name "--LOT"^^xsd:string . 
:M-CDISC_SDTMMODEL_xxLOT bd:prefixed "true"^^xsd:boolean . 
:M-CDISC_SDTMMODEL_xxLOT bd:description "Lot number for the intervention described in --TRT."^^xsd:string . 
:M-CDISC_SDTMMODEL_xxLOT bd:rule ""^^xsd:string . 
:M-CDISC_SDTMMODEL_xxLOT bd:typedAs :M-CDISC_SDTMMODEL_DT_CHAR . 
:M-CDISC_SDTMMODEL_xxLOT bd:classifiedAs :M-CDISC_SDTMMODEL_SC_RECORDQUALIFIER . 
:M-CDISC_SDTMMODEL bd:includesVariable :M-CDISC_SDTMMODEL_xxLOT . 
:M-CDISC_SDTMMODEL_xxLOC rdf:type bd:ModelVariable . 
:M-CDISC_SDTMMODEL_xxLOC rdfs:label "Location of Dose Administration"^^xsd:string . 
:M-CDISC_SDTMMODEL_xxLOC bd:ordinal "22"^^xsd:positiveInteger . 
:M-CDISC_SDTMMODEL_xxLOC bd:name "--LOC"^^xsd:string . 
:M-CDISC_SDTMMODEL_xxLOC bd:prefixed "true"^^xsd:boolean . 
:M-CDISC_SDTMMODEL_xxLOC bd:description "Anatomical location of an intervention, such as an injection site. Example: RIGHT ARM for an injection."^^xsd:string . 
:M-CDISC_SDTMMODEL_xxLOC bd:rule ""^^xsd:string . 
:M-CDISC_SDTMMODEL_xxLOC bd:typedAs :M-CDISC_SDTMMODEL_DT_CHAR . 
:M-CDISC_SDTMMODEL_xxLOC bd:classifiedAs :M-CDISC_SDTMMODEL_SC_RECORDQUALIFIER . 
:M-CDISC_SDTMMODEL bd:includesVariable :M-CDISC_SDTMMODEL_xxLOC . 
:M-CDISC_SDTMMODEL_xxTRTV rdf:type bd:ModelVariable . 
:M-CDISC_SDTMMODEL_xxTRTV rdfs:label "Treatment Vehicle"^^xsd:string . 
:M-CDISC_SDTMMODEL_xxTRTV bd:ordinal "23"^^xsd:positiveInteger . 
:M-CDISC_SDTMMODEL_xxTRTV bd:name "--TRTV"^^xsd:string . 
:M-CDISC_SDTMMODEL_xxTRTV bd:prefixed "true"^^xsd:boolean . 
:M-CDISC_SDTMMODEL_xxTRTV bd:description "Vehicle for administration of treatment, such as a liquid in which the treatment drug is dissolved. Example: SALINE."^^xsd:string . 
:M-CDISC_SDTMMODEL_xxTRTV bd:rule ""^^xsd:string . 
:M-CDISC_SDTMMODEL_xxTRTV bd:typedAs :M-CDISC_SDTMMODEL_DT_CHAR . 
:M-CDISC_SDTMMODEL_xxTRTV bd:classifiedAs :M-CDISC_SDTMMODEL_SC_RECORDQUALIFIER . 
:M-CDISC_SDTMMODEL bd:includesVariable :M-CDISC_SDTMMODEL_xxTRTV . 
:M-CDISC_SDTMMODEL_xxVAMT rdf:type bd:ModelVariable . 
:M-CDISC_SDTMMODEL_xxVAMT rdfs:label "Treatment Vehicle Amount"^^xsd:string . 
:M-CDISC_SDTMMODEL_xxVAMT bd:ordinal "24"^^xsd:positiveInteger . 
:M-CDISC_SDTMMODEL_xxVAMT bd:name "--VAMT"^^xsd:string . 
:M-CDISC_SDTMMODEL_xxVAMT bd:prefixed "true"^^xsd:boolean . 
:M-CDISC_SDTMMODEL_xxVAMT bd:description "Amount of the treatment vehicle administered or given."^^xsd:string . 
:M-CDISC_SDTMMODEL_xxVAMT bd:rule ""^^xsd:string . 
:M-CDISC_SDTMMODEL_xxVAMT bd:typedAs :M-CDISC_SDTMMODEL_DT_NUM . 
:M-CDISC_SDTMMODEL_xxVAMT bd:classifiedAs :M-CDISC_SDTMMODEL_SC_RECORDQUALIFIER . 
:M-CDISC_SDTMMODEL bd:includesVariable :M-CDISC_SDTMMODEL_xxVAMT . 
:M-CDISC_SDTMMODEL_xxVAMTU rdf:type bd:ModelVariable . 
:M-CDISC_SDTMMODEL_xxVAMTU rdfs:label "Treatment Vehicle Amount Units"^^xsd:string . 
:M-CDISC_SDTMMODEL_xxVAMTU bd:ordinal "25"^^xsd:positiveInteger . 
:M-CDISC_SDTMMODEL_xxVAMTU bd:name "--VAMTU"^^xsd:string . 
:M-CDISC_SDTMMODEL_xxVAMTU bd:prefixed "true"^^xsd:boolean . 
:M-CDISC_SDTMMODEL_xxVAMTU bd:description "Units for the treatment vehicle. Examples: mL, mg."^^xsd:string . 
:M-CDISC_SDTMMODEL_xxVAMTU bd:rule ""^^xsd:string . 
:M-CDISC_SDTMMODEL_xxVAMTU bd:typedAs :M-CDISC_SDTMMODEL_DT_CHAR . 
:M-CDISC_SDTMMODEL_xxVAMTU bd:classifiedAs :M-CDISC_SDTMMODEL_SC_VARIABLEQUALIFIER . 
:M-CDISC_SDTMMODEL bd:includesVariable :M-CDISC_SDTMMODEL_xxVAMTU . 
:M-CDISC_SDTMMODEL_xxADJ rdf:type bd:ModelVariable . 
:M-CDISC_SDTMMODEL_xxADJ rdfs:label "Reason for Dose Adjustment"^^xsd:string . 
:M-CDISC_SDTMMODEL_xxADJ bd:ordinal "26"^^xsd:positiveInteger . 
:M-CDISC_SDTMMODEL_xxADJ bd:name "--ADJ"^^xsd:string . 
:M-CDISC_SDTMMODEL_xxADJ bd:prefixed "true"^^xsd:boolean . 
:M-CDISC_SDTMMODEL_xxADJ bd:description "Describes reason or explanation of why a dose is adjusted. Examples ADVERSE EVENT, INSUFFICIENT RESPONSE, NON-MEDICAL REASON."^^xsd:string . 
:M-CDISC_SDTMMODEL_xxADJ bd:rule ""^^xsd:string . 
:M-CDISC_SDTMMODEL_xxADJ bd:typedAs :M-CDISC_SDTMMODEL_DT_CHAR . 
:M-CDISC_SDTMMODEL_xxADJ bd:classifiedAs :M-CDISC_SDTMMODEL_SC_RECORDQUALIFIER . 
:M-CDISC_SDTMMODEL bd:includesVariable :M-CDISC_SDTMMODEL_xxADJ . 
:M-CDISC_SDTMMODEL_DT_CHAR rdf:type bd:VariableType . 
:M-CDISC_SDTMMODEL_DT_CHAR rdfs:label "Char"^^xsd:string . 
:M-CDISC_SDTMMODEL_DT_NUM rdf:type bd:VariableType . 
:M-CDISC_SDTMMODEL_DT_NUM rdfs:label "Num"^^xsd:string . 
:M-CDISC_SDTMMODEL_C_NONE rdf:type bd:VariableClassification . 
:M-CDISC_SDTMMODEL_C_NONE rdfs:label ""^^xsd:string . 
:M-CDISC_SDTMMODEL_C_IDENTIFIER rdf:type bd:VariableClassification . 
:M-CDISC_SDTMMODEL_C_IDENTIFIER rdfs:label "Identifier"^^xsd:string . 
:M-CDISC_SDTMMODEL_C_TIMING rdf:type bd:VariableClassification . 
:M-CDISC_SDTMMODEL_C_TIMING rdfs:label "Timing"^^xsd:string . 
:M-CDISC_SDTMMODEL_C_TOPIC rdf:type bd:VariableClassification . 
:M-CDISC_SDTMMODEL_C_TOPIC rdfs:label "Topic"^^xsd:string . 
:M-CDISC_SDTMMODEL_C_QUALIFIER rdf:type bd:VariableClassification . 
:M-CDISC_SDTMMODEL_C_QUALIFIER rdfs:label "Qualifier"^^xsd:string . 
:M-CDISC_SDTMMODEL_C_QUALIFIER bd:childClassification :M-CDISC_SDTMMODEL_SC_SYNONYMQUALIFIER . 
:M-CDISC_SDTMMODEL_SC_SYNONYMQUALIFIER bd:parentClassification :M-CDISC_SDTMMODEL_C_QUALIFIER . 
:M-CDISC_SDTMMODEL_SC_SYNONYMQUALIFIER rdf:type bd:VariableClassification . 
:M-CDISC_SDTMMODEL_SC_SYNONYMQUALIFIER rdfs:label "Synonym Qualifier"^^xsd:string . 
:M-CDISC_SDTMMODEL_C_QUALIFIER bd:childClassification :M-CDISC_SDTMMODEL_SC_GROUPINGQUALIFIER . 
:M-CDISC_SDTMMODEL_SC_GROUPINGQUALIFIER bd:parentClassification :M-CDISC_SDTMMODEL_C_QUALIFIER . 
:M-CDISC_SDTMMODEL_SC_GROUPINGQUALIFIER rdf:type bd:VariableClassification . 
:M-CDISC_SDTMMODEL_SC_GROUPINGQUALIFIER rdfs:label "Grouping Qualifier"^^xsd:string . 
:M-CDISC_SDTMMODEL_C_QUALIFIER bd:childClassification :M-CDISC_SDTMMODEL_SC_RECORDQUALIFIER . 
:M-CDISC_SDTMMODEL_SC_RECORDQUALIFIER bd:parentClassification :M-CDISC_SDTMMODEL_C_QUALIFIER . 
:M-CDISC_SDTMMODEL_SC_RECORDQUALIFIER rdf:type bd:VariableClassification . 
:M-CDISC_SDTMMODEL_SC_RECORDQUALIFIER rdfs:label "Record Qualifier"^^xsd:string . 
:M-CDISC_SDTMMODEL_C_QUALIFIER bd:childClassification :M-CDISC_SDTMMODEL_SC_VARIABLEQUALIFIER . 
:M-CDISC_SDTMMODEL_SC_VARIABLEQUALIFIER bd:parentClassification :M-CDISC_SDTMMODEL_C_QUALIFIER . 
:M-CDISC_SDTMMODEL_SC_VARIABLEQUALIFIER rdf:type bd:VariableClassification . 
:M-CDISC_SDTMMODEL_SC_VARIABLEQUALIFIER rdfs:label "Variable Qualifier"^^xsd:string . 
:M-CDISC_SDTMMODEL_C_QUALIFIER bd:childClassification :M-CDISC_SDTMMODEL_SC_RESULTQUALIFIER . 
:M-CDISC_SDTMMODEL_SC_RESULTQUALIFIER bd:parentClassification :M-CDISC_SDTMMODEL_C_QUALIFIER . 
:M-CDISC_SDTMMODEL_SC_RESULTQUALIFIER rdf:type bd:VariableClassification . 
:M-CDISC_SDTMMODEL_SC_RESULTQUALIFIER rdfs:label "Result Qualifier"^^xsd:string . 
mdrItems:SI-CDISC_SDTMMODEL_EVENTS-1 rdf:type isoI:ScopedIdentifier . 
mdrItems:SI-CDISC_SDTMMODEL_EVENTS-1 isoI:identifier "SDTMMODEL_EVENTS"^^xsd:string . 
mdrItems:SI-CDISC_SDTMMODEL_EVENTS-1 isoI:version "1"^^xsd:positiveInteger . 
mdrItems:SI-CDISC_SDTMMODEL_EVENTS-1 isoI:versionLabel "1.2"^^xsd:string . 
mdrItems:SI-CDISC_SDTMMODEL_EVENTS-1 isoI:hasScope mdrItems:NS-CDISC . 
mdrItems:RS-CDISC_SDTMMODEL_EVENTS-1 rdf:type isoR:RegistrationState . 
mdrItems:RS-CDISC_SDTMMODEL_EVENTS-1 isoR:byAuthority mdrItems:RA-084433759 . 
mdrItems:RS-CDISC_SDTMMODEL_EVENTS-1 isoR:registrationStatus "Standard"^^xsd:string . 
mdrItems:RS-CDISC_SDTMMODEL_EVENTS-1 isoR:administrativeNote ""^^xsd:string . 
mdrItems:RS-CDISC_SDTMMODEL_EVENTS-1 isoR:effectiveDate "2016-01-01T00:00:00Z"^^xsd:dateTime . 
mdrItems:RS-CDISC_SDTMMODEL_EVENTS-1 isoR:untilDate "2016-01-01T00:00:00Z"^^xsd:dateTime . 
mdrItems:RS-CDISC_SDTMMODEL_EVENTS-1 isoR:unresolvedIssue ""^^xsd:string . 
mdrItems:RS-CDISC_SDTMMODEL_EVENTS-1 isoR:administrativeStatus ""^^xsd:string . 
mdrItems:RS-CDISC_SDTMMODEL_EVENTS-1 isoR:previousState "Standard"^^xsd:string . 
:M-CDISC_SDTMMODEL_EVENTS rdf:type bd:ClassDomain . 
:M-CDISC_SDTMMODEL_EVENTS isoI:hasIdentifier mdrItems:SI-CDISC_SDTMMODEL_EVENTS-1 . 
:M-CDISC_SDTMMODEL_EVENTS isoR:hasState mdrItems:RS-CDISC_SDTMMODEL_EVENTS-1 . 
:M-CDISC_SDTMMODEL_EVENTS rdfs:label "Events"^^xsd:string . 
:M-CDISC_SDTMMODEL_EVENTS isoT:creationDate "2016-07-15"^^xsd:string . 
:M-CDISC_SDTMMODEL_EVENTS isoT:lastChangeDate "2016-07-15T07:28:45+01:00"^^xsd:string . 
:M-CDISC_SDTMMODEL_EVENTS isoT:changeDescription ""^^xsd:string . 
:M-CDISC_SDTMMODEL_EVENTS isoT:explanatoryComment ""^^xsd:string . 
:M-CDISC_SDTMMODEL_EVENTS isoT:origin ""^^xsd:string . 
:M-CDISC_SDTMMODEL_EVENTS bd:domain_class "Events"^^xsd:string . 
:M-CDISC_SDTMMODEL_EVENTS_STUDYID rdf:type bd:ClassVariable . 
:M-CDISC_SDTMMODEL_EVENTS_STUDYID rdfs:label "Study Identifier"^^xsd:string . 
:M-CDISC_SDTMMODEL_EVENTS_STUDYID bd:ordinal "1"^^xsd:positiveInteger . 
:M-CDISC_SDTMMODEL_EVENTS_STUDYID bd:basedOnVariable :M-CDISC_SDTMMODEL_EVENTS_STUDYID_CR . 
:M-CDISC_SDTMMODEL_EVENTS_STUDYID_CR rdf:type bo:CReference . 
:M-CDISC_SDTMMODEL_EVENTS_STUDYID_CR bo:hasColumn <http://www.assero.co.uk/MDRModels/CDISC/V1#M-CDISC_SDTMMODEL_STUDYID> . 
:M-CDISC_SDTMMODEL_EVENTS_STUDYID_CR bo:enabled "true"^^xsd:boolean . 
:M-CDISC_SDTMMODEL_EVENTS_STUDYID_CR bo:optional "false"^^xsd:boolean . 
:M-CDISC_SDTMMODEL_EVENTS_STUDYID_CR bo:ordinal "1"^^xsd:positiveInteger . 
:M-CDISC_SDTMMODEL_EVENTS bd:includesColumn :M-CDISC_SDTMMODEL_EVENTS_STUDYID . 
:M-CDISC_SDTMMODEL_EVENTS_DOMAIN rdf:type bd:ClassVariable . 
:M-CDISC_SDTMMODEL_EVENTS_DOMAIN rdfs:label "Domain Abbreviation"^^xsd:string . 
:M-CDISC_SDTMMODEL_EVENTS_DOMAIN bd:ordinal "2"^^xsd:positiveInteger . 
:M-CDISC_SDTMMODEL_EVENTS_DOMAIN bd:basedOnVariable :M-CDISC_SDTMMODEL_EVENTS_DOMAIN_CR . 
:M-CDISC_SDTMMODEL_EVENTS_DOMAIN_CR rdf:type bo:CReference . 
:M-CDISC_SDTMMODEL_EVENTS_DOMAIN_CR bo:hasColumn <http://www.assero.co.uk/MDRModels/CDISC/V1#M-CDISC_SDTMMODEL_DOMAIN> . 
:M-CDISC_SDTMMODEL_EVENTS_DOMAIN_CR bo:enabled "true"^^xsd:boolean . 
:M-CDISC_SDTMMODEL_EVENTS_DOMAIN_CR bo:optional "false"^^xsd:boolean . 
:M-CDISC_SDTMMODEL_EVENTS_DOMAIN_CR bo:ordinal "2"^^xsd:positiveInteger . 
:M-CDISC_SDTMMODEL_EVENTS bd:includesColumn :M-CDISC_SDTMMODEL_EVENTS_DOMAIN . 
:M-CDISC_SDTMMODEL_EVENTS_USUBJID rdf:type bd:ClassVariable . 
:M-CDISC_SDTMMODEL_EVENTS_USUBJID rdfs:label "Unique Subject Identifier"^^xsd:string . 
:M-CDISC_SDTMMODEL_EVENTS_USUBJID bd:ordinal "3"^^xsd:positiveInteger . 
:M-CDISC_SDTMMODEL_EVENTS_USUBJID bd:basedOnVariable :M-CDISC_SDTMMODEL_EVENTS_USUBJID_CR . 
:M-CDISC_SDTMMODEL_EVENTS_USUBJID_CR rdf:type bo:CReference . 
:M-CDISC_SDTMMODEL_EVENTS_USUBJID_CR bo:hasColumn <http://www.assero.co.uk/MDRModels/CDISC/V1#M-CDISC_SDTMMODEL_USUBJID> . 
:M-CDISC_SDTMMODEL_EVENTS_USUBJID_CR bo:enabled "true"^^xsd:boolean . 
:M-CDISC_SDTMMODEL_EVENTS_USUBJID_CR bo:optional "false"^^xsd:boolean . 
:M-CDISC_SDTMMODEL_EVENTS_USUBJID_CR bo:ordinal "3"^^xsd:positiveInteger . 
:M-CDISC_SDTMMODEL_EVENTS bd:includesColumn :M-CDISC_SDTMMODEL_EVENTS_USUBJID . 
:M-CDISC_SDTMMODEL_EVENTS_xxSEQ rdf:type bd:ClassVariable . 
:M-CDISC_SDTMMODEL_EVENTS_xxSEQ rdfs:label "Sequence Number"^^xsd:string . 
:M-CDISC_SDTMMODEL_EVENTS_xxSEQ bd:ordinal "4"^^xsd:positiveInteger . 
:M-CDISC_SDTMMODEL_EVENTS_xxSEQ bd:basedOnVariable :M-CDISC_SDTMMODEL_EVENTS_xxSEQ_CR . 
:M-CDISC_SDTMMODEL_EVENTS_xxSEQ_CR rdf:type bo:CReference . 
:M-CDISC_SDTMMODEL_EVENTS_xxSEQ_CR bo:hasColumn <http://www.assero.co.uk/MDRModels/CDISC/V1#M-CDISC_SDTMMODEL_xxSEQ> . 
:M-CDISC_SDTMMODEL_EVENTS_xxSEQ_CR bo:enabled "true"^^xsd:boolean . 
:M-CDISC_SDTMMODEL_EVENTS_xxSEQ_CR bo:optional "false"^^xsd:boolean . 
:M-CDISC_SDTMMODEL_EVENTS_xxSEQ_CR bo:ordinal "4"^^xsd:positiveInteger . 
:M-CDISC_SDTMMODEL_EVENTS bd:includesColumn :M-CDISC_SDTMMODEL_EVENTS_xxSEQ . 
:M-CDISC_SDTMMODEL_EVENTS_xxGRPID rdf:type bd:ClassVariable . 
:M-CDISC_SDTMMODEL_EVENTS_xxGRPID rdfs:label "Group ID"^^xsd:string . 
:M-CDISC_SDTMMODEL_EVENTS_xxGRPID bd:ordinal "5"^^xsd:positiveInteger . 
:M-CDISC_SDTMMODEL_EVENTS_xxGRPID bd:basedOnVariable :M-CDISC_SDTMMODEL_EVENTS_xxGRPID_CR . 
:M-CDISC_SDTMMODEL_EVENTS_xxGRPID_CR rdf:type bo:CReference . 
:M-CDISC_SDTMMODEL_EVENTS_xxGRPID_CR bo:hasColumn <http://www.assero.co.uk/MDRModels/CDISC/V1#M-CDISC_SDTMMODEL_xxGRPID> . 
:M-CDISC_SDTMMODEL_EVENTS_xxGRPID_CR bo:enabled "true"^^xsd:boolean . 
:M-CDISC_SDTMMODEL_EVENTS_xxGRPID_CR bo:optional "false"^^xsd:boolean . 
:M-CDISC_SDTMMODEL_EVENTS_xxGRPID_CR bo:ordinal "5"^^xsd:positiveInteger . 
:M-CDISC_SDTMMODEL_EVENTS bd:includesColumn :M-CDISC_SDTMMODEL_EVENTS_xxGRPID . 
:M-CDISC_SDTMMODEL_EVENTS_xxREFID rdf:type bd:ClassVariable . 
:M-CDISC_SDTMMODEL_EVENTS_xxREFID rdfs:label "Reference ID"^^xsd:string . 
:M-CDISC_SDTMMODEL_EVENTS_xxREFID bd:ordinal "6"^^xsd:positiveInteger . 
:M-CDISC_SDTMMODEL_EVENTS_xxREFID bd:basedOnVariable :M-CDISC_SDTMMODEL_EVENTS_xxREFID_CR . 
:M-CDISC_SDTMMODEL_EVENTS_xxREFID_CR rdf:type bo:CReference . 
:M-CDISC_SDTMMODEL_EVENTS_xxREFID_CR bo:hasColumn <http://www.assero.co.uk/MDRModels/CDISC/V1#M-CDISC_SDTMMODEL_xxREFID> . 
:M-CDISC_SDTMMODEL_EVENTS_xxREFID_CR bo:enabled "true"^^xsd:boolean . 
:M-CDISC_SDTMMODEL_EVENTS_xxREFID_CR bo:optional "false"^^xsd:boolean . 
:M-CDISC_SDTMMODEL_EVENTS_xxREFID_CR bo:ordinal "6"^^xsd:positiveInteger . 
:M-CDISC_SDTMMODEL_EVENTS bd:includesColumn :M-CDISC_SDTMMODEL_EVENTS_xxREFID . 
:M-CDISC_SDTMMODEL_EVENTS_xxSPID rdf:type bd:ClassVariable . 
:M-CDISC_SDTMMODEL_EVENTS_xxSPID rdfs:label "Sponsor ID"^^xsd:string . 
:M-CDISC_SDTMMODEL_EVENTS_xxSPID bd:ordinal "7"^^xsd:positiveInteger . 
:M-CDISC_SDTMMODEL_EVENTS_xxSPID bd:basedOnVariable :M-CDISC_SDTMMODEL_EVENTS_xxSPID_CR . 
:M-CDISC_SDTMMODEL_EVENTS_xxSPID_CR rdf:type bo:CReference . 
:M-CDISC_SDTMMODEL_EVENTS_xxSPID_CR bo:hasColumn <http://www.assero.co.uk/MDRModels/CDISC/V1#M-CDISC_SDTMMODEL_xxSPID> . 
:M-CDISC_SDTMMODEL_EVENTS_xxSPID_CR bo:enabled "true"^^xsd:boolean . 
:M-CDISC_SDTMMODEL_EVENTS_xxSPID_CR bo:optional "false"^^xsd:boolean . 
:M-CDISC_SDTMMODEL_EVENTS_xxSPID_CR bo:ordinal "7"^^xsd:positiveInteger . 
:M-CDISC_SDTMMODEL_EVENTS bd:includesColumn :M-CDISC_SDTMMODEL_EVENTS_xxSPID . 
:M-CDISC_SDTMMODEL_EVENTS_xxTERM rdf:type bd:ClassVariable . 
:M-CDISC_SDTMMODEL_EVENTS_xxTERM rdfs:label "Reported Term"^^xsd:string . 
:M-CDISC_SDTMMODEL_EVENTS_xxTERM bd:ordinal "8"^^xsd:positiveInteger . 
:M-CDISC_SDTMMODEL_EVENTS_xxTERM bd:basedOnVariable :M-CDISC_SDTMMODEL_EVENTS_xxTERM_CR . 
:M-CDISC_SDTMMODEL_EVENTS_xxTERM_CR rdf:type bo:CReference . 
:M-CDISC_SDTMMODEL_EVENTS_xxTERM_CR bo:hasColumn <http://www.assero.co.uk/MDRModels/CDISC/V1#M-CDISC_SDTMMODEL_xxTERM> . 
:M-CDISC_SDTMMODEL_EVENTS_xxTERM_CR bo:enabled "true"^^xsd:boolean . 
:M-CDISC_SDTMMODEL_EVENTS_xxTERM_CR bo:optional "false"^^xsd:boolean . 
:M-CDISC_SDTMMODEL_EVENTS_xxTERM_CR bo:ordinal "8"^^xsd:positiveInteger . 
:M-CDISC_SDTMMODEL_EVENTS bd:includesColumn :M-CDISC_SDTMMODEL_EVENTS_xxTERM . 
:M-CDISC_SDTMMODEL_EVENTS_xxMODIFY rdf:type bd:ClassVariable . 
:M-CDISC_SDTMMODEL_EVENTS_xxMODIFY rdfs:label "Modified Reported Term"^^xsd:string . 
:M-CDISC_SDTMMODEL_EVENTS_xxMODIFY bd:ordinal "9"^^xsd:positiveInteger . 
:M-CDISC_SDTMMODEL_EVENTS_xxMODIFY bd:basedOnVariable :M-CDISC_SDTMMODEL_EVENTS_xxMODIFY_CR . 
:M-CDISC_SDTMMODEL_EVENTS_xxMODIFY_CR rdf:type bo:CReference . 
:M-CDISC_SDTMMODEL_EVENTS_xxMODIFY_CR bo:hasColumn <http://www.assero.co.uk/MDRModels/CDISC/V1#M-CDISC_SDTMMODEL_xxMODIFY> . 
:M-CDISC_SDTMMODEL_EVENTS_xxMODIFY_CR bo:enabled "true"^^xsd:boolean . 
:M-CDISC_SDTMMODEL_EVENTS_xxMODIFY_CR bo:optional "false"^^xsd:boolean . 
:M-CDISC_SDTMMODEL_EVENTS_xxMODIFY_CR bo:ordinal "9"^^xsd:positiveInteger . 
:M-CDISC_SDTMMODEL_EVENTS bd:includesColumn :M-CDISC_SDTMMODEL_EVENTS_xxMODIFY . 
:M-CDISC_SDTMMODEL_EVENTS_xxDECOD rdf:type bd:ClassVariable . 
:M-CDISC_SDTMMODEL_EVENTS_xxDECOD rdfs:label "Dictionary-Derived Term"^^xsd:string . 
:M-CDISC_SDTMMODEL_EVENTS_xxDECOD bd:ordinal "10"^^xsd:positiveInteger . 
:M-CDISC_SDTMMODEL_EVENTS_xxDECOD bd:basedOnVariable :M-CDISC_SDTMMODEL_EVENTS_xxDECOD_CR . 
:M-CDISC_SDTMMODEL_EVENTS_xxDECOD_CR rdf:type bo:CReference . 
:M-CDISC_SDTMMODEL_EVENTS_xxDECOD_CR bo:hasColumn <http://www.assero.co.uk/MDRModels/CDISC/V1#M-CDISC_SDTMMODEL_xxDECOD> . 
:M-CDISC_SDTMMODEL_EVENTS_xxDECOD_CR bo:enabled "true"^^xsd:boolean . 
:M-CDISC_SDTMMODEL_EVENTS_xxDECOD_CR bo:optional "false"^^xsd:boolean . 
:M-CDISC_SDTMMODEL_EVENTS_xxDECOD_CR bo:ordinal "10"^^xsd:positiveInteger . 
:M-CDISC_SDTMMODEL_EVENTS bd:includesColumn :M-CDISC_SDTMMODEL_EVENTS_xxDECOD . 
:M-CDISC_SDTMMODEL_EVENTS_xxCAT rdf:type bd:ClassVariable . 
:M-CDISC_SDTMMODEL_EVENTS_xxCAT rdfs:label "Category"^^xsd:string . 
:M-CDISC_SDTMMODEL_EVENTS_xxCAT bd:ordinal "11"^^xsd:positiveInteger . 
:M-CDISC_SDTMMODEL_EVENTS_xxCAT bd:basedOnVariable :M-CDISC_SDTMMODEL_EVENTS_xxCAT_CR . 
:M-CDISC_SDTMMODEL_EVENTS_xxCAT_CR rdf:type bo:CReference . 
:M-CDISC_SDTMMODEL_EVENTS_xxCAT_CR bo:hasColumn <http://www.assero.co.uk/MDRModels/CDISC/V1#M-CDISC_SDTMMODEL_xxCAT> . 
:M-CDISC_SDTMMODEL_EVENTS_xxCAT_CR bo:enabled "true"^^xsd:boolean . 
:M-CDISC_SDTMMODEL_EVENTS_xxCAT_CR bo:optional "false"^^xsd:boolean . 
:M-CDISC_SDTMMODEL_EVENTS_xxCAT_CR bo:ordinal "11"^^xsd:positiveInteger . 
:M-CDISC_SDTMMODEL_EVENTS bd:includesColumn :M-CDISC_SDTMMODEL_EVENTS_xxCAT . 
:M-CDISC_SDTMMODEL_EVENTS_xxSCAT rdf:type bd:ClassVariable . 
:M-CDISC_SDTMMODEL_EVENTS_xxSCAT rdfs:label "Subcategory"^^xsd:string . 
:M-CDISC_SDTMMODEL_EVENTS_xxSCAT bd:ordinal "12"^^xsd:positiveInteger . 
:M-CDISC_SDTMMODEL_EVENTS_xxSCAT bd:basedOnVariable :M-CDISC_SDTMMODEL_EVENTS_xxSCAT_CR . 
:M-CDISC_SDTMMODEL_EVENTS_xxSCAT_CR rdf:type bo:CReference . 
:M-CDISC_SDTMMODEL_EVENTS_xxSCAT_CR bo:hasColumn <http://www.assero.co.uk/MDRModels/CDISC/V1#M-CDISC_SDTMMODEL_xxSCAT> . 
:M-CDISC_SDTMMODEL_EVENTS_xxSCAT_CR bo:enabled "true"^^xsd:boolean . 
:M-CDISC_SDTMMODEL_EVENTS_xxSCAT_CR bo:optional "false"^^xsd:boolean . 
:M-CDISC_SDTMMODEL_EVENTS_xxSCAT_CR bo:ordinal "12"^^xsd:positiveInteger . 
:M-CDISC_SDTMMODEL_EVENTS bd:includesColumn :M-CDISC_SDTMMODEL_EVENTS_xxSCAT . 
:M-CDISC_SDTMMODEL_EVENTS_xxPRESP rdf:type bd:ClassVariable . 
:M-CDISC_SDTMMODEL_EVENTS_xxPRESP rdfs:label "Pre-specified"^^xsd:string . 
:M-CDISC_SDTMMODEL_EVENTS_xxPRESP bd:ordinal "13"^^xsd:positiveInteger . 
:M-CDISC_SDTMMODEL_EVENTS_xxPRESP bd:basedOnVariable :M-CDISC_SDTMMODEL_EVENTS_xxPRESP_CR . 
:M-CDISC_SDTMMODEL_EVENTS_xxPRESP_CR rdf:type bo:CReference . 
:M-CDISC_SDTMMODEL_EVENTS_xxPRESP_CR bo:hasColumn <http://www.assero.co.uk/MDRModels/CDISC/V1#M-CDISC_SDTMMODEL_xxPRESP> . 
:M-CDISC_SDTMMODEL_EVENTS_xxPRESP_CR bo:enabled "true"^^xsd:boolean . 
:M-CDISC_SDTMMODEL_EVENTS_xxPRESP_CR bo:optional "false"^^xsd:boolean . 
:M-CDISC_SDTMMODEL_EVENTS_xxPRESP_CR bo:ordinal "13"^^xsd:positiveInteger . 
:M-CDISC_SDTMMODEL_EVENTS bd:includesColumn :M-CDISC_SDTMMODEL_EVENTS_xxPRESP . 
:M-CDISC_SDTMMODEL_EVENTS_xxOCCUR rdf:type bd:ClassVariable . 
:M-CDISC_SDTMMODEL_EVENTS_xxOCCUR rdfs:label "Occurrence"^^xsd:string . 
:M-CDISC_SDTMMODEL_EVENTS_xxOCCUR bd:ordinal "14"^^xsd:positiveInteger . 
:M-CDISC_SDTMMODEL_EVENTS_xxOCCUR bd:basedOnVariable :M-CDISC_SDTMMODEL_EVENTS_xxOCCUR_CR . 
:M-CDISC_SDTMMODEL_EVENTS_xxOCCUR_CR rdf:type bo:CReference . 
:M-CDISC_SDTMMODEL_EVENTS_xxOCCUR_CR bo:hasColumn <http://www.assero.co.uk/MDRModels/CDISC/V1#M-CDISC_SDTMMODEL_xxOCCUR> . 
:M-CDISC_SDTMMODEL_EVENTS_xxOCCUR_CR bo:enabled "true"^^xsd:boolean . 
:M-CDISC_SDTMMODEL_EVENTS_xxOCCUR_CR bo:optional "false"^^xsd:boolean . 
:M-CDISC_SDTMMODEL_EVENTS_xxOCCUR_CR bo:ordinal "14"^^xsd:positiveInteger . 
:M-CDISC_SDTMMODEL_EVENTS bd:includesColumn :M-CDISC_SDTMMODEL_EVENTS_xxOCCUR . 
:M-CDISC_SDTMMODEL_EVENTS_xxSTAT rdf:type bd:ClassVariable . 
:M-CDISC_SDTMMODEL_EVENTS_xxSTAT rdfs:label "Completion Status"^^xsd:string . 
:M-CDISC_SDTMMODEL_EVENTS_xxSTAT bd:ordinal "15"^^xsd:positiveInteger . 
:M-CDISC_SDTMMODEL_EVENTS_xxSTAT bd:basedOnVariable :M-CDISC_SDTMMODEL_EVENTS_xxSTAT_CR . 
:M-CDISC_SDTMMODEL_EVENTS_xxSTAT_CR rdf:type bo:CReference . 
:M-CDISC_SDTMMODEL_EVENTS_xxSTAT_CR bo:hasColumn <http://www.assero.co.uk/MDRModels/CDISC/V1#M-CDISC_SDTMMODEL_xxSTAT> . 
:M-CDISC_SDTMMODEL_EVENTS_xxSTAT_CR bo:enabled "true"^^xsd:boolean . 
:M-CDISC_SDTMMODEL_EVENTS_xxSTAT_CR bo:optional "false"^^xsd:boolean . 
:M-CDISC_SDTMMODEL_EVENTS_xxSTAT_CR bo:ordinal "15"^^xsd:positiveInteger . 
:M-CDISC_SDTMMODEL_EVENTS bd:includesColumn :M-CDISC_SDTMMODEL_EVENTS_xxSTAT . 
:M-CDISC_SDTMMODEL_EVENTS_xxREASND rdf:type bd:ClassVariable . 
:M-CDISC_SDTMMODEL_EVENTS_xxREASND rdfs:label "Reason Not Done"^^xsd:string . 
:M-CDISC_SDTMMODEL_EVENTS_xxREASND bd:ordinal "16"^^xsd:positiveInteger . 
:M-CDISC_SDTMMODEL_EVENTS_xxREASND bd:basedOnVariable :M-CDISC_SDTMMODEL_EVENTS_xxREASND_CR . 
:M-CDISC_SDTMMODEL_EVENTS_xxREASND_CR rdf:type bo:CReference . 
:M-CDISC_SDTMMODEL_EVENTS_xxREASND_CR bo:hasColumn <http://www.assero.co.uk/MDRModels/CDISC/V1#M-CDISC_SDTMMODEL_xxREASND> . 
:M-CDISC_SDTMMODEL_EVENTS_xxREASND_CR bo:enabled "true"^^xsd:boolean . 
:M-CDISC_SDTMMODEL_EVENTS_xxREASND_CR bo:optional "false"^^xsd:boolean . 
:M-CDISC_SDTMMODEL_EVENTS_xxREASND_CR bo:ordinal "16"^^xsd:positiveInteger . 
:M-CDISC_SDTMMODEL_EVENTS bd:includesColumn :M-CDISC_SDTMMODEL_EVENTS_xxREASND . 
:M-CDISC_SDTMMODEL_EVENTS_xxBODSYS rdf:type bd:ClassVariable . 
:M-CDISC_SDTMMODEL_EVENTS_xxBODSYS rdfs:label "Body System or Organ Class"^^xsd:string . 
:M-CDISC_SDTMMODEL_EVENTS_xxBODSYS bd:ordinal "17"^^xsd:positiveInteger . 
:M-CDISC_SDTMMODEL_EVENTS_xxBODSYS bd:basedOnVariable :M-CDISC_SDTMMODEL_EVENTS_xxBODSYS_CR . 
:M-CDISC_SDTMMODEL_EVENTS_xxBODSYS_CR rdf:type bo:CReference . 
:M-CDISC_SDTMMODEL_EVENTS_xxBODSYS_CR bo:hasColumn <http://www.assero.co.uk/MDRModels/CDISC/V1#M-CDISC_SDTMMODEL_xxBODSYS> . 
:M-CDISC_SDTMMODEL_EVENTS_xxBODSYS_CR bo:enabled "true"^^xsd:boolean . 
:M-CDISC_SDTMMODEL_EVENTS_xxBODSYS_CR bo:optional "false"^^xsd:boolean . 
:M-CDISC_SDTMMODEL_EVENTS_xxBODSYS_CR bo:ordinal "17"^^xsd:positiveInteger . 
:M-CDISC_SDTMMODEL_EVENTS bd:includesColumn :M-CDISC_SDTMMODEL_EVENTS_xxBODSYS . 
:M-CDISC_SDTMMODEL_EVENTS_xxLOC rdf:type bd:ClassVariable . 
:M-CDISC_SDTMMODEL_EVENTS_xxLOC rdfs:label "Location of Event"^^xsd:string . 
:M-CDISC_SDTMMODEL_EVENTS_xxLOC bd:ordinal "18"^^xsd:positiveInteger . 
:M-CDISC_SDTMMODEL_EVENTS_xxLOC bd:basedOnVariable :M-CDISC_SDTMMODEL_EVENTS_xxLOC_CR . 
:M-CDISC_SDTMMODEL_EVENTS_xxLOC_CR rdf:type bo:CReference . 
:M-CDISC_SDTMMODEL_EVENTS_xxLOC_CR bo:hasColumn <http://www.assero.co.uk/MDRModels/CDISC/V1#M-CDISC_SDTMMODEL_xxLOC> . 
:M-CDISC_SDTMMODEL_EVENTS_xxLOC_CR bo:enabled "true"^^xsd:boolean . 
:M-CDISC_SDTMMODEL_EVENTS_xxLOC_CR bo:optional "false"^^xsd:boolean . 
:M-CDISC_SDTMMODEL_EVENTS_xxLOC_CR bo:ordinal "18"^^xsd:positiveInteger . 
:M-CDISC_SDTMMODEL_EVENTS bd:includesColumn :M-CDISC_SDTMMODEL_EVENTS_xxLOC . 
:M-CDISC_SDTMMODEL_EVENTS_xxSEV rdf:type bd:ClassVariable . 
:M-CDISC_SDTMMODEL_EVENTS_xxSEV rdfs:label "Severity/Intensity"^^xsd:string . 
:M-CDISC_SDTMMODEL_EVENTS_xxSEV bd:ordinal "19"^^xsd:positiveInteger . 
:M-CDISC_SDTMMODEL_EVENTS_xxSEV bd:basedOnVariable :M-CDISC_SDTMMODEL_EVENTS_xxSEV_CR . 
:M-CDISC_SDTMMODEL_EVENTS_xxSEV_CR rdf:type bo:CReference . 
:M-CDISC_SDTMMODEL_EVENTS_xxSEV_CR bo:hasColumn <http://www.assero.co.uk/MDRModels/CDISC/V1#M-CDISC_SDTMMODEL_xxSEV> . 
:M-CDISC_SDTMMODEL_EVENTS_xxSEV_CR bo:enabled "true"^^xsd:boolean . 
:M-CDISC_SDTMMODEL_EVENTS_xxSEV_CR bo:optional "false"^^xsd:boolean . 
:M-CDISC_SDTMMODEL_EVENTS_xxSEV_CR bo:ordinal "19"^^xsd:positiveInteger . 
:M-CDISC_SDTMMODEL_EVENTS bd:includesColumn :M-CDISC_SDTMMODEL_EVENTS_xxSEV . 
:M-CDISC_SDTMMODEL_EVENTS_xxSER rdf:type bd:ClassVariable . 
:M-CDISC_SDTMMODEL_EVENTS_xxSER rdfs:label "Serious Event"^^xsd:string . 
:M-CDISC_SDTMMODEL_EVENTS_xxSER bd:ordinal "20"^^xsd:positiveInteger . 
:M-CDISC_SDTMMODEL_EVENTS_xxSER bd:basedOnVariable :M-CDISC_SDTMMODEL_EVENTS_xxSER_CR . 
:M-CDISC_SDTMMODEL_EVENTS_xxSER_CR rdf:type bo:CReference . 
:M-CDISC_SDTMMODEL_EVENTS_xxSER_CR bo:hasColumn <http://www.assero.co.uk/MDRModels/CDISC/V1#M-CDISC_SDTMMODEL_xxSER> . 
:M-CDISC_SDTMMODEL_EVENTS_xxSER_CR bo:enabled "true"^^xsd:boolean . 
:M-CDISC_SDTMMODEL_EVENTS_xxSER_CR bo:optional "false"^^xsd:boolean . 
:M-CDISC_SDTMMODEL_EVENTS_xxSER_CR bo:ordinal "20"^^xsd:positiveInteger . 
:M-CDISC_SDTMMODEL_EVENTS bd:includesColumn :M-CDISC_SDTMMODEL_EVENTS_xxSER . 
:M-CDISC_SDTMMODEL_EVENTS_xxACN rdf:type bd:ClassVariable . 
:M-CDISC_SDTMMODEL_EVENTS_xxACN rdfs:label "Action Taken with Study Treatment"^^xsd:string . 
:M-CDISC_SDTMMODEL_EVENTS_xxACN bd:ordinal "21"^^xsd:positiveInteger . 
:M-CDISC_SDTMMODEL_EVENTS_xxACN bd:basedOnVariable :M-CDISC_SDTMMODEL_EVENTS_xxACN_CR . 
:M-CDISC_SDTMMODEL_EVENTS_xxACN_CR rdf:type bo:CReference . 
:M-CDISC_SDTMMODEL_EVENTS_xxACN_CR bo:hasColumn <http://www.assero.co.uk/MDRModels/CDISC/V1#M-CDISC_SDTMMODEL_xxACN> . 
:M-CDISC_SDTMMODEL_EVENTS_xxACN_CR bo:enabled "true"^^xsd:boolean . 
:M-CDISC_SDTMMODEL_EVENTS_xxACN_CR bo:optional "false"^^xsd:boolean . 
:M-CDISC_SDTMMODEL_EVENTS_xxACN_CR bo:ordinal "21"^^xsd:positiveInteger . 
:M-CDISC_SDTMMODEL_EVENTS bd:includesColumn :M-CDISC_SDTMMODEL_EVENTS_xxACN . 
:M-CDISC_SDTMMODEL_EVENTS_xxACNOTH rdf:type bd:ClassVariable . 
:M-CDISC_SDTMMODEL_EVENTS_xxACNOTH rdfs:label "Other Action Taken"^^xsd:string . 
:M-CDISC_SDTMMODEL_EVENTS_xxACNOTH bd:ordinal "22"^^xsd:positiveInteger . 
:M-CDISC_SDTMMODEL_EVENTS_xxACNOTH bd:basedOnVariable :M-CDISC_SDTMMODEL_EVENTS_xxACNOTH_CR . 
:M-CDISC_SDTMMODEL_EVENTS_xxACNOTH_CR rdf:type bo:CReference . 
:M-CDISC_SDTMMODEL_EVENTS_xxACNOTH_CR bo:hasColumn <http://www.assero.co.uk/MDRModels/CDISC/V1#M-CDISC_SDTMMODEL_xxACNOTH> . 
:M-CDISC_SDTMMODEL_EVENTS_xxACNOTH_CR bo:enabled "true"^^xsd:boolean . 
:M-CDISC_SDTMMODEL_EVENTS_xxACNOTH_CR bo:optional "false"^^xsd:boolean . 
:M-CDISC_SDTMMODEL_EVENTS_xxACNOTH_CR bo:ordinal "22"^^xsd:positiveInteger . 
:M-CDISC_SDTMMODEL_EVENTS bd:includesColumn :M-CDISC_SDTMMODEL_EVENTS_xxACNOTH . 
:M-CDISC_SDTMMODEL_EVENTS_xxREL rdf:type bd:ClassVariable . 
:M-CDISC_SDTMMODEL_EVENTS_xxREL rdfs:label "Causality"^^xsd:string . 
:M-CDISC_SDTMMODEL_EVENTS_xxREL bd:ordinal "23"^^xsd:positiveInteger . 
:M-CDISC_SDTMMODEL_EVENTS_xxREL bd:basedOnVariable :M-CDISC_SDTMMODEL_EVENTS_xxREL_CR . 
:M-CDISC_SDTMMODEL_EVENTS_xxREL_CR rdf:type bo:CReference . 
:M-CDISC_SDTMMODEL_EVENTS_xxREL_CR bo:hasColumn <http://www.assero.co.uk/MDRModels/CDISC/V1#M-CDISC_SDTMMODEL_xxREL> . 
:M-CDISC_SDTMMODEL_EVENTS_xxREL_CR bo:enabled "true"^^xsd:boolean . 
:M-CDISC_SDTMMODEL_EVENTS_xxREL_CR bo:optional "false"^^xsd:boolean . 
:M-CDISC_SDTMMODEL_EVENTS_xxREL_CR bo:ordinal "23"^^xsd:positiveInteger . 
:M-CDISC_SDTMMODEL_EVENTS bd:includesColumn :M-CDISC_SDTMMODEL_EVENTS_xxREL . 
:M-CDISC_SDTMMODEL_EVENTS_xxRELNST rdf:type bd:ClassVariable . 
:M-CDISC_SDTMMODEL_EVENTS_xxRELNST rdfs:label "Relationship to Non-Study Treatment"^^xsd:string . 
:M-CDISC_SDTMMODEL_EVENTS_xxRELNST bd:ordinal "24"^^xsd:positiveInteger . 
:M-CDISC_SDTMMODEL_EVENTS_xxRELNST bd:basedOnVariable :M-CDISC_SDTMMODEL_EVENTS_xxRELNST_CR . 
:M-CDISC_SDTMMODEL_EVENTS_xxRELNST_CR rdf:type bo:CReference . 
:M-CDISC_SDTMMODEL_EVENTS_xxRELNST_CR bo:hasColumn <http://www.assero.co.uk/MDRModels/CDISC/V1#M-CDISC_SDTMMODEL_xxRELNST> . 
:M-CDISC_SDTMMODEL_EVENTS_xxRELNST_CR bo:enabled "true"^^xsd:boolean . 
:M-CDISC_SDTMMODEL_EVENTS_xxRELNST_CR bo:optional "false"^^xsd:boolean . 
:M-CDISC_SDTMMODEL_EVENTS_xxRELNST_CR bo:ordinal "24"^^xsd:positiveInteger . 
:M-CDISC_SDTMMODEL_EVENTS bd:includesColumn :M-CDISC_SDTMMODEL_EVENTS_xxRELNST . 
:M-CDISC_SDTMMODEL_EVENTS_xxPATT rdf:type bd:ClassVariable . 
:M-CDISC_SDTMMODEL_EVENTS_xxPATT rdfs:label "Pattern of Event"^^xsd:string . 
:M-CDISC_SDTMMODEL_EVENTS_xxPATT bd:ordinal "25"^^xsd:positiveInteger . 
:M-CDISC_SDTMMODEL_EVENTS_xxPATT bd:basedOnVariable :M-CDISC_SDTMMODEL_EVENTS_xxPATT_CR . 
:M-CDISC_SDTMMODEL_EVENTS_xxPATT_CR rdf:type bo:CReference . 
:M-CDISC_SDTMMODEL_EVENTS_xxPATT_CR bo:hasColumn <http://www.assero.co.uk/MDRModels/CDISC/V1#M-CDISC_SDTMMODEL_xxPATT> . 
:M-CDISC_SDTMMODEL_EVENTS_xxPATT_CR bo:enabled "true"^^xsd:boolean . 
:M-CDISC_SDTMMODEL_EVENTS_xxPATT_CR bo:optional "false"^^xsd:boolean . 
:M-CDISC_SDTMMODEL_EVENTS_xxPATT_CR bo:ordinal "25"^^xsd:positiveInteger . 
:M-CDISC_SDTMMODEL_EVENTS bd:includesColumn :M-CDISC_SDTMMODEL_EVENTS_xxPATT . 
:M-CDISC_SDTMMODEL_EVENTS_xxOUT rdf:type bd:ClassVariable . 
:M-CDISC_SDTMMODEL_EVENTS_xxOUT rdfs:label "Outcome of Event"^^xsd:string . 
:M-CDISC_SDTMMODEL_EVENTS_xxOUT bd:ordinal "26"^^xsd:positiveInteger . 
:M-CDISC_SDTMMODEL_EVENTS_xxOUT bd:basedOnVariable :M-CDISC_SDTMMODEL_EVENTS_xxOUT_CR . 
:M-CDISC_SDTMMODEL_EVENTS_xxOUT_CR rdf:type bo:CReference . 
:M-CDISC_SDTMMODEL_EVENTS_xxOUT_CR bo:hasColumn <http://www.assero.co.uk/MDRModels/CDISC/V1#M-CDISC_SDTMMODEL_xxOUT> . 
:M-CDISC_SDTMMODEL_EVENTS_xxOUT_CR bo:enabled "true"^^xsd:boolean . 
:M-CDISC_SDTMMODEL_EVENTS_xxOUT_CR bo:optional "false"^^xsd:boolean . 
:M-CDISC_SDTMMODEL_EVENTS_xxOUT_CR bo:ordinal "26"^^xsd:positiveInteger . 
:M-CDISC_SDTMMODEL_EVENTS bd:includesColumn :M-CDISC_SDTMMODEL_EVENTS_xxOUT . 
:M-CDISC_SDTMMODEL_EVENTS_xxSCAN rdf:type bd:ClassVariable . 
:M-CDISC_SDTMMODEL_EVENTS_xxSCAN rdfs:label "Involves Cancer"^^xsd:string . 
:M-CDISC_SDTMMODEL_EVENTS_xxSCAN bd:ordinal "27"^^xsd:positiveInteger . 
:M-CDISC_SDTMMODEL_EVENTS_xxSCAN bd:basedOnVariable :M-CDISC_SDTMMODEL_EVENTS_xxSCAN_CR . 
:M-CDISC_SDTMMODEL_EVENTS_xxSCAN_CR rdf:type bo:CReference . 
:M-CDISC_SDTMMODEL_EVENTS_xxSCAN_CR bo:hasColumn <http://www.assero.co.uk/MDRModels/CDISC/V1#M-CDISC_SDTMMODEL_xxSCAN> . 
:M-CDISC_SDTMMODEL_EVENTS_xxSCAN_CR bo:enabled "true"^^xsd:boolean . 
:M-CDISC_SDTMMODEL_EVENTS_xxSCAN_CR bo:optional "false"^^xsd:boolean . 
:M-CDISC_SDTMMODEL_EVENTS_xxSCAN_CR bo:ordinal "27"^^xsd:positiveInteger . 
:M-CDISC_SDTMMODEL_EVENTS bd:includesColumn :M-CDISC_SDTMMODEL_EVENTS_xxSCAN . 
:M-CDISC_SDTMMODEL_EVENTS_xxSCONG rdf:type bd:ClassVariable . 
:M-CDISC_SDTMMODEL_EVENTS_xxSCONG rdfs:label "Congenital Anomaly or Birth Defect"^^xsd:string . 
:M-CDISC_SDTMMODEL_EVENTS_xxSCONG bd:ordinal "28"^^xsd:positiveInteger . 
:M-CDISC_SDTMMODEL_EVENTS_xxSCONG bd:basedOnVariable :M-CDISC_SDTMMODEL_EVENTS_xxSCONG_CR . 
:M-CDISC_SDTMMODEL_EVENTS_xxSCONG_CR rdf:type bo:CReference . 
:M-CDISC_SDTMMODEL_EVENTS_xxSCONG_CR bo:hasColumn <http://www.assero.co.uk/MDRModels/CDISC/V1#M-CDISC_SDTMMODEL_xxSCONG> . 
:M-CDISC_SDTMMODEL_EVENTS_xxSCONG_CR bo:enabled "true"^^xsd:boolean . 
:M-CDISC_SDTMMODEL_EVENTS_xxSCONG_CR bo:optional "false"^^xsd:boolean . 
:M-CDISC_SDTMMODEL_EVENTS_xxSCONG_CR bo:ordinal "28"^^xsd:positiveInteger . 
:M-CDISC_SDTMMODEL_EVENTS bd:includesColumn :M-CDISC_SDTMMODEL_EVENTS_xxSCONG . 
:M-CDISC_SDTMMODEL_EVENTS_xxSDISAB rdf:type bd:ClassVariable . 
:M-CDISC_SDTMMODEL_EVENTS_xxSDISAB rdfs:label "Persist or Signif Disability/Incapacity"^^xsd:string . 
:M-CDISC_SDTMMODEL_EVENTS_xxSDISAB bd:ordinal "29"^^xsd:positiveInteger . 
:M-CDISC_SDTMMODEL_EVENTS_xxSDISAB bd:basedOnVariable :M-CDISC_SDTMMODEL_EVENTS_xxSDISAB_CR . 
:M-CDISC_SDTMMODEL_EVENTS_xxSDISAB_CR rdf:type bo:CReference . 
:M-CDISC_SDTMMODEL_EVENTS_xxSDISAB_CR bo:hasColumn <http://www.assero.co.uk/MDRModels/CDISC/V1#M-CDISC_SDTMMODEL_xxSDISAB> . 
:M-CDISC_SDTMMODEL_EVENTS_xxSDISAB_CR bo:enabled "true"^^xsd:boolean . 
:M-CDISC_SDTMMODEL_EVENTS_xxSDISAB_CR bo:optional "false"^^xsd:boolean . 
:M-CDISC_SDTMMODEL_EVENTS_xxSDISAB_CR bo:ordinal "29"^^xsd:positiveInteger . 
:M-CDISC_SDTMMODEL_EVENTS bd:includesColumn :M-CDISC_SDTMMODEL_EVENTS_xxSDISAB . 
:M-CDISC_SDTMMODEL_EVENTS_xxSDTH rdf:type bd:ClassVariable . 
:M-CDISC_SDTMMODEL_EVENTS_xxSDTH rdfs:label "Results in Death"^^xsd:string . 
:M-CDISC_SDTMMODEL_EVENTS_xxSDTH bd:ordinal "30"^^xsd:positiveInteger . 
:M-CDISC_SDTMMODEL_EVENTS_xxSDTH bd:basedOnVariable :M-CDISC_SDTMMODEL_EVENTS_xxSDTH_CR . 
:M-CDISC_SDTMMODEL_EVENTS_xxSDTH_CR rdf:type bo:CReference . 
:M-CDISC_SDTMMODEL_EVENTS_xxSDTH_CR bo:hasColumn <http://www.assero.co.uk/MDRModels/CDISC/V1#M-CDISC_SDTMMODEL_xxSDTH> . 
:M-CDISC_SDTMMODEL_EVENTS_xxSDTH_CR bo:enabled "true"^^xsd:boolean . 
:M-CDISC_SDTMMODEL_EVENTS_xxSDTH_CR bo:optional "false"^^xsd:boolean . 
:M-CDISC_SDTMMODEL_EVENTS_xxSDTH_CR bo:ordinal "30"^^xsd:positiveInteger . 
:M-CDISC_SDTMMODEL_EVENTS bd:includesColumn :M-CDISC_SDTMMODEL_EVENTS_xxSDTH . 
:M-CDISC_SDTMMODEL_EVENTS_xxSHOSP rdf:type bd:ClassVariable . 
:M-CDISC_SDTMMODEL_EVENTS_xxSHOSP rdfs:label "Requires or Prolongs Hospitalization"^^xsd:string . 
:M-CDISC_SDTMMODEL_EVENTS_xxSHOSP bd:ordinal "31"^^xsd:positiveInteger . 
:M-CDISC_SDTMMODEL_EVENTS_xxSHOSP bd:basedOnVariable :M-CDISC_SDTMMODEL_EVENTS_xxSHOSP_CR . 
:M-CDISC_SDTMMODEL_EVENTS_xxSHOSP_CR rdf:type bo:CReference . 
:M-CDISC_SDTMMODEL_EVENTS_xxSHOSP_CR bo:hasColumn <http://www.assero.co.uk/MDRModels/CDISC/V1#M-CDISC_SDTMMODEL_xxSHOSP> . 
:M-CDISC_SDTMMODEL_EVENTS_xxSHOSP_CR bo:enabled "true"^^xsd:boolean . 
:M-CDISC_SDTMMODEL_EVENTS_xxSHOSP_CR bo:optional "false"^^xsd:boolean . 
:M-CDISC_SDTMMODEL_EVENTS_xxSHOSP_CR bo:ordinal "31"^^xsd:positiveInteger . 
:M-CDISC_SDTMMODEL_EVENTS bd:includesColumn :M-CDISC_SDTMMODEL_EVENTS_xxSHOSP . 
:M-CDISC_SDTMMODEL_EVENTS_xxSLIFE rdf:type bd:ClassVariable . 
:M-CDISC_SDTMMODEL_EVENTS_xxSLIFE rdfs:label "Is Life Threatening"^^xsd:string . 
:M-CDISC_SDTMMODEL_EVENTS_xxSLIFE bd:ordinal "32"^^xsd:positiveInteger . 
:M-CDISC_SDTMMODEL_EVENTS_xxSLIFE bd:basedOnVariable :M-CDISC_SDTMMODEL_EVENTS_xxSLIFE_CR . 
:M-CDISC_SDTMMODEL_EVENTS_xxSLIFE_CR rdf:type bo:CReference . 
:M-CDISC_SDTMMODEL_EVENTS_xxSLIFE_CR bo:hasColumn <http://www.assero.co.uk/MDRModels/CDISC/V1#M-CDISC_SDTMMODEL_xxSLIFE> . 
:M-CDISC_SDTMMODEL_EVENTS_xxSLIFE_CR bo:enabled "true"^^xsd:boolean . 
:M-CDISC_SDTMMODEL_EVENTS_xxSLIFE_CR bo:optional "false"^^xsd:boolean . 
:M-CDISC_SDTMMODEL_EVENTS_xxSLIFE_CR bo:ordinal "32"^^xsd:positiveInteger . 
:M-CDISC_SDTMMODEL_EVENTS bd:includesColumn :M-CDISC_SDTMMODEL_EVENTS_xxSLIFE . 
:M-CDISC_SDTMMODEL_EVENTS_xxSOD rdf:type bd:ClassVariable . 
:M-CDISC_SDTMMODEL_EVENTS_xxSOD rdfs:label "Occurred with Overdose"^^xsd:string . 
:M-CDISC_SDTMMODEL_EVENTS_xxSOD bd:ordinal "33"^^xsd:positiveInteger . 
:M-CDISC_SDTMMODEL_EVENTS_xxSOD bd:basedOnVariable :M-CDISC_SDTMMODEL_EVENTS_xxSOD_CR . 
:M-CDISC_SDTMMODEL_EVENTS_xxSOD_CR rdf:type bo:CReference . 
:M-CDISC_SDTMMODEL_EVENTS_xxSOD_CR bo:hasColumn <http://www.assero.co.uk/MDRModels/CDISC/V1#M-CDISC_SDTMMODEL_xxSOD> . 
:M-CDISC_SDTMMODEL_EVENTS_xxSOD_CR bo:enabled "true"^^xsd:boolean . 
:M-CDISC_SDTMMODEL_EVENTS_xxSOD_CR bo:optional "false"^^xsd:boolean . 
:M-CDISC_SDTMMODEL_EVENTS_xxSOD_CR bo:ordinal "33"^^xsd:positiveInteger . 
:M-CDISC_SDTMMODEL_EVENTS bd:includesColumn :M-CDISC_SDTMMODEL_EVENTS_xxSOD . 
:M-CDISC_SDTMMODEL_EVENTS_xxSMIE rdf:type bd:ClassVariable . 
:M-CDISC_SDTMMODEL_EVENTS_xxSMIE rdfs:label "Other Medically Important Serious Event"^^xsd:string . 
:M-CDISC_SDTMMODEL_EVENTS_xxSMIE bd:ordinal "34"^^xsd:positiveInteger . 
:M-CDISC_SDTMMODEL_EVENTS_xxSMIE bd:basedOnVariable :M-CDISC_SDTMMODEL_EVENTS_xxSMIE_CR . 
:M-CDISC_SDTMMODEL_EVENTS_xxSMIE_CR rdf:type bo:CReference . 
:M-CDISC_SDTMMODEL_EVENTS_xxSMIE_CR bo:hasColumn <http://www.assero.co.uk/MDRModels/CDISC/V1#M-CDISC_SDTMMODEL_xxSMIE> . 
:M-CDISC_SDTMMODEL_EVENTS_xxSMIE_CR bo:enabled "true"^^xsd:boolean . 
:M-CDISC_SDTMMODEL_EVENTS_xxSMIE_CR bo:optional "false"^^xsd:boolean . 
:M-CDISC_SDTMMODEL_EVENTS_xxSMIE_CR bo:ordinal "34"^^xsd:positiveInteger . 
:M-CDISC_SDTMMODEL_EVENTS bd:includesColumn :M-CDISC_SDTMMODEL_EVENTS_xxSMIE . 
:M-CDISC_SDTMMODEL_EVENTS_xxCONTRT rdf:type bd:ClassVariable . 
:M-CDISC_SDTMMODEL_EVENTS_xxCONTRT rdfs:label "Concomitant or Additional Trtmnt Given"^^xsd:string . 
:M-CDISC_SDTMMODEL_EVENTS_xxCONTRT bd:ordinal "35"^^xsd:positiveInteger . 
:M-CDISC_SDTMMODEL_EVENTS_xxCONTRT bd:basedOnVariable :M-CDISC_SDTMMODEL_EVENTS_xxCONTRT_CR . 
:M-CDISC_SDTMMODEL_EVENTS_xxCONTRT_CR rdf:type bo:CReference . 
:M-CDISC_SDTMMODEL_EVENTS_xxCONTRT_CR bo:hasColumn <http://www.assero.co.uk/MDRModels/CDISC/V1#M-CDISC_SDTMMODEL_xxCONTRT> . 
:M-CDISC_SDTMMODEL_EVENTS_xxCONTRT_CR bo:enabled "true"^^xsd:boolean . 
:M-CDISC_SDTMMODEL_EVENTS_xxCONTRT_CR bo:optional "false"^^xsd:boolean . 
:M-CDISC_SDTMMODEL_EVENTS_xxCONTRT_CR bo:ordinal "35"^^xsd:positiveInteger . 
:M-CDISC_SDTMMODEL_EVENTS bd:includesColumn :M-CDISC_SDTMMODEL_EVENTS_xxCONTRT . 
:M-CDISC_SDTMMODEL_EVENTS_xxTOX rdf:type bd:ClassVariable . 
:M-CDISC_SDTMMODEL_EVENTS_xxTOX rdfs:label "Toxicity"^^xsd:string . 
:M-CDISC_SDTMMODEL_EVENTS_xxTOX bd:ordinal "36"^^xsd:positiveInteger . 
:M-CDISC_SDTMMODEL_EVENTS_xxTOX bd:basedOnVariable :M-CDISC_SDTMMODEL_EVENTS_xxTOX_CR . 
:M-CDISC_SDTMMODEL_EVENTS_xxTOX_CR rdf:type bo:CReference . 
:M-CDISC_SDTMMODEL_EVENTS_xxTOX_CR bo:hasColumn <http://www.assero.co.uk/MDRModels/CDISC/V1#M-CDISC_SDTMMODEL_xxTOX> . 
:M-CDISC_SDTMMODEL_EVENTS_xxTOX_CR bo:enabled "true"^^xsd:boolean . 
:M-CDISC_SDTMMODEL_EVENTS_xxTOX_CR bo:optional "false"^^xsd:boolean . 
:M-CDISC_SDTMMODEL_EVENTS_xxTOX_CR bo:ordinal "36"^^xsd:positiveInteger . 
:M-CDISC_SDTMMODEL_EVENTS bd:includesColumn :M-CDISC_SDTMMODEL_EVENTS_xxTOX . 
:M-CDISC_SDTMMODEL_EVENTS_xxTOXGR rdf:type bd:ClassVariable . 
:M-CDISC_SDTMMODEL_EVENTS_xxTOXGR rdfs:label "Toxicity Grade"^^xsd:string . 
:M-CDISC_SDTMMODEL_EVENTS_xxTOXGR bd:ordinal "37"^^xsd:positiveInteger . 
:M-CDISC_SDTMMODEL_EVENTS_xxTOXGR bd:basedOnVariable :M-CDISC_SDTMMODEL_EVENTS_xxTOXGR_CR . 
:M-CDISC_SDTMMODEL_EVENTS_xxTOXGR_CR rdf:type bo:CReference . 
:M-CDISC_SDTMMODEL_EVENTS_xxTOXGR_CR bo:hasColumn <http://www.assero.co.uk/MDRModels/CDISC/V1#M-CDISC_SDTMMODEL_xxTOXGR> . 
:M-CDISC_SDTMMODEL_EVENTS_xxTOXGR_CR bo:enabled "true"^^xsd:boolean . 
:M-CDISC_SDTMMODEL_EVENTS_xxTOXGR_CR bo:optional "false"^^xsd:boolean . 
:M-CDISC_SDTMMODEL_EVENTS_xxTOXGR_CR bo:ordinal "37"^^xsd:positiveInteger . 
:M-CDISC_SDTMMODEL_EVENTS bd:includesColumn :M-CDISC_SDTMMODEL_EVENTS_xxTOXGR . 
:M-CDISC_SDTMMODEL_EVENTS_VISITNUM rdf:type bd:ClassVariable . 
:M-CDISC_SDTMMODEL_EVENTS_VISITNUM rdfs:label "Visit Number"^^xsd:string . 
:M-CDISC_SDTMMODEL_EVENTS_VISITNUM bd:ordinal "38"^^xsd:positiveInteger . 
:M-CDISC_SDTMMODEL_EVENTS_VISITNUM bd:basedOnVariable :M-CDISC_SDTMMODEL_EVENTS_VISITNUM_CR . 
:M-CDISC_SDTMMODEL_EVENTS_VISITNUM_CR rdf:type bo:CReference . 
:M-CDISC_SDTMMODEL_EVENTS_VISITNUM_CR bo:hasColumn <http://www.assero.co.uk/MDRModels/CDISC/V1#M-CDISC_SDTMMODEL_VISITNUM> . 
:M-CDISC_SDTMMODEL_EVENTS_VISITNUM_CR bo:enabled "true"^^xsd:boolean . 
:M-CDISC_SDTMMODEL_EVENTS_VISITNUM_CR bo:optional "false"^^xsd:boolean . 
:M-CDISC_SDTMMODEL_EVENTS_VISITNUM_CR bo:ordinal "38"^^xsd:positiveInteger . 
:M-CDISC_SDTMMODEL_EVENTS bd:includesColumn :M-CDISC_SDTMMODEL_EVENTS_VISITNUM . 
:M-CDISC_SDTMMODEL_EVENTS_VISIT rdf:type bd:ClassVariable . 
:M-CDISC_SDTMMODEL_EVENTS_VISIT rdfs:label "Visit Name"^^xsd:string . 
:M-CDISC_SDTMMODEL_EVENTS_VISIT bd:ordinal "39"^^xsd:positiveInteger . 
:M-CDISC_SDTMMODEL_EVENTS_VISIT bd:basedOnVariable :M-CDISC_SDTMMODEL_EVENTS_VISIT_CR . 
:M-CDISC_SDTMMODEL_EVENTS_VISIT_CR rdf:type bo:CReference . 
:M-CDISC_SDTMMODEL_EVENTS_VISIT_CR bo:hasColumn <http://www.assero.co.uk/MDRModels/CDISC/V1#M-CDISC_SDTMMODEL_VISIT> . 
:M-CDISC_SDTMMODEL_EVENTS_VISIT_CR bo:enabled "true"^^xsd:boolean . 
:M-CDISC_SDTMMODEL_EVENTS_VISIT_CR bo:optional "false"^^xsd:boolean . 
:M-CDISC_SDTMMODEL_EVENTS_VISIT_CR bo:ordinal "39"^^xsd:positiveInteger . 
:M-CDISC_SDTMMODEL_EVENTS bd:includesColumn :M-CDISC_SDTMMODEL_EVENTS_VISIT . 
:M-CDISC_SDTMMODEL_EVENTS_VISITDY rdf:type bd:ClassVariable . 
:M-CDISC_SDTMMODEL_EVENTS_VISITDY rdfs:label "Planned Study Day of Visit"^^xsd:string . 
:M-CDISC_SDTMMODEL_EVENTS_VISITDY bd:ordinal "40"^^xsd:positiveInteger . 
:M-CDISC_SDTMMODEL_EVENTS_VISITDY bd:basedOnVariable :M-CDISC_SDTMMODEL_EVENTS_VISITDY_CR . 
:M-CDISC_SDTMMODEL_EVENTS_VISITDY_CR rdf:type bo:CReference . 
:M-CDISC_SDTMMODEL_EVENTS_VISITDY_CR bo:hasColumn <http://www.assero.co.uk/MDRModels/CDISC/V1#M-CDISC_SDTMMODEL_VISITDY> . 
:M-CDISC_SDTMMODEL_EVENTS_VISITDY_CR bo:enabled "true"^^xsd:boolean . 
:M-CDISC_SDTMMODEL_EVENTS_VISITDY_CR bo:optional "false"^^xsd:boolean . 
:M-CDISC_SDTMMODEL_EVENTS_VISITDY_CR bo:ordinal "40"^^xsd:positiveInteger . 
:M-CDISC_SDTMMODEL_EVENTS bd:includesColumn :M-CDISC_SDTMMODEL_EVENTS_VISITDY . 
:M-CDISC_SDTMMODEL_EVENTS_TAETORD rdf:type bd:ClassVariable . 
:M-CDISC_SDTMMODEL_EVENTS_TAETORD rdfs:label "Planned Order of Elements within Arm"^^xsd:string . 
:M-CDISC_SDTMMODEL_EVENTS_TAETORD bd:ordinal "41"^^xsd:positiveInteger . 
:M-CDISC_SDTMMODEL_EVENTS_TAETORD bd:basedOnVariable :M-CDISC_SDTMMODEL_EVENTS_TAETORD_CR . 
:M-CDISC_SDTMMODEL_EVENTS_TAETORD_CR rdf:type bo:CReference . 
:M-CDISC_SDTMMODEL_EVENTS_TAETORD_CR bo:hasColumn <http://www.assero.co.uk/MDRModels/CDISC/V1#M-CDISC_SDTMMODEL_TAETORD> . 
:M-CDISC_SDTMMODEL_EVENTS_TAETORD_CR bo:enabled "true"^^xsd:boolean . 
:M-CDISC_SDTMMODEL_EVENTS_TAETORD_CR bo:optional "false"^^xsd:boolean . 
:M-CDISC_SDTMMODEL_EVENTS_TAETORD_CR bo:ordinal "41"^^xsd:positiveInteger . 
:M-CDISC_SDTMMODEL_EVENTS bd:includesColumn :M-CDISC_SDTMMODEL_EVENTS_TAETORD . 
:M-CDISC_SDTMMODEL_EVENTS_EPOCH rdf:type bd:ClassVariable . 
:M-CDISC_SDTMMODEL_EVENTS_EPOCH rdfs:label "Epoch"^^xsd:string . 
:M-CDISC_SDTMMODEL_EVENTS_EPOCH bd:ordinal "42"^^xsd:positiveInteger . 
:M-CDISC_SDTMMODEL_EVENTS_EPOCH bd:basedOnVariable :M-CDISC_SDTMMODEL_EVENTS_EPOCH_CR . 
:M-CDISC_SDTMMODEL_EVENTS_EPOCH_CR rdf:type bo:CReference . 
:M-CDISC_SDTMMODEL_EVENTS_EPOCH_CR bo:hasColumn <http://www.assero.co.uk/MDRModels/CDISC/V1#M-CDISC_SDTMMODEL_EPOCH> . 
:M-CDISC_SDTMMODEL_EVENTS_EPOCH_CR bo:enabled "true"^^xsd:boolean . 
:M-CDISC_SDTMMODEL_EVENTS_EPOCH_CR bo:optional "false"^^xsd:boolean . 
:M-CDISC_SDTMMODEL_EVENTS_EPOCH_CR bo:ordinal "42"^^xsd:positiveInteger . 
:M-CDISC_SDTMMODEL_EVENTS bd:includesColumn :M-CDISC_SDTMMODEL_EVENTS_EPOCH . 
:M-CDISC_SDTMMODEL_EVENTS_xxDTC rdf:type bd:ClassVariable . 
:M-CDISC_SDTMMODEL_EVENTS_xxDTC rdfs:label "Date/Time of Collection"^^xsd:string . 
:M-CDISC_SDTMMODEL_EVENTS_xxDTC bd:ordinal "43"^^xsd:positiveInteger . 
:M-CDISC_SDTMMODEL_EVENTS_xxDTC bd:basedOnVariable :M-CDISC_SDTMMODEL_EVENTS_xxDTC_CR . 
:M-CDISC_SDTMMODEL_EVENTS_xxDTC_CR rdf:type bo:CReference . 
:M-CDISC_SDTMMODEL_EVENTS_xxDTC_CR bo:hasColumn <http://www.assero.co.uk/MDRModels/CDISC/V1#M-CDISC_SDTMMODEL_xxDTC> . 
:M-CDISC_SDTMMODEL_EVENTS_xxDTC_CR bo:enabled "true"^^xsd:boolean . 
:M-CDISC_SDTMMODEL_EVENTS_xxDTC_CR bo:optional "false"^^xsd:boolean . 
:M-CDISC_SDTMMODEL_EVENTS_xxDTC_CR bo:ordinal "43"^^xsd:positiveInteger . 
:M-CDISC_SDTMMODEL_EVENTS bd:includesColumn :M-CDISC_SDTMMODEL_EVENTS_xxDTC . 
:M-CDISC_SDTMMODEL_EVENTS_xxSTDTC rdf:type bd:ClassVariable . 
:M-CDISC_SDTMMODEL_EVENTS_xxSTDTC rdfs:label "Start Date/Time of Observation"^^xsd:string . 
:M-CDISC_SDTMMODEL_EVENTS_xxSTDTC bd:ordinal "44"^^xsd:positiveInteger . 
:M-CDISC_SDTMMODEL_EVENTS_xxSTDTC bd:basedOnVariable :M-CDISC_SDTMMODEL_EVENTS_xxSTDTC_CR . 
:M-CDISC_SDTMMODEL_EVENTS_xxSTDTC_CR rdf:type bo:CReference . 
:M-CDISC_SDTMMODEL_EVENTS_xxSTDTC_CR bo:hasColumn <http://www.assero.co.uk/MDRModels/CDISC/V1#M-CDISC_SDTMMODEL_xxSTDTC> . 
:M-CDISC_SDTMMODEL_EVENTS_xxSTDTC_CR bo:enabled "true"^^xsd:boolean . 
:M-CDISC_SDTMMODEL_EVENTS_xxSTDTC_CR bo:optional "false"^^xsd:boolean . 
:M-CDISC_SDTMMODEL_EVENTS_xxSTDTC_CR bo:ordinal "44"^^xsd:positiveInteger . 
:M-CDISC_SDTMMODEL_EVENTS bd:includesColumn :M-CDISC_SDTMMODEL_EVENTS_xxSTDTC . 
:M-CDISC_SDTMMODEL_EVENTS_xxENDTC rdf:type bd:ClassVariable . 
:M-CDISC_SDTMMODEL_EVENTS_xxENDTC rdfs:label "End Date/Time of Observation"^^xsd:string . 
:M-CDISC_SDTMMODEL_EVENTS_xxENDTC bd:ordinal "45"^^xsd:positiveInteger . 
:M-CDISC_SDTMMODEL_EVENTS_xxENDTC bd:basedOnVariable :M-CDISC_SDTMMODEL_EVENTS_xxENDTC_CR . 
:M-CDISC_SDTMMODEL_EVENTS_xxENDTC_CR rdf:type bo:CReference . 
:M-CDISC_SDTMMODEL_EVENTS_xxENDTC_CR bo:hasColumn <http://www.assero.co.uk/MDRModels/CDISC/V1#M-CDISC_SDTMMODEL_xxENDTC> . 
:M-CDISC_SDTMMODEL_EVENTS_xxENDTC_CR bo:enabled "true"^^xsd:boolean . 
:M-CDISC_SDTMMODEL_EVENTS_xxENDTC_CR bo:optional "false"^^xsd:boolean . 
:M-CDISC_SDTMMODEL_EVENTS_xxENDTC_CR bo:ordinal "45"^^xsd:positiveInteger . 
:M-CDISC_SDTMMODEL_EVENTS bd:includesColumn :M-CDISC_SDTMMODEL_EVENTS_xxENDTC . 
:M-CDISC_SDTMMODEL_EVENTS_xxDY rdf:type bd:ClassVariable . 
:M-CDISC_SDTMMODEL_EVENTS_xxDY rdfs:label "Study Day of Visit/Collection/Exam"^^xsd:string . 
:M-CDISC_SDTMMODEL_EVENTS_xxDY bd:ordinal "46"^^xsd:positiveInteger . 
:M-CDISC_SDTMMODEL_EVENTS_xxDY bd:basedOnVariable :M-CDISC_SDTMMODEL_EVENTS_xxDY_CR . 
:M-CDISC_SDTMMODEL_EVENTS_xxDY_CR rdf:type bo:CReference . 
:M-CDISC_SDTMMODEL_EVENTS_xxDY_CR bo:hasColumn <http://www.assero.co.uk/MDRModels/CDISC/V1#M-CDISC_SDTMMODEL_xxDY> . 
:M-CDISC_SDTMMODEL_EVENTS_xxDY_CR bo:enabled "true"^^xsd:boolean . 
:M-CDISC_SDTMMODEL_EVENTS_xxDY_CR bo:optional "false"^^xsd:boolean . 
:M-CDISC_SDTMMODEL_EVENTS_xxDY_CR bo:ordinal "46"^^xsd:positiveInteger . 
:M-CDISC_SDTMMODEL_EVENTS bd:includesColumn :M-CDISC_SDTMMODEL_EVENTS_xxDY . 
:M-CDISC_SDTMMODEL_EVENTS_xxSTDY rdf:type bd:ClassVariable . 
:M-CDISC_SDTMMODEL_EVENTS_xxSTDY rdfs:label "Study Day of Start of Observation"^^xsd:string . 
:M-CDISC_SDTMMODEL_EVENTS_xxSTDY bd:ordinal "47"^^xsd:positiveInteger . 
:M-CDISC_SDTMMODEL_EVENTS_xxSTDY bd:basedOnVariable :M-CDISC_SDTMMODEL_EVENTS_xxSTDY_CR . 
:M-CDISC_SDTMMODEL_EVENTS_xxSTDY_CR rdf:type bo:CReference . 
:M-CDISC_SDTMMODEL_EVENTS_xxSTDY_CR bo:hasColumn <http://www.assero.co.uk/MDRModels/CDISC/V1#M-CDISC_SDTMMODEL_xxSTDY> . 
:M-CDISC_SDTMMODEL_EVENTS_xxSTDY_CR bo:enabled "true"^^xsd:boolean . 
:M-CDISC_SDTMMODEL_EVENTS_xxSTDY_CR bo:optional "false"^^xsd:boolean . 
:M-CDISC_SDTMMODEL_EVENTS_xxSTDY_CR bo:ordinal "47"^^xsd:positiveInteger . 
:M-CDISC_SDTMMODEL_EVENTS bd:includesColumn :M-CDISC_SDTMMODEL_EVENTS_xxSTDY . 
:M-CDISC_SDTMMODEL_EVENTS_xxENDY rdf:type bd:ClassVariable . 
:M-CDISC_SDTMMODEL_EVENTS_xxENDY rdfs:label "Study Day of End of Observation"^^xsd:string . 
:M-CDISC_SDTMMODEL_EVENTS_xxENDY bd:ordinal "48"^^xsd:positiveInteger . 
:M-CDISC_SDTMMODEL_EVENTS_xxENDY bd:basedOnVariable :M-CDISC_SDTMMODEL_EVENTS_xxENDY_CR . 
:M-CDISC_SDTMMODEL_EVENTS_xxENDY_CR rdf:type bo:CReference . 
:M-CDISC_SDTMMODEL_EVENTS_xxENDY_CR bo:hasColumn <http://www.assero.co.uk/MDRModels/CDISC/V1#M-CDISC_SDTMMODEL_xxENDY> . 
:M-CDISC_SDTMMODEL_EVENTS_xxENDY_CR bo:enabled "true"^^xsd:boolean . 
:M-CDISC_SDTMMODEL_EVENTS_xxENDY_CR bo:optional "false"^^xsd:boolean . 
:M-CDISC_SDTMMODEL_EVENTS_xxENDY_CR bo:ordinal "48"^^xsd:positiveInteger . 
:M-CDISC_SDTMMODEL_EVENTS bd:includesColumn :M-CDISC_SDTMMODEL_EVENTS_xxENDY . 
:M-CDISC_SDTMMODEL_EVENTS_xxDUR rdf:type bd:ClassVariable . 
:M-CDISC_SDTMMODEL_EVENTS_xxDUR rdfs:label "Duration"^^xsd:string . 
:M-CDISC_SDTMMODEL_EVENTS_xxDUR bd:ordinal "49"^^xsd:positiveInteger . 
:M-CDISC_SDTMMODEL_EVENTS_xxDUR bd:basedOnVariable :M-CDISC_SDTMMODEL_EVENTS_xxDUR_CR . 
:M-CDISC_SDTMMODEL_EVENTS_xxDUR_CR rdf:type bo:CReference . 
:M-CDISC_SDTMMODEL_EVENTS_xxDUR_CR bo:hasColumn <http://www.assero.co.uk/MDRModels/CDISC/V1#M-CDISC_SDTMMODEL_xxDUR> . 
:M-CDISC_SDTMMODEL_EVENTS_xxDUR_CR bo:enabled "true"^^xsd:boolean . 
:M-CDISC_SDTMMODEL_EVENTS_xxDUR_CR bo:optional "false"^^xsd:boolean . 
:M-CDISC_SDTMMODEL_EVENTS_xxDUR_CR bo:ordinal "49"^^xsd:positiveInteger . 
:M-CDISC_SDTMMODEL_EVENTS bd:includesColumn :M-CDISC_SDTMMODEL_EVENTS_xxDUR . 
:M-CDISC_SDTMMODEL_EVENTS_xxTPT rdf:type bd:ClassVariable . 
:M-CDISC_SDTMMODEL_EVENTS_xxTPT rdfs:label "Planned Time Point Name"^^xsd:string . 
:M-CDISC_SDTMMODEL_EVENTS_xxTPT bd:ordinal "50"^^xsd:positiveInteger . 
:M-CDISC_SDTMMODEL_EVENTS_xxTPT bd:basedOnVariable :M-CDISC_SDTMMODEL_EVENTS_xxTPT_CR . 
:M-CDISC_SDTMMODEL_EVENTS_xxTPT_CR rdf:type bo:CReference . 
:M-CDISC_SDTMMODEL_EVENTS_xxTPT_CR bo:hasColumn <http://www.assero.co.uk/MDRModels/CDISC/V1#M-CDISC_SDTMMODEL_xxTPT> . 
:M-CDISC_SDTMMODEL_EVENTS_xxTPT_CR bo:enabled "true"^^xsd:boolean . 
:M-CDISC_SDTMMODEL_EVENTS_xxTPT_CR bo:optional "false"^^xsd:boolean . 
:M-CDISC_SDTMMODEL_EVENTS_xxTPT_CR bo:ordinal "50"^^xsd:positiveInteger . 
:M-CDISC_SDTMMODEL_EVENTS bd:includesColumn :M-CDISC_SDTMMODEL_EVENTS_xxTPT . 
:M-CDISC_SDTMMODEL_EVENTS_xxTPTNUM rdf:type bd:ClassVariable . 
:M-CDISC_SDTMMODEL_EVENTS_xxTPTNUM rdfs:label "Planned Time Point Number"^^xsd:string . 
:M-CDISC_SDTMMODEL_EVENTS_xxTPTNUM bd:ordinal "51"^^xsd:positiveInteger . 
:M-CDISC_SDTMMODEL_EVENTS_xxTPTNUM bd:basedOnVariable :M-CDISC_SDTMMODEL_EVENTS_xxTPTNUM_CR . 
:M-CDISC_SDTMMODEL_EVENTS_xxTPTNUM_CR rdf:type bo:CReference . 
:M-CDISC_SDTMMODEL_EVENTS_xxTPTNUM_CR bo:hasColumn <http://www.assero.co.uk/MDRModels/CDISC/V1#M-CDISC_SDTMMODEL_xxTPTNUM> . 
:M-CDISC_SDTMMODEL_EVENTS_xxTPTNUM_CR bo:enabled "true"^^xsd:boolean . 
:M-CDISC_SDTMMODEL_EVENTS_xxTPTNUM_CR bo:optional "false"^^xsd:boolean . 
:M-CDISC_SDTMMODEL_EVENTS_xxTPTNUM_CR bo:ordinal "51"^^xsd:positiveInteger . 
:M-CDISC_SDTMMODEL_EVENTS bd:includesColumn :M-CDISC_SDTMMODEL_EVENTS_xxTPTNUM . 
:M-CDISC_SDTMMODEL_EVENTS_xxELTM rdf:type bd:ClassVariable . 
:M-CDISC_SDTMMODEL_EVENTS_xxELTM rdfs:label "Planned Elapsed Time from Time Point Ref"^^xsd:string . 
:M-CDISC_SDTMMODEL_EVENTS_xxELTM bd:ordinal "52"^^xsd:positiveInteger . 
:M-CDISC_SDTMMODEL_EVENTS_xxELTM bd:basedOnVariable :M-CDISC_SDTMMODEL_EVENTS_xxELTM_CR . 
:M-CDISC_SDTMMODEL_EVENTS_xxELTM_CR rdf:type bo:CReference . 
:M-CDISC_SDTMMODEL_EVENTS_xxELTM_CR bo:hasColumn <http://www.assero.co.uk/MDRModels/CDISC/V1#M-CDISC_SDTMMODEL_xxELTM> . 
:M-CDISC_SDTMMODEL_EVENTS_xxELTM_CR bo:enabled "true"^^xsd:boolean . 
:M-CDISC_SDTMMODEL_EVENTS_xxELTM_CR bo:optional "false"^^xsd:boolean . 
:M-CDISC_SDTMMODEL_EVENTS_xxELTM_CR bo:ordinal "52"^^xsd:positiveInteger . 
:M-CDISC_SDTMMODEL_EVENTS bd:includesColumn :M-CDISC_SDTMMODEL_EVENTS_xxELTM . 
:M-CDISC_SDTMMODEL_EVENTS_xxTPTREF rdf:type bd:ClassVariable . 
:M-CDISC_SDTMMODEL_EVENTS_xxTPTREF rdfs:label "Time Point Reference"^^xsd:string . 
:M-CDISC_SDTMMODEL_EVENTS_xxTPTREF bd:ordinal "53"^^xsd:positiveInteger . 
:M-CDISC_SDTMMODEL_EVENTS_xxTPTREF bd:basedOnVariable :M-CDISC_SDTMMODEL_EVENTS_xxTPTREF_CR . 
:M-CDISC_SDTMMODEL_EVENTS_xxTPTREF_CR rdf:type bo:CReference . 
:M-CDISC_SDTMMODEL_EVENTS_xxTPTREF_CR bo:hasColumn <http://www.assero.co.uk/MDRModels/CDISC/V1#M-CDISC_SDTMMODEL_xxTPTREF> . 
:M-CDISC_SDTMMODEL_EVENTS_xxTPTREF_CR bo:enabled "true"^^xsd:boolean . 
:M-CDISC_SDTMMODEL_EVENTS_xxTPTREF_CR bo:optional "false"^^xsd:boolean . 
:M-CDISC_SDTMMODEL_EVENTS_xxTPTREF_CR bo:ordinal "53"^^xsd:positiveInteger . 
:M-CDISC_SDTMMODEL_EVENTS bd:includesColumn :M-CDISC_SDTMMODEL_EVENTS_xxTPTREF . 
:M-CDISC_SDTMMODEL_EVENTS_xxRFTDTC rdf:type bd:ClassVariable . 
:M-CDISC_SDTMMODEL_EVENTS_xxRFTDTC rdfs:label "Date/Time of Reference Time Point"^^xsd:string . 
:M-CDISC_SDTMMODEL_EVENTS_xxRFTDTC bd:ordinal "54"^^xsd:positiveInteger . 
:M-CDISC_SDTMMODEL_EVENTS_xxRFTDTC bd:basedOnVariable :M-CDISC_SDTMMODEL_EVENTS_xxRFTDTC_CR . 
:M-CDISC_SDTMMODEL_EVENTS_xxRFTDTC_CR rdf:type bo:CReference . 
:M-CDISC_SDTMMODEL_EVENTS_xxRFTDTC_CR bo:hasColumn <http://www.assero.co.uk/MDRModels/CDISC/V1#M-CDISC_SDTMMODEL_xxRFTDTC> . 
:M-CDISC_SDTMMODEL_EVENTS_xxRFTDTC_CR bo:enabled "true"^^xsd:boolean . 
:M-CDISC_SDTMMODEL_EVENTS_xxRFTDTC_CR bo:optional "false"^^xsd:boolean . 
:M-CDISC_SDTMMODEL_EVENTS_xxRFTDTC_CR bo:ordinal "54"^^xsd:positiveInteger . 
:M-CDISC_SDTMMODEL_EVENTS bd:includesColumn :M-CDISC_SDTMMODEL_EVENTS_xxRFTDTC . 
:M-CDISC_SDTMMODEL_EVENTS_xxSTRF rdf:type bd:ClassVariable . 
:M-CDISC_SDTMMODEL_EVENTS_xxSTRF rdfs:label "Start Relative to Reference Period"^^xsd:string . 
:M-CDISC_SDTMMODEL_EVENTS_xxSTRF bd:ordinal "55"^^xsd:positiveInteger . 
:M-CDISC_SDTMMODEL_EVENTS_xxSTRF bd:basedOnVariable :M-CDISC_SDTMMODEL_EVENTS_xxSTRF_CR . 
:M-CDISC_SDTMMODEL_EVENTS_xxSTRF_CR rdf:type bo:CReference . 
:M-CDISC_SDTMMODEL_EVENTS_xxSTRF_CR bo:hasColumn <http://www.assero.co.uk/MDRModels/CDISC/V1#M-CDISC_SDTMMODEL_xxSTRF> . 
:M-CDISC_SDTMMODEL_EVENTS_xxSTRF_CR bo:enabled "true"^^xsd:boolean . 
:M-CDISC_SDTMMODEL_EVENTS_xxSTRF_CR bo:optional "false"^^xsd:boolean . 
:M-CDISC_SDTMMODEL_EVENTS_xxSTRF_CR bo:ordinal "55"^^xsd:positiveInteger . 
:M-CDISC_SDTMMODEL_EVENTS bd:includesColumn :M-CDISC_SDTMMODEL_EVENTS_xxSTRF . 
:M-CDISC_SDTMMODEL_EVENTS_xxENRF rdf:type bd:ClassVariable . 
:M-CDISC_SDTMMODEL_EVENTS_xxENRF rdfs:label "End Relative to Reference Period"^^xsd:string . 
:M-CDISC_SDTMMODEL_EVENTS_xxENRF bd:ordinal "56"^^xsd:positiveInteger . 
:M-CDISC_SDTMMODEL_EVENTS_xxENRF bd:basedOnVariable :M-CDISC_SDTMMODEL_EVENTS_xxENRF_CR . 
:M-CDISC_SDTMMODEL_EVENTS_xxENRF_CR rdf:type bo:CReference . 
:M-CDISC_SDTMMODEL_EVENTS_xxENRF_CR bo:hasColumn <http://www.assero.co.uk/MDRModels/CDISC/V1#M-CDISC_SDTMMODEL_xxENRF> . 
:M-CDISC_SDTMMODEL_EVENTS_xxENRF_CR bo:enabled "true"^^xsd:boolean . 
:M-CDISC_SDTMMODEL_EVENTS_xxENRF_CR bo:optional "false"^^xsd:boolean . 
:M-CDISC_SDTMMODEL_EVENTS_xxENRF_CR bo:ordinal "56"^^xsd:positiveInteger . 
:M-CDISC_SDTMMODEL_EVENTS bd:includesColumn :M-CDISC_SDTMMODEL_EVENTS_xxENRF . 
:M-CDISC_SDTMMODEL_EVENTS_xxEVLINT rdf:type bd:ClassVariable . 
:M-CDISC_SDTMMODEL_EVENTS_xxEVLINT rdfs:label "Evaluation Interval"^^xsd:string . 
:M-CDISC_SDTMMODEL_EVENTS_xxEVLINT bd:ordinal "57"^^xsd:positiveInteger . 
:M-CDISC_SDTMMODEL_EVENTS_xxEVLINT bd:basedOnVariable :M-CDISC_SDTMMODEL_EVENTS_xxEVLINT_CR . 
:M-CDISC_SDTMMODEL_EVENTS_xxEVLINT_CR rdf:type bo:CReference . 
:M-CDISC_SDTMMODEL_EVENTS_xxEVLINT_CR bo:hasColumn <http://www.assero.co.uk/MDRModels/CDISC/V1#M-CDISC_SDTMMODEL_xxEVLINT> . 
:M-CDISC_SDTMMODEL_EVENTS_xxEVLINT_CR bo:enabled "true"^^xsd:boolean . 
:M-CDISC_SDTMMODEL_EVENTS_xxEVLINT_CR bo:optional "false"^^xsd:boolean . 
:M-CDISC_SDTMMODEL_EVENTS_xxEVLINT_CR bo:ordinal "57"^^xsd:positiveInteger . 
:M-CDISC_SDTMMODEL_EVENTS bd:includesColumn :M-CDISC_SDTMMODEL_EVENTS_xxEVLINT . 
:M-CDISC_SDTMMODEL_EVENTS_xxSTRTPT rdf:type bd:ClassVariable . 
:M-CDISC_SDTMMODEL_EVENTS_xxSTRTPT rdfs:label "Start Relative to Reference Time Point"^^xsd:string . 
:M-CDISC_SDTMMODEL_EVENTS_xxSTRTPT bd:ordinal "58"^^xsd:positiveInteger . 
:M-CDISC_SDTMMODEL_EVENTS_xxSTRTPT bd:basedOnVariable :M-CDISC_SDTMMODEL_EVENTS_xxSTRTPT_CR . 
:M-CDISC_SDTMMODEL_EVENTS_xxSTRTPT_CR rdf:type bo:CReference . 
:M-CDISC_SDTMMODEL_EVENTS_xxSTRTPT_CR bo:hasColumn <http://www.assero.co.uk/MDRModels/CDISC/V1#M-CDISC_SDTMMODEL_xxSTRTPT> . 
:M-CDISC_SDTMMODEL_EVENTS_xxSTRTPT_CR bo:enabled "true"^^xsd:boolean . 
:M-CDISC_SDTMMODEL_EVENTS_xxSTRTPT_CR bo:optional "false"^^xsd:boolean . 
:M-CDISC_SDTMMODEL_EVENTS_xxSTRTPT_CR bo:ordinal "58"^^xsd:positiveInteger . 
:M-CDISC_SDTMMODEL_EVENTS bd:includesColumn :M-CDISC_SDTMMODEL_EVENTS_xxSTRTPT . 
:M-CDISC_SDTMMODEL_EVENTS_xxSTTPT rdf:type bd:ClassVariable . 
:M-CDISC_SDTMMODEL_EVENTS_xxSTTPT rdfs:label "Start Reference Time Point"^^xsd:string . 
:M-CDISC_SDTMMODEL_EVENTS_xxSTTPT bd:ordinal "59"^^xsd:positiveInteger . 
:M-CDISC_SDTMMODEL_EVENTS_xxSTTPT bd:basedOnVariable :M-CDISC_SDTMMODEL_EVENTS_xxSTTPT_CR . 
:M-CDISC_SDTMMODEL_EVENTS_xxSTTPT_CR rdf:type bo:CReference . 
:M-CDISC_SDTMMODEL_EVENTS_xxSTTPT_CR bo:hasColumn <http://www.assero.co.uk/MDRModels/CDISC/V1#M-CDISC_SDTMMODEL_xxSTTPT> . 
:M-CDISC_SDTMMODEL_EVENTS_xxSTTPT_CR bo:enabled "true"^^xsd:boolean . 
:M-CDISC_SDTMMODEL_EVENTS_xxSTTPT_CR bo:optional "false"^^xsd:boolean . 
:M-CDISC_SDTMMODEL_EVENTS_xxSTTPT_CR bo:ordinal "59"^^xsd:positiveInteger . 
:M-CDISC_SDTMMODEL_EVENTS bd:includesColumn :M-CDISC_SDTMMODEL_EVENTS_xxSTTPT . 
:M-CDISC_SDTMMODEL_EVENTS_xxENRTPT rdf:type bd:ClassVariable . 
:M-CDISC_SDTMMODEL_EVENTS_xxENRTPT rdfs:label "End Relative to Reference Time Point"^^xsd:string . 
:M-CDISC_SDTMMODEL_EVENTS_xxENRTPT bd:ordinal "60"^^xsd:positiveInteger . 
:M-CDISC_SDTMMODEL_EVENTS_xxENRTPT bd:basedOnVariable :M-CDISC_SDTMMODEL_EVENTS_xxENRTPT_CR . 
:M-CDISC_SDTMMODEL_EVENTS_xxENRTPT_CR rdf:type bo:CReference . 
:M-CDISC_SDTMMODEL_EVENTS_xxENRTPT_CR bo:hasColumn <http://www.assero.co.uk/MDRModels/CDISC/V1#M-CDISC_SDTMMODEL_xxENRTPT> . 
:M-CDISC_SDTMMODEL_EVENTS_xxENRTPT_CR bo:enabled "true"^^xsd:boolean . 
:M-CDISC_SDTMMODEL_EVENTS_xxENRTPT_CR bo:optional "false"^^xsd:boolean . 
:M-CDISC_SDTMMODEL_EVENTS_xxENRTPT_CR bo:ordinal "60"^^xsd:positiveInteger . 
:M-CDISC_SDTMMODEL_EVENTS bd:includesColumn :M-CDISC_SDTMMODEL_EVENTS_xxENRTPT . 
:M-CDISC_SDTMMODEL_EVENTS_xxENTPT rdf:type bd:ClassVariable . 
:M-CDISC_SDTMMODEL_EVENTS_xxENTPT rdfs:label "End Reference Time Point"^^xsd:string . 
:M-CDISC_SDTMMODEL_EVENTS_xxENTPT bd:ordinal "61"^^xsd:positiveInteger . 
:M-CDISC_SDTMMODEL_EVENTS_xxENTPT bd:basedOnVariable :M-CDISC_SDTMMODEL_EVENTS_xxENTPT_CR . 
:M-CDISC_SDTMMODEL_EVENTS_xxENTPT_CR rdf:type bo:CReference . 
:M-CDISC_SDTMMODEL_EVENTS_xxENTPT_CR bo:hasColumn <http://www.assero.co.uk/MDRModels/CDISC/V1#M-CDISC_SDTMMODEL_xxENTPT> . 
:M-CDISC_SDTMMODEL_EVENTS_xxENTPT_CR bo:enabled "true"^^xsd:boolean . 
:M-CDISC_SDTMMODEL_EVENTS_xxENTPT_CR bo:optional "false"^^xsd:boolean . 
:M-CDISC_SDTMMODEL_EVENTS_xxENTPT_CR bo:ordinal "61"^^xsd:positiveInteger . 
:M-CDISC_SDTMMODEL_EVENTS bd:includesColumn :M-CDISC_SDTMMODEL_EVENTS_xxENTPT . 
:M-CDISC_SDTMMODEL bd:includesTabulation :M-CDISC_SDTMMODEL_TR1 . 
:M-CDISC_SDTMMODEL_TR1 rdf:type bo:TReference . 
:M-CDISC_SDTMMODEL_TR1 bo:hasTabulation <http://www.assero.co.uk/MDRModels/CDISC/V1#M-CDISC_SDTMMODEL_EVENTS> . 
:M-CDISC_SDTMMODEL_TR1 bo:enabled "true"^^xsd:boolean . 
:M-CDISC_SDTMMODEL_TR1 bo:optional "false"^^xsd:boolean . 
:M-CDISC_SDTMMODEL_TR1 bo:ordinal "1"^^xsd:positiveInteger . 
mdrItems:SI-CDISC_SDTMMODEL_INTERVENTIONS-1 rdf:type isoI:ScopedIdentifier . 
mdrItems:SI-CDISC_SDTMMODEL_INTERVENTIONS-1 isoI:identifier "SDTMMODEL_INTERVENTIONS"^^xsd:string . 
mdrItems:SI-CDISC_SDTMMODEL_INTERVENTIONS-1 isoI:version "1"^^xsd:positiveInteger . 
mdrItems:SI-CDISC_SDTMMODEL_INTERVENTIONS-1 isoI:versionLabel "1.2"^^xsd:string . 
mdrItems:SI-CDISC_SDTMMODEL_INTERVENTIONS-1 isoI:hasScope mdrItems:NS-CDISC . 
mdrItems:RS-CDISC_SDTMMODEL_INTERVENTIONS-1 rdf:type isoR:RegistrationState . 
mdrItems:RS-CDISC_SDTMMODEL_INTERVENTIONS-1 isoR:byAuthority mdrItems:RA-084433759 . 
mdrItems:RS-CDISC_SDTMMODEL_INTERVENTIONS-1 isoR:registrationStatus "Standard"^^xsd:string . 
mdrItems:RS-CDISC_SDTMMODEL_INTERVENTIONS-1 isoR:administrativeNote ""^^xsd:string . 
mdrItems:RS-CDISC_SDTMMODEL_INTERVENTIONS-1 isoR:effectiveDate "2016-01-01T00:00:00Z"^^xsd:dateTime . 
mdrItems:RS-CDISC_SDTMMODEL_INTERVENTIONS-1 isoR:untilDate "2016-01-01T00:00:00Z"^^xsd:dateTime . 
mdrItems:RS-CDISC_SDTMMODEL_INTERVENTIONS-1 isoR:unresolvedIssue ""^^xsd:string . 
mdrItems:RS-CDISC_SDTMMODEL_INTERVENTIONS-1 isoR:administrativeStatus ""^^xsd:string . 
mdrItems:RS-CDISC_SDTMMODEL_INTERVENTIONS-1 isoR:previousState "Standard"^^xsd:string . 
:M-CDISC_SDTMMODEL_INTERVENTIONS rdf:type bd:ClassDomain . 
:M-CDISC_SDTMMODEL_INTERVENTIONS isoI:hasIdentifier mdrItems:SI-CDISC_SDTMMODEL_INTERVENTIONS-1 . 
:M-CDISC_SDTMMODEL_INTERVENTIONS isoR:hasState mdrItems:RS-CDISC_SDTMMODEL_INTERVENTIONS-1 . 
:M-CDISC_SDTMMODEL_INTERVENTIONS rdfs:label "Interventions"^^xsd:string . 
:M-CDISC_SDTMMODEL_INTERVENTIONS isoT:creationDate "2016-07-15"^^xsd:string . 
:M-CDISC_SDTMMODEL_INTERVENTIONS isoT:lastChangeDate "2016-07-15T07:28:45+01:00"^^xsd:string . 
:M-CDISC_SDTMMODEL_INTERVENTIONS isoT:changeDescription ""^^xsd:string . 
:M-CDISC_SDTMMODEL_INTERVENTIONS isoT:explanatoryComment ""^^xsd:string . 
:M-CDISC_SDTMMODEL_INTERVENTIONS isoT:origin ""^^xsd:string . 
:M-CDISC_SDTMMODEL_INTERVENTIONS bd:domain_class "Interventions"^^xsd:string . 
:M-CDISC_SDTMMODEL_INTERVENTIONS_STUDYID rdf:type bd:ClassVariable . 
:M-CDISC_SDTMMODEL_INTERVENTIONS_STUDYID rdfs:label "Study Identifier"^^xsd:string . 
:M-CDISC_SDTMMODEL_INTERVENTIONS_STUDYID bd:ordinal "1"^^xsd:positiveInteger . 
:M-CDISC_SDTMMODEL_INTERVENTIONS_STUDYID bd:basedOnVariable :M-CDISC_SDTMMODEL_INTERVENTIONS_STUDYID_CR . 
:M-CDISC_SDTMMODEL_INTERVENTIONS_STUDYID_CR rdf:type bo:CReference . 
:M-CDISC_SDTMMODEL_INTERVENTIONS_STUDYID_CR bo:hasColumn <http://www.assero.co.uk/MDRModels/CDISC/V1#M-CDISC_SDTMMODEL_STUDYID> . 
:M-CDISC_SDTMMODEL_INTERVENTIONS_STUDYID_CR bo:enabled "true"^^xsd:boolean . 
:M-CDISC_SDTMMODEL_INTERVENTIONS_STUDYID_CR bo:optional "false"^^xsd:boolean . 
:M-CDISC_SDTMMODEL_INTERVENTIONS_STUDYID_CR bo:ordinal "1"^^xsd:positiveInteger . 
:M-CDISC_SDTMMODEL_INTERVENTIONS bd:includesColumn :M-CDISC_SDTMMODEL_INTERVENTIONS_STUDYID . 
:M-CDISC_SDTMMODEL_INTERVENTIONS_DOMAIN rdf:type bd:ClassVariable . 
:M-CDISC_SDTMMODEL_INTERVENTIONS_DOMAIN rdfs:label "Domain Abbreviation"^^xsd:string . 
:M-CDISC_SDTMMODEL_INTERVENTIONS_DOMAIN bd:ordinal "2"^^xsd:positiveInteger . 
:M-CDISC_SDTMMODEL_INTERVENTIONS_DOMAIN bd:basedOnVariable :M-CDISC_SDTMMODEL_INTERVENTIONS_DOMAIN_CR . 
:M-CDISC_SDTMMODEL_INTERVENTIONS_DOMAIN_CR rdf:type bo:CReference . 
:M-CDISC_SDTMMODEL_INTERVENTIONS_DOMAIN_CR bo:hasColumn <http://www.assero.co.uk/MDRModels/CDISC/V1#M-CDISC_SDTMMODEL_DOMAIN> . 
:M-CDISC_SDTMMODEL_INTERVENTIONS_DOMAIN_CR bo:enabled "true"^^xsd:boolean . 
:M-CDISC_SDTMMODEL_INTERVENTIONS_DOMAIN_CR bo:optional "false"^^xsd:boolean . 
:M-CDISC_SDTMMODEL_INTERVENTIONS_DOMAIN_CR bo:ordinal "2"^^xsd:positiveInteger . 
:M-CDISC_SDTMMODEL_INTERVENTIONS bd:includesColumn :M-CDISC_SDTMMODEL_INTERVENTIONS_DOMAIN . 
:M-CDISC_SDTMMODEL_INTERVENTIONS_USUBJID rdf:type bd:ClassVariable . 
:M-CDISC_SDTMMODEL_INTERVENTIONS_USUBJID rdfs:label "Unique Subject Identifier"^^xsd:string . 
:M-CDISC_SDTMMODEL_INTERVENTIONS_USUBJID bd:ordinal "3"^^xsd:positiveInteger . 
:M-CDISC_SDTMMODEL_INTERVENTIONS_USUBJID bd:basedOnVariable :M-CDISC_SDTMMODEL_INTERVENTIONS_USUBJID_CR . 
:M-CDISC_SDTMMODEL_INTERVENTIONS_USUBJID_CR rdf:type bo:CReference . 
:M-CDISC_SDTMMODEL_INTERVENTIONS_USUBJID_CR bo:hasColumn <http://www.assero.co.uk/MDRModels/CDISC/V1#M-CDISC_SDTMMODEL_USUBJID> . 
:M-CDISC_SDTMMODEL_INTERVENTIONS_USUBJID_CR bo:enabled "true"^^xsd:boolean . 
:M-CDISC_SDTMMODEL_INTERVENTIONS_USUBJID_CR bo:optional "false"^^xsd:boolean . 
:M-CDISC_SDTMMODEL_INTERVENTIONS_USUBJID_CR bo:ordinal "3"^^xsd:positiveInteger . 
:M-CDISC_SDTMMODEL_INTERVENTIONS bd:includesColumn :M-CDISC_SDTMMODEL_INTERVENTIONS_USUBJID . 
:M-CDISC_SDTMMODEL_INTERVENTIONS_xxSEQ rdf:type bd:ClassVariable . 
:M-CDISC_SDTMMODEL_INTERVENTIONS_xxSEQ rdfs:label "Sequence Number"^^xsd:string . 
:M-CDISC_SDTMMODEL_INTERVENTIONS_xxSEQ bd:ordinal "4"^^xsd:positiveInteger . 
:M-CDISC_SDTMMODEL_INTERVENTIONS_xxSEQ bd:basedOnVariable :M-CDISC_SDTMMODEL_INTERVENTIONS_xxSEQ_CR . 
:M-CDISC_SDTMMODEL_INTERVENTIONS_xxSEQ_CR rdf:type bo:CReference . 
:M-CDISC_SDTMMODEL_INTERVENTIONS_xxSEQ_CR bo:hasColumn <http://www.assero.co.uk/MDRModels/CDISC/V1#M-CDISC_SDTMMODEL_xxSEQ> . 
:M-CDISC_SDTMMODEL_INTERVENTIONS_xxSEQ_CR bo:enabled "true"^^xsd:boolean . 
:M-CDISC_SDTMMODEL_INTERVENTIONS_xxSEQ_CR bo:optional "false"^^xsd:boolean . 
:M-CDISC_SDTMMODEL_INTERVENTIONS_xxSEQ_CR bo:ordinal "4"^^xsd:positiveInteger . 
:M-CDISC_SDTMMODEL_INTERVENTIONS bd:includesColumn :M-CDISC_SDTMMODEL_INTERVENTIONS_xxSEQ . 
:M-CDISC_SDTMMODEL_INTERVENTIONS_xxGRPID rdf:type bd:ClassVariable . 
:M-CDISC_SDTMMODEL_INTERVENTIONS_xxGRPID rdfs:label "Group ID"^^xsd:string . 
:M-CDISC_SDTMMODEL_INTERVENTIONS_xxGRPID bd:ordinal "5"^^xsd:positiveInteger . 
:M-CDISC_SDTMMODEL_INTERVENTIONS_xxGRPID bd:basedOnVariable :M-CDISC_SDTMMODEL_INTERVENTIONS_xxGRPID_CR . 
:M-CDISC_SDTMMODEL_INTERVENTIONS_xxGRPID_CR rdf:type bo:CReference . 
:M-CDISC_SDTMMODEL_INTERVENTIONS_xxGRPID_CR bo:hasColumn <http://www.assero.co.uk/MDRModels/CDISC/V1#M-CDISC_SDTMMODEL_xxGRPID> . 
:M-CDISC_SDTMMODEL_INTERVENTIONS_xxGRPID_CR bo:enabled "true"^^xsd:boolean . 
:M-CDISC_SDTMMODEL_INTERVENTIONS_xxGRPID_CR bo:optional "false"^^xsd:boolean . 
:M-CDISC_SDTMMODEL_INTERVENTIONS_xxGRPID_CR bo:ordinal "5"^^xsd:positiveInteger . 
:M-CDISC_SDTMMODEL_INTERVENTIONS bd:includesColumn :M-CDISC_SDTMMODEL_INTERVENTIONS_xxGRPID . 
:M-CDISC_SDTMMODEL_INTERVENTIONS_xxREFID rdf:type bd:ClassVariable . 
:M-CDISC_SDTMMODEL_INTERVENTIONS_xxREFID rdfs:label "Reference ID"^^xsd:string . 
:M-CDISC_SDTMMODEL_INTERVENTIONS_xxREFID bd:ordinal "6"^^xsd:positiveInteger . 
:M-CDISC_SDTMMODEL_INTERVENTIONS_xxREFID bd:basedOnVariable :M-CDISC_SDTMMODEL_INTERVENTIONS_xxREFID_CR . 
:M-CDISC_SDTMMODEL_INTERVENTIONS_xxREFID_CR rdf:type bo:CReference . 
:M-CDISC_SDTMMODEL_INTERVENTIONS_xxREFID_CR bo:hasColumn <http://www.assero.co.uk/MDRModels/CDISC/V1#M-CDISC_SDTMMODEL_xxREFID> . 
:M-CDISC_SDTMMODEL_INTERVENTIONS_xxREFID_CR bo:enabled "true"^^xsd:boolean . 
:M-CDISC_SDTMMODEL_INTERVENTIONS_xxREFID_CR bo:optional "false"^^xsd:boolean . 
:M-CDISC_SDTMMODEL_INTERVENTIONS_xxREFID_CR bo:ordinal "6"^^xsd:positiveInteger . 
:M-CDISC_SDTMMODEL_INTERVENTIONS bd:includesColumn :M-CDISC_SDTMMODEL_INTERVENTIONS_xxREFID . 
:M-CDISC_SDTMMODEL_INTERVENTIONS_xxSPID rdf:type bd:ClassVariable . 
:M-CDISC_SDTMMODEL_INTERVENTIONS_xxSPID rdfs:label "Sponsor ID"^^xsd:string . 
:M-CDISC_SDTMMODEL_INTERVENTIONS_xxSPID bd:ordinal "7"^^xsd:positiveInteger . 
:M-CDISC_SDTMMODEL_INTERVENTIONS_xxSPID bd:basedOnVariable :M-CDISC_SDTMMODEL_INTERVENTIONS_xxSPID_CR . 
:M-CDISC_SDTMMODEL_INTERVENTIONS_xxSPID_CR rdf:type bo:CReference . 
:M-CDISC_SDTMMODEL_INTERVENTIONS_xxSPID_CR bo:hasColumn <http://www.assero.co.uk/MDRModels/CDISC/V1#M-CDISC_SDTMMODEL_xxSPID> . 
:M-CDISC_SDTMMODEL_INTERVENTIONS_xxSPID_CR bo:enabled "true"^^xsd:boolean . 
:M-CDISC_SDTMMODEL_INTERVENTIONS_xxSPID_CR bo:optional "false"^^xsd:boolean . 
:M-CDISC_SDTMMODEL_INTERVENTIONS_xxSPID_CR bo:ordinal "7"^^xsd:positiveInteger . 
:M-CDISC_SDTMMODEL_INTERVENTIONS bd:includesColumn :M-CDISC_SDTMMODEL_INTERVENTIONS_xxSPID . 
:M-CDISC_SDTMMODEL_INTERVENTIONS_xxTRT rdf:type bd:ClassVariable . 
:M-CDISC_SDTMMODEL_INTERVENTIONS_xxTRT rdfs:label "Name of Treatment"^^xsd:string . 
:M-CDISC_SDTMMODEL_INTERVENTIONS_xxTRT bd:ordinal "8"^^xsd:positiveInteger . 
:M-CDISC_SDTMMODEL_INTERVENTIONS_xxTRT bd:basedOnVariable :M-CDISC_SDTMMODEL_INTERVENTIONS_xxTRT_CR . 
:M-CDISC_SDTMMODEL_INTERVENTIONS_xxTRT_CR rdf:type bo:CReference . 
:M-CDISC_SDTMMODEL_INTERVENTIONS_xxTRT_CR bo:hasColumn <http://www.assero.co.uk/MDRModels/CDISC/V1#M-CDISC_SDTMMODEL_xxTRT> . 
:M-CDISC_SDTMMODEL_INTERVENTIONS_xxTRT_CR bo:enabled "true"^^xsd:boolean . 
:M-CDISC_SDTMMODEL_INTERVENTIONS_xxTRT_CR bo:optional "false"^^xsd:boolean . 
:M-CDISC_SDTMMODEL_INTERVENTIONS_xxTRT_CR bo:ordinal "8"^^xsd:positiveInteger . 
:M-CDISC_SDTMMODEL_INTERVENTIONS bd:includesColumn :M-CDISC_SDTMMODEL_INTERVENTIONS_xxTRT . 
:M-CDISC_SDTMMODEL_INTERVENTIONS_xxMODIFY rdf:type bd:ClassVariable . 
:M-CDISC_SDTMMODEL_INTERVENTIONS_xxMODIFY rdfs:label "Modified Treatment Name"^^xsd:string . 
:M-CDISC_SDTMMODEL_INTERVENTIONS_xxMODIFY bd:ordinal "9"^^xsd:positiveInteger . 
:M-CDISC_SDTMMODEL_INTERVENTIONS_xxMODIFY bd:basedOnVariable :M-CDISC_SDTMMODEL_INTERVENTIONS_xxMODIFY_CR . 
:M-CDISC_SDTMMODEL_INTERVENTIONS_xxMODIFY_CR rdf:type bo:CReference . 
:M-CDISC_SDTMMODEL_INTERVENTIONS_xxMODIFY_CR bo:hasColumn <http://www.assero.co.uk/MDRModels/CDISC/V1#M-CDISC_SDTMMODEL_xxMODIFY> . 
:M-CDISC_SDTMMODEL_INTERVENTIONS_xxMODIFY_CR bo:enabled "true"^^xsd:boolean . 
:M-CDISC_SDTMMODEL_INTERVENTIONS_xxMODIFY_CR bo:optional "false"^^xsd:boolean . 
:M-CDISC_SDTMMODEL_INTERVENTIONS_xxMODIFY_CR bo:ordinal "9"^^xsd:positiveInteger . 
:M-CDISC_SDTMMODEL_INTERVENTIONS bd:includesColumn :M-CDISC_SDTMMODEL_INTERVENTIONS_xxMODIFY . 
:M-CDISC_SDTMMODEL_INTERVENTIONS_xxDECOD rdf:type bd:ClassVariable . 
:M-CDISC_SDTMMODEL_INTERVENTIONS_xxDECOD rdfs:label "Standardized Treatment Name"^^xsd:string . 
:M-CDISC_SDTMMODEL_INTERVENTIONS_xxDECOD bd:ordinal "10"^^xsd:positiveInteger . 
:M-CDISC_SDTMMODEL_INTERVENTIONS_xxDECOD bd:basedOnVariable :M-CDISC_SDTMMODEL_INTERVENTIONS_xxDECOD_CR . 
:M-CDISC_SDTMMODEL_INTERVENTIONS_xxDECOD_CR rdf:type bo:CReference . 
:M-CDISC_SDTMMODEL_INTERVENTIONS_xxDECOD_CR bo:hasColumn <http://www.assero.co.uk/MDRModels/CDISC/V1#M-CDISC_SDTMMODEL_xxDECOD> . 
:M-CDISC_SDTMMODEL_INTERVENTIONS_xxDECOD_CR bo:enabled "true"^^xsd:boolean . 
:M-CDISC_SDTMMODEL_INTERVENTIONS_xxDECOD_CR bo:optional "false"^^xsd:boolean . 
:M-CDISC_SDTMMODEL_INTERVENTIONS_xxDECOD_CR bo:ordinal "10"^^xsd:positiveInteger . 
:M-CDISC_SDTMMODEL_INTERVENTIONS bd:includesColumn :M-CDISC_SDTMMODEL_INTERVENTIONS_xxDECOD . 
:M-CDISC_SDTMMODEL_INTERVENTIONS_xxCAT rdf:type bd:ClassVariable . 
:M-CDISC_SDTMMODEL_INTERVENTIONS_xxCAT rdfs:label "Category"^^xsd:string . 
:M-CDISC_SDTMMODEL_INTERVENTIONS_xxCAT bd:ordinal "11"^^xsd:positiveInteger . 
:M-CDISC_SDTMMODEL_INTERVENTIONS_xxCAT bd:basedOnVariable :M-CDISC_SDTMMODEL_INTERVENTIONS_xxCAT_CR . 
:M-CDISC_SDTMMODEL_INTERVENTIONS_xxCAT_CR rdf:type bo:CReference . 
:M-CDISC_SDTMMODEL_INTERVENTIONS_xxCAT_CR bo:hasColumn <http://www.assero.co.uk/MDRModels/CDISC/V1#M-CDISC_SDTMMODEL_xxCAT> . 
:M-CDISC_SDTMMODEL_INTERVENTIONS_xxCAT_CR bo:enabled "true"^^xsd:boolean . 
:M-CDISC_SDTMMODEL_INTERVENTIONS_xxCAT_CR bo:optional "false"^^xsd:boolean . 
:M-CDISC_SDTMMODEL_INTERVENTIONS_xxCAT_CR bo:ordinal "11"^^xsd:positiveInteger . 
:M-CDISC_SDTMMODEL_INTERVENTIONS bd:includesColumn :M-CDISC_SDTMMODEL_INTERVENTIONS_xxCAT . 
:M-CDISC_SDTMMODEL_INTERVENTIONS_xxSCAT rdf:type bd:ClassVariable . 
:M-CDISC_SDTMMODEL_INTERVENTIONS_xxSCAT rdfs:label "Subcategory"^^xsd:string . 
:M-CDISC_SDTMMODEL_INTERVENTIONS_xxSCAT bd:ordinal "12"^^xsd:positiveInteger . 
:M-CDISC_SDTMMODEL_INTERVENTIONS_xxSCAT bd:basedOnVariable :M-CDISC_SDTMMODEL_INTERVENTIONS_xxSCAT_CR . 
:M-CDISC_SDTMMODEL_INTERVENTIONS_xxSCAT_CR rdf:type bo:CReference . 
:M-CDISC_SDTMMODEL_INTERVENTIONS_xxSCAT_CR bo:hasColumn <http://www.assero.co.uk/MDRModels/CDISC/V1#M-CDISC_SDTMMODEL_xxSCAT> . 
:M-CDISC_SDTMMODEL_INTERVENTIONS_xxSCAT_CR bo:enabled "true"^^xsd:boolean . 
:M-CDISC_SDTMMODEL_INTERVENTIONS_xxSCAT_CR bo:optional "false"^^xsd:boolean . 
:M-CDISC_SDTMMODEL_INTERVENTIONS_xxSCAT_CR bo:ordinal "12"^^xsd:positiveInteger . 
:M-CDISC_SDTMMODEL_INTERVENTIONS bd:includesColumn :M-CDISC_SDTMMODEL_INTERVENTIONS_xxSCAT . 
:M-CDISC_SDTMMODEL_INTERVENTIONS_xxPRESP rdf:type bd:ClassVariable . 
:M-CDISC_SDTMMODEL_INTERVENTIONS_xxPRESP rdfs:label "Pre-specified"^^xsd:string . 
:M-CDISC_SDTMMODEL_INTERVENTIONS_xxPRESP bd:ordinal "13"^^xsd:positiveInteger . 
:M-CDISC_SDTMMODEL_INTERVENTIONS_xxPRESP bd:basedOnVariable :M-CDISC_SDTMMODEL_INTERVENTIONS_xxPRESP_CR . 
:M-CDISC_SDTMMODEL_INTERVENTIONS_xxPRESP_CR rdf:type bo:CReference . 
:M-CDISC_SDTMMODEL_INTERVENTIONS_xxPRESP_CR bo:hasColumn <http://www.assero.co.uk/MDRModels/CDISC/V1#M-CDISC_SDTMMODEL_xxPRESP> . 
:M-CDISC_SDTMMODEL_INTERVENTIONS_xxPRESP_CR bo:enabled "true"^^xsd:boolean . 
:M-CDISC_SDTMMODEL_INTERVENTIONS_xxPRESP_CR bo:optional "false"^^xsd:boolean . 
:M-CDISC_SDTMMODEL_INTERVENTIONS_xxPRESP_CR bo:ordinal "13"^^xsd:positiveInteger . 
:M-CDISC_SDTMMODEL_INTERVENTIONS bd:includesColumn :M-CDISC_SDTMMODEL_INTERVENTIONS_xxPRESP . 
:M-CDISC_SDTMMODEL_INTERVENTIONS_xxOCCUR rdf:type bd:ClassVariable . 
:M-CDISC_SDTMMODEL_INTERVENTIONS_xxOCCUR rdfs:label "Occurrence"^^xsd:string . 
:M-CDISC_SDTMMODEL_INTERVENTIONS_xxOCCUR bd:ordinal "14"^^xsd:positiveInteger . 
:M-CDISC_SDTMMODEL_INTERVENTIONS_xxOCCUR bd:basedOnVariable :M-CDISC_SDTMMODEL_INTERVENTIONS_xxOCCUR_CR . 
:M-CDISC_SDTMMODEL_INTERVENTIONS_xxOCCUR_CR rdf:type bo:CReference . 
:M-CDISC_SDTMMODEL_INTERVENTIONS_xxOCCUR_CR bo:hasColumn <http://www.assero.co.uk/MDRModels/CDISC/V1#M-CDISC_SDTMMODEL_xxOCCUR> . 
:M-CDISC_SDTMMODEL_INTERVENTIONS_xxOCCUR_CR bo:enabled "true"^^xsd:boolean . 
:M-CDISC_SDTMMODEL_INTERVENTIONS_xxOCCUR_CR bo:optional "false"^^xsd:boolean . 
:M-CDISC_SDTMMODEL_INTERVENTIONS_xxOCCUR_CR bo:ordinal "14"^^xsd:positiveInteger . 
:M-CDISC_SDTMMODEL_INTERVENTIONS bd:includesColumn :M-CDISC_SDTMMODEL_INTERVENTIONS_xxOCCUR . 
:M-CDISC_SDTMMODEL_INTERVENTIONS_xxSTAT rdf:type bd:ClassVariable . 
:M-CDISC_SDTMMODEL_INTERVENTIONS_xxSTAT rdfs:label "Completion Status"^^xsd:string . 
:M-CDISC_SDTMMODEL_INTERVENTIONS_xxSTAT bd:ordinal "15"^^xsd:positiveInteger . 
:M-CDISC_SDTMMODEL_INTERVENTIONS_xxSTAT bd:basedOnVariable :M-CDISC_SDTMMODEL_INTERVENTIONS_xxSTAT_CR . 
:M-CDISC_SDTMMODEL_INTERVENTIONS_xxSTAT_CR rdf:type bo:CReference . 
:M-CDISC_SDTMMODEL_INTERVENTIONS_xxSTAT_CR bo:hasColumn <http://www.assero.co.uk/MDRModels/CDISC/V1#M-CDISC_SDTMMODEL_xxSTAT> . 
:M-CDISC_SDTMMODEL_INTERVENTIONS_xxSTAT_CR bo:enabled "true"^^xsd:boolean . 
:M-CDISC_SDTMMODEL_INTERVENTIONS_xxSTAT_CR bo:optional "false"^^xsd:boolean . 
:M-CDISC_SDTMMODEL_INTERVENTIONS_xxSTAT_CR bo:ordinal "15"^^xsd:positiveInteger . 
:M-CDISC_SDTMMODEL_INTERVENTIONS bd:includesColumn :M-CDISC_SDTMMODEL_INTERVENTIONS_xxSTAT . 
:M-CDISC_SDTMMODEL_INTERVENTIONS_xxREASND rdf:type bd:ClassVariable . 
:M-CDISC_SDTMMODEL_INTERVENTIONS_xxREASND rdfs:label "Reason Not Done"^^xsd:string . 
:M-CDISC_SDTMMODEL_INTERVENTIONS_xxREASND bd:ordinal "16"^^xsd:positiveInteger . 
:M-CDISC_SDTMMODEL_INTERVENTIONS_xxREASND bd:basedOnVariable :M-CDISC_SDTMMODEL_INTERVENTIONS_xxREASND_CR . 
:M-CDISC_SDTMMODEL_INTERVENTIONS_xxREASND_CR rdf:type bo:CReference . 
:M-CDISC_SDTMMODEL_INTERVENTIONS_xxREASND_CR bo:hasColumn <http://www.assero.co.uk/MDRModels/CDISC/V1#M-CDISC_SDTMMODEL_xxREASND> . 
:M-CDISC_SDTMMODEL_INTERVENTIONS_xxREASND_CR bo:enabled "true"^^xsd:boolean . 
:M-CDISC_SDTMMODEL_INTERVENTIONS_xxREASND_CR bo:optional "false"^^xsd:boolean . 
:M-CDISC_SDTMMODEL_INTERVENTIONS_xxREASND_CR bo:ordinal "16"^^xsd:positiveInteger . 
:M-CDISC_SDTMMODEL_INTERVENTIONS bd:includesColumn :M-CDISC_SDTMMODEL_INTERVENTIONS_xxREASND . 
:M-CDISC_SDTMMODEL_INTERVENTIONS_xxINDC rdf:type bd:ClassVariable . 
:M-CDISC_SDTMMODEL_INTERVENTIONS_xxINDC rdfs:label "Indication"^^xsd:string . 
:M-CDISC_SDTMMODEL_INTERVENTIONS_xxINDC bd:ordinal "17"^^xsd:positiveInteger . 
:M-CDISC_SDTMMODEL_INTERVENTIONS_xxINDC bd:basedOnVariable :M-CDISC_SDTMMODEL_INTERVENTIONS_xxINDC_CR . 
:M-CDISC_SDTMMODEL_INTERVENTIONS_xxINDC_CR rdf:type bo:CReference . 
:M-CDISC_SDTMMODEL_INTERVENTIONS_xxINDC_CR bo:hasColumn <http://www.assero.co.uk/MDRModels/CDISC/V1#M-CDISC_SDTMMODEL_xxINDC> . 
:M-CDISC_SDTMMODEL_INTERVENTIONS_xxINDC_CR bo:enabled "true"^^xsd:boolean . 
:M-CDISC_SDTMMODEL_INTERVENTIONS_xxINDC_CR bo:optional "false"^^xsd:boolean . 
:M-CDISC_SDTMMODEL_INTERVENTIONS_xxINDC_CR bo:ordinal "17"^^xsd:positiveInteger . 
:M-CDISC_SDTMMODEL_INTERVENTIONS bd:includesColumn :M-CDISC_SDTMMODEL_INTERVENTIONS_xxINDC . 
:M-CDISC_SDTMMODEL_INTERVENTIONS_xxCLAS rdf:type bd:ClassVariable . 
:M-CDISC_SDTMMODEL_INTERVENTIONS_xxCLAS rdfs:label "Class"^^xsd:string . 
:M-CDISC_SDTMMODEL_INTERVENTIONS_xxCLAS bd:ordinal "18"^^xsd:positiveInteger . 
:M-CDISC_SDTMMODEL_INTERVENTIONS_xxCLAS bd:basedOnVariable :M-CDISC_SDTMMODEL_INTERVENTIONS_xxCLAS_CR . 
:M-CDISC_SDTMMODEL_INTERVENTIONS_xxCLAS_CR rdf:type bo:CReference . 
:M-CDISC_SDTMMODEL_INTERVENTIONS_xxCLAS_CR bo:hasColumn <http://www.assero.co.uk/MDRModels/CDISC/V1#M-CDISC_SDTMMODEL_xxCLAS> . 
:M-CDISC_SDTMMODEL_INTERVENTIONS_xxCLAS_CR bo:enabled "true"^^xsd:boolean . 
:M-CDISC_SDTMMODEL_INTERVENTIONS_xxCLAS_CR bo:optional "false"^^xsd:boolean . 
:M-CDISC_SDTMMODEL_INTERVENTIONS_xxCLAS_CR bo:ordinal "18"^^xsd:positiveInteger . 
:M-CDISC_SDTMMODEL_INTERVENTIONS bd:includesColumn :M-CDISC_SDTMMODEL_INTERVENTIONS_xxCLAS . 
:M-CDISC_SDTMMODEL_INTERVENTIONS_xxCLASCD rdf:type bd:ClassVariable . 
:M-CDISC_SDTMMODEL_INTERVENTIONS_xxCLASCD rdfs:label "Class Code"^^xsd:string . 
:M-CDISC_SDTMMODEL_INTERVENTIONS_xxCLASCD bd:ordinal "19"^^xsd:positiveInteger . 
:M-CDISC_SDTMMODEL_INTERVENTIONS_xxCLASCD bd:basedOnVariable :M-CDISC_SDTMMODEL_INTERVENTIONS_xxCLASCD_CR . 
:M-CDISC_SDTMMODEL_INTERVENTIONS_xxCLASCD_CR rdf:type bo:CReference . 
:M-CDISC_SDTMMODEL_INTERVENTIONS_xxCLASCD_CR bo:hasColumn <http://www.assero.co.uk/MDRModels/CDISC/V1#M-CDISC_SDTMMODEL_xxCLASCD> . 
:M-CDISC_SDTMMODEL_INTERVENTIONS_xxCLASCD_CR bo:enabled "true"^^xsd:boolean . 
:M-CDISC_SDTMMODEL_INTERVENTIONS_xxCLASCD_CR bo:optional "false"^^xsd:boolean . 
:M-CDISC_SDTMMODEL_INTERVENTIONS_xxCLASCD_CR bo:ordinal "19"^^xsd:positiveInteger . 
:M-CDISC_SDTMMODEL_INTERVENTIONS bd:includesColumn :M-CDISC_SDTMMODEL_INTERVENTIONS_xxCLASCD . 
:M-CDISC_SDTMMODEL_INTERVENTIONS_xxDOSE rdf:type bd:ClassVariable . 
:M-CDISC_SDTMMODEL_INTERVENTIONS_xxDOSE rdfs:label "Dose"^^xsd:string . 
:M-CDISC_SDTMMODEL_INTERVENTIONS_xxDOSE bd:ordinal "20"^^xsd:positiveInteger . 
:M-CDISC_SDTMMODEL_INTERVENTIONS_xxDOSE bd:basedOnVariable :M-CDISC_SDTMMODEL_INTERVENTIONS_xxDOSE_CR . 
:M-CDISC_SDTMMODEL_INTERVENTIONS_xxDOSE_CR rdf:type bo:CReference . 
:M-CDISC_SDTMMODEL_INTERVENTIONS_xxDOSE_CR bo:hasColumn <http://www.assero.co.uk/MDRModels/CDISC/V1#M-CDISC_SDTMMODEL_xxDOSE> . 
:M-CDISC_SDTMMODEL_INTERVENTIONS_xxDOSE_CR bo:enabled "true"^^xsd:boolean . 
:M-CDISC_SDTMMODEL_INTERVENTIONS_xxDOSE_CR bo:optional "false"^^xsd:boolean . 
:M-CDISC_SDTMMODEL_INTERVENTIONS_xxDOSE_CR bo:ordinal "20"^^xsd:positiveInteger . 
:M-CDISC_SDTMMODEL_INTERVENTIONS bd:includesColumn :M-CDISC_SDTMMODEL_INTERVENTIONS_xxDOSE . 
:M-CDISC_SDTMMODEL_INTERVENTIONS_xxDOSTXT rdf:type bd:ClassVariable . 
:M-CDISC_SDTMMODEL_INTERVENTIONS_xxDOSTXT rdfs:label "Dose Description"^^xsd:string . 
:M-CDISC_SDTMMODEL_INTERVENTIONS_xxDOSTXT bd:ordinal "21"^^xsd:positiveInteger . 
:M-CDISC_SDTMMODEL_INTERVENTIONS_xxDOSTXT bd:basedOnVariable :M-CDISC_SDTMMODEL_INTERVENTIONS_xxDOSTXT_CR . 
:M-CDISC_SDTMMODEL_INTERVENTIONS_xxDOSTXT_CR rdf:type bo:CReference . 
:M-CDISC_SDTMMODEL_INTERVENTIONS_xxDOSTXT_CR bo:hasColumn <http://www.assero.co.uk/MDRModels/CDISC/V1#M-CDISC_SDTMMODEL_xxDOSTXT> . 
:M-CDISC_SDTMMODEL_INTERVENTIONS_xxDOSTXT_CR bo:enabled "true"^^xsd:boolean . 
:M-CDISC_SDTMMODEL_INTERVENTIONS_xxDOSTXT_CR bo:optional "false"^^xsd:boolean . 
:M-CDISC_SDTMMODEL_INTERVENTIONS_xxDOSTXT_CR bo:ordinal "21"^^xsd:positiveInteger . 
:M-CDISC_SDTMMODEL_INTERVENTIONS bd:includesColumn :M-CDISC_SDTMMODEL_INTERVENTIONS_xxDOSTXT . 
:M-CDISC_SDTMMODEL_INTERVENTIONS_xxDOSU rdf:type bd:ClassVariable . 
:M-CDISC_SDTMMODEL_INTERVENTIONS_xxDOSU rdfs:label "Dose Units"^^xsd:string . 
:M-CDISC_SDTMMODEL_INTERVENTIONS_xxDOSU bd:ordinal "22"^^xsd:positiveInteger . 
:M-CDISC_SDTMMODEL_INTERVENTIONS_xxDOSU bd:basedOnVariable :M-CDISC_SDTMMODEL_INTERVENTIONS_xxDOSU_CR . 
:M-CDISC_SDTMMODEL_INTERVENTIONS_xxDOSU_CR rdf:type bo:CReference . 
:M-CDISC_SDTMMODEL_INTERVENTIONS_xxDOSU_CR bo:hasColumn <http://www.assero.co.uk/MDRModels/CDISC/V1#M-CDISC_SDTMMODEL_xxDOSU> . 
:M-CDISC_SDTMMODEL_INTERVENTIONS_xxDOSU_CR bo:enabled "true"^^xsd:boolean . 
:M-CDISC_SDTMMODEL_INTERVENTIONS_xxDOSU_CR bo:optional "false"^^xsd:boolean . 
:M-CDISC_SDTMMODEL_INTERVENTIONS_xxDOSU_CR bo:ordinal "22"^^xsd:positiveInteger . 
:M-CDISC_SDTMMODEL_INTERVENTIONS bd:includesColumn :M-CDISC_SDTMMODEL_INTERVENTIONS_xxDOSU . 
:M-CDISC_SDTMMODEL_INTERVENTIONS_xxDOSFRM rdf:type bd:ClassVariable . 
:M-CDISC_SDTMMODEL_INTERVENTIONS_xxDOSFRM rdfs:label "Dose Form"^^xsd:string . 
:M-CDISC_SDTMMODEL_INTERVENTIONS_xxDOSFRM bd:ordinal "23"^^xsd:positiveInteger . 
:M-CDISC_SDTMMODEL_INTERVENTIONS_xxDOSFRM bd:basedOnVariable :M-CDISC_SDTMMODEL_INTERVENTIONS_xxDOSFRM_CR . 
:M-CDISC_SDTMMODEL_INTERVENTIONS_xxDOSFRM_CR rdf:type bo:CReference . 
:M-CDISC_SDTMMODEL_INTERVENTIONS_xxDOSFRM_CR bo:hasColumn <http://www.assero.co.uk/MDRModels/CDISC/V1#M-CDISC_SDTMMODEL_xxDOSFRM> . 
:M-CDISC_SDTMMODEL_INTERVENTIONS_xxDOSFRM_CR bo:enabled "true"^^xsd:boolean . 
:M-CDISC_SDTMMODEL_INTERVENTIONS_xxDOSFRM_CR bo:optional "false"^^xsd:boolean . 
:M-CDISC_SDTMMODEL_INTERVENTIONS_xxDOSFRM_CR bo:ordinal "23"^^xsd:positiveInteger . 
:M-CDISC_SDTMMODEL_INTERVENTIONS bd:includesColumn :M-CDISC_SDTMMODEL_INTERVENTIONS_xxDOSFRM . 
:M-CDISC_SDTMMODEL_INTERVENTIONS_xxDOSFRQ rdf:type bd:ClassVariable . 
:M-CDISC_SDTMMODEL_INTERVENTIONS_xxDOSFRQ rdfs:label "Dosing Frequency per Interval"^^xsd:string . 
:M-CDISC_SDTMMODEL_INTERVENTIONS_xxDOSFRQ bd:ordinal "24"^^xsd:positiveInteger . 
:M-CDISC_SDTMMODEL_INTERVENTIONS_xxDOSFRQ bd:basedOnVariable :M-CDISC_SDTMMODEL_INTERVENTIONS_xxDOSFRQ_CR . 
:M-CDISC_SDTMMODEL_INTERVENTIONS_xxDOSFRQ_CR rdf:type bo:CReference . 
:M-CDISC_SDTMMODEL_INTERVENTIONS_xxDOSFRQ_CR bo:hasColumn <http://www.assero.co.uk/MDRModels/CDISC/V1#M-CDISC_SDTMMODEL_xxDOSFRQ> . 
:M-CDISC_SDTMMODEL_INTERVENTIONS_xxDOSFRQ_CR bo:enabled "true"^^xsd:boolean . 
:M-CDISC_SDTMMODEL_INTERVENTIONS_xxDOSFRQ_CR bo:optional "false"^^xsd:boolean . 
:M-CDISC_SDTMMODEL_INTERVENTIONS_xxDOSFRQ_CR bo:ordinal "24"^^xsd:positiveInteger . 
:M-CDISC_SDTMMODEL_INTERVENTIONS bd:includesColumn :M-CDISC_SDTMMODEL_INTERVENTIONS_xxDOSFRQ . 
:M-CDISC_SDTMMODEL_INTERVENTIONS_xxDOSTOT rdf:type bd:ClassVariable . 
:M-CDISC_SDTMMODEL_INTERVENTIONS_xxDOSTOT rdfs:label "Total Daily Dose"^^xsd:string . 
:M-CDISC_SDTMMODEL_INTERVENTIONS_xxDOSTOT bd:ordinal "25"^^xsd:positiveInteger . 
:M-CDISC_SDTMMODEL_INTERVENTIONS_xxDOSTOT bd:basedOnVariable :M-CDISC_SDTMMODEL_INTERVENTIONS_xxDOSTOT_CR . 
:M-CDISC_SDTMMODEL_INTERVENTIONS_xxDOSTOT_CR rdf:type bo:CReference . 
:M-CDISC_SDTMMODEL_INTERVENTIONS_xxDOSTOT_CR bo:hasColumn <http://www.assero.co.uk/MDRModels/CDISC/V1#M-CDISC_SDTMMODEL_xxDOSTOT> . 
:M-CDISC_SDTMMODEL_INTERVENTIONS_xxDOSTOT_CR bo:enabled "true"^^xsd:boolean . 
:M-CDISC_SDTMMODEL_INTERVENTIONS_xxDOSTOT_CR bo:optional "false"^^xsd:boolean . 
:M-CDISC_SDTMMODEL_INTERVENTIONS_xxDOSTOT_CR bo:ordinal "25"^^xsd:positiveInteger . 
:M-CDISC_SDTMMODEL_INTERVENTIONS bd:includesColumn :M-CDISC_SDTMMODEL_INTERVENTIONS_xxDOSTOT . 
:M-CDISC_SDTMMODEL_INTERVENTIONS_xxDOSRGM rdf:type bd:ClassVariable . 
:M-CDISC_SDTMMODEL_INTERVENTIONS_xxDOSRGM rdfs:label "Intended Dose Regimen"^^xsd:string . 
:M-CDISC_SDTMMODEL_INTERVENTIONS_xxDOSRGM bd:ordinal "26"^^xsd:positiveInteger . 
:M-CDISC_SDTMMODEL_INTERVENTIONS_xxDOSRGM bd:basedOnVariable :M-CDISC_SDTMMODEL_INTERVENTIONS_xxDOSRGM_CR . 
:M-CDISC_SDTMMODEL_INTERVENTIONS_xxDOSRGM_CR rdf:type bo:CReference . 
:M-CDISC_SDTMMODEL_INTERVENTIONS_xxDOSRGM_CR bo:hasColumn <http://www.assero.co.uk/MDRModels/CDISC/V1#M-CDISC_SDTMMODEL_xxDOSRGM> . 
:M-CDISC_SDTMMODEL_INTERVENTIONS_xxDOSRGM_CR bo:enabled "true"^^xsd:boolean . 
:M-CDISC_SDTMMODEL_INTERVENTIONS_xxDOSRGM_CR bo:optional "false"^^xsd:boolean . 
:M-CDISC_SDTMMODEL_INTERVENTIONS_xxDOSRGM_CR bo:ordinal "26"^^xsd:positiveInteger . 
:M-CDISC_SDTMMODEL_INTERVENTIONS bd:includesColumn :M-CDISC_SDTMMODEL_INTERVENTIONS_xxDOSRGM . 
:M-CDISC_SDTMMODEL_INTERVENTIONS_xxROUTE rdf:type bd:ClassVariable . 
:M-CDISC_SDTMMODEL_INTERVENTIONS_xxROUTE rdfs:label "Route of Administration"^^xsd:string . 
:M-CDISC_SDTMMODEL_INTERVENTIONS_xxROUTE bd:ordinal "27"^^xsd:positiveInteger . 
:M-CDISC_SDTMMODEL_INTERVENTIONS_xxROUTE bd:basedOnVariable :M-CDISC_SDTMMODEL_INTERVENTIONS_xxROUTE_CR . 
:M-CDISC_SDTMMODEL_INTERVENTIONS_xxROUTE_CR rdf:type bo:CReference . 
:M-CDISC_SDTMMODEL_INTERVENTIONS_xxROUTE_CR bo:hasColumn <http://www.assero.co.uk/MDRModels/CDISC/V1#M-CDISC_SDTMMODEL_xxROUTE> . 
:M-CDISC_SDTMMODEL_INTERVENTIONS_xxROUTE_CR bo:enabled "true"^^xsd:boolean . 
:M-CDISC_SDTMMODEL_INTERVENTIONS_xxROUTE_CR bo:optional "false"^^xsd:boolean . 
:M-CDISC_SDTMMODEL_INTERVENTIONS_xxROUTE_CR bo:ordinal "27"^^xsd:positiveInteger . 
:M-CDISC_SDTMMODEL_INTERVENTIONS bd:includesColumn :M-CDISC_SDTMMODEL_INTERVENTIONS_xxROUTE . 
:M-CDISC_SDTMMODEL_INTERVENTIONS_xxLOT rdf:type bd:ClassVariable . 
:M-CDISC_SDTMMODEL_INTERVENTIONS_xxLOT rdfs:label "Lot Number"^^xsd:string . 
:M-CDISC_SDTMMODEL_INTERVENTIONS_xxLOT bd:ordinal "28"^^xsd:positiveInteger . 
:M-CDISC_SDTMMODEL_INTERVENTIONS_xxLOT bd:basedOnVariable :M-CDISC_SDTMMODEL_INTERVENTIONS_xxLOT_CR . 
:M-CDISC_SDTMMODEL_INTERVENTIONS_xxLOT_CR rdf:type bo:CReference . 
:M-CDISC_SDTMMODEL_INTERVENTIONS_xxLOT_CR bo:hasColumn <http://www.assero.co.uk/MDRModels/CDISC/V1#M-CDISC_SDTMMODEL_xxLOT> . 
:M-CDISC_SDTMMODEL_INTERVENTIONS_xxLOT_CR bo:enabled "true"^^xsd:boolean . 
:M-CDISC_SDTMMODEL_INTERVENTIONS_xxLOT_CR bo:optional "false"^^xsd:boolean . 
:M-CDISC_SDTMMODEL_INTERVENTIONS_xxLOT_CR bo:ordinal "28"^^xsd:positiveInteger . 
:M-CDISC_SDTMMODEL_INTERVENTIONS bd:includesColumn :M-CDISC_SDTMMODEL_INTERVENTIONS_xxLOT . 
:M-CDISC_SDTMMODEL_INTERVENTIONS_xxLOC rdf:type bd:ClassVariable . 
:M-CDISC_SDTMMODEL_INTERVENTIONS_xxLOC rdfs:label "Location of Dose Administration"^^xsd:string . 
:M-CDISC_SDTMMODEL_INTERVENTIONS_xxLOC bd:ordinal "29"^^xsd:positiveInteger . 
:M-CDISC_SDTMMODEL_INTERVENTIONS_xxLOC bd:basedOnVariable :M-CDISC_SDTMMODEL_INTERVENTIONS_xxLOC_CR . 
:M-CDISC_SDTMMODEL_INTERVENTIONS_xxLOC_CR rdf:type bo:CReference . 
:M-CDISC_SDTMMODEL_INTERVENTIONS_xxLOC_CR bo:hasColumn <http://www.assero.co.uk/MDRModels/CDISC/V1#M-CDISC_SDTMMODEL_xxLOC> . 
:M-CDISC_SDTMMODEL_INTERVENTIONS_xxLOC_CR bo:enabled "true"^^xsd:boolean . 
:M-CDISC_SDTMMODEL_INTERVENTIONS_xxLOC_CR bo:optional "false"^^xsd:boolean . 
:M-CDISC_SDTMMODEL_INTERVENTIONS_xxLOC_CR bo:ordinal "29"^^xsd:positiveInteger . 
:M-CDISC_SDTMMODEL_INTERVENTIONS bd:includesColumn :M-CDISC_SDTMMODEL_INTERVENTIONS_xxLOC . 
:M-CDISC_SDTMMODEL_INTERVENTIONS_xxTRTV rdf:type bd:ClassVariable . 
:M-CDISC_SDTMMODEL_INTERVENTIONS_xxTRTV rdfs:label "Treatment Vehicle"^^xsd:string . 
:M-CDISC_SDTMMODEL_INTERVENTIONS_xxTRTV bd:ordinal "30"^^xsd:positiveInteger . 
:M-CDISC_SDTMMODEL_INTERVENTIONS_xxTRTV bd:basedOnVariable :M-CDISC_SDTMMODEL_INTERVENTIONS_xxTRTV_CR . 
:M-CDISC_SDTMMODEL_INTERVENTIONS_xxTRTV_CR rdf:type bo:CReference . 
:M-CDISC_SDTMMODEL_INTERVENTIONS_xxTRTV_CR bo:hasColumn <http://www.assero.co.uk/MDRModels/CDISC/V1#M-CDISC_SDTMMODEL_xxTRTV> . 
:M-CDISC_SDTMMODEL_INTERVENTIONS_xxTRTV_CR bo:enabled "true"^^xsd:boolean . 
:M-CDISC_SDTMMODEL_INTERVENTIONS_xxTRTV_CR bo:optional "false"^^xsd:boolean . 
:M-CDISC_SDTMMODEL_INTERVENTIONS_xxTRTV_CR bo:ordinal "30"^^xsd:positiveInteger . 
:M-CDISC_SDTMMODEL_INTERVENTIONS bd:includesColumn :M-CDISC_SDTMMODEL_INTERVENTIONS_xxTRTV . 
:M-CDISC_SDTMMODEL_INTERVENTIONS_xxVAMT rdf:type bd:ClassVariable . 
:M-CDISC_SDTMMODEL_INTERVENTIONS_xxVAMT rdfs:label "Treatment Vehicle Amount"^^xsd:string . 
:M-CDISC_SDTMMODEL_INTERVENTIONS_xxVAMT bd:ordinal "31"^^xsd:positiveInteger . 
:M-CDISC_SDTMMODEL_INTERVENTIONS_xxVAMT bd:basedOnVariable :M-CDISC_SDTMMODEL_INTERVENTIONS_xxVAMT_CR . 
:M-CDISC_SDTMMODEL_INTERVENTIONS_xxVAMT_CR rdf:type bo:CReference . 
:M-CDISC_SDTMMODEL_INTERVENTIONS_xxVAMT_CR bo:hasColumn <http://www.assero.co.uk/MDRModels/CDISC/V1#M-CDISC_SDTMMODEL_xxVAMT> . 
:M-CDISC_SDTMMODEL_INTERVENTIONS_xxVAMT_CR bo:enabled "true"^^xsd:boolean . 
:M-CDISC_SDTMMODEL_INTERVENTIONS_xxVAMT_CR bo:optional "false"^^xsd:boolean . 
:M-CDISC_SDTMMODEL_INTERVENTIONS_xxVAMT_CR bo:ordinal "31"^^xsd:positiveInteger . 
:M-CDISC_SDTMMODEL_INTERVENTIONS bd:includesColumn :M-CDISC_SDTMMODEL_INTERVENTIONS_xxVAMT . 
:M-CDISC_SDTMMODEL_INTERVENTIONS_xxVAMTU rdf:type bd:ClassVariable . 
:M-CDISC_SDTMMODEL_INTERVENTIONS_xxVAMTU rdfs:label "Treatment Vehicle Amount Units"^^xsd:string . 
:M-CDISC_SDTMMODEL_INTERVENTIONS_xxVAMTU bd:ordinal "32"^^xsd:positiveInteger . 
:M-CDISC_SDTMMODEL_INTERVENTIONS_xxVAMTU bd:basedOnVariable :M-CDISC_SDTMMODEL_INTERVENTIONS_xxVAMTU_CR . 
:M-CDISC_SDTMMODEL_INTERVENTIONS_xxVAMTU_CR rdf:type bo:CReference . 
:M-CDISC_SDTMMODEL_INTERVENTIONS_xxVAMTU_CR bo:hasColumn <http://www.assero.co.uk/MDRModels/CDISC/V1#M-CDISC_SDTMMODEL_xxVAMTU> . 
:M-CDISC_SDTMMODEL_INTERVENTIONS_xxVAMTU_CR bo:enabled "true"^^xsd:boolean . 
:M-CDISC_SDTMMODEL_INTERVENTIONS_xxVAMTU_CR bo:optional "false"^^xsd:boolean . 
:M-CDISC_SDTMMODEL_INTERVENTIONS_xxVAMTU_CR bo:ordinal "32"^^xsd:positiveInteger . 
:M-CDISC_SDTMMODEL_INTERVENTIONS bd:includesColumn :M-CDISC_SDTMMODEL_INTERVENTIONS_xxVAMTU . 
:M-CDISC_SDTMMODEL_INTERVENTIONS_xxADJ rdf:type bd:ClassVariable . 
:M-CDISC_SDTMMODEL_INTERVENTIONS_xxADJ rdfs:label "Reason for Dose Adjustment"^^xsd:string . 
:M-CDISC_SDTMMODEL_INTERVENTIONS_xxADJ bd:ordinal "33"^^xsd:positiveInteger . 
:M-CDISC_SDTMMODEL_INTERVENTIONS_xxADJ bd:basedOnVariable :M-CDISC_SDTMMODEL_INTERVENTIONS_xxADJ_CR . 
:M-CDISC_SDTMMODEL_INTERVENTIONS_xxADJ_CR rdf:type bo:CReference . 
:M-CDISC_SDTMMODEL_INTERVENTIONS_xxADJ_CR bo:hasColumn <http://www.assero.co.uk/MDRModels/CDISC/V1#M-CDISC_SDTMMODEL_xxADJ> . 
:M-CDISC_SDTMMODEL_INTERVENTIONS_xxADJ_CR bo:enabled "true"^^xsd:boolean . 
:M-CDISC_SDTMMODEL_INTERVENTIONS_xxADJ_CR bo:optional "false"^^xsd:boolean . 
:M-CDISC_SDTMMODEL_INTERVENTIONS_xxADJ_CR bo:ordinal "33"^^xsd:positiveInteger . 
:M-CDISC_SDTMMODEL_INTERVENTIONS bd:includesColumn :M-CDISC_SDTMMODEL_INTERVENTIONS_xxADJ . 
:M-CDISC_SDTMMODEL_INTERVENTIONS_VISITNUM rdf:type bd:ClassVariable . 
:M-CDISC_SDTMMODEL_INTERVENTIONS_VISITNUM rdfs:label "Visit Number"^^xsd:string . 
:M-CDISC_SDTMMODEL_INTERVENTIONS_VISITNUM bd:ordinal "34"^^xsd:positiveInteger . 
:M-CDISC_SDTMMODEL_INTERVENTIONS_VISITNUM bd:basedOnVariable :M-CDISC_SDTMMODEL_INTERVENTIONS_VISITNUM_CR . 
:M-CDISC_SDTMMODEL_INTERVENTIONS_VISITNUM_CR rdf:type bo:CReference . 
:M-CDISC_SDTMMODEL_INTERVENTIONS_VISITNUM_CR bo:hasColumn <http://www.assero.co.uk/MDRModels/CDISC/V1#M-CDISC_SDTMMODEL_VISITNUM> . 
:M-CDISC_SDTMMODEL_INTERVENTIONS_VISITNUM_CR bo:enabled "true"^^xsd:boolean . 
:M-CDISC_SDTMMODEL_INTERVENTIONS_VISITNUM_CR bo:optional "false"^^xsd:boolean . 
:M-CDISC_SDTMMODEL_INTERVENTIONS_VISITNUM_CR bo:ordinal "34"^^xsd:positiveInteger . 
:M-CDISC_SDTMMODEL_INTERVENTIONS bd:includesColumn :M-CDISC_SDTMMODEL_INTERVENTIONS_VISITNUM . 
:M-CDISC_SDTMMODEL_INTERVENTIONS_VISIT rdf:type bd:ClassVariable . 
:M-CDISC_SDTMMODEL_INTERVENTIONS_VISIT rdfs:label "Visit Name"^^xsd:string . 
:M-CDISC_SDTMMODEL_INTERVENTIONS_VISIT bd:ordinal "35"^^xsd:positiveInteger . 
:M-CDISC_SDTMMODEL_INTERVENTIONS_VISIT bd:basedOnVariable :M-CDISC_SDTMMODEL_INTERVENTIONS_VISIT_CR . 
:M-CDISC_SDTMMODEL_INTERVENTIONS_VISIT_CR rdf:type bo:CReference . 
:M-CDISC_SDTMMODEL_INTERVENTIONS_VISIT_CR bo:hasColumn <http://www.assero.co.uk/MDRModels/CDISC/V1#M-CDISC_SDTMMODEL_VISIT> . 
:M-CDISC_SDTMMODEL_INTERVENTIONS_VISIT_CR bo:enabled "true"^^xsd:boolean . 
:M-CDISC_SDTMMODEL_INTERVENTIONS_VISIT_CR bo:optional "false"^^xsd:boolean . 
:M-CDISC_SDTMMODEL_INTERVENTIONS_VISIT_CR bo:ordinal "35"^^xsd:positiveInteger . 
:M-CDISC_SDTMMODEL_INTERVENTIONS bd:includesColumn :M-CDISC_SDTMMODEL_INTERVENTIONS_VISIT . 
:M-CDISC_SDTMMODEL_INTERVENTIONS_VISITDY rdf:type bd:ClassVariable . 
:M-CDISC_SDTMMODEL_INTERVENTIONS_VISITDY rdfs:label "Planned Study Day of Visit"^^xsd:string . 
:M-CDISC_SDTMMODEL_INTERVENTIONS_VISITDY bd:ordinal "36"^^xsd:positiveInteger . 
:M-CDISC_SDTMMODEL_INTERVENTIONS_VISITDY bd:basedOnVariable :M-CDISC_SDTMMODEL_INTERVENTIONS_VISITDY_CR . 
:M-CDISC_SDTMMODEL_INTERVENTIONS_VISITDY_CR rdf:type bo:CReference . 
:M-CDISC_SDTMMODEL_INTERVENTIONS_VISITDY_CR bo:hasColumn <http://www.assero.co.uk/MDRModels/CDISC/V1#M-CDISC_SDTMMODEL_VISITDY> . 
:M-CDISC_SDTMMODEL_INTERVENTIONS_VISITDY_CR bo:enabled "true"^^xsd:boolean . 
:M-CDISC_SDTMMODEL_INTERVENTIONS_VISITDY_CR bo:optional "false"^^xsd:boolean . 
:M-CDISC_SDTMMODEL_INTERVENTIONS_VISITDY_CR bo:ordinal "36"^^xsd:positiveInteger . 
:M-CDISC_SDTMMODEL_INTERVENTIONS bd:includesColumn :M-CDISC_SDTMMODEL_INTERVENTIONS_VISITDY . 
:M-CDISC_SDTMMODEL_INTERVENTIONS_TAETORD rdf:type bd:ClassVariable . 
:M-CDISC_SDTMMODEL_INTERVENTIONS_TAETORD rdfs:label "Planned Order of Elements within Arm"^^xsd:string . 
:M-CDISC_SDTMMODEL_INTERVENTIONS_TAETORD bd:ordinal "37"^^xsd:positiveInteger . 
:M-CDISC_SDTMMODEL_INTERVENTIONS_TAETORD bd:basedOnVariable :M-CDISC_SDTMMODEL_INTERVENTIONS_TAETORD_CR . 
:M-CDISC_SDTMMODEL_INTERVENTIONS_TAETORD_CR rdf:type bo:CReference . 
:M-CDISC_SDTMMODEL_INTERVENTIONS_TAETORD_CR bo:hasColumn <http://www.assero.co.uk/MDRModels/CDISC/V1#M-CDISC_SDTMMODEL_TAETORD> . 
:M-CDISC_SDTMMODEL_INTERVENTIONS_TAETORD_CR bo:enabled "true"^^xsd:boolean . 
:M-CDISC_SDTMMODEL_INTERVENTIONS_TAETORD_CR bo:optional "false"^^xsd:boolean . 
:M-CDISC_SDTMMODEL_INTERVENTIONS_TAETORD_CR bo:ordinal "37"^^xsd:positiveInteger . 
:M-CDISC_SDTMMODEL_INTERVENTIONS bd:includesColumn :M-CDISC_SDTMMODEL_INTERVENTIONS_TAETORD . 
:M-CDISC_SDTMMODEL_INTERVENTIONS_EPOCH rdf:type bd:ClassVariable . 
:M-CDISC_SDTMMODEL_INTERVENTIONS_EPOCH rdfs:label "Epoch"^^xsd:string . 
:M-CDISC_SDTMMODEL_INTERVENTIONS_EPOCH bd:ordinal "38"^^xsd:positiveInteger . 
:M-CDISC_SDTMMODEL_INTERVENTIONS_EPOCH bd:basedOnVariable :M-CDISC_SDTMMODEL_INTERVENTIONS_EPOCH_CR . 
:M-CDISC_SDTMMODEL_INTERVENTIONS_EPOCH_CR rdf:type bo:CReference . 
:M-CDISC_SDTMMODEL_INTERVENTIONS_EPOCH_CR bo:hasColumn <http://www.assero.co.uk/MDRModels/CDISC/V1#M-CDISC_SDTMMODEL_EPOCH> . 
:M-CDISC_SDTMMODEL_INTERVENTIONS_EPOCH_CR bo:enabled "true"^^xsd:boolean . 
:M-CDISC_SDTMMODEL_INTERVENTIONS_EPOCH_CR bo:optional "false"^^xsd:boolean . 
:M-CDISC_SDTMMODEL_INTERVENTIONS_EPOCH_CR bo:ordinal "38"^^xsd:positiveInteger . 
:M-CDISC_SDTMMODEL_INTERVENTIONS bd:includesColumn :M-CDISC_SDTMMODEL_INTERVENTIONS_EPOCH . 
:M-CDISC_SDTMMODEL_INTERVENTIONS_xxDTC rdf:type bd:ClassVariable . 
:M-CDISC_SDTMMODEL_INTERVENTIONS_xxDTC rdfs:label "Date/Time of Collection"^^xsd:string . 
:M-CDISC_SDTMMODEL_INTERVENTIONS_xxDTC bd:ordinal "39"^^xsd:positiveInteger . 
:M-CDISC_SDTMMODEL_INTERVENTIONS_xxDTC bd:basedOnVariable :M-CDISC_SDTMMODEL_INTERVENTIONS_xxDTC_CR . 
:M-CDISC_SDTMMODEL_INTERVENTIONS_xxDTC_CR rdf:type bo:CReference . 
:M-CDISC_SDTMMODEL_INTERVENTIONS_xxDTC_CR bo:hasColumn <http://www.assero.co.uk/MDRModels/CDISC/V1#M-CDISC_SDTMMODEL_xxDTC> . 
:M-CDISC_SDTMMODEL_INTERVENTIONS_xxDTC_CR bo:enabled "true"^^xsd:boolean . 
:M-CDISC_SDTMMODEL_INTERVENTIONS_xxDTC_CR bo:optional "false"^^xsd:boolean . 
:M-CDISC_SDTMMODEL_INTERVENTIONS_xxDTC_CR bo:ordinal "39"^^xsd:positiveInteger . 
:M-CDISC_SDTMMODEL_INTERVENTIONS bd:includesColumn :M-CDISC_SDTMMODEL_INTERVENTIONS_xxDTC . 
:M-CDISC_SDTMMODEL_INTERVENTIONS_xxSTDTC rdf:type bd:ClassVariable . 
:M-CDISC_SDTMMODEL_INTERVENTIONS_xxSTDTC rdfs:label "Start Date/Time of Observation"^^xsd:string . 
:M-CDISC_SDTMMODEL_INTERVENTIONS_xxSTDTC bd:ordinal "40"^^xsd:positiveInteger . 
:M-CDISC_SDTMMODEL_INTERVENTIONS_xxSTDTC bd:basedOnVariable :M-CDISC_SDTMMODEL_INTERVENTIONS_xxSTDTC_CR . 
:M-CDISC_SDTMMODEL_INTERVENTIONS_xxSTDTC_CR rdf:type bo:CReference . 
:M-CDISC_SDTMMODEL_INTERVENTIONS_xxSTDTC_CR bo:hasColumn <http://www.assero.co.uk/MDRModels/CDISC/V1#M-CDISC_SDTMMODEL_xxSTDTC> . 
:M-CDISC_SDTMMODEL_INTERVENTIONS_xxSTDTC_CR bo:enabled "true"^^xsd:boolean . 
:M-CDISC_SDTMMODEL_INTERVENTIONS_xxSTDTC_CR bo:optional "false"^^xsd:boolean . 
:M-CDISC_SDTMMODEL_INTERVENTIONS_xxSTDTC_CR bo:ordinal "40"^^xsd:positiveInteger . 
:M-CDISC_SDTMMODEL_INTERVENTIONS bd:includesColumn :M-CDISC_SDTMMODEL_INTERVENTIONS_xxSTDTC . 
:M-CDISC_SDTMMODEL_INTERVENTIONS_xxENDTC rdf:type bd:ClassVariable . 
:M-CDISC_SDTMMODEL_INTERVENTIONS_xxENDTC rdfs:label "End Date/Time of Observation"^^xsd:string . 
:M-CDISC_SDTMMODEL_INTERVENTIONS_xxENDTC bd:ordinal "41"^^xsd:positiveInteger . 
:M-CDISC_SDTMMODEL_INTERVENTIONS_xxENDTC bd:basedOnVariable :M-CDISC_SDTMMODEL_INTERVENTIONS_xxENDTC_CR . 
:M-CDISC_SDTMMODEL_INTERVENTIONS_xxENDTC_CR rdf:type bo:CReference . 
:M-CDISC_SDTMMODEL_INTERVENTIONS_xxENDTC_CR bo:hasColumn <http://www.assero.co.uk/MDRModels/CDISC/V1#M-CDISC_SDTMMODEL_xxENDTC> . 
:M-CDISC_SDTMMODEL_INTERVENTIONS_xxENDTC_CR bo:enabled "true"^^xsd:boolean . 
:M-CDISC_SDTMMODEL_INTERVENTIONS_xxENDTC_CR bo:optional "false"^^xsd:boolean . 
:M-CDISC_SDTMMODEL_INTERVENTIONS_xxENDTC_CR bo:ordinal "41"^^xsd:positiveInteger . 
:M-CDISC_SDTMMODEL_INTERVENTIONS bd:includesColumn :M-CDISC_SDTMMODEL_INTERVENTIONS_xxENDTC . 
:M-CDISC_SDTMMODEL_INTERVENTIONS_xxDY rdf:type bd:ClassVariable . 
:M-CDISC_SDTMMODEL_INTERVENTIONS_xxDY rdfs:label "Study Day of Visit/Collection/Exam"^^xsd:string . 
:M-CDISC_SDTMMODEL_INTERVENTIONS_xxDY bd:ordinal "42"^^xsd:positiveInteger . 
:M-CDISC_SDTMMODEL_INTERVENTIONS_xxDY bd:basedOnVariable :M-CDISC_SDTMMODEL_INTERVENTIONS_xxDY_CR . 
:M-CDISC_SDTMMODEL_INTERVENTIONS_xxDY_CR rdf:type bo:CReference . 
:M-CDISC_SDTMMODEL_INTERVENTIONS_xxDY_CR bo:hasColumn <http://www.assero.co.uk/MDRModels/CDISC/V1#M-CDISC_SDTMMODEL_xxDY> . 
:M-CDISC_SDTMMODEL_INTERVENTIONS_xxDY_CR bo:enabled "true"^^xsd:boolean . 
:M-CDISC_SDTMMODEL_INTERVENTIONS_xxDY_CR bo:optional "false"^^xsd:boolean . 
:M-CDISC_SDTMMODEL_INTERVENTIONS_xxDY_CR bo:ordinal "42"^^xsd:positiveInteger . 
:M-CDISC_SDTMMODEL_INTERVENTIONS bd:includesColumn :M-CDISC_SDTMMODEL_INTERVENTIONS_xxDY . 
:M-CDISC_SDTMMODEL_INTERVENTIONS_xxSTDY rdf:type bd:ClassVariable . 
:M-CDISC_SDTMMODEL_INTERVENTIONS_xxSTDY rdfs:label "Study Day of Start of Observation"^^xsd:string . 
:M-CDISC_SDTMMODEL_INTERVENTIONS_xxSTDY bd:ordinal "43"^^xsd:positiveInteger . 
:M-CDISC_SDTMMODEL_INTERVENTIONS_xxSTDY bd:basedOnVariable :M-CDISC_SDTMMODEL_INTERVENTIONS_xxSTDY_CR . 
:M-CDISC_SDTMMODEL_INTERVENTIONS_xxSTDY_CR rdf:type bo:CReference . 
:M-CDISC_SDTMMODEL_INTERVENTIONS_xxSTDY_CR bo:hasColumn <http://www.assero.co.uk/MDRModels/CDISC/V1#M-CDISC_SDTMMODEL_xxSTDY> . 
:M-CDISC_SDTMMODEL_INTERVENTIONS_xxSTDY_CR bo:enabled "true"^^xsd:boolean . 
:M-CDISC_SDTMMODEL_INTERVENTIONS_xxSTDY_CR bo:optional "false"^^xsd:boolean . 
:M-CDISC_SDTMMODEL_INTERVENTIONS_xxSTDY_CR bo:ordinal "43"^^xsd:positiveInteger . 
:M-CDISC_SDTMMODEL_INTERVENTIONS bd:includesColumn :M-CDISC_SDTMMODEL_INTERVENTIONS_xxSTDY . 
:M-CDISC_SDTMMODEL_INTERVENTIONS_xxENDY rdf:type bd:ClassVariable . 
:M-CDISC_SDTMMODEL_INTERVENTIONS_xxENDY rdfs:label "Study Day of End of Observation"^^xsd:string . 
:M-CDISC_SDTMMODEL_INTERVENTIONS_xxENDY bd:ordinal "44"^^xsd:positiveInteger . 
:M-CDISC_SDTMMODEL_INTERVENTIONS_xxENDY bd:basedOnVariable :M-CDISC_SDTMMODEL_INTERVENTIONS_xxENDY_CR . 
:M-CDISC_SDTMMODEL_INTERVENTIONS_xxENDY_CR rdf:type bo:CReference . 
:M-CDISC_SDTMMODEL_INTERVENTIONS_xxENDY_CR bo:hasColumn <http://www.assero.co.uk/MDRModels/CDISC/V1#M-CDISC_SDTMMODEL_xxENDY> . 
:M-CDISC_SDTMMODEL_INTERVENTIONS_xxENDY_CR bo:enabled "true"^^xsd:boolean . 
:M-CDISC_SDTMMODEL_INTERVENTIONS_xxENDY_CR bo:optional "false"^^xsd:boolean . 
:M-CDISC_SDTMMODEL_INTERVENTIONS_xxENDY_CR bo:ordinal "44"^^xsd:positiveInteger . 
:M-CDISC_SDTMMODEL_INTERVENTIONS bd:includesColumn :M-CDISC_SDTMMODEL_INTERVENTIONS_xxENDY . 
:M-CDISC_SDTMMODEL_INTERVENTIONS_xxDUR rdf:type bd:ClassVariable . 
:M-CDISC_SDTMMODEL_INTERVENTIONS_xxDUR rdfs:label "Duration"^^xsd:string . 
:M-CDISC_SDTMMODEL_INTERVENTIONS_xxDUR bd:ordinal "45"^^xsd:positiveInteger . 
:M-CDISC_SDTMMODEL_INTERVENTIONS_xxDUR bd:basedOnVariable :M-CDISC_SDTMMODEL_INTERVENTIONS_xxDUR_CR . 
:M-CDISC_SDTMMODEL_INTERVENTIONS_xxDUR_CR rdf:type bo:CReference . 
:M-CDISC_SDTMMODEL_INTERVENTIONS_xxDUR_CR bo:hasColumn <http://www.assero.co.uk/MDRModels/CDISC/V1#M-CDISC_SDTMMODEL_xxDUR> . 
:M-CDISC_SDTMMODEL_INTERVENTIONS_xxDUR_CR bo:enabled "true"^^xsd:boolean . 
:M-CDISC_SDTMMODEL_INTERVENTIONS_xxDUR_CR bo:optional "false"^^xsd:boolean . 
:M-CDISC_SDTMMODEL_INTERVENTIONS_xxDUR_CR bo:ordinal "45"^^xsd:positiveInteger . 
:M-CDISC_SDTMMODEL_INTERVENTIONS bd:includesColumn :M-CDISC_SDTMMODEL_INTERVENTIONS_xxDUR . 
:M-CDISC_SDTMMODEL_INTERVENTIONS_xxTPT rdf:type bd:ClassVariable . 
:M-CDISC_SDTMMODEL_INTERVENTIONS_xxTPT rdfs:label "Planned Time Point Name"^^xsd:string . 
:M-CDISC_SDTMMODEL_INTERVENTIONS_xxTPT bd:ordinal "46"^^xsd:positiveInteger . 
:M-CDISC_SDTMMODEL_INTERVENTIONS_xxTPT bd:basedOnVariable :M-CDISC_SDTMMODEL_INTERVENTIONS_xxTPT_CR . 
:M-CDISC_SDTMMODEL_INTERVENTIONS_xxTPT_CR rdf:type bo:CReference . 
:M-CDISC_SDTMMODEL_INTERVENTIONS_xxTPT_CR bo:hasColumn <http://www.assero.co.uk/MDRModels/CDISC/V1#M-CDISC_SDTMMODEL_xxTPT> . 
:M-CDISC_SDTMMODEL_INTERVENTIONS_xxTPT_CR bo:enabled "true"^^xsd:boolean . 
:M-CDISC_SDTMMODEL_INTERVENTIONS_xxTPT_CR bo:optional "false"^^xsd:boolean . 
:M-CDISC_SDTMMODEL_INTERVENTIONS_xxTPT_CR bo:ordinal "46"^^xsd:positiveInteger . 
:M-CDISC_SDTMMODEL_INTERVENTIONS bd:includesColumn :M-CDISC_SDTMMODEL_INTERVENTIONS_xxTPT . 
:M-CDISC_SDTMMODEL_INTERVENTIONS_xxTPTNUM rdf:type bd:ClassVariable . 
:M-CDISC_SDTMMODEL_INTERVENTIONS_xxTPTNUM rdfs:label "Planned Time Point Number"^^xsd:string . 
:M-CDISC_SDTMMODEL_INTERVENTIONS_xxTPTNUM bd:ordinal "47"^^xsd:positiveInteger . 
:M-CDISC_SDTMMODEL_INTERVENTIONS_xxTPTNUM bd:basedOnVariable :M-CDISC_SDTMMODEL_INTERVENTIONS_xxTPTNUM_CR . 
:M-CDISC_SDTMMODEL_INTERVENTIONS_xxTPTNUM_CR rdf:type bo:CReference . 
:M-CDISC_SDTMMODEL_INTERVENTIONS_xxTPTNUM_CR bo:hasColumn <http://www.assero.co.uk/MDRModels/CDISC/V1#M-CDISC_SDTMMODEL_xxTPTNUM> . 
:M-CDISC_SDTMMODEL_INTERVENTIONS_xxTPTNUM_CR bo:enabled "true"^^xsd:boolean . 
:M-CDISC_SDTMMODEL_INTERVENTIONS_xxTPTNUM_CR bo:optional "false"^^xsd:boolean . 
:M-CDISC_SDTMMODEL_INTERVENTIONS_xxTPTNUM_CR bo:ordinal "47"^^xsd:positiveInteger . 
:M-CDISC_SDTMMODEL_INTERVENTIONS bd:includesColumn :M-CDISC_SDTMMODEL_INTERVENTIONS_xxTPTNUM . 
:M-CDISC_SDTMMODEL_INTERVENTIONS_xxELTM rdf:type bd:ClassVariable . 
:M-CDISC_SDTMMODEL_INTERVENTIONS_xxELTM rdfs:label "Planned Elapsed Time from Time Point Ref"^^xsd:string . 
:M-CDISC_SDTMMODEL_INTERVENTIONS_xxELTM bd:ordinal "48"^^xsd:positiveInteger . 
:M-CDISC_SDTMMODEL_INTERVENTIONS_xxELTM bd:basedOnVariable :M-CDISC_SDTMMODEL_INTERVENTIONS_xxELTM_CR . 
:M-CDISC_SDTMMODEL_INTERVENTIONS_xxELTM_CR rdf:type bo:CReference . 
:M-CDISC_SDTMMODEL_INTERVENTIONS_xxELTM_CR bo:hasColumn <http://www.assero.co.uk/MDRModels/CDISC/V1#M-CDISC_SDTMMODEL_xxELTM> . 
:M-CDISC_SDTMMODEL_INTERVENTIONS_xxELTM_CR bo:enabled "true"^^xsd:boolean . 
:M-CDISC_SDTMMODEL_INTERVENTIONS_xxELTM_CR bo:optional "false"^^xsd:boolean . 
:M-CDISC_SDTMMODEL_INTERVENTIONS_xxELTM_CR bo:ordinal "48"^^xsd:positiveInteger . 
:M-CDISC_SDTMMODEL_INTERVENTIONS bd:includesColumn :M-CDISC_SDTMMODEL_INTERVENTIONS_xxELTM . 
:M-CDISC_SDTMMODEL_INTERVENTIONS_xxTPTREF rdf:type bd:ClassVariable . 
:M-CDISC_SDTMMODEL_INTERVENTIONS_xxTPTREF rdfs:label "Time Point Reference"^^xsd:string . 
:M-CDISC_SDTMMODEL_INTERVENTIONS_xxTPTREF bd:ordinal "49"^^xsd:positiveInteger . 
:M-CDISC_SDTMMODEL_INTERVENTIONS_xxTPTREF bd:basedOnVariable :M-CDISC_SDTMMODEL_INTERVENTIONS_xxTPTREF_CR . 
:M-CDISC_SDTMMODEL_INTERVENTIONS_xxTPTREF_CR rdf:type bo:CReference . 
:M-CDISC_SDTMMODEL_INTERVENTIONS_xxTPTREF_CR bo:hasColumn <http://www.assero.co.uk/MDRModels/CDISC/V1#M-CDISC_SDTMMODEL_xxTPTREF> . 
:M-CDISC_SDTMMODEL_INTERVENTIONS_xxTPTREF_CR bo:enabled "true"^^xsd:boolean . 
:M-CDISC_SDTMMODEL_INTERVENTIONS_xxTPTREF_CR bo:optional "false"^^xsd:boolean . 
:M-CDISC_SDTMMODEL_INTERVENTIONS_xxTPTREF_CR bo:ordinal "49"^^xsd:positiveInteger . 
:M-CDISC_SDTMMODEL_INTERVENTIONS bd:includesColumn :M-CDISC_SDTMMODEL_INTERVENTIONS_xxTPTREF . 
:M-CDISC_SDTMMODEL_INTERVENTIONS_xxRFTDTC rdf:type bd:ClassVariable . 
:M-CDISC_SDTMMODEL_INTERVENTIONS_xxRFTDTC rdfs:label "Date/Time of Reference Time Point"^^xsd:string . 
:M-CDISC_SDTMMODEL_INTERVENTIONS_xxRFTDTC bd:ordinal "50"^^xsd:positiveInteger . 
:M-CDISC_SDTMMODEL_INTERVENTIONS_xxRFTDTC bd:basedOnVariable :M-CDISC_SDTMMODEL_INTERVENTIONS_xxRFTDTC_CR . 
:M-CDISC_SDTMMODEL_INTERVENTIONS_xxRFTDTC_CR rdf:type bo:CReference . 
:M-CDISC_SDTMMODEL_INTERVENTIONS_xxRFTDTC_CR bo:hasColumn <http://www.assero.co.uk/MDRModels/CDISC/V1#M-CDISC_SDTMMODEL_xxRFTDTC> . 
:M-CDISC_SDTMMODEL_INTERVENTIONS_xxRFTDTC_CR bo:enabled "true"^^xsd:boolean . 
:M-CDISC_SDTMMODEL_INTERVENTIONS_xxRFTDTC_CR bo:optional "false"^^xsd:boolean . 
:M-CDISC_SDTMMODEL_INTERVENTIONS_xxRFTDTC_CR bo:ordinal "50"^^xsd:positiveInteger . 
:M-CDISC_SDTMMODEL_INTERVENTIONS bd:includesColumn :M-CDISC_SDTMMODEL_INTERVENTIONS_xxRFTDTC . 
:M-CDISC_SDTMMODEL_INTERVENTIONS_xxSTRF rdf:type bd:ClassVariable . 
:M-CDISC_SDTMMODEL_INTERVENTIONS_xxSTRF rdfs:label "Start Relative to Reference Period"^^xsd:string . 
:M-CDISC_SDTMMODEL_INTERVENTIONS_xxSTRF bd:ordinal "51"^^xsd:positiveInteger . 
:M-CDISC_SDTMMODEL_INTERVENTIONS_xxSTRF bd:basedOnVariable :M-CDISC_SDTMMODEL_INTERVENTIONS_xxSTRF_CR . 
:M-CDISC_SDTMMODEL_INTERVENTIONS_xxSTRF_CR rdf:type bo:CReference . 
:M-CDISC_SDTMMODEL_INTERVENTIONS_xxSTRF_CR bo:hasColumn <http://www.assero.co.uk/MDRModels/CDISC/V1#M-CDISC_SDTMMODEL_xxSTRF> . 
:M-CDISC_SDTMMODEL_INTERVENTIONS_xxSTRF_CR bo:enabled "true"^^xsd:boolean . 
:M-CDISC_SDTMMODEL_INTERVENTIONS_xxSTRF_CR bo:optional "false"^^xsd:boolean . 
:M-CDISC_SDTMMODEL_INTERVENTIONS_xxSTRF_CR bo:ordinal "51"^^xsd:positiveInteger . 
:M-CDISC_SDTMMODEL_INTERVENTIONS bd:includesColumn :M-CDISC_SDTMMODEL_INTERVENTIONS_xxSTRF . 
:M-CDISC_SDTMMODEL_INTERVENTIONS_xxENRF rdf:type bd:ClassVariable . 
:M-CDISC_SDTMMODEL_INTERVENTIONS_xxENRF rdfs:label "End Relative to Reference Period"^^xsd:string . 
:M-CDISC_SDTMMODEL_INTERVENTIONS_xxENRF bd:ordinal "52"^^xsd:positiveInteger . 
:M-CDISC_SDTMMODEL_INTERVENTIONS_xxENRF bd:basedOnVariable :M-CDISC_SDTMMODEL_INTERVENTIONS_xxENRF_CR . 
:M-CDISC_SDTMMODEL_INTERVENTIONS_xxENRF_CR rdf:type bo:CReference . 
:M-CDISC_SDTMMODEL_INTERVENTIONS_xxENRF_CR bo:hasColumn <http://www.assero.co.uk/MDRModels/CDISC/V1#M-CDISC_SDTMMODEL_xxENRF> . 
:M-CDISC_SDTMMODEL_INTERVENTIONS_xxENRF_CR bo:enabled "true"^^xsd:boolean . 
:M-CDISC_SDTMMODEL_INTERVENTIONS_xxENRF_CR bo:optional "false"^^xsd:boolean . 
:M-CDISC_SDTMMODEL_INTERVENTIONS_xxENRF_CR bo:ordinal "52"^^xsd:positiveInteger . 
:M-CDISC_SDTMMODEL_INTERVENTIONS bd:includesColumn :M-CDISC_SDTMMODEL_INTERVENTIONS_xxENRF . 
:M-CDISC_SDTMMODEL_INTERVENTIONS_xxEVLINT rdf:type bd:ClassVariable . 
:M-CDISC_SDTMMODEL_INTERVENTIONS_xxEVLINT rdfs:label "Evaluation Interval"^^xsd:string . 
:M-CDISC_SDTMMODEL_INTERVENTIONS_xxEVLINT bd:ordinal "53"^^xsd:positiveInteger . 
:M-CDISC_SDTMMODEL_INTERVENTIONS_xxEVLINT bd:basedOnVariable :M-CDISC_SDTMMODEL_INTERVENTIONS_xxEVLINT_CR . 
