PREFIX : <http://www.assero.co.uk/MDRModels/CDISC/V2#>
PREFIX isoI: <http://www.assero.co.uk/ISO11179Identification#>
PREFIX mdrItems: <http://www.assero.co.uk/MDRItems#>
PREFIX isoR: <http://www.assero.co.uk/ISO11179Registration#>
PREFIX bd: <http://www.assero.co.uk/BusinessDomain#>
PREFIX isoT: <http://www.assero.co.uk/ISO11179Types#>
PREFIX bo: <http://www.assero.co.uk/BusinessOperational#>
PREFIX rdf: <http://www.w3.org/1999/02/22-rdf-syntax-ns#>
PREFIX rdfs: <http://www.w3.org/2000/01/rdf-schema#>
PREFIX xsd: <http://www.w3.org/2001/XMLSchema#>
PREFIX skos: <http://www.w3.org/2004/02/skos/core#>
INSERT DATA 
{ 
mdrItems:SI-CDISC_SDTMIG-2 rdf:type isoI:ScopedIdentifier . 
mdrItems:SI-CDISC_SDTMIG-2 isoI:identifier "SDTM IG"^^xsd:string . 
mdrItems:SI-CDISC_SDTMIG-2 isoI:version "2"^^xsd:positiveInteger . 
mdrItems:SI-CDISC_SDTMIG-2 isoI:versionLabel "3.1.2"^^xsd:string . 
mdrItems:SI-CDISC_SDTMIG-2 isoI:hasScope mdrItems:NS-CDISC . 
mdrItems:RS-CDISC_SDTMIG-2 rdf:type isoR:RegistrationState . 
mdrItems:RS-CDISC_SDTMIG-2 isoR:byAuthority mdrItems:RA-084433759 . 
mdrItems:RS-CDISC_SDTMIG-2 isoR:registrationStatus "Standard"^^xsd:string . 
mdrItems:RS-CDISC_SDTMIG-2 isoR:administrativeNote ""^^xsd:string . 
mdrItems:RS-CDISC_SDTMIG-2 isoR:effectiveDate "2016-01-01T00:00:00Z"^^xsd:dateTime . 
mdrItems:RS-CDISC_SDTMIG-2 isoR:untilDate "2016-01-01T00:00:00Z"^^xsd:dateTime . 
mdrItems:RS-CDISC_SDTMIG-2 isoR:unresolvedIssue ""^^xsd:string . 
mdrItems:RS-CDISC_SDTMIG-2 isoR:administrativeStatus ""^^xsd:string . 
mdrItems:RS-CDISC_SDTMIG-2 isoR:previousState "Standard"^^xsd:string . 
:IG-CDISC_SDTMIG rdf:type bd:ImplementationGuide . 
:IG-CDISC_SDTMIG isoI:hasIdentifier mdrItems:SI-CDISC_SDTMIG-2 . 
:IG-CDISC_SDTMIG isoR:hasState mdrItems:RS-CDISC_SDTMIG-2 . 
:IG-CDISC_SDTMIG rdfs:label "SDTM Implementation Guide 2008-11-12"^^xsd:string . 
:IG-CDISC_SDTMIG isoT:creationDate "2008-11-12"^^xsd:string . 
:IG-CDISC_SDTMIG isoT:lastChangeDate "2016-07-15T08:12:50+01:00"^^xsd:string . 
:IG-CDISC_SDTMIG isoT:changeDescription ""^^xsd:string . 
:IG-CDISC_SDTMIG isoT:explanatoryComment ""^^xsd:string . 
:IG-CDISC_SDTMIG isoT:origin ""^^xsd:string . 
:IG-CDISC_SDTMIG_C_REQUIRED rdf:type bd:VariableCompliance . 
:IG-CDISC_SDTMIG_C_REQUIRED rdfs:label "Required"^^xsd:string . 
:IG-CDISC_SDTMIG_C_PERMISSIBLE rdf:type bd:VariableCompliance . 
:IG-CDISC_SDTMIG_C_PERMISSIBLE rdfs:label "Permissible"^^xsd:string . 
:IG-CDISC_SDTMIG_C_EXPECTED rdf:type bd:VariableCompliance . 
:IG-CDISC_SDTMIG_C_EXPECTED rdfs:label "Expected"^^xsd:string . 
mdrItems:SI-CDISC_SDTMIGAE-2 rdf:type isoI:ScopedIdentifier . 
mdrItems:SI-CDISC_SDTMIGAE-2 isoI:identifier "SDTM IG AE"^^xsd:string . 
mdrItems:SI-CDISC_SDTMIGAE-2 isoI:version "2"^^xsd:positiveInteger . 
mdrItems:SI-CDISC_SDTMIGAE-2 isoI:versionLabel "3.1.2"^^xsd:string . 
mdrItems:SI-CDISC_SDTMIGAE-2 isoI:hasScope mdrItems:NS-CDISC . 
mdrItems:RS-CDISC_SDTMIGAE-2 rdf:type isoR:RegistrationState . 
mdrItems:RS-CDISC_SDTMIGAE-2 isoR:byAuthority mdrItems:RA-084433759 . 
mdrItems:RS-CDISC_SDTMIGAE-2 isoR:registrationStatus "Standard"^^xsd:string . 
mdrItems:RS-CDISC_SDTMIGAE-2 isoR:administrativeNote ""^^xsd:string . 
mdrItems:RS-CDISC_SDTMIGAE-2 isoR:effectiveDate "2016-01-01T00:00:00Z"^^xsd:dateTime . 
mdrItems:RS-CDISC_SDTMIGAE-2 isoR:untilDate "2016-01-01T00:00:00Z"^^xsd:dateTime . 
mdrItems:RS-CDISC_SDTMIGAE-2 isoR:unresolvedIssue ""^^xsd:string . 
mdrItems:RS-CDISC_SDTMIGAE-2 isoR:administrativeStatus ""^^xsd:string . 
mdrItems:RS-CDISC_SDTMIGAE-2 isoR:previousState "Standard"^^xsd:string . 
:IG-CDISC_SDTMIGAE rdf:type bd:IGDomain . 
:IG-CDISC_SDTMIGAE isoI:hasIdentifier mdrItems:SI-CDISC_SDTMIGAE-2 . 
:IG-CDISC_SDTMIGAE isoR:hasState mdrItems:RS-CDISC_SDTMIGAE-2 . 
:IG-CDISC_SDTMIGAE rdfs:label "Adverse Events"^^xsd:string . 
:IG-CDISC_SDTMIGAE isoT:creationDate "2016-07-15"^^xsd:string . 
:IG-CDISC_SDTMIGAE isoT:lastChangeDate "2016-07-15T08:12:50+01:00"^^xsd:string . 
:IG-CDISC_SDTMIGAE isoT:changeDescription ""^^xsd:string . 
:IG-CDISC_SDTMIGAE isoT:explanatoryComment ""^^xsd:string . 
:IG-CDISC_SDTMIGAE isoT:origin ""^^xsd:string . 
:IG-CDISC_SDTMIGAE bd:prefix ""^^xsd:string . 
:IG-CDISC_SDTMIGAE bd:structure ""^^xsd:string . 
:IG-CDISC_SDTMIGAE bd:basedOnDomain :IG-CDISC_SDTMIGAE_CLR . 
:IG-CDISC_SDTMIGAE_CLR rdf:type bo:TReference . 
:IG-CDISC_SDTMIGAE_CLR bo:hasTabulation <http://www.assero.co.uk/MDRModels/CDISC/V1#M-CDISC_SDTMMODEL_EVENTS> . 
:IG-CDISC_SDTMIGAE_CLR bo:enabled "true"^^xsd:boolean . 
:IG-CDISC_SDTMIGAE_CLR bo:optional "false"^^xsd:boolean . 
:IG-CDISC_SDTMIGAE_CLR bo:ordinal "1"^^xsd:positiveInteger . 
:IG-CDISC_SDTMIGAE_STUDYID rdf:type bd:IgVariable . 
:IG-CDISC_SDTMIGAE_STUDYID rdfs:label "Study Identifier"^^xsd:string . 
:IG-CDISC_SDTMIGAE_STUDYID bd:ordinal "1"^^xsd:positiveInteger . 
:IG-CDISC_SDTMIGAE_STUDYID bd:controlled_term_or_format ""^^xsd:string . 
:IG-CDISC_SDTMIGAE_STUDYID bd:notes "Unique identifier for a study."^^xsd:string . 
:IG-CDISC_SDTMIGAE_STUDYID bd:name "STUDYID"^^xsd:string . 
:IG-CDISC_SDTMIGAE_STUDYID bd:basedOnVariable :IG-CDISC_SDTMIGAE_STUDYID_VR . 
:IG-CDISC_SDTMIGAE_STUDYID_VR rdf:type bo:CReference . 
:IG-CDISC_SDTMIGAE_STUDYID_VR bo:hasColumn <http://www.assero.co.uk/MDRModels/CDISC/V1#M-CDISC_SDTMMODEL_EVENTS_STUDYID> . 
:IG-CDISC_SDTMIGAE_STUDYID_VR bo:enabled "true"^^xsd:boolean . 
:IG-CDISC_SDTMIGAE_STUDYID_VR bo:optional "false"^^xsd:boolean . 
:IG-CDISC_SDTMIGAE_STUDYID_VR bo:ordinal "1"^^xsd:positiveInteger . 
:IG-CDISC_SDTMIGAE_STUDYID bd:compliance <http://www.assero.co.uk/MDRModels/CDISC/V2#IG-CDISC_SDTMIG_C_REQUIRED> . 
:IG-CDISC_SDTMIGAE bd:includesColumn :IG-CDISC_SDTMIGAE_STUDYID . 
:IG-CDISC_SDTMIGAE_DOMAIN rdf:type bd:IgVariable . 
:IG-CDISC_SDTMIGAE_DOMAIN rdfs:label "Domain Abbreviation"^^xsd:string . 
:IG-CDISC_SDTMIGAE_DOMAIN bd:ordinal "2"^^xsd:positiveInteger . 
:IG-CDISC_SDTMIGAE_DOMAIN bd:controlled_term_or_format ""^^xsd:string . 
:IG-CDISC_SDTMIGAE_DOMAIN bd:notes "Two-character abbreviation for the domain."^^xsd:string . 
:IG-CDISC_SDTMIGAE_DOMAIN bd:name "DOMAIN"^^xsd:string . 
:IG-CDISC_SDTMIGAE_DOMAIN bd:basedOnVariable :IG-CDISC_SDTMIGAE_DOMAIN_VR . 
:IG-CDISC_SDTMIGAE_DOMAIN_VR rdf:type bo:CReference . 
:IG-CDISC_SDTMIGAE_DOMAIN_VR bo:hasColumn <http://www.assero.co.uk/MDRModels/CDISC/V1#M-CDISC_SDTMMODEL_EVENTS_DOMAIN> . 
:IG-CDISC_SDTMIGAE_DOMAIN_VR bo:enabled "true"^^xsd:boolean . 
:IG-CDISC_SDTMIGAE_DOMAIN_VR bo:optional "false"^^xsd:boolean . 
:IG-CDISC_SDTMIGAE_DOMAIN_VR bo:ordinal "1"^^xsd:positiveInteger . 
:IG-CDISC_SDTMIGAE_DOMAIN bd:compliance <http://www.assero.co.uk/MDRModels/CDISC/V2#IG-CDISC_SDTMIG_C_REQUIRED> . 
:IG-CDISC_SDTMIGAE bd:includesColumn :IG-CDISC_SDTMIGAE_DOMAIN . 
:IG-CDISC_SDTMIGAE_USUBJID rdf:type bd:IgVariable . 
:IG-CDISC_SDTMIGAE_USUBJID rdfs:label "Unique Subject Identifier"^^xsd:string . 
:IG-CDISC_SDTMIGAE_USUBJID bd:ordinal "3"^^xsd:positiveInteger . 
:IG-CDISC_SDTMIGAE_USUBJID bd:controlled_term_or_format ""^^xsd:string . 
:IG-CDISC_SDTMIGAE_USUBJID bd:notes "Identifier used to uniquely identify a subject across all studies for all applications or submissions involving the product."^^xsd:string . 
:IG-CDISC_SDTMIGAE_USUBJID bd:name "USUBJID"^^xsd:string . 
:IG-CDISC_SDTMIGAE_USUBJID bd:basedOnVariable :IG-CDISC_SDTMIGAE_USUBJID_VR . 
:IG-CDISC_SDTMIGAE_USUBJID_VR rdf:type bo:CReference . 
:IG-CDISC_SDTMIGAE_USUBJID_VR bo:hasColumn <http://www.assero.co.uk/MDRModels/CDISC/V1#M-CDISC_SDTMMODEL_EVENTS_USUBJID> . 
:IG-CDISC_SDTMIGAE_USUBJID_VR bo:enabled "true"^^xsd:boolean . 
:IG-CDISC_SDTMIGAE_USUBJID_VR bo:optional "false"^^xsd:boolean . 
:IG-CDISC_SDTMIGAE_USUBJID_VR bo:ordinal "1"^^xsd:positiveInteger . 
:IG-CDISC_SDTMIGAE_USUBJID bd:compliance <http://www.assero.co.uk/MDRModels/CDISC/V2#IG-CDISC_SDTMIG_C_REQUIRED> . 
:IG-CDISC_SDTMIGAE bd:includesColumn :IG-CDISC_SDTMIGAE_USUBJID . 
:IG-CDISC_SDTMIGAE_AESEQ rdf:type bd:IgVariable . 
:IG-CDISC_SDTMIGAE_AESEQ rdfs:label "Sequence Number"^^xsd:string . 
:IG-CDISC_SDTMIGAE_AESEQ bd:ordinal "4"^^xsd:positiveInteger . 
:IG-CDISC_SDTMIGAE_AESEQ bd:controlled_term_or_format ""^^xsd:string . 
:IG-CDISC_SDTMIGAE_AESEQ bd:notes "Sequence Number given to ensure uniqueness of subject records within a domain. May be any valid number."^^xsd:string . 
:IG-CDISC_SDTMIGAE_AESEQ bd:name "AESEQ"^^xsd:string . 
:IG-CDISC_SDTMIGAE_AESEQ bd:basedOnVariable :IG-CDISC_SDTMIGAE_AESEQ_VR . 
:IG-CDISC_SDTMIGAE_AESEQ_VR rdf:type bo:CReference . 
:IG-CDISC_SDTMIGAE_AESEQ_VR bo:hasColumn <http://www.assero.co.uk/MDRModels/CDISC/V1#M-CDISC_SDTMMODEL_EVENTS_xxSEQ> . 
:IG-CDISC_SDTMIGAE_AESEQ_VR bo:enabled "true"^^xsd:boolean . 
:IG-CDISC_SDTMIGAE_AESEQ_VR bo:optional "false"^^xsd:boolean . 
:IG-CDISC_SDTMIGAE_AESEQ_VR bo:ordinal "1"^^xsd:positiveInteger . 
:IG-CDISC_SDTMIGAE_AESEQ bd:compliance <http://www.assero.co.uk/MDRModels/CDISC/V2#IG-CDISC_SDTMIG_C_REQUIRED> . 
:IG-CDISC_SDTMIGAE bd:includesColumn :IG-CDISC_SDTMIGAE_AESEQ . 
:IG-CDISC_SDTMIGAE_AEGRPID rdf:type bd:IgVariable . 
:IG-CDISC_SDTMIGAE_AEGRPID rdfs:label "Group ID"^^xsd:string . 
:IG-CDISC_SDTMIGAE_AEGRPID bd:ordinal "5"^^xsd:positiveInteger . 
:IG-CDISC_SDTMIGAE_AEGRPID bd:controlled_term_or_format ""^^xsd:string . 
:IG-CDISC_SDTMIGAE_AEGRPID bd:notes "Used to tie together a block of related records in a single domain for a subject."^^xsd:string . 
:IG-CDISC_SDTMIGAE_AEGRPID bd:name "AEGRPID"^^xsd:string . 
:IG-CDISC_SDTMIGAE_AEGRPID bd:basedOnVariable :IG-CDISC_SDTMIGAE_AEGRPID_VR . 
:IG-CDISC_SDTMIGAE_AEGRPID_VR rdf:type bo:CReference . 
:IG-CDISC_SDTMIGAE_AEGRPID_VR bo:hasColumn <http://www.assero.co.uk/MDRModels/CDISC/V1#M-CDISC_SDTMMODEL_EVENTS_xxGRPID> . 
:IG-CDISC_SDTMIGAE_AEGRPID_VR bo:enabled "true"^^xsd:boolean . 
:IG-CDISC_SDTMIGAE_AEGRPID_VR bo:optional "false"^^xsd:boolean . 
:IG-CDISC_SDTMIGAE_AEGRPID_VR bo:ordinal "1"^^xsd:positiveInteger . 
:IG-CDISC_SDTMIGAE_AEGRPID bd:compliance <http://www.assero.co.uk/MDRModels/CDISC/V2#IG-CDISC_SDTMIG_C_PERMISSIBLE> . 
:IG-CDISC_SDTMIGAE bd:includesColumn :IG-CDISC_SDTMIGAE_AEGRPID . 
:IG-CDISC_SDTMIGAE_AEREFID rdf:type bd:IgVariable . 
:IG-CDISC_SDTMIGAE_AEREFID rdfs:label "Reference ID"^^xsd:string . 
:IG-CDISC_SDTMIGAE_AEREFID bd:ordinal "6"^^xsd:positiveInteger . 
:IG-CDISC_SDTMIGAE_AEREFID bd:controlled_term_or_format ""^^xsd:string . 
:IG-CDISC_SDTMIGAE_AEREFID bd:notes "Internal or external identifier such as a serial number on an SAE reporting form"^^xsd:string . 
:IG-CDISC_SDTMIGAE_AEREFID bd:name "AEREFID"^^xsd:string . 
:IG-CDISC_SDTMIGAE_AEREFID bd:basedOnVariable :IG-CDISC_SDTMIGAE_AEREFID_VR . 
:IG-CDISC_SDTMIGAE_AEREFID_VR rdf:type bo:CReference . 
:IG-CDISC_SDTMIGAE_AEREFID_VR bo:hasColumn <http://www.assero.co.uk/MDRModels/CDISC/V1#M-CDISC_SDTMMODEL_EVENTS_xxREFID> . 
:IG-CDISC_SDTMIGAE_AEREFID_VR bo:enabled "true"^^xsd:boolean . 
:IG-CDISC_SDTMIGAE_AEREFID_VR bo:optional "false"^^xsd:boolean . 
:IG-CDISC_SDTMIGAE_AEREFID_VR bo:ordinal "1"^^xsd:positiveInteger . 
:IG-CDISC_SDTMIGAE_AEREFID bd:compliance <http://www.assero.co.uk/MDRModels/CDISC/V2#IG-CDISC_SDTMIG_C_PERMISSIBLE> . 
:IG-CDISC_SDTMIGAE bd:includesColumn :IG-CDISC_SDTMIGAE_AEREFID . 
:IG-CDISC_SDTMIGAE_AESPID rdf:type bd:IgVariable . 
:IG-CDISC_SDTMIGAE_AESPID rdfs:label "Sponsor-Defined Identifier"^^xsd:string . 
:IG-CDISC_SDTMIGAE_AESPID bd:ordinal "7"^^xsd:positiveInteger . 
:IG-CDISC_SDTMIGAE_AESPID bd:controlled_term_or_format ""^^xsd:string . 
:IG-CDISC_SDTMIGAE_AESPID bd:notes "Sponsor-defined identifier. It may be pre-printed on the CRF as an explicit line identifier or defined in the sponsor's operational database. Example: Line number on an Adverse Events page."^^xsd:string . 
:IG-CDISC_SDTMIGAE_AESPID bd:name "AESPID"^^xsd:string . 
:IG-CDISC_SDTMIGAE_AESPID bd:basedOnVariable :IG-CDISC_SDTMIGAE_AESPID_VR . 
:IG-CDISC_SDTMIGAE_AESPID_VR rdf:type bo:CReference . 
:IG-CDISC_SDTMIGAE_AESPID_VR bo:hasColumn <http://www.assero.co.uk/MDRModels/CDISC/V1#M-CDISC_SDTMMODEL_EVENTS_xxSPID> . 
:IG-CDISC_SDTMIGAE_AESPID_VR bo:enabled "true"^^xsd:boolean . 
:IG-CDISC_SDTMIGAE_AESPID_VR bo:optional "false"^^xsd:boolean . 
:IG-CDISC_SDTMIGAE_AESPID_VR bo:ordinal "1"^^xsd:positiveInteger . 
:IG-CDISC_SDTMIGAE_AESPID bd:compliance <http://www.assero.co.uk/MDRModels/CDISC/V2#IG-CDISC_SDTMIG_C_PERMISSIBLE> . 
:IG-CDISC_SDTMIGAE bd:includesColumn :IG-CDISC_SDTMIGAE_AESPID . 
:IG-CDISC_SDTMIGAE_AETERM rdf:type bd:IgVariable . 
:IG-CDISC_SDTMIGAE_AETERM rdfs:label "Reported Term for the Adverse Event"^^xsd:string . 
:IG-CDISC_SDTMIGAE_AETERM bd:ordinal "8"^^xsd:positiveInteger . 
:IG-CDISC_SDTMIGAE_AETERM bd:controlled_term_or_format ""^^xsd:string . 
:IG-CDISC_SDTMIGAE_AETERM bd:notes "Verbatim name of the event."^^xsd:string . 
:IG-CDISC_SDTMIGAE_AETERM bd:name "AETERM"^^xsd:string . 
:IG-CDISC_SDTMIGAE_AETERM bd:basedOnVariable :IG-CDISC_SDTMIGAE_AETERM_VR . 
:IG-CDISC_SDTMIGAE_AETERM_VR rdf:type bo:CReference . 
:IG-CDISC_SDTMIGAE_AETERM_VR bo:hasColumn <http://www.assero.co.uk/MDRModels/CDISC/V1#M-CDISC_SDTMMODEL_EVENTS_xxTERM> . 
:IG-CDISC_SDTMIGAE_AETERM_VR bo:enabled "true"^^xsd:boolean . 
:IG-CDISC_SDTMIGAE_AETERM_VR bo:optional "false"^^xsd:boolean . 
:IG-CDISC_SDTMIGAE_AETERM_VR bo:ordinal "1"^^xsd:positiveInteger . 
:IG-CDISC_SDTMIGAE_AETERM bd:compliance <http://www.assero.co.uk/MDRModels/CDISC/V2#IG-CDISC_SDTMIG_C_REQUIRED> . 
:IG-CDISC_SDTMIGAE bd:includesColumn :IG-CDISC_SDTMIGAE_AETERM . 
:IG-CDISC_SDTMIGAE_AEMODIFY rdf:type bd:IgVariable . 
:IG-CDISC_SDTMIGAE_AEMODIFY rdfs:label "Modified Reported Term"^^xsd:string . 
:IG-CDISC_SDTMIGAE_AEMODIFY bd:ordinal "9"^^xsd:positiveInteger . 
:IG-CDISC_SDTMIGAE_AEMODIFY bd:controlled_term_or_format ""^^xsd:string . 
:IG-CDISC_SDTMIGAE_AEMODIFY bd:notes "If AETERM is modified to facilitate coding, then AEMODIFY will contain the modified text."^^xsd:string . 
:IG-CDISC_SDTMIGAE_AEMODIFY bd:name "AEMODIFY"^^xsd:string . 
:IG-CDISC_SDTMIGAE_AEMODIFY bd:basedOnVariable :IG-CDISC_SDTMIGAE_AEMODIFY_VR . 
:IG-CDISC_SDTMIGAE_AEMODIFY_VR rdf:type bo:CReference . 
:IG-CDISC_SDTMIGAE_AEMODIFY_VR bo:hasColumn <http://www.assero.co.uk/MDRModels/CDISC/V1#M-CDISC_SDTMMODEL_EVENTS_xxMODIFY> . 
:IG-CDISC_SDTMIGAE_AEMODIFY_VR bo:enabled "true"^^xsd:boolean . 
:IG-CDISC_SDTMIGAE_AEMODIFY_VR bo:optional "false"^^xsd:boolean . 
:IG-CDISC_SDTMIGAE_AEMODIFY_VR bo:ordinal "1"^^xsd:positiveInteger . 
:IG-CDISC_SDTMIGAE_AEMODIFY bd:compliance <http://www.assero.co.uk/MDRModels/CDISC/V2#IG-CDISC_SDTMIG_C_PERMISSIBLE> . 
:IG-CDISC_SDTMIGAE bd:includesColumn :IG-CDISC_SDTMIGAE_AEMODIFY . 
:IG-CDISC_SDTMIGAE_AEDECOD rdf:type bd:IgVariable . 
:IG-CDISC_SDTMIGAE_AEDECOD rdfs:label "Dictionary-Derived Term"^^xsd:string . 
:IG-CDISC_SDTMIGAE_AEDECOD bd:ordinal "10"^^xsd:positiveInteger . 
:IG-CDISC_SDTMIGAE_AEDECOD bd:controlled_term_or_format ""^^xsd:string . 
:IG-CDISC_SDTMIGAE_AEDECOD bd:notes "Dictionary-derived text description of AETERM or AEMODIFY. Equivalent to the Preferred Term (PT in MedDRA). The sponsor is expected to provide the dictionary name and version used to map the terms utilizing the define.xml external codelist attributes"^^xsd:string . 
:IG-CDISC_SDTMIGAE_AEDECOD bd:name "AEDECOD"^^xsd:string . 
:IG-CDISC_SDTMIGAE_AEDECOD bd:basedOnVariable :IG-CDISC_SDTMIGAE_AEDECOD_VR . 
:IG-CDISC_SDTMIGAE_AEDECOD_VR rdf:type bo:CReference . 
:IG-CDISC_SDTMIGAE_AEDECOD_VR bo:hasColumn <http://www.assero.co.uk/MDRModels/CDISC/V1#M-CDISC_SDTMMODEL_EVENTS_xxDECOD> . 
:IG-CDISC_SDTMIGAE_AEDECOD_VR bo:enabled "true"^^xsd:boolean . 
:IG-CDISC_SDTMIGAE_AEDECOD_VR bo:optional "false"^^xsd:boolean . 
:IG-CDISC_SDTMIGAE_AEDECOD_VR bo:ordinal "1"^^xsd:positiveInteger . 
:IG-CDISC_SDTMIGAE_AEDECOD bd:compliance <http://www.assero.co.uk/MDRModels/CDISC/V2#IG-CDISC_SDTMIG_C_REQUIRED> . 
:IG-CDISC_SDTMIGAE bd:includesColumn :IG-CDISC_SDTMIGAE_AEDECOD . 
:IG-CDISC_SDTMIGAE_AECAT rdf:type bd:IgVariable . 
:IG-CDISC_SDTMIGAE_AECAT rdfs:label "Category for Adverse Event"^^xsd:string . 
:IG-CDISC_SDTMIGAE_AECAT bd:ordinal "11"^^xsd:positiveInteger . 
:IG-CDISC_SDTMIGAE_AECAT bd:controlled_term_or_format ""^^xsd:string . 
:IG-CDISC_SDTMIGAE_AECAT bd:notes "Used to define a category of related records. Example: BLEEDING, NEUROPSYCHIATRIC."^^xsd:string . 
:IG-CDISC_SDTMIGAE_AECAT bd:name "AECAT"^^xsd:string . 
:IG-CDISC_SDTMIGAE_AECAT bd:basedOnVariable :IG-CDISC_SDTMIGAE_AECAT_VR . 
:IG-CDISC_SDTMIGAE_AECAT_VR rdf:type bo:CReference . 
:IG-CDISC_SDTMIGAE_AECAT_VR bo:hasColumn <http://www.assero.co.uk/MDRModels/CDISC/V1#M-CDISC_SDTMMODEL_EVENTS_xxCAT> . 
:IG-CDISC_SDTMIGAE_AECAT_VR bo:enabled "true"^^xsd:boolean . 
:IG-CDISC_SDTMIGAE_AECAT_VR bo:optional "false"^^xsd:boolean . 
:IG-CDISC_SDTMIGAE_AECAT_VR bo:ordinal "1"^^xsd:positiveInteger . 
:IG-CDISC_SDTMIGAE_AECAT bd:compliance <http://www.assero.co.uk/MDRModels/CDISC/V2#IG-CDISC_SDTMIG_C_PERMISSIBLE> . 
:IG-CDISC_SDTMIGAE bd:includesColumn :IG-CDISC_SDTMIGAE_AECAT . 
:IG-CDISC_SDTMIGAE_AESCAT rdf:type bd:IgVariable . 
:IG-CDISC_SDTMIGAE_AESCAT rdfs:label "Subcategory for Adverse Event"^^xsd:string . 
:IG-CDISC_SDTMIGAE_AESCAT bd:ordinal "12"^^xsd:positiveInteger . 
:IG-CDISC_SDTMIGAE_AESCAT bd:controlled_term_or_format ""^^xsd:string . 
:IG-CDISC_SDTMIGAE_AESCAT bd:notes "A further categorization of adverse event. Example: NEUROLOGIC."^^xsd:string . 
:IG-CDISC_SDTMIGAE_AESCAT bd:name "AESCAT"^^xsd:string . 
:IG-CDISC_SDTMIGAE_AESCAT bd:basedOnVariable :IG-CDISC_SDTMIGAE_AESCAT_VR . 
:IG-CDISC_SDTMIGAE_AESCAT_VR rdf:type bo:CReference . 
:IG-CDISC_SDTMIGAE_AESCAT_VR bo:hasColumn <http://www.assero.co.uk/MDRModels/CDISC/V1#M-CDISC_SDTMMODEL_EVENTS_xxSCAT> . 
:IG-CDISC_SDTMIGAE_AESCAT_VR bo:enabled "true"^^xsd:boolean . 
:IG-CDISC_SDTMIGAE_AESCAT_VR bo:optional "false"^^xsd:boolean . 
:IG-CDISC_SDTMIGAE_AESCAT_VR bo:ordinal "1"^^xsd:positiveInteger . 
:IG-CDISC_SDTMIGAE_AESCAT bd:compliance <http://www.assero.co.uk/MDRModels/CDISC/V2#IG-CDISC_SDTMIG_C_PERMISSIBLE> . 
:IG-CDISC_SDTMIGAE bd:includesColumn :IG-CDISC_SDTMIGAE_AESCAT . 
:IG-CDISC_SDTMIGAE_AEPRESP rdf:type bd:IgVariable . 
:IG-CDISC_SDTMIGAE_AEPRESP rdfs:label "Pre-Specified Adverse Event"^^xsd:string . 
:IG-CDISC_SDTMIGAE_AEPRESP bd:ordinal "13"^^xsd:positiveInteger . 
:IG-CDISC_SDTMIGAE_AEPRESP bd:controlled_term_or_format "NY"^^xsd:string . 
:IG-CDISC_SDTMIGAE_AEPRESP bd:notes "A value of 'Y' indicates that this adverse event was pre-specified on the CRF. Values are null for spontaneously reported events (i.e., those collected as free-text verbatim terms)"^^xsd:string . 
:IG-CDISC_SDTMIGAE_AEPRESP bd:name "AEPRESP"^^xsd:string . 
:IG-CDISC_SDTMIGAE_AEPRESP bd:basedOnVariable :IG-CDISC_SDTMIGAE_AEPRESP_VR . 
:IG-CDISC_SDTMIGAE_AEPRESP_VR rdf:type bo:CReference . 
:IG-CDISC_SDTMIGAE_AEPRESP_VR bo:hasColumn <http://www.assero.co.uk/MDRModels/CDISC/V1#M-CDISC_SDTMMODEL_EVENTS_xxPRESP> . 
:IG-CDISC_SDTMIGAE_AEPRESP_VR bo:enabled "true"^^xsd:boolean . 
:IG-CDISC_SDTMIGAE_AEPRESP_VR bo:optional "false"^^xsd:boolean . 
:IG-CDISC_SDTMIGAE_AEPRESP_VR bo:ordinal "1"^^xsd:positiveInteger . 
:IG-CDISC_SDTMIGAE_AEPRESP bd:compliance <http://www.assero.co.uk/MDRModels/CDISC/V2#IG-CDISC_SDTMIG_C_PERMISSIBLE> . 
:IG-CDISC_SDTMIGAE bd:includesColumn :IG-CDISC_SDTMIGAE_AEPRESP . 
:IG-CDISC_SDTMIGAE_AEBODSYS rdf:type bd:IgVariable . 
:IG-CDISC_SDTMIGAE_AEBODSYS rdfs:label "Body System or Organ Class"^^xsd:string . 
:IG-CDISC_SDTMIGAE_AEBODSYS bd:ordinal "14"^^xsd:positiveInteger . 
:IG-CDISC_SDTMIGAE_AEBODSYS bd:controlled_term_or_format ""^^xsd:string . 
:IG-CDISC_SDTMIGAE_AEBODSYS bd:notes "Dictionary derived. Body system or organ class used by the sponsor from the coding dictionary (e.g., MedDRA). When using a multi-axial dictionary such as MedDRA, this should contain the SOC used for the sponsor's analyses and summary tables which may not necessarily be the primary SOC."^^xsd:string . 
:IG-CDISC_SDTMIGAE_AEBODSYS bd:name "AEBODSYS"^^xsd:string . 
:IG-CDISC_SDTMIGAE_AEBODSYS bd:basedOnVariable :IG-CDISC_SDTMIGAE_AEBODSYS_VR . 
:IG-CDISC_SDTMIGAE_AEBODSYS_VR rdf:type bo:CReference . 
:IG-CDISC_SDTMIGAE_AEBODSYS_VR bo:hasColumn <http://www.assero.co.uk/MDRModels/CDISC/V1#M-CDISC_SDTMMODEL_EVENTS_xxBODSYS> . 
:IG-CDISC_SDTMIGAE_AEBODSYS_VR bo:enabled "true"^^xsd:boolean . 
:IG-CDISC_SDTMIGAE_AEBODSYS_VR bo:optional "false"^^xsd:boolean . 
:IG-CDISC_SDTMIGAE_AEBODSYS_VR bo:ordinal "1"^^xsd:positiveInteger . 
:IG-CDISC_SDTMIGAE_AEBODSYS bd:compliance <http://www.assero.co.uk/MDRModels/CDISC/V2#IG-CDISC_SDTMIG_C_EXPECTED> . 
:IG-CDISC_SDTMIGAE bd:includesColumn :IG-CDISC_SDTMIGAE_AEBODSYS . 
:IG-CDISC_SDTMIGAE_AELOC rdf:type bd:IgVariable . 
:IG-CDISC_SDTMIGAE_AELOC rdfs:label "Location of Event"^^xsd:string . 
:IG-CDISC_SDTMIGAE_AELOC bd:ordinal "15"^^xsd:positiveInteger . 
:IG-CDISC_SDTMIGAE_AELOC bd:controlled_term_or_format "LOC"^^xsd:string . 
:IG-CDISC_SDTMIGAE_AELOC bd:notes "Describes anatomical location relevant for the event (e.g., LEFT ARM for skin rash)."^^xsd:string . 
:IG-CDISC_SDTMIGAE_AELOC bd:name "AELOC"^^xsd:string . 
:IG-CDISC_SDTMIGAE_AELOC bd:basedOnVariable :IG-CDISC_SDTMIGAE_AELOC_VR . 
:IG-CDISC_SDTMIGAE_AELOC_VR rdf:type bo:CReference . 
:IG-CDISC_SDTMIGAE_AELOC_VR bo:hasColumn <http://www.assero.co.uk/MDRModels/CDISC/V1#M-CDISC_SDTMMODEL_EVENTS_xxLOC> . 
:IG-CDISC_SDTMIGAE_AELOC_VR bo:enabled "true"^^xsd:boolean . 
:IG-CDISC_SDTMIGAE_AELOC_VR bo:optional "false"^^xsd:boolean . 
:IG-CDISC_SDTMIGAE_AELOC_VR bo:ordinal "1"^^xsd:positiveInteger . 
:IG-CDISC_SDTMIGAE_AELOC bd:compliance <http://www.assero.co.uk/MDRModels/CDISC/V2#IG-CDISC_SDTMIG_C_PERMISSIBLE> . 
:IG-CDISC_SDTMIGAE bd:includesColumn :IG-CDISC_SDTMIGAE_AELOC . 
:IG-CDISC_SDTMIGAE_AESEV rdf:type bd:IgVariable . 
:IG-CDISC_SDTMIGAE_AESEV rdfs:label "Severity/Intensity"^^xsd:string . 
:IG-CDISC_SDTMIGAE_AESEV bd:ordinal "16"^^xsd:positiveInteger . 
:IG-CDISC_SDTMIGAE_AESEV bd:controlled_term_or_format "AESEV"^^xsd:string . 
:IG-CDISC_SDTMIGAE_AESEV bd:notes "The severity or intensity of the event. Examples: MILD, MODERATE, SEVERE."^^xsd:string . 
:IG-CDISC_SDTMIGAE_AESEV bd:name "AESEV"^^xsd:string . 
:IG-CDISC_SDTMIGAE_AESEV bd:basedOnVariable :IG-CDISC_SDTMIGAE_AESEV_VR . 
:IG-CDISC_SDTMIGAE_AESEV_VR rdf:type bo:CReference . 
:IG-CDISC_SDTMIGAE_AESEV_VR bo:hasColumn <http://www.assero.co.uk/MDRModels/CDISC/V1#M-CDISC_SDTMMODEL_EVENTS_xxSEV> . 
:IG-CDISC_SDTMIGAE_AESEV_VR bo:enabled "true"^^xsd:boolean . 
:IG-CDISC_SDTMIGAE_AESEV_VR bo:optional "false"^^xsd:boolean . 
:IG-CDISC_SDTMIGAE_AESEV_VR bo:ordinal "1"^^xsd:positiveInteger . 
:IG-CDISC_SDTMIGAE_AESEV bd:compliance <http://www.assero.co.uk/MDRModels/CDISC/V2#IG-CDISC_SDTMIG_C_PERMISSIBLE> . 
:IG-CDISC_SDTMIGAE bd:includesColumn :IG-CDISC_SDTMIGAE_AESEV . 
:IG-CDISC_SDTMIGAE_AESER rdf:type bd:IgVariable . 
:IG-CDISC_SDTMIGAE_AESER rdfs:label "Serious Event"^^xsd:string . 
:IG-CDISC_SDTMIGAE_AESER bd:ordinal "17"^^xsd:positiveInteger . 
:IG-CDISC_SDTMIGAE_AESER bd:controlled_term_or_format "NY"^^xsd:string . 
:IG-CDISC_SDTMIGAE_AESER bd:notes "Is this a serious event?"^^xsd:string . 
:IG-CDISC_SDTMIGAE_AESER bd:name "AESER"^^xsd:string . 
:IG-CDISC_SDTMIGAE_AESER bd:basedOnVariable :IG-CDISC_SDTMIGAE_AESER_VR . 
:IG-CDISC_SDTMIGAE_AESER_VR rdf:type bo:CReference . 
:IG-CDISC_SDTMIGAE_AESER_VR bo:hasColumn <http://www.assero.co.uk/MDRModels/CDISC/V1#M-CDISC_SDTMMODEL_EVENTS_xxSER> . 
:IG-CDISC_SDTMIGAE_AESER_VR bo:enabled "true"^^xsd:boolean . 
:IG-CDISC_SDTMIGAE_AESER_VR bo:optional "false"^^xsd:boolean . 
:IG-CDISC_SDTMIGAE_AESER_VR bo:ordinal "1"^^xsd:positiveInteger . 
:IG-CDISC_SDTMIGAE_AESER bd:compliance <http://www.assero.co.uk/MDRModels/CDISC/V2#IG-CDISC_SDTMIG_C_EXPECTED> . 
:IG-CDISC_SDTMIGAE bd:includesColumn :IG-CDISC_SDTMIGAE_AESER . 
:IG-CDISC_SDTMIGAE_AEACN rdf:type bd:IgVariable . 
:IG-CDISC_SDTMIGAE_AEACN rdfs:label "Action Taken with Study Treatment"^^xsd:string . 
:IG-CDISC_SDTMIGAE_AEACN bd:ordinal "18"^^xsd:positiveInteger . 
:IG-CDISC_SDTMIGAE_AEACN bd:controlled_term_or_format "ACN"^^xsd:string . 
:IG-CDISC_SDTMIGAE_AEACN bd:notes "Describes changes to the study treatment as a result of the event. AEACN is specifically for the relationship to study treatment. AEACNOTH is for actions unrelated to dose adjustments of study treatment. Examples of AEACN values include ICH E2B values: DRUG WITHDRAWN, DOSE REDUCED, DOSE INCREASED, DOSE NOT CHANGED, UNKNOWN or NOT APPLICABLE"^^xsd:string . 
:IG-CDISC_SDTMIGAE_AEACN bd:name "AEACN"^^xsd:string . 
:IG-CDISC_SDTMIGAE_AEACN bd:basedOnVariable :IG-CDISC_SDTMIGAE_AEACN_VR . 
:IG-CDISC_SDTMIGAE_AEACN_VR rdf:type bo:CReference . 
:IG-CDISC_SDTMIGAE_AEACN_VR bo:hasColumn <http://www.assero.co.uk/MDRModels/CDISC/V1#M-CDISC_SDTMMODEL_EVENTS_xxACN> . 
:IG-CDISC_SDTMIGAE_AEACN_VR bo:enabled "true"^^xsd:boolean . 
:IG-CDISC_SDTMIGAE_AEACN_VR bo:optional "false"^^xsd:boolean . 
:IG-CDISC_SDTMIGAE_AEACN_VR bo:ordinal "1"^^xsd:positiveInteger . 
:IG-CDISC_SDTMIGAE_AEACN bd:compliance <http://www.assero.co.uk/MDRModels/CDISC/V2#IG-CDISC_SDTMIG_C_EXPECTED> . 
:IG-CDISC_SDTMIGAE bd:includesColumn :IG-CDISC_SDTMIGAE_AEACN . 
:IG-CDISC_SDTMIGAE_AEACNOTH rdf:type bd:IgVariable . 
:IG-CDISC_SDTMIGAE_AEACNOTH rdfs:label "Other Action Taken"^^xsd:string . 
:IG-CDISC_SDTMIGAE_AEACNOTH bd:ordinal "19"^^xsd:positiveInteger . 
:IG-CDISC_SDTMIGAE_AEACNOTH bd:controlled_term_or_format ""^^xsd:string . 
:IG-CDISC_SDTMIGAE_AEACNOTH bd:notes "Describes other actions taken as a result of the event that are unrelated to dose adjustments of study treatment. Usually reported as free text. Example: 'TREATMENT UNBLINDED. PRIMARY CARE PHYSICIAN NOTIFIED.'"^^xsd:string . 
:IG-CDISC_SDTMIGAE_AEACNOTH bd:name "AEACNOTH"^^xsd:string . 
:IG-CDISC_SDTMIGAE_AEACNOTH bd:basedOnVariable :IG-CDISC_SDTMIGAE_AEACNOTH_VR . 
:IG-CDISC_SDTMIGAE_AEACNOTH_VR rdf:type bo:CReference . 
:IG-CDISC_SDTMIGAE_AEACNOTH_VR bo:hasColumn <http://www.assero.co.uk/MDRModels/CDISC/V1#M-CDISC_SDTMMODEL_EVENTS_xxACNOTH> . 
:IG-CDISC_SDTMIGAE_AEACNOTH_VR bo:enabled "true"^^xsd:boolean . 
:IG-CDISC_SDTMIGAE_AEACNOTH_VR bo:optional "false"^^xsd:boolean . 
:IG-CDISC_SDTMIGAE_AEACNOTH_VR bo:ordinal "1"^^xsd:positiveInteger . 
:IG-CDISC_SDTMIGAE_AEACNOTH bd:compliance <http://www.assero.co.uk/MDRModels/CDISC/V2#IG-CDISC_SDTMIG_C_PERMISSIBLE> . 
:IG-CDISC_SDTMIGAE bd:includesColumn :IG-CDISC_SDTMIGAE_AEACNOTH . 
:IG-CDISC_SDTMIGAE_AEREL rdf:type bd:IgVariable . 
:IG-CDISC_SDTMIGAE_AEREL rdfs:label "Causality"^^xsd:string . 
:IG-CDISC_SDTMIGAE_AEREL bd:ordinal "20"^^xsd:positiveInteger . 
:IG-CDISC_SDTMIGAE_AEREL bd:controlled_term_or_format ""^^xsd:string . 
:IG-CDISC_SDTMIGAE_AEREL bd:notes "Records the investigator's opinion as to the causality of the event to the treatment. ICH E2A and E2B examples include NOT RELATED, UNLIKELY RELATED, POSSIBLY RELATED, RELATED. Controlled Terminology may be defined in the future. Check with regulatory authority for population of this variable"^^xsd:string . 
:IG-CDISC_SDTMIGAE_AEREL bd:name "AEREL"^^xsd:string . 
:IG-CDISC_SDTMIGAE_AEREL bd:basedOnVariable :IG-CDISC_SDTMIGAE_AEREL_VR . 
:IG-CDISC_SDTMIGAE_AEREL_VR rdf:type bo:CReference . 
:IG-CDISC_SDTMIGAE_AEREL_VR bo:hasColumn <http://www.assero.co.uk/MDRModels/CDISC/V1#M-CDISC_SDTMMODEL_EVENTS_xxREL> . 
:IG-CDISC_SDTMIGAE_AEREL_VR bo:enabled "true"^^xsd:boolean . 
:IG-CDISC_SDTMIGAE_AEREL_VR bo:optional "false"^^xsd:boolean . 
:IG-CDISC_SDTMIGAE_AEREL_VR bo:ordinal "1"^^xsd:positiveInteger . 
:IG-CDISC_SDTMIGAE_AEREL bd:compliance <http://www.assero.co.uk/MDRModels/CDISC/V2#IG-CDISC_SDTMIG_C_EXPECTED> . 
:IG-CDISC_SDTMIGAE bd:includesColumn :IG-CDISC_SDTMIGAE_AEREL . 
:IG-CDISC_SDTMIGAE_AERELNST rdf:type bd:IgVariable . 
:IG-CDISC_SDTMIGAE_AERELNST rdfs:label "Relationship to Non-Study Treatment"^^xsd:string . 
:IG-CDISC_SDTMIGAE_AERELNST bd:ordinal "21"^^xsd:positiveInteger . 
:IG-CDISC_SDTMIGAE_AERELNST bd:controlled_term_or_format ""^^xsd:string . 
:IG-CDISC_SDTMIGAE_AERELNST bd:notes "Records the investigator's opinion as to whether the event may have been due to a treatment other than study drug. May be reported as free text. Example: 'MORE LIKELY RELATED TO ASPIRIN USE.'."^^xsd:string . 
:IG-CDISC_SDTMIGAE_AERELNST bd:name "AERELNST"^^xsd:string . 
:IG-CDISC_SDTMIGAE_AERELNST bd:basedOnVariable :IG-CDISC_SDTMIGAE_AERELNST_VR . 
:IG-CDISC_SDTMIGAE_AERELNST_VR rdf:type bo:CReference . 
:IG-CDISC_SDTMIGAE_AERELNST_VR bo:hasColumn <http://www.assero.co.uk/MDRModels/CDISC/V1#M-CDISC_SDTMMODEL_EVENTS_xxRELNST> . 
:IG-CDISC_SDTMIGAE_AERELNST_VR bo:enabled "true"^^xsd:boolean . 
:IG-CDISC_SDTMIGAE_AERELNST_VR bo:optional "false"^^xsd:boolean . 
:IG-CDISC_SDTMIGAE_AERELNST_VR bo:ordinal "1"^^xsd:positiveInteger . 
:IG-CDISC_SDTMIGAE_AERELNST bd:compliance <http://www.assero.co.uk/MDRModels/CDISC/V2#IG-CDISC_SDTMIG_C_PERMISSIBLE> . 
:IG-CDISC_SDTMIGAE bd:includesColumn :IG-CDISC_SDTMIGAE_AERELNST . 
:IG-CDISC_SDTMIGAE_AEPATT rdf:type bd:IgVariable . 
:IG-CDISC_SDTMIGAE_AEPATT rdfs:label "Pattern of Adverse Event"^^xsd:string . 
:IG-CDISC_SDTMIGAE_AEPATT bd:ordinal "22"^^xsd:positiveInteger . 
:IG-CDISC_SDTMIGAE_AEPATT bd:controlled_term_or_format ""^^xsd:string . 
:IG-CDISC_SDTMIGAE_AEPATT bd:notes "Used to indicate the pattern of the event over time. Examples: INTERMITTENT, CONTINUOUS, SINGLE EVENT."^^xsd:string . 
:IG-CDISC_SDTMIGAE_AEPATT bd:name "AEPATT"^^xsd:string . 
:IG-CDISC_SDTMIGAE_AEPATT bd:basedOnVariable :IG-CDISC_SDTMIGAE_AEPATT_VR . 
:IG-CDISC_SDTMIGAE_AEPATT_VR rdf:type bo:CReference . 
:IG-CDISC_SDTMIGAE_AEPATT_VR bo:hasColumn <http://www.assero.co.uk/MDRModels/CDISC/V1#M-CDISC_SDTMMODEL_EVENTS_xxPATT> . 
:IG-CDISC_SDTMIGAE_AEPATT_VR bo:enabled "true"^^xsd:boolean . 
:IG-CDISC_SDTMIGAE_AEPATT_VR bo:optional "false"^^xsd:boolean . 
:IG-CDISC_SDTMIGAE_AEPATT_VR bo:ordinal "1"^^xsd:positiveInteger . 
:IG-CDISC_SDTMIGAE_AEPATT bd:compliance <http://www.assero.co.uk/MDRModels/CDISC/V2#IG-CDISC_SDTMIG_C_PERMISSIBLE> . 
:IG-CDISC_SDTMIGAE bd:includesColumn :IG-CDISC_SDTMIGAE_AEPATT . 
:IG-CDISC_SDTMIGAE_AEOUT rdf:type bd:IgVariable . 
:IG-CDISC_SDTMIGAE_AEOUT rdfs:label "Outcome of Adverse Event"^^xsd:string . 
:IG-CDISC_SDTMIGAE_AEOUT bd:ordinal "23"^^xsd:positiveInteger . 
:IG-CDISC_SDTMIGAE_AEOUT bd:controlled_term_or_format "OUT"^^xsd:string . 
:IG-CDISC_SDTMIGAE_AEOUT bd:notes "Description of the outcome of an event."^^xsd:string . 
:IG-CDISC_SDTMIGAE_AEOUT bd:name "AEOUT"^^xsd:string . 
:IG-CDISC_SDTMIGAE_AEOUT bd:basedOnVariable :IG-CDISC_SDTMIGAE_AEOUT_VR . 
:IG-CDISC_SDTMIGAE_AEOUT_VR rdf:type bo:CReference . 
:IG-CDISC_SDTMIGAE_AEOUT_VR bo:hasColumn <http://www.assero.co.uk/MDRModels/CDISC/V1#M-CDISC_SDTMMODEL_EVENTS_xxOUT> . 
:IG-CDISC_SDTMIGAE_AEOUT_VR bo:enabled "true"^^xsd:boolean . 
:IG-CDISC_SDTMIGAE_AEOUT_VR bo:optional "false"^^xsd:boolean . 
:IG-CDISC_SDTMIGAE_AEOUT_VR bo:ordinal "1"^^xsd:positiveInteger . 
:IG-CDISC_SDTMIGAE_AEOUT bd:compliance <http://www.assero.co.uk/MDRModels/CDISC/V2#IG-CDISC_SDTMIG_C_PERMISSIBLE> . 
:IG-CDISC_SDTMIGAE bd:includesColumn :IG-CDISC_SDTMIGAE_AEOUT . 
:IG-CDISC_SDTMIGAE_AESCAN rdf:type bd:IgVariable . 
:IG-CDISC_SDTMIGAE_AESCAN rdfs:label "Involves Cancer"^^xsd:string . 
:IG-CDISC_SDTMIGAE_AESCAN bd:ordinal "24"^^xsd:positiveInteger . 
:IG-CDISC_SDTMIGAE_AESCAN bd:controlled_term_or_format "NY"^^xsd:string . 
:IG-CDISC_SDTMIGAE_AESCAN bd:notes "Was the serious event associated with the development of cancer?"^^xsd:string . 
:IG-CDISC_SDTMIGAE_AESCAN bd:name "AESCAN"^^xsd:string . 
:IG-CDISC_SDTMIGAE_AESCAN bd:basedOnVariable :IG-CDISC_SDTMIGAE_AESCAN_VR . 
:IG-CDISC_SDTMIGAE_AESCAN_VR rdf:type bo:CReference . 
:IG-CDISC_SDTMIGAE_AESCAN_VR bo:hasColumn <http://www.assero.co.uk/MDRModels/CDISC/V1#M-CDISC_SDTMMODEL_EVENTS_xxSCAN> . 
:IG-CDISC_SDTMIGAE_AESCAN_VR bo:enabled "true"^^xsd:boolean . 
:IG-CDISC_SDTMIGAE_AESCAN_VR bo:optional "false"^^xsd:boolean . 
:IG-CDISC_SDTMIGAE_AESCAN_VR bo:ordinal "1"^^xsd:positiveInteger . 
:IG-CDISC_SDTMIGAE_AESCAN bd:compliance <http://www.assero.co.uk/MDRModels/CDISC/V2#IG-CDISC_SDTMIG_C_PERMISSIBLE> . 
:IG-CDISC_SDTMIGAE bd:includesColumn :IG-CDISC_SDTMIGAE_AESCAN . 
:IG-CDISC_SDTMIGAE_AESCONG rdf:type bd:IgVariable . 
:IG-CDISC_SDTMIGAE_AESCONG rdfs:label "Congenital Anomaly or Birth Defect"^^xsd:string . 
:IG-CDISC_SDTMIGAE_AESCONG bd:ordinal "25"^^xsd:positiveInteger . 
:IG-CDISC_SDTMIGAE_AESCONG bd:controlled_term_or_format "NY"^^xsd:string . 
:IG-CDISC_SDTMIGAE_AESCONG bd:notes "Was the serious event associated with congenital anomaly or birth defect?"^^xsd:string . 
:IG-CDISC_SDTMIGAE_AESCONG bd:name "AESCONG"^^xsd:string . 
:IG-CDISC_SDTMIGAE_AESCONG bd:basedOnVariable :IG-CDISC_SDTMIGAE_AESCONG_VR . 
:IG-CDISC_SDTMIGAE_AESCONG_VR rdf:type bo:CReference . 
:IG-CDISC_SDTMIGAE_AESCONG_VR bo:hasColumn <http://www.assero.co.uk/MDRModels/CDISC/V1#M-CDISC_SDTMMODEL_EVENTS_xxSCONG> . 
:IG-CDISC_SDTMIGAE_AESCONG_VR bo:enabled "true"^^xsd:boolean . 
:IG-CDISC_SDTMIGAE_AESCONG_VR bo:optional "false"^^xsd:boolean . 
:IG-CDISC_SDTMIGAE_AESCONG_VR bo:ordinal "1"^^xsd:positiveInteger . 
:IG-CDISC_SDTMIGAE_AESCONG bd:compliance <http://www.assero.co.uk/MDRModels/CDISC/V2#IG-CDISC_SDTMIG_C_PERMISSIBLE> . 
:IG-CDISC_SDTMIGAE bd:includesColumn :IG-CDISC_SDTMIGAE_AESCONG . 
:IG-CDISC_SDTMIGAE_AESDISAB rdf:type bd:IgVariable . 
:IG-CDISC_SDTMIGAE_AESDISAB rdfs:label "Persist or Signif Disability/Incapacity"^^xsd:string . 
:IG-CDISC_SDTMIGAE_AESDISAB bd:ordinal "26"^^xsd:positiveInteger . 
:IG-CDISC_SDTMIGAE_AESDISAB bd:controlled_term_or_format "NY"^^xsd:string . 
:IG-CDISC_SDTMIGAE_AESDISAB bd:notes "Did the serious event result in persistent or significant disability/incapacity?"^^xsd:string . 
:IG-CDISC_SDTMIGAE_AESDISAB bd:name "AESDISAB"^^xsd:string . 
:IG-CDISC_SDTMIGAE_AESDISAB bd:basedOnVariable :IG-CDISC_SDTMIGAE_AESDISAB_VR . 
:IG-CDISC_SDTMIGAE_AESDISAB_VR rdf:type bo:CReference . 
:IG-CDISC_SDTMIGAE_AESDISAB_VR bo:hasColumn <http://www.assero.co.uk/MDRModels/CDISC/V1#M-CDISC_SDTMMODEL_EVENTS_xxSDISAB> . 
:IG-CDISC_SDTMIGAE_AESDISAB_VR bo:enabled "true"^^xsd:boolean . 
:IG-CDISC_SDTMIGAE_AESDISAB_VR bo:optional "false"^^xsd:boolean . 
:IG-CDISC_SDTMIGAE_AESDISAB_VR bo:ordinal "1"^^xsd:positiveInteger . 
:IG-CDISC_SDTMIGAE_AESDISAB bd:compliance <http://www.assero.co.uk/MDRModels/CDISC/V2#IG-CDISC_SDTMIG_C_PERMISSIBLE> . 
:IG-CDISC_SDTMIGAE bd:includesColumn :IG-CDISC_SDTMIGAE_AESDISAB . 
:IG-CDISC_SDTMIGAE_AESDTH rdf:type bd:IgVariable . 
:IG-CDISC_SDTMIGAE_AESDTH rdfs:label "Results in Death"^^xsd:string . 
:IG-CDISC_SDTMIGAE_AESDTH bd:ordinal "27"^^xsd:positiveInteger . 
:IG-CDISC_SDTMIGAE_AESDTH bd:controlled_term_or_format "NY"^^xsd:string . 
:IG-CDISC_SDTMIGAE_AESDTH bd:notes "Did the serious event result in death?"^^xsd:string . 
:IG-CDISC_SDTMIGAE_AESDTH bd:name "AESDTH"^^xsd:string . 
:IG-CDISC_SDTMIGAE_AESDTH bd:basedOnVariable :IG-CDISC_SDTMIGAE_AESDTH_VR . 
:IG-CDISC_SDTMIGAE_AESDTH_VR rdf:type bo:CReference . 
:IG-CDISC_SDTMIGAE_AESDTH_VR bo:hasColumn <http://www.assero.co.uk/MDRModels/CDISC/V1#M-CDISC_SDTMMODEL_EVENTS_xxSDTH> . 
:IG-CDISC_SDTMIGAE_AESDTH_VR bo:enabled "true"^^xsd:boolean . 
:IG-CDISC_SDTMIGAE_AESDTH_VR bo:optional "false"^^xsd:boolean . 
:IG-CDISC_SDTMIGAE_AESDTH_VR bo:ordinal "1"^^xsd:positiveInteger . 
:IG-CDISC_SDTMIGAE_AESDTH bd:compliance <http://www.assero.co.uk/MDRModels/CDISC/V2#IG-CDISC_SDTMIG_C_PERMISSIBLE> . 
:IG-CDISC_SDTMIGAE bd:includesColumn :IG-CDISC_SDTMIGAE_AESDTH . 
:IG-CDISC_SDTMIGAE_AESHOSP rdf:type bd:IgVariable . 
:IG-CDISC_SDTMIGAE_AESHOSP rdfs:label "Requires or Prolongs Hospitalization"^^xsd:string . 
:IG-CDISC_SDTMIGAE_AESHOSP bd:ordinal "28"^^xsd:positiveInteger . 
:IG-CDISC_SDTMIGAE_AESHOSP bd:controlled_term_or_format "NY"^^xsd:string . 
:IG-CDISC_SDTMIGAE_AESHOSP bd:notes "Did the serious event require or prolong hospitalization?"^^xsd:string . 
:IG-CDISC_SDTMIGAE_AESHOSP bd:name "AESHOSP"^^xsd:string . 
:IG-CDISC_SDTMIGAE_AESHOSP bd:basedOnVariable :IG-CDISC_SDTMIGAE_AESHOSP_VR . 
:IG-CDISC_SDTMIGAE_AESHOSP_VR rdf:type bo:CReference . 
:IG-CDISC_SDTMIGAE_AESHOSP_VR bo:hasColumn <http://www.assero.co.uk/MDRModels/CDISC/V1#M-CDISC_SDTMMODEL_EVENTS_xxSHOSP> . 
:IG-CDISC_SDTMIGAE_AESHOSP_VR bo:enabled "true"^^xsd:boolean . 
:IG-CDISC_SDTMIGAE_AESHOSP_VR bo:optional "false"^^xsd:boolean . 
:IG-CDISC_SDTMIGAE_AESHOSP_VR bo:ordinal "1"^^xsd:positiveInteger . 
:IG-CDISC_SDTMIGAE_AESHOSP bd:compliance <http://www.assero.co.uk/MDRModels/CDISC/V2#IG-CDISC_SDTMIG_C_PERMISSIBLE> . 
:IG-CDISC_SDTMIGAE bd:includesColumn :IG-CDISC_SDTMIGAE_AESHOSP . 
:IG-CDISC_SDTMIGAE_AESLIFE rdf:type bd:IgVariable . 
:IG-CDISC_SDTMIGAE_AESLIFE rdfs:label "Is Life Threatening"^^xsd:string . 
:IG-CDISC_SDTMIGAE_AESLIFE bd:ordinal "29"^^xsd:positiveInteger . 
:IG-CDISC_SDTMIGAE_AESLIFE bd:controlled_term_or_format "NY"^^xsd:string . 
:IG-CDISC_SDTMIGAE_AESLIFE bd:notes "Was the serious event life threatening?"^^xsd:string . 
:IG-CDISC_SDTMIGAE_AESLIFE bd:name "AESLIFE"^^xsd:string . 
:IG-CDISC_SDTMIGAE_AESLIFE bd:basedOnVariable :IG-CDISC_SDTMIGAE_AESLIFE_VR . 
:IG-CDISC_SDTMIGAE_AESLIFE_VR rdf:type bo:CReference . 
:IG-CDISC_SDTMIGAE_AESLIFE_VR bo:hasColumn <http://www.assero.co.uk/MDRModels/CDISC/V1#M-CDISC_SDTMMODEL_EVENTS_xxSLIFE> . 
:IG-CDISC_SDTMIGAE_AESLIFE_VR bo:enabled "true"^^xsd:boolean . 
:IG-CDISC_SDTMIGAE_AESLIFE_VR bo:optional "false"^^xsd:boolean . 
:IG-CDISC_SDTMIGAE_AESLIFE_VR bo:ordinal "1"^^xsd:positiveInteger . 
:IG-CDISC_SDTMIGAE_AESLIFE bd:compliance <http://www.assero.co.uk/MDRModels/CDISC/V2#IG-CDISC_SDTMIG_C_PERMISSIBLE> . 
:IG-CDISC_SDTMIGAE bd:includesColumn :IG-CDISC_SDTMIGAE_AESLIFE . 
:IG-CDISC_SDTMIGAE_AESOD rdf:type bd:IgVariable . 
:IG-CDISC_SDTMIGAE_AESOD rdfs:label "Occurred with Overdose"^^xsd:string . 
:IG-CDISC_SDTMIGAE_AESOD bd:ordinal "30"^^xsd:positiveInteger . 
:IG-CDISC_SDTMIGAE_AESOD bd:controlled_term_or_format "NY"^^xsd:string . 
:IG-CDISC_SDTMIGAE_AESOD bd:notes "Did the serious event occur with an overdose?"^^xsd:string . 
:IG-CDISC_SDTMIGAE_AESOD bd:name "AESOD"^^xsd:string . 
:IG-CDISC_SDTMIGAE_AESOD bd:basedOnVariable :IG-CDISC_SDTMIGAE_AESOD_VR . 
:IG-CDISC_SDTMIGAE_AESOD_VR rdf:type bo:CReference . 
:IG-CDISC_SDTMIGAE_AESOD_VR bo:hasColumn <http://www.assero.co.uk/MDRModels/CDISC/V1#M-CDISC_SDTMMODEL_EVENTS_xxSOD> . 
:IG-CDISC_SDTMIGAE_AESOD_VR bo:enabled "true"^^xsd:boolean . 
:IG-CDISC_SDTMIGAE_AESOD_VR bo:optional "false"^^xsd:boolean . 
:IG-CDISC_SDTMIGAE_AESOD_VR bo:ordinal "1"^^xsd:positiveInteger . 
:IG-CDISC_SDTMIGAE_AESOD bd:compliance <http://www.assero.co.uk/MDRModels/CDISC/V2#IG-CDISC_SDTMIG_C_PERMISSIBLE> . 
:IG-CDISC_SDTMIGAE bd:includesColumn :IG-CDISC_SDTMIGAE_AESOD . 
:IG-CDISC_SDTMIGAE_AESMIE rdf:type bd:IgVariable . 
:IG-CDISC_SDTMIGAE_AESMIE rdfs:label "Other Medically Important Serious Event"^^xsd:string . 
:IG-CDISC_SDTMIGAE_AESMIE bd:ordinal "31"^^xsd:positiveInteger . 
:IG-CDISC_SDTMIGAE_AESMIE bd:controlled_term_or_format "NY"^^xsd:string . 
:IG-CDISC_SDTMIGAE_AESMIE bd:notes "Do additional categories for seriousness apply?"^^xsd:string . 
:IG-CDISC_SDTMIGAE_AESMIE bd:name "AESMIE"^^xsd:string . 
:IG-CDISC_SDTMIGAE_AESMIE bd:basedOnVariable :IG-CDISC_SDTMIGAE_AESMIE_VR . 
:IG-CDISC_SDTMIGAE_AESMIE_VR rdf:type bo:CReference . 
:IG-CDISC_SDTMIGAE_AESMIE_VR bo:hasColumn <http://www.assero.co.uk/MDRModels/CDISC/V1#M-CDISC_SDTMMODEL_EVENTS_xxSMIE> . 
:IG-CDISC_SDTMIGAE_AESMIE_VR bo:enabled "true"^^xsd:boolean . 
:IG-CDISC_SDTMIGAE_AESMIE_VR bo:optional "false"^^xsd:boolean . 
:IG-CDISC_SDTMIGAE_AESMIE_VR bo:ordinal "1"^^xsd:positiveInteger . 
:IG-CDISC_SDTMIGAE_AESMIE bd:compliance <http://www.assero.co.uk/MDRModels/CDISC/V2#IG-CDISC_SDTMIG_C_PERMISSIBLE> . 
:IG-CDISC_SDTMIGAE bd:includesColumn :IG-CDISC_SDTMIGAE_AESMIE . 
:IG-CDISC_SDTMIGAE_AECONTRT rdf:type bd:IgVariable . 
:IG-CDISC_SDTMIGAE_AECONTRT rdfs:label "Concomitant or Additional Trtmnt Given"^^xsd:string . 
:IG-CDISC_SDTMIGAE_AECONTRT bd:ordinal "32"^^xsd:positiveInteger . 
:IG-CDISC_SDTMIGAE_AECONTRT bd:controlled_term_or_format "NY"^^xsd:string . 
:IG-CDISC_SDTMIGAE_AECONTRT bd:notes "Was another treatment given because of the occurrence of the event?"^^xsd:string . 
:IG-CDISC_SDTMIGAE_AECONTRT bd:name "AECONTRT"^^xsd:string . 
:IG-CDISC_SDTMIGAE_AECONTRT bd:basedOnVariable :IG-CDISC_SDTMIGAE_AECONTRT_VR . 
:IG-CDISC_SDTMIGAE_AECONTRT_VR rdf:type bo:CReference . 
:IG-CDISC_SDTMIGAE_AECONTRT_VR bo:hasColumn <http://www.assero.co.uk/MDRModels/CDISC/V1#M-CDISC_SDTMMODEL_EVENTS_xxCONTRT> . 
:IG-CDISC_SDTMIGAE_AECONTRT_VR bo:enabled "true"^^xsd:boolean . 
:IG-CDISC_SDTMIGAE_AECONTRT_VR bo:optional "false"^^xsd:boolean . 
:IG-CDISC_SDTMIGAE_AECONTRT_VR bo:ordinal "1"^^xsd:positiveInteger . 
:IG-CDISC_SDTMIGAE_AECONTRT bd:compliance <http://www.assero.co.uk/MDRModels/CDISC/V2#IG-CDISC_SDTMIG_C_PERMISSIBLE> . 
:IG-CDISC_SDTMIGAE bd:includesColumn :IG-CDISC_SDTMIGAE_AECONTRT . 
:IG-CDISC_SDTMIGAE_AETOXGR rdf:type bd:IgVariable . 
:IG-CDISC_SDTMIGAE_AETOXGR rdfs:label "Standard Toxicity Grade"^^xsd:string . 
:IG-CDISC_SDTMIGAE_AETOXGR bd:ordinal "33"^^xsd:positiveInteger . 
:IG-CDISC_SDTMIGAE_AETOXGR bd:controlled_term_or_format ""^^xsd:string . 
:IG-CDISC_SDTMIGAE_AETOXGR bd:notes "Toxicity grade according to a standard toxicity scale such as Common Terminology Criteria for Adverse Events v3.0 (CTCAE). Sponsor should specify name of the scale and version used in the metadata (see 6.2.1.1, Assumption 6c). If value is from a numeric scale, represent only the number (e.g., '2' and not 'Grade 2')."^^xsd:string . 
:IG-CDISC_SDTMIGAE_AETOXGR bd:name "AETOXGR"^^xsd:string . 
:IG-CDISC_SDTMIGAE_AETOXGR bd:basedOnVariable :IG-CDISC_SDTMIGAE_AETOXGR_VR . 
:IG-CDISC_SDTMIGAE_AETOXGR_VR rdf:type bo:CReference . 
:IG-CDISC_SDTMIGAE_AETOXGR_VR bo:hasColumn <http://www.assero.co.uk/MDRModels/CDISC/V1#M-CDISC_SDTMMODEL_EVENTS_xxTOXGR> . 
:IG-CDISC_SDTMIGAE_AETOXGR_VR bo:enabled "true"^^xsd:boolean . 
:IG-CDISC_SDTMIGAE_AETOXGR_VR bo:optional "false"^^xsd:boolean . 
:IG-CDISC_SDTMIGAE_AETOXGR_VR bo:ordinal "1"^^xsd:positiveInteger . 
:IG-CDISC_SDTMIGAE_AETOXGR bd:compliance <http://www.assero.co.uk/MDRModels/CDISC/V2#IG-CDISC_SDTMIG_C_PERMISSIBLE> . 
:IG-CDISC_SDTMIGAE bd:includesColumn :IG-CDISC_SDTMIGAE_AETOXGR . 
:IG-CDISC_SDTMIGAE_AESTDTC rdf:type bd:IgVariable . 
:IG-CDISC_SDTMIGAE_AESTDTC rdfs:label "Start Date/Time of Adverse Event"^^xsd:string . 
:IG-CDISC_SDTMIGAE_AESTDTC bd:ordinal "34"^^xsd:positiveInteger . 
:IG-CDISC_SDTMIGAE_AESTDTC bd:controlled_term_or_format "ISO 8601"^^xsd:string . 
:IG-CDISC_SDTMIGAE_AESTDTC bd:notes ""^^xsd:string . 
:IG-CDISC_SDTMIGAE_AESTDTC bd:name "AESTDTC"^^xsd:string . 
:IG-CDISC_SDTMIGAE_AESTDTC bd:basedOnVariable :IG-CDISC_SDTMIGAE_AESTDTC_VR . 
:IG-CDISC_SDTMIGAE_AESTDTC_VR rdf:type bo:CReference . 
:IG-CDISC_SDTMIGAE_AESTDTC_VR bo:hasColumn <http://www.assero.co.uk/MDRModels/CDISC/V1#M-CDISC_SDTMMODEL_EVENTS_xxSTDTC> . 
:IG-CDISC_SDTMIGAE_AESTDTC_VR bo:enabled "true"^^xsd:boolean . 
:IG-CDISC_SDTMIGAE_AESTDTC_VR bo:optional "false"^^xsd:boolean . 
:IG-CDISC_SDTMIGAE_AESTDTC_VR bo:ordinal "1"^^xsd:positiveInteger . 
:IG-CDISC_SDTMIGAE_AESTDTC bd:compliance <http://www.assero.co.uk/MDRModels/CDISC/V2#IG-CDISC_SDTMIG_C_EXPECTED> . 
:IG-CDISC_SDTMIGAE bd:includesColumn :IG-CDISC_SDTMIGAE_AESTDTC . 
:IG-CDISC_SDTMIGAE_AEENDTC rdf:type bd:IgVariable . 
:IG-CDISC_SDTMIGAE_AEENDTC rdfs:label "End Date/Time of Adverse Event"^^xsd:string . 
:IG-CDISC_SDTMIGAE_AEENDTC bd:ordinal "35"^^xsd:positiveInteger . 
:IG-CDISC_SDTMIGAE_AEENDTC bd:controlled_term_or_format "ISO 8601"^^xsd:string . 
:IG-CDISC_SDTMIGAE_AEENDTC bd:notes ""^^xsd:string . 
:IG-CDISC_SDTMIGAE_AEENDTC bd:name "AEENDTC"^^xsd:string . 
:IG-CDISC_SDTMIGAE_AEENDTC bd:basedOnVariable :IG-CDISC_SDTMIGAE_AEENDTC_VR . 
:IG-CDISC_SDTMIGAE_AEENDTC_VR rdf:type bo:CReference . 
:IG-CDISC_SDTMIGAE_AEENDTC_VR bo:hasColumn <http://www.assero.co.uk/MDRModels/CDISC/V1#M-CDISC_SDTMMODEL_EVENTS_xxENDTC> . 
:IG-CDISC_SDTMIGAE_AEENDTC_VR bo:enabled "true"^^xsd:boolean . 
:IG-CDISC_SDTMIGAE_AEENDTC_VR bo:optional "false"^^xsd:boolean . 
:IG-CDISC_SDTMIGAE_AEENDTC_VR bo:ordinal "1"^^xsd:positiveInteger . 
:IG-CDISC_SDTMIGAE_AEENDTC bd:compliance <http://www.assero.co.uk/MDRModels/CDISC/V2#IG-CDISC_SDTMIG_C_EXPECTED> . 
:IG-CDISC_SDTMIGAE bd:includesColumn :IG-CDISC_SDTMIGAE_AEENDTC . 
:IG-CDISC_SDTMIGAE_AESTDY rdf:type bd:IgVariable . 
:IG-CDISC_SDTMIGAE_AESTDY rdfs:label "Study Day of Start of Adverse Event"^^xsd:string . 
:IG-CDISC_SDTMIGAE_AESTDY bd:ordinal "36"^^xsd:positiveInteger . 
:IG-CDISC_SDTMIGAE_AESTDY bd:controlled_term_or_format ""^^xsd:string . 
:IG-CDISC_SDTMIGAE_AESTDY bd:notes "Study day of start of adverse event relative to the sponsor-defined RFSTDTC."^^xsd:string . 
:IG-CDISC_SDTMIGAE_AESTDY bd:name "AESTDY"^^xsd:string . 
:IG-CDISC_SDTMIGAE_AESTDY bd:basedOnVariable :IG-CDISC_SDTMIGAE_AESTDY_VR . 
:IG-CDISC_SDTMIGAE_AESTDY_VR rdf:type bo:CReference . 
:IG-CDISC_SDTMIGAE_AESTDY_VR bo:hasColumn <http://www.assero.co.uk/MDRModels/CDISC/V1#M-CDISC_SDTMMODEL_EVENTS_xxSTDY> . 
:IG-CDISC_SDTMIGAE_AESTDY_VR bo:enabled "true"^^xsd:boolean . 
:IG-CDISC_SDTMIGAE_AESTDY_VR bo:optional "false"^^xsd:boolean . 
:IG-CDISC_SDTMIGAE_AESTDY_VR bo:ordinal "1"^^xsd:positiveInteger . 
:IG-CDISC_SDTMIGAE_AESTDY bd:compliance <http://www.assero.co.uk/MDRModels/CDISC/V2#IG-CDISC_SDTMIG_C_PERMISSIBLE> . 
:IG-CDISC_SDTMIGAE bd:includesColumn :IG-CDISC_SDTMIGAE_AESTDY . 
:IG-CDISC_SDTMIGAE_AEENDY rdf:type bd:IgVariable . 
:IG-CDISC_SDTMIGAE_AEENDY rdfs:label "Study Day of End of Adverse Event"^^xsd:string . 
:IG-CDISC_SDTMIGAE_AEENDY bd:ordinal "37"^^xsd:positiveInteger . 
:IG-CDISC_SDTMIGAE_AEENDY bd:controlled_term_or_format ""^^xsd:string . 
:IG-CDISC_SDTMIGAE_AEENDY bd:notes "Study day of end of event relative to the sponsor-defined RFSTDTC."^^xsd:string . 
:IG-CDISC_SDTMIGAE_AEENDY bd:name "AEENDY"^^xsd:string . 
:IG-CDISC_SDTMIGAE_AEENDY bd:basedOnVariable :IG-CDISC_SDTMIGAE_AEENDY_VR . 
:IG-CDISC_SDTMIGAE_AEENDY_VR rdf:type bo:CReference . 
:IG-CDISC_SDTMIGAE_AEENDY_VR bo:hasColumn <http://www.assero.co.uk/MDRModels/CDISC/V1#M-CDISC_SDTMMODEL_EVENTS_xxENDY> . 
:IG-CDISC_SDTMIGAE_AEENDY_VR bo:enabled "true"^^xsd:boolean . 
:IG-CDISC_SDTMIGAE_AEENDY_VR bo:optional "false"^^xsd:boolean . 
:IG-CDISC_SDTMIGAE_AEENDY_VR bo:ordinal "1"^^xsd:positiveInteger . 
:IG-CDISC_SDTMIGAE_AEENDY bd:compliance <http://www.assero.co.uk/MDRModels/CDISC/V2#IG-CDISC_SDTMIG_C_PERMISSIBLE> . 
:IG-CDISC_SDTMIGAE bd:includesColumn :IG-CDISC_SDTMIGAE_AEENDY . 
:IG-CDISC_SDTMIGAE_AEDUR rdf:type bd:IgVariable . 
:IG-CDISC_SDTMIGAE_AEDUR rdfs:label "Duration of Adverse Event"^^xsd:string . 
:IG-CDISC_SDTMIGAE_AEDUR bd:ordinal "38"^^xsd:positiveInteger . 
:IG-CDISC_SDTMIGAE_AEDUR bd:controlled_term_or_format "ISO 8601"^^xsd:string . 
:IG-CDISC_SDTMIGAE_AEDUR bd:notes "Collected duration and unit of an adverse event. Used only if collected on the CRF and not derived from start and end date/times. Example: P1DT2H (for 1 day, 2 hours)."^^xsd:string . 
:IG-CDISC_SDTMIGAE_AEDUR bd:name "AEDUR"^^xsd:string . 
:IG-CDISC_SDTMIGAE_AEDUR bd:basedOnVariable :IG-CDISC_SDTMIGAE_AEDUR_VR . 
:IG-CDISC_SDTMIGAE_AEDUR_VR rdf:type bo:CReference . 
:IG-CDISC_SDTMIGAE_AEDUR_VR bo:hasColumn <http://www.assero.co.uk/MDRModels/CDISC/V1#M-CDISC_SDTMMODEL_EVENTS_xxDUR> . 
:IG-CDISC_SDTMIGAE_AEDUR_VR bo:enabled "true"^^xsd:boolean . 
:IG-CDISC_SDTMIGAE_AEDUR_VR bo:optional "false"^^xsd:boolean . 
:IG-CDISC_SDTMIGAE_AEDUR_VR bo:ordinal "1"^^xsd:positiveInteger . 
:IG-CDISC_SDTMIGAE_AEDUR bd:compliance <http://www.assero.co.uk/MDRModels/CDISC/V2#IG-CDISC_SDTMIG_C_PERMISSIBLE> . 
:IG-CDISC_SDTMIGAE bd:includesColumn :IG-CDISC_SDTMIGAE_AEDUR . 
:IG-CDISC_SDTMIGAE_AEENRF rdf:type bd:IgVariable . 
:IG-CDISC_SDTMIGAE_AEENRF rdfs:label "End Relative to Reference Period"^^xsd:string . 
:IG-CDISC_SDTMIGAE_AEENRF bd:ordinal "39"^^xsd:positiveInteger . 
:IG-CDISC_SDTMIGAE_AEENRF bd:controlled_term_or_format "STENRF"^^xsd:string . 
:IG-CDISC_SDTMIGAE_AEENRF bd:notes "Describes the end of the event relative to the sponsor-defined reference period. The sponsor-defined reference period is a continuous period of time defined by a discrete starting point (RFSTDTC) and a discrete ending point (RFENDTC) of the trial."^^xsd:string . 
:IG-CDISC_SDTMIGAE_AEENRF bd:name "AEENRF"^^xsd:string . 
:IG-CDISC_SDTMIGAE_AEENRF bd:basedOnVariable :IG-CDISC_SDTMIGAE_AEENRF_VR . 
:IG-CDISC_SDTMIGAE_AEENRF_VR rdf:type bo:CReference . 
:IG-CDISC_SDTMIGAE_AEENRF_VR bo:hasColumn <http://www.assero.co.uk/MDRModels/CDISC/V1#M-CDISC_SDTMMODEL_EVENTS_xxENRF> . 
:IG-CDISC_SDTMIGAE_AEENRF_VR bo:enabled "true"^^xsd:boolean . 
:IG-CDISC_SDTMIGAE_AEENRF_VR bo:optional "false"^^xsd:boolean . 
:IG-CDISC_SDTMIGAE_AEENRF_VR bo:ordinal "1"^^xsd:positiveInteger . 
:IG-CDISC_SDTMIGAE_AEENRF bd:compliance <http://www.assero.co.uk/MDRModels/CDISC/V2#IG-CDISC_SDTMIG_C_PERMISSIBLE> . 
:IG-CDISC_SDTMIGAE bd:includesColumn :IG-CDISC_SDTMIGAE_AEENRF . 
:IG-CDISC_SDTMIGAE_AEENRTPT rdf:type bd:IgVariable . 
:IG-CDISC_SDTMIGAE_AEENRTPT rdfs:label "End Relative to Reference Time Point"^^xsd:string . 
:IG-CDISC_SDTMIGAE_AEENRTPT bd:ordinal "40"^^xsd:positiveInteger . 
:IG-CDISC_SDTMIGAE_AEENRTPT bd:controlled_term_or_format "ENRTPT"^^xsd:string . 
:IG-CDISC_SDTMIGAE_AEENRTPT bd:notes "Identifies the end of the event as being before or after the reference time point defined by variable AEENTPT."^^xsd:string . 
:IG-CDISC_SDTMIGAE_AEENRTPT bd:name "AEENRTPT"^^xsd:string . 
:IG-CDISC_SDTMIGAE_AEENRTPT bd:basedOnVariable :IG-CDISC_SDTMIGAE_AEENRTPT_VR . 
:IG-CDISC_SDTMIGAE_AEENRTPT_VR rdf:type bo:CReference . 
:IG-CDISC_SDTMIGAE_AEENRTPT_VR bo:hasColumn <http://www.assero.co.uk/MDRModels/CDISC/V1#M-CDISC_SDTMMODEL_EVENTS_xxENRTPT> . 
:IG-CDISC_SDTMIGAE_AEENRTPT_VR bo:enabled "true"^^xsd:boolean . 
:IG-CDISC_SDTMIGAE_AEENRTPT_VR bo:optional "false"^^xsd:boolean . 
:IG-CDISC_SDTMIGAE_AEENRTPT_VR bo:ordinal "1"^^xsd:positiveInteger . 
:IG-CDISC_SDTMIGAE_AEENRTPT bd:compliance <http://www.assero.co.uk/MDRModels/CDISC/V2#IG-CDISC_SDTMIG_C_PERMISSIBLE> . 
:IG-CDISC_SDTMIGAE bd:includesColumn :IG-CDISC_SDTMIGAE_AEENRTPT . 
:IG-CDISC_SDTMIGAE_AEENTPT rdf:type bd:IgVariable . 
:IG-CDISC_SDTMIGAE_AEENTPT rdfs:label "End Reference Time Point"^^xsd:string . 
:IG-CDISC_SDTMIGAE_AEENTPT bd:ordinal "41"^^xsd:positiveInteger . 
:IG-CDISC_SDTMIGAE_AEENTPT bd:controlled_term_or_format ""^^xsd:string . 
:IG-CDISC_SDTMIGAE_AEENTPT bd:notes "Description of date/time in ISO 8601 character format of the reference point referred to by AEENRTPT. Examples: '2003-12-25' or 'VISIT 2'."^^xsd:string . 
:IG-CDISC_SDTMIGAE_AEENTPT bd:name "AEENTPT"^^xsd:string . 
:IG-CDISC_SDTMIGAE_AEENTPT bd:basedOnVariable :IG-CDISC_SDTMIGAE_AEENTPT_VR . 
:IG-CDISC_SDTMIGAE_AEENTPT_VR rdf:type bo:CReference . 
:IG-CDISC_SDTMIGAE_AEENTPT_VR bo:hasColumn <http://www.assero.co.uk/MDRModels/CDISC/V1#M-CDISC_SDTMMODEL_EVENTS_xxENTPT> . 
:IG-CDISC_SDTMIGAE_AEENTPT_VR bo:enabled "true"^^xsd:boolean . 
:IG-CDISC_SDTMIGAE_AEENTPT_VR bo:optional "false"^^xsd:boolean . 
:IG-CDISC_SDTMIGAE_AEENTPT_VR bo:ordinal "1"^^xsd:positiveInteger . 
:IG-CDISC_SDTMIGAE_AEENTPT bd:compliance <http://www.assero.co.uk/MDRModels/CDISC/V2#IG-CDISC_SDTMIG_C_PERMISSIBLE> . 
:IG-CDISC_SDTMIGAE bd:includesColumn :IG-CDISC_SDTMIGAE_AEENTPT . 
:IG-CDISC_SDTMIG bd:includesTabulation :IG-CDISC_SDTMIG_TR1 . 
:IG-CDISC_SDTMIG_TR1 rdf:type bo:TReference . 
:IG-CDISC_SDTMIG_TR1 bo:hasTabulation <http://www.assero.co.uk/MDRModels/CDISC/V2#IG-CDISC_SDTMIGAE> . 
:IG-CDISC_SDTMIG_TR1 bo:enabled "true"^^xsd:boolean . 
:IG-CDISC_SDTMIG_TR1 bo:optional "false"^^xsd:boolean . 
:IG-CDISC_SDTMIG_TR1 bo:ordinal "1"^^xsd:positiveInteger . 
mdrItems:SI-CDISC_SDTMIGCE-2 rdf:type isoI:ScopedIdentifier . 
mdrItems:SI-CDISC_SDTMIGCE-2 isoI:identifier "SDTM IG CE"^^xsd:string . 
mdrItems:SI-CDISC_SDTMIGCE-2 isoI:version "2"^^xsd:positiveInteger . 
mdrItems:SI-CDISC_SDTMIGCE-2 isoI:versionLabel "3.1.2"^^xsd:string . 
mdrItems:SI-CDISC_SDTMIGCE-2 isoI:hasScope mdrItems:NS-CDISC . 
mdrItems:RS-CDISC_SDTMIGCE-2 rdf:type isoR:RegistrationState . 
mdrItems:RS-CDISC_SDTMIGCE-2 isoR:byAuthority mdrItems:RA-084433759 . 
mdrItems:RS-CDISC_SDTMIGCE-2 isoR:registrationStatus "Standard"^^xsd:string . 
mdrItems:RS-CDISC_SDTMIGCE-2 isoR:administrativeNote ""^^xsd:string . 
mdrItems:RS-CDISC_SDTMIGCE-2 isoR:effectiveDate "2016-01-01T00:00:00Z"^^xsd:dateTime . 
mdrItems:RS-CDISC_SDTMIGCE-2 isoR:untilDate "2016-01-01T00:00:00Z"^^xsd:dateTime . 
mdrItems:RS-CDISC_SDTMIGCE-2 isoR:unresolvedIssue ""^^xsd:string . 
mdrItems:RS-CDISC_SDTMIGCE-2 isoR:administrativeStatus ""^^xsd:string . 
mdrItems:RS-CDISC_SDTMIGCE-2 isoR:previousState "Standard"^^xsd:string . 
:IG-CDISC_SDTMIGCE rdf:type bd:IGDomain . 
:IG-CDISC_SDTMIGCE isoI:hasIdentifier mdrItems:SI-CDISC_SDTMIGCE-2 . 
:IG-CDISC_SDTMIGCE isoR:hasState mdrItems:RS-CDISC_SDTMIGCE-2 . 
:IG-CDISC_SDTMIGCE rdfs:label "Clinical Events"^^xsd:string . 
:IG-CDISC_SDTMIGCE isoT:creationDate "2016-07-15"^^xsd:string . 
:IG-CDISC_SDTMIGCE isoT:lastChangeDate "2016-07-15T08:12:50+01:00"^^xsd:string . 
:IG-CDISC_SDTMIGCE isoT:changeDescription ""^^xsd:string . 
:IG-CDISC_SDTMIGCE isoT:explanatoryComment ""^^xsd:string . 
:IG-CDISC_SDTMIGCE isoT:origin ""^^xsd:string . 
:IG-CDISC_SDTMIGCE bd:prefix ""^^xsd:string . 
:IG-CDISC_SDTMIGCE bd:structure ""^^xsd:string . 
:IG-CDISC_SDTMIGCE bd:basedOnDomain :IG-CDISC_SDTMIGCE_CLR . 
:IG-CDISC_SDTMIGCE_CLR rdf:type bo:TReference . 
:IG-CDISC_SDTMIGCE_CLR bo:hasTabulation <http://www.assero.co.uk/MDRModels/CDISC/V1#M-CDISC_SDTMMODEL_EVENTS> . 
:IG-CDISC_SDTMIGCE_CLR bo:enabled "true"^^xsd:boolean . 
:IG-CDISC_SDTMIGCE_CLR bo:optional "false"^^xsd:boolean . 
:IG-CDISC_SDTMIGCE_CLR bo:ordinal "1"^^xsd:positiveInteger . 
:IG-CDISC_SDTMIGCE_STUDYID rdf:type bd:IgVariable . 
:IG-CDISC_SDTMIGCE_STUDYID rdfs:label "Study Identifier"^^xsd:string . 
:IG-CDISC_SDTMIGCE_STUDYID bd:ordinal "1"^^xsd:positiveInteger . 
:IG-CDISC_SDTMIGCE_STUDYID bd:controlled_term_or_format ""^^xsd:string . 
:IG-CDISC_SDTMIGCE_STUDYID bd:notes "Unique identifier for a study."^^xsd:string . 
:IG-CDISC_SDTMIGCE_STUDYID bd:name "STUDYID"^^xsd:string . 
:IG-CDISC_SDTMIGCE_STUDYID bd:basedOnVariable :IG-CDISC_SDTMIGCE_STUDYID_VR . 
:IG-CDISC_SDTMIGCE_STUDYID_VR rdf:type bo:CReference . 
:IG-CDISC_SDTMIGCE_STUDYID_VR bo:hasColumn <http://www.assero.co.uk/MDRModels/CDISC/V1#M-CDISC_SDTMMODEL_EVENTS_STUDYID> . 
:IG-CDISC_SDTMIGCE_STUDYID_VR bo:enabled "true"^^xsd:boolean . 
:IG-CDISC_SDTMIGCE_STUDYID_VR bo:optional "false"^^xsd:boolean . 
:IG-CDISC_SDTMIGCE_STUDYID_VR bo:ordinal "1"^^xsd:positiveInteger . 
:IG-CDISC_SDTMIGCE_STUDYID bd:compliance <http://www.assero.co.uk/MDRModels/CDISC/V2#IG-CDISC_SDTMIG_C_REQUIRED> . 
:IG-CDISC_SDTMIGCE bd:includesColumn :IG-CDISC_SDTMIGCE_STUDYID . 
:IG-CDISC_SDTMIGCE_DOMAIN rdf:type bd:IgVariable . 
:IG-CDISC_SDTMIGCE_DOMAIN rdfs:label "Domain Abbreviation"^^xsd:string . 
:IG-CDISC_SDTMIGCE_DOMAIN bd:ordinal "2"^^xsd:positiveInteger . 
:IG-CDISC_SDTMIGCE_DOMAIN bd:controlled_term_or_format ""^^xsd:string . 
:IG-CDISC_SDTMIGCE_DOMAIN bd:notes "Two-character abbreviation for the domain."^^xsd:string . 
:IG-CDISC_SDTMIGCE_DOMAIN bd:name "DOMAIN"^^xsd:string . 
:IG-CDISC_SDTMIGCE_DOMAIN bd:basedOnVariable :IG-CDISC_SDTMIGCE_DOMAIN_VR . 
:IG-CDISC_SDTMIGCE_DOMAIN_VR rdf:type bo:CReference . 
:IG-CDISC_SDTMIGCE_DOMAIN_VR bo:hasColumn <http://www.assero.co.uk/MDRModels/CDISC/V1#M-CDISC_SDTMMODEL_EVENTS_DOMAIN> . 
:IG-CDISC_SDTMIGCE_DOMAIN_VR bo:enabled "true"^^xsd:boolean . 
:IG-CDISC_SDTMIGCE_DOMAIN_VR bo:optional "false"^^xsd:boolean . 
:IG-CDISC_SDTMIGCE_DOMAIN_VR bo:ordinal "1"^^xsd:positiveInteger . 
:IG-CDISC_SDTMIGCE_DOMAIN bd:compliance <http://www.assero.co.uk/MDRModels/CDISC/V2#IG-CDISC_SDTMIG_C_REQUIRED> . 
:IG-CDISC_SDTMIGCE bd:includesColumn :IG-CDISC_SDTMIGCE_DOMAIN . 
:IG-CDISC_SDTMIGCE_USUBJID rdf:type bd:IgVariable . 
:IG-CDISC_SDTMIGCE_USUBJID rdfs:label "Unique Subject Identifier"^^xsd:string . 
:IG-CDISC_SDTMIGCE_USUBJID bd:ordinal "3"^^xsd:positiveInteger . 
:IG-CDISC_SDTMIGCE_USUBJID bd:controlled_term_or_format ""^^xsd:string . 
:IG-CDISC_SDTMIGCE_USUBJID bd:notes "Identifier used to uniquely identify a subject across all studies for all applications or submissions involving the product."^^xsd:string . 
:IG-CDISC_SDTMIGCE_USUBJID bd:name "USUBJID"^^xsd:string . 
:IG-CDISC_SDTMIGCE_USUBJID bd:basedOnVariable :IG-CDISC_SDTMIGCE_USUBJID_VR . 
:IG-CDISC_SDTMIGCE_USUBJID_VR rdf:type bo:CReference . 
:IG-CDISC_SDTMIGCE_USUBJID_VR bo:hasColumn <http://www.assero.co.uk/MDRModels/CDISC/V1#M-CDISC_SDTMMODEL_EVENTS_USUBJID> . 
:IG-CDISC_SDTMIGCE_USUBJID_VR bo:enabled "true"^^xsd:boolean . 
:IG-CDISC_SDTMIGCE_USUBJID_VR bo:optional "false"^^xsd:boolean . 
:IG-CDISC_SDTMIGCE_USUBJID_VR bo:ordinal "1"^^xsd:positiveInteger . 
:IG-CDISC_SDTMIGCE_USUBJID bd:compliance <http://www.assero.co.uk/MDRModels/CDISC/V2#IG-CDISC_SDTMIG_C_REQUIRED> . 
:IG-CDISC_SDTMIGCE bd:includesColumn :IG-CDISC_SDTMIGCE_USUBJID . 
:IG-CDISC_SDTMIGCE_CESEQ rdf:type bd:IgVariable . 
:IG-CDISC_SDTMIGCE_CESEQ rdfs:label "Sequence Number"^^xsd:string . 
:IG-CDISC_SDTMIGCE_CESEQ bd:ordinal "4"^^xsd:positiveInteger . 
:IG-CDISC_SDTMIGCE_CESEQ bd:controlled_term_or_format ""^^xsd:string . 
:IG-CDISC_SDTMIGCE_CESEQ bd:notes "Sequence Number given to ensure uniqueness of subject records within a domain. May be any valid number."^^xsd:string . 
:IG-CDISC_SDTMIGCE_CESEQ bd:name "CESEQ"^^xsd:string . 
:IG-CDISC_SDTMIGCE_CESEQ bd:basedOnVariable :IG-CDISC_SDTMIGCE_CESEQ_VR . 
:IG-CDISC_SDTMIGCE_CESEQ_VR rdf:type bo:CReference . 
:IG-CDISC_SDTMIGCE_CESEQ_VR bo:hasColumn <http://www.assero.co.uk/MDRModels/CDISC/V1#M-CDISC_SDTMMODEL_EVENTS_xxSEQ> . 
:IG-CDISC_SDTMIGCE_CESEQ_VR bo:enabled "true"^^xsd:boolean . 
:IG-CDISC_SDTMIGCE_CESEQ_VR bo:optional "false"^^xsd:boolean . 
:IG-CDISC_SDTMIGCE_CESEQ_VR bo:ordinal "1"^^xsd:positiveInteger . 
:IG-CDISC_SDTMIGCE_CESEQ bd:compliance <http://www.assero.co.uk/MDRModels/CDISC/V2#IG-CDISC_SDTMIG_C_REQUIRED> . 
:IG-CDISC_SDTMIGCE bd:includesColumn :IG-CDISC_SDTMIGCE_CESEQ . 
:IG-CDISC_SDTMIGCE_CEGRPID rdf:type bd:IgVariable . 
:IG-CDISC_SDTMIGCE_CEGRPID rdfs:label "Group ID"^^xsd:string . 
:IG-CDISC_SDTMIGCE_CEGRPID bd:ordinal "5"^^xsd:positiveInteger . 
:IG-CDISC_SDTMIGCE_CEGRPID bd:controlled_term_or_format ""^^xsd:string . 
:IG-CDISC_SDTMIGCE_CEGRPID bd:notes "Used to tie together a block of related records for a subject within a domain."^^xsd:string . 
:IG-CDISC_SDTMIGCE_CEGRPID bd:name "CEGRPID"^^xsd:string . 
:IG-CDISC_SDTMIGCE_CEGRPID bd:basedOnVariable :IG-CDISC_SDTMIGCE_CEGRPID_VR . 
:IG-CDISC_SDTMIGCE_CEGRPID_VR rdf:type bo:CReference . 
:IG-CDISC_SDTMIGCE_CEGRPID_VR bo:hasColumn <http://www.assero.co.uk/MDRModels/CDISC/V1#M-CDISC_SDTMMODEL_EVENTS_xxGRPID> . 
:IG-CDISC_SDTMIGCE_CEGRPID_VR bo:enabled "true"^^xsd:boolean . 
:IG-CDISC_SDTMIGCE_CEGRPID_VR bo:optional "false"^^xsd:boolean . 
:IG-CDISC_SDTMIGCE_CEGRPID_VR bo:ordinal "1"^^xsd:positiveInteger . 
:IG-CDISC_SDTMIGCE_CEGRPID bd:compliance <http://www.assero.co.uk/MDRModels/CDISC/V2#IG-CDISC_SDTMIG_C_PERMISSIBLE> . 
:IG-CDISC_SDTMIGCE bd:includesColumn :IG-CDISC_SDTMIGCE_CEGRPID . 
:IG-CDISC_SDTMIGCE_CEREFID rdf:type bd:IgVariable . 
:IG-CDISC_SDTMIGCE_CEREFID rdfs:label "Reference ID"^^xsd:string . 
:IG-CDISC_SDTMIGCE_CEREFID bd:ordinal "6"^^xsd:positiveInteger . 
:IG-CDISC_SDTMIGCE_CEREFID bd:controlled_term_or_format ""^^xsd:string . 
:IG-CDISC_SDTMIGCE_CEREFID bd:notes "Internal or external identifier."^^xsd:string . 
:IG-CDISC_SDTMIGCE_CEREFID bd:name "CEREFID"^^xsd:string . 
:IG-CDISC_SDTMIGCE_CEREFID bd:basedOnVariable :IG-CDISC_SDTMIGCE_CEREFID_VR . 
:IG-CDISC_SDTMIGCE_CEREFID_VR rdf:type bo:CReference . 
:IG-CDISC_SDTMIGCE_CEREFID_VR bo:hasColumn <http://www.assero.co.uk/MDRModels/CDISC/V1#M-CDISC_SDTMMODEL_EVENTS_xxREFID> . 
:IG-CDISC_SDTMIGCE_CEREFID_VR bo:enabled "true"^^xsd:boolean . 
:IG-CDISC_SDTMIGCE_CEREFID_VR bo:optional "false"^^xsd:boolean . 
:IG-CDISC_SDTMIGCE_CEREFID_VR bo:ordinal "1"^^xsd:positiveInteger . 
:IG-CDISC_SDTMIGCE_CEREFID bd:compliance <http://www.assero.co.uk/MDRModels/CDISC/V2#IG-CDISC_SDTMIG_C_PERMISSIBLE> . 
:IG-CDISC_SDTMIGCE bd:includesColumn :IG-CDISC_SDTMIGCE_CEREFID . 
:IG-CDISC_SDTMIGCE_CESPID rdf:type bd:IgVariable . 
:IG-CDISC_SDTMIGCE_CESPID rdfs:label "Sponsor-Defined Identifier"^^xsd:string . 
:IG-CDISC_SDTMIGCE_CESPID bd:ordinal "7"^^xsd:positiveInteger . 
:IG-CDISC_SDTMIGCE_CESPID bd:controlled_term_or_format ""^^xsd:string . 
:IG-CDISC_SDTMIGCE_CESPID bd:notes "Sponsor-defined reference number. Perhaps pre-printed on the CRF as an explicit line identifier or defined in the sponsor's operational database. Example: Line number on a CRF page."^^xsd:string . 
:IG-CDISC_SDTMIGCE_CESPID bd:name "CESPID"^^xsd:string . 
:IG-CDISC_SDTMIGCE_CESPID bd:basedOnVariable :IG-CDISC_SDTMIGCE_CESPID_VR . 
:IG-CDISC_SDTMIGCE_CESPID_VR rdf:type bo:CReference . 
:IG-CDISC_SDTMIGCE_CESPID_VR bo:hasColumn <http://www.assero.co.uk/MDRModels/CDISC/V1#M-CDISC_SDTMMODEL_EVENTS_xxSPID> . 
:IG-CDISC_SDTMIGCE_CESPID_VR bo:enabled "true"^^xsd:boolean . 
:IG-CDISC_SDTMIGCE_CESPID_VR bo:optional "false"^^xsd:boolean . 
:IG-CDISC_SDTMIGCE_CESPID_VR bo:ordinal "1"^^xsd:positiveInteger . 
:IG-CDISC_SDTMIGCE_CESPID bd:compliance <http://www.assero.co.uk/MDRModels/CDISC/V2#IG-CDISC_SDTMIG_C_PERMISSIBLE> . 
:IG-CDISC_SDTMIGCE bd:includesColumn :IG-CDISC_SDTMIGCE_CESPID . 
:IG-CDISC_SDTMIGCE_CETERM rdf:type bd:IgVariable . 
:IG-CDISC_SDTMIGCE_CETERM rdfs:label "Reported Term for the Clinical Event"^^xsd:string . 
:IG-CDISC_SDTMIGCE_CETERM bd:ordinal "8"^^xsd:positiveInteger . 
:IG-CDISC_SDTMIGCE_CETERM bd:controlled_term_or_format ""^^xsd:string . 
:IG-CDISC_SDTMIGCE_CETERM bd:notes "Term for the medical condition or event. Most likely pre-printed on CRF."^^xsd:string . 
:IG-CDISC_SDTMIGCE_CETERM bd:name "CETERM"^^xsd:string . 
:IG-CDISC_SDTMIGCE_CETERM bd:basedOnVariable :IG-CDISC_SDTMIGCE_CETERM_VR . 
:IG-CDISC_SDTMIGCE_CETERM_VR rdf:type bo:CReference . 
:IG-CDISC_SDTMIGCE_CETERM_VR bo:hasColumn <http://www.assero.co.uk/MDRModels/CDISC/V1#M-CDISC_SDTMMODEL_EVENTS_xxTERM> . 
:IG-CDISC_SDTMIGCE_CETERM_VR bo:enabled "true"^^xsd:boolean . 
:IG-CDISC_SDTMIGCE_CETERM_VR bo:optional "false"^^xsd:boolean . 
:IG-CDISC_SDTMIGCE_CETERM_VR bo:ordinal "1"^^xsd:positiveInteger . 
:IG-CDISC_SDTMIGCE_CETERM bd:compliance <http://www.assero.co.uk/MDRModels/CDISC/V2#IG-CDISC_SDTMIG_C_REQUIRED> . 
:IG-CDISC_SDTMIGCE bd:includesColumn :IG-CDISC_SDTMIGCE_CETERM . 
:IG-CDISC_SDTMIGCE_CEDECOD rdf:type bd:IgVariable . 
:IG-CDISC_SDTMIGCE_CEDECOD rdfs:label "Dictionary-Derived Term"^^xsd:string . 
:IG-CDISC_SDTMIGCE_CEDECOD bd:ordinal "9"^^xsd:positiveInteger . 
:IG-CDISC_SDTMIGCE_CEDECOD bd:controlled_term_or_format ""^^xsd:string . 
:IG-CDISC_SDTMIGCE_CEDECOD bd:notes "Controlled terminology for the name of the clinical event. The sponsor is expected to provide the dictionary name and version used to map the terms utilizing the define.xml external codelist attributes"^^xsd:string . 
:IG-CDISC_SDTMIGCE_CEDECOD bd:name "CEDECOD"^^xsd:string . 
:IG-CDISC_SDTMIGCE_CEDECOD bd:basedOnVariable :IG-CDISC_SDTMIGCE_CEDECOD_VR . 
:IG-CDISC_SDTMIGCE_CEDECOD_VR rdf:type bo:CReference . 
:IG-CDISC_SDTMIGCE_CEDECOD_VR bo:hasColumn <http://www.assero.co.uk/MDRModels/CDISC/V1#M-CDISC_SDTMMODEL_EVENTS_xxDECOD> . 
:IG-CDISC_SDTMIGCE_CEDECOD_VR bo:enabled "true"^^xsd:boolean . 
:IG-CDISC_SDTMIGCE_CEDECOD_VR bo:optional "false"^^xsd:boolean . 
:IG-CDISC_SDTMIGCE_CEDECOD_VR bo:ordinal "1"^^xsd:positiveInteger . 
:IG-CDISC_SDTMIGCE_CEDECOD bd:compliance <http://www.assero.co.uk/MDRModels/CDISC/V2#IG-CDISC_SDTMIG_C_PERMISSIBLE> . 
:IG-CDISC_SDTMIGCE bd:includesColumn :IG-CDISC_SDTMIGCE_CEDECOD . 
:IG-CDISC_SDTMIGCE_CECAT rdf:type bd:IgVariable . 
:IG-CDISC_SDTMIGCE_CECAT rdfs:label "Category for Clinical Event"^^xsd:string . 
:IG-CDISC_SDTMIGCE_CECAT bd:ordinal "10"^^xsd:positiveInteger . 
:IG-CDISC_SDTMIGCE_CECAT bd:controlled_term_or_format ""^^xsd:string . 
:IG-CDISC_SDTMIGCE_CECAT bd:notes "Used to define a category of related records."^^xsd:string . 
:IG-CDISC_SDTMIGCE_CECAT bd:name "CECAT"^^xsd:string . 
:IG-CDISC_SDTMIGCE_CECAT bd:basedOnVariable :IG-CDISC_SDTMIGCE_CECAT_VR . 
:IG-CDISC_SDTMIGCE_CECAT_VR rdf:type bo:CReference . 
:IG-CDISC_SDTMIGCE_CECAT_VR bo:hasColumn <http://www.assero.co.uk/MDRModels/CDISC/V1#M-CDISC_SDTMMODEL_EVENTS_xxCAT> . 
:IG-CDISC_SDTMIGCE_CECAT_VR bo:enabled "true"^^xsd:boolean . 
:IG-CDISC_SDTMIGCE_CECAT_VR bo:optional "false"^^xsd:boolean . 
:IG-CDISC_SDTMIGCE_CECAT_VR bo:ordinal "1"^^xsd:positiveInteger . 
:IG-CDISC_SDTMIGCE_CECAT bd:compliance <http://www.assero.co.uk/MDRModels/CDISC/V2#IG-CDISC_SDTMIG_C_PERMISSIBLE> . 
:IG-CDISC_SDTMIGCE bd:includesColumn :IG-CDISC_SDTMIGCE_CECAT . 
:IG-CDISC_SDTMIGCE_CESCAT rdf:type bd:IgVariable . 
:IG-CDISC_SDTMIGCE_CESCAT rdfs:label "Subcategory for Clinical Event"^^xsd:string . 
:IG-CDISC_SDTMIGCE_CESCAT bd:ordinal "11"^^xsd:positiveInteger . 
:IG-CDISC_SDTMIGCE_CESCAT bd:controlled_term_or_format ""^^xsd:string . 
:IG-CDISC_SDTMIGCE_CESCAT bd:notes "A further categorization of the condition or event."^^xsd:string . 
:IG-CDISC_SDTMIGCE_CESCAT bd:name "CESCAT"^^xsd:string . 
:IG-CDISC_SDTMIGCE_CESCAT bd:basedOnVariable :IG-CDISC_SDTMIGCE_CESCAT_VR . 
:IG-CDISC_SDTMIGCE_CESCAT_VR rdf:type bo:CReference . 
:IG-CDISC_SDTMIGCE_CESCAT_VR bo:hasColumn <http://www.assero.co.uk/MDRModels/CDISC/V1#M-CDISC_SDTMMODEL_EVENTS_xxSCAT> . 
:IG-CDISC_SDTMIGCE_CESCAT_VR bo:enabled "true"^^xsd:boolean . 
:IG-CDISC_SDTMIGCE_CESCAT_VR bo:optional "false"^^xsd:boolean . 
:IG-CDISC_SDTMIGCE_CESCAT_VR bo:ordinal "1"^^xsd:positiveInteger . 
:IG-CDISC_SDTMIGCE_CESCAT bd:compliance <http://www.assero.co.uk/MDRModels/CDISC/V2#IG-CDISC_SDTMIG_C_PERMISSIBLE> . 
:IG-CDISC_SDTMIGCE bd:includesColumn :IG-CDISC_SDTMIGCE_CESCAT . 
:IG-CDISC_SDTMIGCE_CEPRESP rdf:type bd:IgVariable . 
:IG-CDISC_SDTMIGCE_CEPRESP rdfs:label "Clinical Event Pre-Specified"^^xsd:string . 
:IG-CDISC_SDTMIGCE_CEPRESP bd:ordinal "12"^^xsd:positiveInteger . 
:IG-CDISC_SDTMIGCE_CEPRESP bd:controlled_term_or_format "NY"^^xsd:string . 
:IG-CDISC_SDTMIGCE_CEPRESP bd:notes "Used to indicate whether the Event in CETERM was pre-specified. Value is Y for pre-specified events, null for spontaneously reported events."^^xsd:string . 
:IG-CDISC_SDTMIGCE_CEPRESP bd:name "CEPRESP"^^xsd:string . 
:IG-CDISC_SDTMIGCE_CEPRESP bd:basedOnVariable :IG-CDISC_SDTMIGCE_CEPRESP_VR . 
:IG-CDISC_SDTMIGCE_CEPRESP_VR rdf:type bo:CReference . 
:IG-CDISC_SDTMIGCE_CEPRESP_VR bo:hasColumn <http://www.assero.co.uk/MDRModels/CDISC/V1#M-CDISC_SDTMMODEL_EVENTS_xxPRESP> . 
:IG-CDISC_SDTMIGCE_CEPRESP_VR bo:enabled "true"^^xsd:boolean . 
:IG-CDISC_SDTMIGCE_CEPRESP_VR bo:optional "false"^^xsd:boolean . 
:IG-CDISC_SDTMIGCE_CEPRESP_VR bo:ordinal "1"^^xsd:positiveInteger . 
:IG-CDISC_SDTMIGCE_CEPRESP bd:compliance <http://www.assero.co.uk/MDRModels/CDISC/V2#IG-CDISC_SDTMIG_C_PERMISSIBLE> . 
:IG-CDISC_SDTMIGCE bd:includesColumn :IG-CDISC_SDTMIGCE_CEPRESP . 
:IG-CDISC_SDTMIGCE_CEOCCUR rdf:type bd:IgVariable . 
:IG-CDISC_SDTMIGCE_CEOCCUR rdfs:label "Clinical Event Occurrence"^^xsd:string . 
:IG-CDISC_SDTMIGCE_CEOCCUR bd:ordinal "13"^^xsd:positiveInteger . 
:IG-CDISC_SDTMIGCE_CEOCCUR bd:controlled_term_or_format "NY"^^xsd:string . 
:IG-CDISC_SDTMIGCE_CEOCCUR bd:notes "Used when the occurrence of specific events is solicited to indicate whether or not a clinical event occurred. Values are null for spontaneously reported events."^^xsd:string . 
:IG-CDISC_SDTMIGCE_CEOCCUR bd:name "CEOCCUR"^^xsd:string . 
:IG-CDISC_SDTMIGCE_CEOCCUR bd:basedOnVariable :IG-CDISC_SDTMIGCE_CEOCCUR_VR . 
:IG-CDISC_SDTMIGCE_CEOCCUR_VR rdf:type bo:CReference . 
:IG-CDISC_SDTMIGCE_CEOCCUR_VR bo:hasColumn <http://www.assero.co.uk/MDRModels/CDISC/V1#M-CDISC_SDTMMODEL_EVENTS_xxOCCUR> . 
:IG-CDISC_SDTMIGCE_CEOCCUR_VR bo:enabled "true"^^xsd:boolean . 
:IG-CDISC_SDTMIGCE_CEOCCUR_VR bo:optional "false"^^xsd:boolean . 
:IG-CDISC_SDTMIGCE_CEOCCUR_VR bo:ordinal "1"^^xsd:positiveInteger . 
:IG-CDISC_SDTMIGCE_CEOCCUR bd:compliance <http://www.assero.co.uk/MDRModels/CDISC/V2#IG-CDISC_SDTMIG_C_PERMISSIBLE> . 
:IG-CDISC_SDTMIGCE bd:includesColumn :IG-CDISC_SDTMIGCE_CEOCCUR . 
:IG-CDISC_SDTMIGCE_CESTAT rdf:type bd:IgVariable . 
:IG-CDISC_SDTMIGCE_CESTAT rdfs:label "Completion Status"^^xsd:string . 
:IG-CDISC_SDTMIGCE_CESTAT bd:ordinal "14"^^xsd:positiveInteger . 
:IG-CDISC_SDTMIGCE_CESTAT bd:controlled_term_or_format "ND"^^xsd:string . 
:IG-CDISC_SDTMIGCE_CESTAT bd:notes "The status indicates that a question from a pre-specified list was not answered."^^xsd:string . 
:IG-CDISC_SDTMIGCE_CESTAT bd:name "CESTAT"^^xsd:string . 
:IG-CDISC_SDTMIGCE_CESTAT bd:basedOnVariable :IG-CDISC_SDTMIGCE_CESTAT_VR . 
:IG-CDISC_SDTMIGCE_CESTAT_VR rdf:type bo:CReference . 
:IG-CDISC_SDTMIGCE_CESTAT_VR bo:hasColumn <http://www.assero.co.uk/MDRModels/CDISC/V1#M-CDISC_SDTMMODEL_EVENTS_xxSTAT> . 
:IG-CDISC_SDTMIGCE_CESTAT_VR bo:enabled "true"^^xsd:boolean . 
:IG-CDISC_SDTMIGCE_CESTAT_VR bo:optional "false"^^xsd:boolean . 
:IG-CDISC_SDTMIGCE_CESTAT_VR bo:ordinal "1"^^xsd:positiveInteger . 
:IG-CDISC_SDTMIGCE_CESTAT bd:compliance <http://www.assero.co.uk/MDRModels/CDISC/V2#IG-CDISC_SDTMIG_C_PERMISSIBLE> . 
:IG-CDISC_SDTMIGCE bd:includesColumn :IG-CDISC_SDTMIGCE_CESTAT . 
:IG-CDISC_SDTMIGCE_CEREASND rdf:type bd:IgVariable . 
:IG-CDISC_SDTMIGCE_CEREASND rdfs:label "Reason Clinical Event Not Collected"^^xsd:string . 
:IG-CDISC_SDTMIGCE_CEREASND bd:ordinal "15"^^xsd:positiveInteger . 
:IG-CDISC_SDTMIGCE_CEREASND bd:controlled_term_or_format ""^^xsd:string . 
:IG-CDISC_SDTMIGCE_CEREASND bd:notes "Describes the reason clinical event data was not collected. Used in conjunction with CESTAT when value is NOT DONE."^^xsd:string . 
:IG-CDISC_SDTMIGCE_CEREASND bd:name "CEREASND"^^xsd:string . 
:IG-CDISC_SDTMIGCE_CEREASND bd:basedOnVariable :IG-CDISC_SDTMIGCE_CEREASND_VR . 
:IG-CDISC_SDTMIGCE_CEREASND_VR rdf:type bo:CReference . 
:IG-CDISC_SDTMIGCE_CEREASND_VR bo:hasColumn <http://www.assero.co.uk/MDRModels/CDISC/V1#M-CDISC_SDTMMODEL_EVENTS_xxREASND> . 
:IG-CDISC_SDTMIGCE_CEREASND_VR bo:enabled "true"^^xsd:boolean . 
:IG-CDISC_SDTMIGCE_CEREASND_VR bo:optional "false"^^xsd:boolean . 
:IG-CDISC_SDTMIGCE_CEREASND_VR bo:ordinal "1"^^xsd:positiveInteger . 
:IG-CDISC_SDTMIGCE_CEREASND bd:compliance <http://www.assero.co.uk/MDRModels/CDISC/V2#IG-CDISC_SDTMIG_C_PERMISSIBLE> . 
:IG-CDISC_SDTMIGCE bd:includesColumn :IG-CDISC_SDTMIGCE_CEREASND . 
:IG-CDISC_SDTMIGCE_CEBODSYS rdf:type bd:IgVariable . 
:IG-CDISC_SDTMIGCE_CEBODSYS rdfs:label "Body System or Organ Class"^^xsd:string . 
:IG-CDISC_SDTMIGCE_CEBODSYS bd:ordinal "16"^^xsd:positiveInteger . 
:IG-CDISC_SDTMIGCE_CEBODSYS bd:controlled_term_or_format ""^^xsd:string . 
:IG-CDISC_SDTMIGCE_CEBODSYS bd:notes "Dictionary-derived. Body system or organ class that is involved in an event or measurement from a standard hierarchy (e.g., MedDRA). When using a multi-axial dictionary such as MedDRA, this should contain the SOC used for the sponsor's analyses and summary tables which may not necessarily be the primary SOC."^^xsd:string . 
:IG-CDISC_SDTMIGCE_CEBODSYS bd:name "CEBODSYS"^^xsd:string . 
:IG-CDISC_SDTMIGCE_CEBODSYS bd:basedOnVariable :IG-CDISC_SDTMIGCE_CEBODSYS_VR . 
:IG-CDISC_SDTMIGCE_CEBODSYS_VR rdf:type bo:CReference . 
:IG-CDISC_SDTMIGCE_CEBODSYS_VR bo:hasColumn <http://www.assero.co.uk/MDRModels/CDISC/V1#M-CDISC_SDTMMODEL_EVENTS_xxBODSYS> . 
:IG-CDISC_SDTMIGCE_CEBODSYS_VR bo:enabled "true"^^xsd:boolean . 
:IG-CDISC_SDTMIGCE_CEBODSYS_VR bo:optional "false"^^xsd:boolean . 
:IG-CDISC_SDTMIGCE_CEBODSYS_VR bo:ordinal "1"^^xsd:positiveInteger . 
:IG-CDISC_SDTMIGCE_CEBODSYS bd:compliance <http://www.assero.co.uk/MDRModels/CDISC/V2#IG-CDISC_SDTMIG_C_PERMISSIBLE> . 
:IG-CDISC_SDTMIGCE bd:includesColumn :IG-CDISC_SDTMIGCE_CEBODSYS . 
:IG-CDISC_SDTMIGCE_CESEV rdf:type bd:IgVariable . 
:IG-CDISC_SDTMIGCE_CESEV rdfs:label "Severity/Intensity"^^xsd:string . 
:IG-CDISC_SDTMIGCE_CESEV bd:ordinal "17"^^xsd:positiveInteger . 
:IG-CDISC_SDTMIGCE_CESEV bd:controlled_term_or_format ""^^xsd:string . 
:IG-CDISC_SDTMIGCE_CESEV bd:notes "The severity or intensity of the event. Examples: MILD, MODERATE, SEVERE"^^xsd:string . 
:IG-CDISC_SDTMIGCE_CESEV bd:name "CESEV"^^xsd:string . 
:IG-CDISC_SDTMIGCE_CESEV bd:basedOnVariable :IG-CDISC_SDTMIGCE_CESEV_VR . 
:IG-CDISC_SDTMIGCE_CESEV_VR rdf:type bo:CReference . 
:IG-CDISC_SDTMIGCE_CESEV_VR bo:hasColumn <http://www.assero.co.uk/MDRModels/CDISC/V1#M-CDISC_SDTMMODEL_EVENTS_xxSEV> . 
:IG-CDISC_SDTMIGCE_CESEV_VR bo:enabled "true"^^xsd:boolean . 
:IG-CDISC_SDTMIGCE_CESEV_VR bo:optional "false"^^xsd:boolean . 
:IG-CDISC_SDTMIGCE_CESEV_VR bo:ordinal "1"^^xsd:positiveInteger . 
:IG-CDISC_SDTMIGCE_CESEV bd:compliance <http://www.assero.co.uk/MDRModels/CDISC/V2#IG-CDISC_SDTMIG_C_PERMISSIBLE> . 
:IG-CDISC_SDTMIGCE bd:includesColumn :IG-CDISC_SDTMIGCE_CESEV . 
:IG-CDISC_SDTMIGCE_CEDTC rdf:type bd:IgVariable . 
:IG-CDISC_SDTMIGCE_CEDTC rdfs:label "Date/Time of Event Collection"^^xsd:string . 
:IG-CDISC_SDTMIGCE_CEDTC bd:ordinal "18"^^xsd:positiveInteger . 
:IG-CDISC_SDTMIGCE_CEDTC bd:controlled_term_or_format "ISO 8601"^^xsd:string . 
:IG-CDISC_SDTMIGCE_CEDTC bd:notes ""^^xsd:string . 
:IG-CDISC_SDTMIGCE_CEDTC bd:name "CEDTC"^^xsd:string . 
:IG-CDISC_SDTMIGCE_CEDTC bd:basedOnVariable :IG-CDISC_SDTMIGCE_CEDTC_VR . 
:IG-CDISC_SDTMIGCE_CEDTC_VR rdf:type bo:CReference . 
:IG-CDISC_SDTMIGCE_CEDTC_VR bo:hasColumn <http://www.assero.co.uk/MDRModels/CDISC/V1#M-CDISC_SDTMMODEL_EVENTS_xxDTC> . 
:IG-CDISC_SDTMIGCE_CEDTC_VR bo:enabled "true"^^xsd:boolean . 
:IG-CDISC_SDTMIGCE_CEDTC_VR bo:optional "false"^^xsd:boolean . 
:IG-CDISC_SDTMIGCE_CEDTC_VR bo:ordinal "1"^^xsd:positiveInteger . 
:IG-CDISC_SDTMIGCE_CEDTC bd:compliance <http://www.assero.co.uk/MDRModels/CDISC/V2#IG-CDISC_SDTMIG_C_PERMISSIBLE> . 
:IG-CDISC_SDTMIGCE bd:includesColumn :IG-CDISC_SDTMIGCE_CEDTC . 
:IG-CDISC_SDTMIGCE_CESTDTC rdf:type bd:IgVariable . 
:IG-CDISC_SDTMIGCE_CESTDTC rdfs:label "Start Date/Time of Clinical Event"^^xsd:string . 
:IG-CDISC_SDTMIGCE_CESTDTC bd:ordinal "19"^^xsd:positiveInteger . 
:IG-CDISC_SDTMIGCE_CESTDTC bd:controlled_term_or_format "ISO 8601"^^xsd:string . 
:IG-CDISC_SDTMIGCE_CESTDTC bd:notes ""^^xsd:string . 
:IG-CDISC_SDTMIGCE_CESTDTC bd:name "CESTDTC"^^xsd:string . 
:IG-CDISC_SDTMIGCE_CESTDTC bd:basedOnVariable :IG-CDISC_SDTMIGCE_CESTDTC_VR . 
:IG-CDISC_SDTMIGCE_CESTDTC_VR rdf:type bo:CReference . 
:IG-CDISC_SDTMIGCE_CESTDTC_VR bo:hasColumn <http://www.assero.co.uk/MDRModels/CDISC/V1#M-CDISC_SDTMMODEL_EVENTS_xxSTDTC> . 
:IG-CDISC_SDTMIGCE_CESTDTC_VR bo:enabled "true"^^xsd:boolean . 
:IG-CDISC_SDTMIGCE_CESTDTC_VR bo:optional "false"^^xsd:boolean . 
:IG-CDISC_SDTMIGCE_CESTDTC_VR bo:ordinal "1"^^xsd:positiveInteger . 
:IG-CDISC_SDTMIGCE_CESTDTC bd:compliance <http://www.assero.co.uk/MDRModels/CDISC/V2#IG-CDISC_SDTMIG_C_PERMISSIBLE> . 
:IG-CDISC_SDTMIGCE bd:includesColumn :IG-CDISC_SDTMIGCE_CESTDTC . 
:IG-CDISC_SDTMIGCE_CEENDTC rdf:type bd:IgVariable . 
:IG-CDISC_SDTMIGCE_CEENDTC rdfs:label "End Date/Time of Clinical Event"^^xsd:string . 
:IG-CDISC_SDTMIGCE_CEENDTC bd:ordinal "20"^^xsd:positiveInteger . 
:IG-CDISC_SDTMIGCE_CEENDTC bd:controlled_term_or_format "ISO 8601"^^xsd:string . 
:IG-CDISC_SDTMIGCE_CEENDTC bd:notes ""^^xsd:string . 
:IG-CDISC_SDTMIGCE_CEENDTC bd:name "CEENDTC"^^xsd:string . 
:IG-CDISC_SDTMIGCE_CEENDTC bd:basedOnVariable :IG-CDISC_SDTMIGCE_CEENDTC_VR . 
:IG-CDISC_SDTMIGCE_CEENDTC_VR rdf:type bo:CReference . 
:IG-CDISC_SDTMIGCE_CEENDTC_VR bo:hasColumn <http://www.assero.co.uk/MDRModels/CDISC/V1#M-CDISC_SDTMMODEL_EVENTS_xxENDTC> . 
:IG-CDISC_SDTMIGCE_CEENDTC_VR bo:enabled "true"^^xsd:boolean . 
:IG-CDISC_SDTMIGCE_CEENDTC_VR bo:optional "false"^^xsd:boolean . 
:IG-CDISC_SDTMIGCE_CEENDTC_VR bo:ordinal "1"^^xsd:positiveInteger . 
:IG-CDISC_SDTMIGCE_CEENDTC bd:compliance <http://www.assero.co.uk/MDRModels/CDISC/V2#IG-CDISC_SDTMIG_C_PERMISSIBLE> . 
:IG-CDISC_SDTMIGCE bd:includesColumn :IG-CDISC_SDTMIGCE_CEENDTC . 
:IG-CDISC_SDTMIGCE_CEDY rdf:type bd:IgVariable . 
:IG-CDISC_SDTMIGCE_CEDY rdfs:label "Study Day of Event Collection"^^xsd:string . 
:IG-CDISC_SDTMIGCE_CEDY bd:ordinal "21"^^xsd:positiveInteger . 
:IG-CDISC_SDTMIGCE_CEDY bd:controlled_term_or_format ""^^xsd:string . 
:IG-CDISC_SDTMIGCE_CEDY bd:notes "1. Study day of clinical event collection, measured as integer days. 2. Algorithm for calculations must be relative to the sponsor-defined RFSTDTC variable in Demographics. This formula should be consistent across the submission."^^xsd:string . 
:IG-CDISC_SDTMIGCE_CEDY bd:name "CEDY"^^xsd:string . 
:IG-CDISC_SDTMIGCE_CEDY bd:basedOnVariable :IG-CDISC_SDTMIGCE_CEDY_VR . 
:IG-CDISC_SDTMIGCE_CEDY_VR rdf:type bo:CReference . 
:IG-CDISC_SDTMIGCE_CEDY_VR bo:hasColumn <http://www.assero.co.uk/MDRModels/CDISC/V1#M-CDISC_SDTMMODEL_EVENTS_xxDY> . 
:IG-CDISC_SDTMIGCE_CEDY_VR bo:enabled "true"^^xsd:boolean . 
:IG-CDISC_SDTMIGCE_CEDY_VR bo:optional "false"^^xsd:boolean . 
:IG-CDISC_SDTMIGCE_CEDY_VR bo:ordinal "1"^^xsd:positiveInteger . 
:IG-CDISC_SDTMIGCE_CEDY bd:compliance <http://www.assero.co.uk/MDRModels/CDISC/V2#IG-CDISC_SDTMIG_C_PERMISSIBLE> . 
:IG-CDISC_SDTMIGCE bd:includesColumn :IG-CDISC_SDTMIGCE_CEDY . 
:IG-CDISC_SDTMIGCE_CESTRF rdf:type bd:IgVariable . 
:IG-CDISC_SDTMIGCE_CESTRF rdfs:label "Start Relative to Reference Period"^^xsd:string . 
:IG-CDISC_SDTMIGCE_CESTRF bd:ordinal "22"^^xsd:positiveInteger . 
:IG-CDISC_SDTMIGCE_CESTRF bd:controlled_term_or_format "STENRF"^^xsd:string . 
:IG-CDISC_SDTMIGCE_CESTRF bd:notes "Describes the start of the clinical event relative to the sponsor-defined reference period. The sponsor-defined reference period is a continuous period of time defined by a discrete starting point and a discrete ending point (represented by RFSTDTC and RFENDTC in Demographics)."^^xsd:string . 
:IG-CDISC_SDTMIGCE_CESTRF bd:name "CESTRF"^^xsd:string . 
:IG-CDISC_SDTMIGCE_CESTRF bd:basedOnVariable :IG-CDISC_SDTMIGCE_CESTRF_VR . 
:IG-CDISC_SDTMIGCE_CESTRF_VR rdf:type bo:CReference . 
:IG-CDISC_SDTMIGCE_CESTRF_VR bo:hasColumn <http://www.assero.co.uk/MDRModels/CDISC/V1#M-CDISC_SDTMMODEL_EVENTS_xxSTRF> . 
:IG-CDISC_SDTMIGCE_CESTRF_VR bo:enabled "true"^^xsd:boolean . 
:IG-CDISC_SDTMIGCE_CESTRF_VR bo:optional "false"^^xsd:boolean . 
:IG-CDISC_SDTMIGCE_CESTRF_VR bo:ordinal "1"^^xsd:positiveInteger . 
:IG-CDISC_SDTMIGCE_CESTRF bd:compliance <http://www.assero.co.uk/MDRModels/CDISC/V2#IG-CDISC_SDTMIG_C_PERMISSIBLE> . 
:IG-CDISC_SDTMIGCE bd:includesColumn :IG-CDISC_SDTMIGCE_CESTRF . 
:IG-CDISC_SDTMIGCE_CEENRF rdf:type bd:IgVariable . 
:IG-CDISC_SDTMIGCE_CEENRF rdfs:label "End Relative to Reference Period"^^xsd:string . 
:IG-CDISC_SDTMIGCE_CEENRF bd:ordinal "23"^^xsd:positiveInteger . 
:IG-CDISC_SDTMIGCE_CEENRF bd:controlled_term_or_format "STENRF"^^xsd:string . 
:IG-CDISC_SDTMIGCE_CEENRF bd:notes "Describes the end of the event relative to the sponsor-defined reference period. The sponsor-defined reference period is a continuous period of time defined by a discrete starting point and a discrete ending point (represented by RFSTDTC and RFENDTC in Demographics)."^^xsd:string . 
:IG-CDISC_SDTMIGCE_CEENRF bd:name "CEENRF"^^xsd:string . 
:IG-CDISC_SDTMIGCE_CEENRF bd:basedOnVariable :IG-CDISC_SDTMIGCE_CEENRF_VR . 
:IG-CDISC_SDTMIGCE_CEENRF_VR rdf:type bo:CReference . 
:IG-CDISC_SDTMIGCE_CEENRF_VR bo:hasColumn <http://www.assero.co.uk/MDRModels/CDISC/V1#M-CDISC_SDTMMODEL_EVENTS_xxENRF> . 
:IG-CDISC_SDTMIGCE_CEENRF_VR bo:enabled "true"^^xsd:boolean . 
:IG-CDISC_SDTMIGCE_CEENRF_VR bo:optional "false"^^xsd:boolean . 
:IG-CDISC_SDTMIGCE_CEENRF_VR bo:ordinal "1"^^xsd:positiveInteger . 
:IG-CDISC_SDTMIGCE_CEENRF bd:compliance <http://www.assero.co.uk/MDRModels/CDISC/V2#IG-CDISC_SDTMIG_C_PERMISSIBLE> . 
:IG-CDISC_SDTMIGCE bd:includesColumn :IG-CDISC_SDTMIGCE_CEENRF . 
:IG-CDISC_SDTMIGCE_CESTRTPT rdf:type bd:IgVariable . 
:IG-CDISC_SDTMIGCE_CESTRTPT rdfs:label "Start Relative to Reference Time Point"^^xsd:string . 
:IG-CDISC_SDTMIGCE_CESTRTPT bd:ordinal "24"^^xsd:positiveInteger . 
:IG-CDISC_SDTMIGCE_CESTRTPT bd:controlled_term_or_format "STRTPT"^^xsd:string . 
:IG-CDISC_SDTMIGCE_CESTRTPT bd:notes "Identifies the start of the observation as being before or after the reference time point defined by variable CESTTPT."^^xsd:string . 
:IG-CDISC_SDTMIGCE_CESTRTPT bd:name "CESTRTPT"^^xsd:string . 
:IG-CDISC_SDTMIGCE_CESTRTPT bd:basedOnVariable :IG-CDISC_SDTMIGCE_CESTRTPT_VR . 
:IG-CDISC_SDTMIGCE_CESTRTPT_VR rdf:type bo:CReference . 
:IG-CDISC_SDTMIGCE_CESTRTPT_VR bo:hasColumn <http://www.assero.co.uk/MDRModels/CDISC/V1#M-CDISC_SDTMMODEL_EVENTS_xxSTRTPT> . 
:IG-CDISC_SDTMIGCE_CESTRTPT_VR bo:enabled "true"^^xsd:boolean . 
:IG-CDISC_SDTMIGCE_CESTRTPT_VR bo:optional "false"^^xsd:boolean . 
:IG-CDISC_SDTMIGCE_CESTRTPT_VR bo:ordinal "1"^^xsd:positiveInteger . 
:IG-CDISC_SDTMIGCE_CESTRTPT bd:compliance <http://www.assero.co.uk/MDRModels/CDISC/V2#IG-CDISC_SDTMIG_C_PERMISSIBLE> . 
:IG-CDISC_SDTMIGCE bd:includesColumn :IG-CDISC_SDTMIGCE_CESTRTPT . 
:IG-CDISC_SDTMIGCE_CESTTPT rdf:type bd:IgVariable . 
:IG-CDISC_SDTMIGCE_CESTTPT rdfs:label "Start Reference Time Point"^^xsd:string . 
:IG-CDISC_SDTMIGCE_CESTTPT bd:ordinal "25"^^xsd:positiveInteger . 
:IG-CDISC_SDTMIGCE_CESTTPT bd:controlled_term_or_format ""^^xsd:string . 
:IG-CDISC_SDTMIGCE_CESTTPT bd:notes "Description or date/time in ISO 8601 character format of the sponsor-defined reference point referred to by --STRTPT. Examples: '2003-12-15' or 'VISIT 1'."^^xsd:string . 
:IG-CDISC_SDTMIGCE_CESTTPT bd:name "CESTTPT"^^xsd:string . 
:IG-CDISC_SDTMIGCE_CESTTPT bd:basedOnVariable :IG-CDISC_SDTMIGCE_CESTTPT_VR . 
:IG-CDISC_SDTMIGCE_CESTTPT_VR rdf:type bo:CReference . 
:IG-CDISC_SDTMIGCE_CESTTPT_VR bo:hasColumn <http://www.assero.co.uk/MDRModels/CDISC/V1#M-CDISC_SDTMMODEL_EVENTS_xxSTTPT> . 
:IG-CDISC_SDTMIGCE_CESTTPT_VR bo:enabled "true"^^xsd:boolean . 
:IG-CDISC_SDTMIGCE_CESTTPT_VR bo:optional "false"^^xsd:boolean . 
:IG-CDISC_SDTMIGCE_CESTTPT_VR bo:ordinal "1"^^xsd:positiveInteger . 
:IG-CDISC_SDTMIGCE_CESTTPT bd:compliance <http://www.assero.co.uk/MDRModels/CDISC/V2#IG-CDISC_SDTMIG_C_PERMISSIBLE> . 
:IG-CDISC_SDTMIGCE bd:includesColumn :IG-CDISC_SDTMIGCE_CESTTPT . 
:IG-CDISC_SDTMIGCE_CEENRTPT rdf:type bd:IgVariable . 
:IG-CDISC_SDTMIGCE_CEENRTPT rdfs:label "End Relative to Reference Time Point"^^xsd:string . 
:IG-CDISC_SDTMIGCE_CEENRTPT bd:ordinal "26"^^xsd:positiveInteger . 
:IG-CDISC_SDTMIGCE_CEENRTPT bd:controlled_term_or_format "ENRTPT"^^xsd:string . 
:IG-CDISC_SDTMIGCE_CEENRTPT bd:notes "Identifies the end of the event as being before or after the reference time point defined by variable CEENTPT."^^xsd:string . 
:IG-CDISC_SDTMIGCE_CEENRTPT bd:name "CEENRTPT"^^xsd:string . 
:IG-CDISC_SDTMIGCE_CEENRTPT bd:basedOnVariable :IG-CDISC_SDTMIGCE_CEENRTPT_VR . 
:IG-CDISC_SDTMIGCE_CEENRTPT_VR rdf:type bo:CReference . 
:IG-CDISC_SDTMIGCE_CEENRTPT_VR bo:hasColumn <http://www.assero.co.uk/MDRModels/CDISC/V1#M-CDISC_SDTMMODEL_EVENTS_xxENRTPT> . 
:IG-CDISC_SDTMIGCE_CEENRTPT_VR bo:enabled "true"^^xsd:boolean . 
:IG-CDISC_SDTMIGCE_CEENRTPT_VR bo:optional "false"^^xsd:boolean . 
:IG-CDISC_SDTMIGCE_CEENRTPT_VR bo:ordinal "1"^^xsd:positiveInteger . 
:IG-CDISC_SDTMIGCE_CEENRTPT bd:compliance <http://www.assero.co.uk/MDRModels/CDISC/V2#IG-CDISC_SDTMIG_C_PERMISSIBLE> . 
:IG-CDISC_SDTMIGCE bd:includesColumn :IG-CDISC_SDTMIGCE_CEENRTPT . 
:IG-CDISC_SDTMIGCE_CEENTPT rdf:type bd:IgVariable . 
:IG-CDISC_SDTMIGCE_CEENTPT rdfs:label "End Reference Time Point"^^xsd:string . 
:IG-CDISC_SDTMIGCE_CEENTPT bd:ordinal "27"^^xsd:positiveInteger . 
:IG-CDISC_SDTMIGCE_CEENTPT bd:controlled_term_or_format ""^^xsd:string . 
:IG-CDISC_SDTMIGCE_CEENTPT bd:notes "Description or date/time in ISO 8601 character format of the reference point referred to by CEENRTPT. Examples: '2003-12-25' or 'VISIT 2'."^^xsd:string . 
:IG-CDISC_SDTMIGCE_CEENTPT bd:name "CEENTPT"^^xsd:string . 
:IG-CDISC_SDTMIGCE_CEENTPT bd:basedOnVariable :IG-CDISC_SDTMIGCE_CEENTPT_VR . 
:IG-CDISC_SDTMIGCE_CEENTPT_VR rdf:type bo:CReference . 
:IG-CDISC_SDTMIGCE_CEENTPT_VR bo:hasColumn <http://www.assero.co.uk/MDRModels/CDISC/V1#M-CDISC_SDTMMODEL_EVENTS_xxENTPT> . 
:IG-CDISC_SDTMIGCE_CEENTPT_VR bo:enabled "true"^^xsd:boolean . 
:IG-CDISC_SDTMIGCE_CEENTPT_VR bo:optional "false"^^xsd:boolean . 
:IG-CDISC_SDTMIGCE_CEENTPT_VR bo:ordinal "1"^^xsd:positiveInteger . 
:IG-CDISC_SDTMIGCE_CEENTPT bd:compliance <http://www.assero.co.uk/MDRModels/CDISC/V2#IG-CDISC_SDTMIG_C_PERMISSIBLE> . 
:IG-CDISC_SDTMIGCE bd:includesColumn :IG-CDISC_SDTMIGCE_CEENTPT . 
:IG-CDISC_SDTMIG bd:includesTabulation :IG-CDISC_SDTMIG_TR2 . 
:IG-CDISC_SDTMIG_TR2 rdf:type bo:TReference . 
:IG-CDISC_SDTMIG_TR2 bo:hasTabulation <http://www.assero.co.uk/MDRModels/CDISC/V2#IG-CDISC_SDTMIGCE> . 
:IG-CDISC_SDTMIG_TR2 bo:enabled "true"^^xsd:boolean . 
:IG-CDISC_SDTMIG_TR2 bo:optional "false"^^xsd:boolean . 
:IG-CDISC_SDTMIG_TR2 bo:ordinal "2"^^xsd:positiveInteger . 
mdrItems:SI-CDISC_SDTMIGCM-2 rdf:type isoI:ScopedIdentifier . 
mdrItems:SI-CDISC_SDTMIGCM-2 isoI:identifier "SDTM IG CM"^^xsd:string . 
mdrItems:SI-CDISC_SDTMIGCM-2 isoI:version "2"^^xsd:positiveInteger . 
mdrItems:SI-CDISC_SDTMIGCM-2 isoI:versionLabel "3.1.2"^^xsd:string . 
mdrItems:SI-CDISC_SDTMIGCM-2 isoI:hasScope mdrItems:NS-CDISC . 
mdrItems:RS-CDISC_SDTMIGCM-2 rdf:type isoR:RegistrationState . 
mdrItems:RS-CDISC_SDTMIGCM-2 isoR:byAuthority mdrItems:RA-084433759 . 
mdrItems:RS-CDISC_SDTMIGCM-2 isoR:registrationStatus "Standard"^^xsd:string . 
mdrItems:RS-CDISC_SDTMIGCM-2 isoR:administrativeNote ""^^xsd:string . 
mdrItems:RS-CDISC_SDTMIGCM-2 isoR:effectiveDate "2016-01-01T00:00:00Z"^^xsd:dateTime . 
mdrItems:RS-CDISC_SDTMIGCM-2 isoR:untilDate "2016-01-01T00:00:00Z"^^xsd:dateTime . 
mdrItems:RS-CDISC_SDTMIGCM-2 isoR:unresolvedIssue ""^^xsd:string . 
mdrItems:RS-CDISC_SDTMIGCM-2 isoR:administrativeStatus ""^^xsd:string . 
mdrItems:RS-CDISC_SDTMIGCM-2 isoR:previousState "Standard"^^xsd:string . 
:IG-CDISC_SDTMIGCM rdf:type bd:IGDomain . 
:IG-CDISC_SDTMIGCM isoI:hasIdentifier mdrItems:SI-CDISC_SDTMIGCM-2 . 
:IG-CDISC_SDTMIGCM isoR:hasState mdrItems:RS-CDISC_SDTMIGCM-2 . 
:IG-CDISC_SDTMIGCM rdfs:label "Concomitant Meds"^^xsd:string . 
:IG-CDISC_SDTMIGCM isoT:creationDate "2016-07-15"^^xsd:string . 
:IG-CDISC_SDTMIGCM isoT:lastChangeDate "2016-07-15T08:12:50+01:00"^^xsd:string . 
:IG-CDISC_SDTMIGCM isoT:changeDescription ""^^xsd:string . 
:IG-CDISC_SDTMIGCM isoT:explanatoryComment ""^^xsd:string . 
:IG-CDISC_SDTMIGCM isoT:origin ""^^xsd:string . 
:IG-CDISC_SDTMIGCM bd:prefix ""^^xsd:string . 
:IG-CDISC_SDTMIGCM bd:structure ""^^xsd:string . 
:IG-CDISC_SDTMIGCM bd:basedOnDomain :IG-CDISC_SDTMIGCM_CLR . 
:IG-CDISC_SDTMIGCM_CLR rdf:type bo:TReference . 
:IG-CDISC_SDTMIGCM_CLR bo:hasTabulation <http://www.assero.co.uk/MDRModels/CDISC/V1#M-CDISC_SDTMMODEL_INTERVENTIONS> . 
:IG-CDISC_SDTMIGCM_CLR bo:enabled "true"^^xsd:boolean . 
:IG-CDISC_SDTMIGCM_CLR bo:optional "false"^^xsd:boolean . 
:IG-CDISC_SDTMIGCM_CLR bo:ordinal "1"^^xsd:positiveInteger . 
:IG-CDISC_SDTMIGCM_STUDYID rdf:type bd:IgVariable . 
:IG-CDISC_SDTMIGCM_STUDYID rdfs:label "Study Identifier"^^xsd:string . 
:IG-CDISC_SDTMIGCM_STUDYID bd:ordinal "1"^^xsd:positiveInteger . 
:IG-CDISC_SDTMIGCM_STUDYID bd:controlled_term_or_format ""^^xsd:string . 
:IG-CDISC_SDTMIGCM_STUDYID bd:notes "Unique identifier for a study."^^xsd:string . 
:IG-CDISC_SDTMIGCM_STUDYID bd:name "STUDYID"^^xsd:string . 
:IG-CDISC_SDTMIGCM_STUDYID bd:basedOnVariable :IG-CDISC_SDTMIGCM_STUDYID_VR . 
:IG-CDISC_SDTMIGCM_STUDYID_VR rdf:type bo:CReference . 
:IG-CDISC_SDTMIGCM_STUDYID_VR bo:hasColumn <http://www.assero.co.uk/MDRModels/CDISC/V1#M-CDISC_SDTMMODEL_INTERVENTIONS_STUDYID> . 
:IG-CDISC_SDTMIGCM_STUDYID_VR bo:enabled "true"^^xsd:boolean . 
:IG-CDISC_SDTMIGCM_STUDYID_VR bo:optional "false"^^xsd:boolean . 
:IG-CDISC_SDTMIGCM_STUDYID_VR bo:ordinal "1"^^xsd:positiveInteger . 
:IG-CDISC_SDTMIGCM_STUDYID bd:compliance <http://www.assero.co.uk/MDRModels/CDISC/V2#IG-CDISC_SDTMIG_C_REQUIRED> . 
:IG-CDISC_SDTMIGCM bd:includesColumn :IG-CDISC_SDTMIGCM_STUDYID . 
:IG-CDISC_SDTMIGCM_DOMAIN rdf:type bd:IgVariable . 
:IG-CDISC_SDTMIGCM_DOMAIN rdfs:label "Domain Abbreviation"^^xsd:string . 
:IG-CDISC_SDTMIGCM_DOMAIN bd:ordinal "2"^^xsd:positiveInteger . 
:IG-CDISC_SDTMIGCM_DOMAIN bd:controlled_term_or_format ""^^xsd:string . 
:IG-CDISC_SDTMIGCM_DOMAIN bd:notes "Two-character abbreviation for the domain."^^xsd:string . 
:IG-CDISC_SDTMIGCM_DOMAIN bd:name "DOMAIN"^^xsd:string . 
:IG-CDISC_SDTMIGCM_DOMAIN bd:basedOnVariable :IG-CDISC_SDTMIGCM_DOMAIN_VR . 
:IG-CDISC_SDTMIGCM_DOMAIN_VR rdf:type bo:CReference . 
:IG-CDISC_SDTMIGCM_DOMAIN_VR bo:hasColumn <http://www.assero.co.uk/MDRModels/CDISC/V1#M-CDISC_SDTMMODEL_INTERVENTIONS_DOMAIN> . 
:IG-CDISC_SDTMIGCM_DOMAIN_VR bo:enabled "true"^^xsd:boolean . 
:IG-CDISC_SDTMIGCM_DOMAIN_VR bo:optional "false"^^xsd:boolean . 
:IG-CDISC_SDTMIGCM_DOMAIN_VR bo:ordinal "1"^^xsd:positiveInteger . 
:IG-CDISC_SDTMIGCM_DOMAIN bd:compliance <http://www.assero.co.uk/MDRModels/CDISC/V2#IG-CDISC_SDTMIG_C_REQUIRED> . 
:IG-CDISC_SDTMIGCM bd:includesColumn :IG-CDISC_SDTMIGCM_DOMAIN . 
:IG-CDISC_SDTMIGCM_USUBJID rdf:type bd:IgVariable . 
:IG-CDISC_SDTMIGCM_USUBJID rdfs:label "Unique Subject Identifier"^^xsd:string . 
:IG-CDISC_SDTMIGCM_USUBJID bd:ordinal "3"^^xsd:positiveInteger . 
:IG-CDISC_SDTMIGCM_USUBJID bd:controlled_term_or_format ""^^xsd:string . 
:IG-CDISC_SDTMIGCM_USUBJID bd:notes "Identifier used to uniquely identify a subject across all studies for all applications or submissions involving the product."^^xsd:string . 
:IG-CDISC_SDTMIGCM_USUBJID bd:name "USUBJID"^^xsd:string . 
:IG-CDISC_SDTMIGCM_USUBJID bd:basedOnVariable :IG-CDISC_SDTMIGCM_USUBJID_VR . 
:IG-CDISC_SDTMIGCM_USUBJID_VR rdf:type bo:CReference . 
:IG-CDISC_SDTMIGCM_USUBJID_VR bo:hasColumn <http://www.assero.co.uk/MDRModels/CDISC/V1#M-CDISC_SDTMMODEL_INTERVENTIONS_USUBJID> . 
:IG-CDISC_SDTMIGCM_USUBJID_VR bo:enabled "true"^^xsd:boolean . 
:IG-CDISC_SDTMIGCM_USUBJID_VR bo:optional "false"^^xsd:boolean . 
:IG-CDISC_SDTMIGCM_USUBJID_VR bo:ordinal "1"^^xsd:positiveInteger . 
:IG-CDISC_SDTMIGCM_USUBJID bd:compliance <http://www.assero.co.uk/MDRModels/CDISC/V2#IG-CDISC_SDTMIG_C_REQUIRED> . 
:IG-CDISC_SDTMIGCM bd:includesColumn :IG-CDISC_SDTMIGCM_USUBJID . 
:IG-CDISC_SDTMIGCM_CMSEQ rdf:type bd:IgVariable . 
:IG-CDISC_SDTMIGCM_CMSEQ rdfs:label "Sequence Number"^^xsd:string . 
:IG-CDISC_SDTMIGCM_CMSEQ bd:ordinal "4"^^xsd:positiveInteger . 
:IG-CDISC_SDTMIGCM_CMSEQ bd:controlled_term_or_format ""^^xsd:string . 
:IG-CDISC_SDTMIGCM_CMSEQ bd:notes "Sequence Number given to ensure uniqueness of subject records within a domain. May be any valid number."^^xsd:string . 
:IG-CDISC_SDTMIGCM_CMSEQ bd:name "CMSEQ"^^xsd:string . 
:IG-CDISC_SDTMIGCM_CMSEQ bd:basedOnVariable :IG-CDISC_SDTMIGCM_CMSEQ_VR . 
:IG-CDISC_SDTMIGCM_CMSEQ_VR rdf:type bo:CReference . 
:IG-CDISC_SDTMIGCM_CMSEQ_VR bo:hasColumn <http://www.assero.co.uk/MDRModels/CDISC/V1#M-CDISC_SDTMMODEL_INTERVENTIONS_xxSEQ> . 
:IG-CDISC_SDTMIGCM_CMSEQ_VR bo:enabled "true"^^xsd:boolean . 
:IG-CDISC_SDTMIGCM_CMSEQ_VR bo:optional "false"^^xsd:boolean . 
:IG-CDISC_SDTMIGCM_CMSEQ_VR bo:ordinal "1"^^xsd:positiveInteger . 
:IG-CDISC_SDTMIGCM_CMSEQ bd:compliance <http://www.assero.co.uk/MDRModels/CDISC/V2#IG-CDISC_SDTMIG_C_REQUIRED> . 
:IG-CDISC_SDTMIGCM bd:includesColumn :IG-CDISC_SDTMIGCM_CMSEQ . 
:IG-CDISC_SDTMIGCM_CMGRPID rdf:type bd:IgVariable . 
:IG-CDISC_SDTMIGCM_CMGRPID rdfs:label "Group ID"^^xsd:string . 
:IG-CDISC_SDTMIGCM_CMGRPID bd:ordinal "5"^^xsd:positiveInteger . 
:IG-CDISC_SDTMIGCM_CMGRPID bd:controlled_term_or_format ""^^xsd:string . 
:IG-CDISC_SDTMIGCM_CMGRPID bd:notes "Used to tie together a block of related records in a single domain for a subject."^^xsd:string . 
:IG-CDISC_SDTMIGCM_CMGRPID bd:name "CMGRPID"^^xsd:string . 
:IG-CDISC_SDTMIGCM_CMGRPID bd:basedOnVariable :IG-CDISC_SDTMIGCM_CMGRPID_VR . 
:IG-CDISC_SDTMIGCM_CMGRPID_VR rdf:type bo:CReference . 
:IG-CDISC_SDTMIGCM_CMGRPID_VR bo:hasColumn <http://www.assero.co.uk/MDRModels/CDISC/V1#M-CDISC_SDTMMODEL_INTERVENTIONS_xxGRPID> . 
:IG-CDISC_SDTMIGCM_CMGRPID_VR bo:enabled "true"^^xsd:boolean . 
:IG-CDISC_SDTMIGCM_CMGRPID_VR bo:optional "false"^^xsd:boolean . 
:IG-CDISC_SDTMIGCM_CMGRPID_VR bo:ordinal "1"^^xsd:positiveInteger . 
:IG-CDISC_SDTMIGCM_CMGRPID bd:compliance <http://www.assero.co.uk/MDRModels/CDISC/V2#IG-CDISC_SDTMIG_C_PERMISSIBLE> . 
:IG-CDISC_SDTMIGCM bd:includesColumn :IG-CDISC_SDTMIGCM_CMGRPID . 
:IG-CDISC_SDTMIGCM_CMSPID rdf:type bd:IgVariable . 
:IG-CDISC_SDTMIGCM_CMSPID rdfs:label "Sponsor-Defined Identifier"^^xsd:string . 
:IG-CDISC_SDTMIGCM_CMSPID bd:ordinal "6"^^xsd:positiveInteger . 
:IG-CDISC_SDTMIGCM_CMSPID bd:controlled_term_or_format ""^^xsd:string . 
:IG-CDISC_SDTMIGCM_CMSPID bd:notes "Sponsor-defined reference number. Examples: a number pre-printed on the CRF as an explicit line identifier or record identifier defined in the sponsor's operational database. Example: line number on a concomitant medication page."^^xsd:string . 
:IG-CDISC_SDTMIGCM_CMSPID bd:name "CMSPID"^^xsd:string . 
:IG-CDISC_SDTMIGCM_CMSPID bd:basedOnVariable :IG-CDISC_SDTMIGCM_CMSPID_VR . 
:IG-CDISC_SDTMIGCM_CMSPID_VR rdf:type bo:CReference . 
:IG-CDISC_SDTMIGCM_CMSPID_VR bo:hasColumn <http://www.assero.co.uk/MDRModels/CDISC/V1#M-CDISC_SDTMMODEL_INTERVENTIONS_xxSPID> . 
:IG-CDISC_SDTMIGCM_CMSPID_VR bo:enabled "true"^^xsd:boolean . 
:IG-CDISC_SDTMIGCM_CMSPID_VR bo:optional "false"^^xsd:boolean . 
:IG-CDISC_SDTMIGCM_CMSPID_VR bo:ordinal "1"^^xsd:positiveInteger . 
:IG-CDISC_SDTMIGCM_CMSPID bd:compliance <http://www.assero.co.uk/MDRModels/CDISC/V2#IG-CDISC_SDTMIG_C_PERMISSIBLE> . 
:IG-CDISC_SDTMIGCM bd:includesColumn :IG-CDISC_SDTMIGCM_CMSPID . 
:IG-CDISC_SDTMIGCM_CMTRT rdf:type bd:IgVariable . 
:IG-CDISC_SDTMIGCM_CMTRT rdfs:label "Reported Name of Drug, Med, or Therapy"^^xsd:string . 
:IG-CDISC_SDTMIGCM_CMTRT bd:ordinal "7"^^xsd:positiveInteger . 
:IG-CDISC_SDTMIGCM_CMTRT bd:controlled_term_or_format ""^^xsd:string . 
:IG-CDISC_SDTMIGCM_CMTRT bd:notes "Verbatim medication name that is either pre-printed or collected on a CRF."^^xsd:string . 
:IG-CDISC_SDTMIGCM_CMTRT bd:name "CMTRT"^^xsd:string . 
:IG-CDISC_SDTMIGCM_CMTRT bd:basedOnVariable :IG-CDISC_SDTMIGCM_CMTRT_VR . 
:IG-CDISC_SDTMIGCM_CMTRT_VR rdf:type bo:CReference . 
:IG-CDISC_SDTMIGCM_CMTRT_VR bo:hasColumn <http://www.assero.co.uk/MDRModels/CDISC/V1#M-CDISC_SDTMMODEL_INTERVENTIONS_xxTRT> . 
:IG-CDISC_SDTMIGCM_CMTRT_VR bo:enabled "true"^^xsd:boolean . 
:IG-CDISC_SDTMIGCM_CMTRT_VR bo:optional "false"^^xsd:boolean . 
:IG-CDISC_SDTMIGCM_CMTRT_VR bo:ordinal "1"^^xsd:positiveInteger . 
:IG-CDISC_SDTMIGCM_CMTRT bd:compliance <http://www.assero.co.uk/MDRModels/CDISC/V2#IG-CDISC_SDTMIG_C_REQUIRED> . 
:IG-CDISC_SDTMIGCM bd:includesColumn :IG-CDISC_SDTMIGCM_CMTRT . 
:IG-CDISC_SDTMIGCM_CMMODIFY rdf:type bd:IgVariable . 
:IG-CDISC_SDTMIGCM_CMMODIFY rdfs:label "Modified Reported Name"^^xsd:string . 
:IG-CDISC_SDTMIGCM_CMMODIFY bd:ordinal "8"^^xsd:positiveInteger . 
:IG-CDISC_SDTMIGCM_CMMODIFY bd:controlled_term_or_format ""^^xsd:string . 
:IG-CDISC_SDTMIGCM_CMMODIFY bd:notes "If CMTRT is modified to facilitate coding, then CMMODIFY will contain the modified text."^^xsd:string . 
:IG-CDISC_SDTMIGCM_CMMODIFY bd:name "CMMODIFY"^^xsd:string . 
:IG-CDISC_SDTMIGCM_CMMODIFY bd:basedOnVariable :IG-CDISC_SDTMIGCM_CMMODIFY_VR . 
:IG-CDISC_SDTMIGCM_CMMODIFY_VR rdf:type bo:CReference . 
:IG-CDISC_SDTMIGCM_CMMODIFY_VR bo:hasColumn <http://www.assero.co.uk/MDRModels/CDISC/V1#M-CDISC_SDTMMODEL_INTERVENTIONS_xxMODIFY> . 
:IG-CDISC_SDTMIGCM_CMMODIFY_VR bo:enabled "true"^^xsd:boolean . 
:IG-CDISC_SDTMIGCM_CMMODIFY_VR bo:optional "false"^^xsd:boolean . 
:IG-CDISC_SDTMIGCM_CMMODIFY_VR bo:ordinal "1"^^xsd:positiveInteger . 
:IG-CDISC_SDTMIGCM_CMMODIFY bd:compliance <http://www.assero.co.uk/MDRModels/CDISC/V2#IG-CDISC_SDTMIG_C_PERMISSIBLE> . 
:IG-CDISC_SDTMIGCM bd:includesColumn :IG-CDISC_SDTMIGCM_CMMODIFY . 
:IG-CDISC_SDTMIGCM_CMDECOD rdf:type bd:IgVariable . 
:IG-CDISC_SDTMIGCM_CMDECOD rdfs:label "Standardized Medication Name"^^xsd:string . 
:IG-CDISC_SDTMIGCM_CMDECOD bd:ordinal "9"^^xsd:positiveInteger . 
:IG-CDISC_SDTMIGCM_CMDECOD bd:controlled_term_or_format ""^^xsd:string . 
:IG-CDISC_SDTMIGCM_CMDECOD bd:notes "Standardized or dictionary-derived text description of CMTRT or CMMODIFY. Equivalent to the generic medication name in WHO Drug. The sponsor is expected to provide the dictionary name and version used to map the terms utilizing the define.xml external codelist attributes. If an intervention term does not have a decode value in the dictionary then CMDECOD will be left blank."^^xsd:string . 
:IG-CDISC_SDTMIGCM_CMDECOD bd:name "CMDECOD"^^xsd:string . 
:IG-CDISC_SDTMIGCM_CMDECOD bd:basedOnVariable :IG-CDISC_SDTMIGCM_CMDECOD_VR . 
:IG-CDISC_SDTMIGCM_CMDECOD_VR rdf:type bo:CReference . 
:IG-CDISC_SDTMIGCM_CMDECOD_VR bo:hasColumn <http://www.assero.co.uk/MDRModels/CDISC/V1#M-CDISC_SDTMMODEL_INTERVENTIONS_xxDECOD> . 
:IG-CDISC_SDTMIGCM_CMDECOD_VR bo:enabled "true"^^xsd:boolean . 
:IG-CDISC_SDTMIGCM_CMDECOD_VR bo:optional "false"^^xsd:boolean . 
:IG-CDISC_SDTMIGCM_CMDECOD_VR bo:ordinal "1"^^xsd:positiveInteger . 
:IG-CDISC_SDTMIGCM_CMDECOD bd:compliance <http://www.assero.co.uk/MDRModels/CDISC/V2#IG-CDISC_SDTMIG_C_PERMISSIBLE> . 
:IG-CDISC_SDTMIGCM bd:includesColumn :IG-CDISC_SDTMIGCM_CMDECOD . 
:IG-CDISC_SDTMIGCM_CMCAT rdf:type bd:IgVariable . 
:IG-CDISC_SDTMIGCM_CMCAT rdfs:label "Category for Medication"^^xsd:string . 
:IG-CDISC_SDTMIGCM_CMCAT bd:ordinal "10"^^xsd:positiveInteger . 
:IG-CDISC_SDTMIGCM_CMCAT bd:controlled_term_or_format ""^^xsd:string . 
:IG-CDISC_SDTMIGCM_CMCAT bd:notes "Used to define a category of medications/treatments. Examples: PRIOR, CONCOMITANT, ANTI-CANCER MEDICATION, or GENERAL CONMED."^^xsd:string . 
:IG-CDISC_SDTMIGCM_CMCAT bd:name "CMCAT"^^xsd:string . 
:IG-CDISC_SDTMIGCM_CMCAT bd:basedOnVariable :IG-CDISC_SDTMIGCM_CMCAT_VR . 
:IG-CDISC_SDTMIGCM_CMCAT_VR rdf:type bo:CReference . 
:IG-CDISC_SDTMIGCM_CMCAT_VR bo:hasColumn <http://www.assero.co.uk/MDRModels/CDISC/V1#M-CDISC_SDTMMODEL_INTERVENTIONS_xxCAT> . 
:IG-CDISC_SDTMIGCM_CMCAT_VR bo:enabled "true"^^xsd:boolean . 
:IG-CDISC_SDTMIGCM_CMCAT_VR bo:optional "false"^^xsd:boolean . 
:IG-CDISC_SDTMIGCM_CMCAT_VR bo:ordinal "1"^^xsd:positiveInteger . 
:IG-CDISC_SDTMIGCM_CMCAT bd:compliance <http://www.assero.co.uk/MDRModels/CDISC/V2#IG-CDISC_SDTMIG_C_PERMISSIBLE> . 
:IG-CDISC_SDTMIGCM bd:includesColumn :IG-CDISC_SDTMIGCM_CMCAT . 
:IG-CDISC_SDTMIGCM_CMSCAT rdf:type bd:IgVariable . 
:IG-CDISC_SDTMIGCM_CMSCAT rdfs:label "Subcategory for Medication"^^xsd:string . 
:IG-CDISC_SDTMIGCM_CMSCAT bd:ordinal "11"^^xsd:positiveInteger . 
:IG-CDISC_SDTMIGCM_CMSCAT bd:controlled_term_or_format ""^^xsd:string . 
:IG-CDISC_SDTMIGCM_CMSCAT bd:notes "A further categorization of medications/ treatment. Examples: CHEMOTHERAPY, HORMONAL THERAPY, ALTERNATIVE THERAPY."^^xsd:string . 
:IG-CDISC_SDTMIGCM_CMSCAT bd:name "CMSCAT"^^xsd:string . 
:IG-CDISC_SDTMIGCM_CMSCAT bd:basedOnVariable :IG-CDISC_SDTMIGCM_CMSCAT_VR . 
:IG-CDISC_SDTMIGCM_CMSCAT_VR rdf:type bo:CReference . 
:IG-CDISC_SDTMIGCM_CMSCAT_VR bo:hasColumn <http://www.assero.co.uk/MDRModels/CDISC/V1#M-CDISC_SDTMMODEL_INTERVENTIONS_xxSCAT> . 
:IG-CDISC_SDTMIGCM_CMSCAT_VR bo:enabled "true"^^xsd:boolean . 
:IG-CDISC_SDTMIGCM_CMSCAT_VR bo:optional "false"^^xsd:boolean . 
:IG-CDISC_SDTMIGCM_CMSCAT_VR bo:ordinal "1"^^xsd:positiveInteger . 
:IG-CDISC_SDTMIGCM_CMSCAT bd:compliance <http://www.assero.co.uk/MDRModels/CDISC/V2#IG-CDISC_SDTMIG_C_PERMISSIBLE> . 
:IG-CDISC_SDTMIGCM bd:includesColumn :IG-CDISC_SDTMIGCM_CMSCAT . 
:IG-CDISC_SDTMIGCM_CMPRESP rdf:type bd:IgVariable . 
:IG-CDISC_SDTMIGCM_CMPRESP rdfs:label "CM Pre-Specified"^^xsd:string . 
:IG-CDISC_SDTMIGCM_CMPRESP bd:ordinal "12"^^xsd:positiveInteger . 
:IG-CDISC_SDTMIGCM_CMPRESP bd:controlled_term_or_format "NY"^^xsd:string . 
:IG-CDISC_SDTMIGCM_CMPRESP bd:notes "Used to indicate whether (Y/null) information about the use of a specific medication was solicited on the CRF."^^xsd:string . 
:IG-CDISC_SDTMIGCM_CMPRESP bd:name "CMPRESP"^^xsd:string . 
:IG-CDISC_SDTMIGCM_CMPRESP bd:basedOnVariable :IG-CDISC_SDTMIGCM_CMPRESP_VR . 
:IG-CDISC_SDTMIGCM_CMPRESP_VR rdf:type bo:CReference . 
:IG-CDISC_SDTMIGCM_CMPRESP_VR bo:hasColumn <http://www.assero.co.uk/MDRModels/CDISC/V1#M-CDISC_SDTMMODEL_INTERVENTIONS_xxPRESP> . 
:IG-CDISC_SDTMIGCM_CMPRESP_VR bo:enabled "true"^^xsd:boolean . 
:IG-CDISC_SDTMIGCM_CMPRESP_VR bo:optional "false"^^xsd:boolean . 
:IG-CDISC_SDTMIGCM_CMPRESP_VR bo:ordinal "1"^^xsd:positiveInteger . 
:IG-CDISC_SDTMIGCM_CMPRESP bd:compliance <http://www.assero.co.uk/MDRModels/CDISC/V2#IG-CDISC_SDTMIG_C_PERMISSIBLE> . 
:IG-CDISC_SDTMIGCM bd:includesColumn :IG-CDISC_SDTMIGCM_CMPRESP . 
:IG-CDISC_SDTMIGCM_CMOCCUR rdf:type bd:IgVariable . 
:IG-CDISC_SDTMIGCM_CMOCCUR rdfs:label "CM Occurrence"^^xsd:string . 
:IG-CDISC_SDTMIGCM_CMOCCUR bd:ordinal "13"^^xsd:positiveInteger . 
:IG-CDISC_SDTMIGCM_CMOCCUR bd:controlled_term_or_format "NY"^^xsd:string . 
:IG-CDISC_SDTMIGCM_CMOCCUR bd:notes "When the use of specific medications is solicited, CMOCCUR is used to indicate whether or not (Y/N) use of the medication occurred. Values are null for medications not specifically solicited."^^xsd:string . 
:IG-CDISC_SDTMIGCM_CMOCCUR bd:name "CMOCCUR"^^xsd:string . 
:IG-CDISC_SDTMIGCM_CMOCCUR bd:basedOnVariable :IG-CDISC_SDTMIGCM_CMOCCUR_VR . 
:IG-CDISC_SDTMIGCM_CMOCCUR_VR rdf:type bo:CReference . 
:IG-CDISC_SDTMIGCM_CMOCCUR_VR bo:hasColumn <http://www.assero.co.uk/MDRModels/CDISC/V1#M-CDISC_SDTMMODEL_INTERVENTIONS_xxOCCUR> . 
:IG-CDISC_SDTMIGCM_CMOCCUR_VR bo:enabled "true"^^xsd:boolean . 
:IG-CDISC_SDTMIGCM_CMOCCUR_VR bo:optional "false"^^xsd:boolean . 
:IG-CDISC_SDTMIGCM_CMOCCUR_VR bo:ordinal "1"^^xsd:positiveInteger . 
:IG-CDISC_SDTMIGCM_CMOCCUR bd:compliance <http://www.assero.co.uk/MDRModels/CDISC/V2#IG-CDISC_SDTMIG_C_PERMISSIBLE> . 
:IG-CDISC_SDTMIGCM bd:includesColumn :IG-CDISC_SDTMIGCM_CMOCCUR . 
:IG-CDISC_SDTMIGCM_CMSTAT rdf:type bd:IgVariable . 
:IG-CDISC_SDTMIGCM_CMSTAT rdfs:label "Completion Status"^^xsd:string . 
:IG-CDISC_SDTMIGCM_CMSTAT bd:ordinal "14"^^xsd:positiveInteger . 
:IG-CDISC_SDTMIGCM_CMSTAT bd:controlled_term_or_format "ND"^^xsd:string . 
:IG-CDISC_SDTMIGCM_CMSTAT bd:notes "Used to indicate that a question about a pre-specified medication was not answered. Should be null or have a value of NOT DONE."^^xsd:string . 
:IG-CDISC_SDTMIGCM_CMSTAT bd:name "CMSTAT"^^xsd:string . 
:IG-CDISC_SDTMIGCM_CMSTAT bd:basedOnVariable :IG-CDISC_SDTMIGCM_CMSTAT_VR . 
:IG-CDISC_SDTMIGCM_CMSTAT_VR rdf:type bo:CReference . 
:IG-CDISC_SDTMIGCM_CMSTAT_VR bo:hasColumn <http://www.assero.co.uk/MDRModels/CDISC/V1#M-CDISC_SDTMMODEL_INTERVENTIONS_xxSTAT> . 
:IG-CDISC_SDTMIGCM_CMSTAT_VR bo:enabled "true"^^xsd:boolean . 
:IG-CDISC_SDTMIGCM_CMSTAT_VR bo:optional "false"^^xsd:boolean . 
:IG-CDISC_SDTMIGCM_CMSTAT_VR bo:ordinal "1"^^xsd:positiveInteger . 
:IG-CDISC_SDTMIGCM_CMSTAT bd:compliance <http://www.assero.co.uk/MDRModels/CDISC/V2#IG-CDISC_SDTMIG_C_PERMISSIBLE> . 
:IG-CDISC_SDTMIGCM bd:includesColumn :IG-CDISC_SDTMIGCM_CMSTAT . 
:IG-CDISC_SDTMIGCM_CMREASND rdf:type bd:IgVariable . 
:IG-CDISC_SDTMIGCM_CMREASND rdfs:label "Reason Medication Not Collected"^^xsd:string . 
:IG-CDISC_SDTMIGCM_CMREASND bd:ordinal "15"^^xsd:positiveInteger . 
:IG-CDISC_SDTMIGCM_CMREASND bd:controlled_term_or_format ""^^xsd:string . 
:IG-CDISC_SDTMIGCM_CMREASND bd:notes "Describes the reason concomitant medication was not collected. Used in conjunction with CMSTAT when value is NOT DONE."^^xsd:string . 
:IG-CDISC_SDTMIGCM_CMREASND bd:name "CMREASND"^^xsd:string . 
:IG-CDISC_SDTMIGCM_CMREASND bd:basedOnVariable :IG-CDISC_SDTMIGCM_CMREASND_VR . 
:IG-CDISC_SDTMIGCM_CMREASND_VR rdf:type bo:CReference . 
:IG-CDISC_SDTMIGCM_CMREASND_VR bo:hasColumn <http://www.assero.co.uk/MDRModels/CDISC/V1#M-CDISC_SDTMMODEL_INTERVENTIONS_xxREASND> . 
:IG-CDISC_SDTMIGCM_CMREASND_VR bo:enabled "true"^^xsd:boolean . 
:IG-CDISC_SDTMIGCM_CMREASND_VR bo:optional "false"^^xsd:boolean . 
:IG-CDISC_SDTMIGCM_CMREASND_VR bo:ordinal "1"^^xsd:positiveInteger . 
:IG-CDISC_SDTMIGCM_CMREASND bd:compliance <http://www.assero.co.uk/MDRModels/CDISC/V2#IG-CDISC_SDTMIG_C_PERMISSIBLE> . 
:IG-CDISC_SDTMIGCM bd:includesColumn :IG-CDISC_SDTMIGCM_CMREASND . 
:IG-CDISC_SDTMIGCM_CMINDC rdf:type bd:IgVariable . 
:IG-CDISC_SDTMIGCM_CMINDC rdfs:label "Indication"^^xsd:string . 
:IG-CDISC_SDTMIGCM_CMINDC bd:ordinal "16"^^xsd:positiveInteger . 
:IG-CDISC_SDTMIGCM_CMINDC bd:controlled_term_or_format ""^^xsd:string . 
:IG-CDISC_SDTMIGCM_CMINDC bd:notes "Denotes why a medication was taken or administered. Examples: NAUSEA, HYPERTENSION."^^xsd:string . 
:IG-CDISC_SDTMIGCM_CMINDC bd:name "CMINDC"^^xsd:string . 
:IG-CDISC_SDTMIGCM_CMINDC bd:basedOnVariable :IG-CDISC_SDTMIGCM_CMINDC_VR . 
:IG-CDISC_SDTMIGCM_CMINDC_VR rdf:type bo:CReference . 
:IG-CDISC_SDTMIGCM_CMINDC_VR bo:hasColumn <http://www.assero.co.uk/MDRModels/CDISC/V1#M-CDISC_SDTMMODEL_INTERVENTIONS_xxINDC> . 
:IG-CDISC_SDTMIGCM_CMINDC_VR bo:enabled "true"^^xsd:boolean . 
:IG-CDISC_SDTMIGCM_CMINDC_VR bo:optional "false"^^xsd:boolean . 
:IG-CDISC_SDTMIGCM_CMINDC_VR bo:ordinal "1"^^xsd:positiveInteger . 
:IG-CDISC_SDTMIGCM_CMINDC bd:compliance <http://www.assero.co.uk/MDRModels/CDISC/V2#IG-CDISC_SDTMIG_C_PERMISSIBLE> . 
:IG-CDISC_SDTMIGCM bd:includesColumn :IG-CDISC_SDTMIGCM_CMINDC . 
:IG-CDISC_SDTMIGCM_CMCLAS rdf:type bd:IgVariable . 
:IG-CDISC_SDTMIGCM_CMCLAS rdfs:label "Medication Class"^^xsd:string . 
:IG-CDISC_SDTMIGCM_CMCLAS bd:ordinal "17"^^xsd:positiveInteger . 
:IG-CDISC_SDTMIGCM_CMCLAS bd:controlled_term_or_format ""^^xsd:string . 
:IG-CDISC_SDTMIGCM_CMCLAS bd:notes "Drug class. May be obtained from coding. When coding to a single class, populate with class value. If using a dictionary and coding to multiple classes, then follow assumption 4.1.2.8.3 or omit CMCLAS."^^xsd:string . 
:IG-CDISC_SDTMIGCM_CMCLAS bd:name "CMCLAS"^^xsd:string . 
:IG-CDISC_SDTMIGCM_CMCLAS bd:basedOnVariable :IG-CDISC_SDTMIGCM_CMCLAS_VR . 
:IG-CDISC_SDTMIGCM_CMCLAS_VR rdf:type bo:CReference . 
:IG-CDISC_SDTMIGCM_CMCLAS_VR bo:hasColumn <http://www.assero.co.uk/MDRModels/CDISC/V1#M-CDISC_SDTMMODEL_INTERVENTIONS_xxCLAS> . 
:IG-CDISC_SDTMIGCM_CMCLAS_VR bo:enabled "true"^^xsd:boolean . 
:IG-CDISC_SDTMIGCM_CMCLAS_VR bo:optional "false"^^xsd:boolean . 
:IG-CDISC_SDTMIGCM_CMCLAS_VR bo:ordinal "1"^^xsd:positiveInteger . 
:IG-CDISC_SDTMIGCM_CMCLAS bd:compliance <http://www.assero.co.uk/MDRModels/CDISC/V2#IG-CDISC_SDTMIG_C_PERMISSIBLE> . 
:IG-CDISC_SDTMIGCM bd:includesColumn :IG-CDISC_SDTMIGCM_CMCLAS . 
:IG-CDISC_SDTMIGCM_CMCLASCD rdf:type bd:IgVariable . 
:IG-CDISC_SDTMIGCM_CMCLASCD rdfs:label "Medication Class Code"^^xsd:string . 
:IG-CDISC_SDTMIGCM_CMCLASCD bd:ordinal "18"^^xsd:positiveInteger . 
:IG-CDISC_SDTMIGCM_CMCLASCD bd:controlled_term_or_format ""^^xsd:string . 
:IG-CDISC_SDTMIGCM_CMCLASCD bd:notes "Class code corresponding to CMCLAS. Drug class. May be obtained from coding. When coding to a single class, populate with class code. If using a dictionary and coding to multiple classes, then follow assumption 4.1.2.8.3 or omit CMCLASCD."^^xsd:string . 
:IG-CDISC_SDTMIGCM_CMCLASCD bd:name "CMCLASCD"^^xsd:string . 
:IG-CDISC_SDTMIGCM_CMCLASCD bd:basedOnVariable :IG-CDISC_SDTMIGCM_CMCLASCD_VR . 
:IG-CDISC_SDTMIGCM_CMCLASCD_VR rdf:type bo:CReference . 
:IG-CDISC_SDTMIGCM_CMCLASCD_VR bo:hasColumn <http://www.assero.co.uk/MDRModels/CDISC/V1#M-CDISC_SDTMMODEL_INTERVENTIONS_xxCLASCD> . 
:IG-CDISC_SDTMIGCM_CMCLASCD_VR bo:enabled "true"^^xsd:boolean . 
:IG-CDISC_SDTMIGCM_CMCLASCD_VR bo:optional "false"^^xsd:boolean . 
:IG-CDISC_SDTMIGCM_CMCLASCD_VR bo:ordinal "1"^^xsd:positiveInteger . 
:IG-CDISC_SDTMIGCM_CMCLASCD bd:compliance <http://www.assero.co.uk/MDRModels/CDISC/V2#IG-CDISC_SDTMIG_C_PERMISSIBLE> . 
:IG-CDISC_SDTMIGCM bd:includesColumn :IG-CDISC_SDTMIGCM_CMCLASCD . 
:IG-CDISC_SDTMIGCM_CMDOSE rdf:type bd:IgVariable . 
:IG-CDISC_SDTMIGCM_CMDOSE rdfs:label "Dose per Administration"^^xsd:string . 
:IG-CDISC_SDTMIGCM_CMDOSE bd:ordinal "19"^^xsd:positiveInteger . 
:IG-CDISC_SDTMIGCM_CMDOSE bd:controlled_term_or_format ""^^xsd:string . 
:IG-CDISC_SDTMIGCM_CMDOSE bd:notes "Amount of CMTRT taken."^^xsd:string . 
:IG-CDISC_SDTMIGCM_CMDOSE bd:name "CMDOSE"^^xsd:string . 
:IG-CDISC_SDTMIGCM_CMDOSE bd:basedOnVariable :IG-CDISC_SDTMIGCM_CMDOSE_VR . 
:IG-CDISC_SDTMIGCM_CMDOSE_VR rdf:type bo:CReference . 
:IG-CDISC_SDTMIGCM_CMDOSE_VR bo:hasColumn <http://www.assero.co.uk/MDRModels/CDISC/V1#M-CDISC_SDTMMODEL_INTERVENTIONS_xxDOSE> . 
:IG-CDISC_SDTMIGCM_CMDOSE_VR bo:enabled "true"^^xsd:boolean . 
:IG-CDISC_SDTMIGCM_CMDOSE_VR bo:optional "false"^^xsd:boolean . 
:IG-CDISC_SDTMIGCM_CMDOSE_VR bo:ordinal "1"^^xsd:positiveInteger . 
:IG-CDISC_SDTMIGCM_CMDOSE bd:compliance <http://www.assero.co.uk/MDRModels/CDISC/V2#IG-CDISC_SDTMIG_C_PERMISSIBLE> . 
:IG-CDISC_SDTMIGCM bd:includesColumn :IG-CDISC_SDTMIGCM_CMDOSE . 
:IG-CDISC_SDTMIGCM_CMDOSTXT rdf:type bd:IgVariable . 
:IG-CDISC_SDTMIGCM_CMDOSTXT rdfs:label "Dose Description"^^xsd:string . 
:IG-CDISC_SDTMIGCM_CMDOSTXT bd:ordinal "20"^^xsd:positiveInteger . 
:IG-CDISC_SDTMIGCM_CMDOSTXT bd:controlled_term_or_format ""^^xsd:string . 
:IG-CDISC_SDTMIGCM_CMDOSTXT bd:notes "Dosing amounts or a range of dosing information collected in text form. Units may be stored in CMDOSU. Example: 200-400, 15-20."^^xsd:string . 
:IG-CDISC_SDTMIGCM_CMDOSTXT bd:name "CMDOSTXT"^^xsd:string . 
:IG-CDISC_SDTMIGCM_CMDOSTXT bd:basedOnVariable :IG-CDISC_SDTMIGCM_CMDOSTXT_VR . 
:IG-CDISC_SDTMIGCM_CMDOSTXT_VR rdf:type bo:CReference . 
:IG-CDISC_SDTMIGCM_CMDOSTXT_VR bo:hasColumn <http://www.assero.co.uk/MDRModels/CDISC/V1#M-CDISC_SDTMMODEL_INTERVENTIONS_xxDOSTXT> . 
:IG-CDISC_SDTMIGCM_CMDOSTXT_VR bo:enabled "true"^^xsd:boolean . 
:IG-CDISC_SDTMIGCM_CMDOSTXT_VR bo:optional "false"^^xsd:boolean . 
:IG-CDISC_SDTMIGCM_CMDOSTXT_VR bo:ordinal "1"^^xsd:positiveInteger . 
:IG-CDISC_SDTMIGCM_CMDOSTXT bd:compliance <http://www.assero.co.uk/MDRModels/CDISC/V2#IG-CDISC_SDTMIG_C_PERMISSIBLE> . 
:IG-CDISC_SDTMIGCM bd:includesColumn :IG-CDISC_SDTMIGCM_CMDOSTXT . 
:IG-CDISC_SDTMIGCM_CMDOSU rdf:type bd:IgVariable . 
:IG-CDISC_SDTMIGCM_CMDOSU rdfs:label "Dose Units"^^xsd:string . 
:IG-CDISC_SDTMIGCM_CMDOSU bd:ordinal "21"^^xsd:positiveInteger . 
:IG-CDISC_SDTMIGCM_CMDOSU bd:controlled_term_or_format "UNIT"^^xsd:string . 
:IG-CDISC_SDTMIGCM_CMDOSU bd:notes "Units for CMDOSE, CMDOSTXT, and CMDOSTOT. Examples: ng, mg, or mg/kg."^^xsd:string . 
:IG-CDISC_SDTMIGCM_CMDOSU bd:name "CMDOSU"^^xsd:string . 
:IG-CDISC_SDTMIGCM_CMDOSU bd:basedOnVariable :IG-CDISC_SDTMIGCM_CMDOSU_VR . 
:IG-CDISC_SDTMIGCM_CMDOSU_VR rdf:type bo:CReference . 
:IG-CDISC_SDTMIGCM_CMDOSU_VR bo:hasColumn <http://www.assero.co.uk/MDRModels/CDISC/V1#M-CDISC_SDTMMODEL_INTERVENTIONS_xxDOSU> . 
:IG-CDISC_SDTMIGCM_CMDOSU_VR bo:enabled "true"^^xsd:boolean . 
:IG-CDISC_SDTMIGCM_CMDOSU_VR bo:optional "false"^^xsd:boolean . 
:IG-CDISC_SDTMIGCM_CMDOSU_VR bo:ordinal "1"^^xsd:positiveInteger . 
:IG-CDISC_SDTMIGCM_CMDOSU bd:compliance <http://www.assero.co.uk/MDRModels/CDISC/V2#IG-CDISC_SDTMIG_C_PERMISSIBLE> . 
:IG-CDISC_SDTMIGCM bd:includesColumn :IG-CDISC_SDTMIGCM_CMDOSU . 
:IG-CDISC_SDTMIGCM_CMDOSFRM rdf:type bd:IgVariable . 
:IG-CDISC_SDTMIGCM_CMDOSFRM rdfs:label "Dose Form"^^xsd:string . 
:IG-CDISC_SDTMIGCM_CMDOSFRM bd:ordinal "22"^^xsd:positiveInteger . 
:IG-CDISC_SDTMIGCM_CMDOSFRM bd:controlled_term_or_format "FRM"^^xsd:string . 
:IG-CDISC_SDTMIGCM_CMDOSFRM bd:notes "Dose form for CMTRT. Examples: TABLET, LOTION."^^xsd:string . 
:IG-CDISC_SDTMIGCM_CMDOSFRM bd:name "CMDOSFRM"^^xsd:string . 
:IG-CDISC_SDTMIGCM_CMDOSFRM bd:basedOnVariable :IG-CDISC_SDTMIGCM_CMDOSFRM_VR . 
:IG-CDISC_SDTMIGCM_CMDOSFRM_VR rdf:type bo:CReference . 
:IG-CDISC_SDTMIGCM_CMDOSFRM_VR bo:hasColumn <http://www.assero.co.uk/MDRModels/CDISC/V1#M-CDISC_SDTMMODEL_INTERVENTIONS_xxDOSFRM> . 
:IG-CDISC_SDTMIGCM_CMDOSFRM_VR bo:enabled "true"^^xsd:boolean . 
:IG-CDISC_SDTMIGCM_CMDOSFRM_VR bo:optional "false"^^xsd:boolean . 
:IG-CDISC_SDTMIGCM_CMDOSFRM_VR bo:ordinal "1"^^xsd:positiveInteger . 
:IG-CDISC_SDTMIGCM_CMDOSFRM bd:compliance <http://www.assero.co.uk/MDRModels/CDISC/V2#IG-CDISC_SDTMIG_C_PERMISSIBLE> . 
:IG-CDISC_SDTMIGCM bd:includesColumn :IG-CDISC_SDTMIGCM_CMDOSFRM . 
:IG-CDISC_SDTMIGCM_CMDOSFRQ rdf:type bd:IgVariable . 
:IG-CDISC_SDTMIGCM_CMDOSFRQ rdfs:label "Dosing Frequency per Interval"^^xsd:string . 
:IG-CDISC_SDTMIGCM_CMDOSFRQ bd:ordinal "23"^^xsd:positiveInteger . 
:IG-CDISC_SDTMIGCM_CMDOSFRQ bd:controlled_term_or_format "FREQ"^^xsd:string . 
:IG-CDISC_SDTMIGCM_CMDOSFRQ bd:notes "Usually expressed as the number of repeated administrations of CMDOSE within a specific time period. Examples: BID (twice daily), Q12H (every 12 hours)."^^xsd:string . 
:IG-CDISC_SDTMIGCM_CMDOSFRQ bd:name "CMDOSFRQ"^^xsd:string . 
:IG-CDISC_SDTMIGCM_CMDOSFRQ bd:basedOnVariable :IG-CDISC_SDTMIGCM_CMDOSFRQ_VR . 
:IG-CDISC_SDTMIGCM_CMDOSFRQ_VR rdf:type bo:CReference . 
:IG-CDISC_SDTMIGCM_CMDOSFRQ_VR bo:hasColumn <http://www.assero.co.uk/MDRModels/CDISC/V1#M-CDISC_SDTMMODEL_INTERVENTIONS_xxDOSFRQ> . 
:IG-CDISC_SDTMIGCM_CMDOSFRQ_VR bo:enabled "true"^^xsd:boolean . 
:IG-CDISC_SDTMIGCM_CMDOSFRQ_VR bo:optional "false"^^xsd:boolean . 
:IG-CDISC_SDTMIGCM_CMDOSFRQ_VR bo:ordinal "1"^^xsd:positiveInteger . 
:IG-CDISC_SDTMIGCM_CMDOSFRQ bd:compliance <http://www.assero.co.uk/MDRModels/CDISC/V2#IG-CDISC_SDTMIG_C_PERMISSIBLE> . 
:IG-CDISC_SDTMIGCM bd:includesColumn :IG-CDISC_SDTMIGCM_CMDOSFRQ . 
:IG-CDISC_SDTMIGCM_CMDOSTOT rdf:type bd:IgVariable . 
:IG-CDISC_SDTMIGCM_CMDOSTOT rdfs:label "Total Daily Dose"^^xsd:string . 
:IG-CDISC_SDTMIGCM_CMDOSTOT bd:ordinal "24"^^xsd:positiveInteger . 
:IG-CDISC_SDTMIGCM_CMDOSTOT bd:controlled_term_or_format ""^^xsd:string . 
:IG-CDISC_SDTMIGCM_CMDOSTOT bd:notes "Total daily dose of CMTRT using the units in CMDOSU. Total dose over a period other than day could be recorded in a separate Supplemental Qualifier variable. CMDOSTOT should be used in addition to CMDOSE, and not in place of it."^^xsd:string . 
:IG-CDISC_SDTMIGCM_CMDOSTOT bd:name "CMDOSTOT"^^xsd:string . 
:IG-CDISC_SDTMIGCM_CMDOSTOT bd:basedOnVariable :IG-CDISC_SDTMIGCM_CMDOSTOT_VR . 
:IG-CDISC_SDTMIGCM_CMDOSTOT_VR rdf:type bo:CReference . 
:IG-CDISC_SDTMIGCM_CMDOSTOT_VR bo:hasColumn <http://www.assero.co.uk/MDRModels/CDISC/V1#M-CDISC_SDTMMODEL_INTERVENTIONS_xxDOSTOT> . 
:IG-CDISC_SDTMIGCM_CMDOSTOT_VR bo:enabled "true"^^xsd:boolean . 
:IG-CDISC_SDTMIGCM_CMDOSTOT_VR bo:optional "false"^^xsd:boolean . 
:IG-CDISC_SDTMIGCM_CMDOSTOT_VR bo:ordinal "1"^^xsd:positiveInteger . 
:IG-CDISC_SDTMIGCM_CMDOSTOT bd:compliance <http://www.assero.co.uk/MDRModels/CDISC/V2#IG-CDISC_SDTMIG_C_PERMISSIBLE> . 
:IG-CDISC_SDTMIGCM bd:includesColumn :IG-CDISC_SDTMIGCM_CMDOSTOT . 
:IG-CDISC_SDTMIGCM_CMDOSRGM rdf:type bd:IgVariable . 
:IG-CDISC_SDTMIGCM_CMDOSRGM rdfs:label "Intended Dose Regimen"^^xsd:string . 
:IG-CDISC_SDTMIGCM_CMDOSRGM bd:ordinal "25"^^xsd:positiveInteger . 
:IG-CDISC_SDTMIGCM_CMDOSRGM bd:controlled_term_or_format ""^^xsd:string . 
:IG-CDISC_SDTMIGCM_CMDOSRGM bd:notes "Text description of the (intended) schedule or regimen for the Intervention. Examples: TWO WEEKS ON, TWO WEEKS OFF."^^xsd:string . 
:IG-CDISC_SDTMIGCM_CMDOSRGM bd:name "CMDOSRGM"^^xsd:string . 
:IG-CDISC_SDTMIGCM_CMDOSRGM bd:basedOnVariable :IG-CDISC_SDTMIGCM_CMDOSRGM_VR . 
:IG-CDISC_SDTMIGCM_CMDOSRGM_VR rdf:type bo:CReference . 
:IG-CDISC_SDTMIGCM_CMDOSRGM_VR bo:hasColumn <http://www.assero.co.uk/MDRModels/CDISC/V1#M-CDISC_SDTMMODEL_INTERVENTIONS_xxDOSRGM> . 
:IG-CDISC_SDTMIGCM_CMDOSRGM_VR bo:enabled "true"^^xsd:boolean . 
:IG-CDISC_SDTMIGCM_CMDOSRGM_VR bo:optional "false"^^xsd:boolean . 
:IG-CDISC_SDTMIGCM_CMDOSRGM_VR bo:ordinal "1"^^xsd:positiveInteger . 
:IG-CDISC_SDTMIGCM_CMDOSRGM bd:compliance <http://www.assero.co.uk/MDRModels/CDISC/V2#IG-CDISC_SDTMIG_C_PERMISSIBLE> . 
:IG-CDISC_SDTMIGCM bd:includesColumn :IG-CDISC_SDTMIGCM_CMDOSRGM . 
:IG-CDISC_SDTMIGCM_CMROUTE rdf:type bd:IgVariable . 
:IG-CDISC_SDTMIGCM_CMROUTE rdfs:label "Route of Administration"^^xsd:string . 
:IG-CDISC_SDTMIGCM_CMROUTE bd:ordinal "26"^^xsd:positiveInteger . 
:IG-CDISC_SDTMIGCM_CMROUTE bd:controlled_term_or_format "ROUTE"^^xsd:string . 
:IG-CDISC_SDTMIGCM_CMROUTE bd:notes "Route of administration for CMTRT. Examples: ORAL, INTRAVENOUS."^^xsd:string . 
:IG-CDISC_SDTMIGCM_CMROUTE bd:name "CMROUTE"^^xsd:string . 
:IG-CDISC_SDTMIGCM_CMROUTE bd:basedOnVariable :IG-CDISC_SDTMIGCM_CMROUTE_VR . 
:IG-CDISC_SDTMIGCM_CMROUTE_VR rdf:type bo:CReference . 
:IG-CDISC_SDTMIGCM_CMROUTE_VR bo:hasColumn <http://www.assero.co.uk/MDRModels/CDISC/V1#M-CDISC_SDTMMODEL_INTERVENTIONS_xxROUTE> . 
:IG-CDISC_SDTMIGCM_CMROUTE_VR bo:enabled "true"^^xsd:boolean . 
:IG-CDISC_SDTMIGCM_CMROUTE_VR bo:optional "false"^^xsd:boolean . 
:IG-CDISC_SDTMIGCM_CMROUTE_VR bo:ordinal "1"^^xsd:positiveInteger . 
:IG-CDISC_SDTMIGCM_CMROUTE bd:compliance <http://www.assero.co.uk/MDRModels/CDISC/V2#IG-CDISC_SDTMIG_C_PERMISSIBLE> . 
:IG-CDISC_SDTMIGCM bd:includesColumn :IG-CDISC_SDTMIGCM_CMROUTE . 
:IG-CDISC_SDTMIGCM_CMSTDTC rdf:type bd:IgVariable . 
:IG-CDISC_SDTMIGCM_CMSTDTC rdfs:label "Start Date/Time of Medication"^^xsd:string . 
:IG-CDISC_SDTMIGCM_CMSTDTC bd:ordinal "27"^^xsd:positiveInteger . 
:IG-CDISC_SDTMIGCM_CMSTDTC bd:controlled_term_or_format "ISO 8601"^^xsd:string . 
:IG-CDISC_SDTMIGCM_CMSTDTC bd:notes ""^^xsd:string . 
:IG-CDISC_SDTMIGCM_CMSTDTC bd:name "CMSTDTC"^^xsd:string . 
:IG-CDISC_SDTMIGCM_CMSTDTC bd:basedOnVariable :IG-CDISC_SDTMIGCM_CMSTDTC_VR . 
:IG-CDISC_SDTMIGCM_CMSTDTC_VR rdf:type bo:CReference . 
:IG-CDISC_SDTMIGCM_CMSTDTC_VR bo:hasColumn <http://www.assero.co.uk/MDRModels/CDISC/V1#M-CDISC_SDTMMODEL_INTERVENTIONS_xxSTDTC> . 
:IG-CDISC_SDTMIGCM_CMSTDTC_VR bo:enabled "true"^^xsd:boolean . 
:IG-CDISC_SDTMIGCM_CMSTDTC_VR bo:optional "false"^^xsd:boolean . 
:IG-CDISC_SDTMIGCM_CMSTDTC_VR bo:ordinal "1"^^xsd:positiveInteger . 
:IG-CDISC_SDTMIGCM_CMSTDTC bd:compliance <http://www.assero.co.uk/MDRModels/CDISC/V2#IG-CDISC_SDTMIG_C_PERMISSIBLE> . 
:IG-CDISC_SDTMIGCM bd:includesColumn :IG-CDISC_SDTMIGCM_CMSTDTC . 
:IG-CDISC_SDTMIGCM_CMENDTC rdf:type bd:IgVariable . 
:IG-CDISC_SDTMIGCM_CMENDTC rdfs:label "End Date/Time of Medication"^^xsd:string . 
:IG-CDISC_SDTMIGCM_CMENDTC bd:ordinal "28"^^xsd:positiveInteger . 
:IG-CDISC_SDTMIGCM_CMENDTC bd:controlled_term_or_format "ISO 8601"^^xsd:string . 
:IG-CDISC_SDTMIGCM_CMENDTC bd:notes ""^^xsd:string . 
:IG-CDISC_SDTMIGCM_CMENDTC bd:name "CMENDTC"^^xsd:string . 
:IG-CDISC_SDTMIGCM_CMENDTC bd:basedOnVariable :IG-CDISC_SDTMIGCM_CMENDTC_VR . 
:IG-CDISC_SDTMIGCM_CMENDTC_VR rdf:type bo:CReference . 
:IG-CDISC_SDTMIGCM_CMENDTC_VR bo:hasColumn <http://www.assero.co.uk/MDRModels/CDISC/V1#M-CDISC_SDTMMODEL_INTERVENTIONS_xxENDTC> . 
:IG-CDISC_SDTMIGCM_CMENDTC_VR bo:enabled "true"^^xsd:boolean . 
:IG-CDISC_SDTMIGCM_CMENDTC_VR bo:optional "false"^^xsd:boolean . 
:IG-CDISC_SDTMIGCM_CMENDTC_VR bo:ordinal "1"^^xsd:positiveInteger . 
:IG-CDISC_SDTMIGCM_CMENDTC bd:compliance <http://www.assero.co.uk/MDRModels/CDISC/V2#IG-CDISC_SDTMIG_C_PERMISSIBLE> . 
:IG-CDISC_SDTMIGCM bd:includesColumn :IG-CDISC_SDTMIGCM_CMENDTC . 
:IG-CDISC_SDTMIGCM_CMSTDY rdf:type bd:IgVariable . 
:IG-CDISC_SDTMIGCM_CMSTDY rdfs:label "Study Day of Start of Medication"^^xsd:string . 
:IG-CDISC_SDTMIGCM_CMSTDY bd:ordinal "29"^^xsd:positiveInteger . 
:IG-CDISC_SDTMIGCM_CMSTDY bd:controlled_term_or_format ""^^xsd:string . 
:IG-CDISC_SDTMIGCM_CMSTDY bd:notes "Study day of start of medication relative to the sponsor-defined RFSTDTC."^^xsd:string . 
:IG-CDISC_SDTMIGCM_CMSTDY bd:name "CMSTDY"^^xsd:string . 
:IG-CDISC_SDTMIGCM_CMSTDY bd:basedOnVariable :IG-CDISC_SDTMIGCM_CMSTDY_VR . 
:IG-CDISC_SDTMIGCM_CMSTDY_VR rdf:type bo:CReference . 
:IG-CDISC_SDTMIGCM_CMSTDY_VR bo:hasColumn <http://www.assero.co.uk/MDRModels/CDISC/V1#M-CDISC_SDTMMODEL_INTERVENTIONS_xxSTDY> . 
:IG-CDISC_SDTMIGCM_CMSTDY_VR bo:enabled "true"^^xsd:boolean . 
:IG-CDISC_SDTMIGCM_CMSTDY_VR bo:optional "false"^^xsd:boolean . 
:IG-CDISC_SDTMIGCM_CMSTDY_VR bo:ordinal "1"^^xsd:positiveInteger . 
:IG-CDISC_SDTMIGCM_CMSTDY bd:compliance <http://www.assero.co.uk/MDRModels/CDISC/V2#IG-CDISC_SDTMIG_C_PERMISSIBLE> . 
:IG-CDISC_SDTMIGCM bd:includesColumn :IG-CDISC_SDTMIGCM_CMSTDY . 
:IG-CDISC_SDTMIGCM_CMENDY rdf:type bd:IgVariable . 
:IG-CDISC_SDTMIGCM_CMENDY rdfs:label "Study Day of End of Medication"^^xsd:string . 
:IG-CDISC_SDTMIGCM_CMENDY bd:ordinal "30"^^xsd:positiveInteger . 
:IG-CDISC_SDTMIGCM_CMENDY bd:controlled_term_or_format ""^^xsd:string . 
:IG-CDISC_SDTMIGCM_CMENDY bd:notes "Study day of end of medication relative to the sponsor-defined RFSTDTC."^^xsd:string . 
:IG-CDISC_SDTMIGCM_CMENDY bd:name "CMENDY"^^xsd:string . 
:IG-CDISC_SDTMIGCM_CMENDY bd:basedOnVariable :IG-CDISC_SDTMIGCM_CMENDY_VR . 
:IG-CDISC_SDTMIGCM_CMENDY_VR rdf:type bo:CReference . 
:IG-CDISC_SDTMIGCM_CMENDY_VR bo:hasColumn <http://www.assero.co.uk/MDRModels/CDISC/V1#M-CDISC_SDTMMODEL_INTERVENTIONS_xxENDY> . 
:IG-CDISC_SDTMIGCM_CMENDY_VR bo:enabled "true"^^xsd:boolean . 
:IG-CDISC_SDTMIGCM_CMENDY_VR bo:optional "false"^^xsd:boolean . 
:IG-CDISC_SDTMIGCM_CMENDY_VR bo:ordinal "1"^^xsd:positiveInteger . 
:IG-CDISC_SDTMIGCM_CMENDY bd:compliance <http://www.assero.co.uk/MDRModels/CDISC/V2#IG-CDISC_SDTMIG_C_PERMISSIBLE> . 
:IG-CDISC_SDTMIGCM bd:includesColumn :IG-CDISC_SDTMIGCM_CMENDY . 
:IG-CDISC_SDTMIGCM_CMDUR rdf:type bd:IgVariable . 
:IG-CDISC_SDTMIGCM_CMDUR rdfs:label "Duration of Medication"^^xsd:string . 
:IG-CDISC_SDTMIGCM_CMDUR bd:ordinal "31"^^xsd:positiveInteger . 
:IG-CDISC_SDTMIGCM_CMDUR bd:controlled_term_or_format "ISO 8601"^^xsd:string . 
:IG-CDISC_SDTMIGCM_CMDUR bd:notes "Collected duration for a treatment episode. Used only if collected on the CRF and not derived from start and end date/times."^^xsd:string . 
:IG-CDISC_SDTMIGCM_CMDUR bd:name "CMDUR"^^xsd:string . 
:IG-CDISC_SDTMIGCM_CMDUR bd:basedOnVariable :IG-CDISC_SDTMIGCM_CMDUR_VR . 
:IG-CDISC_SDTMIGCM_CMDUR_VR rdf:type bo:CReference . 
:IG-CDISC_SDTMIGCM_CMDUR_VR bo:hasColumn <http://www.assero.co.uk/MDRModels/CDISC/V1#M-CDISC_SDTMMODEL_INTERVENTIONS_xxDUR> . 
:IG-CDISC_SDTMIGCM_CMDUR_VR bo:enabled "true"^^xsd:boolean . 
:IG-CDISC_SDTMIGCM_CMDUR_VR bo:optional "false"^^xsd:boolean . 
:IG-CDISC_SDTMIGCM_CMDUR_VR bo:ordinal "1"^^xsd:positiveInteger . 
:IG-CDISC_SDTMIGCM_CMDUR bd:compliance <http://www.assero.co.uk/MDRModels/CDISC/V2#IG-CDISC_SDTMIG_C_PERMISSIBLE> . 
:IG-CDISC_SDTMIGCM bd:includesColumn :IG-CDISC_SDTMIGCM_CMDUR . 
:IG-CDISC_SDTMIGCM_CMSTRF rdf:type bd:IgVariable . 
:IG-CDISC_SDTMIGCM_CMSTRF rdfs:label "Start Relative to Reference Period"^^xsd:string . 
:IG-CDISC_SDTMIGCM_CMSTRF bd:ordinal "32"^^xsd:positiveInteger . 
:IG-CDISC_SDTMIGCM_CMSTRF bd:controlled_term_or_format "STENRF"^^xsd:string . 
:IG-CDISC_SDTMIGCM_CMSTRF bd:notes "Describes the start of the medication relative to sponsor-defined reference period. The sponsor-defined reference period is a continuous period of time defined by a discrete starting point and a discrete ending point (represented by RFSTDTC and RFENDTC in Demographics). If information such as 'PRIOR', 'ONGOING', or 'CONTINUING' was collected, this information may be translated into CMSTRF."^^xsd:string . 
:IG-CDISC_SDTMIGCM_CMSTRF bd:name "CMSTRF"^^xsd:string . 
:IG-CDISC_SDTMIGCM_CMSTRF bd:basedOnVariable :IG-CDISC_SDTMIGCM_CMSTRF_VR . 
:IG-CDISC_SDTMIGCM_CMSTRF_VR rdf:type bo:CReference . 
:IG-CDISC_SDTMIGCM_CMSTRF_VR bo:hasColumn <http://www.assero.co.uk/MDRModels/CDISC/V1#M-CDISC_SDTMMODEL_INTERVENTIONS_xxSTRF> . 
:IG-CDISC_SDTMIGCM_CMSTRF_VR bo:enabled "true"^^xsd:boolean . 
:IG-CDISC_SDTMIGCM_CMSTRF_VR bo:optional "false"^^xsd:boolean . 
:IG-CDISC_SDTMIGCM_CMSTRF_VR bo:ordinal "1"^^xsd:positiveInteger . 
:IG-CDISC_SDTMIGCM_CMSTRF bd:compliance <http://www.assero.co.uk/MDRModels/CDISC/V2#IG-CDISC_SDTMIG_C_PERMISSIBLE> . 
:IG-CDISC_SDTMIGCM bd:includesColumn :IG-CDISC_SDTMIGCM_CMSTRF . 
:IG-CDISC_SDTMIGCM_CMENRF rdf:type bd:IgVariable . 
:IG-CDISC_SDTMIGCM_CMENRF rdfs:label "End Relative to Reference Period"^^xsd:string . 
:IG-CDISC_SDTMIGCM_CMENRF bd:ordinal "33"^^xsd:positiveInteger . 
:IG-CDISC_SDTMIGCM_CMENRF bd:controlled_term_or_format "STENRF"^^xsd:string . 
:IG-CDISC_SDTMIGCM_CMENRF bd:notes "Describes the end of the medication relative to the sponsor-defined reference period. The sponsor-defined reference period is a continuous period of time defined by a discrete starting point and a discrete ending point (represented by RFSTDTC and RFENDTC in Demographics). If information such as 'PRIOR', 'ONGOING', or 'CONTINUING' was collected, this information may be translated into CMENRF."^^xsd:string . 
:IG-CDISC_SDTMIGCM_CMENRF bd:name "CMENRF"^^xsd:string . 
:IG-CDISC_SDTMIGCM_CMENRF bd:basedOnVariable :IG-CDISC_SDTMIGCM_CMENRF_VR . 
:IG-CDISC_SDTMIGCM_CMENRF_VR rdf:type bo:CReference . 
:IG-CDISC_SDTMIGCM_CMENRF_VR bo:hasColumn <http://www.assero.co.uk/MDRModels/CDISC/V1#M-CDISC_SDTMMODEL_INTERVENTIONS_xxENRF> . 
:IG-CDISC_SDTMIGCM_CMENRF_VR bo:enabled "true"^^xsd:boolean . 
:IG-CDISC_SDTMIGCM_CMENRF_VR bo:optional "false"^^xsd:boolean . 
:IG-CDISC_SDTMIGCM_CMENRF_VR bo:ordinal "1"^^xsd:positiveInteger . 
:IG-CDISC_SDTMIGCM_CMENRF bd:compliance <http://www.assero.co.uk/MDRModels/CDISC/V2#IG-CDISC_SDTMIG_C_PERMISSIBLE> . 
:IG-CDISC_SDTMIGCM bd:includesColumn :IG-CDISC_SDTMIGCM_CMENRF . 
:IG-CDISC_SDTMIGCM_CMSTRTPT rdf:type bd:IgVariable . 
:IG-CDISC_SDTMIGCM_CMSTRTPT rdfs:label "Start Relative to Reference Time Point"^^xsd:string . 
:IG-CDISC_SDTMIGCM_CMSTRTPT bd:ordinal "34"^^xsd:positiveInteger . 
:IG-CDISC_SDTMIGCM_CMSTRTPT bd:controlled_term_or_format "STRTPT"^^xsd:string . 
:IG-CDISC_SDTMIGCM_CMSTRTPT bd:notes "Identifies the start of the medication as being before or after the reference time point defined by variable CMSTTPT."^^xsd:string . 
:IG-CDISC_SDTMIGCM_CMSTRTPT bd:name "CMSTRTPT"^^xsd:string . 
:IG-CDISC_SDTMIGCM_CMSTRTPT bd:basedOnVariable :IG-CDISC_SDTMIGCM_CMSTRTPT_VR . 
:IG-CDISC_SDTMIGCM_CMSTRTPT_VR rdf:type bo:CReference . 
:IG-CDISC_SDTMIGCM_CMSTRTPT_VR bo:hasColumn <http://www.assero.co.uk/MDRModels/CDISC/V1#M-CDISC_SDTMMODEL_INTERVENTIONS_xxSTRTPT> . 
:IG-CDISC_SDTMIGCM_CMSTRTPT_VR bo:enabled "true"^^xsd:boolean . 
:IG-CDISC_SDTMIGCM_CMSTRTPT_VR bo:optional "false"^^xsd:boolean . 
:IG-CDISC_SDTMIGCM_CMSTRTPT_VR bo:ordinal "1"^^xsd:positiveInteger . 
:IG-CDISC_SDTMIGCM_CMSTRTPT bd:compliance <http://www.assero.co.uk/MDRModels/CDISC/V2#IG-CDISC_SDTMIG_C_PERMISSIBLE> . 
:IG-CDISC_SDTMIGCM bd:includesColumn :IG-CDISC_SDTMIGCM_CMSTRTPT . 
:IG-CDISC_SDTMIGCM_CMSTTPT rdf:type bd:IgVariable . 
:IG-CDISC_SDTMIGCM_CMSTTPT rdfs:label "Start Reference Time Point"^^xsd:string . 
:IG-CDISC_SDTMIGCM_CMSTTPT bd:ordinal "35"^^xsd:positiveInteger . 
:IG-CDISC_SDTMIGCM_CMSTTPT bd:controlled_term_or_format ""^^xsd:string . 
:IG-CDISC_SDTMIGCM_CMSTTPT bd:notes "Description or date/time in ISO 8601 character format of the reference point referred to by CMSTRTPT. Examples: '2003-12-15' or 'VISIT 1'."^^xsd:string . 
:IG-CDISC_SDTMIGCM_CMSTTPT bd:name "CMSTTPT"^^xsd:string . 
:IG-CDISC_SDTMIGCM_CMSTTPT bd:basedOnVariable :IG-CDISC_SDTMIGCM_CMSTTPT_VR . 
:IG-CDISC_SDTMIGCM_CMSTTPT_VR rdf:type bo:CReference . 
:IG-CDISC_SDTMIGCM_CMSTTPT_VR bo:hasColumn <http://www.assero.co.uk/MDRModels/CDISC/V1#M-CDISC_SDTMMODEL_INTERVENTIONS_xxSTTPT> . 
:IG-CDISC_SDTMIGCM_CMSTTPT_VR bo:enabled "true"^^xsd:boolean . 
:IG-CDISC_SDTMIGCM_CMSTTPT_VR bo:optional "false"^^xsd:boolean . 
:IG-CDISC_SDTMIGCM_CMSTTPT_VR bo:ordinal "1"^^xsd:positiveInteger . 
:IG-CDISC_SDTMIGCM_CMSTTPT bd:compliance <http://www.assero.co.uk/MDRModels/CDISC/V2#IG-CDISC_SDTMIG_C_PERMISSIBLE> . 
:IG-CDISC_SDTMIGCM bd:includesColumn :IG-CDISC_SDTMIGCM_CMSTTPT . 
:IG-CDISC_SDTMIGCM_CMENRTPT rdf:type bd:IgVariable . 
:IG-CDISC_SDTMIGCM_CMENRTPT rdfs:label "End Relative to Reference Time Point"^^xsd:string . 
:IG-CDISC_SDTMIGCM_CMENRTPT bd:ordinal "36"^^xsd:positiveInteger . 
:IG-CDISC_SDTMIGCM_CMENRTPT bd:controlled_term_or_format "ENRTPT"^^xsd:string . 
:IG-CDISC_SDTMIGCM_CMENRTPT bd:notes "Identifies the end of the medication as being before or after the reference time point defined by variable CMENTPT."^^xsd:string . 
:IG-CDISC_SDTMIGCM_CMENRTPT bd:name "CMENRTPT"^^xsd:string . 
:IG-CDISC_SDTMIGCM_CMENRTPT bd:basedOnVariable :IG-CDISC_SDTMIGCM_CMENRTPT_VR . 
:IG-CDISC_SDTMIGCM_CMENRTPT_VR rdf:type bo:CReference . 
:IG-CDISC_SDTMIGCM_CMENRTPT_VR bo:hasColumn <http://www.assero.co.uk/MDRModels/CDISC/V1#M-CDISC_SDTMMODEL_INTERVENTIONS_xxENRTPT> . 
:IG-CDISC_SDTMIGCM_CMENRTPT_VR bo:enabled "true"^^xsd:boolean . 
:IG-CDISC_SDTMIGCM_CMENRTPT_VR bo:optional "false"^^xsd:boolean . 
:IG-CDISC_SDTMIGCM_CMENRTPT_VR bo:ordinal "1"^^xsd:positiveInteger . 
:IG-CDISC_SDTMIGCM_CMENRTPT bd:compliance <http://www.assero.co.uk/MDRModels/CDISC/V2#IG-CDISC_SDTMIG_C_PERMISSIBLE> . 
:IG-CDISC_SDTMIGCM bd:includesColumn :IG-CDISC_SDTMIGCM_CMENRTPT . 
:IG-CDISC_SDTMIGCM_CMENTPT rdf:type bd:IgVariable . 
:IG-CDISC_SDTMIGCM_CMENTPT rdfs:label "End Reference Time Point"^^xsd:string . 
:IG-CDISC_SDTMIGCM_CMENTPT bd:ordinal "37"^^xsd:positiveInteger . 
:IG-CDISC_SDTMIGCM_CMENTPT bd:controlled_term_or_format ""^^xsd:string . 
:IG-CDISC_SDTMIGCM_CMENTPT bd:notes "Description or date/time in ISO 8601 character format of the reference point referred to by CMENRTPT. Examples: '2003-12-25' or 'VISIT 2'."^^xsd:string . 
:IG-CDISC_SDTMIGCM_CMENTPT bd:name "CMENTPT"^^xsd:string . 
:IG-CDISC_SDTMIGCM_CMENTPT bd:basedOnVariable :IG-CDISC_SDTMIGCM_CMENTPT_VR . 
:IG-CDISC_SDTMIGCM_CMENTPT_VR rdf:type bo:CReference . 
:IG-CDISC_SDTMIGCM_CMENTPT_VR bo:hasColumn <http://www.assero.co.uk/MDRModels/CDISC/V1#M-CDISC_SDTMMODEL_INTERVENTIONS_xxENTPT> . 
:IG-CDISC_SDTMIGCM_CMENTPT_VR bo:enabled "true"^^xsd:boolean . 
:IG-CDISC_SDTMIGCM_CMENTPT_VR bo:optional "false"^^xsd:boolean . 
:IG-CDISC_SDTMIGCM_CMENTPT_VR bo:ordinal "1"^^xsd:positiveInteger . 
:IG-CDISC_SDTMIGCM_CMENTPT bd:compliance <http://www.assero.co.uk/MDRModels/CDISC/V2#IG-CDISC_SDTMIG_C_PERMISSIBLE> . 
:IG-CDISC_SDTMIGCM bd:includesColumn :IG-CDISC_SDTMIGCM_CMENTPT . 
:IG-CDISC_SDTMIG bd:includesTabulation :IG-CDISC_SDTMIG_TR3 . 
:IG-CDISC_SDTMIG_TR3 rdf:type bo:TReference . 
:IG-CDISC_SDTMIG_TR3 bo:hasTabulation <http://www.assero.co.uk/MDRModels/CDISC/V2#IG-CDISC_SDTMIGCM> . 
:IG-CDISC_SDTMIG_TR3 bo:enabled "true"^^xsd:boolean . 
:IG-CDISC_SDTMIG_TR3 bo:optional "false"^^xsd:boolean . 
:IG-CDISC_SDTMIG_TR3 bo:ordinal "3"^^xsd:positiveInteger . 
mdrItems:SI-CDISC_SDTMIGCO-2 rdf:type isoI:ScopedIdentifier . 
mdrItems:SI-CDISC_SDTMIGCO-2 isoI:identifier "SDTM IG CO"^^xsd:string . 
mdrItems:SI-CDISC_SDTMIGCO-2 isoI:version "2"^^xsd:positiveInteger . 
mdrItems:SI-CDISC_SDTMIGCO-2 isoI:versionLabel "3.1.2"^^xsd:string . 
mdrItems:SI-CDISC_SDTMIGCO-2 isoI:hasScope mdrItems:NS-CDISC . 
mdrItems:RS-CDISC_SDTMIGCO-2 rdf:type isoR:RegistrationState . 
mdrItems:RS-CDISC_SDTMIGCO-2 isoR:byAuthority mdrItems:RA-084433759 . 
mdrItems:RS-CDISC_SDTMIGCO-2 isoR:registrationStatus "Standard"^^xsd:string . 
mdrItems:RS-CDISC_SDTMIGCO-2 isoR:administrativeNote ""^^xsd:string . 
mdrItems:RS-CDISC_SDTMIGCO-2 isoR:effectiveDate "2016-01-01T00:00:00Z"^^xsd:dateTime . 
mdrItems:RS-CDISC_SDTMIGCO-2 isoR:untilDate "2016-01-01T00:00:00Z"^^xsd:dateTime . 
mdrItems:RS-CDISC_SDTMIGCO-2 isoR:unresolvedIssue ""^^xsd:string . 
mdrItems:RS-CDISC_SDTMIGCO-2 isoR:administrativeStatus ""^^xsd:string . 
mdrItems:RS-CDISC_SDTMIGCO-2 isoR:previousState "Standard"^^xsd:string . 
:IG-CDISC_SDTMIGCO rdf:type bd:IGDomain . 
:IG-CDISC_SDTMIGCO isoI:hasIdentifier mdrItems:SI-CDISC_SDTMIGCO-2 . 
:IG-CDISC_SDTMIGCO isoR:hasState mdrItems:RS-CDISC_SDTMIGCO-2 . 
:IG-CDISC_SDTMIGCO rdfs:label "Comments"^^xsd:string . 
:IG-CDISC_SDTMIGCO isoT:creationDate "2016-07-15"^^xsd:string . 
:IG-CDISC_SDTMIGCO isoT:lastChangeDate "2016-07-15T08:12:50+01:00"^^xsd:string . 
:IG-CDISC_SDTMIGCO isoT:changeDescription ""^^xsd:string . 
:IG-CDISC_SDTMIGCO isoT:explanatoryComment ""^^xsd:string . 
:IG-CDISC_SDTMIGCO isoT:origin ""^^xsd:string . 
:IG-CDISC_SDTMIGCO bd:prefix ""^^xsd:string . 
:IG-CDISC_SDTMIGCO bd:structure ""^^xsd:string . 
:IG-CDISC_SDTMIGCO_STUDYID rdf:type bd:IgVariable . 
:IG-CDISC_SDTMIGCO_STUDYID rdfs:label "Study Identifier"^^xsd:string . 
:IG-CDISC_SDTMIGCO_STUDYID bd:ordinal "1"^^xsd:positiveInteger . 
:IG-CDISC_SDTMIGCO_STUDYID bd:controlled_term_or_format ""^^xsd:string . 
:IG-CDISC_SDTMIGCO_STUDYID bd:notes "Unique identifier for a study."^^xsd:string . 
:IG-CDISC_SDTMIGCO_STUDYID bd:name "STUDYID"^^xsd:string . 
:IG-CDISC_SDTMIGCO_STUDYID bd:compliance <http://www.assero.co.uk/MDRModels/CDISC/V2#IG-CDISC_SDTMIG_C_REQUIRED> . 
:IG-CDISC_SDTMIGCO bd:includesColumn :IG-CDISC_SDTMIGCO_STUDYID . 
:IG-CDISC_SDTMIGCO_DOMAIN rdf:type bd:IgVariable . 
:IG-CDISC_SDTMIGCO_DOMAIN rdfs:label "Domain Abbreviation"^^xsd:string . 
:IG-CDISC_SDTMIGCO_DOMAIN bd:ordinal "2"^^xsd:positiveInteger . 
:IG-CDISC_SDTMIGCO_DOMAIN bd:controlled_term_or_format ""^^xsd:string . 
:IG-CDISC_SDTMIGCO_DOMAIN bd:notes "Two-character abbreviation for the domain."^^xsd:string . 
:IG-CDISC_SDTMIGCO_DOMAIN bd:name "DOMAIN"^^xsd:string . 
:IG-CDISC_SDTMIGCO_DOMAIN bd:compliance <http://www.assero.co.uk/MDRModels/CDISC/V2#IG-CDISC_SDTMIG_C_REQUIRED> . 
:IG-CDISC_SDTMIGCO bd:includesColumn :IG-CDISC_SDTMIGCO_DOMAIN . 
:IG-CDISC_SDTMIGCO_RDOMAIN rdf:type bd:IgVariable . 
:IG-CDISC_SDTMIGCO_RDOMAIN rdfs:label "Related Domain Abbreviation"^^xsd:string . 
:IG-CDISC_SDTMIGCO_RDOMAIN bd:ordinal "3"^^xsd:positiveInteger . 
:IG-CDISC_SDTMIGCO_RDOMAIN bd:controlled_term_or_format "DOMAIN"^^xsd:string . 
:IG-CDISC_SDTMIGCO_RDOMAIN bd:notes "Two-character abbreviation for the domain of the parent record(s)."^^xsd:string . 
:IG-CDISC_SDTMIGCO_RDOMAIN bd:name "RDOMAIN"^^xsd:string . 
:IG-CDISC_SDTMIGCO_RDOMAIN bd:compliance <http://www.assero.co.uk/MDRModels/CDISC/V2#IG-CDISC_SDTMIG_C_PERMISSIBLE> . 
:IG-CDISC_SDTMIGCO bd:includesColumn :IG-CDISC_SDTMIGCO_RDOMAIN . 
:IG-CDISC_SDTMIGCO_USUBJID rdf:type bd:IgVariable . 
:IG-CDISC_SDTMIGCO_USUBJID rdfs:label "Unique Subject Identifier"^^xsd:string . 
:IG-CDISC_SDTMIGCO_USUBJID bd:ordinal "4"^^xsd:positiveInteger . 
:IG-CDISC_SDTMIGCO_USUBJID bd:controlled_term_or_format ""^^xsd:string . 
:IG-CDISC_SDTMIGCO_USUBJID bd:notes "Identifier used to uniquely identify a subject across all studies for all applications or submissions involving the product."^^xsd:string . 
:IG-CDISC_SDTMIGCO_USUBJID bd:name "USUBJID"^^xsd:string . 
:IG-CDISC_SDTMIGCO_USUBJID bd:compliance <http://www.assero.co.uk/MDRModels/CDISC/V2#IG-CDISC_SDTMIG_C_REQUIRED> . 
:IG-CDISC_SDTMIGCO bd:includesColumn :IG-CDISC_SDTMIGCO_USUBJID . 
:IG-CDISC_SDTMIGCO_COSEQ rdf:type bd:IgVariable . 
:IG-CDISC_SDTMIGCO_COSEQ rdfs:label "Sequence Number"^^xsd:string . 
:IG-CDISC_SDTMIGCO_COSEQ bd:ordinal "5"^^xsd:positiveInteger . 
:IG-CDISC_SDTMIGCO_COSEQ bd:controlled_term_or_format ""^^xsd:string . 
:IG-CDISC_SDTMIGCO_COSEQ bd:notes "Sequence Number given to ensure uniqueness of subject records within a domain. May be any valid number."^^xsd:string . 
:IG-CDISC_SDTMIGCO_COSEQ bd:name "COSEQ"^^xsd:string . 
:IG-CDISC_SDTMIGCO_COSEQ bd:compliance <http://www.assero.co.uk/MDRModels/CDISC/V2#IG-CDISC_SDTMIG_C_REQUIRED> . 
:IG-CDISC_SDTMIGCO bd:includesColumn :IG-CDISC_SDTMIGCO_COSEQ . 
:IG-CDISC_SDTMIGCO_IDVAR rdf:type bd:IgVariable . 
:IG-CDISC_SDTMIGCO_IDVAR rdfs:label "Identifying Variable"^^xsd:string . 
:IG-CDISC_SDTMIGCO_IDVAR bd:ordinal "6"^^xsd:positiveInteger . 
:IG-CDISC_SDTMIGCO_IDVAR bd:controlled_term_or_format ""^^xsd:string . 
:IG-CDISC_SDTMIGCO_IDVAR bd:notes "Name of the identifying variable in the general-observation-class dataset that identifies the related record(s). Examples include --SEQ and --GRPID."^^xsd:string . 
:IG-CDISC_SDTMIGCO_IDVAR bd:name "IDVAR"^^xsd:string . 
:IG-CDISC_SDTMIGCO_IDVAR bd:compliance <http://www.assero.co.uk/MDRModels/CDISC/V2#IG-CDISC_SDTMIG_C_PERMISSIBLE> . 
:IG-CDISC_SDTMIGCO bd:includesColumn :IG-CDISC_SDTMIGCO_IDVAR . 
:IG-CDISC_SDTMIGCO_IDVARVAL rdf:type bd:IgVariable . 
:IG-CDISC_SDTMIGCO_IDVARVAL rdfs:label "Identifying Variable Value"^^xsd:string . 
:IG-CDISC_SDTMIGCO_IDVARVAL bd:ordinal "7"^^xsd:positiveInteger . 
:IG-CDISC_SDTMIGCO_IDVARVAL bd:controlled_term_or_format ""^^xsd:string . 
:IG-CDISC_SDTMIGCO_IDVARVAL bd:notes "Value of identifying variable described in IDVAR. If --SEQ is the variable being used to describe this record, then the value of --SEQ would be entered here."^^xsd:string . 
:IG-CDISC_SDTMIGCO_IDVARVAL bd:name "IDVARVAL"^^xsd:string . 
:IG-CDISC_SDTMIGCO_IDVARVAL bd:compliance <http://www.assero.co.uk/MDRModels/CDISC/V2#IG-CDISC_SDTMIG_C_PERMISSIBLE> . 
:IG-CDISC_SDTMIGCO bd:includesColumn :IG-CDISC_SDTMIGCO_IDVARVAL . 
:IG-CDISC_SDTMIGCO_COREF rdf:type bd:IgVariable . 
:IG-CDISC_SDTMIGCO_COREF rdfs:label "Comment Reference"^^xsd:string . 
:IG-CDISC_SDTMIGCO_COREF bd:ordinal "8"^^xsd:positiveInteger . 
:IG-CDISC_SDTMIGCO_COREF bd:controlled_term_or_format ""^^xsd:string . 
:IG-CDISC_SDTMIGCO_COREF bd:notes "Sponsor-defined reference associated with the comment. May be the CRF page number (e.g. 650), or a module name (e.g. DEMOG), or a combination of information that identifies the reference (e.g. 650-VITALS-VISIT 2)."^^xsd:string . 
:IG-CDISC_SDTMIGCO_COREF bd:name "COREF"^^xsd:string . 
:IG-CDISC_SDTMIGCO_COREF bd:compliance <http://www.assero.co.uk/MDRModels/CDISC/V2#IG-CDISC_SDTMIG_C_PERMISSIBLE> . 
:IG-CDISC_SDTMIGCO bd:includesColumn :IG-CDISC_SDTMIGCO_COREF . 
:IG-CDISC_SDTMIGCO_COVAL rdf:type bd:IgVariable . 
:IG-CDISC_SDTMIGCO_COVAL rdfs:label "Comment"^^xsd:string . 
:IG-CDISC_SDTMIGCO_COVAL bd:ordinal "9"^^xsd:positiveInteger . 
:IG-CDISC_SDTMIGCO_COVAL bd:controlled_term_or_format ""^^xsd:string . 
:IG-CDISC_SDTMIGCO_COVAL bd:notes "The text of the comment. Text over 200 characters can be added to additional columns COVAL1-COVALn. See assumption 5.2.1.1.3."^^xsd:string . 
:IG-CDISC_SDTMIGCO_COVAL bd:name "COVAL"^^xsd:string . 
:IG-CDISC_SDTMIGCO_COVAL bd:compliance <http://www.assero.co.uk/MDRModels/CDISC/V2#IG-CDISC_SDTMIG_C_REQUIRED> . 
:IG-CDISC_SDTMIGCO bd:includesColumn :IG-CDISC_SDTMIGCO_COVAL . 
:IG-CDISC_SDTMIGCO_COEVAL rdf:type bd:IgVariable . 
:IG-CDISC_SDTMIGCO_COEVAL rdfs:label "Evaluator"^^xsd:string . 
:IG-CDISC_SDTMIGCO_COEVAL bd:ordinal "10"^^xsd:positiveInteger . 
:IG-CDISC_SDTMIGCO_COEVAL bd:controlled_term_or_format ""^^xsd:string . 
:IG-CDISC_SDTMIGCO_COEVAL bd:notes "Used to describe the originator of the comment. Examples: CENTRAL, REVIEWER, ADJUDICATION COMMITTEE, PRINCIPAL INVESTIGATOR."^^xsd:string . 
:IG-CDISC_SDTMIGCO_COEVAL bd:name "COEVAL"^^xsd:string . 
:IG-CDISC_SDTMIGCO_COEVAL bd:compliance <http://www.assero.co.uk/MDRModels/CDISC/V2#IG-CDISC_SDTMIG_C_PERMISSIBLE> . 
:IG-CDISC_SDTMIGCO bd:includesColumn :IG-CDISC_SDTMIGCO_COEVAL . 
:IG-CDISC_SDTMIGCO_CODTC rdf:type bd:IgVariable . 
:IG-CDISC_SDTMIGCO_CODTC rdfs:label "Date/Time of Comment"^^xsd:string . 
:IG-CDISC_SDTMIGCO_CODTC bd:ordinal "11"^^xsd:positiveInteger . 
:IG-CDISC_SDTMIGCO_CODTC bd:controlled_term_or_format "ISO 8601"^^xsd:string . 
:IG-CDISC_SDTMIGCO_CODTC bd:notes "Date/time of comment on dedicated comment form. Should be null if this is a child record of another domain or if comment date was not collected."^^xsd:string . 
:IG-CDISC_SDTMIGCO_CODTC bd:name "CODTC"^^xsd:string . 
:IG-CDISC_SDTMIGCO_CODTC bd:compliance <http://www.assero.co.uk/MDRModels/CDISC/V2#IG-CDISC_SDTMIG_C_PERMISSIBLE> . 
:IG-CDISC_SDTMIGCO bd:includesColumn :IG-CDISC_SDTMIGCO_CODTC . 
:IG-CDISC_SDTMIG bd:includesTabulation :IG-CDISC_SDTMIG_TR4 . 
:IG-CDISC_SDTMIG_TR4 rdf:type bo:TReference . 
:IG-CDISC_SDTMIG_TR4 bo:hasTabulation <http://www.assero.co.uk/MDRModels/CDISC/V2#IG-CDISC_SDTMIGCO> . 
:IG-CDISC_SDTMIG_TR4 bo:enabled "true"^^xsd:boolean . 
:IG-CDISC_SDTMIG_TR4 bo:optional "false"^^xsd:boolean . 
:IG-CDISC_SDTMIG_TR4 bo:ordinal "4"^^xsd:positiveInteger . 
mdrItems:SI-CDISC_SDTMIGDA-2 rdf:type isoI:ScopedIdentifier . 
mdrItems:SI-CDISC_SDTMIGDA-2 isoI:identifier "SDTM IG DA"^^xsd:string . 
mdrItems:SI-CDISC_SDTMIGDA-2 isoI:version "2"^^xsd:positiveInteger . 
mdrItems:SI-CDISC_SDTMIGDA-2 isoI:versionLabel "3.1.2"^^xsd:string . 
mdrItems:SI-CDISC_SDTMIGDA-2 isoI:hasScope mdrItems:NS-CDISC . 
mdrItems:RS-CDISC_SDTMIGDA-2 rdf:type isoR:RegistrationState . 
mdrItems:RS-CDISC_SDTMIGDA-2 isoR:byAuthority mdrItems:RA-084433759 . 
mdrItems:RS-CDISC_SDTMIGDA-2 isoR:registrationStatus "Standard"^^xsd:string . 
mdrItems:RS-CDISC_SDTMIGDA-2 isoR:administrativeNote ""^^xsd:string . 
mdrItems:RS-CDISC_SDTMIGDA-2 isoR:effectiveDate "2016-01-01T00:00:00Z"^^xsd:dateTime . 
mdrItems:RS-CDISC_SDTMIGDA-2 isoR:untilDate "2016-01-01T00:00:00Z"^^xsd:dateTime . 
mdrItems:RS-CDISC_SDTMIGDA-2 isoR:unresolvedIssue ""^^xsd:string . 
mdrItems:RS-CDISC_SDTMIGDA-2 isoR:administrativeStatus ""^^xsd:string . 
mdrItems:RS-CDISC_SDTMIGDA-2 isoR:previousState "Standard"^^xsd:string . 
:IG-CDISC_SDTMIGDA rdf:type bd:IGDomain . 
:IG-CDISC_SDTMIGDA isoI:hasIdentifier mdrItems:SI-CDISC_SDTMIGDA-2 . 
:IG-CDISC_SDTMIGDA isoR:hasState mdrItems:RS-CDISC_SDTMIGDA-2 . 
:IG-CDISC_SDTMIGDA rdfs:label "Drug Accountability"^^xsd:string . 
:IG-CDISC_SDTMIGDA isoT:creationDate "2016-07-15"^^xsd:string . 
:IG-CDISC_SDTMIGDA isoT:lastChangeDate "2016-07-15T08:12:50+01:00"^^xsd:string . 
:IG-CDISC_SDTMIGDA isoT:changeDescription ""^^xsd:string . 
:IG-CDISC_SDTMIGDA isoT:explanatoryComment ""^^xsd:string . 
:IG-CDISC_SDTMIGDA isoT:origin ""^^xsd:string . 
:IG-CDISC_SDTMIGDA bd:prefix ""^^xsd:string . 
:IG-CDISC_SDTMIGDA bd:structure ""^^xsd:string . 
:IG-CDISC_SDTMIGDA bd:basedOnDomain :IG-CDISC_SDTMIGDA_CLR . 
:IG-CDISC_SDTMIGDA_CLR rdf:type bo:TReference . 
:IG-CDISC_SDTMIGDA_CLR bo:hasTabulation <http://www.assero.co.uk/MDRModels/CDISC/V1#M-CDISC_SDTMMODEL_FINDINGS> . 
:IG-CDISC_SDTMIGDA_CLR bo:enabled "true"^^xsd:boolean . 
:IG-CDISC_SDTMIGDA_CLR bo:optional "false"^^xsd:boolean . 
:IG-CDISC_SDTMIGDA_CLR bo:ordinal "1"^^xsd:positiveInteger . 
:IG-CDISC_SDTMIGDA_STUDYID rdf:type bd:IgVariable . 
:IG-CDISC_SDTMIGDA_STUDYID rdfs:label "Study Identifier"^^xsd:string . 
:IG-CDISC_SDTMIGDA_STUDYID bd:ordinal "1"^^xsd:positiveInteger . 
:IG-CDISC_SDTMIGDA_STUDYID bd:controlled_term_or_format ""^^xsd:string . 
:IG-CDISC_SDTMIGDA_STUDYID bd:notes "Unique identifier for a study."^^xsd:string . 
:IG-CDISC_SDTMIGDA_STUDYID bd:name "STUDYID"^^xsd:string . 
:IG-CDISC_SDTMIGDA_STUDYID bd:basedOnVariable :IG-CDISC_SDTMIGDA_STUDYID_VR . 
:IG-CDISC_SDTMIGDA_STUDYID_VR rdf:type bo:CReference . 
:IG-CDISC_SDTMIGDA_STUDYID_VR bo:hasColumn <http://www.assero.co.uk/MDRModels/CDISC/V1#M-CDISC_SDTMMODEL_FINDINGS_STUDYID> . 
:IG-CDISC_SDTMIGDA_STUDYID_VR bo:enabled "true"^^xsd:boolean . 
:IG-CDISC_SDTMIGDA_STUDYID_VR bo:optional "false"^^xsd:boolean . 
:IG-CDISC_SDTMIGDA_STUDYID_VR bo:ordinal "1"^^xsd:positiveInteger . 
:IG-CDISC_SDTMIGDA_STUDYID bd:compliance <http://www.assero.co.uk/MDRModels/CDISC/V2#IG-CDISC_SDTMIG_C_REQUIRED> . 
:IG-CDISC_SDTMIGDA bd:includesColumn :IG-CDISC_SDTMIGDA_STUDYID . 
:IG-CDISC_SDTMIGDA_DOMAIN rdf:type bd:IgVariable . 
:IG-CDISC_SDTMIGDA_DOMAIN rdfs:label "Domain Abbreviation"^^xsd:string . 
:IG-CDISC_SDTMIGDA_DOMAIN bd:ordinal "2"^^xsd:positiveInteger . 
:IG-CDISC_SDTMIGDA_DOMAIN bd:controlled_term_or_format ""^^xsd:string . 
:IG-CDISC_SDTMIGDA_DOMAIN bd:notes "Two-character abbreviation for the domain."^^xsd:string . 
:IG-CDISC_SDTMIGDA_DOMAIN bd:name "DOMAIN"^^xsd:string . 
:IG-CDISC_SDTMIGDA_DOMAIN bd:basedOnVariable :IG-CDISC_SDTMIGDA_DOMAIN_VR . 
:IG-CDISC_SDTMIGDA_DOMAIN_VR rdf:type bo:CReference . 
:IG-CDISC_SDTMIGDA_DOMAIN_VR bo:hasColumn <http://www.assero.co.uk/MDRModels/CDISC/V1#M-CDISC_SDTMMODEL_FINDINGS_DOMAIN> . 
:IG-CDISC_SDTMIGDA_DOMAIN_VR bo:enabled "true"^^xsd:boolean . 
:IG-CDISC_SDTMIGDA_DOMAIN_VR bo:optional "false"^^xsd:boolean . 
:IG-CDISC_SDTMIGDA_DOMAIN_VR bo:ordinal "1"^^xsd:positiveInteger . 
:IG-CDISC_SDTMIGDA_DOMAIN bd:compliance <http://www.assero.co.uk/MDRModels/CDISC/V2#IG-CDISC_SDTMIG_C_REQUIRED> . 
:IG-CDISC_SDTMIGDA bd:includesColumn :IG-CDISC_SDTMIGDA_DOMAIN . 
:IG-CDISC_SDTMIGDA_USUBJID rdf:type bd:IgVariable . 
:IG-CDISC_SDTMIGDA_USUBJID rdfs:label "Unique Subject Identifier"^^xsd:string . 
:IG-CDISC_SDTMIGDA_USUBJID bd:ordinal "3"^^xsd:positiveInteger . 
:IG-CDISC_SDTMIGDA_USUBJID bd:controlled_term_or_format ""^^xsd:string . 
:IG-CDISC_SDTMIGDA_USUBJID bd:notes "Identifier used to uniquely identify a subject across all studies for all applications or submissions involving the product."^^xsd:string . 
:IG-CDISC_SDTMIGDA_USUBJID bd:name "USUBJID"^^xsd:string . 
:IG-CDISC_SDTMIGDA_USUBJID bd:basedOnVariable :IG-CDISC_SDTMIGDA_USUBJID_VR . 
:IG-CDISC_SDTMIGDA_USUBJID_VR rdf:type bo:CReference . 
:IG-CDISC_SDTMIGDA_USUBJID_VR bo:hasColumn <http://www.assero.co.uk/MDRModels/CDISC/V1#M-CDISC_SDTMMODEL_FINDINGS_USUBJID> . 
:IG-CDISC_SDTMIGDA_USUBJID_VR bo:enabled "true"^^xsd:boolean . 
:IG-CDISC_SDTMIGDA_USUBJID_VR bo:optional "false"^^xsd:boolean . 
:IG-CDISC_SDTMIGDA_USUBJID_VR bo:ordinal "1"^^xsd:positiveInteger . 
:IG-CDISC_SDTMIGDA_USUBJID bd:compliance <http://www.assero.co.uk/MDRModels/CDISC/V2#IG-CDISC_SDTMIG_C_REQUIRED> . 
:IG-CDISC_SDTMIGDA bd:includesColumn :IG-CDISC_SDTMIGDA_USUBJID . 
:IG-CDISC_SDTMIGDA_DASEQ rdf:type bd:IgVariable . 
:IG-CDISC_SDTMIGDA_DASEQ rdfs:label "Sequence Number"^^xsd:string . 
:IG-CDISC_SDTMIGDA_DASEQ bd:ordinal "4"^^xsd:positiveInteger . 
:IG-CDISC_SDTMIGDA_DASEQ bd:controlled_term_or_format ""^^xsd:string . 
:IG-CDISC_SDTMIGDA_DASEQ bd:notes "Sequence Number given to ensure uniqueness of subject records within a domain. May be any valid number."^^xsd:string . 
:IG-CDISC_SDTMIGDA_DASEQ bd:name "DASEQ"^^xsd:string . 
:IG-CDISC_SDTMIGDA_DASEQ bd:basedOnVariable :IG-CDISC_SDTMIGDA_DASEQ_VR . 
:IG-CDISC_SDTMIGDA_DASEQ_VR rdf:type bo:CReference . 
:IG-CDISC_SDTMIGDA_DASEQ_VR bo:hasColumn <http://www.assero.co.uk/MDRModels/CDISC/V1#M-CDISC_SDTMMODEL_FINDINGS_xxSEQ> . 
:IG-CDISC_SDTMIGDA_DASEQ_VR bo:enabled "true"^^xsd:boolean . 
:IG-CDISC_SDTMIGDA_DASEQ_VR bo:optional "false"^^xsd:boolean . 
:IG-CDISC_SDTMIGDA_DASEQ_VR bo:ordinal "1"^^xsd:positiveInteger . 
:IG-CDISC_SDTMIGDA_DASEQ bd:compliance <http://www.assero.co.uk/MDRModels/CDISC/V2#IG-CDISC_SDTMIG_C_REQUIRED> . 
:IG-CDISC_SDTMIGDA bd:includesColumn :IG-CDISC_SDTMIGDA_DASEQ . 
:IG-CDISC_SDTMIGDA_DAGRPID rdf:type bd:IgVariable . 
:IG-CDISC_SDTMIGDA_DAGRPID rdfs:label "Group ID"^^xsd:string . 
:IG-CDISC_SDTMIGDA_DAGRPID bd:ordinal "5"^^xsd:positiveInteger . 
:IG-CDISC_SDTMIGDA_DAGRPID bd:controlled_term_or_format ""^^xsd:string . 
:IG-CDISC_SDTMIGDA_DAGRPID bd:notes "Used to tie together a block of related records in a single domain for a subject."^^xsd:string . 
:IG-CDISC_SDTMIGDA_DAGRPID bd:name "DAGRPID"^^xsd:string . 
:IG-CDISC_SDTMIGDA_DAGRPID bd:basedOnVariable :IG-CDISC_SDTMIGDA_DAGRPID_VR . 
:IG-CDISC_SDTMIGDA_DAGRPID_VR rdf:type bo:CReference . 
:IG-CDISC_SDTMIGDA_DAGRPID_VR bo:hasColumn <http://www.assero.co.uk/MDRModels/CDISC/V1#M-CDISC_SDTMMODEL_FINDINGS_xxGRPID> . 
:IG-CDISC_SDTMIGDA_DAGRPID_VR bo:enabled "true"^^xsd:boolean . 
:IG-CDISC_SDTMIGDA_DAGRPID_VR bo:optional "false"^^xsd:boolean . 
:IG-CDISC_SDTMIGDA_DAGRPID_VR bo:ordinal "1"^^xsd:positiveInteger . 
:IG-CDISC_SDTMIGDA_DAGRPID bd:compliance <http://www.assero.co.uk/MDRModels/CDISC/V2#IG-CDISC_SDTMIG_C_PERMISSIBLE> . 
:IG-CDISC_SDTMIGDA bd:includesColumn :IG-CDISC_SDTMIGDA_DAGRPID . 
:IG-CDISC_SDTMIGDA_DAREFID rdf:type bd:IgVariable . 
:IG-CDISC_SDTMIGDA_DAREFID rdfs:label "Reference ID"^^xsd:string . 
:IG-CDISC_SDTMIGDA_DAREFID bd:ordinal "6"^^xsd:positiveInteger . 
:IG-CDISC_SDTMIGDA_DAREFID bd:controlled_term_or_format ""^^xsd:string . 
:IG-CDISC_SDTMIGDA_DAREFID bd:notes "Internal or external identifier such as label number."^^xsd:string . 
:IG-CDISC_SDTMIGDA_DAREFID bd:name "DAREFID"^^xsd:string . 
:IG-CDISC_SDTMIGDA_DAREFID bd:basedOnVariable :IG-CDISC_SDTMIGDA_DAREFID_VR . 
:IG-CDISC_SDTMIGDA_DAREFID_VR rdf:type bo:CReference . 
:IG-CDISC_SDTMIGDA_DAREFID_VR bo:hasColumn <http://www.assero.co.uk/MDRModels/CDISC/V1#M-CDISC_SDTMMODEL_FINDINGS_xxREFID> . 
:IG-CDISC_SDTMIGDA_DAREFID_VR bo:enabled "true"^^xsd:boolean . 
:IG-CDISC_SDTMIGDA_DAREFID_VR bo:optional "false"^^xsd:boolean . 
:IG-CDISC_SDTMIGDA_DAREFID_VR bo:ordinal "1"^^xsd:positiveInteger . 
:IG-CDISC_SDTMIGDA_DAREFID bd:compliance <http://www.assero.co.uk/MDRModels/CDISC/V2#IG-CDISC_SDTMIG_C_PERMISSIBLE> . 
:IG-CDISC_SDTMIGDA bd:includesColumn :IG-CDISC_SDTMIGDA_DAREFID . 
:IG-CDISC_SDTMIGDA_DASPID rdf:type bd:IgVariable . 
:IG-CDISC_SDTMIGDA_DASPID rdfs:label "Sponsor-Defined Identifier"^^xsd:string . 
:IG-CDISC_SDTMIGDA_DASPID bd:ordinal "7"^^xsd:positiveInteger . 
:IG-CDISC_SDTMIGDA_DASPID bd:controlled_term_or_format ""^^xsd:string . 
:IG-CDISC_SDTMIGDA_DASPID bd:notes "Sponsor-defined reference number. Perhaps pre-printed on the CRF as an explicit line identifier or defined in the sponsor's operational database. Examples: Line number on the Drug Accountability page, drug label code."^^xsd:string . 
:IG-CDISC_SDTMIGDA_DASPID bd:name "DASPID"^^xsd:string . 
:IG-CDISC_SDTMIGDA_DASPID bd:basedOnVariable :IG-CDISC_SDTMIGDA_DASPID_VR . 
:IG-CDISC_SDTMIGDA_DASPID_VR rdf:type bo:CReference . 
:IG-CDISC_SDTMIGDA_DASPID_VR bo:hasColumn <http://www.assero.co.uk/MDRModels/CDISC/V1#M-CDISC_SDTMMODEL_FINDINGS_xxSPID> . 
:IG-CDISC_SDTMIGDA_DASPID_VR bo:enabled "true"^^xsd:boolean . 
:IG-CDISC_SDTMIGDA_DASPID_VR bo:optional "false"^^xsd:boolean . 
:IG-CDISC_SDTMIGDA_DASPID_VR bo:ordinal "1"^^xsd:positiveInteger . 
:IG-CDISC_SDTMIGDA_DASPID bd:compliance <http://www.assero.co.uk/MDRModels/CDISC/V2#IG-CDISC_SDTMIG_C_PERMISSIBLE> . 
:IG-CDISC_SDTMIGDA bd:includesColumn :IG-CDISC_SDTMIGDA_DASPID . 
:IG-CDISC_SDTMIGDA_DATESTCD rdf:type bd:IgVariable . 
:IG-CDISC_SDTMIGDA_DATESTCD rdfs:label "Short Name of Accountability Assessment"^^xsd:string . 
:IG-CDISC_SDTMIGDA_DATESTCD bd:ordinal "8"^^xsd:positiveInteger . 
:IG-CDISC_SDTMIGDA_DATESTCD bd:controlled_term_or_format ""^^xsd:string . 
:IG-CDISC_SDTMIGDA_DATESTCD bd:notes "Short character value for DATEST used as a column name when converting a dataset from a vertical format to a horizontal format. The short value can be up to 8 characters and cannot begin with a number or contain characters other than letters, numbers or underscores. Example: DISPAMT, RETAMT."^^xsd:string . 
:IG-CDISC_SDTMIGDA_DATESTCD bd:name "DATESTCD"^^xsd:string . 
:IG-CDISC_SDTMIGDA_DATESTCD bd:basedOnVariable :IG-CDISC_SDTMIGDA_DATESTCD_VR . 
:IG-CDISC_SDTMIGDA_DATESTCD_VR rdf:type bo:CReference . 
:IG-CDISC_SDTMIGDA_DATESTCD_VR bo:hasColumn <http://www.assero.co.uk/MDRModels/CDISC/V1#M-CDISC_SDTMMODEL_FINDINGS_xxTESTCD> . 
:IG-CDISC_SDTMIGDA_DATESTCD_VR bo:enabled "true"^^xsd:boolean . 
:IG-CDISC_SDTMIGDA_DATESTCD_VR bo:optional "false"^^xsd:boolean . 
:IG-CDISC_SDTMIGDA_DATESTCD_VR bo:ordinal "1"^^xsd:positiveInteger . 
:IG-CDISC_SDTMIGDA_DATESTCD bd:compliance <http://www.assero.co.uk/MDRModels/CDISC/V2#IG-CDISC_SDTMIG_C_REQUIRED> . 
:IG-CDISC_SDTMIGDA bd:includesColumn :IG-CDISC_SDTMIGDA_DATESTCD . 
:IG-CDISC_SDTMIGDA_DATEST rdf:type bd:IgVariable . 
:IG-CDISC_SDTMIGDA_DATEST rdfs:label "Name of Accountability Assessment"^^xsd:string . 
:IG-CDISC_SDTMIGDA_DATEST bd:ordinal "9"^^xsd:positiveInteger . 
:IG-CDISC_SDTMIGDA_DATEST bd:controlled_term_or_format ""^^xsd:string . 
:IG-CDISC_SDTMIGDA_DATEST bd:notes "Verbatim name, corresponding to the topic variable, of the test or examination used to obtain the drug accountability assessment. The value in DATEST cannot be longer than 40 characters. Example: Dispensed Amount, Returned Amount."^^xsd:string . 
:IG-CDISC_SDTMIGDA_DATEST bd:name "DATEST"^^xsd:string . 
:IG-CDISC_SDTMIGDA_DATEST bd:basedOnVariable :IG-CDISC_SDTMIGDA_DATEST_VR . 
:IG-CDISC_SDTMIGDA_DATEST_VR rdf:type bo:CReference . 
:IG-CDISC_SDTMIGDA_DATEST_VR bo:hasColumn <http://www.assero.co.uk/MDRModels/CDISC/V1#M-CDISC_SDTMMODEL_FINDINGS_xxTEST> . 
:IG-CDISC_SDTMIGDA_DATEST_VR bo:enabled "true"^^xsd:boolean . 
:IG-CDISC_SDTMIGDA_DATEST_VR bo:optional "false"^^xsd:boolean . 
:IG-CDISC_SDTMIGDA_DATEST_VR bo:ordinal "1"^^xsd:positiveInteger . 
:IG-CDISC_SDTMIGDA_DATEST bd:compliance <http://www.assero.co.uk/MDRModels/CDISC/V2#IG-CDISC_SDTMIG_C_REQUIRED> . 
:IG-CDISC_SDTMIGDA bd:includesColumn :IG-CDISC_SDTMIGDA_DATEST . 
:IG-CDISC_SDTMIGDA_DACAT rdf:type bd:IgVariable . 
:IG-CDISC_SDTMIGDA_DACAT rdfs:label "Category of Assessment"^^xsd:string . 
:IG-CDISC_SDTMIGDA_DACAT bd:ordinal "10"^^xsd:positiveInteger . 
:IG-CDISC_SDTMIGDA_DACAT bd:controlled_term_or_format ""^^xsd:string . 
:IG-CDISC_SDTMIGDA_DACAT bd:notes "Used to define a category of related records. Examples: STUDY MEDICATION, RESCUE MEDICATION."^^xsd:string . 
:IG-CDISC_SDTMIGDA_DACAT bd:name "DACAT"^^xsd:string . 
:IG-CDISC_SDTMIGDA_DACAT bd:basedOnVariable :IG-CDISC_SDTMIGDA_DACAT_VR . 
:IG-CDISC_SDTMIGDA_DACAT_VR rdf:type bo:CReference . 
:IG-CDISC_SDTMIGDA_DACAT_VR bo:hasColumn <http://www.assero.co.uk/MDRModels/CDISC/V1#M-CDISC_SDTMMODEL_FINDINGS_xxCAT> . 
:IG-CDISC_SDTMIGDA_DACAT_VR bo:enabled "true"^^xsd:boolean . 
:IG-CDISC_SDTMIGDA_DACAT_VR bo:optional "false"^^xsd:boolean . 
:IG-CDISC_SDTMIGDA_DACAT_VR bo:ordinal "1"^^xsd:positiveInteger . 
:IG-CDISC_SDTMIGDA_DACAT bd:compliance <http://www.assero.co.uk/MDRModels/CDISC/V2#IG-CDISC_SDTMIG_C_PERMISSIBLE> . 
:IG-CDISC_SDTMIGDA bd:includesColumn :IG-CDISC_SDTMIGDA_DACAT . 
:IG-CDISC_SDTMIGDA_DASCAT rdf:type bd:IgVariable . 
:IG-CDISC_SDTMIGDA_DASCAT rdfs:label "Subcategory of Assessment"^^xsd:string . 
:IG-CDISC_SDTMIGDA_DASCAT bd:ordinal "11"^^xsd:positiveInteger . 
:IG-CDISC_SDTMIGDA_DASCAT bd:controlled_term_or_format ""^^xsd:string . 
:IG-CDISC_SDTMIGDA_DASCAT bd:notes "Used to define a further categorization level for a group of related records."^^xsd:string . 
:IG-CDISC_SDTMIGDA_DASCAT bd:name "DASCAT"^^xsd:string . 
:IG-CDISC_SDTMIGDA_DASCAT bd:basedOnVariable :IG-CDISC_SDTMIGDA_DASCAT_VR . 
:IG-CDISC_SDTMIGDA_DASCAT_VR rdf:type bo:CReference . 
:IG-CDISC_SDTMIGDA_DASCAT_VR bo:hasColumn <http://www.assero.co.uk/MDRModels/CDISC/V1#M-CDISC_SDTMMODEL_FINDINGS_xxSCAT> . 
:IG-CDISC_SDTMIGDA_DASCAT_VR bo:enabled "true"^^xsd:boolean . 
:IG-CDISC_SDTMIGDA_DASCAT_VR bo:optional "false"^^xsd:boolean . 
:IG-CDISC_SDTMIGDA_DASCAT_VR bo:ordinal "1"^^xsd:positiveInteger . 
:IG-CDISC_SDTMIGDA_DASCAT bd:compliance <http://www.assero.co.uk/MDRModels/CDISC/V2#IG-CDISC_SDTMIG_C_PERMISSIBLE> . 
:IG-CDISC_SDTMIGDA bd:includesColumn :IG-CDISC_SDTMIGDA_DASCAT . 
:IG-CDISC_SDTMIGDA_DAORRES rdf:type bd:IgVariable . 
:IG-CDISC_SDTMIGDA_DAORRES rdfs:label "Assessment Result in Original Units"^^xsd:string . 
:IG-CDISC_SDTMIGDA_DAORRES bd:ordinal "12"^^xsd:positiveInteger . 
:IG-CDISC_SDTMIGDA_DAORRES bd:controlled_term_or_format ""^^xsd:string . 
:IG-CDISC_SDTMIGDA_DAORRES bd:notes "Result of the Drug Accountability assessment as originally received or collected."^^xsd:string . 
:IG-CDISC_SDTMIGDA_DAORRES bd:name "DAORRES"^^xsd:string . 
:IG-CDISC_SDTMIGDA_DAORRES bd:basedOnVariable :IG-CDISC_SDTMIGDA_DAORRES_VR . 
:IG-CDISC_SDTMIGDA_DAORRES_VR rdf:type bo:CReference . 
:IG-CDISC_SDTMIGDA_DAORRES_VR bo:hasColumn <http://www.assero.co.uk/MDRModels/CDISC/V1#M-CDISC_SDTMMODEL_FINDINGS_xxORRES> . 
:IG-CDISC_SDTMIGDA_DAORRES_VR bo:enabled "true"^^xsd:boolean . 
:IG-CDISC_SDTMIGDA_DAORRES_VR bo:optional "false"^^xsd:boolean . 
:IG-CDISC_SDTMIGDA_DAORRES_VR bo:ordinal "1"^^xsd:positiveInteger . 
:IG-CDISC_SDTMIGDA_DAORRES bd:compliance <http://www.assero.co.uk/MDRModels/CDISC/V2#IG-CDISC_SDTMIG_C_EXPECTED> . 
:IG-CDISC_SDTMIGDA bd:includesColumn :IG-CDISC_SDTMIGDA_DAORRES . 
:IG-CDISC_SDTMIGDA_DAORRESU rdf:type bd:IgVariable . 
:IG-CDISC_SDTMIGDA_DAORRESU rdfs:label "Original Units"^^xsd:string . 
:IG-CDISC_SDTMIGDA_DAORRESU bd:ordinal "13"^^xsd:positiveInteger . 
:IG-CDISC_SDTMIGDA_DAORRESU bd:controlled_term_or_format "UNIT"^^xsd:string . 
:IG-CDISC_SDTMIGDA_DAORRESU bd:notes "Unit for DAORRES."^^xsd:string . 
:IG-CDISC_SDTMIGDA_DAORRESU bd:name "DAORRESU"^^xsd:string . 
:IG-CDISC_SDTMIGDA_DAORRESU bd:basedOnVariable :IG-CDISC_SDTMIGDA_DAORRESU_VR . 
:IG-CDISC_SDTMIGDA_DAORRESU_VR rdf:type bo:CReference . 
:IG-CDISC_SDTMIGDA_DAORRESU_VR bo:hasColumn <http://www.assero.co.uk/MDRModels/CDISC/V1#M-CDISC_SDTMMODEL_FINDINGS_xxORRESU> . 
:IG-CDISC_SDTMIGDA_DAORRESU_VR bo:enabled "true"^^xsd:boolean . 
:IG-CDISC_SDTMIGDA_DAORRESU_VR bo:optional "false"^^xsd:boolean . 
:IG-CDISC_SDTMIGDA_DAORRESU_VR bo:ordinal "1"^^xsd:positiveInteger . 
:IG-CDISC_SDTMIGDA_DAORRESU bd:compliance <http://www.assero.co.uk/MDRModels/CDISC/V2#IG-CDISC_SDTMIG_C_PERMISSIBLE> . 
:IG-CDISC_SDTMIGDA bd:includesColumn :IG-CDISC_SDTMIGDA_DAORRESU . 
:IG-CDISC_SDTMIGDA_DASTRESC rdf:type bd:IgVariable . 
:IG-CDISC_SDTMIGDA_DASTRESC rdfs:label "Assessment Result in Std Format"^^xsd:string . 
:IG-CDISC_SDTMIGDA_DASTRESC bd:ordinal "14"^^xsd:positiveInteger . 
:IG-CDISC_SDTMIGDA_DASTRESC bd:controlled_term_or_format ""^^xsd:string . 
:IG-CDISC_SDTMIGDA_DASTRESC bd:notes "Contains the result value for all Drug Accountability assessments, copied or derived from DAORRES in a standard format or in standard units. DASTRESC should store all results or findings in character format; if results are numeric, they should also be stored in numeric format in DASTRESN."^^xsd:string . 
:IG-CDISC_SDTMIGDA_DASTRESC bd:name "DASTRESC"^^xsd:string . 
:IG-CDISC_SDTMIGDA_DASTRESC bd:basedOnVariable :IG-CDISC_SDTMIGDA_DASTRESC_VR . 
:IG-CDISC_SDTMIGDA_DASTRESC_VR rdf:type bo:CReference . 
:IG-CDISC_SDTMIGDA_DASTRESC_VR bo:hasColumn <http://www.assero.co.uk/MDRModels/CDISC/V1#M-CDISC_SDTMMODEL_FINDINGS_xxSTRESC> . 
:IG-CDISC_SDTMIGDA_DASTRESC_VR bo:enabled "true"^^xsd:boolean . 
:IG-CDISC_SDTMIGDA_DASTRESC_VR bo:optional "false"^^xsd:boolean . 
:IG-CDISC_SDTMIGDA_DASTRESC_VR bo:ordinal "1"^^xsd:positiveInteger . 
:IG-CDISC_SDTMIGDA_DASTRESC bd:compliance <http://www.assero.co.uk/MDRModels/CDISC/V2#IG-CDISC_SDTMIG_C_EXPECTED> . 
:IG-CDISC_SDTMIGDA bd:includesColumn :IG-CDISC_SDTMIGDA_DASTRESC . 
:IG-CDISC_SDTMIGDA_DASTRESN rdf:type bd:IgVariable . 
:IG-CDISC_SDTMIGDA_DASTRESN rdfs:label "Numeric Result/Finding in Standard Units"^^xsd:string . 
:IG-CDISC_SDTMIGDA_DASTRESN bd:ordinal "15"^^xsd:positiveInteger . 
:IG-CDISC_SDTMIGDA_DASTRESN bd:controlled_term_or_format ""^^xsd:string . 
:IG-CDISC_SDTMIGDA_DASTRESN bd:notes "Used for continuous or numeric results or findings in standard format; copied in numeric format from DASTRESC. DASTRESN should store all numeric test results or findings."^^xsd:string . 
:IG-CDISC_SDTMIGDA_DASTRESN bd:name "DASTRESN"^^xsd:string . 
:IG-CDISC_SDTMIGDA_DASTRESN bd:basedOnVariable :IG-CDISC_SDTMIGDA_DASTRESN_VR . 
:IG-CDISC_SDTMIGDA_DASTRESN_VR rdf:type bo:CReference . 
:IG-CDISC_SDTMIGDA_DASTRESN_VR bo:hasColumn <http://www.assero.co.uk/MDRModels/CDISC/V1#M-CDISC_SDTMMODEL_FINDINGS_xxSTRESN> . 
:IG-CDISC_SDTMIGDA_DASTRESN_VR bo:enabled "true"^^xsd:boolean . 
:IG-CDISC_SDTMIGDA_DASTRESN_VR bo:optional "false"^^xsd:boolean . 
:IG-CDISC_SDTMIGDA_DASTRESN_VR bo:ordinal "1"^^xsd:positiveInteger . 
:IG-CDISC_SDTMIGDA_DASTRESN bd:compliance <http://www.assero.co.uk/MDRModels/CDISC/V2#IG-CDISC_SDTMIG_C_PERMISSIBLE> . 
:IG-CDISC_SDTMIGDA bd:includesColumn :IG-CDISC_SDTMIGDA_DASTRESN . 
:IG-CDISC_SDTMIGDA_DASTRESU rdf:type bd:IgVariable . 
:IG-CDISC_SDTMIGDA_DASTRESU rdfs:label "Assessment Standard Units"^^xsd:string . 
:IG-CDISC_SDTMIGDA_DASTRESU bd:ordinal "16"^^xsd:positiveInteger . 
:IG-CDISC_SDTMIGDA_DASTRESU bd:controlled_term_or_format "UNIT"^^xsd:string . 
:IG-CDISC_SDTMIGDA_DASTRESU bd:notes "Standardized units used for DASTRESC and DASTRESN."^^xsd:string . 
:IG-CDISC_SDTMIGDA_DASTRESU bd:name "DASTRESU"^^xsd:string . 
:IG-CDISC_SDTMIGDA_DASTRESU bd:basedOnVariable :IG-CDISC_SDTMIGDA_DASTRESU_VR . 
:IG-CDISC_SDTMIGDA_DASTRESU_VR rdf:type bo:CReference . 
:IG-CDISC_SDTMIGDA_DASTRESU_VR bo:hasColumn <http://www.assero.co.uk/MDRModels/CDISC/V1#M-CDISC_SDTMMODEL_FINDINGS_xxSTRESU> . 
:IG-CDISC_SDTMIGDA_DASTRESU_VR bo:enabled "true"^^xsd:boolean . 
:IG-CDISC_SDTMIGDA_DASTRESU_VR bo:optional "false"^^xsd:boolean . 
:IG-CDISC_SDTMIGDA_DASTRESU_VR bo:ordinal "1"^^xsd:positiveInteger . 
:IG-CDISC_SDTMIGDA_DASTRESU bd:compliance <http://www.assero.co.uk/MDRModels/CDISC/V2#IG-CDISC_SDTMIG_C_PERMISSIBLE> . 
:IG-CDISC_SDTMIGDA bd:includesColumn :IG-CDISC_SDTMIGDA_DASTRESU . 
:IG-CDISC_SDTMIGDA_DASTAT rdf:type bd:IgVariable . 
:IG-CDISC_SDTMIGDA_DASTAT rdfs:label "Completion Status"^^xsd:string . 
:IG-CDISC_SDTMIGDA_DASTAT bd:ordinal "17"^^xsd:positiveInteger . 
:IG-CDISC_SDTMIGDA_DASTAT bd:controlled_term_or_format "ND"^^xsd:string . 
:IG-CDISC_SDTMIGDA_DASTAT bd:notes "Used to indicate that a drug accountability assessment was not done. Should be null or have a value of NOT DONE."^^xsd:string . 
:IG-CDISC_SDTMIGDA_DASTAT bd:name "DASTAT"^^xsd:string . 
:IG-CDISC_SDTMIGDA_DASTAT bd:basedOnVariable :IG-CDISC_SDTMIGDA_DASTAT_VR . 
:IG-CDISC_SDTMIGDA_DASTAT_VR rdf:type bo:CReference . 
:IG-CDISC_SDTMIGDA_DASTAT_VR bo:hasColumn <http://www.assero.co.uk/MDRModels/CDISC/V1#M-CDISC_SDTMMODEL_FINDINGS_xxSTAT> . 
:IG-CDISC_SDTMIGDA_DASTAT_VR bo:enabled "true"^^xsd:boolean . 
:IG-CDISC_SDTMIGDA_DASTAT_VR bo:optional "false"^^xsd:boolean . 
:IG-CDISC_SDTMIGDA_DASTAT_VR bo:ordinal "1"^^xsd:positiveInteger . 
:IG-CDISC_SDTMIGDA_DASTAT bd:compliance <http://www.assero.co.uk/MDRModels/CDISC/V2#IG-CDISC_SDTMIG_C_PERMISSIBLE> . 
:IG-CDISC_SDTMIGDA bd:includesColumn :IG-CDISC_SDTMIGDA_DASTAT . 
:IG-CDISC_SDTMIGDA_DAREASND rdf:type bd:IgVariable . 
:IG-CDISC_SDTMIGDA_DAREASND rdfs:label "Reason Not Performed"^^xsd:string . 
:IG-CDISC_SDTMIGDA_DAREASND bd:ordinal "18"^^xsd:positiveInteger . 
:IG-CDISC_SDTMIGDA_DAREASND bd:controlled_term_or_format ""^^xsd:string . 
:IG-CDISC_SDTMIGDA_DAREASND bd:notes "Reason not done. Used in conjunction with DASTAT when value is NOT DONE."^^xsd:string . 
:IG-CDISC_SDTMIGDA_DAREASND bd:name "DAREASND"^^xsd:string . 
:IG-CDISC_SDTMIGDA_DAREASND bd:basedOnVariable :IG-CDISC_SDTMIGDA_DAREASND_VR . 
:IG-CDISC_SDTMIGDA_DAREASND_VR rdf:type bo:CReference . 
:IG-CDISC_SDTMIGDA_DAREASND_VR bo:hasColumn <http://www.assero.co.uk/MDRModels/CDISC/V1#M-CDISC_SDTMMODEL_FINDINGS_xxREASND> . 
:IG-CDISC_SDTMIGDA_DAREASND_VR bo:enabled "true"^^xsd:boolean . 
:IG-CDISC_SDTMIGDA_DAREASND_VR bo:optional "false"^^xsd:boolean . 
:IG-CDISC_SDTMIGDA_DAREASND_VR bo:ordinal "1"^^xsd:positiveInteger . 
:IG-CDISC_SDTMIGDA_DAREASND bd:compliance <http://www.assero.co.uk/MDRModels/CDISC/V2#IG-CDISC_SDTMIG_C_PERMISSIBLE> . 
:IG-CDISC_SDTMIGDA bd:includesColumn :IG-CDISC_SDTMIGDA_DAREASND . 
:IG-CDISC_SDTMIGDA_VISITNUM rdf:type bd:IgVariable . 
:IG-CDISC_SDTMIGDA_VISITNUM rdfs:label "Visit Number"^^xsd:string . 
:IG-CDISC_SDTMIGDA_VISITNUM bd:ordinal "19"^^xsd:positiveInteger . 
:IG-CDISC_SDTMIGDA_VISITNUM bd:controlled_term_or_format ""^^xsd:string . 
:IG-CDISC_SDTMIGDA_VISITNUM bd:notes "Clinical encounter number. Numeric version of VISIT, used for sorting."^^xsd:string . 
:IG-CDISC_SDTMIGDA_VISITNUM bd:name "VISITNUM"^^xsd:string . 
:IG-CDISC_SDTMIGDA_VISITNUM bd:basedOnVariable :IG-CDISC_SDTMIGDA_VISITNUM_VR . 
:IG-CDISC_SDTMIGDA_VISITNUM_VR rdf:type bo:CReference . 
:IG-CDISC_SDTMIGDA_VISITNUM_VR bo:hasColumn <http://www.assero.co.uk/MDRModels/CDISC/V1#M-CDISC_SDTMMODEL_FINDINGS_VISITNUM> . 
:IG-CDISC_SDTMIGDA_VISITNUM_VR bo:enabled "true"^^xsd:boolean . 
:IG-CDISC_SDTMIGDA_VISITNUM_VR bo:optional "false"^^xsd:boolean . 
:IG-CDISC_SDTMIGDA_VISITNUM_VR bo:ordinal "1"^^xsd:positiveInteger . 
:IG-CDISC_SDTMIGDA_VISITNUM bd:compliance <http://www.assero.co.uk/MDRModels/CDISC/V2#IG-CDISC_SDTMIG_C_EXPECTED> . 
:IG-CDISC_SDTMIGDA bd:includesColumn :IG-CDISC_SDTMIGDA_VISITNUM . 
:IG-CDISC_SDTMIGDA_VISIT rdf:type bd:IgVariable . 
:IG-CDISC_SDTMIGDA_VISIT rdfs:label "Visit Name"^^xsd:string . 
:IG-CDISC_SDTMIGDA_VISIT bd:ordinal "20"^^xsd:positiveInteger . 
:IG-CDISC_SDTMIGDA_VISIT bd:controlled_term_or_format ""^^xsd:string . 
:IG-CDISC_SDTMIGDA_VISIT bd:notes "1. Protocol-defined description of clinical encounter. 2. May be used in addition to VISITNUM and/or VISITDY."^^xsd:string . 
:IG-CDISC_SDTMIGDA_VISIT bd:name "VISIT"^^xsd:string . 
:IG-CDISC_SDTMIGDA_VISIT bd:basedOnVariable :IG-CDISC_SDTMIGDA_VISIT_VR . 
:IG-CDISC_SDTMIGDA_VISIT_VR rdf:type bo:CReference . 
:IG-CDISC_SDTMIGDA_VISIT_VR bo:hasColumn <http://www.assero.co.uk/MDRModels/CDISC/V1#M-CDISC_SDTMMODEL_FINDINGS_VISIT> . 
:IG-CDISC_SDTMIGDA_VISIT_VR bo:enabled "true"^^xsd:boolean . 
:IG-CDISC_SDTMIGDA_VISIT_VR bo:optional "false"^^xsd:boolean . 
:IG-CDISC_SDTMIGDA_VISIT_VR bo:ordinal "1"^^xsd:positiveInteger . 
:IG-CDISC_SDTMIGDA_VISIT bd:compliance <http://www.assero.co.uk/MDRModels/CDISC/V2#IG-CDISC_SDTMIG_C_PERMISSIBLE> . 
:IG-CDISC_SDTMIGDA bd:includesColumn :IG-CDISC_SDTMIGDA_VISIT . 
:IG-CDISC_SDTMIGDA_VISITDY rdf:type bd:IgVariable . 
:IG-CDISC_SDTMIGDA_VISITDY rdfs:label "Planned Study Day of Visit"^^xsd:string . 
:IG-CDISC_SDTMIGDA_VISITDY bd:ordinal "21"^^xsd:positiveInteger . 
:IG-CDISC_SDTMIGDA_VISITDY bd:controlled_term_or_format ""^^xsd:string . 
:IG-CDISC_SDTMIGDA_VISITDY bd:notes "Planned study day of the visit based upon RFSTDTC in Demographics."^^xsd:string . 
:IG-CDISC_SDTMIGDA_VISITDY bd:name "VISITDY"^^xsd:string . 
:IG-CDISC_SDTMIGDA_VISITDY bd:basedOnVariable :IG-CDISC_SDTMIGDA_VISITDY_VR . 
:IG-CDISC_SDTMIGDA_VISITDY_VR rdf:type bo:CReference . 
:IG-CDISC_SDTMIGDA_VISITDY_VR bo:hasColumn <http://www.assero.co.uk/MDRModels/CDISC/V1#M-CDISC_SDTMMODEL_FINDINGS_VISITDY> . 
:IG-CDISC_SDTMIGDA_VISITDY_VR bo:enabled "true"^^xsd:boolean . 
:IG-CDISC_SDTMIGDA_VISITDY_VR bo:optional "false"^^xsd:boolean . 
:IG-CDISC_SDTMIGDA_VISITDY_VR bo:ordinal "1"^^xsd:positiveInteger . 
:IG-CDISC_SDTMIGDA_VISITDY bd:compliance <http://www.assero.co.uk/MDRModels/CDISC/V2#IG-CDISC_SDTMIG_C_PERMISSIBLE> . 
:IG-CDISC_SDTMIGDA bd:includesColumn :IG-CDISC_SDTMIGDA_VISITDY . 
:IG-CDISC_SDTMIGDA_DADTC rdf:type bd:IgVariable . 
:IG-CDISC_SDTMIGDA_DADTC rdfs:label "Date/Time of Accountability Assessment"^^xsd:string . 
:IG-CDISC_SDTMIGDA_DADTC bd:ordinal "22"^^xsd:positiveInteger . 
:IG-CDISC_SDTMIGDA_DADTC bd:controlled_term_or_format "ISO 8601"^^xsd:string . 
:IG-CDISC_SDTMIGDA_DADTC bd:notes ""^^xsd:string . 
:IG-CDISC_SDTMIGDA_DADTC bd:name "DADTC"^^xsd:string . 
:IG-CDISC_SDTMIGDA_DADTC bd:basedOnVariable :IG-CDISC_SDTMIGDA_DADTC_VR . 
:IG-CDISC_SDTMIGDA_DADTC_VR rdf:type bo:CReference . 
:IG-CDISC_SDTMIGDA_DADTC_VR bo:hasColumn <http://www.assero.co.uk/MDRModels/CDISC/V1#M-CDISC_SDTMMODEL_FINDINGS_xxDTC> . 
:IG-CDISC_SDTMIGDA_DADTC_VR bo:enabled "true"^^xsd:boolean . 
:IG-CDISC_SDTMIGDA_DADTC_VR bo:optional "false"^^xsd:boolean . 
:IG-CDISC_SDTMIGDA_DADTC_VR bo:ordinal "1"^^xsd:positiveInteger . 
:IG-CDISC_SDTMIGDA_DADTC bd:compliance <http://www.assero.co.uk/MDRModels/CDISC/V2#IG-CDISC_SDTMIG_C_EXPECTED> . 
:IG-CDISC_SDTMIGDA bd:includesColumn :IG-CDISC_SDTMIGDA_DADTC . 
:IG-CDISC_SDTMIGDA_DADY rdf:type bd:IgVariable . 
:IG-CDISC_SDTMIGDA_DADY rdfs:label "Study Day of Accountability Assessment"^^xsd:string . 
:IG-CDISC_SDTMIGDA_DADY bd:ordinal "23"^^xsd:positiveInteger . 
:IG-CDISC_SDTMIGDA_DADY bd:controlled_term_or_format ""^^xsd:string . 
:IG-CDISC_SDTMIGDA_DADY bd:notes "1. Study day of drug accountability assessment, measured as integer days. 2. Algorithm for calculations must be relative to the sponsor-defined RFSTDTC variable in Demographics."^^xsd:string . 
:IG-CDISC_SDTMIGDA_DADY bd:name "DADY"^^xsd:string . 
:IG-CDISC_SDTMIGDA_DADY bd:basedOnVariable :IG-CDISC_SDTMIGDA_DADY_VR . 
:IG-CDISC_SDTMIGDA_DADY_VR rdf:type bo:CReference . 
:IG-CDISC_SDTMIGDA_DADY_VR bo:hasColumn <http://www.assero.co.uk/MDRModels/CDISC/V1#M-CDISC_SDTMMODEL_FINDINGS_xxDY> . 
:IG-CDISC_SDTMIGDA_DADY_VR bo:enabled "true"^^xsd:boolean . 
:IG-CDISC_SDTMIGDA_DADY_VR bo:optional "false"^^xsd:boolean . 
:IG-CDISC_SDTMIGDA_DADY_VR bo:ordinal "1"^^xsd:positiveInteger . 
:IG-CDISC_SDTMIGDA_DADY bd:compliance <http://www.assero.co.uk/MDRModels/CDISC/V2#IG-CDISC_SDTMIG_C_PERMISSIBLE> . 
:IG-CDISC_SDTMIGDA bd:includesColumn :IG-CDISC_SDTMIGDA_DADY . 
:IG-CDISC_SDTMIG bd:includesTabulation :IG-CDISC_SDTMIG_TR5 . 
:IG-CDISC_SDTMIG_TR5 rdf:type bo:TReference . 
:IG-CDISC_SDTMIG_TR5 bo:hasTabulation <http://www.assero.co.uk/MDRModels/CDISC/V2#IG-CDISC_SDTMIGDA> . 
:IG-CDISC_SDTMIG_TR5 bo:enabled "true"^^xsd:boolean . 
:IG-CDISC_SDTMIG_TR5 bo:optional "false"^^xsd:boolean . 
:IG-CDISC_SDTMIG_TR5 bo:ordinal "5"^^xsd:positiveInteger . 
mdrItems:SI-CDISC_SDTMIGDM-2 rdf:type isoI:ScopedIdentifier . 
mdrItems:SI-CDISC_SDTMIGDM-2 isoI:identifier "SDTM IG DM"^^xsd:string . 
mdrItems:SI-CDISC_SDTMIGDM-2 isoI:version "2"^^xsd:positiveInteger . 
mdrItems:SI-CDISC_SDTMIGDM-2 isoI:versionLabel "3.1.2"^^xsd:string . 
mdrItems:SI-CDISC_SDTMIGDM-2 isoI:hasScope mdrItems:NS-CDISC . 
mdrItems:RS-CDISC_SDTMIGDM-2 rdf:type isoR:RegistrationState . 
mdrItems:RS-CDISC_SDTMIGDM-2 isoR:byAuthority mdrItems:RA-084433759 . 
mdrItems:RS-CDISC_SDTMIGDM-2 isoR:registrationStatus "Standard"^^xsd:string . 
mdrItems:RS-CDISC_SDTMIGDM-2 isoR:administrativeNote ""^^xsd:string . 
mdrItems:RS-CDISC_SDTMIGDM-2 isoR:effectiveDate "2016-01-01T00:00:00Z"^^xsd:dateTime . 
mdrItems:RS-CDISC_SDTMIGDM-2 isoR:untilDate "2016-01-01T00:00:00Z"^^xsd:dateTime . 
mdrItems:RS-CDISC_SDTMIGDM-2 isoR:unresolvedIssue ""^^xsd:string . 
mdrItems:RS-CDISC_SDTMIGDM-2 isoR:administrativeStatus ""^^xsd:string . 
mdrItems:RS-CDISC_SDTMIGDM-2 isoR:previousState "Standard"^^xsd:string . 
:IG-CDISC_SDTMIGDM rdf:type bd:IGDomain . 
:IG-CDISC_SDTMIGDM isoI:hasIdentifier mdrItems:SI-CDISC_SDTMIGDM-2 . 
:IG-CDISC_SDTMIGDM isoR:hasState mdrItems:RS-CDISC_SDTMIGDM-2 . 
:IG-CDISC_SDTMIGDM rdfs:label "Demographics"^^xsd:string . 
:IG-CDISC_SDTMIGDM isoT:creationDate "2016-07-15"^^xsd:string . 
:IG-CDISC_SDTMIGDM isoT:lastChangeDate "2016-07-15T08:12:50+01:00"^^xsd:string . 
:IG-CDISC_SDTMIGDM isoT:changeDescription ""^^xsd:string . 
:IG-CDISC_SDTMIGDM isoT:explanatoryComment ""^^xsd:string . 
:IG-CDISC_SDTMIGDM isoT:origin ""^^xsd:string . 
:IG-CDISC_SDTMIGDM bd:prefix ""^^xsd:string . 
:IG-CDISC_SDTMIGDM bd:structure ""^^xsd:string . 
:IG-CDISC_SDTMIGDM_STUDYID rdf:type bd:IgVariable . 
:IG-CDISC_SDTMIGDM_STUDYID rdfs:label "Study Identifier"^^xsd:string . 
:IG-CDISC_SDTMIGDM_STUDYID bd:ordinal "1"^^xsd:positiveInteger . 
:IG-CDISC_SDTMIGDM_STUDYID bd:controlled_term_or_format ""^^xsd:string . 
:IG-CDISC_SDTMIGDM_STUDYID bd:notes "Unique identifier for a study."^^xsd:string . 
:IG-CDISC_SDTMIGDM_STUDYID bd:name "STUDYID"^^xsd:string . 
:IG-CDISC_SDTMIGDM_STUDYID bd:compliance <http://www.assero.co.uk/MDRModels/CDISC/V2#IG-CDISC_SDTMIG_C_REQUIRED> . 
:IG-CDISC_SDTMIGDM bd:includesColumn :IG-CDISC_SDTMIGDM_STUDYID . 
:IG-CDISC_SDTMIGDM_DOMAIN rdf:type bd:IgVariable . 
:IG-CDISC_SDTMIGDM_DOMAIN rdfs:label "Domain Abbreviation"^^xsd:string . 
:IG-CDISC_SDTMIGDM_DOMAIN bd:ordinal "2"^^xsd:positiveInteger . 
:IG-CDISC_SDTMIGDM_DOMAIN bd:controlled_term_or_format ""^^xsd:string . 
:IG-CDISC_SDTMIGDM_DOMAIN bd:notes "Two-character abbreviation for the domain."^^xsd:string . 
:IG-CDISC_SDTMIGDM_DOMAIN bd:name "DOMAIN"^^xsd:string . 
:IG-CDISC_SDTMIGDM_DOMAIN bd:compliance <http://www.assero.co.uk/MDRModels/CDISC/V2#IG-CDISC_SDTMIG_C_REQUIRED> . 
:IG-CDISC_SDTMIGDM bd:includesColumn :IG-CDISC_SDTMIGDM_DOMAIN . 
:IG-CDISC_SDTMIGDM_USUBJID rdf:type bd:IgVariable . 
:IG-CDISC_SDTMIGDM_USUBJID rdfs:label "Unique Subject Identifier"^^xsd:string . 
:IG-CDISC_SDTMIGDM_USUBJID bd:ordinal "3"^^xsd:positiveInteger . 
:IG-CDISC_SDTMIGDM_USUBJID bd:controlled_term_or_format ""^^xsd:string . 
:IG-CDISC_SDTMIGDM_USUBJID bd:notes "Identifier used to uniquely identify a subject across all studies for all applications or submissions involving the product."^^xsd:string . 
:IG-CDISC_SDTMIGDM_USUBJID bd:name "USUBJID"^^xsd:string . 
:IG-CDISC_SDTMIGDM_USUBJID bd:compliance <http://www.assero.co.uk/MDRModels/CDISC/V2#IG-CDISC_SDTMIG_C_REQUIRED> . 
:IG-CDISC_SDTMIGDM bd:includesColumn :IG-CDISC_SDTMIGDM_USUBJID . 
:IG-CDISC_SDTMIGDM_SUBJID rdf:type bd:IgVariable . 
:IG-CDISC_SDTMIGDM_SUBJID rdfs:label "Subject Identifier for the Study"^^xsd:string . 
:IG-CDISC_SDTMIGDM_SUBJID bd:ordinal "4"^^xsd:positiveInteger . 
:IG-CDISC_SDTMIGDM_SUBJID bd:controlled_term_or_format ""^^xsd:string . 
:IG-CDISC_SDTMIGDM_SUBJID bd:notes "Subject identifier, which must be unique within the study. Often the ID of the subject as recorded on a CRF."^^xsd:string . 
:IG-CDISC_SDTMIGDM_SUBJID bd:name "SUBJID"^^xsd:string . 
:IG-CDISC_SDTMIGDM_SUBJID bd:compliance <http://www.assero.co.uk/MDRModels/CDISC/V2#IG-CDISC_SDTMIG_C_REQUIRED> . 
:IG-CDISC_SDTMIGDM bd:includesColumn :IG-CDISC_SDTMIGDM_SUBJID . 
:IG-CDISC_SDTMIGDM_RFSTDTC rdf:type bd:IgVariable . 
:IG-CDISC_SDTMIGDM_RFSTDTC rdfs:label "Subject Reference Start Date/Time"^^xsd:string . 
:IG-CDISC_SDTMIGDM_RFSTDTC bd:ordinal "5"^^xsd:positiveInteger . 
:IG-CDISC_SDTMIGDM_RFSTDTC bd:controlled_term_or_format "ISO 8601"^^xsd:string . 
:IG-CDISC_SDTMIGDM_RFSTDTC bd:notes "Reference Start Date/time for the subject in ISO 8601 character format. Usually equivalent to date/time when subject was first exposed to study treatment. Required for all randomized subjects; will be null for all subjects who did not meet the milestone the date requires, such as screen failures or unassigned subjects."^^xsd:string . 
:IG-CDISC_SDTMIGDM_RFSTDTC bd:name "RFSTDTC"^^xsd:string . 
:IG-CDISC_SDTMIGDM_RFSTDTC bd:compliance <http://www.assero.co.uk/MDRModels/CDISC/V2#IG-CDISC_SDTMIG_C_EXPECTED> . 
:IG-CDISC_SDTMIGDM bd:includesColumn :IG-CDISC_SDTMIGDM_RFSTDTC . 
:IG-CDISC_SDTMIGDM_RFENDTC rdf:type bd:IgVariable . 
:IG-CDISC_SDTMIGDM_RFENDTC rdfs:label "Subject Reference End Date/Time"^^xsd:string . 
:IG-CDISC_SDTMIGDM_RFENDTC bd:ordinal "6"^^xsd:positiveInteger . 
:IG-CDISC_SDTMIGDM_RFENDTC bd:controlled_term_or_format "ISO 8601"^^xsd:string . 
:IG-CDISC_SDTMIGDM_RFENDTC bd:notes "Reference End Date/time for the subject in ISO 8601 character format. Usually equivalent to the date/time when subject was determined to have ended the trial, and often equivalent to date/time of last exposure to study treatment. Required for all randomized subjects; null for screen failures or unassigned subjects."^^xsd:string . 
:IG-CDISC_SDTMIGDM_RFENDTC bd:name "RFENDTC"^^xsd:string . 
:IG-CDISC_SDTMIGDM_RFENDTC bd:compliance <http://www.assero.co.uk/MDRModels/CDISC/V2#IG-CDISC_SDTMIG_C_EXPECTED> . 
:IG-CDISC_SDTMIGDM bd:includesColumn :IG-CDISC_SDTMIGDM_RFENDTC . 
:IG-CDISC_SDTMIGDM_SITEID rdf:type bd:IgVariable . 
:IG-CDISC_SDTMIGDM_SITEID rdfs:label "Study Site Identifier"^^xsd:string . 
:IG-CDISC_SDTMIGDM_SITEID bd:ordinal "7"^^xsd:positiveInteger . 
:IG-CDISC_SDTMIGDM_SITEID bd:controlled_term_or_format ""^^xsd:string . 
:IG-CDISC_SDTMIGDM_SITEID bd:notes "Unique identifier for a site within a study."^^xsd:string . 
:IG-CDISC_SDTMIGDM_SITEID bd:name "SITEID"^^xsd:string . 
:IG-CDISC_SDTMIGDM_SITEID bd:compliance <http://www.assero.co.uk/MDRModels/CDISC/V2#IG-CDISC_SDTMIG_C_REQUIRED> . 
:IG-CDISC_SDTMIGDM bd:includesColumn :IG-CDISC_SDTMIGDM_SITEID . 
:IG-CDISC_SDTMIGDM_INVID rdf:type bd:IgVariable . 
:IG-CDISC_SDTMIGDM_INVID rdfs:label "Investigator Identifier"^^xsd:string . 
:IG-CDISC_SDTMIGDM_INVID bd:ordinal "8"^^xsd:positiveInteger . 
:IG-CDISC_SDTMIGDM_INVID bd:controlled_term_or_format ""^^xsd:string . 
:IG-CDISC_SDTMIGDM_INVID bd:notes "An identifier to describe the Investigator for the study. May be used in addition to SITEID. Not needed if SITEID is equivalent to INVID."^^xsd:string . 
:IG-CDISC_SDTMIGDM_INVID bd:name "INVID"^^xsd:string . 
:IG-CDISC_SDTMIGDM_INVID bd:compliance <http://www.assero.co.uk/MDRModels/CDISC/V2#IG-CDISC_SDTMIG_C_PERMISSIBLE> . 
:IG-CDISC_SDTMIGDM bd:includesColumn :IG-CDISC_SDTMIGDM_INVID . 
:IG-CDISC_SDTMIGDM_INVNAM rdf:type bd:IgVariable . 
:IG-CDISC_SDTMIGDM_INVNAM rdfs:label "Investigator Name"^^xsd:string . 
:IG-CDISC_SDTMIGDM_INVNAM bd:ordinal "9"^^xsd:positiveInteger . 
:IG-CDISC_SDTMIGDM_INVNAM bd:controlled_term_or_format ""^^xsd:string . 
:IG-CDISC_SDTMIGDM_INVNAM bd:notes "Name of the investigator for a site."^^xsd:string . 
:IG-CDISC_SDTMIGDM_INVNAM bd:name "INVNAM"^^xsd:string . 
:IG-CDISC_SDTMIGDM_INVNAM bd:compliance <http://www.assero.co.uk/MDRModels/CDISC/V2#IG-CDISC_SDTMIG_C_PERMISSIBLE> . 
:IG-CDISC_SDTMIGDM bd:includesColumn :IG-CDISC_SDTMIGDM_INVNAM . 
:IG-CDISC_SDTMIGDM_BRTHDTC rdf:type bd:IgVariable . 
:IG-CDISC_SDTMIGDM_BRTHDTC rdfs:label "Date/Time of Birth"^^xsd:string . 
:IG-CDISC_SDTMIGDM_BRTHDTC bd:ordinal "10"^^xsd:positiveInteger . 
:IG-CDISC_SDTMIGDM_BRTHDTC bd:controlled_term_or_format "ISO 8601"^^xsd:string . 
:IG-CDISC_SDTMIGDM_BRTHDTC bd:notes "Date/time of birth of the subject."^^xsd:string . 
:IG-CDISC_SDTMIGDM_BRTHDTC bd:name "BRTHDTC"^^xsd:string . 
:IG-CDISC_SDTMIGDM_BRTHDTC bd:compliance <http://www.assero.co.uk/MDRModels/CDISC/V2#IG-CDISC_SDTMIG_C_PERMISSIBLE> . 
:IG-CDISC_SDTMIGDM bd:includesColumn :IG-CDISC_SDTMIGDM_BRTHDTC . 
:IG-CDISC_SDTMIGDM_AGE rdf:type bd:IgVariable . 
:IG-CDISC_SDTMIGDM_AGE rdfs:label "Age"^^xsd:string . 
:IG-CDISC_SDTMIGDM_AGE bd:ordinal "11"^^xsd:positiveInteger . 
:IG-CDISC_SDTMIGDM_AGE bd:controlled_term_or_format ""^^xsd:string . 
:IG-CDISC_SDTMIGDM_AGE bd:notes "Age expressed in AGEU. May be derived from RFSTDTC and BRTHDTC, but BRTHDTC may not be available in all cases (due to subject privacy concerns)."^^xsd:string . 
:IG-CDISC_SDTMIGDM_AGE bd:name "AGE"^^xsd:string . 
:IG-CDISC_SDTMIGDM_AGE bd:compliance <http://www.assero.co.uk/MDRModels/CDISC/V2#IG-CDISC_SDTMIG_C_EXPECTED> . 
:IG-CDISC_SDTMIGDM bd:includesColumn :IG-CDISC_SDTMIGDM_AGE . 
:IG-CDISC_SDTMIGDM_AGEU rdf:type bd:IgVariable . 
:IG-CDISC_SDTMIGDM_AGEU rdfs:label "Age Units"^^xsd:string . 
:IG-CDISC_SDTMIGDM_AGEU bd:ordinal "12"^^xsd:positiveInteger . 
:IG-CDISC_SDTMIGDM_AGEU bd:controlled_term_or_format "AGEU"^^xsd:string . 
:IG-CDISC_SDTMIGDM_AGEU bd:notes "Units associated with AGE."^^xsd:string . 
:IG-CDISC_SDTMIGDM_AGEU bd:name "AGEU"^^xsd:string . 
:IG-CDISC_SDTMIGDM_AGEU bd:compliance <http://www.assero.co.uk/MDRModels/CDISC/V2#IG-CDISC_SDTMIG_C_EXPECTED> . 
:IG-CDISC_SDTMIGDM bd:includesColumn :IG-CDISC_SDTMIGDM_AGEU . 
:IG-CDISC_SDTMIGDM_SEX rdf:type bd:IgVariable . 
:IG-CDISC_SDTMIGDM_SEX rdfs:label "Sex"^^xsd:string . 
:IG-CDISC_SDTMIGDM_SEX bd:ordinal "13"^^xsd:positiveInteger . 
:IG-CDISC_SDTMIGDM_SEX bd:controlled_term_or_format "SEX"^^xsd:string . 
:IG-CDISC_SDTMIGDM_SEX bd:notes "Sex of the subject."^^xsd:string . 
:IG-CDISC_SDTMIGDM_SEX bd:name "SEX"^^xsd:string . 
:IG-CDISC_SDTMIGDM_SEX bd:compliance <http://www.assero.co.uk/MDRModels/CDISC/V2#IG-CDISC_SDTMIG_C_REQUIRED> . 
:IG-CDISC_SDTMIGDM bd:includesColumn :IG-CDISC_SDTMIGDM_SEX . 
:IG-CDISC_SDTMIGDM_RACE rdf:type bd:IgVariable . 
:IG-CDISC_SDTMIGDM_RACE rdfs:label "Race"^^xsd:string . 
:IG-CDISC_SDTMIGDM_RACE bd:ordinal "14"^^xsd:positiveInteger . 
:IG-CDISC_SDTMIGDM_RACE bd:controlled_term_or_format "RACE"^^xsd:string . 
:IG-CDISC_SDTMIGDM_RACE bd:notes "Race of the subject. Sponsors should refer to 'Collection of Race and Ethnicity Data in Clinical Trials' (FDA, September 2005) for guidance regarding the collection of race (http://www.fda.gov/cder/guidance/5656fnl.htm) See Assumption below regarding RACE."^^xsd:string . 
:IG-CDISC_SDTMIGDM_RACE bd:name "RACE"^^xsd:string . 
:IG-CDISC_SDTMIGDM_RACE bd:compliance <http://www.assero.co.uk/MDRModels/CDISC/V2#IG-CDISC_SDTMIG_C_EXPECTED> . 
:IG-CDISC_SDTMIGDM bd:includesColumn :IG-CDISC_SDTMIGDM_RACE . 
:IG-CDISC_SDTMIGDM_ETHNIC rdf:type bd:IgVariable . 
:IG-CDISC_SDTMIGDM_ETHNIC rdfs:label "Ethnicity"^^xsd:string . 
:IG-CDISC_SDTMIGDM_ETHNIC bd:ordinal "15"^^xsd:positiveInteger . 
:IG-CDISC_SDTMIGDM_ETHNIC bd:controlled_term_or_format "ETHNIC"^^xsd:string . 
:IG-CDISC_SDTMIGDM_ETHNIC bd:notes "The ethnicity of the subject. Sponsors should refer to 'Collection of Race and Ethnicity Data in Clinical Trials' (FDA, September 2005) for guidance regarding the collection of ethnicity (http://www.fda.gov/cder/guidance/5656fnl.htm)."^^xsd:string . 
:IG-CDISC_SDTMIGDM_ETHNIC bd:name "ETHNIC"^^xsd:string . 
:IG-CDISC_SDTMIGDM_ETHNIC bd:compliance <http://www.assero.co.uk/MDRModels/CDISC/V2#IG-CDISC_SDTMIG_C_PERMISSIBLE> . 
:IG-CDISC_SDTMIGDM bd:includesColumn :IG-CDISC_SDTMIGDM_ETHNIC . 
:IG-CDISC_SDTMIGDM_ARMCD rdf:type bd:IgVariable . 
:IG-CDISC_SDTMIGDM_ARMCD rdfs:label "Planned Arm Code"^^xsd:string . 
:IG-CDISC_SDTMIGDM_ARMCD bd:ordinal "16"^^xsd:positiveInteger . 
:IG-CDISC_SDTMIGDM_ARMCD bd:controlled_term_or_format ""^^xsd:string . 
:IG-CDISC_SDTMIGDM_ARMCD bd:notes "1.ARMCD is limited to 20 characters and does not have special character restrictions. The maximum length of ARMCD is longer than for other 'short' variables to accommodate the kind of values that are likely to be needed for crossover trials. For example, if ARMCD values for a seven-period crossover were constructed using two-character abbreviations for each treatment and separating hyphens, the length of ARMCD values would be 20. 2. If the timing of Visits for a trial does not depend on which ARM a subject is in, then ARMCD should be null."^^xsd:string . 
:IG-CDISC_SDTMIGDM_ARMCD bd:name "ARMCD"^^xsd:string . 
:IG-CDISC_SDTMIGDM_ARMCD bd:compliance <http://www.assero.co.uk/MDRModels/CDISC/V2#IG-CDISC_SDTMIG_C_REQUIRED> . 
:IG-CDISC_SDTMIGDM bd:includesColumn :IG-CDISC_SDTMIGDM_ARMCD . 
:IG-CDISC_SDTMIGDM_ARM rdf:type bd:IgVariable . 
:IG-CDISC_SDTMIGDM_ARM rdfs:label "Description of Planned Arm"^^xsd:string . 
:IG-CDISC_SDTMIGDM_ARM bd:ordinal "17"^^xsd:positiveInteger . 
:IG-CDISC_SDTMIGDM_ARM bd:controlled_term_or_format ""^^xsd:string . 
:IG-CDISC_SDTMIGDM_ARM bd:notes "Name given to an Arm or treatment group."^^xsd:string . 
:IG-CDISC_SDTMIGDM_ARM bd:name "ARM"^^xsd:string . 
:IG-CDISC_SDTMIGDM_ARM bd:compliance <http://www.assero.co.uk/MDRModels/CDISC/V2#IG-CDISC_SDTMIG_C_REQUIRED> . 
:IG-CDISC_SDTMIGDM bd:includesColumn :IG-CDISC_SDTMIGDM_ARM . 
:IG-CDISC_SDTMIGDM_COUNTRY rdf:type bd:IgVariable . 
:IG-CDISC_SDTMIGDM_COUNTRY rdfs:label "Country"^^xsd:string . 
:IG-CDISC_SDTMIGDM_COUNTRY bd:ordinal "18"^^xsd:positiveInteger . 
:IG-CDISC_SDTMIGDM_COUNTRY bd:controlled_term_or_format "COUNTRY"^^xsd:string . 
:IG-CDISC_SDTMIGDM_COUNTRY bd:notes "Country of the investigational site in which the subject participated in the trial."^^xsd:string . 
:IG-CDISC_SDTMIGDM_COUNTRY bd:name "COUNTRY"^^xsd:string . 
:IG-CDISC_SDTMIGDM_COUNTRY bd:compliance <http://www.assero.co.uk/MDRModels/CDISC/V2#IG-CDISC_SDTMIG_C_REQUIRED> . 
:IG-CDISC_SDTMIGDM bd:includesColumn :IG-CDISC_SDTMIGDM_COUNTRY . 
:IG-CDISC_SDTMIGDM_DMDTC rdf:type bd:IgVariable . 
:IG-CDISC_SDTMIGDM_DMDTC rdfs:label "Date/Time of Collection"^^xsd:string . 
:IG-CDISC_SDTMIGDM_DMDTC bd:ordinal "19"^^xsd:positiveInteger . 
:IG-CDISC_SDTMIGDM_DMDTC bd:controlled_term_or_format "ISO 8601"^^xsd:string . 
:IG-CDISC_SDTMIGDM_DMDTC bd:notes "Date/time of demographic data collection."^^xsd:string . 
:IG-CDISC_SDTMIGDM_DMDTC bd:name "DMDTC"^^xsd:string . 
:IG-CDISC_SDTMIGDM_DMDTC bd:compliance <http://www.assero.co.uk/MDRModels/CDISC/V2#IG-CDISC_SDTMIG_C_PERMISSIBLE> . 
:IG-CDISC_SDTMIGDM bd:includesColumn :IG-CDISC_SDTMIGDM_DMDTC . 
:IG-CDISC_SDTMIGDM_DMDY rdf:type bd:IgVariable . 
:IG-CDISC_SDTMIGDM_DMDY rdfs:label "Study Day of Collection"^^xsd:string . 
:IG-CDISC_SDTMIGDM_DMDY bd:ordinal "20"^^xsd:positiveInteger . 
:IG-CDISC_SDTMIGDM_DMDY bd:controlled_term_or_format ""^^xsd:string . 
:IG-CDISC_SDTMIGDM_DMDY bd:notes "Study day of collection measured as integer days."^^xsd:string . 
:IG-CDISC_SDTMIGDM_DMDY bd:name "DMDY"^^xsd:string . 
:IG-CDISC_SDTMIGDM_DMDY bd:compliance <http://www.assero.co.uk/MDRModels/CDISC/V2#IG-CDISC_SDTMIG_C_PERMISSIBLE> . 
:IG-CDISC_SDTMIGDM bd:includesColumn :IG-CDISC_SDTMIGDM_DMDY . 
:IG-CDISC_SDTMIG bd:includesTabulation :IG-CDISC_SDTMIG_TR6 . 
:IG-CDISC_SDTMIG_TR6 rdf:type bo:TReference . 
:IG-CDISC_SDTMIG_TR6 bo:hasTabulation <http://www.assero.co.uk/MDRModels/CDISC/V2#IG-CDISC_SDTMIGDM> . 
:IG-CDISC_SDTMIG_TR6 bo:enabled "true"^^xsd:boolean . 
:IG-CDISC_SDTMIG_TR6 bo:optional "false"^^xsd:boolean . 
:IG-CDISC_SDTMIG_TR6 bo:ordinal "6"^^xsd:positiveInteger . 
mdrItems:SI-CDISC_SDTMIGDS-2 rdf:type isoI:ScopedIdentifier . 
mdrItems:SI-CDISC_SDTMIGDS-2 isoI:identifier "SDTM IG DS"^^xsd:string . 
mdrItems:SI-CDISC_SDTMIGDS-2 isoI:version "2"^^xsd:positiveInteger . 
mdrItems:SI-CDISC_SDTMIGDS-2 isoI:versionLabel "3.1.2"^^xsd:string . 
mdrItems:SI-CDISC_SDTMIGDS-2 isoI:hasScope mdrItems:NS-CDISC . 
mdrItems:RS-CDISC_SDTMIGDS-2 rdf:type isoR:RegistrationState . 
mdrItems:RS-CDISC_SDTMIGDS-2 isoR:byAuthority mdrItems:RA-084433759 . 
mdrItems:RS-CDISC_SDTMIGDS-2 isoR:registrationStatus "Standard"^^xsd:string . 
mdrItems:RS-CDISC_SDTMIGDS-2 isoR:administrativeNote ""^^xsd:string . 
mdrItems:RS-CDISC_SDTMIGDS-2 isoR:effectiveDate "2016-01-01T00:00:00Z"^^xsd:dateTime . 
mdrItems:RS-CDISC_SDTMIGDS-2 isoR:untilDate "2016-01-01T00:00:00Z"^^xsd:dateTime . 
mdrItems:RS-CDISC_SDTMIGDS-2 isoR:unresolvedIssue ""^^xsd:string . 
mdrItems:RS-CDISC_SDTMIGDS-2 isoR:administrativeStatus ""^^xsd:string . 
mdrItems:RS-CDISC_SDTMIGDS-2 isoR:previousState "Standard"^^xsd:string . 
:IG-CDISC_SDTMIGDS rdf:type bd:IGDomain . 
:IG-CDISC_SDTMIGDS isoI:hasIdentifier mdrItems:SI-CDISC_SDTMIGDS-2 . 
:IG-CDISC_SDTMIGDS isoR:hasState mdrItems:RS-CDISC_SDTMIGDS-2 . 
:IG-CDISC_SDTMIGDS rdfs:label "Disposition"^^xsd:string . 
:IG-CDISC_SDTMIGDS isoT:creationDate "2016-07-15"^^xsd:string . 
:IG-CDISC_SDTMIGDS isoT:lastChangeDate "2016-07-15T08:12:50+01:00"^^xsd:string . 
:IG-CDISC_SDTMIGDS isoT:changeDescription ""^^xsd:string . 
:IG-CDISC_SDTMIGDS isoT:explanatoryComment ""^^xsd:string . 
:IG-CDISC_SDTMIGDS isoT:origin ""^^xsd:string . 
:IG-CDISC_SDTMIGDS bd:prefix ""^^xsd:string . 
:IG-CDISC_SDTMIGDS bd:structure ""^^xsd:string . 
:IG-CDISC_SDTMIGDS bd:basedOnDomain :IG-CDISC_SDTMIGDS_CLR . 
:IG-CDISC_SDTMIGDS_CLR rdf:type bo:TReference . 
:IG-CDISC_SDTMIGDS_CLR bo:hasTabulation <http://www.assero.co.uk/MDRModels/CDISC/V1#M-CDISC_SDTMMODEL_EVENTS> . 
:IG-CDISC_SDTMIGDS_CLR bo:enabled "true"^^xsd:boolean . 
:IG-CDISC_SDTMIGDS_CLR bo:optional "false"^^xsd:boolean . 
:IG-CDISC_SDTMIGDS_CLR bo:ordinal "1"^^xsd:positiveInteger . 
:IG-CDISC_SDTMIGDS_STUDYID rdf:type bd:IgVariable . 
:IG-CDISC_SDTMIGDS_STUDYID rdfs:label "Study Identifier"^^xsd:string . 
:IG-CDISC_SDTMIGDS_STUDYID bd:ordinal "1"^^xsd:positiveInteger . 
:IG-CDISC_SDTMIGDS_STUDYID bd:controlled_term_or_format ""^^xsd:string . 
:IG-CDISC_SDTMIGDS_STUDYID bd:notes "Unique identifier for a study."^^xsd:string . 
:IG-CDISC_SDTMIGDS_STUDYID bd:name "STUDYID"^^xsd:string . 
:IG-CDISC_SDTMIGDS_STUDYID bd:basedOnVariable :IG-CDISC_SDTMIGDS_STUDYID_VR . 
:IG-CDISC_SDTMIGDS_STUDYID_VR rdf:type bo:CReference . 
:IG-CDISC_SDTMIGDS_STUDYID_VR bo:hasColumn <http://www.assero.co.uk/MDRModels/CDISC/V1#M-CDISC_SDTMMODEL_EVENTS_STUDYID> . 
:IG-CDISC_SDTMIGDS_STUDYID_VR bo:enabled "true"^^xsd:boolean . 
:IG-CDISC_SDTMIGDS_STUDYID_VR bo:optional "false"^^xsd:boolean . 
:IG-CDISC_SDTMIGDS_STUDYID_VR bo:ordinal "1"^^xsd:positiveInteger . 
:IG-CDISC_SDTMIGDS_STUDYID bd:compliance <http://www.assero.co.uk/MDRModels/CDISC/V2#IG-CDISC_SDTMIG_C_REQUIRED> . 
:IG-CDISC_SDTMIGDS bd:includesColumn :IG-CDISC_SDTMIGDS_STUDYID . 
:IG-CDISC_SDTMIGDS_DOMAIN rdf:type bd:IgVariable . 
:IG-CDISC_SDTMIGDS_DOMAIN rdfs:label "Domain Abbreviation"^^xsd:string . 
:IG-CDISC_SDTMIGDS_DOMAIN bd:ordinal "2"^^xsd:positiveInteger . 
:IG-CDISC_SDTMIGDS_DOMAIN bd:controlled_term_or_format ""^^xsd:string . 
:IG-CDISC_SDTMIGDS_DOMAIN bd:notes "Two-character abbreviation for the domain."^^xsd:string . 
:IG-CDISC_SDTMIGDS_DOMAIN bd:name "DOMAIN"^^xsd:string . 
:IG-CDISC_SDTMIGDS_DOMAIN bd:basedOnVariable :IG-CDISC_SDTMIGDS_DOMAIN_VR . 
:IG-CDISC_SDTMIGDS_DOMAIN_VR rdf:type bo:CReference . 
:IG-CDISC_SDTMIGDS_DOMAIN_VR bo:hasColumn <http://www.assero.co.uk/MDRModels/CDISC/V1#M-CDISC_SDTMMODEL_EVENTS_DOMAIN> . 
:IG-CDISC_SDTMIGDS_DOMAIN_VR bo:enabled "true"^^xsd:boolean . 
:IG-CDISC_SDTMIGDS_DOMAIN_VR bo:optional "false"^^xsd:boolean . 
:IG-CDISC_SDTMIGDS_DOMAIN_VR bo:ordinal "1"^^xsd:positiveInteger . 
:IG-CDISC_SDTMIGDS_DOMAIN bd:compliance <http://www.assero.co.uk/MDRModels/CDISC/V2#IG-CDISC_SDTMIG_C_REQUIRED> . 
:IG-CDISC_SDTMIGDS bd:includesColumn :IG-CDISC_SDTMIGDS_DOMAIN . 
:IG-CDISC_SDTMIGDS_USUBJID rdf:type bd:IgVariable . 
:IG-CDISC_SDTMIGDS_USUBJID rdfs:label "Unique Subject Identifier"^^xsd:string . 
:IG-CDISC_SDTMIGDS_USUBJID bd:ordinal "3"^^xsd:positiveInteger . 
:IG-CDISC_SDTMIGDS_USUBJID bd:controlled_term_or_format ""^^xsd:string . 
:IG-CDISC_SDTMIGDS_USUBJID bd:notes "Identifier used to uniquely identify a subject across all studies for all applications or submissions involving the product."^^xsd:string . 
:IG-CDISC_SDTMIGDS_USUBJID bd:name "USUBJID"^^xsd:string . 
:IG-CDISC_SDTMIGDS_USUBJID bd:basedOnVariable :IG-CDISC_SDTMIGDS_USUBJID_VR . 
:IG-CDISC_SDTMIGDS_USUBJID_VR rdf:type bo:CReference . 
:IG-CDISC_SDTMIGDS_USUBJID_VR bo:hasColumn <http://www.assero.co.uk/MDRModels/CDISC/V1#M-CDISC_SDTMMODEL_EVENTS_USUBJID> . 
:IG-CDISC_SDTMIGDS_USUBJID_VR bo:enabled "true"^^xsd:boolean . 
:IG-CDISC_SDTMIGDS_USUBJID_VR bo:optional "false"^^xsd:boolean . 
:IG-CDISC_SDTMIGDS_USUBJID_VR bo:ordinal "1"^^xsd:positiveInteger . 
:IG-CDISC_SDTMIGDS_USUBJID bd:compliance <http://www.assero.co.uk/MDRModels/CDISC/V2#IG-CDISC_SDTMIG_C_REQUIRED> . 
:IG-CDISC_SDTMIGDS bd:includesColumn :IG-CDISC_SDTMIGDS_USUBJID . 
:IG-CDISC_SDTMIGDS_DSSEQ rdf:type bd:IgVariable . 
:IG-CDISC_SDTMIGDS_DSSEQ rdfs:label "Sequence Number"^^xsd:string . 
:IG-CDISC_SDTMIGDS_DSSEQ bd:ordinal "4"^^xsd:positiveInteger . 
:IG-CDISC_SDTMIGDS_DSSEQ bd:controlled_term_or_format ""^^xsd:string . 
:IG-CDISC_SDTMIGDS_DSSEQ bd:notes "Sequence Number given to ensure uniqueness of subject records within a domain. May be any valid number."^^xsd:string . 
:IG-CDISC_SDTMIGDS_DSSEQ bd:name "DSSEQ"^^xsd:string . 
:IG-CDISC_SDTMIGDS_DSSEQ bd:basedOnVariable :IG-CDISC_SDTMIGDS_DSSEQ_VR . 
:IG-CDISC_SDTMIGDS_DSSEQ_VR rdf:type bo:CReference . 
:IG-CDISC_SDTMIGDS_DSSEQ_VR bo:hasColumn <http://www.assero.co.uk/MDRModels/CDISC/V1#M-CDISC_SDTMMODEL_EVENTS_xxSEQ> . 
:IG-CDISC_SDTMIGDS_DSSEQ_VR bo:enabled "true"^^xsd:boolean . 
:IG-CDISC_SDTMIGDS_DSSEQ_VR bo:optional "false"^^xsd:boolean . 
:IG-CDISC_SDTMIGDS_DSSEQ_VR bo:ordinal "1"^^xsd:positiveInteger . 
:IG-CDISC_SDTMIGDS_DSSEQ bd:compliance <http://www.assero.co.uk/MDRModels/CDISC/V2#IG-CDISC_SDTMIG_C_REQUIRED> . 
:IG-CDISC_SDTMIGDS bd:includesColumn :IG-CDISC_SDTMIGDS_DSSEQ . 
:IG-CDISC_SDTMIGDS_DSGRPID rdf:type bd:IgVariable . 
:IG-CDISC_SDTMIGDS_DSGRPID rdfs:label "Group ID"^^xsd:string . 
:IG-CDISC_SDTMIGDS_DSGRPID bd:ordinal "5"^^xsd:positiveInteger . 
:IG-CDISC_SDTMIGDS_DSGRPID bd:controlled_term_or_format ""^^xsd:string . 
:IG-CDISC_SDTMIGDS_DSGRPID bd:notes "Used to tie together a block of related records in a single domain for a subject."^^xsd:string . 
:IG-CDISC_SDTMIGDS_DSGRPID bd:name "DSGRPID"^^xsd:string . 
:IG-CDISC_SDTMIGDS_DSGRPID bd:basedOnVariable :IG-CDISC_SDTMIGDS_DSGRPID_VR . 
:IG-CDISC_SDTMIGDS_DSGRPID_VR rdf:type bo:CReference . 
:IG-CDISC_SDTMIGDS_DSGRPID_VR bo:hasColumn <http://www.assero.co.uk/MDRModels/CDISC/V1#M-CDISC_SDTMMODEL_EVENTS_xxGRPID> . 
:IG-CDISC_SDTMIGDS_DSGRPID_VR bo:enabled "true"^^xsd:boolean . 
:IG-CDISC_SDTMIGDS_DSGRPID_VR bo:optional "false"^^xsd:boolean . 
:IG-CDISC_SDTMIGDS_DSGRPID_VR bo:ordinal "1"^^xsd:positiveInteger . 
:IG-CDISC_SDTMIGDS_DSGRPID bd:compliance <http://www.assero.co.uk/MDRModels/CDISC/V2#IG-CDISC_SDTMIG_C_PERMISSIBLE> . 
:IG-CDISC_SDTMIGDS bd:includesColumn :IG-CDISC_SDTMIGDS_DSGRPID . 
:IG-CDISC_SDTMIGDS_DSREFID rdf:type bd:IgVariable . 
:IG-CDISC_SDTMIGDS_DSREFID rdfs:label "Reference ID"^^xsd:string . 
:IG-CDISC_SDTMIGDS_DSREFID bd:ordinal "6"^^xsd:positiveInteger . 
:IG-CDISC_SDTMIGDS_DSREFID bd:controlled_term_or_format ""^^xsd:string . 
:IG-CDISC_SDTMIGDS_DSREFID bd:notes "Internal or external identifier."^^xsd:string . 
:IG-CDISC_SDTMIGDS_DSREFID bd:name "DSREFID"^^xsd:string . 
:IG-CDISC_SDTMIGDS_DSREFID bd:basedOnVariable :IG-CDISC_SDTMIGDS_DSREFID_VR . 
:IG-CDISC_SDTMIGDS_DSREFID_VR rdf:type bo:CReference . 
:IG-CDISC_SDTMIGDS_DSREFID_VR bo:hasColumn <http://www.assero.co.uk/MDRModels/CDISC/V1#M-CDISC_SDTMMODEL_EVENTS_xxREFID> . 
:IG-CDISC_SDTMIGDS_DSREFID_VR bo:enabled "true"^^xsd:boolean . 
:IG-CDISC_SDTMIGDS_DSREFID_VR bo:optional "false"^^xsd:boolean . 
:IG-CDISC_SDTMIGDS_DSREFID_VR bo:ordinal "1"^^xsd:positiveInteger . 
:IG-CDISC_SDTMIGDS_DSREFID bd:compliance <http://www.assero.co.uk/MDRModels/CDISC/V2#IG-CDISC_SDTMIG_C_PERMISSIBLE> . 
:IG-CDISC_SDTMIGDS bd:includesColumn :IG-CDISC_SDTMIGDS_DSREFID . 
:IG-CDISC_SDTMIGDS_DSSPID rdf:type bd:IgVariable . 
:IG-CDISC_SDTMIGDS_DSSPID rdfs:label "Sponsor-Defined Identifier"^^xsd:string . 
:IG-CDISC_SDTMIGDS_DSSPID bd:ordinal "7"^^xsd:positiveInteger . 
:IG-CDISC_SDTMIGDS_DSSPID bd:controlled_term_or_format ""^^xsd:string . 
:IG-CDISC_SDTMIGDS_DSSPID bd:notes "Sponsor-defined reference number. Perhaps pre-printed on the CRF as an explicit line identifier or defined in the sponsor's operational database. Example: Line number on a Disposition page."^^xsd:string . 
:IG-CDISC_SDTMIGDS_DSSPID bd:name "DSSPID"^^xsd:string . 
:IG-CDISC_SDTMIGDS_DSSPID bd:basedOnVariable :IG-CDISC_SDTMIGDS_DSSPID_VR . 
:IG-CDISC_SDTMIGDS_DSSPID_VR rdf:type bo:CReference . 
:IG-CDISC_SDTMIGDS_DSSPID_VR bo:hasColumn <http://www.assero.co.uk/MDRModels/CDISC/V1#M-CDISC_SDTMMODEL_EVENTS_xxSPID> . 
:IG-CDISC_SDTMIGDS_DSSPID_VR bo:enabled "true"^^xsd:boolean . 
:IG-CDISC_SDTMIGDS_DSSPID_VR bo:optional "false"^^xsd:boolean . 
:IG-CDISC_SDTMIGDS_DSSPID_VR bo:ordinal "1"^^xsd:positiveInteger . 
:IG-CDISC_SDTMIGDS_DSSPID bd:compliance <http://www.assero.co.uk/MDRModels/CDISC/V2#IG-CDISC_SDTMIG_C_PERMISSIBLE> . 
:IG-CDISC_SDTMIGDS bd:includesColumn :IG-CDISC_SDTMIGDS_DSSPID . 
:IG-CDISC_SDTMIGDS_DSTERM rdf:type bd:IgVariable . 
:IG-CDISC_SDTMIGDS_DSTERM rdfs:label "Reported Term for the Disposition Event"^^xsd:string . 
:IG-CDISC_SDTMIGDS_DSTERM bd:ordinal "8"^^xsd:positiveInteger . 
:IG-CDISC_SDTMIGDS_DSTERM bd:controlled_term_or_format ""^^xsd:string . 
:IG-CDISC_SDTMIGDS_DSTERM bd:notes "Verbatim name of the event or protocol milestone. Some terms in DSTERM will match DSDECOD, but others, such as 'Subject moved' will map to controlled terminology in DSDECOD, such as 'LOST TO FOLLOW-UP.'"^^xsd:string . 
:IG-CDISC_SDTMIGDS_DSTERM bd:name "DSTERM"^^xsd:string . 
:IG-CDISC_SDTMIGDS_DSTERM bd:basedOnVariable :IG-CDISC_SDTMIGDS_DSTERM_VR . 
:IG-CDISC_SDTMIGDS_DSTERM_VR rdf:type bo:CReference . 
:IG-CDISC_SDTMIGDS_DSTERM_VR bo:hasColumn <http://www.assero.co.uk/MDRModels/CDISC/V1#M-CDISC_SDTMMODEL_EVENTS_xxTERM> . 
:IG-CDISC_SDTMIGDS_DSTERM_VR bo:enabled "true"^^xsd:boolean . 
:IG-CDISC_SDTMIGDS_DSTERM_VR bo:optional "false"^^xsd:boolean . 
:IG-CDISC_SDTMIGDS_DSTERM_VR bo:ordinal "1"^^xsd:positiveInteger . 
:IG-CDISC_SDTMIGDS_DSTERM bd:compliance <http://www.assero.co.uk/MDRModels/CDISC/V2#IG-CDISC_SDTMIG_C_REQUIRED> . 
:IG-CDISC_SDTMIGDS bd:includesColumn :IG-CDISC_SDTMIGDS_DSTERM . 
:IG-CDISC_SDTMIGDS_DSDECOD rdf:type bd:IgVariable . 
:IG-CDISC_SDTMIGDS_DSDECOD rdfs:label "Standardized Disposition Term"^^xsd:string . 
:IG-CDISC_SDTMIGDS_DSDECOD bd:ordinal "9"^^xsd:positiveInteger . 
:IG-CDISC_SDTMIGDS_DSDECOD bd:controlled_term_or_format "NCOMPLT"^^xsd:string . 
:IG-CDISC_SDTMIGDS_DSDECOD bd:notes "Controlled terminology for the name of disposition event or protocol milestone. Examples of protocol milestones: INFORMED CONSENT OBTAINED, RANDOMIZED"^^xsd:string . 
:IG-CDISC_SDTMIGDS_DSDECOD bd:name "DSDECOD"^^xsd:string . 
:IG-CDISC_SDTMIGDS_DSDECOD bd:basedOnVariable :IG-CDISC_SDTMIGDS_DSDECOD_VR . 
:IG-CDISC_SDTMIGDS_DSDECOD_VR rdf:type bo:CReference . 
:IG-CDISC_SDTMIGDS_DSDECOD_VR bo:hasColumn <http://www.assero.co.uk/MDRModels/CDISC/V1#M-CDISC_SDTMMODEL_EVENTS_xxDECOD> . 
:IG-CDISC_SDTMIGDS_DSDECOD_VR bo:enabled "true"^^xsd:boolean . 
:IG-CDISC_SDTMIGDS_DSDECOD_VR bo:optional "false"^^xsd:boolean . 
:IG-CDISC_SDTMIGDS_DSDECOD_VR bo:ordinal "1"^^xsd:positiveInteger . 
:IG-CDISC_SDTMIGDS_DSDECOD bd:compliance <http://www.assero.co.uk/MDRModels/CDISC/V2#IG-CDISC_SDTMIG_C_REQUIRED> . 
:IG-CDISC_SDTMIGDS bd:includesColumn :IG-CDISC_SDTMIGDS_DSDECOD . 
:IG-CDISC_SDTMIGDS_DSCAT rdf:type bd:IgVariable . 
:IG-CDISC_SDTMIGDS_DSCAT rdfs:label "Category for Disposition Event"^^xsd:string . 
:IG-CDISC_SDTMIGDS_DSCAT bd:ordinal "10"^^xsd:positiveInteger . 
:IG-CDISC_SDTMIGDS_DSCAT bd:controlled_term_or_format "DSCAT"^^xsd:string . 
:IG-CDISC_SDTMIGDS_DSCAT bd:notes "Used to define a category of related records. DSCAT is now an 'Expected' variable. DSCAT was permissible in SDTMIG 3.1.1 and earlier versions. The change from 'permissible' to 'expected' is based on the requirement to distinguish protocol milestones and/or other events from disposition events. DSCAT may be null if there are only 'disposition events'; however, it is recommended that DSCAT always be populated."^^xsd:string . 
:IG-CDISC_SDTMIGDS_DSCAT bd:name "DSCAT"^^xsd:string . 
:IG-CDISC_SDTMIGDS_DSCAT bd:basedOnVariable :IG-CDISC_SDTMIGDS_DSCAT_VR . 
:IG-CDISC_SDTMIGDS_DSCAT_VR rdf:type bo:CReference . 
:IG-CDISC_SDTMIGDS_DSCAT_VR bo:hasColumn <http://www.assero.co.uk/MDRModels/CDISC/V1#M-CDISC_SDTMMODEL_EVENTS_xxCAT> . 
:IG-CDISC_SDTMIGDS_DSCAT_VR bo:enabled "true"^^xsd:boolean . 
:IG-CDISC_SDTMIGDS_DSCAT_VR bo:optional "false"^^xsd:boolean . 
:IG-CDISC_SDTMIGDS_DSCAT_VR bo:ordinal "1"^^xsd:positiveInteger . 
:IG-CDISC_SDTMIGDS_DSCAT bd:compliance <http://www.assero.co.uk/MDRModels/CDISC/V2#IG-CDISC_SDTMIG_C_EXPECTED> . 
:IG-CDISC_SDTMIGDS bd:includesColumn :IG-CDISC_SDTMIGDS_DSCAT . 
:IG-CDISC_SDTMIGDS_DSSCAT rdf:type bd:IgVariable . 
:IG-CDISC_SDTMIGDS_DSSCAT rdfs:label "Subcategory for Disposition Event"^^xsd:string . 
:IG-CDISC_SDTMIGDS_DSSCAT bd:ordinal "11"^^xsd:positiveInteger . 
:IG-CDISC_SDTMIGDS_DSSCAT bd:controlled_term_or_format ""^^xsd:string . 
:IG-CDISC_SDTMIGDS_DSSCAT bd:notes "A further categorization of disposition event."^^xsd:string . 
:IG-CDISC_SDTMIGDS_DSSCAT bd:name "DSSCAT"^^xsd:string . 
:IG-CDISC_SDTMIGDS_DSSCAT bd:basedOnVariable :IG-CDISC_SDTMIGDS_DSSCAT_VR . 
:IG-CDISC_SDTMIGDS_DSSCAT_VR rdf:type bo:CReference . 
:IG-CDISC_SDTMIGDS_DSSCAT_VR bo:hasColumn <http://www.assero.co.uk/MDRModels/CDISC/V1#M-CDISC_SDTMMODEL_EVENTS_xxSCAT> . 
:IG-CDISC_SDTMIGDS_DSSCAT_VR bo:enabled "true"^^xsd:boolean . 
:IG-CDISC_SDTMIGDS_DSSCAT_VR bo:optional "false"^^xsd:boolean . 
:IG-CDISC_SDTMIGDS_DSSCAT_VR bo:ordinal "1"^^xsd:positiveInteger . 
:IG-CDISC_SDTMIGDS_DSSCAT bd:compliance <http://www.assero.co.uk/MDRModels/CDISC/V2#IG-CDISC_SDTMIG_C_PERMISSIBLE> . 
:IG-CDISC_SDTMIGDS bd:includesColumn :IG-CDISC_SDTMIGDS_DSSCAT . 
:IG-CDISC_SDTMIGDS_EPOCH rdf:type bd:IgVariable . 
:IG-CDISC_SDTMIGDS_EPOCH rdfs:label "Epoch"^^xsd:string . 
:IG-CDISC_SDTMIGDS_EPOCH bd:ordinal "12"^^xsd:positiveInteger . 
:IG-CDISC_SDTMIGDS_EPOCH bd:controlled_term_or_format ""^^xsd:string . 
:IG-CDISC_SDTMIGDS_EPOCH bd:notes "Epoch associated with the Element in the planned sequence of Elements for the ARM to which the subject was assigned"^^xsd:string . 
:IG-CDISC_SDTMIGDS_EPOCH bd:name "EPOCH"^^xsd:string . 
:IG-CDISC_SDTMIGDS_EPOCH bd:basedOnVariable :IG-CDISC_SDTMIGDS_EPOCH_VR . 
:IG-CDISC_SDTMIGDS_EPOCH_VR rdf:type bo:CReference . 
:IG-CDISC_SDTMIGDS_EPOCH_VR bo:hasColumn <http://www.assero.co.uk/MDRModels/CDISC/V1#M-CDISC_SDTMMODEL_EVENTS_EPOCH> . 
:IG-CDISC_SDTMIGDS_EPOCH_VR bo:enabled "true"^^xsd:boolean . 
:IG-CDISC_SDTMIGDS_EPOCH_VR bo:optional "false"^^xsd:boolean . 
:IG-CDISC_SDTMIGDS_EPOCH_VR bo:ordinal "1"^^xsd:positiveInteger . 
