# baseURI: http://www.assero.co.uk/MDRSDTMIG/V1
# imports: http://www.assero.co.uk/ISO11179Identification
# imports: http://www.assero.co.uk/BusinessDomain
# imports: http://www.assero.co.uk/BusinessStandard

@prefix : <http://www.assero.co.uk/MDRSDTMIG/V1#> .
@prefix mdrDomainsV1: <http://www.assero.co.uk/MDRDomains/V1#> .
@prefix isoB: <http://www.assero.co.uk/ISO11179Basic#> .
@prefix isoI: <http://www.assero.co.uk/ISO11179Identification#> .
@prefix bo: <http://www.assero.co.uk/BusinessOperational#> .
@prefix bd: <http://www.assero.co.uk/BusinessDomain#> .
@prefix bs: <http://www.assero.co.uk/BusinessStandard#> .
@prefix mdrItems: <http://www.assero.co.uk/MDRItems#> .
@prefix owl: <http://www.w3.org/2002/07/owl#> .
@prefix rdf: <http://www.w3.org/1999/02/22-rdf-syntax-ns#> .
@prefix rdfs: <http://www.w3.org/2000/01/rdf-schema#> .
@prefix skos: <http://www.w3.org/2004/02/skos/core#> .
@prefix xsd: <http://www.w3.org/2001/XMLSchema#> .

<http://www.assero.co.uk/MDRSDTMIG/V1>
	rdf:type owl:Ontology ;
	owl:imports <http://www.assero.co.uk/ISO11179Identification> ;
	owl:imports <http://www.assero.co.uk/BusinessDomain> ;
	owl:imports <http://www.assero.co.uk/BusinessStandard> ;
.
:STD-SDTM_IG
	rdf:type bs:SDTMIG ;
	rdfs:label "SDTM Implementation Guide"^^xsd:string ;
	isoI:hasIdentifier mdrItems:SI-SDTM_IG-1 ;
.
mdrItems:SI-SDTM_IG-1
	rdf:type isoI:ScopedIdentifier ;
	isoI:identifier "SDTM IG"^^xsd:string ;
	isoI:versionLabel "3.1.2"^^xsd:string ;
	isoI:version "1"^^xsd:positiveInteger ;
	isoI:hasScope mdrItems:NS-CDISC ;
.
mdrDomainsV1:D-AE
	rdf:type bd:Domain ;
	rdfs:label "Adverse Events"^^xsd:string ;
	isoI:hasIdentifier mdrItems:SI-DOMAIN_AE-1 ;
	bd:basedOn <http://rdf.cdisc.org/std/sdtmig-3-1-2#Dataset.AE> ;
.
mdrItems:SI-DOMAIN_AE-1
	rdf:type isoI:ScopedIdentifier ;
	isoI:identifier "SDTM AE Domain"^^xsd:string ;
	isoI:versionLabel "3.1.2"^^xsd:string ;
	isoI:version "1"^^xsd:positiveInteger ;
	isoI:hasScope mdrItems:NS-ACME ;
.
mdrDomainsV1:D-CE
	rdf:type bd:Domain ;
	rdfs:label "Clinical Events"^^xsd:string ;
	isoI:hasIdentifier mdrItems:SI-DOMAIN_CE-1 ;
	bd:basedOn <http://rdf.cdisc.org/std/sdtmig-3-1-2#Dataset.CE> ;
.
mdrItems:SI-DOMAIN_CE-1
	rdf:type isoI:ScopedIdentifier ;
	isoI:identifier "SDTM CE Domain"^^xsd:string ;
	isoI:versionLabel "3.1.2"^^xsd:string ;
	isoI:version "1"^^xsd:positiveInteger ;
	isoI:hasScope mdrItems:NS-ACME ;
.
mdrDomainsV1:D-CO
	rdf:type bd:Domain ;
	rdfs:label "Comments"^^xsd:string ;
	isoI:hasIdentifier mdrItems:SI-DOMAIN_CO-1 ;
	bd:basedOn <http://rdf.cdisc.org/std/sdtmig-3-1-2#Dataset.CO> ;
.
mdrItems:SI-DOMAIN_CO-1
	rdf:type isoI:ScopedIdentifier ;
	isoI:identifier "SDTM CO Domain"^^xsd:string ;
	isoI:versionLabel "3.1.2"^^xsd:string ;
	isoI:version "1"^^xsd:positiveInteger ;
	isoI:hasScope mdrItems:NS-ACME ;
.
mdrDomainsV1:D-CM
	rdf:type bd:Domain ;
	rdfs:label "Concomitant Medications"^^xsd:string ;
	isoI:hasIdentifier mdrItems:SI-DOMAIN_CM-1 ;
	bd:basedOn <http://rdf.cdisc.org/std/sdtmig-3-1-2#Dataset.CM> ;
.
mdrItems:SI-DOMAIN_CM-1
	rdf:type isoI:ScopedIdentifier ;
	isoI:identifier "SDTM CM Domain"^^xsd:string ;
	isoI:versionLabel "3.1.2"^^xsd:string ;
	isoI:version "1"^^xsd:positiveInteger ;
	isoI:hasScope mdrItems:NS-ACME ;
.
mdrDomainsV1:D-DM
	rdf:type bd:Domain ;
	rdfs:label "Demographics"^^xsd:string ;
	isoI:hasIdentifier mdrItems:SI-DOMAIN_DM-1 ;
	bd:basedOn <http://rdf.cdisc.org/std/sdtmig-3-1-2#Dataset.DM> ;
.
mdrItems:SI-DOMAIN_DM-1
	rdf:type isoI:ScopedIdentifier ;
	isoI:identifier "SDTM DM Domain"^^xsd:string ;
	isoI:versionLabel "3.1.2"^^xsd:string ;
	isoI:version "1"^^xsd:positiveInteger ;
	isoI:hasScope mdrItems:NS-ACME ;
.
mdrDomainsV1:D-DS
	rdf:type bd:Domain ;
	rdfs:label "Disposition"^^xsd:string ;
	isoI:hasIdentifier mdrItems:SI-DOMAIN_DS-1 ;
	bd:basedOn <http://rdf.cdisc.org/std/sdtmig-3-1-2#Dataset.DS> ;
.
mdrItems:SI-DOMAIN_DS-1
	rdf:type isoI:ScopedIdentifier ;
	isoI:identifier "SDTM DS Domain"^^xsd:string ;
	isoI:versionLabel "3.1.2"^^xsd:string ;
	isoI:version "1"^^xsd:positiveInteger ;
	isoI:hasScope mdrItems:NS-ACME ;
.
mdrDomainsV1:D-DA
	rdf:type bd:Domain ;
	rdfs:label "Drug Accountability"^^xsd:string ;
	isoI:hasIdentifier mdrItems:SI-DOMAIN_DA-1 ;
	bd:basedOn <http://rdf.cdisc.org/std/sdtmig-3-1-2#Dataset.DA> ;
.
mdrItems:SI-DOMAIN_DA-1
	rdf:type isoI:ScopedIdentifier ;
	isoI:identifier "SDTM DA Domain"^^xsd:string ;
	isoI:versionLabel "3.1.2"^^xsd:string ;
	isoI:version "1"^^xsd:positiveInteger ;
	isoI:hasScope mdrItems:NS-ACME ;
.
mdrDomainsV1:D-EG
	rdf:type bd:Domain ;
	rdfs:label "ECG Test Results"^^xsd:string ;
	isoI:hasIdentifier mdrItems:SI-DOMAIN_EG-1 ;
	bd:basedOn <http://rdf.cdisc.org/std/sdtmig-3-1-2#Dataset.EG> ;
.
mdrItems:SI-DOMAIN_EG-1
	rdf:type isoI:ScopedIdentifier ;
	isoI:identifier "SDTM EG Domain"^^xsd:string ;
	isoI:versionLabel "3.1.2"^^xsd:string ;
	isoI:version "1"^^xsd:positiveInteger ;
	isoI:hasScope mdrItems:NS-ACME ;
.
mdrDomainsV1:D-EX
	rdf:type bd:Domain ;
	rdfs:label "Exposure"^^xsd:string ;
	isoI:hasIdentifier mdrItems:SI-DOMAIN_EX-1 ;
	bd:basedOn <http://rdf.cdisc.org/std/sdtmig-3-1-2#Dataset.EX> ;
.
mdrItems:SI-DOMAIN_EX-1
	rdf:type isoI:ScopedIdentifier ;
	isoI:identifier "SDTM EX Domain"^^xsd:string ;
	isoI:versionLabel "3.1.2"^^xsd:string ;
	isoI:version "1"^^xsd:positiveInteger ;
	isoI:hasScope mdrItems:NS-ACME ;
.
mdrDomainsV1:D-FA
	rdf:type bd:Domain ;
	rdfs:label "Findings About"^^xsd:string ;
	isoI:hasIdentifier mdrItems:SI-DOMAIN_FA-1 ;
	bd:basedOn <http://rdf.cdisc.org/std/sdtmig-3-1-2#Dataset.FA> ;
.
mdrItems:SI-DOMAIN_FA-1
	rdf:type isoI:ScopedIdentifier ;
	isoI:identifier "SDTM FA Domain"^^xsd:string ;
	isoI:versionLabel "3.1.2"^^xsd:string ;
	isoI:version "1"^^xsd:positiveInteger ;
	isoI:hasScope mdrItems:NS-ACME ;
.
mdrDomainsV1:D-IE
	rdf:type bd:Domain ;
	rdfs:label "Inclusion/Exclusion Criterion Not Met"^^xsd:string ;
	isoI:hasIdentifier mdrItems:SI-DOMAIN_IE-1 ;
	bd:basedOn <http://rdf.cdisc.org/std/sdtmig-3-1-2#Dataset.IE> ;
.
mdrItems:SI-DOMAIN_IE-1
	rdf:type isoI:ScopedIdentifier ;
	isoI:identifier "SDTM IE Domain"^^xsd:string ;
	isoI:versionLabel "3.1.2"^^xsd:string ;
	isoI:version "1"^^xsd:positiveInteger ;
	isoI:hasScope mdrItems:NS-ACME ;
.
mdrDomainsV1:D-LB
	rdf:type bd:Domain ;
	rdfs:label "Laboratory Test Results"^^xsd:string ;
	isoI:hasIdentifier mdrItems:SI-DOMAIN_LB-1 ;
	bd:basedOn <http://rdf.cdisc.org/std/sdtmig-3-1-2#Dataset.LB> ;
.
mdrItems:SI-DOMAIN_LB-1
	rdf:type isoI:ScopedIdentifier ;
	isoI:identifier "SDTM LB Domain"^^xsd:string ;
	isoI:versionLabel "3.1.2"^^xsd:string ;
	isoI:version "1"^^xsd:positiveInteger ;
	isoI:hasScope mdrItems:NS-ACME ;
.
mdrDomainsV1:D-MH
	rdf:type bd:Domain ;
	rdfs:label "Medical History"^^xsd:string ;
	isoI:hasIdentifier mdrItems:SI-DOMAIN_MH-1 ;
	bd:basedOn <http://rdf.cdisc.org/std/sdtmig-3-1-2#Dataset.MH> ;
.
mdrItems:SI-DOMAIN_MH-1
	rdf:type isoI:ScopedIdentifier ;
	isoI:identifier "SDTM MH Domain"^^xsd:string ;
	isoI:versionLabel "3.1.2"^^xsd:string ;
	isoI:version "1"^^xsd:positiveInteger ;
	isoI:hasScope mdrItems:NS-ACME ;
.
mdrDomainsV1:D-MB
	rdf:type bd:Domain ;
	rdfs:label "Microbiology Specimen"^^xsd:string ;
	isoI:hasIdentifier mdrItems:SI-DOMAIN_MB-1 ;
	bd:basedOn <http://rdf.cdisc.org/std/sdtmig-3-1-2#Dataset.MB> ;
.
mdrItems:SI-DOMAIN_MB-1
	rdf:type isoI:ScopedIdentifier ;
	isoI:identifier "SDTM MB Domain"^^xsd:string ;
	isoI:versionLabel "3.1.2"^^xsd:string ;
	isoI:version "1"^^xsd:positiveInteger ;
	isoI:hasScope mdrItems:NS-ACME ;
.
mdrDomainsV1:D-MS
	rdf:type bd:Domain ;
	rdfs:label "Microbiology Susceptibility Test"^^xsd:string ;
	isoI:hasIdentifier mdrItems:SI-DOMAIN_MS-1 ;
	bd:basedOn <http://rdf.cdisc.org/std/sdtmig-3-1-2#Dataset.MS> ;
.
mdrItems:SI-DOMAIN_MS-1
	rdf:type isoI:ScopedIdentifier ;
	isoI:identifier "SDTM MS Domain"^^xsd:string ;
	isoI:versionLabel "3.1.2"^^xsd:string ;
	isoI:version "1"^^xsd:positiveInteger ;
	isoI:hasScope mdrItems:NS-ACME ;
.
mdrDomainsV1:D-PC
	rdf:type bd:Domain ;
	rdfs:label "PK Concentrations"^^xsd:string ;
	isoI:hasIdentifier mdrItems:SI-DOMAIN_PC-1 ;
	bd:basedOn <http://rdf.cdisc.org/std/sdtmig-3-1-2#Dataset.PC> ;
.
mdrItems:SI-DOMAIN_PC-1
	rdf:type isoI:ScopedIdentifier ;
	isoI:identifier "SDTM PC Domain"^^xsd:string ;
	isoI:versionLabel "3.1.2"^^xsd:string ;
	isoI:version "1"^^xsd:positiveInteger ;
	isoI:hasScope mdrItems:NS-ACME ;
.
mdrDomainsV1:D-PP
	rdf:type bd:Domain ;
	rdfs:label "PK Parameters"^^xsd:string ;
	isoI:hasIdentifier mdrItems:SI-DOMAIN_PP-1 ;
	bd:basedOn <http://rdf.cdisc.org/std/sdtmig-3-1-2#Dataset.PP> ;
.
mdrItems:SI-DOMAIN_PP-1
	rdf:type isoI:ScopedIdentifier ;
	isoI:identifier "SDTM PP Domain"^^xsd:string ;
	isoI:versionLabel "3.1.2"^^xsd:string ;
	isoI:version "1"^^xsd:positiveInteger ;
	isoI:hasScope mdrItems:NS-ACME ;
.
mdrDomainsV1:D-PE
	rdf:type bd:Domain ;
	rdfs:label "Physical Examination"^^xsd:string ;
	isoI:hasIdentifier mdrItems:SI-DOMAIN_PE-1 ;
	bd:basedOn <http://rdf.cdisc.org/std/sdtmig-3-1-2#Dataset.PE> ;
.
mdrItems:SI-DOMAIN_PE-1
	rdf:type isoI:ScopedIdentifier ;
	isoI:identifier "SDTM PE Domain"^^xsd:string ;
	isoI:versionLabel "3.1.2"^^xsd:string ;
	isoI:version "1"^^xsd:positiveInteger ;
	isoI:hasScope mdrItems:NS-ACME ;
.
mdrDomainsV1:D-DV
	rdf:type bd:Domain ;
	rdfs:label "Protocol Deviations"^^xsd:string ;
	isoI:hasIdentifier mdrItems:SI-DOMAIN_DV-1 ;
	bd:basedOn <http://rdf.cdisc.org/std/sdtmig-3-1-2#Dataset.DV> ;
.
mdrItems:SI-DOMAIN_DV-1
	rdf:type isoI:ScopedIdentifier ;
	isoI:identifier "SDTM DV Domain"^^xsd:string ;
	isoI:versionLabel "3.1.2"^^xsd:string ;
	isoI:version "1"^^xsd:positiveInteger ;
	isoI:hasScope mdrItems:NS-ACME ;
.
mdrDomainsV1:D-QS
	rdf:type bd:Domain ;
	rdfs:label "Questionnaires"^^xsd:string ;
	isoI:hasIdentifier mdrItems:SI-DOMAIN_QS-1 ;
	bd:basedOn <http://rdf.cdisc.org/std/sdtmig-3-1-2#Dataset.QS> ;
.
mdrItems:SI-DOMAIN_QS-1
	rdf:type isoI:ScopedIdentifier ;
	isoI:identifier "SDTM QS Domain"^^xsd:string ;
	isoI:versionLabel "3.1.2"^^xsd:string ;
	isoI:version "1"^^xsd:positiveInteger ;
	isoI:hasScope mdrItems:NS-ACME ;
.
mdrDomainsV1:D-RELREC
	rdf:type bd:Domain ;
	rdfs:label "Related Records"^^xsd:string ;
	isoI:hasIdentifier mdrItems:SI-DOMAIN_RELREC-1 ;
	bd:basedOn <http://rdf.cdisc.org/std/sdtmig-3-1-2#Dataset.RELREC> ;
.
mdrItems:SI-DOMAIN_RELREC-1
	rdf:type isoI:ScopedIdentifier ;
	isoI:identifier "SDTM RELREC Domain"^^xsd:string ;
	isoI:versionLabel "3.1.2"^^xsd:string ;
	isoI:version "1"^^xsd:positiveInteger ;
	isoI:hasScope mdrItems:NS-ACME ;
.
mdrDomainsV1:D-SC
	rdf:type bd:Domain ;
	rdfs:label "Subject Characteristics"^^xsd:string ;
	isoI:hasIdentifier mdrItems:SI-DOMAIN_SC-1 ;
	bd:basedOn <http://rdf.cdisc.org/std/sdtmig-3-1-2#Dataset.SC> ;
.
mdrItems:SI-DOMAIN_SC-1
	rdf:type isoI:ScopedIdentifier ;
	isoI:identifier "SDTM SC Domain"^^xsd:string ;
	isoI:versionLabel "3.1.2"^^xsd:string ;
	isoI:version "1"^^xsd:positiveInteger ;
	isoI:hasScope mdrItems:NS-ACME ;
.
mdrDomainsV1:D-SE
	rdf:type bd:Domain ;
	rdfs:label "Subject Elements"^^xsd:string ;
	isoI:hasIdentifier mdrItems:SI-DOMAIN_SE-1 ;
	bd:basedOn <http://rdf.cdisc.org/std/sdtmig-3-1-2#Dataset.SE> ;
.
mdrItems:SI-DOMAIN_SE-1
	rdf:type isoI:ScopedIdentifier ;
	isoI:identifier "SDTM SE Domain"^^xsd:string ;
	isoI:versionLabel "3.1.2"^^xsd:string ;
	isoI:version "1"^^xsd:positiveInteger ;
	isoI:hasScope mdrItems:NS-ACME ;
.
mdrDomainsV1:D-SV
	rdf:type bd:Domain ;
	rdfs:label "Subject Visits"^^xsd:string ;
	isoI:hasIdentifier mdrItems:SI-DOMAIN_SV-1 ;
	bd:basedOn <http://rdf.cdisc.org/std/sdtmig-3-1-2#Dataset.SV> ;
.
mdrItems:SI-DOMAIN_SV-1
	rdf:type isoI:ScopedIdentifier ;
	isoI:identifier "SDTM SV Domain"^^xsd:string ;
	isoI:versionLabel "3.1.2"^^xsd:string ;
	isoI:version "1"^^xsd:positiveInteger ;
	isoI:hasScope mdrItems:NS-ACME ;
.
mdrDomainsV1:D-SU
	rdf:type bd:Domain ;
	rdfs:label "Substance Use"^^xsd:string ;
	isoI:hasIdentifier mdrItems:SI-DOMAIN_SU-1 ;
	bd:basedOn <http://rdf.cdisc.org/std/sdtmig-3-1-2#Dataset.SU> ;
.
mdrItems:SI-DOMAIN_SU-1
	rdf:type isoI:ScopedIdentifier ;
	isoI:identifier "SDTM SU Domain"^^xsd:string ;
	isoI:versionLabel "3.1.2"^^xsd:string ;
	isoI:version "1"^^xsd:positiveInteger ;
	isoI:hasScope mdrItems:NS-ACME ;
.
mdrDomainsV1:D-SUPPQUAL
	rdf:type bd:Domain ;
	rdfs:label "Supplemental Qualifiers"^^xsd:string ;
	isoI:hasIdentifier mdrItems:SI-DOMAIN_SUPPQUAL-1 ;
	bd:basedOn <http://rdf.cdisc.org/std/sdtmig-3-1-2#Dataset.SUPPQUAL> ;
.
mdrItems:SI-DOMAIN_SUPPQUAL-1
	rdf:type isoI:ScopedIdentifier ;
	isoI:identifier "SDTM SUPPQUAL Domain"^^xsd:string ;
	isoI:versionLabel "3.1.2"^^xsd:string ;
	isoI:version "1"^^xsd:positiveInteger ;
	isoI:hasScope mdrItems:NS-ACME ;
.
mdrDomainsV1:D-TA
	rdf:type bd:Domain ;
	rdfs:label "Trial Arms"^^xsd:string ;
	isoI:hasIdentifier mdrItems:SI-DOMAIN_TA-1 ;
	bd:basedOn <http://rdf.cdisc.org/std/sdtmig-3-1-2#Dataset.TA> ;
.
mdrItems:SI-DOMAIN_TA-1
	rdf:type isoI:ScopedIdentifier ;
	isoI:identifier "SDTM TA Domain"^^xsd:string ;
	isoI:versionLabel "3.1.2"^^xsd:string ;
	isoI:version "1"^^xsd:positiveInteger ;
	isoI:hasScope mdrItems:NS-ACME ;
.
mdrDomainsV1:D-TE
	rdf:type bd:Domain ;
	rdfs:label "Trial Elements"^^xsd:string ;
	isoI:hasIdentifier mdrItems:SI-DOMAIN_TE-1 ;
	bd:basedOn <http://rdf.cdisc.org/std/sdtmig-3-1-2#Dataset.TE> ;
.
mdrItems:SI-DOMAIN_TE-1
	rdf:type isoI:ScopedIdentifier ;
	isoI:identifier "SDTM TE Domain"^^xsd:string ;
	isoI:versionLabel "3.1.2"^^xsd:string ;
	isoI:version "1"^^xsd:positiveInteger ;
	isoI:hasScope mdrItems:NS-ACME ;
.
mdrDomainsV1:D-TI
	rdf:type bd:Domain ;
	rdfs:label "Trial Inclusion/Exclusion Criteria"^^xsd:string ;
	isoI:hasIdentifier mdrItems:SI-DOMAIN_TI-1 ;
	bd:basedOn <http://rdf.cdisc.org/std/sdtmig-3-1-2#Dataset.TI> ;
.
mdrItems:SI-DOMAIN_TI-1
	rdf:type isoI:ScopedIdentifier ;
	isoI:identifier "SDTM TI Domain"^^xsd:string ;
	isoI:versionLabel "3.1.2"^^xsd:string ;
	isoI:version "1"^^xsd:positiveInteger ;
	isoI:hasScope mdrItems:NS-ACME ;
.
mdrDomainsV1:D-TS
	rdf:type bd:Domain ;
	rdfs:label "Trial Summary"^^xsd:string ;
	isoI:hasIdentifier mdrItems:SI-DOMAIN_TS-1 ;
	bd:basedOn <http://rdf.cdisc.org/std/sdtmig-3-1-2#Dataset.TS> ;
.
mdrItems:SI-DOMAIN_TS-1
	rdf:type isoI:ScopedIdentifier ;
	isoI:identifier "SDTM TS Domain"^^xsd:string ;
	isoI:versionLabel "3.1.2"^^xsd:string ;
	isoI:version "1"^^xsd:positiveInteger ;
	isoI:hasScope mdrItems:NS-ACME ;
.
mdrDomainsV1:D-TV
	rdf:type bd:Domain ;
	rdfs:label "Trial Visits"^^xsd:string ;
	isoI:hasIdentifier mdrItems:SI-DOMAIN_TV-1 ;
	bd:basedOn <http://rdf.cdisc.org/std/sdtmig-3-1-2#Dataset.TV> ;
.
mdrItems:SI-DOMAIN_TV-1
	rdf:type isoI:ScopedIdentifier ;
	isoI:identifier "SDTM TV Domain"^^xsd:string ;
	isoI:versionLabel "3.1.2"^^xsd:string ;
	isoI:version "1"^^xsd:positiveInteger ;
	isoI:hasScope mdrItems:NS-ACME ;
.
mdrDomainsV1:D-VS
	rdf:type bd:Domain ;
	rdfs:label "Vital Signs"^^xsd:string ;
	isoI:hasIdentifier mdrItems:SI-DOMAIN_VS-1 ;
	bd:basedOn <http://rdf.cdisc.org/std/sdtmig-3-1-2#Dataset.VS> ;
.
mdrItems:SI-DOMAIN_VS-1
	rdf:type isoI:ScopedIdentifier ;
	isoI:identifier "SDTM VS Domain"^^xsd:string ;
	isoI:versionLabel "3.1.2"^^xsd:string ;
	isoI:version "1"^^xsd:positiveInteger ;
	isoI:hasScope mdrItems:NS-ACME ;
.
mdrDomainsV1:V-AE_AEACN
	rdf:type bd:Variable ;
	bd:basedOn <http://rdf.cdisc.org/std/sdtmig-3-1-2#Column.AE.AEACN> ;
	rdfs:label "SDTM Variable"^^xsd:string ;
	bd:core "???"^^xsd:string ;
	bd:datatype "???"^^xsd:string ;
	bd:defaultCommentSet "false"^^xsd:string ;
	bd:defaultComment ""^^xsd:string ;
	bd:length "NN"^^xsd:string ;
	bd:format "???"^^xsd:string ;
	bd:notes "???"^^xsd:string ;
	bd:origin ""^^xsd:string ;
	bd:role "???"^^xsd:string ;
	bd:supplementalQualifier "false"^^xsd:string ;
	bd:used "false"^^xsd:string ;
.
mdrDomainsV1:V-AE_AEACNOTH
	rdf:type bd:Variable ;
	bd:basedOn <http://rdf.cdisc.org/std/sdtmig-3-1-2#Column.AE.AEACNOTH> ;
	rdfs:label "SDTM Variable"^^xsd:string ;
	bd:core "???"^^xsd:string ;
	bd:datatype "???"^^xsd:string ;
	bd:defaultCommentSet "false"^^xsd:string ;
	bd:defaultComment ""^^xsd:string ;
	bd:length "NN"^^xsd:string ;
	bd:format "???"^^xsd:string ;
	bd:notes "???"^^xsd:string ;
	bd:origin ""^^xsd:string ;
	bd:role "???"^^xsd:string ;
	bd:supplementalQualifier "false"^^xsd:string ;
	bd:used "false"^^xsd:string ;
.
mdrDomainsV1:V-AE_AEBODSYS
	rdf:type bd:Variable ;
	bd:basedOn <http://rdf.cdisc.org/std/sdtmig-3-1-2#Column.AE.AEBODSYS> ;
	rdfs:label "SDTM Variable"^^xsd:string ;
	bd:core "???"^^xsd:string ;
	bd:datatype "???"^^xsd:string ;
	bd:defaultCommentSet "false"^^xsd:string ;
	bd:defaultComment ""^^xsd:string ;
	bd:length "NN"^^xsd:string ;
	bd:format "???"^^xsd:string ;
	bd:notes "???"^^xsd:string ;
	bd:origin ""^^xsd:string ;
	bd:role "???"^^xsd:string ;
	bd:supplementalQualifier "false"^^xsd:string ;
	bd:used "false"^^xsd:string ;
.
mdrDomainsV1:V-AE_AECAT
	rdf:type bd:Variable ;
	bd:basedOn <http://rdf.cdisc.org/std/sdtmig-3-1-2#Column.AE.AECAT> ;
	rdfs:label "SDTM Variable"^^xsd:string ;
	bd:core "???"^^xsd:string ;
	bd:datatype "???"^^xsd:string ;
	bd:defaultCommentSet "false"^^xsd:string ;
	bd:defaultComment ""^^xsd:string ;
	bd:length "NN"^^xsd:string ;
	bd:format "???"^^xsd:string ;
	bd:notes "???"^^xsd:string ;
	bd:origin ""^^xsd:string ;
	bd:role "???"^^xsd:string ;
	bd:supplementalQualifier "false"^^xsd:string ;
	bd:used "false"^^xsd:string ;
.
mdrDomainsV1:V-AE_AECONTRT
	rdf:type bd:Variable ;
	bd:basedOn <http://rdf.cdisc.org/std/sdtmig-3-1-2#Column.AE.AECONTRT> ;
	rdfs:label "SDTM Variable"^^xsd:string ;
	bd:core "???"^^xsd:string ;
	bd:datatype "???"^^xsd:string ;
	bd:defaultCommentSet "false"^^xsd:string ;
	bd:defaultComment ""^^xsd:string ;
	bd:length "NN"^^xsd:string ;
	bd:format "???"^^xsd:string ;
	bd:notes "???"^^xsd:string ;
	bd:origin ""^^xsd:string ;
	bd:role "???"^^xsd:string ;
	bd:supplementalQualifier "false"^^xsd:string ;
	bd:used "false"^^xsd:string ;
.
mdrDomainsV1:V-AE_AEDECOD
	rdf:type bd:Variable ;
	bd:basedOn <http://rdf.cdisc.org/std/sdtmig-3-1-2#Column.AE.AEDECOD> ;
	rdfs:label "SDTM Variable"^^xsd:string ;
	bd:core "???"^^xsd:string ;
	bd:datatype "???"^^xsd:string ;
	bd:defaultCommentSet "false"^^xsd:string ;
	bd:defaultComment ""^^xsd:string ;
	bd:length "NN"^^xsd:string ;
	bd:format "???"^^xsd:string ;
	bd:notes "???"^^xsd:string ;
	bd:origin ""^^xsd:string ;
	bd:role "???"^^xsd:string ;
	bd:supplementalQualifier "false"^^xsd:string ;
	bd:used "false"^^xsd:string ;
.
mdrDomainsV1:V-AE_AEDUR
	rdf:type bd:Variable ;
	bd:basedOn <http://rdf.cdisc.org/std/sdtmig-3-1-2#Column.AE.AEDUR> ;
	rdfs:label "SDTM Variable"^^xsd:string ;
	bd:core "???"^^xsd:string ;
	bd:datatype "???"^^xsd:string ;
	bd:defaultCommentSet "false"^^xsd:string ;
	bd:defaultComment ""^^xsd:string ;
	bd:length "NN"^^xsd:string ;
	bd:format "???"^^xsd:string ;
	bd:notes "???"^^xsd:string ;
	bd:origin ""^^xsd:string ;
	bd:role "???"^^xsd:string ;
	bd:supplementalQualifier "false"^^xsd:string ;
	bd:used "false"^^xsd:string ;
.
mdrDomainsV1:V-AE_AEENDTC
	rdf:type bd:Variable ;
	bd:basedOn <http://rdf.cdisc.org/std/sdtmig-3-1-2#Column.AE.AEENDTC> ;
	rdfs:label "SDTM Variable"^^xsd:string ;
	bd:core "???"^^xsd:string ;
	bd:datatype "???"^^xsd:string ;
	bd:defaultCommentSet "false"^^xsd:string ;
	bd:defaultComment ""^^xsd:string ;
	bd:length "NN"^^xsd:string ;
	bd:format "???"^^xsd:string ;
	bd:notes "???"^^xsd:string ;
	bd:origin ""^^xsd:string ;
	bd:role "???"^^xsd:string ;
	bd:supplementalQualifier "false"^^xsd:string ;
	bd:used "false"^^xsd:string ;
.
mdrDomainsV1:V-AE_AEENDY
	rdf:type bd:Variable ;
	bd:basedOn <http://rdf.cdisc.org/std/sdtmig-3-1-2#Column.AE.AEENDY> ;
	rdfs:label "SDTM Variable"^^xsd:string ;
	bd:core "???"^^xsd:string ;
	bd:datatype "???"^^xsd:string ;
	bd:defaultCommentSet "false"^^xsd:string ;
	bd:defaultComment ""^^xsd:string ;
	bd:length "NN"^^xsd:string ;
	bd:format "???"^^xsd:string ;
	bd:notes "???"^^xsd:string ;
	bd:origin ""^^xsd:string ;
	bd:role "???"^^xsd:string ;
	bd:supplementalQualifier "false"^^xsd:string ;
	bd:used "false"^^xsd:string ;
.
mdrDomainsV1:V-AE_AEENRF
	rdf:type bd:Variable ;
	bd:basedOn <http://rdf.cdisc.org/std/sdtmig-3-1-2#Column.AE.AEENRF> ;
	rdfs:label "SDTM Variable"^^xsd:string ;
	bd:core "???"^^xsd:string ;
	bd:datatype "???"^^xsd:string ;
	bd:defaultCommentSet "false"^^xsd:string ;
	bd:defaultComment ""^^xsd:string ;
	bd:length "NN"^^xsd:string ;
	bd:format "???"^^xsd:string ;
	bd:notes "???"^^xsd:string ;
	bd:origin ""^^xsd:string ;
	bd:role "???"^^xsd:string ;
	bd:supplementalQualifier "false"^^xsd:string ;
	bd:used "false"^^xsd:string ;
.
mdrDomainsV1:V-AE_AEENRTPT
	rdf:type bd:Variable ;
	bd:basedOn <http://rdf.cdisc.org/std/sdtmig-3-1-2#Column.AE.AEENRTPT> ;
	rdfs:label "SDTM Variable"^^xsd:string ;
	bd:core "???"^^xsd:string ;
	bd:datatype "???"^^xsd:string ;
	bd:defaultCommentSet "false"^^xsd:string ;
	bd:defaultComment ""^^xsd:string ;
	bd:length "NN"^^xsd:string ;
	bd:format "???"^^xsd:string ;
	bd:notes "???"^^xsd:string ;
	bd:origin ""^^xsd:string ;
	bd:role "???"^^xsd:string ;
	bd:supplementalQualifier "false"^^xsd:string ;
	bd:used "false"^^xsd:string ;
.
mdrDomainsV1:V-AE_AEENTPT
	rdf:type bd:Variable ;
	bd:basedOn <http://rdf.cdisc.org/std/sdtmig-3-1-2#Column.AE.AEENTPT> ;
	rdfs:label "SDTM Variable"^^xsd:string ;
	bd:core "???"^^xsd:string ;
	bd:datatype "???"^^xsd:string ;
	bd:defaultCommentSet "false"^^xsd:string ;
	bd:defaultComment ""^^xsd:string ;
	bd:length "NN"^^xsd:string ;
	bd:format "???"^^xsd:string ;
	bd:notes "???"^^xsd:string ;
	bd:origin ""^^xsd:string ;
	bd:role "???"^^xsd:string ;
	bd:supplementalQualifier "false"^^xsd:string ;
	bd:used "false"^^xsd:string ;
.
mdrDomainsV1:V-AE_AEGRPID
	rdf:type bd:Variable ;
	bd:basedOn <http://rdf.cdisc.org/std/sdtmig-3-1-2#Column.AE.AEGRPID> ;
	rdfs:label "SDTM Variable"^^xsd:string ;
	bd:core "???"^^xsd:string ;
	bd:datatype "???"^^xsd:string ;
	bd:defaultCommentSet "false"^^xsd:string ;
	bd:defaultComment ""^^xsd:string ;
	bd:length "NN"^^xsd:string ;
	bd:format "???"^^xsd:string ;
	bd:notes "???"^^xsd:string ;
	bd:origin ""^^xsd:string ;
	bd:role "???"^^xsd:string ;
	bd:supplementalQualifier "false"^^xsd:string ;
	bd:used "false"^^xsd:string ;
.
mdrDomainsV1:V-AE_AELOC
	rdf:type bd:Variable ;
	bd:basedOn <http://rdf.cdisc.org/std/sdtmig-3-1-2#Column.AE.AELOC> ;
	rdfs:label "SDTM Variable"^^xsd:string ;
	bd:core "???"^^xsd:string ;
	bd:datatype "???"^^xsd:string ;
	bd:defaultCommentSet "false"^^xsd:string ;
	bd:defaultComment ""^^xsd:string ;
	bd:length "NN"^^xsd:string ;
	bd:format "???"^^xsd:string ;
	bd:notes "???"^^xsd:string ;
	bd:origin ""^^xsd:string ;
	bd:role "???"^^xsd:string ;
	bd:supplementalQualifier "false"^^xsd:string ;
	bd:used "false"^^xsd:string ;
.
mdrDomainsV1:V-AE_AEMODIFY
	rdf:type bd:Variable ;
	bd:basedOn <http://rdf.cdisc.org/std/sdtmig-3-1-2#Column.AE.AEMODIFY> ;
	rdfs:label "SDTM Variable"^^xsd:string ;
	bd:core "???"^^xsd:string ;
	bd:datatype "???"^^xsd:string ;
	bd:defaultCommentSet "false"^^xsd:string ;
	bd:defaultComment ""^^xsd:string ;
	bd:length "NN"^^xsd:string ;
	bd:format "???"^^xsd:string ;
	bd:notes "???"^^xsd:string ;
	bd:origin ""^^xsd:string ;
	bd:role "???"^^xsd:string ;
	bd:supplementalQualifier "false"^^xsd:string ;
	bd:used "false"^^xsd:string ;
.
mdrDomainsV1:V-AE_AEOUT
	rdf:type bd:Variable ;
	bd:basedOn <http://rdf.cdisc.org/std/sdtmig-3-1-2#Column.AE.AEOUT> ;
	rdfs:label "SDTM Variable"^^xsd:string ;
	bd:core "???"^^xsd:string ;
	bd:datatype "???"^^xsd:string ;
	bd:defaultCommentSet "false"^^xsd:string ;
	bd:defaultComment ""^^xsd:string ;
	bd:length "NN"^^xsd:string ;
	bd:format "???"^^xsd:string ;
	bd:notes "???"^^xsd:string ;
	bd:origin ""^^xsd:string ;
	bd:role "???"^^xsd:string ;
	bd:supplementalQualifier "false"^^xsd:string ;
	bd:used "false"^^xsd:string ;
.
mdrDomainsV1:V-AE_AEPATT
	rdf:type bd:Variable ;
	bd:basedOn <http://rdf.cdisc.org/std/sdtmig-3-1-2#Column.AE.AEPATT> ;
	rdfs:label "SDTM Variable"^^xsd:string ;
	bd:core "???"^^xsd:string ;
	bd:datatype "???"^^xsd:string ;
	bd:defaultCommentSet "false"^^xsd:string ;
	bd:defaultComment ""^^xsd:string ;
	bd:length "NN"^^xsd:string ;
	bd:format "???"^^xsd:string ;
	bd:notes "???"^^xsd:string ;
	bd:origin ""^^xsd:string ;
	bd:role "???"^^xsd:string ;
	bd:supplementalQualifier "false"^^xsd:string ;
	bd:used "false"^^xsd:string ;
.
mdrDomainsV1:V-AE_AEPRESP
	rdf:type bd:Variable ;
	bd:basedOn <http://rdf.cdisc.org/std/sdtmig-3-1-2#Column.AE.AEPRESP> ;
	rdfs:label "SDTM Variable"^^xsd:string ;
	bd:core "???"^^xsd:string ;
	bd:datatype "???"^^xsd:string ;
	bd:defaultCommentSet "false"^^xsd:string ;
	bd:defaultComment ""^^xsd:string ;
	bd:length "NN"^^xsd:string ;
	bd:format "???"^^xsd:string ;
	bd:notes "???"^^xsd:string ;
	bd:origin ""^^xsd:string ;
	bd:role "???"^^xsd:string ;
	bd:supplementalQualifier "false"^^xsd:string ;
	bd:used "false"^^xsd:string ;
.
mdrDomainsV1:V-AE_AEREFID
	rdf:type bd:Variable ;
	bd:basedOn <http://rdf.cdisc.org/std/sdtmig-3-1-2#Column.AE.AEREFID> ;
	rdfs:label "SDTM Variable"^^xsd:string ;
	bd:core "???"^^xsd:string ;
	bd:datatype "???"^^xsd:string ;
	bd:defaultCommentSet "false"^^xsd:string ;
	bd:defaultComment ""^^xsd:string ;
	bd:length "NN"^^xsd:string ;
	bd:format "???"^^xsd:string ;
	bd:notes "???"^^xsd:string ;
	bd:origin ""^^xsd:string ;
	bd:role "???"^^xsd:string ;
	bd:supplementalQualifier "false"^^xsd:string ;
	bd:used "false"^^xsd:string ;
.
mdrDomainsV1:V-AE_AEREL
	rdf:type bd:Variable ;
	bd:basedOn <http://rdf.cdisc.org/std/sdtmig-3-1-2#Column.AE.AEREL> ;
	rdfs:label "SDTM Variable"^^xsd:string ;
	bd:core "???"^^xsd:string ;
	bd:datatype "???"^^xsd:string ;
	bd:defaultCommentSet "false"^^xsd:string ;
	bd:defaultComment ""^^xsd:string ;
	bd:length "NN"^^xsd:string ;
	bd:format "???"^^xsd:string ;
	bd:notes "???"^^xsd:string ;
	bd:origin ""^^xsd:string ;
	bd:role "???"^^xsd:string ;
	bd:supplementalQualifier "false"^^xsd:string ;
	bd:used "false"^^xsd:string ;
.
mdrDomainsV1:V-AE_AERELNST
	rdf:type bd:Variable ;
	bd:basedOn <http://rdf.cdisc.org/std/sdtmig-3-1-2#Column.AE.AERELNST> ;
	rdfs:label "SDTM Variable"^^xsd:string ;
	bd:core "???"^^xsd:string ;
	bd:datatype "???"^^xsd:string ;
	bd:defaultCommentSet "false"^^xsd:string ;
	bd:defaultComment ""^^xsd:string ;
	bd:length "NN"^^xsd:string ;
	bd:format "???"^^xsd:string ;
	bd:notes "???"^^xsd:string ;
	bd:origin ""^^xsd:string ;
	bd:role "???"^^xsd:string ;
	bd:supplementalQualifier "false"^^xsd:string ;
	bd:used "false"^^xsd:string ;
.
mdrDomainsV1:V-AE_AESCAN
	rdf:type bd:Variable ;
	bd:basedOn <http://rdf.cdisc.org/std/sdtmig-3-1-2#Column.AE.AESCAN> ;
	rdfs:label "SDTM Variable"^^xsd:string ;
	bd:core "???"^^xsd:string ;
	bd:datatype "???"^^xsd:string ;
	bd:defaultCommentSet "false"^^xsd:string ;
	bd:defaultComment ""^^xsd:string ;
	bd:length "NN"^^xsd:string ;
	bd:format "???"^^xsd:string ;
	bd:notes "???"^^xsd:string ;
	bd:origin ""^^xsd:string ;
	bd:role "???"^^xsd:string ;
	bd:supplementalQualifier "false"^^xsd:string ;
	bd:used "false"^^xsd:string ;
.
mdrDomainsV1:V-AE_AESCAT
	rdf:type bd:Variable ;
	bd:basedOn <http://rdf.cdisc.org/std/sdtmig-3-1-2#Column.AE.AESCAT> ;
	rdfs:label "SDTM Variable"^^xsd:string ;
	bd:core "???"^^xsd:string ;
	bd:datatype "???"^^xsd:string ;
	bd:defaultCommentSet "false"^^xsd:string ;
	bd:defaultComment ""^^xsd:string ;
	bd:length "NN"^^xsd:string ;
	bd:format "???"^^xsd:string ;
	bd:notes "???"^^xsd:string ;
	bd:origin ""^^xsd:string ;
	bd:role "???"^^xsd:string ;
	bd:supplementalQualifier "false"^^xsd:string ;
	bd:used "false"^^xsd:string ;
.
mdrDomainsV1:V-AE_AESCONG
	rdf:type bd:Variable ;
	bd:basedOn <http://rdf.cdisc.org/std/sdtmig-3-1-2#Column.AE.AESCONG> ;
	rdfs:label "SDTM Variable"^^xsd:string ;
	bd:core "???"^^xsd:string ;
	bd:datatype "???"^^xsd:string ;
	bd:defaultCommentSet "false"^^xsd:string ;
	bd:defaultComment ""^^xsd:string ;
	bd:length "NN"^^xsd:string ;
	bd:format "???"^^xsd:string ;
	bd:notes "???"^^xsd:string ;
	bd:origin ""^^xsd:string ;
	bd:role "???"^^xsd:string ;
	bd:supplementalQualifier "false"^^xsd:string ;
	bd:used "false"^^xsd:string ;
.
mdrDomainsV1:V-AE_AESDISAB
	rdf:type bd:Variable ;
	bd:basedOn <http://rdf.cdisc.org/std/sdtmig-3-1-2#Column.AE.AESDISAB> ;
	rdfs:label "SDTM Variable"^^xsd:string ;
	bd:core "???"^^xsd:string ;
	bd:datatype "???"^^xsd:string ;
	bd:defaultCommentSet "false"^^xsd:string ;
	bd:defaultComment ""^^xsd:string ;
	bd:length "NN"^^xsd:string ;
	bd:format "???"^^xsd:string ;
	bd:notes "???"^^xsd:string ;
	bd:origin ""^^xsd:string ;
	bd:role "???"^^xsd:string ;
	bd:supplementalQualifier "false"^^xsd:string ;
	bd:used "false"^^xsd:string ;
.
mdrDomainsV1:V-AE_AESDTH
	rdf:type bd:Variable ;
	bd:basedOn <http://rdf.cdisc.org/std/sdtmig-3-1-2#Column.AE.AESDTH> ;
	rdfs:label "SDTM Variable"^^xsd:string ;
	bd:core "???"^^xsd:string ;
	bd:datatype "???"^^xsd:string ;
	bd:defaultCommentSet "false"^^xsd:string ;
	bd:defaultComment ""^^xsd:string ;
	bd:length "NN"^^xsd:string ;
	bd:format "???"^^xsd:string ;
	bd:notes "???"^^xsd:string ;
	bd:origin ""^^xsd:string ;
	bd:role "???"^^xsd:string ;
	bd:supplementalQualifier "false"^^xsd:string ;
	bd:used "false"^^xsd:string ;
.
mdrDomainsV1:V-AE_AESEQ
	rdf:type bd:Variable ;
	bd:basedOn <http://rdf.cdisc.org/std/sdtmig-3-1-2#Column.AE.AESEQ> ;
	rdfs:label "SDTM Variable"^^xsd:string ;
	bd:core "???"^^xsd:string ;
	bd:datatype "???"^^xsd:string ;
	bd:defaultCommentSet "false"^^xsd:string ;
	bd:defaultComment ""^^xsd:string ;
	bd:length "NN"^^xsd:string ;
	bd:format "???"^^xsd:string ;
	bd:notes "???"^^xsd:string ;
	bd:origin ""^^xsd:string ;
	bd:role "???"^^xsd:string ;
	bd:supplementalQualifier "false"^^xsd:string ;
	bd:used "false"^^xsd:string ;
.
mdrDomainsV1:V-AE_AESER
	rdf:type bd:Variable ;
	bd:basedOn <http://rdf.cdisc.org/std/sdtmig-3-1-2#Column.AE.AESER> ;
	rdfs:label "SDTM Variable"^^xsd:string ;
	bd:core "???"^^xsd:string ;
	bd:datatype "???"^^xsd:string ;
	bd:defaultCommentSet "false"^^xsd:string ;
	bd:defaultComment ""^^xsd:string ;
	bd:length "NN"^^xsd:string ;
	bd:format "???"^^xsd:string ;
	bd:notes "???"^^xsd:string ;
	bd:origin ""^^xsd:string ;
	bd:role "???"^^xsd:string ;
	bd:supplementalQualifier "false"^^xsd:string ;
	bd:used "false"^^xsd:string ;
.
mdrDomainsV1:V-AE_AESEV
	rdf:type bd:Variable ;
	bd:basedOn <http://rdf.cdisc.org/std/sdtmig-3-1-2#Column.AE.AESEV> ;
	rdfs:label "SDTM Variable"^^xsd:string ;
	bd:core "???"^^xsd:string ;
	bd:datatype "???"^^xsd:string ;
	bd:defaultCommentSet "false"^^xsd:string ;
	bd:defaultComment ""^^xsd:string ;
	bd:length "NN"^^xsd:string ;
	bd:format "???"^^xsd:string ;
	bd:notes "???"^^xsd:string ;
	bd:origin ""^^xsd:string ;
	bd:role "???"^^xsd:string ;
	bd:supplementalQualifier "false"^^xsd:string ;
	bd:used "false"^^xsd:string ;
.
mdrDomainsV1:V-AE_AESHOSP
	rdf:type bd:Variable ;
	bd:basedOn <http://rdf.cdisc.org/std/sdtmig-3-1-2#Column.AE.AESHOSP> ;
	rdfs:label "SDTM Variable"^^xsd:string ;
	bd:core "???"^^xsd:string ;
	bd:datatype "???"^^xsd:string ;
	bd:defaultCommentSet "false"^^xsd:string ;
	bd:defaultComment ""^^xsd:string ;
	bd:length "NN"^^xsd:string ;
	bd:format "???"^^xsd:string ;
	bd:notes "???"^^xsd:string ;
	bd:origin ""^^xsd:string ;
	bd:role "???"^^xsd:string ;
	bd:supplementalQualifier "false"^^xsd:string ;
	bd:used "false"^^xsd:string ;
.
mdrDomainsV1:V-AE_AESLIFE
	rdf:type bd:Variable ;
	bd:basedOn <http://rdf.cdisc.org/std/sdtmig-3-1-2#Column.AE.AESLIFE> ;
	rdfs:label "SDTM Variable"^^xsd:string ;
	bd:core "???"^^xsd:string ;
	bd:datatype "???"^^xsd:string ;
	bd:defaultCommentSet "false"^^xsd:string ;
	bd:defaultComment ""^^xsd:string ;
	bd:length "NN"^^xsd:string ;
	bd:format "???"^^xsd:string ;
	bd:notes "???"^^xsd:string ;
	bd:origin ""^^xsd:string ;
	bd:role "???"^^xsd:string ;
	bd:supplementalQualifier "false"^^xsd:string ;
	bd:used "false"^^xsd:string ;
.
mdrDomainsV1:V-AE_AESMIE
	rdf:type bd:Variable ;
	bd:basedOn <http://rdf.cdisc.org/std/sdtmig-3-1-2#Column.AE.AESMIE> ;
	rdfs:label "SDTM Variable"^^xsd:string ;
	bd:core "???"^^xsd:string ;
	bd:datatype "???"^^xsd:string ;
	bd:defaultCommentSet "false"^^xsd:string ;
	bd:defaultComment ""^^xsd:string ;
	bd:length "NN"^^xsd:string ;
	bd:format "???"^^xsd:string ;
	bd:notes "???"^^xsd:string ;
	bd:origin ""^^xsd:string ;
	bd:role "???"^^xsd:string ;
	bd:supplementalQualifier "false"^^xsd:string ;
	bd:used "false"^^xsd:string ;
.
mdrDomainsV1:V-AE_AESOD
	rdf:type bd:Variable ;
	bd:basedOn <http://rdf.cdisc.org/std/sdtmig-3-1-2#Column.AE.AESOD> ;
	rdfs:label "SDTM Variable"^^xsd:string ;
	bd:core "???"^^xsd:string ;
	bd:datatype "???"^^xsd:string ;
	bd:defaultCommentSet "false"^^xsd:string ;
	bd:defaultComment ""^^xsd:string ;
	bd:length "NN"^^xsd:string ;
	bd:format "???"^^xsd:string ;
	bd:notes "???"^^xsd:string ;
	bd:origin ""^^xsd:string ;
	bd:role "???"^^xsd:string ;
	bd:supplementalQualifier "false"^^xsd:string ;
	bd:used "false"^^xsd:string ;
.
mdrDomainsV1:V-AE_AESPID
	rdf:type bd:Variable ;
	bd:basedOn <http://rdf.cdisc.org/std/sdtmig-3-1-2#Column.AE.AESPID> ;
	rdfs:label "SDTM Variable"^^xsd:string ;
	bd:core "???"^^xsd:string ;
	bd:datatype "???"^^xsd:string ;
	bd:defaultCommentSet "false"^^xsd:string ;
	bd:defaultComment ""^^xsd:string ;
	bd:length "NN"^^xsd:string ;
	bd:format "???"^^xsd:string ;
	bd:notes "???"^^xsd:string ;
	bd:origin ""^^xsd:string ;
	bd:role "???"^^xsd:string ;
	bd:supplementalQualifier "false"^^xsd:string ;
	bd:used "false"^^xsd:string ;
.
mdrDomainsV1:V-AE_AESTDTC
	rdf:type bd:Variable ;
	bd:basedOn <http://rdf.cdisc.org/std/sdtmig-3-1-2#Column.AE.AESTDTC> ;
	rdfs:label "SDTM Variable"^^xsd:string ;
	bd:core "???"^^xsd:string ;
	bd:datatype "???"^^xsd:string ;
	bd:defaultCommentSet "false"^^xsd:string ;
	bd:defaultComment ""^^xsd:string ;
	bd:length "NN"^^xsd:string ;
	bd:format "???"^^xsd:string ;
	bd:notes "???"^^xsd:string ;
	bd:origin ""^^xsd:string ;
	bd:role "???"^^xsd:string ;
	bd:supplementalQualifier "false"^^xsd:string ;
	bd:used "false"^^xsd:string ;
.
mdrDomainsV1:V-AE_AESTDY
	rdf:type bd:Variable ;
	bd:basedOn <http://rdf.cdisc.org/std/sdtmig-3-1-2#Column.AE.AESTDY> ;
	rdfs:label "SDTM Variable"^^xsd:string ;
	bd:core "???"^^xsd:string ;
	bd:datatype "???"^^xsd:string ;
	bd:defaultCommentSet "false"^^xsd:string ;
	bd:defaultComment ""^^xsd:string ;
	bd:length "NN"^^xsd:string ;
	bd:format "???"^^xsd:string ;
	bd:notes "???"^^xsd:string ;
	bd:origin ""^^xsd:string ;
	bd:role "???"^^xsd:string ;
	bd:supplementalQualifier "false"^^xsd:string ;
	bd:used "false"^^xsd:string ;
.
mdrDomainsV1:V-AE_AETERM
	rdf:type bd:Variable ;
	bd:basedOn <http://rdf.cdisc.org/std/sdtmig-3-1-2#Column.AE.AETERM> ;
	rdfs:label "SDTM Variable"^^xsd:string ;
	bd:core "???"^^xsd:string ;
	bd:datatype "???"^^xsd:string ;
	bd:defaultCommentSet "false"^^xsd:string ;
	bd:defaultComment ""^^xsd:string ;
	bd:length "NN"^^xsd:string ;
	bd:format "???"^^xsd:string ;
	bd:notes "???"^^xsd:string ;
	bd:origin ""^^xsd:string ;
	bd:role "???"^^xsd:string ;
	bd:supplementalQualifier "false"^^xsd:string ;
	bd:used "false"^^xsd:string ;
.
mdrDomainsV1:V-AE_AETOXGR
	rdf:type bd:Variable ;
	bd:basedOn <http://rdf.cdisc.org/std/sdtmig-3-1-2#Column.AE.AETOXGR> ;
	rdfs:label "SDTM Variable"^^xsd:string ;
	bd:core "???"^^xsd:string ;
	bd:datatype "???"^^xsd:string ;
	bd:defaultCommentSet "false"^^xsd:string ;
	bd:defaultComment ""^^xsd:string ;
	bd:length "NN"^^xsd:string ;
	bd:format "???"^^xsd:string ;
	bd:notes "???"^^xsd:string ;
	bd:origin ""^^xsd:string ;
	bd:role "???"^^xsd:string ;
	bd:supplementalQualifier "false"^^xsd:string ;
	bd:used "false"^^xsd:string ;
.
mdrDomainsV1:V-AE_DOMAIN
	rdf:type bd:Variable ;
	bd:basedOn <http://rdf.cdisc.org/std/sdtmig-3-1-2#Column.AE.DOMAIN> ;
	rdfs:label "SDTM Variable"^^xsd:string ;
	bd:core "???"^^xsd:string ;
	bd:datatype "???"^^xsd:string ;
	bd:defaultCommentSet "false"^^xsd:string ;
	bd:defaultComment ""^^xsd:string ;
	bd:length "NN"^^xsd:string ;
	bd:format "???"^^xsd:string ;
	bd:notes "???"^^xsd:string ;
	bd:origin ""^^xsd:string ;
	bd:role "???"^^xsd:string ;
	bd:supplementalQualifier "false"^^xsd:string ;
	bd:used "false"^^xsd:string ;
.
mdrDomainsV1:V-AE_STUDYID
	rdf:type bd:Variable ;
	bd:basedOn <http://rdf.cdisc.org/std/sdtmig-3-1-2#Column.AE.STUDYID> ;
	rdfs:label "SDTM Variable"^^xsd:string ;
	bd:core "???"^^xsd:string ;
	bd:datatype "???"^^xsd:string ;
	bd:defaultCommentSet "false"^^xsd:string ;
	bd:defaultComment ""^^xsd:string ;
	bd:length "NN"^^xsd:string ;
	bd:format "???"^^xsd:string ;
	bd:notes "???"^^xsd:string ;
	bd:origin ""^^xsd:string ;
	bd:role "???"^^xsd:string ;
	bd:supplementalQualifier "false"^^xsd:string ;
	bd:used "false"^^xsd:string ;
.
mdrDomainsV1:V-AE_USUBJID
	rdf:type bd:Variable ;
	bd:basedOn <http://rdf.cdisc.org/std/sdtmig-3-1-2#Column.AE.USUBJID> ;
	rdfs:label "SDTM Variable"^^xsd:string ;
	bd:core "???"^^xsd:string ;
	bd:datatype "???"^^xsd:string ;
	bd:defaultCommentSet "false"^^xsd:string ;
	bd:defaultComment ""^^xsd:string ;
	bd:length "NN"^^xsd:string ;
	bd:format "???"^^xsd:string ;
	bd:notes "???"^^xsd:string ;
	bd:origin ""^^xsd:string ;
	bd:role "???"^^xsd:string ;
	bd:supplementalQualifier "false"^^xsd:string ;
	bd:used "false"^^xsd:string ;
.
mdrDomainsV1:V-CE_CEBODSYS
	rdf:type bd:Variable ;
	bd:basedOn <http://rdf.cdisc.org/std/sdtmig-3-1-2#Column.CE.CEBODSYS> ;
	rdfs:label "SDTM Variable"^^xsd:string ;
	bd:core "???"^^xsd:string ;
	bd:datatype "???"^^xsd:string ;
	bd:defaultCommentSet "false"^^xsd:string ;
	bd:defaultComment ""^^xsd:string ;
	bd:length "NN"^^xsd:string ;
	bd:format "???"^^xsd:string ;
	bd:notes "???"^^xsd:string ;
	bd:origin ""^^xsd:string ;
	bd:role "???"^^xsd:string ;
	bd:supplementalQualifier "false"^^xsd:string ;
	bd:used "false"^^xsd:string ;
.
mdrDomainsV1:V-CE_CECAT
	rdf:type bd:Variable ;
	bd:basedOn <http://rdf.cdisc.org/std/sdtmig-3-1-2#Column.CE.CECAT> ;
	rdfs:label "SDTM Variable"^^xsd:string ;
	bd:core "???"^^xsd:string ;
	bd:datatype "???"^^xsd:string ;
	bd:defaultCommentSet "false"^^xsd:string ;
	bd:defaultComment ""^^xsd:string ;
	bd:length "NN"^^xsd:string ;
	bd:format "???"^^xsd:string ;
	bd:notes "???"^^xsd:string ;
	bd:origin ""^^xsd:string ;
	bd:role "???"^^xsd:string ;
	bd:supplementalQualifier "false"^^xsd:string ;
	bd:used "false"^^xsd:string ;
.
mdrDomainsV1:V-CE_CEDECOD
	rdf:type bd:Variable ;
	bd:basedOn <http://rdf.cdisc.org/std/sdtmig-3-1-2#Column.CE.CEDECOD> ;
	rdfs:label "SDTM Variable"^^xsd:string ;
	bd:core "???"^^xsd:string ;
	bd:datatype "???"^^xsd:string ;
	bd:defaultCommentSet "false"^^xsd:string ;
	bd:defaultComment ""^^xsd:string ;
	bd:length "NN"^^xsd:string ;
	bd:format "???"^^xsd:string ;
	bd:notes "???"^^xsd:string ;
	bd:origin ""^^xsd:string ;
	bd:role "???"^^xsd:string ;
	bd:supplementalQualifier "false"^^xsd:string ;
	bd:used "false"^^xsd:string ;
.
mdrDomainsV1:V-CE_CEDTC
	rdf:type bd:Variable ;
	bd:basedOn <http://rdf.cdisc.org/std/sdtmig-3-1-2#Column.CE.CEDTC> ;
	rdfs:label "SDTM Variable"^^xsd:string ;
	bd:core "???"^^xsd:string ;
	bd:datatype "???"^^xsd:string ;
	bd:defaultCommentSet "false"^^xsd:string ;
	bd:defaultComment ""^^xsd:string ;
	bd:length "NN"^^xsd:string ;
	bd:format "???"^^xsd:string ;
	bd:notes "???"^^xsd:string ;
	bd:origin ""^^xsd:string ;
	bd:role "???"^^xsd:string ;
	bd:supplementalQualifier "false"^^xsd:string ;
	bd:used "false"^^xsd:string ;
.
mdrDomainsV1:V-CE_CEDY
	rdf:type bd:Variable ;
	bd:basedOn <http://rdf.cdisc.org/std/sdtmig-3-1-2#Column.CE.CEDY> ;
	rdfs:label "SDTM Variable"^^xsd:string ;
	bd:core "???"^^xsd:string ;
	bd:datatype "???"^^xsd:string ;
	bd:defaultCommentSet "false"^^xsd:string ;
	bd:defaultComment ""^^xsd:string ;
	bd:length "NN"^^xsd:string ;
	bd:format "???"^^xsd:string ;
	bd:notes "???"^^xsd:string ;
	bd:origin ""^^xsd:string ;
	bd:role "???"^^xsd:string ;
	bd:supplementalQualifier "false"^^xsd:string ;
	bd:used "false"^^xsd:string ;
.
mdrDomainsV1:V-CE_CEENDTC
	rdf:type bd:Variable ;
	bd:basedOn <http://rdf.cdisc.org/std/sdtmig-3-1-2#Column.CE.CEENDTC> ;
	rdfs:label "SDTM Variable"^^xsd:string ;
	bd:core "???"^^xsd:string ;
	bd:datatype "???"^^xsd:string ;
	bd:defaultCommentSet "false"^^xsd:string ;
	bd:defaultComment ""^^xsd:string ;
	bd:length "NN"^^xsd:string ;
	bd:format "???"^^xsd:string ;
	bd:notes "???"^^xsd:string ;
	bd:origin ""^^xsd:string ;
	bd:role "???"^^xsd:string ;
	bd:supplementalQualifier "false"^^xsd:string ;
	bd:used "false"^^xsd:string ;
.
mdrDomainsV1:V-CE_CEENRF
	rdf:type bd:Variable ;
	bd:basedOn <http://rdf.cdisc.org/std/sdtmig-3-1-2#Column.CE.CEENRF> ;
	rdfs:label "SDTM Variable"^^xsd:string ;
	bd:core "???"^^xsd:string ;
	bd:datatype "???"^^xsd:string ;
	bd:defaultCommentSet "false"^^xsd:string ;
	bd:defaultComment ""^^xsd:string ;
	bd:length "NN"^^xsd:string ;
	bd:format "???"^^xsd:string ;
	bd:notes "???"^^xsd:string ;
	bd:origin ""^^xsd:string ;
	bd:role "???"^^xsd:string ;
	bd:supplementalQualifier "false"^^xsd:string ;
	bd:used "false"^^xsd:string ;
.
mdrDomainsV1:V-CE_CEENRTPT
	rdf:type bd:Variable ;
	bd:basedOn <http://rdf.cdisc.org/std/sdtmig-3-1-2#Column.CE.CEENRTPT> ;
	rdfs:label "SDTM Variable"^^xsd:string ;
	bd:core "???"^^xsd:string ;
	bd:datatype "???"^^xsd:string ;
	bd:defaultCommentSet "false"^^xsd:string ;
	bd:defaultComment ""^^xsd:string ;
	bd:length "NN"^^xsd:string ;
	bd:format "???"^^xsd:string ;
	bd:notes "???"^^xsd:string ;
	bd:origin ""^^xsd:string ;
	bd:role "???"^^xsd:string ;
	bd:supplementalQualifier "false"^^xsd:string ;
	bd:used "false"^^xsd:string ;
.
mdrDomainsV1:V-CE_CEENTPT
	rdf:type bd:Variable ;
	bd:basedOn <http://rdf.cdisc.org/std/sdtmig-3-1-2#Column.CE.CEENTPT> ;
	rdfs:label "SDTM Variable"^^xsd:string ;
	bd:core "???"^^xsd:string ;
	bd:datatype "???"^^xsd:string ;
	bd:defaultCommentSet "false"^^xsd:string ;
	bd:defaultComment ""^^xsd:string ;
	bd:length "NN"^^xsd:string ;
	bd:format "???"^^xsd:string ;
	bd:notes "???"^^xsd:string ;
	bd:origin ""^^xsd:string ;
	bd:role "???"^^xsd:string ;
	bd:supplementalQualifier "false"^^xsd:string ;
	bd:used "false"^^xsd:string ;
.
mdrDomainsV1:V-CE_CEGRPID
	rdf:type bd:Variable ;
	bd:basedOn <http://rdf.cdisc.org/std/sdtmig-3-1-2#Column.CE.CEGRPID> ;
	rdfs:label "SDTM Variable"^^xsd:string ;
	bd:core "???"^^xsd:string ;
	bd:datatype "???"^^xsd:string ;
	bd:defaultCommentSet "false"^^xsd:string ;
	bd:defaultComment ""^^xsd:string ;
	bd:length "NN"^^xsd:string ;
	bd:format "???"^^xsd:string ;
	bd:notes "???"^^xsd:string ;
	bd:origin ""^^xsd:string ;
	bd:role "???"^^xsd:string ;
	bd:supplementalQualifier "false"^^xsd:string ;
	bd:used "false"^^xsd:string ;
.
mdrDomainsV1:V-CE_CEOCCUR
	rdf:type bd:Variable ;
	bd:basedOn <http://rdf.cdisc.org/std/sdtmig-3-1-2#Column.CE.CEOCCUR> ;
	rdfs:label "SDTM Variable"^^xsd:string ;
	bd:core "???"^^xsd:string ;
	bd:datatype "???"^^xsd:string ;
	bd:defaultCommentSet "false"^^xsd:string ;
	bd:defaultComment ""^^xsd:string ;
	bd:length "NN"^^xsd:string ;
	bd:format "???"^^xsd:string ;
	bd:notes "???"^^xsd:string ;
	bd:origin ""^^xsd:string ;
	bd:role "???"^^xsd:string ;
	bd:supplementalQualifier "false"^^xsd:string ;
	bd:used "false"^^xsd:string ;
.
mdrDomainsV1:V-CE_CEPRESP
	rdf:type bd:Variable ;
	bd:basedOn <http://rdf.cdisc.org/std/sdtmig-3-1-2#Column.CE.CEPRESP> ;
	rdfs:label "SDTM Variable"^^xsd:string ;
	bd:core "???"^^xsd:string ;
	bd:datatype "???"^^xsd:string ;
	bd:defaultCommentSet "false"^^xsd:string ;
	bd:defaultComment ""^^xsd:string ;
	bd:length "NN"^^xsd:string ;
	bd:format "???"^^xsd:string ;
	bd:notes "???"^^xsd:string ;
	bd:origin ""^^xsd:string ;
	bd:role "???"^^xsd:string ;
	bd:supplementalQualifier "false"^^xsd:string ;
	bd:used "false"^^xsd:string ;
.
mdrDomainsV1:V-CE_CEREASND
	rdf:type bd:Variable ;
	bd:basedOn <http://rdf.cdisc.org/std/sdtmig-3-1-2#Column.CE.CEREASND> ;
	rdfs:label "SDTM Variable"^^xsd:string ;
	bd:core "???"^^xsd:string ;
	bd:datatype "???"^^xsd:string ;
	bd:defaultCommentSet "false"^^xsd:string ;
	bd:defaultComment ""^^xsd:string ;
	bd:length "NN"^^xsd:string ;
	bd:format "???"^^xsd:string ;
	bd:notes "???"^^xsd:string ;
	bd:origin ""^^xsd:string ;
	bd:role "???"^^xsd:string ;
	bd:supplementalQualifier "false"^^xsd:string ;
	bd:used "false"^^xsd:string ;
.
mdrDomainsV1:V-CE_CEREFID
	rdf:type bd:Variable ;
	bd:basedOn <http://rdf.cdisc.org/std/sdtmig-3-1-2#Column.CE.CEREFID> ;
	rdfs:label "SDTM Variable"^^xsd:string ;
	bd:core "???"^^xsd:string ;
	bd:datatype "???"^^xsd:string ;
	bd:defaultCommentSet "false"^^xsd:string ;
	bd:defaultComment ""^^xsd:string ;
	bd:length "NN"^^xsd:string ;
	bd:format "???"^^xsd:string ;
	bd:notes "???"^^xsd:string ;
	bd:origin ""^^xsd:string ;
	bd:role "???"^^xsd:string ;
	bd:supplementalQualifier "false"^^xsd:string ;
	bd:used "false"^^xsd:string ;
.
mdrDomainsV1:V-CE_CESCAT
	rdf:type bd:Variable ;
	bd:basedOn <http://rdf.cdisc.org/std/sdtmig-3-1-2#Column.CE.CESCAT> ;
	rdfs:label "SDTM Variable"^^xsd:string ;
	bd:core "???"^^xsd:string ;
	bd:datatype "???"^^xsd:string ;
	bd:defaultCommentSet "false"^^xsd:string ;
	bd:defaultComment ""^^xsd:string ;
	bd:length "NN"^^xsd:string ;
	bd:format "???"^^xsd:string ;
	bd:notes "???"^^xsd:string ;
	bd:origin ""^^xsd:string ;
	bd:role "???"^^xsd:string ;
	bd:supplementalQualifier "false"^^xsd:string ;
	bd:used "false"^^xsd:string ;
.
mdrDomainsV1:V-CE_CESEQ
	rdf:type bd:Variable ;
	bd:basedOn <http://rdf.cdisc.org/std/sdtmig-3-1-2#Column.CE.CESEQ> ;
	rdfs:label "SDTM Variable"^^xsd:string ;
	bd:core "???"^^xsd:string ;
	bd:datatype "???"^^xsd:string ;
	bd:defaultCommentSet "false"^^xsd:string ;
	bd:defaultComment ""^^xsd:string ;
	bd:length "NN"^^xsd:string ;
	bd:format "???"^^xsd:string ;
	bd:notes "???"^^xsd:string ;
	bd:origin ""^^xsd:string ;
	bd:role "???"^^xsd:string ;
	bd:supplementalQualifier "false"^^xsd:string ;
	bd:used "false"^^xsd:string ;
.
mdrDomainsV1:V-CE_CESEV
	rdf:type bd:Variable ;
	bd:basedOn <http://rdf.cdisc.org/std/sdtmig-3-1-2#Column.CE.CESEV> ;
	rdfs:label "SDTM Variable"^^xsd:string ;
	bd:core "???"^^xsd:string ;
	bd:datatype "???"^^xsd:string ;
	bd:defaultCommentSet "false"^^xsd:string ;
	bd:defaultComment ""^^xsd:string ;
	bd:length "NN"^^xsd:string ;
	bd:format "???"^^xsd:string ;
	bd:notes "???"^^xsd:string ;
	bd:origin ""^^xsd:string ;
	bd:role "???"^^xsd:string ;
	bd:supplementalQualifier "false"^^xsd:string ;
	bd:used "false"^^xsd:string ;
.
mdrDomainsV1:V-CE_CESPID
	rdf:type bd:Variable ;
	bd:basedOn <http://rdf.cdisc.org/std/sdtmig-3-1-2#Column.CE.CESPID> ;
	rdfs:label "SDTM Variable"^^xsd:string ;
	bd:core "???"^^xsd:string ;
	bd:datatype "???"^^xsd:string ;
	bd:defaultCommentSet "false"^^xsd:string ;
	bd:defaultComment ""^^xsd:string ;
	bd:length "NN"^^xsd:string ;
	bd:format "???"^^xsd:string ;
	bd:notes "???"^^xsd:string ;
	bd:origin ""^^xsd:string ;
	bd:role "???"^^xsd:string ;
	bd:supplementalQualifier "false"^^xsd:string ;
	bd:used "false"^^xsd:string ;
.
mdrDomainsV1:V-CE_CESTAT
	rdf:type bd:Variable ;
	bd:basedOn <http://rdf.cdisc.org/std/sdtmig-3-1-2#Column.CE.CESTAT> ;
	rdfs:label "SDTM Variable"^^xsd:string ;
	bd:core "???"^^xsd:string ;
	bd:datatype "???"^^xsd:string ;
	bd:defaultCommentSet "false"^^xsd:string ;
	bd:defaultComment ""^^xsd:string ;
	bd:length "NN"^^xsd:string ;
	bd:format "???"^^xsd:string ;
	bd:notes "???"^^xsd:string ;
	bd:origin ""^^xsd:string ;
	bd:role "???"^^xsd:string ;
	bd:supplementalQualifier "false"^^xsd:string ;
	bd:used "false"^^xsd:string ;
.
mdrDomainsV1:V-CE_CESTDTC
	rdf:type bd:Variable ;
	bd:basedOn <http://rdf.cdisc.org/std/sdtmig-3-1-2#Column.CE.CESTDTC> ;
	rdfs:label "SDTM Variable"^^xsd:string ;
	bd:core "???"^^xsd:string ;
	bd:datatype "???"^^xsd:string ;
	bd:defaultCommentSet "false"^^xsd:string ;
	bd:defaultComment ""^^xsd:string ;
	bd:length "NN"^^xsd:string ;
	bd:format "???"^^xsd:string ;
	bd:notes "???"^^xsd:string ;
	bd:origin ""^^xsd:string ;
	bd:role "???"^^xsd:string ;
	bd:supplementalQualifier "false"^^xsd:string ;
	bd:used "false"^^xsd:string ;
.
mdrDomainsV1:V-CE_CESTRF
	rdf:type bd:Variable ;
	bd:basedOn <http://rdf.cdisc.org/std/sdtmig-3-1-2#Column.CE.CESTRF> ;
	rdfs:label "SDTM Variable"^^xsd:string ;
	bd:core "???"^^xsd:string ;
	bd:datatype "???"^^xsd:string ;
	bd:defaultCommentSet "false"^^xsd:string ;
	bd:defaultComment ""^^xsd:string ;
	bd:length "NN"^^xsd:string ;
	bd:format "???"^^xsd:string ;
	bd:notes "???"^^xsd:string ;
	bd:origin ""^^xsd:string ;
	bd:role "???"^^xsd:string ;
	bd:supplementalQualifier "false"^^xsd:string ;
	bd:used "false"^^xsd:string ;
.
mdrDomainsV1:V-CE_CESTRTPT
	rdf:type bd:Variable ;
	bd:basedOn <http://rdf.cdisc.org/std/sdtmig-3-1-2#Column.CE.CESTRTPT> ;
	rdfs:label "SDTM Variable"^^xsd:string ;
	bd:core "???"^^xsd:string ;
	bd:datatype "???"^^xsd:string ;
	bd:defaultCommentSet "false"^^xsd:string ;
	bd:defaultComment ""^^xsd:string ;
	bd:length "NN"^^xsd:string ;
	bd:format "???"^^xsd:string ;
	bd:notes "???"^^xsd:string ;
	bd:origin ""^^xsd:string ;
	bd:role "???"^^xsd:string ;
	bd:supplementalQualifier "false"^^xsd:string ;
	bd:used "false"^^xsd:string ;
.
mdrDomainsV1:V-CE_CESTTPT
	rdf:type bd:Variable ;
	bd:basedOn <http://rdf.cdisc.org/std/sdtmig-3-1-2#Column.CE.CESTTPT> ;
	rdfs:label "SDTM Variable"^^xsd:string ;
	bd:core "???"^^xsd:string ;
	bd:datatype "???"^^xsd:string ;
	bd:defaultCommentSet "false"^^xsd:string ;
	bd:defaultComment ""^^xsd:string ;
	bd:length "NN"^^xsd:string ;
	bd:format "???"^^xsd:string ;
	bd:notes "???"^^xsd:string ;
	bd:origin ""^^xsd:string ;
	bd:role "???"^^xsd:string ;
	bd:supplementalQualifier "false"^^xsd:string ;
	bd:used "false"^^xsd:string ;
.
mdrDomainsV1:V-CE_CETERM
	rdf:type bd:Variable ;
	bd:basedOn <http://rdf.cdisc.org/std/sdtmig-3-1-2#Column.CE.CETERM> ;
	rdfs:label "SDTM Variable"^^xsd:string ;
	bd:core "???"^^xsd:string ;
	bd:datatype "???"^^xsd:string ;
	bd:defaultCommentSet "false"^^xsd:string ;
	bd:defaultComment ""^^xsd:string ;
	bd:length "NN"^^xsd:string ;
	bd:format "???"^^xsd:string ;
	bd:notes "???"^^xsd:string ;
	bd:origin ""^^xsd:string ;
	bd:role "???"^^xsd:string ;
	bd:supplementalQualifier "false"^^xsd:string ;
	bd:used "false"^^xsd:string ;
.
mdrDomainsV1:V-CE_DOMAIN
	rdf:type bd:Variable ;
	bd:basedOn <http://rdf.cdisc.org/std/sdtmig-3-1-2#Column.CE.DOMAIN> ;
	rdfs:label "SDTM Variable"^^xsd:string ;
	bd:core "???"^^xsd:string ;
	bd:datatype "???"^^xsd:string ;
	bd:defaultCommentSet "false"^^xsd:string ;
	bd:defaultComment ""^^xsd:string ;
	bd:length "NN"^^xsd:string ;
	bd:format "???"^^xsd:string ;
	bd:notes "???"^^xsd:string ;
	bd:origin ""^^xsd:string ;
	bd:role "???"^^xsd:string ;
	bd:supplementalQualifier "false"^^xsd:string ;
	bd:used "false"^^xsd:string ;
.
mdrDomainsV1:V-CE_STUDYID
	rdf:type bd:Variable ;
	bd:basedOn <http://rdf.cdisc.org/std/sdtmig-3-1-2#Column.CE.STUDYID> ;
	rdfs:label "SDTM Variable"^^xsd:string ;
	bd:core "???"^^xsd:string ;
	bd:datatype "???"^^xsd:string ;
	bd:defaultCommentSet "false"^^xsd:string ;
	bd:defaultComment ""^^xsd:string ;
	bd:length "NN"^^xsd:string ;
	bd:format "???"^^xsd:string ;
	bd:notes "???"^^xsd:string ;
	bd:origin ""^^xsd:string ;
	bd:role "???"^^xsd:string ;
	bd:supplementalQualifier "false"^^xsd:string ;
	bd:used "false"^^xsd:string ;
.
mdrDomainsV1:V-CE_USUBJID
	rdf:type bd:Variable ;
	bd:basedOn <http://rdf.cdisc.org/std/sdtmig-3-1-2#Column.CE.USUBJID> ;
	rdfs:label "SDTM Variable"^^xsd:string ;
	bd:core "???"^^xsd:string ;
	bd:datatype "???"^^xsd:string ;
	bd:defaultCommentSet "false"^^xsd:string ;
	bd:defaultComment ""^^xsd:string ;
	bd:length "NN"^^xsd:string ;
	bd:format "???"^^xsd:string ;
	bd:notes "???"^^xsd:string ;
	bd:origin ""^^xsd:string ;
	bd:role "???"^^xsd:string ;
	bd:supplementalQualifier "false"^^xsd:string ;
	bd:used "false"^^xsd:string ;
.
mdrDomainsV1:V-CO_CODTC
	rdf:type bd:Variable ;
	bd:basedOn <http://rdf.cdisc.org/std/sdtmig-3-1-2#Column.CO.CODTC> ;
	rdfs:label "SDTM Variable"^^xsd:string ;
	bd:core "???"^^xsd:string ;
	bd:datatype "???"^^xsd:string ;
	bd:defaultCommentSet "false"^^xsd:string ;
	bd:defaultComment ""^^xsd:string ;
	bd:length "NN"^^xsd:string ;
	bd:format "???"^^xsd:string ;
	bd:notes "???"^^xsd:string ;
	bd:origin ""^^xsd:string ;
	bd:role "???"^^xsd:string ;
	bd:supplementalQualifier "false"^^xsd:string ;
	bd:used "false"^^xsd:string ;
.
mdrDomainsV1:V-CO_COEVAL
	rdf:type bd:Variable ;
	bd:basedOn <http://rdf.cdisc.org/std/sdtmig-3-1-2#Column.CO.COEVAL> ;
	rdfs:label "SDTM Variable"^^xsd:string ;
	bd:core "???"^^xsd:string ;
	bd:datatype "???"^^xsd:string ;
	bd:defaultCommentSet "false"^^xsd:string ;
	bd:defaultComment ""^^xsd:string ;
	bd:length "NN"^^xsd:string ;
	bd:format "???"^^xsd:string ;
	bd:notes "???"^^xsd:string ;
	bd:origin ""^^xsd:string ;
	bd:role "???"^^xsd:string ;
	bd:supplementalQualifier "false"^^xsd:string ;
	bd:used "false"^^xsd:string ;
.
mdrDomainsV1:V-CO_COREF
	rdf:type bd:Variable ;
	bd:basedOn <http://rdf.cdisc.org/std/sdtmig-3-1-2#Column.CO.COREF> ;
	rdfs:label "SDTM Variable"^^xsd:string ;
	bd:core "???"^^xsd:string ;
	bd:datatype "???"^^xsd:string ;
	bd:defaultCommentSet "false"^^xsd:string ;
	bd:defaultComment ""^^xsd:string ;
	bd:length "NN"^^xsd:string ;
	bd:format "???"^^xsd:string ;
	bd:notes "???"^^xsd:string ;
	bd:origin ""^^xsd:string ;
	bd:role "???"^^xsd:string ;
	bd:supplementalQualifier "false"^^xsd:string ;
	bd:used "false"^^xsd:string ;
.
mdrDomainsV1:V-CO_COSEQ
	rdf:type bd:Variable ;
	bd:basedOn <http://rdf.cdisc.org/std/sdtmig-3-1-2#Column.CO.COSEQ> ;
	rdfs:label "SDTM Variable"^^xsd:string ;
	bd:core "???"^^xsd:string ;
	bd:datatype "???"^^xsd:string ;
	bd:defaultCommentSet "false"^^xsd:string ;
	bd:defaultComment ""^^xsd:string ;
	bd:length "NN"^^xsd:string ;
	bd:format "???"^^xsd:string ;
	bd:notes "???"^^xsd:string ;
	bd:origin ""^^xsd:string ;
	bd:role "???"^^xsd:string ;
	bd:supplementalQualifier "false"^^xsd:string ;
	bd:used "false"^^xsd:string ;
.
mdrDomainsV1:V-CO_COVAL
	rdf:type bd:Variable ;
	bd:basedOn <http://rdf.cdisc.org/std/sdtmig-3-1-2#Column.CO.COVAL> ;
	rdfs:label "SDTM Variable"^^xsd:string ;
	bd:core "???"^^xsd:string ;
	bd:datatype "???"^^xsd:string ;
	bd:defaultCommentSet "false"^^xsd:string ;
	bd:defaultComment ""^^xsd:string ;
	bd:length "NN"^^xsd:string ;
	bd:format "???"^^xsd:string ;
	bd:notes "???"^^xsd:string ;
	bd:origin ""^^xsd:string ;
	bd:role "???"^^xsd:string ;
	bd:supplementalQualifier "false"^^xsd:string ;
	bd:used "false"^^xsd:string ;
.
mdrDomainsV1:V-CO_DOMAIN
	rdf:type bd:Variable ;
	bd:basedOn <http://rdf.cdisc.org/std/sdtmig-3-1-2#Column.CO.DOMAIN> ;
	rdfs:label "SDTM Variable"^^xsd:string ;
	bd:core "???"^^xsd:string ;
	bd:datatype "???"^^xsd:string ;
	bd:defaultCommentSet "false"^^xsd:string ;
	bd:defaultComment ""^^xsd:string ;
	bd:length "NN"^^xsd:string ;
	bd:format "???"^^xsd:string ;
	bd:notes "???"^^xsd:string ;
	bd:origin ""^^xsd:string ;
	bd:role "???"^^xsd:string ;
	bd:supplementalQualifier "false"^^xsd:string ;
	bd:used "false"^^xsd:string ;
.
mdrDomainsV1:V-CO_IDVAR
	rdf:type bd:Variable ;
	bd:basedOn <http://rdf.cdisc.org/std/sdtmig-3-1-2#Column.CO.IDVAR> ;
	rdfs:label "SDTM Variable"^^xsd:string ;
	bd:core "???"^^xsd:string ;
	bd:datatype "???"^^xsd:string ;
	bd:defaultCommentSet "false"^^xsd:string ;
	bd:defaultComment ""^^xsd:string ;
	bd:length "NN"^^xsd:string ;
	bd:format "???"^^xsd:string ;
	bd:notes "???"^^xsd:string ;
	bd:origin ""^^xsd:string ;
	bd:role "???"^^xsd:string ;
	bd:supplementalQualifier "false"^^xsd:string ;
	bd:used "false"^^xsd:string ;
.
mdrDomainsV1:V-CO_IDVARVAL
	rdf:type bd:Variable ;
	bd:basedOn <http://rdf.cdisc.org/std/sdtmig-3-1-2#Column.CO.IDVARVAL> ;
	rdfs:label "SDTM Variable"^^xsd:string ;
	bd:core "???"^^xsd:string ;
	bd:datatype "???"^^xsd:string ;
	bd:defaultCommentSet "false"^^xsd:string ;
	bd:defaultComment ""^^xsd:string ;
	bd:length "NN"^^xsd:string ;
	bd:format "???"^^xsd:string ;
	bd:notes "???"^^xsd:string ;
	bd:origin ""^^xsd:string ;
	bd:role "???"^^xsd:string ;
	bd:supplementalQualifier "false"^^xsd:string ;
	bd:used "false"^^xsd:string ;
.
mdrDomainsV1:V-CO_RDOMAIN
	rdf:type bd:Variable ;
	bd:basedOn <http://rdf.cdisc.org/std/sdtmig-3-1-2#Column.CO.RDOMAIN> ;
	rdfs:label "SDTM Variable"^^xsd:string ;
	bd:core "???"^^xsd:string ;
	bd:datatype "???"^^xsd:string ;
	bd:defaultCommentSet "false"^^xsd:string ;
	bd:defaultComment ""^^xsd:string ;
	bd:length "NN"^^xsd:string ;
	bd:format "???"^^xsd:string ;
	bd:notes "???"^^xsd:string ;
	bd:origin ""^^xsd:string ;
	bd:role "???"^^xsd:string ;
	bd:supplementalQualifier "false"^^xsd:string ;
	bd:used "false"^^xsd:string ;
.
mdrDomainsV1:V-CO_STUDYID
	rdf:type bd:Variable ;
	bd:basedOn <http://rdf.cdisc.org/std/sdtmig-3-1-2#Column.CO.STUDYID> ;
	rdfs:label "SDTM Variable"^^xsd:string ;
	bd:core "???"^^xsd:string ;
	bd:datatype "???"^^xsd:string ;
	bd:defaultCommentSet "false"^^xsd:string ;
	bd:defaultComment ""^^xsd:string ;
	bd:length "NN"^^xsd:string ;
	bd:format "???"^^xsd:string ;
	bd:notes "???"^^xsd:string ;
	bd:origin ""^^xsd:string ;
	bd:role "???"^^xsd:string ;
	bd:supplementalQualifier "false"^^xsd:string ;
	bd:used "false"^^xsd:string ;
.
mdrDomainsV1:V-CO_USUBJID
	rdf:type bd:Variable ;
	bd:basedOn <http://rdf.cdisc.org/std/sdtmig-3-1-2#Column.CO.USUBJID> ;
	rdfs:label "SDTM Variable"^^xsd:string ;
	bd:core "???"^^xsd:string ;
	bd:datatype "???"^^xsd:string ;
	bd:defaultCommentSet "false"^^xsd:string ;
	bd:defaultComment ""^^xsd:string ;
	bd:length "NN"^^xsd:string ;
	bd:format "???"^^xsd:string ;
	bd:notes "???"^^xsd:string ;
	bd:origin ""^^xsd:string ;
	bd:role "???"^^xsd:string ;
	bd:supplementalQualifier "false"^^xsd:string ;
	bd:used "false"^^xsd:string ;
.
mdrDomainsV1:V-CM_CMCAT
	rdf:type bd:Variable ;
	bd:basedOn <http://rdf.cdisc.org/std/sdtmig-3-1-2#Column.CM.CMCAT> ;
	rdfs:label "SDTM Variable"^^xsd:string ;
	bd:core "???"^^xsd:string ;
	bd:datatype "???"^^xsd:string ;
	bd:defaultCommentSet "false"^^xsd:string ;
	bd:defaultComment ""^^xsd:string ;
	bd:length "NN"^^xsd:string ;
	bd:format "???"^^xsd:string ;
	bd:notes "???"^^xsd:string ;
	bd:origin ""^^xsd:string ;
	bd:role "???"^^xsd:string ;
	bd:supplementalQualifier "false"^^xsd:string ;
	bd:used "false"^^xsd:string ;
.
mdrDomainsV1:V-CM_CMCLAS
	rdf:type bd:Variable ;
	bd:basedOn <http://rdf.cdisc.org/std/sdtmig-3-1-2#Column.CM.CMCLAS> ;
	rdfs:label "SDTM Variable"^^xsd:string ;
	bd:core "???"^^xsd:string ;
	bd:datatype "???"^^xsd:string ;
	bd:defaultCommentSet "false"^^xsd:string ;
	bd:defaultComment ""^^xsd:string ;
	bd:length "NN"^^xsd:string ;
	bd:format "???"^^xsd:string ;
	bd:notes "???"^^xsd:string ;
	bd:origin ""^^xsd:string ;
	bd:role "???"^^xsd:string ;
	bd:supplementalQualifier "false"^^xsd:string ;
	bd:used "false"^^xsd:string ;
.
mdrDomainsV1:V-CM_CMCLASCD
	rdf:type bd:Variable ;
	bd:basedOn <http://rdf.cdisc.org/std/sdtmig-3-1-2#Column.CM.CMCLASCD> ;
	rdfs:label "SDTM Variable"^^xsd:string ;
	bd:core "???"^^xsd:string ;
	bd:datatype "???"^^xsd:string ;
	bd:defaultCommentSet "false"^^xsd:string ;
	bd:defaultComment ""^^xsd:string ;
	bd:length "NN"^^xsd:string ;
	bd:format "???"^^xsd:string ;
	bd:notes "???"^^xsd:string ;
	bd:origin ""^^xsd:string ;
	bd:role "???"^^xsd:string ;
	bd:supplementalQualifier "false"^^xsd:string ;
	bd:used "false"^^xsd:string ;
.
mdrDomainsV1:V-CM_CMDECOD
	rdf:type bd:Variable ;
	bd:basedOn <http://rdf.cdisc.org/std/sdtmig-3-1-2#Column.CM.CMDECOD> ;
	rdfs:label "SDTM Variable"^^xsd:string ;
	bd:core "???"^^xsd:string ;
	bd:datatype "???"^^xsd:string ;
	bd:defaultCommentSet "false"^^xsd:string ;
	bd:defaultComment ""^^xsd:string ;
	bd:length "NN"^^xsd:string ;
	bd:format "???"^^xsd:string ;
	bd:notes "???"^^xsd:string ;
	bd:origin ""^^xsd:string ;
	bd:role "???"^^xsd:string ;
	bd:supplementalQualifier "false"^^xsd:string ;
	bd:used "false"^^xsd:string ;
.
mdrDomainsV1:V-CM_CMDOSE
	rdf:type bd:Variable ;
	bd:basedOn <http://rdf.cdisc.org/std/sdtmig-3-1-2#Column.CM.CMDOSE> ;
	rdfs:label "SDTM Variable"^^xsd:string ;
	bd:core "???"^^xsd:string ;
	bd:datatype "???"^^xsd:string ;
	bd:defaultCommentSet "false"^^xsd:string ;
	bd:defaultComment ""^^xsd:string ;
	bd:length "NN"^^xsd:string ;
	bd:format "???"^^xsd:string ;
	bd:notes "???"^^xsd:string ;
	bd:origin ""^^xsd:string ;
	bd:role "???"^^xsd:string ;
	bd:supplementalQualifier "false"^^xsd:string ;
	bd:used "false"^^xsd:string ;
.
mdrDomainsV1:V-CM_CMDOSFRM
	rdf:type bd:Variable ;
	bd:basedOn <http://rdf.cdisc.org/std/sdtmig-3-1-2#Column.CM.CMDOSFRM> ;
	rdfs:label "SDTM Variable"^^xsd:string ;
	bd:core "???"^^xsd:string ;
	bd:datatype "???"^^xsd:string ;
	bd:defaultCommentSet "false"^^xsd:string ;
	bd:defaultComment ""^^xsd:string ;
	bd:length "NN"^^xsd:string ;
	bd:format "???"^^xsd:string ;
	bd:notes "???"^^xsd:string ;
	bd:origin ""^^xsd:string ;
	bd:role "???"^^xsd:string ;
	bd:supplementalQualifier "false"^^xsd:string ;
	bd:used "false"^^xsd:string ;
.
mdrDomainsV1:V-CM_CMDOSFRQ
	rdf:type bd:Variable ;
	bd:basedOn <http://rdf.cdisc.org/std/sdtmig-3-1-2#Column.CM.CMDOSFRQ> ;
	rdfs:label "SDTM Variable"^^xsd:string ;
	bd:core "???"^^xsd:string ;
	bd:datatype "???"^^xsd:string ;
	bd:defaultCommentSet "false"^^xsd:string ;
	bd:defaultComment ""^^xsd:string ;
	bd:length "NN"^^xsd:string ;
	bd:format "???"^^xsd:string ;
	bd:notes "???"^^xsd:string ;
	bd:origin ""^^xsd:string ;
	bd:role "???"^^xsd:string ;
	bd:supplementalQualifier "false"^^xsd:string ;
	bd:used "false"^^xsd:string ;
.
mdrDomainsV1:V-CM_CMDOSRGM
	rdf:type bd:Variable ;
	bd:basedOn <http://rdf.cdisc.org/std/sdtmig-3-1-2#Column.CM.CMDOSRGM> ;
	rdfs:label "SDTM Variable"^^xsd:string ;
	bd:core "???"^^xsd:string ;
	bd:datatype "???"^^xsd:string ;
	bd:defaultCommentSet "false"^^xsd:string ;
	bd:defaultComment ""^^xsd:string ;
	bd:length "NN"^^xsd:string ;
	bd:format "???"^^xsd:string ;
	bd:notes "???"^^xsd:string ;
	bd:origin ""^^xsd:string ;
	bd:role "???"^^xsd:string ;
	bd:supplementalQualifier "false"^^xsd:string ;
	bd:used "false"^^xsd:string ;
.
mdrDomainsV1:V-CM_CMDOSTOT
	rdf:type bd:Variable ;
	bd:basedOn <http://rdf.cdisc.org/std/sdtmig-3-1-2#Column.CM.CMDOSTOT> ;
	rdfs:label "SDTM Variable"^^xsd:string ;
	bd:core "???"^^xsd:string ;
	bd:datatype "???"^^xsd:string ;
	bd:defaultCommentSet "false"^^xsd:string ;
	bd:defaultComment ""^^xsd:string ;
	bd:length "NN"^^xsd:string ;
	bd:format "???"^^xsd:string ;
	bd:notes "???"^^xsd:string ;
	bd:origin ""^^xsd:string ;
	bd:role "???"^^xsd:string ;
	bd:supplementalQualifier "false"^^xsd:string ;
	bd:used "false"^^xsd:string ;
.
mdrDomainsV1:V-CM_CMDOSTXT
	rdf:type bd:Variable ;
	bd:basedOn <http://rdf.cdisc.org/std/sdtmig-3-1-2#Column.CM.CMDOSTXT> ;
	rdfs:label "SDTM Variable"^^xsd:string ;
	bd:core "???"^^xsd:string ;
	bd:datatype "???"^^xsd:string ;
	bd:defaultCommentSet "false"^^xsd:string ;
	bd:defaultComment ""^^xsd:string ;
	bd:length "NN"^^xsd:string ;
	bd:format "???"^^xsd:string ;
	bd:notes "???"^^xsd:string ;
	bd:origin ""^^xsd:string ;
	bd:role "???"^^xsd:string ;
	bd:supplementalQualifier "false"^^xsd:string ;
	bd:used "false"^^xsd:string ;
.
mdrDomainsV1:V-CM_CMDOSU
	rdf:type bd:Variable ;
	bd:basedOn <http://rdf.cdisc.org/std/sdtmig-3-1-2#Column.CM.CMDOSU> ;
	rdfs:label "SDTM Variable"^^xsd:string ;
	bd:core "???"^^xsd:string ;
	bd:datatype "???"^^xsd:string ;
	bd:defaultCommentSet "false"^^xsd:string ;
	bd:defaultComment ""^^xsd:string ;
	bd:length "NN"^^xsd:string ;
	bd:format "???"^^xsd:string ;
	bd:notes "???"^^xsd:string ;
	bd:origin ""^^xsd:string ;
	bd:role "???"^^xsd:string ;
	bd:supplementalQualifier "false"^^xsd:string ;
	bd:used "false"^^xsd:string ;
.
mdrDomainsV1:V-CM_CMDUR
	rdf:type bd:Variable ;
	bd:basedOn <http://rdf.cdisc.org/std/sdtmig-3-1-2#Column.CM.CMDUR> ;
	rdfs:label "SDTM Variable"^^xsd:string ;
	bd:core "???"^^xsd:string ;
	bd:datatype "???"^^xsd:string ;
	bd:defaultCommentSet "false"^^xsd:string ;
	bd:defaultComment ""^^xsd:string ;
	bd:length "NN"^^xsd:string ;
	bd:format "???"^^xsd:string ;
	bd:notes "???"^^xsd:string ;
	bd:origin ""^^xsd:string ;
	bd:role "???"^^xsd:string ;
	bd:supplementalQualifier "false"^^xsd:string ;
	bd:used "false"^^xsd:string ;
.
mdrDomainsV1:V-CM_CMENDTC
	rdf:type bd:Variable ;
	bd:basedOn <http://rdf.cdisc.org/std/sdtmig-3-1-2#Column.CM.CMENDTC> ;
	rdfs:label "SDTM Variable"^^xsd:string ;
	bd:core "???"^^xsd:string ;
	bd:datatype "???"^^xsd:string ;
	bd:defaultCommentSet "false"^^xsd:string ;
	bd:defaultComment ""^^xsd:string ;
	bd:length "NN"^^xsd:string ;
	bd:format "???"^^xsd:string ;
	bd:notes "???"^^xsd:string ;
	bd:origin ""^^xsd:string ;
	bd:role "???"^^xsd:string ;
	bd:supplementalQualifier "false"^^xsd:string ;
	bd:used "false"^^xsd:string ;
.
mdrDomainsV1:V-CM_CMENDY
	rdf:type bd:Variable ;
	bd:basedOn <http://rdf.cdisc.org/std/sdtmig-3-1-2#Column.CM.CMENDY> ;
	rdfs:label "SDTM Variable"^^xsd:string ;
	bd:core "???"^^xsd:string ;
	bd:datatype "???"^^xsd:string ;
	bd:defaultCommentSet "false"^^xsd:string ;
	bd:defaultComment ""^^xsd:string ;
	bd:length "NN"^^xsd:string ;
	bd:format "???"^^xsd:string ;
	bd:notes "???"^^xsd:string ;
	bd:origin ""^^xsd:string ;
	bd:role "???"^^xsd:string ;
	bd:supplementalQualifier "false"^^xsd:string ;
	bd:used "false"^^xsd:string ;
.
mdrDomainsV1:V-CM_CMENRF
	rdf:type bd:Variable ;
	bd:basedOn <http://rdf.cdisc.org/std/sdtmig-3-1-2#Column.CM.CMENRF> ;
	rdfs:label "SDTM Variable"^^xsd:string ;
	bd:core "???"^^xsd:string ;
	bd:datatype "???"^^xsd:string ;
	bd:defaultCommentSet "false"^^xsd:string ;
	bd:defaultComment ""^^xsd:string ;
	bd:length "NN"^^xsd:string ;
	bd:format "???"^^xsd:string ;
	bd:notes "???"^^xsd:string ;
	bd:origin ""^^xsd:string ;
	bd:role "???"^^xsd:string ;
	bd:supplementalQualifier "false"^^xsd:string ;
	bd:used "false"^^xsd:string ;
.
mdrDomainsV1:V-CM_CMENRTPT
	rdf:type bd:Variable ;
	bd:basedOn <http://rdf.cdisc.org/std/sdtmig-3-1-2#Column.CM.CMENRTPT> ;
	rdfs:label "SDTM Variable"^^xsd:string ;
	bd:core "???"^^xsd:string ;
	bd:datatype "???"^^xsd:string ;
	bd:defaultCommentSet "false"^^xsd:string ;
	bd:defaultComment ""^^xsd:string ;
	bd:length "NN"^^xsd:string ;
	bd:format "???"^^xsd:string ;
	bd:notes "???"^^xsd:string ;
	bd:origin ""^^xsd:string ;
	bd:role "???"^^xsd:string ;
	bd:supplementalQualifier "false"^^xsd:string ;
	bd:used "false"^^xsd:string ;
.
mdrDomainsV1:V-CM_CMENTPT
	rdf:type bd:Variable ;
	bd:basedOn <http://rdf.cdisc.org/std/sdtmig-3-1-2#Column.CM.CMENTPT> ;
	rdfs:label "SDTM Variable"^^xsd:string ;
	bd:core "???"^^xsd:string ;
	bd:datatype "???"^^xsd:string ;
	bd:defaultCommentSet "false"^^xsd:string ;
	bd:defaultComment ""^^xsd:string ;
	bd:length "NN"^^xsd:string ;
	bd:format "???"^^xsd:string ;
	bd:notes "???"^^xsd:string ;
	bd:origin ""^^xsd:string ;
	bd:role "???"^^xsd:string ;
	bd:supplementalQualifier "false"^^xsd:string ;
	bd:used "false"^^xsd:string ;
.
mdrDomainsV1:V-CM_CMGRPID
	rdf:type bd:Variable ;
	bd:basedOn <http://rdf.cdisc.org/std/sdtmig-3-1-2#Column.CM.CMGRPID> ;
	rdfs:label "SDTM Variable"^^xsd:string ;
	bd:core "???"^^xsd:string ;
	bd:datatype "???"^^xsd:string ;
	bd:defaultCommentSet "false"^^xsd:string ;
	bd:defaultComment ""^^xsd:string ;
	bd:length "NN"^^xsd:string ;
	bd:format "???"^^xsd:string ;
	bd:notes "???"^^xsd:string ;
	bd:origin ""^^xsd:string ;
	bd:role "???"^^xsd:string ;
	bd:supplementalQualifier "false"^^xsd:string ;
	bd:used "false"^^xsd:string ;
.
mdrDomainsV1:V-CM_CMINDC
	rdf:type bd:Variable ;
	bd:basedOn <http://rdf.cdisc.org/std/sdtmig-3-1-2#Column.CM.CMINDC> ;
	rdfs:label "SDTM Variable"^^xsd:string ;
	bd:core "???"^^xsd:string ;
	bd:datatype "???"^^xsd:string ;
	bd:defaultCommentSet "false"^^xsd:string ;
	bd:defaultComment ""^^xsd:string ;
	bd:length "NN"^^xsd:string ;
	bd:format "???"^^xsd:string ;
	bd:notes "???"^^xsd:string ;
	bd:origin ""^^xsd:string ;
	bd:role "???"^^xsd:string ;
	bd:supplementalQualifier "false"^^xsd:string ;
	bd:used "false"^^xsd:string ;
.
mdrDomainsV1:V-CM_CMMODIFY
	rdf:type bd:Variable ;
	bd:basedOn <http://rdf.cdisc.org/std/sdtmig-3-1-2#Column.CM.CMMODIFY> ;
	rdfs:label "SDTM Variable"^^xsd:string ;
	bd:core "???"^^xsd:string ;
	bd:datatype "???"^^xsd:string ;
	bd:defaultCommentSet "false"^^xsd:string ;
	bd:defaultComment ""^^xsd:string ;
	bd:length "NN"^^xsd:string ;
	bd:format "???"^^xsd:string ;
	bd:notes "???"^^xsd:string ;
	bd:origin ""^^xsd:string ;
	bd:role "???"^^xsd:string ;
	bd:supplementalQualifier "false"^^xsd:string ;
	bd:used "false"^^xsd:string ;
.
mdrDomainsV1:V-CM_CMOCCUR
	rdf:type bd:Variable ;
	bd:basedOn <http://rdf.cdisc.org/std/sdtmig-3-1-2#Column.CM.CMOCCUR> ;
	rdfs:label "SDTM Variable"^^xsd:string ;
	bd:core "???"^^xsd:string ;
	bd:datatype "???"^^xsd:string ;
	bd:defaultCommentSet "false"^^xsd:string ;
	bd:defaultComment ""^^xsd:string ;
	bd:length "NN"^^xsd:string ;
	bd:format "???"^^xsd:string ;
	bd:notes "???"^^xsd:string ;
	bd:origin ""^^xsd:string ;
	bd:role "???"^^xsd:string ;
	bd:supplementalQualifier "false"^^xsd:string ;
	bd:used "false"^^xsd:string ;
.
mdrDomainsV1:V-CM_CMPRESP
	rdf:type bd:Variable ;
	bd:basedOn <http://rdf.cdisc.org/std/sdtmig-3-1-2#Column.CM.CMPRESP> ;
	rdfs:label "SDTM Variable"^^xsd:string ;
	bd:core "???"^^xsd:string ;
	bd:datatype "???"^^xsd:string ;
	bd:defaultCommentSet "false"^^xsd:string ;
	bd:defaultComment ""^^xsd:string ;
	bd:length "NN"^^xsd:string ;
	bd:format "???"^^xsd:string ;
	bd:notes "???"^^xsd:string ;
	bd:origin ""^^xsd:string ;
	bd:role "???"^^xsd:string ;
	bd:supplementalQualifier "false"^^xsd:string ;
	bd:used "false"^^xsd:string ;
.
mdrDomainsV1:V-CM_CMREASND
	rdf:type bd:Variable ;
	bd:basedOn <http://rdf.cdisc.org/std/sdtmig-3-1-2#Column.CM.CMREASND> ;
	rdfs:label "SDTM Variable"^^xsd:string ;
	bd:core "???"^^xsd:string ;
	bd:datatype "???"^^xsd:string ;
	bd:defaultCommentSet "false"^^xsd:string ;
	bd:defaultComment ""^^xsd:string ;
	bd:length "NN"^^xsd:string ;
	bd:format "???"^^xsd:string ;
	bd:notes "???"^^xsd:string ;
	bd:origin ""^^xsd:string ;
	bd:role "???"^^xsd:string ;
	bd:supplementalQualifier "false"^^xsd:string ;
	bd:used "false"^^xsd:string ;
.
mdrDomainsV1:V-CM_CMROUTE
	rdf:type bd:Variable ;
	bd:basedOn <http://rdf.cdisc.org/std/sdtmig-3-1-2#Column.CM.CMROUTE> ;
	rdfs:label "SDTM Variable"^^xsd:string ;
	bd:core "???"^^xsd:string ;
	bd:datatype "???"^^xsd:string ;
	bd:defaultCommentSet "false"^^xsd:string ;
	bd:defaultComment ""^^xsd:string ;
	bd:length "NN"^^xsd:string ;
	bd:format "???"^^xsd:string ;
	bd:notes "???"^^xsd:string ;
	bd:origin ""^^xsd:string ;
	bd:role "???"^^xsd:string ;
	bd:supplementalQualifier "false"^^xsd:string ;
	bd:used "false"^^xsd:string ;
.
mdrDomainsV1:V-CM_CMSCAT
	rdf:type bd:Variable ;
	bd:basedOn <http://rdf.cdisc.org/std/sdtmig-3-1-2#Column.CM.CMSCAT> ;
	rdfs:label "SDTM Variable"^^xsd:string ;
	bd:core "???"^^xsd:string ;
	bd:datatype "???"^^xsd:string ;
	bd:defaultCommentSet "false"^^xsd:string ;
	bd:defaultComment ""^^xsd:string ;
	bd:length "NN"^^xsd:string ;
	bd:format "???"^^xsd:string ;
	bd:notes "???"^^xsd:string ;
	bd:origin ""^^xsd:string ;
	bd:role "???"^^xsd:string ;
	bd:supplementalQualifier "false"^^xsd:string ;
	bd:used "false"^^xsd:string ;
.
mdrDomainsV1:V-CM_CMSEQ
	rdf:type bd:Variable ;
	bd:basedOn <http://rdf.cdisc.org/std/sdtmig-3-1-2#Column.CM.CMSEQ> ;
	rdfs:label "SDTM Variable"^^xsd:string ;
	bd:core "???"^^xsd:string ;
	bd:datatype "???"^^xsd:string ;
	bd:defaultCommentSet "false"^^xsd:string ;
	bd:defaultComment ""^^xsd:string ;
	bd:length "NN"^^xsd:string ;
	bd:format "???"^^xsd:string ;
	bd:notes "???"^^xsd:string ;
	bd:origin ""^^xsd:string ;
	bd:role "???"^^xsd:string ;
	bd:supplementalQualifier "false"^^xsd:string ;
	bd:used "false"^^xsd:string ;
.
mdrDomainsV1:V-CM_CMSPID
	rdf:type bd:Variable ;
	bd:basedOn <http://rdf.cdisc.org/std/sdtmig-3-1-2#Column.CM.CMSPID> ;
	rdfs:label "SDTM Variable"^^xsd:string ;
	bd:core "???"^^xsd:string ;
	bd:datatype "???"^^xsd:string ;
	bd:defaultCommentSet "false"^^xsd:string ;
	bd:defaultComment ""^^xsd:string ;
	bd:length "NN"^^xsd:string ;
	bd:format "???"^^xsd:string ;
	bd:notes "???"^^xsd:string ;
	bd:origin ""^^xsd:string ;
	bd:role "???"^^xsd:string ;
	bd:supplementalQualifier "false"^^xsd:string ;
	bd:used "false"^^xsd:string ;
.
mdrDomainsV1:V-CM_CMSTAT
	rdf:type bd:Variable ;
	bd:basedOn <http://rdf.cdisc.org/std/sdtmig-3-1-2#Column.CM.CMSTAT> ;
	rdfs:label "SDTM Variable"^^xsd:string ;
	bd:core "???"^^xsd:string ;
	bd:datatype "???"^^xsd:string ;
	bd:defaultCommentSet "false"^^xsd:string ;
	bd:defaultComment ""^^xsd:string ;
	bd:length "NN"^^xsd:string ;
	bd:format "???"^^xsd:string ;
	bd:notes "???"^^xsd:string ;
	bd:origin ""^^xsd:string ;
	bd:role "???"^^xsd:string ;
	bd:supplementalQualifier "false"^^xsd:string ;
	bd:used "false"^^xsd:string ;
.
mdrDomainsV1:V-CM_CMSTDTC
	rdf:type bd:Variable ;
	bd:basedOn <http://rdf.cdisc.org/std/sdtmig-3-1-2#Column.CM.CMSTDTC> ;
	rdfs:label "SDTM Variable"^^xsd:string ;
	bd:core "???"^^xsd:string ;
	bd:datatype "???"^^xsd:string ;
	bd:defaultCommentSet "false"^^xsd:string ;
	bd:defaultComment ""^^xsd:string ;
	bd:length "NN"^^xsd:string ;
	bd:format "???"^^xsd:string ;
	bd:notes "???"^^xsd:string ;
	bd:origin ""^^xsd:string ;
	bd:role "???"^^xsd:string ;
	bd:supplementalQualifier "false"^^xsd:string ;
	bd:used "false"^^xsd:string ;
.
mdrDomainsV1:V-CM_CMSTDY
	rdf:type bd:Variable ;
	bd:basedOn <http://rdf.cdisc.org/std/sdtmig-3-1-2#Column.CM.CMSTDY> ;
	rdfs:label "SDTM Variable"^^xsd:string ;
	bd:core "???"^^xsd:string ;
	bd:datatype "???"^^xsd:string ;
	bd:defaultCommentSet "false"^^xsd:string ;
	bd:defaultComment ""^^xsd:string ;
	bd:length "NN"^^xsd:string ;
	bd:format "???"^^xsd:string ;
	bd:notes "???"^^xsd:string ;
	bd:origin ""^^xsd:string ;
	bd:role "???"^^xsd:string ;
	bd:supplementalQualifier "false"^^xsd:string ;
	bd:used "false"^^xsd:string ;
.
mdrDomainsV1:V-CM_CMSTRF
	rdf:type bd:Variable ;
	bd:basedOn <http://rdf.cdisc.org/std/sdtmig-3-1-2#Column.CM.CMSTRF> ;
	rdfs:label "SDTM Variable"^^xsd:string ;
	bd:core "???"^^xsd:string ;
	bd:datatype "???"^^xsd:string ;
	bd:defaultCommentSet "false"^^xsd:string ;
	bd:defaultComment ""^^xsd:string ;
	bd:length "NN"^^xsd:string ;
	bd:format "???"^^xsd:string ;
	bd:notes "???"^^xsd:string ;
	bd:origin ""^^xsd:string ;
	bd:role "???"^^xsd:string ;
	bd:supplementalQualifier "false"^^xsd:string ;
	bd:used "false"^^xsd:string ;
.
mdrDomainsV1:V-CM_CMSTRTPT
	rdf:type bd:Variable ;
	bd:basedOn <http://rdf.cdisc.org/std/sdtmig-3-1-2#Column.CM.CMSTRTPT> ;
	rdfs:label "SDTM Variable"^^xsd:string ;
	bd:core "???"^^xsd:string ;
	bd:datatype "???"^^xsd:string ;
	bd:defaultCommentSet "false"^^xsd:string ;
	bd:defaultComment ""^^xsd:string ;
	bd:length "NN"^^xsd:string ;
	bd:format "???"^^xsd:string ;
	bd:notes "???"^^xsd:string ;
	bd:origin ""^^xsd:string ;
	bd:role "???"^^xsd:string ;
	bd:supplementalQualifier "false"^^xsd:string ;
	bd:used "false"^^xsd:string ;
.
mdrDomainsV1:V-CM_CMSTTPT
	rdf:type bd:Variable ;
	bd:basedOn <http://rdf.cdisc.org/std/sdtmig-3-1-2#Column.CM.CMSTTPT> ;
	rdfs:label "SDTM Variable"^^xsd:string ;
	bd:core "???"^^xsd:string ;
	bd:datatype "???"^^xsd:string ;
	bd:defaultCommentSet "false"^^xsd:string ;
	bd:defaultComment ""^^xsd:string ;
	bd:length "NN"^^xsd:string ;
	bd:format "???"^^xsd:string ;
	bd:notes "???"^^xsd:string ;
	bd:origin ""^^xsd:string ;
	bd:role "???"^^xsd:string ;
	bd:supplementalQualifier "false"^^xsd:string ;
	bd:used "false"^^xsd:string ;
.
mdrDomainsV1:V-CM_CMTRT
	rdf:type bd:Variable ;
	bd:basedOn <http://rdf.cdisc.org/std/sdtmig-3-1-2#Column.CM.CMTRT> ;
	rdfs:label "SDTM Variable"^^xsd:string ;
	bd:core "???"^^xsd:string ;
	bd:datatype "???"^^xsd:string ;
	bd:defaultCommentSet "false"^^xsd:string ;
	bd:defaultComment ""^^xsd:string ;
	bd:length "NN"^^xsd:string ;
	bd:format "???"^^xsd:string ;
	bd:notes "???"^^xsd:string ;
	bd:origin ""^^xsd:string ;
	bd:role "???"^^xsd:string ;
	bd:supplementalQualifier "false"^^xsd:string ;
	bd:used "false"^^xsd:string ;
.
mdrDomainsV1:V-CM_DOMAIN
	rdf:type bd:Variable ;
	bd:basedOn <http://rdf.cdisc.org/std/sdtmig-3-1-2#Column.CM.DOMAIN> ;
	rdfs:label "SDTM Variable"^^xsd:string ;
	bd:core "???"^^xsd:string ;
	bd:datatype "???"^^xsd:string ;
	bd:defaultCommentSet "false"^^xsd:string ;
	bd:defaultComment ""^^xsd:string ;
	bd:length "NN"^^xsd:string ;
	bd:format "???"^^xsd:string ;
	bd:notes "???"^^xsd:string ;
	bd:origin ""^^xsd:string ;
	bd:role "???"^^xsd:string ;
	bd:supplementalQualifier "false"^^xsd:string ;
	bd:used "false"^^xsd:string ;
.
mdrDomainsV1:V-CM_STUDYID
	rdf:type bd:Variable ;
	bd:basedOn <http://rdf.cdisc.org/std/sdtmig-3-1-2#Column.CM.STUDYID> ;
	rdfs:label "SDTM Variable"^^xsd:string ;
	bd:core "???"^^xsd:string ;
	bd:datatype "???"^^xsd:string ;
	bd:defaultCommentSet "false"^^xsd:string ;
	bd:defaultComment ""^^xsd:string ;
	bd:length "NN"^^xsd:string ;
	bd:format "???"^^xsd:string ;
	bd:notes "???"^^xsd:string ;
	bd:origin ""^^xsd:string ;
	bd:role "???"^^xsd:string ;
	bd:supplementalQualifier "false"^^xsd:string ;
	bd:used "false"^^xsd:string ;
.
mdrDomainsV1:V-CM_USUBJID
	rdf:type bd:Variable ;
	bd:basedOn <http://rdf.cdisc.org/std/sdtmig-3-1-2#Column.CM.USUBJID> ;
	rdfs:label "SDTM Variable"^^xsd:string ;
	bd:core "???"^^xsd:string ;
	bd:datatype "???"^^xsd:string ;
	bd:defaultCommentSet "false"^^xsd:string ;
	bd:defaultComment ""^^xsd:string ;
	bd:length "NN"^^xsd:string ;
	bd:format "???"^^xsd:string ;
	bd:notes "???"^^xsd:string ;
	bd:origin ""^^xsd:string ;
	bd:role "???"^^xsd:string ;
	bd:supplementalQualifier "false"^^xsd:string ;
	bd:used "false"^^xsd:string ;
.
mdrDomainsV1:V-DM_AGE
	rdf:type bd:Variable ;
	bd:basedOn <http://rdf.cdisc.org/std/sdtmig-3-1-2#Column.DM.AGE> ;
	rdfs:label "SDTM Variable"^^xsd:string ;
	bd:core "???"^^xsd:string ;
	bd:datatype "???"^^xsd:string ;
	bd:defaultCommentSet "false"^^xsd:string ;
	bd:defaultComment ""^^xsd:string ;
	bd:length "NN"^^xsd:string ;
	bd:format "???"^^xsd:string ;
	bd:notes "???"^^xsd:string ;
	bd:origin ""^^xsd:string ;
	bd:role "???"^^xsd:string ;
	bd:supplementalQualifier "false"^^xsd:string ;
	bd:used "false"^^xsd:string ;
.
mdrDomainsV1:V-DM_AGEU
	rdf:type bd:Variable ;
	bd:basedOn <http://rdf.cdisc.org/std/sdtmig-3-1-2#Column.DM.AGEU> ;
	rdfs:label "SDTM Variable"^^xsd:string ;
	bd:core "???"^^xsd:string ;
	bd:datatype "???"^^xsd:string ;
	bd:defaultCommentSet "false"^^xsd:string ;
	bd:defaultComment ""^^xsd:string ;
	bd:length "NN"^^xsd:string ;
	bd:format "???"^^xsd:string ;
	bd:notes "???"^^xsd:string ;
	bd:origin ""^^xsd:string ;
	bd:role "???"^^xsd:string ;
	bd:supplementalQualifier "false"^^xsd:string ;
	bd:used "false"^^xsd:string ;
.
mdrDomainsV1:V-DM_ARM
	rdf:type bd:Variable ;
	bd:basedOn <http://rdf.cdisc.org/std/sdtmig-3-1-2#Column.DM.ARM> ;
	rdfs:label "SDTM Variable"^^xsd:string ;
	bd:core "???"^^xsd:string ;
	bd:datatype "???"^^xsd:string ;
	bd:defaultCommentSet "false"^^xsd:string ;
	bd:defaultComment ""^^xsd:string ;
	bd:length "NN"^^xsd:string ;
	bd:format "???"^^xsd:string ;
	bd:notes "???"^^xsd:string ;
	bd:origin ""^^xsd:string ;
	bd:role "???"^^xsd:string ;
	bd:supplementalQualifier "false"^^xsd:string ;
	bd:used "false"^^xsd:string ;
.
mdrDomainsV1:V-DM_ARMCD
	rdf:type bd:Variable ;
	bd:basedOn <http://rdf.cdisc.org/std/sdtmig-3-1-2#Column.DM.ARMCD> ;
	rdfs:label "SDTM Variable"^^xsd:string ;
	bd:core "???"^^xsd:string ;
	bd:datatype "???"^^xsd:string ;
	bd:defaultCommentSet "false"^^xsd:string ;
	bd:defaultComment ""^^xsd:string ;
	bd:length "NN"^^xsd:string ;
	bd:format "???"^^xsd:string ;
	bd:notes "???"^^xsd:string ;
	bd:origin ""^^xsd:string ;
	bd:role "???"^^xsd:string ;
	bd:supplementalQualifier "false"^^xsd:string ;
	bd:used "false"^^xsd:string ;
.
mdrDomainsV1:V-DM_BRTHDTC
	rdf:type bd:Variable ;
	bd:basedOn <http://rdf.cdisc.org/std/sdtmig-3-1-2#Column.DM.BRTHDTC> ;
	rdfs:label "SDTM Variable"^^xsd:string ;
	bd:core "???"^^xsd:string ;
	bd:datatype "???"^^xsd:string ;
	bd:defaultCommentSet "false"^^xsd:string ;
	bd:defaultComment ""^^xsd:string ;
	bd:length "NN"^^xsd:string ;
	bd:format "???"^^xsd:string ;
	bd:notes "???"^^xsd:string ;
	bd:origin ""^^xsd:string ;
	bd:role "???"^^xsd:string ;
	bd:supplementalQualifier "false"^^xsd:string ;
	bd:used "false"^^xsd:string ;
.
mdrDomainsV1:V-DM_COUNTRY
	rdf:type bd:Variable ;
	bd:basedOn <http://rdf.cdisc.org/std/sdtmig-3-1-2#Column.DM.COUNTRY> ;
	rdfs:label "SDTM Variable"^^xsd:string ;
	bd:core "???"^^xsd:string ;
	bd:datatype "???"^^xsd:string ;
	bd:defaultCommentSet "false"^^xsd:string ;
	bd:defaultComment ""^^xsd:string ;
	bd:length "NN"^^xsd:string ;
	bd:format "???"^^xsd:string ;
	bd:notes "???"^^xsd:string ;
	bd:origin ""^^xsd:string ;
	bd:role "???"^^xsd:string ;
	bd:supplementalQualifier "false"^^xsd:string ;
	bd:used "false"^^xsd:string ;
.
mdrDomainsV1:V-DM_DMDTC
	rdf:type bd:Variable ;
	bd:basedOn <http://rdf.cdisc.org/std/sdtmig-3-1-2#Column.DM.DMDTC> ;
	rdfs:label "SDTM Variable"^^xsd:string ;
	bd:core "???"^^xsd:string ;
	bd:datatype "???"^^xsd:string ;
	bd:defaultCommentSet "false"^^xsd:string ;
	bd:defaultComment ""^^xsd:string ;
	bd:length "NN"^^xsd:string ;
	bd:format "???"^^xsd:string ;
	bd:notes "???"^^xsd:string ;
	bd:origin ""^^xsd:string ;
	bd:role "???"^^xsd:string ;
	bd:supplementalQualifier "false"^^xsd:string ;
	bd:used "false"^^xsd:string ;
.
mdrDomainsV1:V-DM_DMDY
	rdf:type bd:Variable ;
	bd:basedOn <http://rdf.cdisc.org/std/sdtmig-3-1-2#Column.DM.DMDY> ;
	rdfs:label "SDTM Variable"^^xsd:string ;
	bd:core "???"^^xsd:string ;
	bd:datatype "???"^^xsd:string ;
	bd:defaultCommentSet "false"^^xsd:string ;
	bd:defaultComment ""^^xsd:string ;
	bd:length "NN"^^xsd:string ;
	bd:format "???"^^xsd:string ;
	bd:notes "???"^^xsd:string ;
	bd:origin ""^^xsd:string ;
	bd:role "???"^^xsd:string ;
	bd:supplementalQualifier "false"^^xsd:string ;
	bd:used "false"^^xsd:string ;
.
mdrDomainsV1:V-DM_DOMAIN
	rdf:type bd:Variable ;
	bd:basedOn <http://rdf.cdisc.org/std/sdtmig-3-1-2#Column.DM.DOMAIN> ;
	rdfs:label "SDTM Variable"^^xsd:string ;
	bd:core "???"^^xsd:string ;
	bd:datatype "???"^^xsd:string ;
	bd:defaultCommentSet "false"^^xsd:string ;
	bd:defaultComment ""^^xsd:string ;
	bd:length "NN"^^xsd:string ;
	bd:format "???"^^xsd:string ;
	bd:notes "???"^^xsd:string ;
	bd:origin ""^^xsd:string ;
	bd:role "???"^^xsd:string ;
	bd:supplementalQualifier "false"^^xsd:string ;
	bd:used "false"^^xsd:string ;
.
mdrDomainsV1:V-DM_ETHNIC
	rdf:type bd:Variable ;
	bd:basedOn <http://rdf.cdisc.org/std/sdtmig-3-1-2#Column.DM.ETHNIC> ;
	rdfs:label "SDTM Variable"^^xsd:string ;
	bd:core "???"^^xsd:string ;
	bd:datatype "???"^^xsd:string ;
	bd:defaultCommentSet "false"^^xsd:string ;
	bd:defaultComment ""^^xsd:string ;
	bd:length "NN"^^xsd:string ;
	bd:format "???"^^xsd:string ;
	bd:notes "???"^^xsd:string ;
	bd:origin ""^^xsd:string ;
	bd:role "???"^^xsd:string ;
	bd:supplementalQualifier "false"^^xsd:string ;
	bd:used "false"^^xsd:string ;
.
mdrDomainsV1:V-DM_INVID
	rdf:type bd:Variable ;
	bd:basedOn <http://rdf.cdisc.org/std/sdtmig-3-1-2#Column.DM.INVID> ;
	rdfs:label "SDTM Variable"^^xsd:string ;
	bd:core "???"^^xsd:string ;
	bd:datatype "???"^^xsd:string ;
	bd:defaultCommentSet "false"^^xsd:string ;
	bd:defaultComment ""^^xsd:string ;
	bd:length "NN"^^xsd:string ;
	bd:format "???"^^xsd:string ;
	bd:notes "???"^^xsd:string ;
	bd:origin ""^^xsd:string ;
	bd:role "???"^^xsd:string ;
	bd:supplementalQualifier "false"^^xsd:string ;
	bd:used "false"^^xsd:string ;
.
mdrDomainsV1:V-DM_INVNAM
	rdf:type bd:Variable ;
	bd:basedOn <http://rdf.cdisc.org/std/sdtmig-3-1-2#Column.DM.INVNAM> ;
	rdfs:label "SDTM Variable"^^xsd:string ;
	bd:core "???"^^xsd:string ;
	bd:datatype "???"^^xsd:string ;
	bd:defaultCommentSet "false"^^xsd:string ;
	bd:defaultComment ""^^xsd:string ;
	bd:length "NN"^^xsd:string ;
	bd:format "???"^^xsd:string ;
	bd:notes "???"^^xsd:string ;
	bd:origin ""^^xsd:string ;
	bd:role "???"^^xsd:string ;
	bd:supplementalQualifier "false"^^xsd:string ;
	bd:used "false"^^xsd:string ;
.
mdrDomainsV1:V-DM_RACE
	rdf:type bd:Variable ;
	bd:basedOn <http://rdf.cdisc.org/std/sdtmig-3-1-2#Column.DM.RACE> ;
	rdfs:label "SDTM Variable"^^xsd:string ;
	bd:core "???"^^xsd:string ;
	bd:datatype "???"^^xsd:string ;
	bd:defaultCommentSet "false"^^xsd:string ;
	bd:defaultComment ""^^xsd:string ;
	bd:length "NN"^^xsd:string ;
	bd:format "???"^^xsd:string ;
	bd:notes "???"^^xsd:string ;
	bd:origin ""^^xsd:string ;
	bd:role "???"^^xsd:string ;
	bd:supplementalQualifier "false"^^xsd:string ;
	bd:used "false"^^xsd:string ;
.
mdrDomainsV1:V-DM_RFENDTC
	rdf:type bd:Variable ;
	bd:basedOn <http://rdf.cdisc.org/std/sdtmig-3-1-2#Column.DM.RFENDTC> ;
	rdfs:label "SDTM Variable"^^xsd:string ;
	bd:core "???"^^xsd:string ;
	bd:datatype "???"^^xsd:string ;
	bd:defaultCommentSet "false"^^xsd:string ;
	bd:defaultComment ""^^xsd:string ;
	bd:length "NN"^^xsd:string ;
	bd:format "???"^^xsd:string ;
	bd:notes "???"^^xsd:string ;
	bd:origin ""^^xsd:string ;
	bd:role "???"^^xsd:string ;
	bd:supplementalQualifier "false"^^xsd:string ;
	bd:used "false"^^xsd:string ;
.
mdrDomainsV1:V-DM_RFSTDTC
	rdf:type bd:Variable ;
	bd:basedOn <http://rdf.cdisc.org/std/sdtmig-3-1-2#Column.DM.RFSTDTC> ;
	rdfs:label "SDTM Variable"^^xsd:string ;
	bd:core "???"^^xsd:string ;
	bd:datatype "???"^^xsd:string ;
	bd:defaultCommentSet "false"^^xsd:string ;
	bd:defaultComment ""^^xsd:string ;
	bd:length "NN"^^xsd:string ;
	bd:format "???"^^xsd:string ;
	bd:notes "???"^^xsd:string ;
	bd:origin ""^^xsd:string ;
	bd:role "???"^^xsd:string ;
	bd:supplementalQualifier "false"^^xsd:string ;
	bd:used "false"^^xsd:string ;
.
mdrDomainsV1:V-DM_SEX
	rdf:type bd:Variable ;
	bd:basedOn <http://rdf.cdisc.org/std/sdtmig-3-1-2#Column.DM.SEX> ;
	rdfs:label "SDTM Variable"^^xsd:string ;
	bd:core "???"^^xsd:string ;
	bd:datatype "???"^^xsd:string ;
	bd:defaultCommentSet "false"^^xsd:string ;
	bd:defaultComment ""^^xsd:string ;
	bd:length "NN"^^xsd:string ;
	bd:format "???"^^xsd:string ;
	bd:notes "???"^^xsd:string ;
	bd:origin ""^^xsd:string ;
	bd:role "???"^^xsd:string ;
	bd:supplementalQualifier "false"^^xsd:string ;
	bd:used "false"^^xsd:string ;
.
mdrDomainsV1:V-DM_SITEID
	rdf:type bd:Variable ;
	bd:basedOn <http://rdf.cdisc.org/std/sdtmig-3-1-2#Column.DM.SITEID> ;
	rdfs:label "SDTM Variable"^^xsd:string ;
	bd:core "???"^^xsd:string ;
	bd:datatype "???"^^xsd:string ;
	bd:defaultCommentSet "false"^^xsd:string ;
	bd:defaultComment ""^^xsd:string ;
	bd:length "NN"^^xsd:string ;
	bd:format "???"^^xsd:string ;
	bd:notes "???"^^xsd:string ;
	bd:origin ""^^xsd:string ;
	bd:role "???"^^xsd:string ;
	bd:supplementalQualifier "false"^^xsd:string ;
	bd:used "false"^^xsd:string ;
.
mdrDomainsV1:V-DM_STUDYID
	rdf:type bd:Variable ;
	bd:basedOn <http://rdf.cdisc.org/std/sdtmig-3-1-2#Column.DM.STUDYID> ;
	rdfs:label "SDTM Variable"^^xsd:string ;
	bd:core "???"^^xsd:string ;
	bd:datatype "???"^^xsd:string ;
	bd:defaultCommentSet "false"^^xsd:string ;
	bd:defaultComment ""^^xsd:string ;
	bd:length "NN"^^xsd:string ;
	bd:format "???"^^xsd:string ;
	bd:notes "???"^^xsd:string ;
	bd:origin ""^^xsd:string ;
	bd:role "???"^^xsd:string ;
	bd:supplementalQualifier "false"^^xsd:string ;
	bd:used "false"^^xsd:string ;
.
mdrDomainsV1:V-DM_SUBJID
	rdf:type bd:Variable ;
	bd:basedOn <http://rdf.cdisc.org/std/sdtmig-3-1-2#Column.DM.SUBJID> ;
	rdfs:label "SDTM Variable"^^xsd:string ;
	bd:core "???"^^xsd:string ;
	bd:datatype "???"^^xsd:string ;
	bd:defaultCommentSet "false"^^xsd:string ;
	bd:defaultComment ""^^xsd:string ;
	bd:length "NN"^^xsd:string ;
	bd:format "???"^^xsd:string ;
	bd:notes "???"^^xsd:string ;
	bd:origin ""^^xsd:string ;
	bd:role "???"^^xsd:string ;
	bd:supplementalQualifier "false"^^xsd:string ;
	bd:used "false"^^xsd:string ;
.
mdrDomainsV1:V-DM_USUBJID
	rdf:type bd:Variable ;
	bd:basedOn <http://rdf.cdisc.org/std/sdtmig-3-1-2#Column.DM.USUBJID> ;
	rdfs:label "SDTM Variable"^^xsd:string ;
	bd:core "???"^^xsd:string ;
	bd:datatype "???"^^xsd:string ;
	bd:defaultCommentSet "false"^^xsd:string ;
	bd:defaultComment ""^^xsd:string ;
	bd:length "NN"^^xsd:string ;
	bd:format "???"^^xsd:string ;
	bd:notes "???"^^xsd:string ;
	bd:origin ""^^xsd:string ;
	bd:role "???"^^xsd:string ;
	bd:supplementalQualifier "false"^^xsd:string ;
	bd:used "false"^^xsd:string ;
.
mdrDomainsV1:V-DS_DOMAIN
	rdf:type bd:Variable ;
	bd:basedOn <http://rdf.cdisc.org/std/sdtmig-3-1-2#Column.DS.DOMAIN> ;
	rdfs:label "SDTM Variable"^^xsd:string ;
	bd:core "???"^^xsd:string ;
	bd:datatype "???"^^xsd:string ;
	bd:defaultCommentSet "false"^^xsd:string ;
	bd:defaultComment ""^^xsd:string ;
	bd:length "NN"^^xsd:string ;
	bd:format "???"^^xsd:string ;
	bd:notes "???"^^xsd:string ;
	bd:origin ""^^xsd:string ;
	bd:role "???"^^xsd:string ;
	bd:supplementalQualifier "false"^^xsd:string ;
	bd:used "false"^^xsd:string ;
.
mdrDomainsV1:V-DS_DSCAT
	rdf:type bd:Variable ;
	bd:basedOn <http://rdf.cdisc.org/std/sdtmig-3-1-2#Column.DS.DSCAT> ;
	rdfs:label "SDTM Variable"^^xsd:string ;
	bd:core "???"^^xsd:string ;
	bd:datatype "???"^^xsd:string ;
	bd:defaultCommentSet "false"^^xsd:string ;
	bd:defaultComment ""^^xsd:string ;
	bd:length "NN"^^xsd:string ;
	bd:format "???"^^xsd:string ;
	bd:notes "???"^^xsd:string ;
	bd:origin ""^^xsd:string ;
	bd:role "???"^^xsd:string ;
	bd:supplementalQualifier "false"^^xsd:string ;
	bd:used "false"^^xsd:string ;
.
mdrDomainsV1:V-DS_DSDECOD
	rdf:type bd:Variable ;
	bd:basedOn <http://rdf.cdisc.org/std/sdtmig-3-1-2#Column.DS.DSDECOD> ;
	rdfs:label "SDTM Variable"^^xsd:string ;
	bd:core "???"^^xsd:string ;
	bd:datatype "???"^^xsd:string ;
	bd:defaultCommentSet "false"^^xsd:string ;
	bd:defaultComment ""^^xsd:string ;
	bd:length "NN"^^xsd:string ;
	bd:format "???"^^xsd:string ;
	bd:notes "???"^^xsd:string ;
	bd:origin ""^^xsd:string ;
	bd:role "???"^^xsd:string ;
	bd:supplementalQualifier "false"^^xsd:string ;
	bd:used "false"^^xsd:string ;
.
mdrDomainsV1:V-DS_DSDTC
	rdf:type bd:Variable ;
	bd:basedOn <http://rdf.cdisc.org/std/sdtmig-3-1-2#Column.DS.DSDTC> ;
	rdfs:label "SDTM Variable"^^xsd:string ;
	bd:core "???"^^xsd:string ;
	bd:datatype "???"^^xsd:string ;
	bd:defaultCommentSet "false"^^xsd:string ;
	bd:defaultComment ""^^xsd:string ;
	bd:length "NN"^^xsd:string ;
	bd:format "???"^^xsd:string ;
	bd:notes "???"^^xsd:string ;
	bd:origin ""^^xsd:string ;
	bd:role "???"^^xsd:string ;
	bd:supplementalQualifier "false"^^xsd:string ;
	bd:used "false"^^xsd:string ;
.
mdrDomainsV1:V-DS_DSGRPID
	rdf:type bd:Variable ;
	bd:basedOn <http://rdf.cdisc.org/std/sdtmig-3-1-2#Column.DS.DSGRPID> ;
	rdfs:label "SDTM Variable"^^xsd:string ;
	bd:core "???"^^xsd:string ;
	bd:datatype "???"^^xsd:string ;
	bd:defaultCommentSet "false"^^xsd:string ;
	bd:defaultComment ""^^xsd:string ;
	bd:length "NN"^^xsd:string ;
	bd:format "???"^^xsd:string ;
	bd:notes "???"^^xsd:string ;
	bd:origin ""^^xsd:string ;
	bd:role "???"^^xsd:string ;
	bd:supplementalQualifier "false"^^xsd:string ;
	bd:used "false"^^xsd:string ;
.
mdrDomainsV1:V-DS_DSREFID
	rdf:type bd:Variable ;
	bd:basedOn <http://rdf.cdisc.org/std/sdtmig-3-1-2#Column.DS.DSREFID> ;
	rdfs:label "SDTM Variable"^^xsd:string ;
	bd:core "???"^^xsd:string ;
	bd:datatype "???"^^xsd:string ;
	bd:defaultCommentSet "false"^^xsd:string ;
	bd:defaultComment ""^^xsd:string ;
	bd:length "NN"^^xsd:string ;
	bd:format "???"^^xsd:string ;
	bd:notes "???"^^xsd:string ;
	bd:origin ""^^xsd:string ;
	bd:role "???"^^xsd:string ;
	bd:supplementalQualifier "false"^^xsd:string ;
	bd:used "false"^^xsd:string ;
.
mdrDomainsV1:V-DS_DSSCAT
	rdf:type bd:Variable ;
	bd:basedOn <http://rdf.cdisc.org/std/sdtmig-3-1-2#Column.DS.DSSCAT> ;
	rdfs:label "SDTM Variable"^^xsd:string ;
	bd:core "???"^^xsd:string ;
	bd:datatype "???"^^xsd:string ;
	bd:defaultCommentSet "false"^^xsd:string ;
	bd:defaultComment ""^^xsd:string ;
	bd:length "NN"^^xsd:string ;
	bd:format "???"^^xsd:string ;
	bd:notes "???"^^xsd:string ;
	bd:origin ""^^xsd:string ;
	bd:role "???"^^xsd:string ;
	bd:supplementalQualifier "false"^^xsd:string ;
	bd:used "false"^^xsd:string ;
.
mdrDomainsV1:V-DS_DSSEQ
	rdf:type bd:Variable ;
	bd:basedOn <http://rdf.cdisc.org/std/sdtmig-3-1-2#Column.DS.DSSEQ> ;
	rdfs:label "SDTM Variable"^^xsd:string ;
	bd:core "???"^^xsd:string ;
	bd:datatype "???"^^xsd:string ;
	bd:defaultCommentSet "false"^^xsd:string ;
	bd:defaultComment ""^^xsd:string ;
	bd:length "NN"^^xsd:string ;
	bd:format "???"^^xsd:string ;
	bd:notes "???"^^xsd:string ;
	bd:origin ""^^xsd:string ;
	bd:role "???"^^xsd:string ;
	bd:supplementalQualifier "false"^^xsd:string ;
	bd:used "false"^^xsd:string ;
.
mdrDomainsV1:V-DS_DSSPID
	rdf:type bd:Variable ;
	bd:basedOn <http://rdf.cdisc.org/std/sdtmig-3-1-2#Column.DS.DSSPID> ;
	rdfs:label "SDTM Variable"^^xsd:string ;
	bd:core "???"^^xsd:string ;
	bd:datatype "???"^^xsd:string ;
	bd:defaultCommentSet "false"^^xsd:string ;
	bd:defaultComment ""^^xsd:string ;
	bd:length "NN"^^xsd:string ;
	bd:format "???"^^xsd:string ;
	bd:notes "???"^^xsd:string ;
	bd:origin ""^^xsd:string ;
	bd:role "???"^^xsd:string ;
	bd:supplementalQualifier "false"^^xsd:string ;
	bd:used "false"^^xsd:string ;
.
mdrDomainsV1:V-DS_DSSTDTC
	rdf:type bd:Variable ;
	bd:basedOn <http://rdf.cdisc.org/std/sdtmig-3-1-2#Column.DS.DSSTDTC> ;
	rdfs:label "SDTM Variable"^^xsd:string ;
	bd:core "???"^^xsd:string ;
	bd:datatype "???"^^xsd:string ;
	bd:defaultCommentSet "false"^^xsd:string ;
	bd:defaultComment ""^^xsd:string ;
	bd:length "NN"^^xsd:string ;
	bd:format "???"^^xsd:string ;
	bd:notes "???"^^xsd:string ;
	bd:origin ""^^xsd:string ;
	bd:role "???"^^xsd:string ;
	bd:supplementalQualifier "false"^^xsd:string ;
	bd:used "false"^^xsd:string ;
.
mdrDomainsV1:V-DS_DSSTDY
	rdf:type bd:Variable ;
	bd:basedOn <http://rdf.cdisc.org/std/sdtmig-3-1-2#Column.DS.DSSTDY> ;
	rdfs:label "SDTM Variable"^^xsd:string ;
	bd:core "???"^^xsd:string ;
	bd:datatype "???"^^xsd:string ;
	bd:defaultCommentSet "false"^^xsd:string ;
	bd:defaultComment ""^^xsd:string ;
	bd:length "NN"^^xsd:string ;
	bd:format "???"^^xsd:string ;
	bd:notes "???"^^xsd:string ;
	bd:origin ""^^xsd:string ;
	bd:role "???"^^xsd:string ;
	bd:supplementalQualifier "false"^^xsd:string ;
	bd:used "false"^^xsd:string ;
.
mdrDomainsV1:V-DS_DSTERM
	rdf:type bd:Variable ;
	bd:basedOn <http://rdf.cdisc.org/std/sdtmig-3-1-2#Column.DS.DSTERM> ;
	rdfs:label "SDTM Variable"^^xsd:string ;
	bd:core "???"^^xsd:string ;
	bd:datatype "???"^^xsd:string ;
	bd:defaultCommentSet "false"^^xsd:string ;
	bd:defaultComment ""^^xsd:string ;
	bd:length "NN"^^xsd:string ;
	bd:format "???"^^xsd:string ;
	bd:notes "???"^^xsd:string ;
	bd:origin ""^^xsd:string ;
	bd:role "???"^^xsd:string ;
	bd:supplementalQualifier "false"^^xsd:string ;
	bd:used "false"^^xsd:string ;
.
mdrDomainsV1:V-DS_EPOCH
	rdf:type bd:Variable ;
	bd:basedOn <http://rdf.cdisc.org/std/sdtmig-3-1-2#Column.DS.EPOCH> ;
	rdfs:label "SDTM Variable"^^xsd:string ;
	bd:core "???"^^xsd:string ;
	bd:datatype "???"^^xsd:string ;
	bd:defaultCommentSet "false"^^xsd:string ;
	bd:defaultComment ""^^xsd:string ;
	bd:length "NN"^^xsd:string ;
	bd:format "???"^^xsd:string ;
	bd:notes "???"^^xsd:string ;
	bd:origin ""^^xsd:string ;
	bd:role "???"^^xsd:string ;
	bd:supplementalQualifier "false"^^xsd:string ;
	bd:used "false"^^xsd:string ;
.
mdrDomainsV1:V-DS_STUDYID
	rdf:type bd:Variable ;
	bd:basedOn <http://rdf.cdisc.org/std/sdtmig-3-1-2#Column.DS.STUDYID> ;
	rdfs:label "SDTM Variable"^^xsd:string ;
	bd:core "???"^^xsd:string ;
	bd:datatype "???"^^xsd:string ;
	bd:defaultCommentSet "false"^^xsd:string ;
	bd:defaultComment ""^^xsd:string ;
	bd:length "NN"^^xsd:string ;
	bd:format "???"^^xsd:string ;
	bd:notes "???"^^xsd:string ;
	bd:origin ""^^xsd:string ;
	bd:role "???"^^xsd:string ;
	bd:supplementalQualifier "false"^^xsd:string ;
	bd:used "false"^^xsd:string ;
.
mdrDomainsV1:V-DS_USUBJID
	rdf:type bd:Variable ;
	bd:basedOn <http://rdf.cdisc.org/std/sdtmig-3-1-2#Column.DS.USUBJID> ;
	rdfs:label "SDTM Variable"^^xsd:string ;
	bd:core "???"^^xsd:string ;
	bd:datatype "???"^^xsd:string ;
	bd:defaultCommentSet "false"^^xsd:string ;
	bd:defaultComment ""^^xsd:string ;
	bd:length "NN"^^xsd:string ;
	bd:format "???"^^xsd:string ;
	bd:notes "???"^^xsd:string ;
	bd:origin ""^^xsd:string ;
	bd:role "???"^^xsd:string ;
	bd:supplementalQualifier "false"^^xsd:string ;
	bd:used "false"^^xsd:string ;
.
mdrDomainsV1:V-DA_DACAT
	rdf:type bd:Variable ;
	bd:basedOn <http://rdf.cdisc.org/std/sdtmig-3-1-2#Column.DA.DACAT> ;
	rdfs:label "SDTM Variable"^^xsd:string ;
	bd:core "???"^^xsd:string ;
	bd:datatype "???"^^xsd:string ;
	bd:defaultCommentSet "false"^^xsd:string ;
	bd:defaultComment ""^^xsd:string ;
	bd:length "NN"^^xsd:string ;
	bd:format "???"^^xsd:string ;
	bd:notes "???"^^xsd:string ;
	bd:origin ""^^xsd:string ;
	bd:role "???"^^xsd:string ;
	bd:supplementalQualifier "false"^^xsd:string ;
	bd:used "false"^^xsd:string ;
.
mdrDomainsV1:V-DA_DADTC
	rdf:type bd:Variable ;
	bd:basedOn <http://rdf.cdisc.org/std/sdtmig-3-1-2#Column.DA.DADTC> ;
	rdfs:label "SDTM Variable"^^xsd:string ;
	bd:core "???"^^xsd:string ;
	bd:datatype "???"^^xsd:string ;
	bd:defaultCommentSet "false"^^xsd:string ;
	bd:defaultComment ""^^xsd:string ;
	bd:length "NN"^^xsd:string ;
	bd:format "???"^^xsd:string ;
	bd:notes "???"^^xsd:string ;
	bd:origin ""^^xsd:string ;
	bd:role "???"^^xsd:string ;
	bd:supplementalQualifier "false"^^xsd:string ;
	bd:used "false"^^xsd:string ;
.
mdrDomainsV1:V-DA_DADY
	rdf:type bd:Variable ;
	bd:basedOn <http://rdf.cdisc.org/std/sdtmig-3-1-2#Column.DA.DADY> ;
	rdfs:label "SDTM Variable"^^xsd:string ;
	bd:core "???"^^xsd:string ;
	bd:datatype "???"^^xsd:string ;
	bd:defaultCommentSet "false"^^xsd:string ;
	bd:defaultComment ""^^xsd:string ;
	bd:length "NN"^^xsd:string ;
	bd:format "???"^^xsd:string ;
	bd:notes "???"^^xsd:string ;
	bd:origin ""^^xsd:string ;
	bd:role "???"^^xsd:string ;
	bd:supplementalQualifier "false"^^xsd:string ;
	bd:used "false"^^xsd:string ;
.
mdrDomainsV1:V-DA_DAGRPID
	rdf:type bd:Variable ;
	bd:basedOn <http://rdf.cdisc.org/std/sdtmig-3-1-2#Column.DA.DAGRPID> ;
	rdfs:label "SDTM Variable"^^xsd:string ;
	bd:core "???"^^xsd:string ;
	bd:datatype "???"^^xsd:string ;
	bd:defaultCommentSet "false"^^xsd:string ;
	bd:defaultComment ""^^xsd:string ;
	bd:length "NN"^^xsd:string ;
	bd:format "???"^^xsd:string ;
	bd:notes "???"^^xsd:string ;
	bd:origin ""^^xsd:string ;
	bd:role "???"^^xsd:string ;
	bd:supplementalQualifier "false"^^xsd:string ;
	bd:used "false"^^xsd:string ;
.
mdrDomainsV1:V-DA_DAORRES
	rdf:type bd:Variable ;
	bd:basedOn <http://rdf.cdisc.org/std/sdtmig-3-1-2#Column.DA.DAORRES> ;
	rdfs:label "SDTM Variable"^^xsd:string ;
	bd:core "???"^^xsd:string ;
	bd:datatype "???"^^xsd:string ;
	bd:defaultCommentSet "false"^^xsd:string ;
	bd:defaultComment ""^^xsd:string ;
	bd:length "NN"^^xsd:string ;
	bd:format "???"^^xsd:string ;
	bd:notes "???"^^xsd:string ;
	bd:origin ""^^xsd:string ;
	bd:role "???"^^xsd:string ;
	bd:supplementalQualifier "false"^^xsd:string ;
	bd:used "false"^^xsd:string ;
.
mdrDomainsV1:V-DA_DAORRESU
	rdf:type bd:Variable ;
	bd:basedOn <http://rdf.cdisc.org/std/sdtmig-3-1-2#Column.DA.DAORRESU> ;
	rdfs:label "SDTM Variable"^^xsd:string ;
	bd:core "???"^^xsd:string ;
	bd:datatype "???"^^xsd:string ;
	bd:defaultCommentSet "false"^^xsd:string ;
	bd:defaultComment ""^^xsd:string ;
	bd:length "NN"^^xsd:string ;
	bd:format "???"^^xsd:string ;
	bd:notes "???"^^xsd:string ;
	bd:origin ""^^xsd:string ;
	bd:role "???"^^xsd:string ;
	bd:supplementalQualifier "false"^^xsd:string ;
	bd:used "false"^^xsd:string ;
.
mdrDomainsV1:V-DA_DAREASND
	rdf:type bd:Variable ;
	bd:basedOn <http://rdf.cdisc.org/std/sdtmig-3-1-2#Column.DA.DAREASND> ;
	rdfs:label "SDTM Variable"^^xsd:string ;
	bd:core "???"^^xsd:string ;
	bd:datatype "???"^^xsd:string ;
	bd:defaultCommentSet "false"^^xsd:string ;
	bd:defaultComment ""^^xsd:string ;
	bd:length "NN"^^xsd:string ;
	bd:format "???"^^xsd:string ;
	bd:notes "???"^^xsd:string ;
	bd:origin ""^^xsd:string ;
	bd:role "???"^^xsd:string ;
	bd:supplementalQualifier "false"^^xsd:string ;
	bd:used "false"^^xsd:string ;
.
mdrDomainsV1:V-DA_DAREFID
	rdf:type bd:Variable ;
	bd:basedOn <http://rdf.cdisc.org/std/sdtmig-3-1-2#Column.DA.DAREFID> ;
	rdfs:label "SDTM Variable"^^xsd:string ;
	bd:core "???"^^xsd:string ;
	bd:datatype "???"^^xsd:string ;
	bd:defaultCommentSet "false"^^xsd:string ;
	bd:defaultComment ""^^xsd:string ;
	bd:length "NN"^^xsd:string ;
	bd:format "???"^^xsd:string ;
	bd:notes "???"^^xsd:string ;
	bd:origin ""^^xsd:string ;
	bd:role "???"^^xsd:string ;
	bd:supplementalQualifier "false"^^xsd:string ;
	bd:used "false"^^xsd:string ;
.
mdrDomainsV1:V-DA_DASCAT
	rdf:type bd:Variable ;
	bd:basedOn <http://rdf.cdisc.org/std/sdtmig-3-1-2#Column.DA.DASCAT> ;
	rdfs:label "SDTM Variable"^^xsd:string ;
	bd:core "???"^^xsd:string ;
	bd:datatype "???"^^xsd:string ;
	bd:defaultCommentSet "false"^^xsd:string ;
	bd:defaultComment ""^^xsd:string ;
	bd:length "NN"^^xsd:string ;
	bd:format "???"^^xsd:string ;
	bd:notes "???"^^xsd:string ;
	bd:origin ""^^xsd:string ;
	bd:role "???"^^xsd:string ;
	bd:supplementalQualifier "false"^^xsd:string ;
	bd:used "false"^^xsd:string ;
.
mdrDomainsV1:V-DA_DASEQ
	rdf:type bd:Variable ;
	bd:basedOn <http://rdf.cdisc.org/std/sdtmig-3-1-2#Column.DA.DASEQ> ;
	rdfs:label "SDTM Variable"^^xsd:string ;
	bd:core "???"^^xsd:string ;
	bd:datatype "???"^^xsd:string ;
	bd:defaultCommentSet "false"^^xsd:string ;
	bd:defaultComment ""^^xsd:string ;
	bd:length "NN"^^xsd:string ;
	bd:format "???"^^xsd:string ;
	bd:notes "???"^^xsd:string ;
	bd:origin ""^^xsd:string ;
	bd:role "???"^^xsd:string ;
	bd:supplementalQualifier "false"^^xsd:string ;
	bd:used "false"^^xsd:string ;
.
mdrDomainsV1:V-DA_DASPID
	rdf:type bd:Variable ;
	bd:basedOn <http://rdf.cdisc.org/std/sdtmig-3-1-2#Column.DA.DASPID> ;
	rdfs:label "SDTM Variable"^^xsd:string ;
	bd:core "???"^^xsd:string ;
	bd:datatype "???"^^xsd:string ;
	bd:defaultCommentSet "false"^^xsd:string ;
	bd:defaultComment ""^^xsd:string ;
	bd:length "NN"^^xsd:string ;
	bd:format "???"^^xsd:string ;
	bd:notes "???"^^xsd:string ;
	bd:origin ""^^xsd:string ;
	bd:role "???"^^xsd:string ;
	bd:supplementalQualifier "false"^^xsd:string ;
	bd:used "false"^^xsd:string ;
.
mdrDomainsV1:V-DA_DASTAT
	rdf:type bd:Variable ;
	bd:basedOn <http://rdf.cdisc.org/std/sdtmig-3-1-2#Column.DA.DASTAT> ;
	rdfs:label "SDTM Variable"^^xsd:string ;
	bd:core "???"^^xsd:string ;
	bd:datatype "???"^^xsd:string ;
	bd:defaultCommentSet "false"^^xsd:string ;
	bd:defaultComment ""^^xsd:string ;
	bd:length "NN"^^xsd:string ;
	bd:format "???"^^xsd:string ;
	bd:notes "???"^^xsd:string ;
	bd:origin ""^^xsd:string ;
	bd:role "???"^^xsd:string ;
	bd:supplementalQualifier "false"^^xsd:string ;
	bd:used "false"^^xsd:string ;
.
mdrDomainsV1:V-DA_DASTRESC
	rdf:type bd:Variable ;
	bd:basedOn <http://rdf.cdisc.org/std/sdtmig-3-1-2#Column.DA.DASTRESC> ;
	rdfs:label "SDTM Variable"^^xsd:string ;
	bd:core "???"^^xsd:string ;
	bd:datatype "???"^^xsd:string ;
	bd:defaultCommentSet "false"^^xsd:string ;
	bd:defaultComment ""^^xsd:string ;
	bd:length "NN"^^xsd:string ;
	bd:format "???"^^xsd:string ;
	bd:notes "???"^^xsd:string ;
	bd:origin ""^^xsd:string ;
	bd:role "???"^^xsd:string ;
	bd:supplementalQualifier "false"^^xsd:string ;
	bd:used "false"^^xsd:string ;
.
mdrDomainsV1:V-DA_DASTRESN
	rdf:type bd:Variable ;
	bd:basedOn <http://rdf.cdisc.org/std/sdtmig-3-1-2#Column.DA.DASTRESN> ;
	rdfs:label "SDTM Variable"^^xsd:string ;
	bd:core "???"^^xsd:string ;
	bd:datatype "???"^^xsd:string ;
	bd:defaultCommentSet "false"^^xsd:string ;
	bd:defaultComment ""^^xsd:string ;
	bd:length "NN"^^xsd:string ;
	bd:format "???"^^xsd:string ;
	bd:notes "???"^^xsd:string ;
	bd:origin ""^^xsd:string ;
	bd:role "???"^^xsd:string ;
	bd:supplementalQualifier "false"^^xsd:string ;
	bd:used "false"^^xsd:string ;
.
mdrDomainsV1:V-DA_DASTRESU
	rdf:type bd:Variable ;
	bd:basedOn <http://rdf.cdisc.org/std/sdtmig-3-1-2#Column.DA.DASTRESU> ;
	rdfs:label "SDTM Variable"^^xsd:string ;
	bd:core "???"^^xsd:string ;
	bd:datatype "???"^^xsd:string ;
	bd:defaultCommentSet "false"^^xsd:string ;
	bd:defaultComment ""^^xsd:string ;
	bd:length "NN"^^xsd:string ;
	bd:format "???"^^xsd:string ;
	bd:notes "???"^^xsd:string ;
	bd:origin ""^^xsd:string ;
	bd:role "???"^^xsd:string ;
	bd:supplementalQualifier "false"^^xsd:string ;
	bd:used "false"^^xsd:string ;
.
mdrDomainsV1:V-DA_DATEST
	rdf:type bd:Variable ;
	bd:basedOn <http://rdf.cdisc.org/std/sdtmig-3-1-2#Column.DA.DATEST> ;
	rdfs:label "SDTM Variable"^^xsd:string ;
	bd:core "???"^^xsd:string ;
	bd:datatype "???"^^xsd:string ;
	bd:defaultCommentSet "false"^^xsd:string ;
	bd:defaultComment ""^^xsd:string ;
	bd:length "NN"^^xsd:string ;
	bd:format "???"^^xsd:string ;
	bd:notes "???"^^xsd:string ;
	bd:origin ""^^xsd:string ;
	bd:role "???"^^xsd:string ;
	bd:supplementalQualifier "false"^^xsd:string ;
	bd:used "false"^^xsd:string ;
.
mdrDomainsV1:V-DA_DATESTCD
	rdf:type bd:Variable ;
	bd:basedOn <http://rdf.cdisc.org/std/sdtmig-3-1-2#Column.DA.DATESTCD> ;
	rdfs:label "SDTM Variable"^^xsd:string ;
	bd:core "???"^^xsd:string ;
	bd:datatype "???"^^xsd:string ;
	bd:defaultCommentSet "false"^^xsd:string ;
	bd:defaultComment ""^^xsd:string ;
	bd:length "NN"^^xsd:string ;
	bd:format "???"^^xsd:string ;
	bd:notes "???"^^xsd:string ;
	bd:origin ""^^xsd:string ;
	bd:role "???"^^xsd:string ;
	bd:supplementalQualifier "false"^^xsd:string ;
	bd:used "false"^^xsd:string ;
.
mdrDomainsV1:V-DA_DOMAIN
	rdf:type bd:Variable ;
	bd:basedOn <http://rdf.cdisc.org/std/sdtmig-3-1-2#Column.DA.DOMAIN> ;
	rdfs:label "SDTM Variable"^^xsd:string ;
	bd:core "???"^^xsd:string ;
	bd:datatype "???"^^xsd:string ;
	bd:defaultCommentSet "false"^^xsd:string ;
	bd:defaultComment ""^^xsd:string ;
	bd:length "NN"^^xsd:string ;
	bd:format "???"^^xsd:string ;
	bd:notes "???"^^xsd:string ;
	bd:origin ""^^xsd:string ;
	bd:role "???"^^xsd:string ;
	bd:supplementalQualifier "false"^^xsd:string ;
	bd:used "false"^^xsd:string ;
.
mdrDomainsV1:V-DA_STUDYID
	rdf:type bd:Variable ;
	bd:basedOn <http://rdf.cdisc.org/std/sdtmig-3-1-2#Column.DA.STUDYID> ;
	rdfs:label "SDTM Variable"^^xsd:string ;
	bd:core "???"^^xsd:string ;
	bd:datatype "???"^^xsd:string ;
	bd:defaultCommentSet "false"^^xsd:string ;
	bd:defaultComment ""^^xsd:string ;
	bd:length "NN"^^xsd:string ;
	bd:format "???"^^xsd:string ;
	bd:notes "???"^^xsd:string ;
	bd:origin ""^^xsd:string ;
	bd:role "???"^^xsd:string ;
	bd:supplementalQualifier "false"^^xsd:string ;
	bd:used "false"^^xsd:string ;
.
mdrDomainsV1:V-DA_USUBJID
	rdf:type bd:Variable ;
	bd:basedOn <http://rdf.cdisc.org/std/sdtmig-3-1-2#Column.DA.USUBJID> ;
	rdfs:label "SDTM Variable"^^xsd:string ;
	bd:core "???"^^xsd:string ;
	bd:datatype "???"^^xsd:string ;
	bd:defaultCommentSet "false"^^xsd:string ;
	bd:defaultComment ""^^xsd:string ;
	bd:length "NN"^^xsd:string ;
	bd:format "???"^^xsd:string ;
	bd:notes "???"^^xsd:string ;
	bd:origin ""^^xsd:string ;
	bd:role "???"^^xsd:string ;
	bd:supplementalQualifier "false"^^xsd:string ;
	bd:used "false"^^xsd:string ;
.
mdrDomainsV1:V-DA_VISIT
	rdf:type bd:Variable ;
	bd:basedOn <http://rdf.cdisc.org/std/sdtmig-3-1-2#Column.DA.VISIT> ;
	rdfs:label "SDTM Variable"^^xsd:string ;
	bd:core "???"^^xsd:string ;
	bd:datatype "???"^^xsd:string ;
	bd:defaultCommentSet "false"^^xsd:string ;
	bd:defaultComment ""^^xsd:string ;
	bd:length "NN"^^xsd:string ;
	bd:format "???"^^xsd:string ;
	bd:notes "???"^^xsd:string ;
	bd:origin ""^^xsd:string ;
	bd:role "???"^^xsd:string ;
	bd:supplementalQualifier "false"^^xsd:string ;
	bd:used "false"^^xsd:string ;
.
mdrDomainsV1:V-DA_VISITDY
	rdf:type bd:Variable ;
	bd:basedOn <http://rdf.cdisc.org/std/sdtmig-3-1-2#Column.DA.VISITDY> ;
	rdfs:label "SDTM Variable"^^xsd:string ;
	bd:core "???"^^xsd:string ;
	bd:datatype "???"^^xsd:string ;
	bd:defaultCommentSet "false"^^xsd:string ;
	bd:defaultComment ""^^xsd:string ;
	bd:length "NN"^^xsd:string ;
	bd:format "???"^^xsd:string ;
	bd:notes "???"^^xsd:string ;
	bd:origin ""^^xsd:string ;
	bd:role "???"^^xsd:string ;
	bd:supplementalQualifier "false"^^xsd:string ;
	bd:used "false"^^xsd:string ;
.
mdrDomainsV1:V-DA_VISITNUM
	rdf:type bd:Variable ;
	bd:basedOn <http://rdf.cdisc.org/std/sdtmig-3-1-2#Column.DA.VISITNUM> ;
	rdfs:label "SDTM Variable"^^xsd:string ;
	bd:core "???"^^xsd:string ;
	bd:datatype "???"^^xsd:string ;
	bd:defaultCommentSet "false"^^xsd:string ;
	bd:defaultComment ""^^xsd:string ;
	bd:length "NN"^^xsd:string ;
	bd:format "???"^^xsd:string ;
	bd:notes "???"^^xsd:string ;
	bd:origin ""^^xsd:string ;
	bd:role "???"^^xsd:string ;
	bd:supplementalQualifier "false"^^xsd:string ;
	bd:used "false"^^xsd:string ;
.
mdrDomainsV1:V-EG_DOMAIN
	rdf:type bd:Variable ;
	bd:basedOn <http://rdf.cdisc.org/std/sdtmig-3-1-2#Column.EG.DOMAIN> ;
	rdfs:label "SDTM Variable"^^xsd:string ;
	bd:core "???"^^xsd:string ;
	bd:datatype "???"^^xsd:string ;
	bd:defaultCommentSet "false"^^xsd:string ;
	bd:defaultComment ""^^xsd:string ;
	bd:length "NN"^^xsd:string ;
	bd:format "???"^^xsd:string ;
	bd:notes "???"^^xsd:string ;
	bd:origin ""^^xsd:string ;
	bd:role "???"^^xsd:string ;
	bd:supplementalQualifier "false"^^xsd:string ;
	bd:used "false"^^xsd:string ;
.
mdrDomainsV1:V-EG_EGBLFL
	rdf:type bd:Variable ;
	bd:basedOn <http://rdf.cdisc.org/std/sdtmig-3-1-2#Column.EG.EGBLFL> ;
	rdfs:label "SDTM Variable"^^xsd:string ;
	bd:core "???"^^xsd:string ;
	bd:datatype "???"^^xsd:string ;
	bd:defaultCommentSet "false"^^xsd:string ;
	bd:defaultComment ""^^xsd:string ;
	bd:length "NN"^^xsd:string ;
	bd:format "???"^^xsd:string ;
	bd:notes "???"^^xsd:string ;
	bd:origin ""^^xsd:string ;
	bd:role "???"^^xsd:string ;
	bd:supplementalQualifier "false"^^xsd:string ;
	bd:used "false"^^xsd:string ;
.
mdrDomainsV1:V-EG_EGCAT
	rdf:type bd:Variable ;
	bd:basedOn <http://rdf.cdisc.org/std/sdtmig-3-1-2#Column.EG.EGCAT> ;
	rdfs:label "SDTM Variable"^^xsd:string ;
	bd:core "???"^^xsd:string ;
	bd:datatype "???"^^xsd:string ;
	bd:defaultCommentSet "false"^^xsd:string ;
	bd:defaultComment ""^^xsd:string ;
	bd:length "NN"^^xsd:string ;
	bd:format "???"^^xsd:string ;
	bd:notes "???"^^xsd:string ;
	bd:origin ""^^xsd:string ;
	bd:role "???"^^xsd:string ;
	bd:supplementalQualifier "false"^^xsd:string ;
	bd:used "false"^^xsd:string ;
.
mdrDomainsV1:V-EG_EGDRVFL
	rdf:type bd:Variable ;
	bd:basedOn <http://rdf.cdisc.org/std/sdtmig-3-1-2#Column.EG.EGDRVFL> ;
	rdfs:label "SDTM Variable"^^xsd:string ;
	bd:core "???"^^xsd:string ;
	bd:datatype "???"^^xsd:string ;
	bd:defaultCommentSet "false"^^xsd:string ;
	bd:defaultComment ""^^xsd:string ;
	bd:length "NN"^^xsd:string ;
	bd:format "???"^^xsd:string ;
	bd:notes "???"^^xsd:string ;
	bd:origin ""^^xsd:string ;
	bd:role "???"^^xsd:string ;
	bd:supplementalQualifier "false"^^xsd:string ;
	bd:used "false"^^xsd:string ;
.
mdrDomainsV1:V-EG_EGDTC
	rdf:type bd:Variable ;
	bd:basedOn <http://rdf.cdisc.org/std/sdtmig-3-1-2#Column.EG.EGDTC> ;
	rdfs:label "SDTM Variable"^^xsd:string ;
	bd:core "???"^^xsd:string ;
	bd:datatype "???"^^xsd:string ;
	bd:defaultCommentSet "false"^^xsd:string ;
	bd:defaultComment ""^^xsd:string ;
	bd:length "NN"^^xsd:string ;
	bd:format "???"^^xsd:string ;
	bd:notes "???"^^xsd:string ;
	bd:origin ""^^xsd:string ;
	bd:role "???"^^xsd:string ;
	bd:supplementalQualifier "false"^^xsd:string ;
	bd:used "false"^^xsd:string ;
.
mdrDomainsV1:V-EG_EGDY
	rdf:type bd:Variable ;
	bd:basedOn <http://rdf.cdisc.org/std/sdtmig-3-1-2#Column.EG.EGDY> ;
	rdfs:label "SDTM Variable"^^xsd:string ;
	bd:core "???"^^xsd:string ;
	bd:datatype "???"^^xsd:string ;
	bd:defaultCommentSet "false"^^xsd:string ;
	bd:defaultComment ""^^xsd:string ;
	bd:length "NN"^^xsd:string ;
	bd:format "???"^^xsd:string ;
	bd:notes "???"^^xsd:string ;
	bd:origin ""^^xsd:string ;
	bd:role "???"^^xsd:string ;
	bd:supplementalQualifier "false"^^xsd:string ;
	bd:used "false"^^xsd:string ;
.
mdrDomainsV1:V-EG_EGELTM
	rdf:type bd:Variable ;
	bd:basedOn <http://rdf.cdisc.org/std/sdtmig-3-1-2#Column.EG.EGELTM> ;
	rdfs:label "SDTM Variable"^^xsd:string ;
	bd:core "???"^^xsd:string ;
	bd:datatype "???"^^xsd:string ;
	bd:defaultCommentSet "false"^^xsd:string ;
	bd:defaultComment ""^^xsd:string ;
	bd:length "NN"^^xsd:string ;
	bd:format "???"^^xsd:string ;
	bd:notes "???"^^xsd:string ;
	bd:origin ""^^xsd:string ;
	bd:role "???"^^xsd:string ;
	bd:supplementalQualifier "false"^^xsd:string ;
	bd:used "false"^^xsd:string ;
.
mdrDomainsV1:V-EG_EGEVAL
	rdf:type bd:Variable ;
	bd:basedOn <http://rdf.cdisc.org/std/sdtmig-3-1-2#Column.EG.EGEVAL> ;
	rdfs:label "SDTM Variable"^^xsd:string ;
	bd:core "???"^^xsd:string ;
	bd:datatype "???"^^xsd:string ;
	bd:defaultCommentSet "false"^^xsd:string ;
	bd:defaultComment ""^^xsd:string ;
	bd:length "NN"^^xsd:string ;
	bd:format "???"^^xsd:string ;
	bd:notes "???"^^xsd:string ;
	bd:origin ""^^xsd:string ;
	bd:role "???"^^xsd:string ;
	bd:supplementalQualifier "false"^^xsd:string ;
	bd:used "false"^^xsd:string ;
.
mdrDomainsV1:V-EG_EGGRPID
	rdf:type bd:Variable ;
	bd:basedOn <http://rdf.cdisc.org/std/sdtmig-3-1-2#Column.EG.EGGRPID> ;
	rdfs:label "SDTM Variable"^^xsd:string ;
	bd:core "???"^^xsd:string ;
	bd:datatype "???"^^xsd:string ;
	bd:defaultCommentSet "false"^^xsd:string ;
	bd:defaultComment ""^^xsd:string ;
	bd:length "NN"^^xsd:string ;
	bd:format "???"^^xsd:string ;
	bd:notes "???"^^xsd:string ;
	bd:origin ""^^xsd:string ;
	bd:role "???"^^xsd:string ;
	bd:supplementalQualifier "false"^^xsd:string ;
	bd:used "false"^^xsd:string ;
.
mdrDomainsV1:V-EG_EGLOC
	rdf:type bd:Variable ;
	bd:basedOn <http://rdf.cdisc.org/std/sdtmig-3-1-2#Column.EG.EGLOC> ;
	rdfs:label "SDTM Variable"^^xsd:string ;
	bd:core "???"^^xsd:string ;
	bd:datatype "???"^^xsd:string ;
	bd:defaultCommentSet "false"^^xsd:string ;
	bd:defaultComment ""^^xsd:string ;
	bd:length "NN"^^xsd:string ;
	bd:format "???"^^xsd:string ;
	bd:notes "???"^^xsd:string ;
	bd:origin ""^^xsd:string ;
	bd:role "???"^^xsd:string ;
	bd:supplementalQualifier "false"^^xsd:string ;
	bd:used "false"^^xsd:string ;
.
mdrDomainsV1:V-EG_EGMETHOD
	rdf:type bd:Variable ;
	bd:basedOn <http://rdf.cdisc.org/std/sdtmig-3-1-2#Column.EG.EGMETHOD> ;
	rdfs:label "SDTM Variable"^^xsd:string ;
	bd:core "???"^^xsd:string ;
	bd:datatype "???"^^xsd:string ;
	bd:defaultCommentSet "false"^^xsd:string ;
	bd:defaultComment ""^^xsd:string ;
	bd:length "NN"^^xsd:string ;
	bd:format "???"^^xsd:string ;
	bd:notes "???"^^xsd:string ;
	bd:origin ""^^xsd:string ;
	bd:role "???"^^xsd:string ;
	bd:supplementalQualifier "false"^^xsd:string ;
	bd:used "false"^^xsd:string ;
.
mdrDomainsV1:V-EG_EGNAM
	rdf:type bd:Variable ;
	bd:basedOn <http://rdf.cdisc.org/std/sdtmig-3-1-2#Column.EG.EGNAM> ;
	rdfs:label "SDTM Variable"^^xsd:string ;
	bd:core "???"^^xsd:string ;
	bd:datatype "???"^^xsd:string ;
	bd:defaultCommentSet "false"^^xsd:string ;
	bd:defaultComment ""^^xsd:string ;
	bd:length "NN"^^xsd:string ;
	bd:format "???"^^xsd:string ;
	bd:notes "???"^^xsd:string ;
	bd:origin ""^^xsd:string ;
	bd:role "???"^^xsd:string ;
	bd:supplementalQualifier "false"^^xsd:string ;
	bd:used "false"^^xsd:string ;
.
mdrDomainsV1:V-EG_EGORRES
	rdf:type bd:Variable ;
	bd:basedOn <http://rdf.cdisc.org/std/sdtmig-3-1-2#Column.EG.EGORRES> ;
	rdfs:label "SDTM Variable"^^xsd:string ;
	bd:core "???"^^xsd:string ;
	bd:datatype "???"^^xsd:string ;
	bd:defaultCommentSet "false"^^xsd:string ;
	bd:defaultComment ""^^xsd:string ;
	bd:length "NN"^^xsd:string ;
	bd:format "???"^^xsd:string ;
	bd:notes "???"^^xsd:string ;
	bd:origin ""^^xsd:string ;
	bd:role "???"^^xsd:string ;
	bd:supplementalQualifier "false"^^xsd:string ;
	bd:used "false"^^xsd:string ;
.
mdrDomainsV1:V-EG_EGORRESU
	rdf:type bd:Variable ;
	bd:basedOn <http://rdf.cdisc.org/std/sdtmig-3-1-2#Column.EG.EGORRESU> ;
	rdfs:label "SDTM Variable"^^xsd:string ;
	bd:core "???"^^xsd:string ;
	bd:datatype "???"^^xsd:string ;
	bd:defaultCommentSet "false"^^xsd:string ;
	bd:defaultComment ""^^xsd:string ;
	bd:length "NN"^^xsd:string ;
	bd:format "???"^^xsd:string ;
	bd:notes "???"^^xsd:string ;
	bd:origin ""^^xsd:string ;
	bd:role "???"^^xsd:string ;
	bd:supplementalQualifier "false"^^xsd:string ;
	bd:used "false"^^xsd:string ;
.
mdrDomainsV1:V-EG_EGPOS
	rdf:type bd:Variable ;
	bd:basedOn <http://rdf.cdisc.org/std/sdtmig-3-1-2#Column.EG.EGPOS> ;
	rdfs:label "SDTM Variable"^^xsd:string ;
	bd:core "???"^^xsd:string ;
	bd:datatype "???"^^xsd:string ;
	bd:defaultCommentSet "false"^^xsd:string ;
	bd:defaultComment ""^^xsd:string ;
	bd:length "NN"^^xsd:string ;
	bd:format "???"^^xsd:string ;
	bd:notes "???"^^xsd:string ;
	bd:origin ""^^xsd:string ;
	bd:role "???"^^xsd:string ;
	bd:supplementalQualifier "false"^^xsd:string ;
	bd:used "false"^^xsd:string ;
.
mdrDomainsV1:V-EG_EGREASND
	rdf:type bd:Variable ;
	bd:basedOn <http://rdf.cdisc.org/std/sdtmig-3-1-2#Column.EG.EGREASND> ;
	rdfs:label "SDTM Variable"^^xsd:string ;
	bd:core "???"^^xsd:string ;
	bd:datatype "???"^^xsd:string ;
	bd:defaultCommentSet "false"^^xsd:string ;
	bd:defaultComment ""^^xsd:string ;
	bd:length "NN"^^xsd:string ;
	bd:format "???"^^xsd:string ;
	bd:notes "???"^^xsd:string ;
	bd:origin ""^^xsd:string ;
	bd:role "???"^^xsd:string ;
	bd:supplementalQualifier "false"^^xsd:string ;
	bd:used "false"^^xsd:string ;
.
mdrDomainsV1:V-EG_EGREFID
	rdf:type bd:Variable ;
	bd:basedOn <http://rdf.cdisc.org/std/sdtmig-3-1-2#Column.EG.EGREFID> ;
	rdfs:label "SDTM Variable"^^xsd:string ;
	bd:core "???"^^xsd:string ;
	bd:datatype "???"^^xsd:string ;
	bd:defaultCommentSet "false"^^xsd:string ;
	bd:defaultComment ""^^xsd:string ;
	bd:length "NN"^^xsd:string ;
	bd:format "???"^^xsd:string ;
	bd:notes "???"^^xsd:string ;
	bd:origin ""^^xsd:string ;
	bd:role "???"^^xsd:string ;
	bd:supplementalQualifier "false"^^xsd:string ;
	bd:used "false"^^xsd:string ;
.
mdrDomainsV1:V-EG_EGRFTDTC
	rdf:type bd:Variable ;
	bd:basedOn <http://rdf.cdisc.org/std/sdtmig-3-1-2#Column.EG.EGRFTDTC> ;
	rdfs:label "SDTM Variable"^^xsd:string ;
	bd:core "???"^^xsd:string ;
	bd:datatype "???"^^xsd:string ;
	bd:defaultCommentSet "false"^^xsd:string ;
	bd:defaultComment ""^^xsd:string ;
	bd:length "NN"^^xsd:string ;
	bd:format "???"^^xsd:string ;
	bd:notes "???"^^xsd:string ;
	bd:origin ""^^xsd:string ;
	bd:role "???"^^xsd:string ;
	bd:supplementalQualifier "false"^^xsd:string ;
	bd:used "false"^^xsd:string ;
.
mdrDomainsV1:V-EG_EGSCAT
	rdf:type bd:Variable ;
	bd:basedOn <http://rdf.cdisc.org/std/sdtmig-3-1-2#Column.EG.EGSCAT> ;
	rdfs:label "SDTM Variable"^^xsd:string ;
	bd:core "???"^^xsd:string ;
	bd:datatype "???"^^xsd:string ;
	bd:defaultCommentSet "false"^^xsd:string ;
	bd:defaultComment ""^^xsd:string ;
	bd:length "NN"^^xsd:string ;
	bd:format "???"^^xsd:string ;
	bd:notes "???"^^xsd:string ;
	bd:origin ""^^xsd:string ;
	bd:role "???"^^xsd:string ;
	bd:supplementalQualifier "false"^^xsd:string ;
	bd:used "false"^^xsd:string ;
.
mdrDomainsV1:V-EG_EGSEQ
	rdf:type bd:Variable ;
	bd:basedOn <http://rdf.cdisc.org/std/sdtmig-3-1-2#Column.EG.EGSEQ> ;
	rdfs:label "SDTM Variable"^^xsd:string ;
	bd:core "???"^^xsd:string ;
	bd:datatype "???"^^xsd:string ;
	bd:defaultCommentSet "false"^^xsd:string ;
	bd:defaultComment ""^^xsd:string ;
	bd:length "NN"^^xsd:string ;
	bd:format "???"^^xsd:string ;
	bd:notes "???"^^xsd:string ;
	bd:origin ""^^xsd:string ;
	bd:role "???"^^xsd:string ;
	bd:supplementalQualifier "false"^^xsd:string ;
	bd:used "false"^^xsd:string ;
.
mdrDomainsV1:V-EG_EGSPID
	rdf:type bd:Variable ;
	bd:basedOn <http://rdf.cdisc.org/std/sdtmig-3-1-2#Column.EG.EGSPID> ;
	rdfs:label "SDTM Variable"^^xsd:string ;
	bd:core "???"^^xsd:string ;
	bd:datatype "???"^^xsd:string ;
	bd:defaultCommentSet "false"^^xsd:string ;
	bd:defaultComment ""^^xsd:string ;
	bd:length "NN"^^xsd:string ;
	bd:format "???"^^xsd:string ;
	bd:notes "???"^^xsd:string ;
	bd:origin ""^^xsd:string ;
	bd:role "???"^^xsd:string ;
	bd:supplementalQualifier "false"^^xsd:string ;
	bd:used "false"^^xsd:string ;
.
mdrDomainsV1:V-EG_EGSTAT
	rdf:type bd:Variable ;
	bd:basedOn <http://rdf.cdisc.org/std/sdtmig-3-1-2#Column.EG.EGSTAT> ;
	rdfs:label "SDTM Variable"^^xsd:string ;
	bd:core "???"^^xsd:string ;
	bd:datatype "???"^^xsd:string ;
	bd:defaultCommentSet "false"^^xsd:string ;
	bd:defaultComment ""^^xsd:string ;
	bd:length "NN"^^xsd:string ;
	bd:format "???"^^xsd:string ;
	bd:notes "???"^^xsd:string ;
	bd:origin ""^^xsd:string ;
	bd:role "???"^^xsd:string ;
	bd:supplementalQualifier "false"^^xsd:string ;
	bd:used "false"^^xsd:string ;
.
mdrDomainsV1:V-EG_EGSTRESC
	rdf:type bd:Variable ;
	bd:basedOn <http://rdf.cdisc.org/std/sdtmig-3-1-2#Column.EG.EGSTRESC> ;
	rdfs:label "SDTM Variable"^^xsd:string ;
	bd:core "???"^^xsd:string ;
	bd:datatype "???"^^xsd:string ;
	bd:defaultCommentSet "false"^^xsd:string ;
	bd:defaultComment ""^^xsd:string ;
	bd:length "NN"^^xsd:string ;
	bd:format "???"^^xsd:string ;
	bd:notes "???"^^xsd:string ;
	bd:origin ""^^xsd:string ;
	bd:role "???"^^xsd:string ;
	bd:supplementalQualifier "false"^^xsd:string ;
	bd:used "false"^^xsd:string ;
.
mdrDomainsV1:V-EG_EGSTRESN
	rdf:type bd:Variable ;
	bd:basedOn <http://rdf.cdisc.org/std/sdtmig-3-1-2#Column.EG.EGSTRESN> ;
	rdfs:label "SDTM Variable"^^xsd:string ;
	bd:core "???"^^xsd:string ;
	bd:datatype "???"^^xsd:string ;
	bd:defaultCommentSet "false"^^xsd:string ;
	bd:defaultComment ""^^xsd:string ;
	bd:length "NN"^^xsd:string ;
	bd:format "???"^^xsd:string ;
	bd:notes "???"^^xsd:string ;
	bd:origin ""^^xsd:string ;
	bd:role "???"^^xsd:string ;
	bd:supplementalQualifier "false"^^xsd:string ;
	bd:used "false"^^xsd:string ;
.
mdrDomainsV1:V-EG_EGSTRESU
	rdf:type bd:Variable ;
	bd:basedOn <http://rdf.cdisc.org/std/sdtmig-3-1-2#Column.EG.EGSTRESU> ;
	rdfs:label "SDTM Variable"^^xsd:string ;
	bd:core "???"^^xsd:string ;
	bd:datatype "???"^^xsd:string ;
	bd:defaultCommentSet "false"^^xsd:string ;
	bd:defaultComment ""^^xsd:string ;
	bd:length "NN"^^xsd:string ;
	bd:format "???"^^xsd:string ;
	bd:notes "???"^^xsd:string ;
	bd:origin ""^^xsd:string ;
	bd:role "???"^^xsd:string ;
	bd:supplementalQualifier "false"^^xsd:string ;
	bd:used "false"^^xsd:string ;
.
mdrDomainsV1:V-EG_EGTEST
	rdf:type bd:Variable ;
	bd:basedOn <http://rdf.cdisc.org/std/sdtmig-3-1-2#Column.EG.EGTEST> ;
	rdfs:label "SDTM Variable"^^xsd:string ;
	bd:core "???"^^xsd:string ;
	bd:datatype "???"^^xsd:string ;
	bd:defaultCommentSet "false"^^xsd:string ;
	bd:defaultComment ""^^xsd:string ;
	bd:length "NN"^^xsd:string ;
	bd:format "???"^^xsd:string ;
	bd:notes "???"^^xsd:string ;
	bd:origin ""^^xsd:string ;
	bd:role "???"^^xsd:string ;
	bd:supplementalQualifier "false"^^xsd:string ;
	bd:used "false"^^xsd:string ;
.
mdrDomainsV1:V-EG_EGTESTCD
	rdf:type bd:Variable ;
	bd:basedOn <http://rdf.cdisc.org/std/sdtmig-3-1-2#Column.EG.EGTESTCD> ;
	rdfs:label "SDTM Variable"^^xsd:string ;
	bd:core "???"^^xsd:string ;
	bd:datatype "???"^^xsd:string ;
	bd:defaultCommentSet "false"^^xsd:string ;
	bd:defaultComment ""^^xsd:string ;
	bd:length "NN"^^xsd:string ;
	bd:format "???"^^xsd:string ;
	bd:notes "???"^^xsd:string ;
	bd:origin ""^^xsd:string ;
	bd:role "???"^^xsd:string ;
	bd:supplementalQualifier "false"^^xsd:string ;
	bd:used "false"^^xsd:string ;
.
mdrDomainsV1:V-EG_EGTPT
	rdf:type bd:Variable ;
	bd:basedOn <http://rdf.cdisc.org/std/sdtmig-3-1-2#Column.EG.EGTPT> ;
	rdfs:label "SDTM Variable"^^xsd:string ;
	bd:core "???"^^xsd:string ;
	bd:datatype "???"^^xsd:string ;
	bd:defaultCommentSet "false"^^xsd:string ;
	bd:defaultComment ""^^xsd:string ;
	bd:length "NN"^^xsd:string ;
	bd:format "???"^^xsd:string ;
	bd:notes "???"^^xsd:string ;
	bd:origin ""^^xsd:string ;
	bd:role "???"^^xsd:string ;
	bd:supplementalQualifier "false"^^xsd:string ;
	bd:used "false"^^xsd:string ;
.
mdrDomainsV1:V-EG_EGTPTNUM
	rdf:type bd:Variable ;
	bd:basedOn <http://rdf.cdisc.org/std/sdtmig-3-1-2#Column.EG.EGTPTNUM> ;
	rdfs:label "SDTM Variable"^^xsd:string ;
	bd:core "???"^^xsd:string ;
	bd:datatype "???"^^xsd:string ;
	bd:defaultCommentSet "false"^^xsd:string ;
	bd:defaultComment ""^^xsd:string ;
	bd:length "NN"^^xsd:string ;
	bd:format "???"^^xsd:string ;
	bd:notes "???"^^xsd:string ;
	bd:origin ""^^xsd:string ;
	bd:role "???"^^xsd:string ;
	bd:supplementalQualifier "false"^^xsd:string ;
	bd:used "false"^^xsd:string ;
.
mdrDomainsV1:V-EG_EGTPTREF
	rdf:type bd:Variable ;
	bd:basedOn <http://rdf.cdisc.org/std/sdtmig-3-1-2#Column.EG.EGTPTREF> ;
	rdfs:label "SDTM Variable"^^xsd:string ;
	bd:core "???"^^xsd:string ;
	bd:datatype "???"^^xsd:string ;
	bd:defaultCommentSet "false"^^xsd:string ;
	bd:defaultComment ""^^xsd:string ;
	bd:length "NN"^^xsd:string ;
	bd:format "???"^^xsd:string ;
	bd:notes "???"^^xsd:string ;
	bd:origin ""^^xsd:string ;
	bd:role "???"^^xsd:string ;
	bd:supplementalQualifier "false"^^xsd:string ;
	bd:used "false"^^xsd:string ;
.
mdrDomainsV1:V-EG_EGXFN
	rdf:type bd:Variable ;
	bd:basedOn <http://rdf.cdisc.org/std/sdtmig-3-1-2#Column.EG.EGXFN> ;
	rdfs:label "SDTM Variable"^^xsd:string ;
	bd:core "???"^^xsd:string ;
	bd:datatype "???"^^xsd:string ;
	bd:defaultCommentSet "false"^^xsd:string ;
	bd:defaultComment ""^^xsd:string ;
	bd:length "NN"^^xsd:string ;
	bd:format "???"^^xsd:string ;
	bd:notes "???"^^xsd:string ;
	bd:origin ""^^xsd:string ;
	bd:role "???"^^xsd:string ;
	bd:supplementalQualifier "false"^^xsd:string ;
	bd:used "false"^^xsd:string ;
.
mdrDomainsV1:V-EG_STUDYID
	rdf:type bd:Variable ;
	bd:basedOn <http://rdf.cdisc.org/std/sdtmig-3-1-2#Column.EG.STUDYID> ;
	rdfs:label "SDTM Variable"^^xsd:string ;
	bd:core "???"^^xsd:string ;
	bd:datatype "???"^^xsd:string ;
	bd:defaultCommentSet "false"^^xsd:string ;
	bd:defaultComment ""^^xsd:string ;
	bd:length "NN"^^xsd:string ;
	bd:format "???"^^xsd:string ;
	bd:notes "???"^^xsd:string ;
	bd:origin ""^^xsd:string ;
	bd:role "???"^^xsd:string ;
	bd:supplementalQualifier "false"^^xsd:string ;
	bd:used "false"^^xsd:string ;
.
mdrDomainsV1:V-EG_USUBJID
	rdf:type bd:Variable ;
	bd:basedOn <http://rdf.cdisc.org/std/sdtmig-3-1-2#Column.EG.USUBJID> ;
	rdfs:label "SDTM Variable"^^xsd:string ;
	bd:core "???"^^xsd:string ;
	bd:datatype "???"^^xsd:string ;
	bd:defaultCommentSet "false"^^xsd:string ;
	bd:defaultComment ""^^xsd:string ;
	bd:length "NN"^^xsd:string ;
	bd:format "???"^^xsd:string ;
	bd:notes "???"^^xsd:string ;
	bd:origin ""^^xsd:string ;
	bd:role "???"^^xsd:string ;
	bd:supplementalQualifier "false"^^xsd:string ;
	bd:used "false"^^xsd:string ;
.
mdrDomainsV1:V-EG_VISIT
	rdf:type bd:Variable ;
	bd:basedOn <http://rdf.cdisc.org/std/sdtmig-3-1-2#Column.EG.VISIT> ;
	rdfs:label "SDTM Variable"^^xsd:string ;
	bd:core "???"^^xsd:string ;
	bd:datatype "???"^^xsd:string ;
	bd:defaultCommentSet "false"^^xsd:string ;
	bd:defaultComment ""^^xsd:string ;
	bd:length "NN"^^xsd:string ;
	bd:format "???"^^xsd:string ;
	bd:notes "???"^^xsd:string ;
	bd:origin ""^^xsd:string ;
	bd:role "???"^^xsd:string ;
	bd:supplementalQualifier "false"^^xsd:string ;
	bd:used "false"^^xsd:string ;
.
mdrDomainsV1:V-EG_VISITDY
	rdf:type bd:Variable ;
	bd:basedOn <http://rdf.cdisc.org/std/sdtmig-3-1-2#Column.EG.VISITDY> ;
	rdfs:label "SDTM Variable"^^xsd:string ;
	bd:core "???"^^xsd:string ;
	bd:datatype "???"^^xsd:string ;
	bd:defaultCommentSet "false"^^xsd:string ;
	bd:defaultComment ""^^xsd:string ;
	bd:length "NN"^^xsd:string ;
	bd:format "???"^^xsd:string ;
	bd:notes "???"^^xsd:string ;
	bd:origin ""^^xsd:string ;
	bd:role "???"^^xsd:string ;
	bd:supplementalQualifier "false"^^xsd:string ;
	bd:used "false"^^xsd:string ;
.
mdrDomainsV1:V-EG_VISITNUM
	rdf:type bd:Variable ;
	bd:basedOn <http://rdf.cdisc.org/std/sdtmig-3-1-2#Column.EG.VISITNUM> ;
	rdfs:label "SDTM Variable"^^xsd:string ;
	bd:core "???"^^xsd:string ;
	bd:datatype "???"^^xsd:string ;
	bd:defaultCommentSet "false"^^xsd:string ;
	bd:defaultComment ""^^xsd:string ;
	bd:length "NN"^^xsd:string ;
	bd:format "???"^^xsd:string ;
	bd:notes "???"^^xsd:string ;
	bd:origin ""^^xsd:string ;
	bd:role "???"^^xsd:string ;
	bd:supplementalQualifier "false"^^xsd:string ;
	bd:used "false"^^xsd:string ;
.
mdrDomainsV1:V-EX_DOMAIN
	rdf:type bd:Variable ;
	bd:basedOn <http://rdf.cdisc.org/std/sdtmig-3-1-2#Column.EX.DOMAIN> ;
	rdfs:label "SDTM Variable"^^xsd:string ;
	bd:core "???"^^xsd:string ;
	bd:datatype "???"^^xsd:string ;
	bd:defaultCommentSet "false"^^xsd:string ;
	bd:defaultComment ""^^xsd:string ;
	bd:length "NN"^^xsd:string ;
	bd:format "???"^^xsd:string ;
	bd:notes "???"^^xsd:string ;
	bd:origin ""^^xsd:string ;
	bd:role "???"^^xsd:string ;
	bd:supplementalQualifier "false"^^xsd:string ;
	bd:used "false"^^xsd:string ;
.
mdrDomainsV1:V-EX_EPOCH
	rdf:type bd:Variable ;
	bd:basedOn <http://rdf.cdisc.org/std/sdtmig-3-1-2#Column.EX.EPOCH> ;
	rdfs:label "SDTM Variable"^^xsd:string ;
	bd:core "???"^^xsd:string ;
	bd:datatype "???"^^xsd:string ;
	bd:defaultCommentSet "false"^^xsd:string ;
	bd:defaultComment ""^^xsd:string ;
	bd:length "NN"^^xsd:string ;
	bd:format "???"^^xsd:string ;
	bd:notes "???"^^xsd:string ;
	bd:origin ""^^xsd:string ;
	bd:role "???"^^xsd:string ;
	bd:supplementalQualifier "false"^^xsd:string ;
	bd:used "false"^^xsd:string ;
.
mdrDomainsV1:V-EX_EXADJ
	rdf:type bd:Variable ;
	bd:basedOn <http://rdf.cdisc.org/std/sdtmig-3-1-2#Column.EX.EXADJ> ;
	rdfs:label "SDTM Variable"^^xsd:string ;
	bd:core "???"^^xsd:string ;
	bd:datatype "???"^^xsd:string ;
	bd:defaultCommentSet "false"^^xsd:string ;
	bd:defaultComment ""^^xsd:string ;
	bd:length "NN"^^xsd:string ;
	bd:format "???"^^xsd:string ;
	bd:notes "???"^^xsd:string ;
	bd:origin ""^^xsd:string ;
	bd:role "???"^^xsd:string ;
	bd:supplementalQualifier "false"^^xsd:string ;
	bd:used "false"^^xsd:string ;
.
mdrDomainsV1:V-EX_EXCAT
	rdf:type bd:Variable ;
	bd:basedOn <http://rdf.cdisc.org/std/sdtmig-3-1-2#Column.EX.EXCAT> ;
	rdfs:label "SDTM Variable"^^xsd:string ;
	bd:core "???"^^xsd:string ;
	bd:datatype "???"^^xsd:string ;
	bd:defaultCommentSet "false"^^xsd:string ;
	bd:defaultComment ""^^xsd:string ;
	bd:length "NN"^^xsd:string ;
	bd:format "???"^^xsd:string ;
	bd:notes "???"^^xsd:string ;
	bd:origin ""^^xsd:string ;
	bd:role "???"^^xsd:string ;
	bd:supplementalQualifier "false"^^xsd:string ;
	bd:used "false"^^xsd:string ;
.
mdrDomainsV1:V-EX_EXDOSE
	rdf:type bd:Variable ;
	bd:basedOn <http://rdf.cdisc.org/std/sdtmig-3-1-2#Column.EX.EXDOSE> ;
	rdfs:label "SDTM Variable"^^xsd:string ;
	bd:core "???"^^xsd:string ;
	bd:datatype "???"^^xsd:string ;
	bd:defaultCommentSet "false"^^xsd:string ;
	bd:defaultComment ""^^xsd:string ;
	bd:length "NN"^^xsd:string ;
	bd:format "???"^^xsd:string ;
	bd:notes "???"^^xsd:string ;
	bd:origin ""^^xsd:string ;
	bd:role "???"^^xsd:string ;
	bd:supplementalQualifier "false"^^xsd:string ;
	bd:used "false"^^xsd:string ;
.
mdrDomainsV1:V-EX_EXDOSFRM
	rdf:type bd:Variable ;
	bd:basedOn <http://rdf.cdisc.org/std/sdtmig-3-1-2#Column.EX.EXDOSFRM> ;
	rdfs:label "SDTM Variable"^^xsd:string ;
	bd:core "???"^^xsd:string ;
	bd:datatype "???"^^xsd:string ;
	bd:defaultCommentSet "false"^^xsd:string ;
	bd:defaultComment ""^^xsd:string ;
	bd:length "NN"^^xsd:string ;
	bd:format "???"^^xsd:string ;
	bd:notes "???"^^xsd:string ;
	bd:origin ""^^xsd:string ;
	bd:role "???"^^xsd:string ;
	bd:supplementalQualifier "false"^^xsd:string ;
	bd:used "false"^^xsd:string ;
.
mdrDomainsV1:V-EX_EXDOSFRQ
	rdf:type bd:Variable ;
	bd:basedOn <http://rdf.cdisc.org/std/sdtmig-3-1-2#Column.EX.EXDOSFRQ> ;
	rdfs:label "SDTM Variable"^^xsd:string ;
	bd:core "???"^^xsd:string ;
	bd:datatype "???"^^xsd:string ;
	bd:defaultCommentSet "false"^^xsd:string ;
	bd:defaultComment ""^^xsd:string ;
	bd:length "NN"^^xsd:string ;
	bd:format "???"^^xsd:string ;
	bd:notes "???"^^xsd:string ;
	bd:origin ""^^xsd:string ;
	bd:role "???"^^xsd:string ;
	bd:supplementalQualifier "false"^^xsd:string ;
	bd:used "false"^^xsd:string ;
.
mdrDomainsV1:V-EX_EXDOSRGM
	rdf:type bd:Variable ;
	bd:basedOn <http://rdf.cdisc.org/std/sdtmig-3-1-2#Column.EX.EXDOSRGM> ;
	rdfs:label "SDTM Variable"^^xsd:string ;
	bd:core "???"^^xsd:string ;
	bd:datatype "???"^^xsd:string ;
	bd:defaultCommentSet "false"^^xsd:string ;
	bd:defaultComment ""^^xsd:string ;
	bd:length "NN"^^xsd:string ;
	bd:format "???"^^xsd:string ;
	bd:notes "???"^^xsd:string ;
	bd:origin ""^^xsd:string ;
	bd:role "???"^^xsd:string ;
	bd:supplementalQualifier "false"^^xsd:string ;
	bd:used "false"^^xsd:string ;
.
mdrDomainsV1:V-EX_EXDOSTOT
	rdf:type bd:Variable ;
	bd:basedOn <http://rdf.cdisc.org/std/sdtmig-3-1-2#Column.EX.EXDOSTOT> ;
	rdfs:label "SDTM Variable"^^xsd:string ;
	bd:core "???"^^xsd:string ;
	bd:datatype "???"^^xsd:string ;
	bd:defaultCommentSet "false"^^xsd:string ;
	bd:defaultComment ""^^xsd:string ;
	bd:length "NN"^^xsd:string ;
	bd:format "???"^^xsd:string ;
	bd:notes "???"^^xsd:string ;
	bd:origin ""^^xsd:string ;
	bd:role "???"^^xsd:string ;
	bd:supplementalQualifier "false"^^xsd:string ;
	bd:used "false"^^xsd:string ;
.
mdrDomainsV1:V-EX_EXDOSTXT
	rdf:type bd:Variable ;
	bd:basedOn <http://rdf.cdisc.org/std/sdtmig-3-1-2#Column.EX.EXDOSTXT> ;
	rdfs:label "SDTM Variable"^^xsd:string ;
	bd:core "???"^^xsd:string ;
	bd:datatype "???"^^xsd:string ;
	bd:defaultCommentSet "false"^^xsd:string ;
	bd:defaultComment ""^^xsd:string ;
	bd:length "NN"^^xsd:string ;
	bd:format "???"^^xsd:string ;
	bd:notes "???"^^xsd:string ;
	bd:origin ""^^xsd:string ;
	bd:role "???"^^xsd:string ;
	bd:supplementalQualifier "false"^^xsd:string ;
	bd:used "false"^^xsd:string ;
.
mdrDomainsV1:V-EX_EXDOSU
	rdf:type bd:Variable ;
	bd:basedOn <http://rdf.cdisc.org/std/sdtmig-3-1-2#Column.EX.EXDOSU> ;
	rdfs:label "SDTM Variable"^^xsd:string ;
	bd:core "???"^^xsd:string ;
	bd:datatype "???"^^xsd:string ;
	bd:defaultCommentSet "false"^^xsd:string ;
	bd:defaultComment ""^^xsd:string ;
	bd:length "NN"^^xsd:string ;
	bd:format "???"^^xsd:string ;
	bd:notes "???"^^xsd:string ;
	bd:origin ""^^xsd:string ;
	bd:role "???"^^xsd:string ;
	bd:supplementalQualifier "false"^^xsd:string ;
	bd:used "false"^^xsd:string ;
.
mdrDomainsV1:V-EX_EXDUR
	rdf:type bd:Variable ;
	bd:basedOn <http://rdf.cdisc.org/std/sdtmig-3-1-2#Column.EX.EXDUR> ;
	rdfs:label "SDTM Variable"^^xsd:string ;
	bd:core "???"^^xsd:string ;
	bd:datatype "???"^^xsd:string ;
	bd:defaultCommentSet "false"^^xsd:string ;
	bd:defaultComment ""^^xsd:string ;
	bd:length "NN"^^xsd:string ;
	bd:format "???"^^xsd:string ;
	bd:notes "???"^^xsd:string ;
	bd:origin ""^^xsd:string ;
	bd:role "???"^^xsd:string ;
	bd:supplementalQualifier "false"^^xsd:string ;
	bd:used "false"^^xsd:string ;
.
mdrDomainsV1:V-EX_EXELTM
	rdf:type bd:Variable ;
	bd:basedOn <http://rdf.cdisc.org/std/sdtmig-3-1-2#Column.EX.EXELTM> ;
	rdfs:label "SDTM Variable"^^xsd:string ;
	bd:core "???"^^xsd:string ;
	bd:datatype "???"^^xsd:string ;
	bd:defaultCommentSet "false"^^xsd:string ;
	bd:defaultComment ""^^xsd:string ;
	bd:length "NN"^^xsd:string ;
	bd:format "???"^^xsd:string ;
	bd:notes "???"^^xsd:string ;
	bd:origin ""^^xsd:string ;
	bd:role "???"^^xsd:string ;
	bd:supplementalQualifier "false"^^xsd:string ;
	bd:used "false"^^xsd:string ;
.
mdrDomainsV1:V-EX_EXENDTC
	rdf:type bd:Variable ;
	bd:basedOn <http://rdf.cdisc.org/std/sdtmig-3-1-2#Column.EX.EXENDTC> ;
	rdfs:label "SDTM Variable"^^xsd:string ;
	bd:core "???"^^xsd:string ;
	bd:datatype "???"^^xsd:string ;
	bd:defaultCommentSet "false"^^xsd:string ;
	bd:defaultComment ""^^xsd:string ;
	bd:length "NN"^^xsd:string ;
	bd:format "???"^^xsd:string ;
	bd:notes "???"^^xsd:string ;
	bd:origin ""^^xsd:string ;
	bd:role "???"^^xsd:string ;
	bd:supplementalQualifier "false"^^xsd:string ;
	bd:used "false"^^xsd:string ;
.
mdrDomainsV1:V-EX_EXENDY
	rdf:type bd:Variable ;
	bd:basedOn <http://rdf.cdisc.org/std/sdtmig-3-1-2#Column.EX.EXENDY> ;
	rdfs:label "SDTM Variable"^^xsd:string ;
	bd:core "???"^^xsd:string ;
	bd:datatype "???"^^xsd:string ;
	bd:defaultCommentSet "false"^^xsd:string ;
	bd:defaultComment ""^^xsd:string ;
	bd:length "NN"^^xsd:string ;
	bd:format "???"^^xsd:string ;
	bd:notes "???"^^xsd:string ;
	bd:origin ""^^xsd:string ;
	bd:role "???"^^xsd:string ;
	bd:supplementalQualifier "false"^^xsd:string ;
	bd:used "false"^^xsd:string ;
.
mdrDomainsV1:V-EX_EXGRPID
	rdf:type bd:Variable ;
	bd:basedOn <http://rdf.cdisc.org/std/sdtmig-3-1-2#Column.EX.EXGRPID> ;
	rdfs:label "SDTM Variable"^^xsd:string ;
	bd:core "???"^^xsd:string ;
	bd:datatype "???"^^xsd:string ;
	bd:defaultCommentSet "false"^^xsd:string ;
	bd:defaultComment ""^^xsd:string ;
	bd:length "NN"^^xsd:string ;
	bd:format "???"^^xsd:string ;
	bd:notes "???"^^xsd:string ;
	bd:origin ""^^xsd:string ;
	bd:role "???"^^xsd:string ;
	bd:supplementalQualifier "false"^^xsd:string ;
	bd:used "false"^^xsd:string ;
.
mdrDomainsV1:V-EX_EXLOC
	rdf:type bd:Variable ;
	bd:basedOn <http://rdf.cdisc.org/std/sdtmig-3-1-2#Column.EX.EXLOC> ;
	rdfs:label "SDTM Variable"^^xsd:string ;
	bd:core "???"^^xsd:string ;
	bd:datatype "???"^^xsd:string ;
	bd:defaultCommentSet "false"^^xsd:string ;
	bd:defaultComment ""^^xsd:string ;
	bd:length "NN"^^xsd:string ;
	bd:format "???"^^xsd:string ;
	bd:notes "???"^^xsd:string ;
	bd:origin ""^^xsd:string ;
	bd:role "???"^^xsd:string ;
	bd:supplementalQualifier "false"^^xsd:string ;
	bd:used "false"^^xsd:string ;
.
mdrDomainsV1:V-EX_EXLOT
	rdf:type bd:Variable ;
	bd:basedOn <http://rdf.cdisc.org/std/sdtmig-3-1-2#Column.EX.EXLOT> ;
	rdfs:label "SDTM Variable"^^xsd:string ;
	bd:core "???"^^xsd:string ;
	bd:datatype "???"^^xsd:string ;
	bd:defaultCommentSet "false"^^xsd:string ;
	bd:defaultComment ""^^xsd:string ;
	bd:length "NN"^^xsd:string ;
	bd:format "???"^^xsd:string ;
	bd:notes "???"^^xsd:string ;
	bd:origin ""^^xsd:string ;
	bd:role "???"^^xsd:string ;
	bd:supplementalQualifier "false"^^xsd:string ;
	bd:used "false"^^xsd:string ;
.
mdrDomainsV1:V-EX_EXROUTE
	rdf:type bd:Variable ;
	bd:basedOn <http://rdf.cdisc.org/std/sdtmig-3-1-2#Column.EX.EXROUTE> ;
	rdfs:label "SDTM Variable"^^xsd:string ;
	bd:core "???"^^xsd:string ;
	bd:datatype "???"^^xsd:string ;
	bd:defaultCommentSet "false"^^xsd:string ;
	bd:defaultComment ""^^xsd:string ;
	bd:length "NN"^^xsd:string ;
	bd:format "???"^^xsd:string ;
	bd:notes "???"^^xsd:string ;
	bd:origin ""^^xsd:string ;
	bd:role "???"^^xsd:string ;
	bd:supplementalQualifier "false"^^xsd:string ;
	bd:used "false"^^xsd:string ;
.
mdrDomainsV1:V-EX_EXSCAT
	rdf:type bd:Variable ;
	bd:basedOn <http://rdf.cdisc.org/std/sdtmig-3-1-2#Column.EX.EXSCAT> ;
	rdfs:label "SDTM Variable"^^xsd:string ;
	bd:core "???"^^xsd:string ;
	bd:datatype "???"^^xsd:string ;
	bd:defaultCommentSet "false"^^xsd:string ;
	bd:defaultComment ""^^xsd:string ;
	bd:length "NN"^^xsd:string ;
	bd:format "???"^^xsd:string ;
	bd:notes "???"^^xsd:string ;
	bd:origin ""^^xsd:string ;
	bd:role "???"^^xsd:string ;
	bd:supplementalQualifier "false"^^xsd:string ;
	bd:used "false"^^xsd:string ;
.
mdrDomainsV1:V-EX_EXSEQ
	rdf:type bd:Variable ;
	bd:basedOn <http://rdf.cdisc.org/std/sdtmig-3-1-2#Column.EX.EXSEQ> ;
	rdfs:label "SDTM Variable"^^xsd:string ;
	bd:core "???"^^xsd:string ;
	bd:datatype "???"^^xsd:string ;
	bd:defaultCommentSet "false"^^xsd:string ;
	bd:defaultComment ""^^xsd:string ;
	bd:length "NN"^^xsd:string ;
	bd:format "???"^^xsd:string ;
	bd:notes "???"^^xsd:string ;
	bd:origin ""^^xsd:string ;
	bd:role "???"^^xsd:string ;
	bd:supplementalQualifier "false"^^xsd:string ;
	bd:used "false"^^xsd:string ;
.
mdrDomainsV1:V-EX_EXSPID
	rdf:type bd:Variable ;
	bd:basedOn <http://rdf.cdisc.org/std/sdtmig-3-1-2#Column.EX.EXSPID> ;
	rdfs:label "SDTM Variable"^^xsd:string ;
	bd:core "???"^^xsd:string ;
	bd:datatype "???"^^xsd:string ;
	bd:defaultCommentSet "false"^^xsd:string ;
	bd:defaultComment ""^^xsd:string ;
	bd:length "NN"^^xsd:string ;
	bd:format "???"^^xsd:string ;
	bd:notes "???"^^xsd:string ;
	bd:origin ""^^xsd:string ;
	bd:role "???"^^xsd:string ;
	bd:supplementalQualifier "false"^^xsd:string ;
	bd:used "false"^^xsd:string ;
.
mdrDomainsV1:V-EX_EXSTDTC
	rdf:type bd:Variable ;
	bd:basedOn <http://rdf.cdisc.org/std/sdtmig-3-1-2#Column.EX.EXSTDTC> ;
	rdfs:label "SDTM Variable"^^xsd:string ;
	bd:core "???"^^xsd:string ;
	bd:datatype "???"^^xsd:string ;
	bd:defaultCommentSet "false"^^xsd:string ;
	bd:defaultComment ""^^xsd:string ;
	bd:length "NN"^^xsd:string ;
	bd:format "???"^^xsd:string ;
	bd:notes "???"^^xsd:string ;
	bd:origin ""^^xsd:string ;
	bd:role "???"^^xsd:string ;
	bd:supplementalQualifier "false"^^xsd:string ;
	bd:used "false"^^xsd:string ;
.
mdrDomainsV1:V-EX_EXSTDY
	rdf:type bd:Variable ;
	bd:basedOn <http://rdf.cdisc.org/std/sdtmig-3-1-2#Column.EX.EXSTDY> ;
	rdfs:label "SDTM Variable"^^xsd:string ;
	bd:core "???"^^xsd:string ;
	bd:datatype "???"^^xsd:string ;
	bd:defaultCommentSet "false"^^xsd:string ;
	bd:defaultComment ""^^xsd:string ;
	bd:length "NN"^^xsd:string ;
	bd:format "???"^^xsd:string ;
	bd:notes "???"^^xsd:string ;
	bd:origin ""^^xsd:string ;
	bd:role "???"^^xsd:string ;
	bd:supplementalQualifier "false"^^xsd:string ;
	bd:used "false"^^xsd:string ;
.
mdrDomainsV1:V-EX_EXTPT
	rdf:type bd:Variable ;
	bd:basedOn <http://rdf.cdisc.org/std/sdtmig-3-1-2#Column.EX.EXTPT> ;
	rdfs:label "SDTM Variable"^^xsd:string ;
	bd:core "???"^^xsd:string ;
	bd:datatype "???"^^xsd:string ;
	bd:defaultCommentSet "false"^^xsd:string ;
	bd:defaultComment ""^^xsd:string ;
	bd:length "NN"^^xsd:string ;
	bd:format "???"^^xsd:string ;
	bd:notes "???"^^xsd:string ;
	bd:origin ""^^xsd:string ;
	bd:role "???"^^xsd:string ;
	bd:supplementalQualifier "false"^^xsd:string ;
	bd:used "false"^^xsd:string ;
.
mdrDomainsV1:V-EX_EXTPTNUM
	rdf:type bd:Variable ;
	bd:basedOn <http://rdf.cdisc.org/std/sdtmig-3-1-2#Column.EX.EXTPTNUM> ;
	rdfs:label "SDTM Variable"^^xsd:string ;
	bd:core "???"^^xsd:string ;
	bd:datatype "???"^^xsd:string ;
	bd:defaultCommentSet "false"^^xsd:string ;
	bd:defaultComment ""^^xsd:string ;
	bd:length "NN"^^xsd:string ;
	bd:format "???"^^xsd:string ;
	bd:notes "???"^^xsd:string ;
	bd:origin ""^^xsd:string ;
	bd:role "???"^^xsd:string ;
	bd:supplementalQualifier "false"^^xsd:string ;
	bd:used "false"^^xsd:string ;
.
mdrDomainsV1:V-EX_EXTPTREF
	rdf:type bd:Variable ;
	bd:basedOn <http://rdf.cdisc.org/std/sdtmig-3-1-2#Column.EX.EXTPTREF> ;
	rdfs:label "SDTM Variable"^^xsd:string ;
	bd:core "???"^^xsd:string ;
	bd:datatype "???"^^xsd:string ;
	bd:defaultCommentSet "false"^^xsd:string ;
	bd:defaultComment ""^^xsd:string ;
	bd:length "NN"^^xsd:string ;
	bd:format "???"^^xsd:string ;
	bd:notes "???"^^xsd:string ;
	bd:origin ""^^xsd:string ;
	bd:role "???"^^xsd:string ;
	bd:supplementalQualifier "false"^^xsd:string ;
	bd:used "false"^^xsd:string ;
.
mdrDomainsV1:V-EX_EXTRT
	rdf:type bd:Variable ;
	bd:basedOn <http://rdf.cdisc.org/std/sdtmig-3-1-2#Column.EX.EXTRT> ;
	rdfs:label "SDTM Variable"^^xsd:string ;
	bd:core "???"^^xsd:string ;
	bd:datatype "???"^^xsd:string ;
	bd:defaultCommentSet "false"^^xsd:string ;
	bd:defaultComment ""^^xsd:string ;
	bd:length "NN"^^xsd:string ;
	bd:format "???"^^xsd:string ;
	bd:notes "???"^^xsd:string ;
	bd:origin ""^^xsd:string ;
	bd:role "???"^^xsd:string ;
	bd:supplementalQualifier "false"^^xsd:string ;
	bd:used "false"^^xsd:string ;
.
mdrDomainsV1:V-EX_EXTRTV
	rdf:type bd:Variable ;
	bd:basedOn <http://rdf.cdisc.org/std/sdtmig-3-1-2#Column.EX.EXTRTV> ;
	rdfs:label "SDTM Variable"^^xsd:string ;
	bd:core "???"^^xsd:string ;
	bd:datatype "???"^^xsd:string ;
	bd:defaultCommentSet "false"^^xsd:string ;
	bd:defaultComment ""^^xsd:string ;
	bd:length "NN"^^xsd:string ;
	bd:format "???"^^xsd:string ;
	bd:notes "???"^^xsd:string ;
	bd:origin ""^^xsd:string ;
	bd:role "???"^^xsd:string ;
	bd:supplementalQualifier "false"^^xsd:string ;
	bd:used "false"^^xsd:string ;
.
mdrDomainsV1:V-EX_EXVAMT
	rdf:type bd:Variable ;
	bd:basedOn <http://rdf.cdisc.org/std/sdtmig-3-1-2#Column.EX.EXVAMT> ;
	rdfs:label "SDTM Variable"^^xsd:string ;
	bd:core "???"^^xsd:string ;
	bd:datatype "???"^^xsd:string ;
	bd:defaultCommentSet "false"^^xsd:string ;
	bd:defaultComment ""^^xsd:string ;
	bd:length "NN"^^xsd:string ;
	bd:format "???"^^xsd:string ;
	bd:notes "???"^^xsd:string ;
	bd:origin ""^^xsd:string ;
	bd:role "???"^^xsd:string ;
	bd:supplementalQualifier "false"^^xsd:string ;
	bd:used "false"^^xsd:string ;
.
mdrDomainsV1:V-EX_EXVAMTU
	rdf:type bd:Variable ;
	bd:basedOn <http://rdf.cdisc.org/std/sdtmig-3-1-2#Column.EX.EXVAMTU> ;
	rdfs:label "SDTM Variable"^^xsd:string ;
	bd:core "???"^^xsd:string ;
	bd:datatype "???"^^xsd:string ;
	bd:defaultCommentSet "false"^^xsd:string ;
	bd:defaultComment ""^^xsd:string ;
	bd:length "NN"^^xsd:string ;
	bd:format "???"^^xsd:string ;
	bd:notes "???"^^xsd:string ;
	bd:origin ""^^xsd:string ;
	bd:role "???"^^xsd:string ;
	bd:supplementalQualifier "false"^^xsd:string ;
	bd:used "false"^^xsd:string ;
.
mdrDomainsV1:V-EX_STUDYID
	rdf:type bd:Variable ;
	bd:basedOn <http://rdf.cdisc.org/std/sdtmig-3-1-2#Column.EX.STUDYID> ;
	rdfs:label "SDTM Variable"^^xsd:string ;
	bd:core "???"^^xsd:string ;
	bd:datatype "???"^^xsd:string ;
	bd:defaultCommentSet "false"^^xsd:string ;
	bd:defaultComment ""^^xsd:string ;
	bd:length "NN"^^xsd:string ;
	bd:format "???"^^xsd:string ;
	bd:notes "???"^^xsd:string ;
	bd:origin ""^^xsd:string ;
	bd:role "???"^^xsd:string ;
	bd:supplementalQualifier "false"^^xsd:string ;
	bd:used "false"^^xsd:string ;
.
mdrDomainsV1:V-EX_TAETORD
	rdf:type bd:Variable ;
	bd:basedOn <http://rdf.cdisc.org/std/sdtmig-3-1-2#Column.EX.TAETORD> ;
	rdfs:label "SDTM Variable"^^xsd:string ;
	bd:core "???"^^xsd:string ;
	bd:datatype "???"^^xsd:string ;
	bd:defaultCommentSet "false"^^xsd:string ;
	bd:defaultComment ""^^xsd:string ;
	bd:length "NN"^^xsd:string ;
	bd:format "???"^^xsd:string ;
	bd:notes "???"^^xsd:string ;
	bd:origin ""^^xsd:string ;
	bd:role "???"^^xsd:string ;
	bd:supplementalQualifier "false"^^xsd:string ;
	bd:used "false"^^xsd:string ;
.
mdrDomainsV1:V-EX_USUBJID
	rdf:type bd:Variable ;
	bd:basedOn <http://rdf.cdisc.org/std/sdtmig-3-1-2#Column.EX.USUBJID> ;
	rdfs:label "SDTM Variable"^^xsd:string ;
	bd:core "???"^^xsd:string ;
	bd:datatype "???"^^xsd:string ;
	bd:defaultCommentSet "false"^^xsd:string ;
	bd:defaultComment ""^^xsd:string ;
	bd:length "NN"^^xsd:string ;
	bd:format "???"^^xsd:string ;
	bd:notes "???"^^xsd:string ;
	bd:origin ""^^xsd:string ;
	bd:role "???"^^xsd:string ;
	bd:supplementalQualifier "false"^^xsd:string ;
	bd:used "false"^^xsd:string ;
.
mdrDomainsV1:V-FA_DOMAIN
	rdf:type bd:Variable ;
	bd:basedOn <http://rdf.cdisc.org/std/sdtmig-3-1-2#Column.FA.DOMAIN> ;
	rdfs:label "SDTM Variable"^^xsd:string ;
	bd:core "???"^^xsd:string ;
	bd:datatype "???"^^xsd:string ;
	bd:defaultCommentSet "false"^^xsd:string ;
	bd:defaultComment ""^^xsd:string ;
	bd:length "NN"^^xsd:string ;
	bd:format "???"^^xsd:string ;
	bd:notes "???"^^xsd:string ;
	bd:origin ""^^xsd:string ;
	bd:role "???"^^xsd:string ;
	bd:supplementalQualifier "false"^^xsd:string ;
	bd:used "false"^^xsd:string ;
.
mdrDomainsV1:V-FA_FABLFL
	rdf:type bd:Variable ;
	bd:basedOn <http://rdf.cdisc.org/std/sdtmig-3-1-2#Column.FA.FABLFL> ;
	rdfs:label "SDTM Variable"^^xsd:string ;
	bd:core "???"^^xsd:string ;
	bd:datatype "???"^^xsd:string ;
	bd:defaultCommentSet "false"^^xsd:string ;
	bd:defaultComment ""^^xsd:string ;
	bd:length "NN"^^xsd:string ;
	bd:format "???"^^xsd:string ;
	bd:notes "???"^^xsd:string ;
	bd:origin ""^^xsd:string ;
	bd:role "???"^^xsd:string ;
	bd:supplementalQualifier "false"^^xsd:string ;
	bd:used "false"^^xsd:string ;
.
mdrDomainsV1:V-FA_FACAT
	rdf:type bd:Variable ;
	bd:basedOn <http://rdf.cdisc.org/std/sdtmig-3-1-2#Column.FA.FACAT> ;
	rdfs:label "SDTM Variable"^^xsd:string ;
	bd:core "???"^^xsd:string ;
	bd:datatype "???"^^xsd:string ;
	bd:defaultCommentSet "false"^^xsd:string ;
	bd:defaultComment ""^^xsd:string ;
	bd:length "NN"^^xsd:string ;
	bd:format "???"^^xsd:string ;
	bd:notes "???"^^xsd:string ;
	bd:origin ""^^xsd:string ;
	bd:role "???"^^xsd:string ;
	bd:supplementalQualifier "false"^^xsd:string ;
	bd:used "false"^^xsd:string ;
.
mdrDomainsV1:V-FA_FADTC
	rdf:type bd:Variable ;
	bd:basedOn <http://rdf.cdisc.org/std/sdtmig-3-1-2#Column.FA.FADTC> ;
	rdfs:label "SDTM Variable"^^xsd:string ;
	bd:core "???"^^xsd:string ;
	bd:datatype "???"^^xsd:string ;
	bd:defaultCommentSet "false"^^xsd:string ;
	bd:defaultComment ""^^xsd:string ;
	bd:length "NN"^^xsd:string ;
	bd:format "???"^^xsd:string ;
	bd:notes "???"^^xsd:string ;
	bd:origin ""^^xsd:string ;
	bd:role "???"^^xsd:string ;
	bd:supplementalQualifier "false"^^xsd:string ;
	bd:used "false"^^xsd:string ;
.
mdrDomainsV1:V-FA_FADY
	rdf:type bd:Variable ;
	bd:basedOn <http://rdf.cdisc.org/std/sdtmig-3-1-2#Column.FA.FADY> ;
	rdfs:label "SDTM Variable"^^xsd:string ;
	bd:core "???"^^xsd:string ;
	bd:datatype "???"^^xsd:string ;
	bd:defaultCommentSet "false"^^xsd:string ;
	bd:defaultComment ""^^xsd:string ;
	bd:length "NN"^^xsd:string ;
	bd:format "???"^^xsd:string ;
	bd:notes "???"^^xsd:string ;
	bd:origin ""^^xsd:string ;
	bd:role "???"^^xsd:string ;
	bd:supplementalQualifier "false"^^xsd:string ;
	bd:used "false"^^xsd:string ;
.
mdrDomainsV1:V-FA_FAEVAL
	rdf:type bd:Variable ;
	bd:basedOn <http://rdf.cdisc.org/std/sdtmig-3-1-2#Column.FA.FAEVAL> ;
	rdfs:label "SDTM Variable"^^xsd:string ;
	bd:core "???"^^xsd:string ;
	bd:datatype "???"^^xsd:string ;
	bd:defaultCommentSet "false"^^xsd:string ;
	bd:defaultComment ""^^xsd:string ;
	bd:length "NN"^^xsd:string ;
	bd:format "???"^^xsd:string ;
	bd:notes "???"^^xsd:string ;
	bd:origin ""^^xsd:string ;
	bd:role "???"^^xsd:string ;
	bd:supplementalQualifier "false"^^xsd:string ;
	bd:used "false"^^xsd:string ;
.
mdrDomainsV1:V-FA_FAGRPID
	rdf:type bd:Variable ;
	bd:basedOn <http://rdf.cdisc.org/std/sdtmig-3-1-2#Column.FA.FAGRPID> ;
	rdfs:label "SDTM Variable"^^xsd:string ;
	bd:core "???"^^xsd:string ;
	bd:datatype "???"^^xsd:string ;
	bd:defaultCommentSet "false"^^xsd:string ;
	bd:defaultComment ""^^xsd:string ;
	bd:length "NN"^^xsd:string ;
	bd:format "???"^^xsd:string ;
	bd:notes "???"^^xsd:string ;
	bd:origin ""^^xsd:string ;
	bd:role "???"^^xsd:string ;
	bd:supplementalQualifier "false"^^xsd:string ;
	bd:used "false"^^xsd:string ;
.
mdrDomainsV1:V-FA_FALOC
	rdf:type bd:Variable ;
	bd:basedOn <http://rdf.cdisc.org/std/sdtmig-3-1-2#Column.FA.FALOC> ;
	rdfs:label "SDTM Variable"^^xsd:string ;
	bd:core "???"^^xsd:string ;
	bd:datatype "???"^^xsd:string ;
	bd:defaultCommentSet "false"^^xsd:string ;
	bd:defaultComment ""^^xsd:string ;
	bd:length "NN"^^xsd:string ;
	bd:format "???"^^xsd:string ;
	bd:notes "???"^^xsd:string ;
	bd:origin ""^^xsd:string ;
	bd:role "???"^^xsd:string ;
	bd:supplementalQualifier "false"^^xsd:string ;
	bd:used "false"^^xsd:string ;
.
mdrDomainsV1:V-FA_FAOBJ
	rdf:type bd:Variable ;
	bd:basedOn <http://rdf.cdisc.org/std/sdtmig-3-1-2#Column.FA.FAOBJ> ;
	rdfs:label "SDTM Variable"^^xsd:string ;
	bd:core "???"^^xsd:string ;
	bd:datatype "???"^^xsd:string ;
	bd:defaultCommentSet "false"^^xsd:string ;
	bd:defaultComment ""^^xsd:string ;
	bd:length "NN"^^xsd:string ;
	bd:format "???"^^xsd:string ;
	bd:notes "???"^^xsd:string ;
	bd:origin ""^^xsd:string ;
	bd:role "???"^^xsd:string ;
	bd:supplementalQualifier "false"^^xsd:string ;
	bd:used "false"^^xsd:string ;
.
mdrDomainsV1:V-FA_FAORRES
	rdf:type bd:Variable ;
	bd:basedOn <http://rdf.cdisc.org/std/sdtmig-3-1-2#Column.FA.FAORRES> ;
	rdfs:label "SDTM Variable"^^xsd:string ;
	bd:core "???"^^xsd:string ;
	bd:datatype "???"^^xsd:string ;
	bd:defaultCommentSet "false"^^xsd:string ;
	bd:defaultComment ""^^xsd:string ;
	bd:length "NN"^^xsd:string ;
	bd:format "???"^^xsd:string ;
	bd:notes "???"^^xsd:string ;
	bd:origin ""^^xsd:string ;
	bd:role "???"^^xsd:string ;
	bd:supplementalQualifier "false"^^xsd:string ;
	bd:used "false"^^xsd:string ;
.
mdrDomainsV1:V-FA_FAORRESU
	rdf:type bd:Variable ;
	bd:basedOn <http://rdf.cdisc.org/std/sdtmig-3-1-2#Column.FA.FAORRESU> ;
	rdfs:label "SDTM Variable"^^xsd:string ;
	bd:core "???"^^xsd:string ;
	bd:datatype "???"^^xsd:string ;
	bd:defaultCommentSet "false"^^xsd:string ;
	bd:defaultComment ""^^xsd:string ;
	bd:length "NN"^^xsd:string ;
	bd:format "???"^^xsd:string ;
	bd:notes "???"^^xsd:string ;
	bd:origin ""^^xsd:string ;
	bd:role "???"^^xsd:string ;
	bd:supplementalQualifier "false"^^xsd:string ;
	bd:used "false"^^xsd:string ;
.
mdrDomainsV1:V-FA_FAREASND
	rdf:type bd:Variable ;
	bd:basedOn <http://rdf.cdisc.org/std/sdtmig-3-1-2#Column.FA.FAREASND> ;
	rdfs:label "SDTM Variable"^^xsd:string ;
	bd:core "???"^^xsd:string ;
	bd:datatype "???"^^xsd:string ;
	bd:defaultCommentSet "false"^^xsd:string ;
	bd:defaultComment ""^^xsd:string ;
	bd:length "NN"^^xsd:string ;
	bd:format "???"^^xsd:string ;
	bd:notes "???"^^xsd:string ;
	bd:origin ""^^xsd:string ;
	bd:role "???"^^xsd:string ;
	bd:supplementalQualifier "false"^^xsd:string ;
	bd:used "false"^^xsd:string ;
.
mdrDomainsV1:V-FA_FASCAT
	rdf:type bd:Variable ;
	bd:basedOn <http://rdf.cdisc.org/std/sdtmig-3-1-2#Column.FA.FASCAT> ;
	rdfs:label "SDTM Variable"^^xsd:string ;
	bd:core "???"^^xsd:string ;
	bd:datatype "???"^^xsd:string ;
	bd:defaultCommentSet "false"^^xsd:string ;
	bd:defaultComment ""^^xsd:string ;
	bd:length "NN"^^xsd:string ;
	bd:format "???"^^xsd:string ;
	bd:notes "???"^^xsd:string ;
	bd:origin ""^^xsd:string ;
	bd:role "???"^^xsd:string ;
	bd:supplementalQualifier "false"^^xsd:string ;
	bd:used "false"^^xsd:string ;
.
mdrDomainsV1:V-FA_FASEQ
	rdf:type bd:Variable ;
	bd:basedOn <http://rdf.cdisc.org/std/sdtmig-3-1-2#Column.FA.FASEQ> ;
	rdfs:label "SDTM Variable"^^xsd:string ;
	bd:core "???"^^xsd:string ;
	bd:datatype "???"^^xsd:string ;
	bd:defaultCommentSet "false"^^xsd:string ;
	bd:defaultComment ""^^xsd:string ;
	bd:length "NN"^^xsd:string ;
	bd:format "???"^^xsd:string ;
	bd:notes "???"^^xsd:string ;
	bd:origin ""^^xsd:string ;
	bd:role "???"^^xsd:string ;
	bd:supplementalQualifier "false"^^xsd:string ;
	bd:used "false"^^xsd:string ;
.
mdrDomainsV1:V-FA_FASPID
	rdf:type bd:Variable ;
	bd:basedOn <http://rdf.cdisc.org/std/sdtmig-3-1-2#Column.FA.FASPID> ;
	rdfs:label "SDTM Variable"^^xsd:string ;
	bd:core "???"^^xsd:string ;
	bd:datatype "???"^^xsd:string ;
	bd:defaultCommentSet "false"^^xsd:string ;
	bd:defaultComment ""^^xsd:string ;
	bd:length "NN"^^xsd:string ;
	bd:format "???"^^xsd:string ;
	bd:notes "???"^^xsd:string ;
	bd:origin ""^^xsd:string ;
	bd:role "???"^^xsd:string ;
	bd:supplementalQualifier "false"^^xsd:string ;
	bd:used "false"^^xsd:string ;
.
mdrDomainsV1:V-FA_FASTAT
	rdf:type bd:Variable ;
	bd:basedOn <http://rdf.cdisc.org/std/sdtmig-3-1-2#Column.FA.FASTAT> ;
	rdfs:label "SDTM Variable"^^xsd:string ;
	bd:core "???"^^xsd:string ;
	bd:datatype "???"^^xsd:string ;
	bd:defaultCommentSet "false"^^xsd:string ;
	bd:defaultComment ""^^xsd:string ;
	bd:length "NN"^^xsd:string ;
	bd:format "???"^^xsd:string ;
	bd:notes "???"^^xsd:string ;
	bd:origin ""^^xsd:string ;
	bd:role "???"^^xsd:string ;
	bd:supplementalQualifier "false"^^xsd:string ;
	bd:used "false"^^xsd:string ;
.
mdrDomainsV1:V-FA_FASTRESC
	rdf:type bd:Variable ;
	bd:basedOn <http://rdf.cdisc.org/std/sdtmig-3-1-2#Column.FA.FASTRESC> ;
	rdfs:label "SDTM Variable"^^xsd:string ;
	bd:core "???"^^xsd:string ;
	bd:datatype "???"^^xsd:string ;
	bd:defaultCommentSet "false"^^xsd:string ;
	bd:defaultComment ""^^xsd:string ;
	bd:length "NN"^^xsd:string ;
	bd:format "???"^^xsd:string ;
	bd:notes "???"^^xsd:string ;
	bd:origin ""^^xsd:string ;
	bd:role "???"^^xsd:string ;
	bd:supplementalQualifier "false"^^xsd:string ;
	bd:used "false"^^xsd:string ;
.
mdrDomainsV1:V-FA_FASTRESN
	rdf:type bd:Variable ;
	bd:basedOn <http://rdf.cdisc.org/std/sdtmig-3-1-2#Column.FA.FASTRESN> ;
	rdfs:label "SDTM Variable"^^xsd:string ;
	bd:core "???"^^xsd:string ;
	bd:datatype "???"^^xsd:string ;
	bd:defaultCommentSet "false"^^xsd:string ;
	bd:defaultComment ""^^xsd:string ;
	bd:length "NN"^^xsd:string ;
	bd:format "???"^^xsd:string ;
	bd:notes "???"^^xsd:string ;
	bd:origin ""^^xsd:string ;
	bd:role "???"^^xsd:string ;
	bd:supplementalQualifier "false"^^xsd:string ;
	bd:used "false"^^xsd:string ;
.
mdrDomainsV1:V-FA_FASTRESU
	rdf:type bd:Variable ;
	bd:basedOn <http://rdf.cdisc.org/std/sdtmig-3-1-2#Column.FA.FASTRESU> ;
	rdfs:label "SDTM Variable"^^xsd:string ;
	bd:core "???"^^xsd:string ;
	bd:datatype "???"^^xsd:string ;
	bd:defaultCommentSet "false"^^xsd:string ;
	bd:defaultComment ""^^xsd:string ;
	bd:length "NN"^^xsd:string ;
	bd:format "???"^^xsd:string ;
	bd:notes "???"^^xsd:string ;
	bd:origin ""^^xsd:string ;
	bd:role "???"^^xsd:string ;
	bd:supplementalQualifier "false"^^xsd:string ;
	bd:used "false"^^xsd:string ;
.
mdrDomainsV1:V-FA_FATEST
	rdf:type bd:Variable ;
	bd:basedOn <http://rdf.cdisc.org/std/sdtmig-3-1-2#Column.FA.FATEST> ;
	rdfs:label "SDTM Variable"^^xsd:string ;
	bd:core "???"^^xsd:string ;
	bd:datatype "???"^^xsd:string ;
	bd:defaultCommentSet "false"^^xsd:string ;
	bd:defaultComment ""^^xsd:string ;
	bd:length "NN"^^xsd:string ;
	bd:format "???"^^xsd:string ;
	bd:notes "???"^^xsd:string ;
	bd:origin ""^^xsd:string ;
	bd:role "???"^^xsd:string ;
	bd:supplementalQualifier "false"^^xsd:string ;
	bd:used "false"^^xsd:string ;
.
mdrDomainsV1:V-FA_FATESTCD
	rdf:type bd:Variable ;
	bd:basedOn <http://rdf.cdisc.org/std/sdtmig-3-1-2#Column.FA.FATESTCD> ;
	rdfs:label "SDTM Variable"^^xsd:string ;
	bd:core "???"^^xsd:string ;
	bd:datatype "???"^^xsd:string ;
	bd:defaultCommentSet "false"^^xsd:string ;
	bd:defaultComment ""^^xsd:string ;
	bd:length "NN"^^xsd:string ;
	bd:format "???"^^xsd:string ;
	bd:notes "???"^^xsd:string ;
	bd:origin ""^^xsd:string ;
	bd:role "???"^^xsd:string ;
	bd:supplementalQualifier "false"^^xsd:string ;
	bd:used "false"^^xsd:string ;
.
mdrDomainsV1:V-FA_STUDYID
	rdf:type bd:Variable ;
	bd:basedOn <http://rdf.cdisc.org/std/sdtmig-3-1-2#Column.FA.STUDYID> ;
	rdfs:label "SDTM Variable"^^xsd:string ;
	bd:core "???"^^xsd:string ;
	bd:datatype "???"^^xsd:string ;
	bd:defaultCommentSet "false"^^xsd:string ;
	bd:defaultComment ""^^xsd:string ;
	bd:length "NN"^^xsd:string ;
	bd:format "???"^^xsd:string ;
	bd:notes "???"^^xsd:string ;
	bd:origin ""^^xsd:string ;
	bd:role "???"^^xsd:string ;
	bd:supplementalQualifier "false"^^xsd:string ;
	bd:used "false"^^xsd:string ;
.
mdrDomainsV1:V-FA_USUBJID
	rdf:type bd:Variable ;
	bd:basedOn <http://rdf.cdisc.org/std/sdtmig-3-1-2#Column.FA.USUBJID> ;
	rdfs:label "SDTM Variable"^^xsd:string ;
	bd:core "???"^^xsd:string ;
	bd:datatype "???"^^xsd:string ;
	bd:defaultCommentSet "false"^^xsd:string ;
	bd:defaultComment ""^^xsd:string ;
	bd:length "NN"^^xsd:string ;
	bd:format "???"^^xsd:string ;
	bd:notes "???"^^xsd:string ;
	bd:origin ""^^xsd:string ;
	bd:role "???"^^xsd:string ;
	bd:supplementalQualifier "false"^^xsd:string ;
	bd:used "false"^^xsd:string ;
.
mdrDomainsV1:V-FA_VISIT
	rdf:type bd:Variable ;
	bd:basedOn <http://rdf.cdisc.org/std/sdtmig-3-1-2#Column.FA.VISIT> ;
	rdfs:label "SDTM Variable"^^xsd:string ;
	bd:core "???"^^xsd:string ;
	bd:datatype "???"^^xsd:string ;
	bd:defaultCommentSet "false"^^xsd:string ;
	bd:defaultComment ""^^xsd:string ;
	bd:length "NN"^^xsd:string ;
	bd:format "???"^^xsd:string ;
	bd:notes "???"^^xsd:string ;
	bd:origin ""^^xsd:string ;
	bd:role "???"^^xsd:string ;
	bd:supplementalQualifier "false"^^xsd:string ;
	bd:used "false"^^xsd:string ;
.
mdrDomainsV1:V-FA_VISITDY
	rdf:type bd:Variable ;
	bd:basedOn <http://rdf.cdisc.org/std/sdtmig-3-1-2#Column.FA.VISITDY> ;
	rdfs:label "SDTM Variable"^^xsd:string ;
	bd:core "???"^^xsd:string ;
	bd:datatype "???"^^xsd:string ;
	bd:defaultCommentSet "false"^^xsd:string ;
	bd:defaultComment ""^^xsd:string ;
	bd:length "NN"^^xsd:string ;
	bd:format "???"^^xsd:string ;
	bd:notes "???"^^xsd:string ;
	bd:origin ""^^xsd:string ;
	bd:role "???"^^xsd:string ;
	bd:supplementalQualifier "false"^^xsd:string ;
	bd:used "false"^^xsd:string ;
.
mdrDomainsV1:V-FA_VISITNUM
	rdf:type bd:Variable ;
	bd:basedOn <http://rdf.cdisc.org/std/sdtmig-3-1-2#Column.FA.VISITNUM> ;
	rdfs:label "SDTM Variable"^^xsd:string ;
	bd:core "???"^^xsd:string ;
	bd:datatype "???"^^xsd:string ;
	bd:defaultCommentSet "false"^^xsd:string ;
	bd:defaultComment ""^^xsd:string ;
	bd:length "NN"^^xsd:string ;
	bd:format "???"^^xsd:string ;
	bd:notes "???"^^xsd:string ;
	bd:origin ""^^xsd:string ;
	bd:role "???"^^xsd:string ;
	bd:supplementalQualifier "false"^^xsd:string ;
	bd:used "false"^^xsd:string ;
.
mdrDomainsV1:V-IE_DOMAIN
	rdf:type bd:Variable ;
	bd:basedOn <http://rdf.cdisc.org/std/sdtmig-3-1-2#Column.IE.DOMAIN> ;
	rdfs:label "SDTM Variable"^^xsd:string ;
	bd:core "???"^^xsd:string ;
	bd:datatype "???"^^xsd:string ;
	bd:defaultCommentSet "false"^^xsd:string ;
	bd:defaultComment ""^^xsd:string ;
	bd:length "NN"^^xsd:string ;
	bd:format "???"^^xsd:string ;
	bd:notes "???"^^xsd:string ;
	bd:origin ""^^xsd:string ;
	bd:role "???"^^xsd:string ;
	bd:supplementalQualifier "false"^^xsd:string ;
	bd:used "false"^^xsd:string ;
.
mdrDomainsV1:V-IE_IECAT
	rdf:type bd:Variable ;
	bd:basedOn <http://rdf.cdisc.org/std/sdtmig-3-1-2#Column.IE.IECAT> ;
	rdfs:label "SDTM Variable"^^xsd:string ;
	bd:core "???"^^xsd:string ;
	bd:datatype "???"^^xsd:string ;
	bd:defaultCommentSet "false"^^xsd:string ;
	bd:defaultComment ""^^xsd:string ;
	bd:length "NN"^^xsd:string ;
	bd:format "???"^^xsd:string ;
	bd:notes "???"^^xsd:string ;
	bd:origin ""^^xsd:string ;
	bd:role "???"^^xsd:string ;
	bd:supplementalQualifier "false"^^xsd:string ;
	bd:used "false"^^xsd:string ;
.
mdrDomainsV1:V-IE_IEDTC
	rdf:type bd:Variable ;
	bd:basedOn <http://rdf.cdisc.org/std/sdtmig-3-1-2#Column.IE.IEDTC> ;
	rdfs:label "SDTM Variable"^^xsd:string ;
	bd:core "???"^^xsd:string ;
	bd:datatype "???"^^xsd:string ;
	bd:defaultCommentSet "false"^^xsd:string ;
	bd:defaultComment ""^^xsd:string ;
	bd:length "NN"^^xsd:string ;
	bd:format "???"^^xsd:string ;
	bd:notes "???"^^xsd:string ;
	bd:origin ""^^xsd:string ;
	bd:role "???"^^xsd:string ;
	bd:supplementalQualifier "false"^^xsd:string ;
	bd:used "false"^^xsd:string ;
.
mdrDomainsV1:V-IE_IEDY
	rdf:type bd:Variable ;
	bd:basedOn <http://rdf.cdisc.org/std/sdtmig-3-1-2#Column.IE.IEDY> ;
	rdfs:label "SDTM Variable"^^xsd:string ;
	bd:core "???"^^xsd:string ;
	bd:datatype "???"^^xsd:string ;
	bd:defaultCommentSet "false"^^xsd:string ;
	bd:defaultComment ""^^xsd:string ;
	bd:length "NN"^^xsd:string ;
	bd:format "???"^^xsd:string ;
	bd:notes "???"^^xsd:string ;
	bd:origin ""^^xsd:string ;
	bd:role "???"^^xsd:string ;
	bd:supplementalQualifier "false"^^xsd:string ;
	bd:used "false"^^xsd:string ;
.
mdrDomainsV1:V-IE_IEORRES
	rdf:type bd:Variable ;
	bd:basedOn <http://rdf.cdisc.org/std/sdtmig-3-1-2#Column.IE.IEORRES> ;
	rdfs:label "SDTM Variable"^^xsd:string ;
	bd:core "???"^^xsd:string ;
	bd:datatype "???"^^xsd:string ;
	bd:defaultCommentSet "false"^^xsd:string ;
	bd:defaultComment ""^^xsd:string ;
	bd:length "NN"^^xsd:string ;
	bd:format "???"^^xsd:string ;
	bd:notes "???"^^xsd:string ;
	bd:origin ""^^xsd:string ;
	bd:role "???"^^xsd:string ;
	bd:supplementalQualifier "false"^^xsd:string ;
	bd:used "false"^^xsd:string ;
.
mdrDomainsV1:V-IE_IESCAT
	rdf:type bd:Variable ;
	bd:basedOn <http://rdf.cdisc.org/std/sdtmig-3-1-2#Column.IE.IESCAT> ;
	rdfs:label "SDTM Variable"^^xsd:string ;
	bd:core "???"^^xsd:string ;
	bd:datatype "???"^^xsd:string ;
	bd:defaultCommentSet "false"^^xsd:string ;
	bd:defaultComment ""^^xsd:string ;
	bd:length "NN"^^xsd:string ;
	bd:format "???"^^xsd:string ;
	bd:notes "???"^^xsd:string ;
	bd:origin ""^^xsd:string ;
	bd:role "???"^^xsd:string ;
	bd:supplementalQualifier "false"^^xsd:string ;
	bd:used "false"^^xsd:string ;
.
mdrDomainsV1:V-IE_IESEQ
	rdf:type bd:Variable ;
	bd:basedOn <http://rdf.cdisc.org/std/sdtmig-3-1-2#Column.IE.IESEQ> ;
	rdfs:label "SDTM Variable"^^xsd:string ;
	bd:core "???"^^xsd:string ;
	bd:datatype "???"^^xsd:string ;
	bd:defaultCommentSet "false"^^xsd:string ;
	bd:defaultComment ""^^xsd:string ;
	bd:length "NN"^^xsd:string ;
	bd:format "???"^^xsd:string ;
	bd:notes "???"^^xsd:string ;
	bd:origin ""^^xsd:string ;
	bd:role "???"^^xsd:string ;
	bd:supplementalQualifier "false"^^xsd:string ;
	bd:used "false"^^xsd:string ;
.
mdrDomainsV1:V-IE_IESPID
	rdf:type bd:Variable ;
	bd:basedOn <http://rdf.cdisc.org/std/sdtmig-3-1-2#Column.IE.IESPID> ;
	rdfs:label "SDTM Variable"^^xsd:string ;
	bd:core "???"^^xsd:string ;
	bd:datatype "???"^^xsd:string ;
	bd:defaultCommentSet "false"^^xsd:string ;
	bd:defaultComment ""^^xsd:string ;
	bd:length "NN"^^xsd:string ;
	bd:format "???"^^xsd:string ;
	bd:notes "???"^^xsd:string ;
	bd:origin ""^^xsd:string ;
	bd:role "???"^^xsd:string ;
	bd:supplementalQualifier "false"^^xsd:string ;
	bd:used "false"^^xsd:string ;
.
mdrDomainsV1:V-IE_IESTRESC
	rdf:type bd:Variable ;
	bd:basedOn <http://rdf.cdisc.org/std/sdtmig-3-1-2#Column.IE.IESTRESC> ;
	rdfs:label "SDTM Variable"^^xsd:string ;
	bd:core "???"^^xsd:string ;
	bd:datatype "???"^^xsd:string ;
	bd:defaultCommentSet "false"^^xsd:string ;
	bd:defaultComment ""^^xsd:string ;
	bd:length "NN"^^xsd:string ;
	bd:format "???"^^xsd:string ;
	bd:notes "???"^^xsd:string ;
	bd:origin ""^^xsd:string ;
	bd:role "???"^^xsd:string ;
	bd:supplementalQualifier "false"^^xsd:string ;
	bd:used "false"^^xsd:string ;
.
mdrDomainsV1:V-IE_IETEST
	rdf:type bd:Variable ;
	bd:basedOn <http://rdf.cdisc.org/std/sdtmig-3-1-2#Column.IE.IETEST> ;
	rdfs:label "SDTM Variable"^^xsd:string ;
	bd:core "???"^^xsd:string ;
	bd:datatype "???"^^xsd:string ;
	bd:defaultCommentSet "false"^^xsd:string ;
	bd:defaultComment ""^^xsd:string ;
	bd:length "NN"^^xsd:string ;
	bd:format "???"^^xsd:string ;
	bd:notes "???"^^xsd:string ;
	bd:origin ""^^xsd:string ;
	bd:role "???"^^xsd:string ;
	bd:supplementalQualifier "false"^^xsd:string ;
	bd:used "false"^^xsd:string ;
.
mdrDomainsV1:V-IE_IETESTCD
	rdf:type bd:Variable ;
	bd:basedOn <http://rdf.cdisc.org/std/sdtmig-3-1-2#Column.IE.IETESTCD> ;
	rdfs:label "SDTM Variable"^^xsd:string ;
	bd:core "???"^^xsd:string ;
	bd:datatype "???"^^xsd:string ;
	bd:defaultCommentSet "false"^^xsd:string ;
	bd:defaultComment ""^^xsd:string ;
	bd:length "NN"^^xsd:string ;
	bd:format "???"^^xsd:string ;
	bd:notes "???"^^xsd:string ;
	bd:origin ""^^xsd:string ;
	bd:role "???"^^xsd:string ;
	bd:supplementalQualifier "false"^^xsd:string ;
	bd:used "false"^^xsd:string ;
.
mdrDomainsV1:V-IE_STUDYID
	rdf:type bd:Variable ;
	bd:basedOn <http://rdf.cdisc.org/std/sdtmig-3-1-2#Column.IE.STUDYID> ;
	rdfs:label "SDTM Variable"^^xsd:string ;
	bd:core "???"^^xsd:string ;
	bd:datatype "???"^^xsd:string ;
	bd:defaultCommentSet "false"^^xsd:string ;
	bd:defaultComment ""^^xsd:string ;
	bd:length "NN"^^xsd:string ;
	bd:format "???"^^xsd:string ;
	bd:notes "???"^^xsd:string ;
	bd:origin ""^^xsd:string ;
	bd:role "???"^^xsd:string ;
	bd:supplementalQualifier "false"^^xsd:string ;
	bd:used "false"^^xsd:string ;
.
mdrDomainsV1:V-IE_USUBJID
	rdf:type bd:Variable ;
	bd:basedOn <http://rdf.cdisc.org/std/sdtmig-3-1-2#Column.IE.USUBJID> ;
	rdfs:label "SDTM Variable"^^xsd:string ;
	bd:core "???"^^xsd:string ;
	bd:datatype "???"^^xsd:string ;
	bd:defaultCommentSet "false"^^xsd:string ;
	bd:defaultComment ""^^xsd:string ;
	bd:length "NN"^^xsd:string ;
	bd:format "???"^^xsd:string ;
	bd:notes "???"^^xsd:string ;
	bd:origin ""^^xsd:string ;
	bd:role "???"^^xsd:string ;
	bd:supplementalQualifier "false"^^xsd:string ;
	bd:used "false"^^xsd:string ;
.
mdrDomainsV1:V-IE_VISIT
	rdf:type bd:Variable ;
	bd:basedOn <http://rdf.cdisc.org/std/sdtmig-3-1-2#Column.IE.VISIT> ;
	rdfs:label "SDTM Variable"^^xsd:string ;
	bd:core "???"^^xsd:string ;
	bd:datatype "???"^^xsd:string ;
	bd:defaultCommentSet "false"^^xsd:string ;
	bd:defaultComment ""^^xsd:string ;
	bd:length "NN"^^xsd:string ;
	bd:format "???"^^xsd:string ;
	bd:notes "???"^^xsd:string ;
	bd:origin ""^^xsd:string ;
	bd:role "???"^^xsd:string ;
	bd:supplementalQualifier "false"^^xsd:string ;
	bd:used "false"^^xsd:string ;
.
mdrDomainsV1:V-IE_VISITDY
	rdf:type bd:Variable ;
	bd:basedOn <http://rdf.cdisc.org/std/sdtmig-3-1-2#Column.IE.VISITDY> ;
	rdfs:label "SDTM Variable"^^xsd:string ;
	bd:core "???"^^xsd:string ;
	bd:datatype "???"^^xsd:string ;
	bd:defaultCommentSet "false"^^xsd:string ;
	bd:defaultComment ""^^xsd:string ;
	bd:length "NN"^^xsd:string ;
	bd:format "???"^^xsd:string ;
	bd:notes "???"^^xsd:string ;
	bd:origin ""^^xsd:string ;
	bd:role "???"^^xsd:string ;
	bd:supplementalQualifier "false"^^xsd:string ;
	bd:used "false"^^xsd:string ;
.
mdrDomainsV1:V-IE_VISITNUM
	rdf:type bd:Variable ;
	bd:basedOn <http://rdf.cdisc.org/std/sdtmig-3-1-2#Column.IE.VISITNUM> ;
	rdfs:label "SDTM Variable"^^xsd:string ;
	bd:core "???"^^xsd:string ;
	bd:datatype "???"^^xsd:string ;
	bd:defaultCommentSet "false"^^xsd:string ;
	bd:defaultComment ""^^xsd:string ;
	bd:length "NN"^^xsd:string ;
	bd:format "???"^^xsd:string ;
	bd:notes "???"^^xsd:string ;
	bd:origin ""^^xsd:string ;
	bd:role "???"^^xsd:string ;
	bd:supplementalQualifier "false"^^xsd:string ;
	bd:used "false"^^xsd:string ;
.
mdrDomainsV1:V-LB_DOMAIN
	rdf:type bd:Variable ;
	bd:basedOn <http://rdf.cdisc.org/std/sdtmig-3-1-2#Column.LB.DOMAIN> ;
	rdfs:label "SDTM Variable"^^xsd:string ;
	bd:core "???"^^xsd:string ;
	bd:datatype "???"^^xsd:string ;
	bd:defaultCommentSet "false"^^xsd:string ;
	bd:defaultComment ""^^xsd:string ;
	bd:length "NN"^^xsd:string ;
	bd:format "???"^^xsd:string ;
	bd:notes "???"^^xsd:string ;
	bd:origin ""^^xsd:string ;
	bd:role "???"^^xsd:string ;
	bd:supplementalQualifier "false"^^xsd:string ;
	bd:used "false"^^xsd:string ;
.
mdrDomainsV1:V-LB_LBBLFL
	rdf:type bd:Variable ;
	bd:basedOn <http://rdf.cdisc.org/std/sdtmig-3-1-2#Column.LB.LBBLFL> ;
	rdfs:label "SDTM Variable"^^xsd:string ;
	bd:core "???"^^xsd:string ;
	bd:datatype "???"^^xsd:string ;
	bd:defaultCommentSet "false"^^xsd:string ;
	bd:defaultComment ""^^xsd:string ;
	bd:length "NN"^^xsd:string ;
	bd:format "???"^^xsd:string ;
	bd:notes "???"^^xsd:string ;
	bd:origin ""^^xsd:string ;
	bd:role "???"^^xsd:string ;
	bd:supplementalQualifier "false"^^xsd:string ;
	bd:used "false"^^xsd:string ;
.
mdrDomainsV1:V-LB_LBCAT
	rdf:type bd:Variable ;
	bd:basedOn <http://rdf.cdisc.org/std/sdtmig-3-1-2#Column.LB.LBCAT> ;
	rdfs:label "SDTM Variable"^^xsd:string ;
	bd:core "???"^^xsd:string ;
	bd:datatype "???"^^xsd:string ;
	bd:defaultCommentSet "false"^^xsd:string ;
	bd:defaultComment ""^^xsd:string ;
	bd:length "NN"^^xsd:string ;
	bd:format "???"^^xsd:string ;
	bd:notes "???"^^xsd:string ;
	bd:origin ""^^xsd:string ;
	bd:role "???"^^xsd:string ;
	bd:supplementalQualifier "false"^^xsd:string ;
	bd:used "false"^^xsd:string ;
.
mdrDomainsV1:V-LB_LBDRVFL
	rdf:type bd:Variable ;
	bd:basedOn <http://rdf.cdisc.org/std/sdtmig-3-1-2#Column.LB.LBDRVFL> ;
	rdfs:label "SDTM Variable"^^xsd:string ;
	bd:core "???"^^xsd:string ;
	bd:datatype "???"^^xsd:string ;
	bd:defaultCommentSet "false"^^xsd:string ;
	bd:defaultComment ""^^xsd:string ;
	bd:length "NN"^^xsd:string ;
	bd:format "???"^^xsd:string ;
	bd:notes "???"^^xsd:string ;
	bd:origin ""^^xsd:string ;
	bd:role "???"^^xsd:string ;
	bd:supplementalQualifier "false"^^xsd:string ;
	bd:used "false"^^xsd:string ;
.
mdrDomainsV1:V-LB_LBDTC
	rdf:type bd:Variable ;
	bd:basedOn <http://rdf.cdisc.org/std/sdtmig-3-1-2#Column.LB.LBDTC> ;
	rdfs:label "SDTM Variable"^^xsd:string ;
	bd:core "???"^^xsd:string ;
	bd:datatype "???"^^xsd:string ;
	bd:defaultCommentSet "false"^^xsd:string ;
	bd:defaultComment ""^^xsd:string ;
	bd:length "NN"^^xsd:string ;
	bd:format "???"^^xsd:string ;
	bd:notes "???"^^xsd:string ;
	bd:origin ""^^xsd:string ;
	bd:role "???"^^xsd:string ;
	bd:supplementalQualifier "false"^^xsd:string ;
	bd:used "false"^^xsd:string ;
.
mdrDomainsV1:V-LB_LBDY
	rdf:type bd:Variable ;
	bd:basedOn <http://rdf.cdisc.org/std/sdtmig-3-1-2#Column.LB.LBDY> ;
	rdfs:label "SDTM Variable"^^xsd:string ;
	bd:core "???"^^xsd:string ;
	bd:datatype "???"^^xsd:string ;
	bd:defaultCommentSet "false"^^xsd:string ;
	bd:defaultComment ""^^xsd:string ;
	bd:length "NN"^^xsd:string ;
	bd:format "???"^^xsd:string ;
	bd:notes "???"^^xsd:string ;
	bd:origin ""^^xsd:string ;
	bd:role "???"^^xsd:string ;
	bd:supplementalQualifier "false"^^xsd:string ;
	bd:used "false"^^xsd:string ;
.
mdrDomainsV1:V-LB_LBELTM
	rdf:type bd:Variable ;
	bd:basedOn <http://rdf.cdisc.org/std/sdtmig-3-1-2#Column.LB.LBELTM> ;
	rdfs:label "SDTM Variable"^^xsd:string ;
	bd:core "???"^^xsd:string ;
	bd:datatype "???"^^xsd:string ;
	bd:defaultCommentSet "false"^^xsd:string ;
	bd:defaultComment ""^^xsd:string ;
	bd:length "NN"^^xsd:string ;
	bd:format "???"^^xsd:string ;
	bd:notes "???"^^xsd:string ;
	bd:origin ""^^xsd:string ;
	bd:role "???"^^xsd:string ;
	bd:supplementalQualifier "false"^^xsd:string ;
	bd:used "false"^^xsd:string ;
.
mdrDomainsV1:V-LB_LBENDTC
	rdf:type bd:Variable ;
	bd:basedOn <http://rdf.cdisc.org/std/sdtmig-3-1-2#Column.LB.LBENDTC> ;
	rdfs:label "SDTM Variable"^^xsd:string ;
	bd:core "???"^^xsd:string ;
	bd:datatype "???"^^xsd:string ;
	bd:defaultCommentSet "false"^^xsd:string ;
	bd:defaultComment ""^^xsd:string ;
	bd:length "NN"^^xsd:string ;
	bd:format "???"^^xsd:string ;
	bd:notes "???"^^xsd:string ;
	bd:origin ""^^xsd:string ;
	bd:role "???"^^xsd:string ;
	bd:supplementalQualifier "false"^^xsd:string ;
	bd:used "false"^^xsd:string ;
.
mdrDomainsV1:V-LB_LBFAST
	rdf:type bd:Variable ;
	bd:basedOn <http://rdf.cdisc.org/std/sdtmig-3-1-2#Column.LB.LBFAST> ;
	rdfs:label "SDTM Variable"^^xsd:string ;
	bd:core "???"^^xsd:string ;
	bd:datatype "???"^^xsd:string ;
	bd:defaultCommentSet "false"^^xsd:string ;
	bd:defaultComment ""^^xsd:string ;
	bd:length "NN"^^xsd:string ;
	bd:format "???"^^xsd:string ;
	bd:notes "???"^^xsd:string ;
	bd:origin ""^^xsd:string ;
	bd:role "???"^^xsd:string ;
	bd:supplementalQualifier "false"^^xsd:string ;
	bd:used "false"^^xsd:string ;
.
mdrDomainsV1:V-LB_LBGRPID
	rdf:type bd:Variable ;
	bd:basedOn <http://rdf.cdisc.org/std/sdtmig-3-1-2#Column.LB.LBGRPID> ;
	rdfs:label "SDTM Variable"^^xsd:string ;
	bd:core "???"^^xsd:string ;
	bd:datatype "???"^^xsd:string ;
	bd:defaultCommentSet "false"^^xsd:string ;
	bd:defaultComment ""^^xsd:string ;
	bd:length "NN"^^xsd:string ;
	bd:format "???"^^xsd:string ;
	bd:notes "???"^^xsd:string ;
	bd:origin ""^^xsd:string ;
	bd:role "???"^^xsd:string ;
	bd:supplementalQualifier "false"^^xsd:string ;
	bd:used "false"^^xsd:string ;
.
mdrDomainsV1:V-LB_LBLOINC
	rdf:type bd:Variable ;
	bd:basedOn <http://rdf.cdisc.org/std/sdtmig-3-1-2#Column.LB.LBLOINC> ;
	rdfs:label "SDTM Variable"^^xsd:string ;
	bd:core "???"^^xsd:string ;
	bd:datatype "???"^^xsd:string ;
	bd:defaultCommentSet "false"^^xsd:string ;
	bd:defaultComment ""^^xsd:string ;
	bd:length "NN"^^xsd:string ;
	bd:format "???"^^xsd:string ;
	bd:notes "???"^^xsd:string ;
	bd:origin ""^^xsd:string ;
	bd:role "???"^^xsd:string ;
	bd:supplementalQualifier "false"^^xsd:string ;
	bd:used "false"^^xsd:string ;
.
mdrDomainsV1:V-LB_LBMETHOD
	rdf:type bd:Variable ;
	bd:basedOn <http://rdf.cdisc.org/std/sdtmig-3-1-2#Column.LB.LBMETHOD> ;
	rdfs:label "SDTM Variable"^^xsd:string ;
	bd:core "???"^^xsd:string ;
	bd:datatype "???"^^xsd:string ;
	bd:defaultCommentSet "false"^^xsd:string ;
	bd:defaultComment ""^^xsd:string ;
	bd:length "NN"^^xsd:string ;
	bd:format "???"^^xsd:string ;
	bd:notes "???"^^xsd:string ;
	bd:origin ""^^xsd:string ;
	bd:role "???"^^xsd:string ;
	bd:supplementalQualifier "false"^^xsd:string ;
	bd:used "false"^^xsd:string ;
.
mdrDomainsV1:V-LB_LBNAM
	rdf:type bd:Variable ;
	bd:basedOn <http://rdf.cdisc.org/std/sdtmig-3-1-2#Column.LB.LBNAM> ;
	rdfs:label "SDTM Variable"^^xsd:string ;
	bd:core "???"^^xsd:string ;
	bd:datatype "???"^^xsd:string ;
	bd:defaultCommentSet "false"^^xsd:string ;
	bd:defaultComment ""^^xsd:string ;
	bd:length "NN"^^xsd:string ;
	bd:format "???"^^xsd:string ;
	bd:notes "???"^^xsd:string ;
	bd:origin ""^^xsd:string ;
	bd:role "???"^^xsd:string ;
	bd:supplementalQualifier "false"^^xsd:string ;
	bd:used "false"^^xsd:string ;
.
mdrDomainsV1:V-LB_LBNRIND
	rdf:type bd:Variable ;
	bd:basedOn <http://rdf.cdisc.org/std/sdtmig-3-1-2#Column.LB.LBNRIND> ;
	rdfs:label "SDTM Variable"^^xsd:string ;
	bd:core "???"^^xsd:string ;
	bd:datatype "???"^^xsd:string ;
	bd:defaultCommentSet "false"^^xsd:string ;
	bd:defaultComment ""^^xsd:string ;
	bd:length "NN"^^xsd:string ;
	bd:format "???"^^xsd:string ;
	bd:notes "???"^^xsd:string ;
	bd:origin ""^^xsd:string ;
	bd:role "???"^^xsd:string ;
	bd:supplementalQualifier "false"^^xsd:string ;
	bd:used "false"^^xsd:string ;
.
mdrDomainsV1:V-LB_LBORNRHI
	rdf:type bd:Variable ;
	bd:basedOn <http://rdf.cdisc.org/std/sdtmig-3-1-2#Column.LB.LBORNRHI> ;
	rdfs:label "SDTM Variable"^^xsd:string ;
	bd:core "???"^^xsd:string ;
	bd:datatype "???"^^xsd:string ;
	bd:defaultCommentSet "false"^^xsd:string ;
	bd:defaultComment ""^^xsd:string ;
	bd:length "NN"^^xsd:string ;
	bd:format "???"^^xsd:string ;
	bd:notes "???"^^xsd:string ;
	bd:origin ""^^xsd:string ;
	bd:role "???"^^xsd:string ;
	bd:supplementalQualifier "false"^^xsd:string ;
	bd:used "false"^^xsd:string ;
.
mdrDomainsV1:V-LB_LBORNRLO
	rdf:type bd:Variable ;
	bd:basedOn <http://rdf.cdisc.org/std/sdtmig-3-1-2#Column.LB.LBORNRLO> ;
	rdfs:label "SDTM Variable"^^xsd:string ;
	bd:core "???"^^xsd:string ;
	bd:datatype "???"^^xsd:string ;
	bd:defaultCommentSet "false"^^xsd:string ;
	bd:defaultComment ""^^xsd:string ;
	bd:length "NN"^^xsd:string ;
	bd:format "???"^^xsd:string ;
	bd:notes "???"^^xsd:string ;
	bd:origin ""^^xsd:string ;
	bd:role "???"^^xsd:string ;
	bd:supplementalQualifier "false"^^xsd:string ;
	bd:used "false"^^xsd:string ;
.
mdrDomainsV1:V-LB_LBORRES
	rdf:type bd:Variable ;
	bd:basedOn <http://rdf.cdisc.org/std/sdtmig-3-1-2#Column.LB.LBORRES> ;
	rdfs:label "SDTM Variable"^^xsd:string ;
	bd:core "???"^^xsd:string ;
	bd:datatype "???"^^xsd:string ;
	bd:defaultCommentSet "false"^^xsd:string ;
	bd:defaultComment ""^^xsd:string ;
	bd:length "NN"^^xsd:string ;
	bd:format "???"^^xsd:string ;
	bd:notes "???"^^xsd:string ;
	bd:origin ""^^xsd:string ;
	bd:role "???"^^xsd:string ;
	bd:supplementalQualifier "false"^^xsd:string ;
	bd:used "false"^^xsd:string ;
.
mdrDomainsV1:V-LB_LBORRESU
	rdf:type bd:Variable ;
	bd:basedOn <http://rdf.cdisc.org/std/sdtmig-3-1-2#Column.LB.LBORRESU> ;
	rdfs:label "SDTM Variable"^^xsd:string ;
	bd:core "???"^^xsd:string ;
	bd:datatype "???"^^xsd:string ;
	bd:defaultCommentSet "false"^^xsd:string ;
	bd:defaultComment ""^^xsd:string ;
	bd:length "NN"^^xsd:string ;
	bd:format "???"^^xsd:string ;
	bd:notes "???"^^xsd:string ;
	bd:origin ""^^xsd:string ;
	bd:role "???"^^xsd:string ;
	bd:supplementalQualifier "false"^^xsd:string ;
	bd:used "false"^^xsd:string ;
.
mdrDomainsV1:V-LB_LBREASND
	rdf:type bd:Variable ;
	bd:basedOn <http://rdf.cdisc.org/std/sdtmig-3-1-2#Column.LB.LBREASND> ;
	rdfs:label "SDTM Variable"^^xsd:string ;
	bd:core "???"^^xsd:string ;
	bd:datatype "???"^^xsd:string ;
	bd:defaultCommentSet "false"^^xsd:string ;
	bd:defaultComment ""^^xsd:string ;
	bd:length "NN"^^xsd:string ;
	bd:format "???"^^xsd:string ;
	bd:notes "???"^^xsd:string ;
	bd:origin ""^^xsd:string ;
	bd:role "???"^^xsd:string ;
	bd:supplementalQualifier "false"^^xsd:string ;
	bd:used "false"^^xsd:string ;
.
mdrDomainsV1:V-LB_LBREFID
	rdf:type bd:Variable ;
	bd:basedOn <http://rdf.cdisc.org/std/sdtmig-3-1-2#Column.LB.LBREFID> ;
	rdfs:label "SDTM Variable"^^xsd:string ;
	bd:core "???"^^xsd:string ;
	bd:datatype "???"^^xsd:string ;
	bd:defaultCommentSet "false"^^xsd:string ;
	bd:defaultComment ""^^xsd:string ;
	bd:length "NN"^^xsd:string ;
	bd:format "???"^^xsd:string ;
	bd:notes "???"^^xsd:string ;
	bd:origin ""^^xsd:string ;
	bd:role "???"^^xsd:string ;
	bd:supplementalQualifier "false"^^xsd:string ;
	bd:used "false"^^xsd:string ;
.
mdrDomainsV1:V-LB_LBRFTDTC
	rdf:type bd:Variable ;
	bd:basedOn <http://rdf.cdisc.org/std/sdtmig-3-1-2#Column.LB.LBRFTDTC> ;
	rdfs:label "SDTM Variable"^^xsd:string ;
	bd:core "???"^^xsd:string ;
	bd:datatype "???"^^xsd:string ;
	bd:defaultCommentSet "false"^^xsd:string ;
	bd:defaultComment ""^^xsd:string ;
	bd:length "NN"^^xsd:string ;
	bd:format "???"^^xsd:string ;
	bd:notes "???"^^xsd:string ;
	bd:origin ""^^xsd:string ;
	bd:role "???"^^xsd:string ;
	bd:supplementalQualifier "false"^^xsd:string ;
	bd:used "false"^^xsd:string ;
.
mdrDomainsV1:V-LB_LBSCAT
	rdf:type bd:Variable ;
	bd:basedOn <http://rdf.cdisc.org/std/sdtmig-3-1-2#Column.LB.LBSCAT> ;
	rdfs:label "SDTM Variable"^^xsd:string ;
	bd:core "???"^^xsd:string ;
	bd:datatype "???"^^xsd:string ;
	bd:defaultCommentSet "false"^^xsd:string ;
	bd:defaultComment ""^^xsd:string ;
	bd:length "NN"^^xsd:string ;
	bd:format "???"^^xsd:string ;
	bd:notes "???"^^xsd:string ;
	bd:origin ""^^xsd:string ;
	bd:role "???"^^xsd:string ;
	bd:supplementalQualifier "false"^^xsd:string ;
	bd:used "false"^^xsd:string ;
.
mdrDomainsV1:V-LB_LBSEQ
	rdf:type bd:Variable ;
	bd:basedOn <http://rdf.cdisc.org/std/sdtmig-3-1-2#Column.LB.LBSEQ> ;
	rdfs:label "SDTM Variable"^^xsd:string ;
	bd:core "???"^^xsd:string ;
	bd:datatype "???"^^xsd:string ;
	bd:defaultCommentSet "false"^^xsd:string ;
	bd:defaultComment ""^^xsd:string ;
	bd:length "NN"^^xsd:string ;
	bd:format "???"^^xsd:string ;
	bd:notes "???"^^xsd:string ;
	bd:origin ""^^xsd:string ;
	bd:role "???"^^xsd:string ;
	bd:supplementalQualifier "false"^^xsd:string ;
	bd:used "false"^^xsd:string ;
.
mdrDomainsV1:V-LB_LBSPCCND
	rdf:type bd:Variable ;
	bd:basedOn <http://rdf.cdisc.org/std/sdtmig-3-1-2#Column.LB.LBSPCCND> ;
	rdfs:label "SDTM Variable"^^xsd:string ;
	bd:core "???"^^xsd:string ;
	bd:datatype "???"^^xsd:string ;
	bd:defaultCommentSet "false"^^xsd:string ;
	bd:defaultComment ""^^xsd:string ;
	bd:length "NN"^^xsd:string ;
	bd:format "???"^^xsd:string ;
	bd:notes "???"^^xsd:string ;
	bd:origin ""^^xsd:string ;
	bd:role "???"^^xsd:string ;
	bd:supplementalQualifier "false"^^xsd:string ;
	bd:used "false"^^xsd:string ;
.
mdrDomainsV1:V-LB_LBSPEC
	rdf:type bd:Variable ;
	bd:basedOn <http://rdf.cdisc.org/std/sdtmig-3-1-2#Column.LB.LBSPEC> ;
	rdfs:label "SDTM Variable"^^xsd:string ;
	bd:core "???"^^xsd:string ;
	bd:datatype "???"^^xsd:string ;
	bd:defaultCommentSet "false"^^xsd:string ;
	bd:defaultComment ""^^xsd:string ;
	bd:length "NN"^^xsd:string ;
	bd:format "???"^^xsd:string ;
	bd:notes "???"^^xsd:string ;
	bd:origin ""^^xsd:string ;
	bd:role "???"^^xsd:string ;
	bd:supplementalQualifier "false"^^xsd:string ;
	bd:used "false"^^xsd:string ;
.
mdrDomainsV1:V-LB_LBSPID
	rdf:type bd:Variable ;
	bd:basedOn <http://rdf.cdisc.org/std/sdtmig-3-1-2#Column.LB.LBSPID> ;
	rdfs:label "SDTM Variable"^^xsd:string ;
	bd:core "???"^^xsd:string ;
	bd:datatype "???"^^xsd:string ;
	bd:defaultCommentSet "false"^^xsd:string ;
	bd:defaultComment ""^^xsd:string ;
	bd:length "NN"^^xsd:string ;
	bd:format "???"^^xsd:string ;
	bd:notes "???"^^xsd:string ;
	bd:origin ""^^xsd:string ;
	bd:role "???"^^xsd:string ;
	bd:supplementalQualifier "false"^^xsd:string ;
	bd:used "false"^^xsd:string ;
.
mdrDomainsV1:V-LB_LBSTAT
	rdf:type bd:Variable ;
	bd:basedOn <http://rdf.cdisc.org/std/sdtmig-3-1-2#Column.LB.LBSTAT> ;
	rdfs:label "SDTM Variable"^^xsd:string ;
	bd:core "???"^^xsd:string ;
	bd:datatype "???"^^xsd:string ;
	bd:defaultCommentSet "false"^^xsd:string ;
	bd:defaultComment ""^^xsd:string ;
	bd:length "NN"^^xsd:string ;
	bd:format "???"^^xsd:string ;
	bd:notes "???"^^xsd:string ;
	bd:origin ""^^xsd:string ;
	bd:role "???"^^xsd:string ;
	bd:supplementalQualifier "false"^^xsd:string ;
	bd:used "false"^^xsd:string ;
.
mdrDomainsV1:V-LB_LBSTNRC
	rdf:type bd:Variable ;
	bd:basedOn <http://rdf.cdisc.org/std/sdtmig-3-1-2#Column.LB.LBSTNRC> ;
	rdfs:label "SDTM Variable"^^xsd:string ;
	bd:core "???"^^xsd:string ;
	bd:datatype "???"^^xsd:string ;
	bd:defaultCommentSet "false"^^xsd:string ;
	bd:defaultComment ""^^xsd:string ;
	bd:length "NN"^^xsd:string ;
	bd:format "???"^^xsd:string ;
	bd:notes "???"^^xsd:string ;
	bd:origin ""^^xsd:string ;
	bd:role "???"^^xsd:string ;
	bd:supplementalQualifier "false"^^xsd:string ;
	bd:used "false"^^xsd:string ;
.
mdrDomainsV1:V-LB_LBSTNRHI
	rdf:type bd:Variable ;
	bd:basedOn <http://rdf.cdisc.org/std/sdtmig-3-1-2#Column.LB.LBSTNRHI> ;
	rdfs:label "SDTM Variable"^^xsd:string ;
	bd:core "???"^^xsd:string ;
	bd:datatype "???"^^xsd:string ;
	bd:defaultCommentSet "false"^^xsd:string ;
	bd:defaultComment ""^^xsd:string ;
	bd:length "NN"^^xsd:string ;
	bd:format "???"^^xsd:string ;
	bd:notes "???"^^xsd:string ;
	bd:origin ""^^xsd:string ;
	bd:role "???"^^xsd:string ;
	bd:supplementalQualifier "false"^^xsd:string ;
	bd:used "false"^^xsd:string ;
.
mdrDomainsV1:V-LB_LBSTNRLO
	rdf:type bd:Variable ;
	bd:basedOn <http://rdf.cdisc.org/std/sdtmig-3-1-2#Column.LB.LBSTNRLO> ;
	rdfs:label "SDTM Variable"^^xsd:string ;
	bd:core "???"^^xsd:string ;
	bd:datatype "???"^^xsd:string ;
	bd:defaultCommentSet "false"^^xsd:string ;
	bd:defaultComment ""^^xsd:string ;
	bd:length "NN"^^xsd:string ;
	bd:format "???"^^xsd:string ;
	bd:notes "???"^^xsd:string ;
	bd:origin ""^^xsd:string ;
	bd:role "???"^^xsd:string ;
	bd:supplementalQualifier "false"^^xsd:string ;
	bd:used "false"^^xsd:string ;
.
mdrDomainsV1:V-LB_LBSTRESC
	rdf:type bd:Variable ;
	bd:basedOn <http://rdf.cdisc.org/std/sdtmig-3-1-2#Column.LB.LBSTRESC> ;
	rdfs:label "SDTM Variable"^^xsd:string ;
	bd:core "???"^^xsd:string ;
	bd:datatype "???"^^xsd:string ;
	bd:defaultCommentSet "false"^^xsd:string ;
	bd:defaultComment ""^^xsd:string ;
	bd:length "NN"^^xsd:string ;
	bd:format "???"^^xsd:string ;
	bd:notes "???"^^xsd:string ;
	bd:origin ""^^xsd:string ;
	bd:role "???"^^xsd:string ;
	bd:supplementalQualifier "false"^^xsd:string ;
	bd:used "false"^^xsd:string ;
.
mdrDomainsV1:V-LB_LBSTRESN
	rdf:type bd:Variable ;
	bd:basedOn <http://rdf.cdisc.org/std/sdtmig-3-1-2#Column.LB.LBSTRESN> ;
	rdfs:label "SDTM Variable"^^xsd:string ;
	bd:core "???"^^xsd:string ;
	bd:datatype "???"^^xsd:string ;
	bd:defaultCommentSet "false"^^xsd:string ;
	bd:defaultComment ""^^xsd:string ;
	bd:length "NN"^^xsd:string ;
	bd:format "???"^^xsd:string ;
	bd:notes "???"^^xsd:string ;
	bd:origin ""^^xsd:string ;
	bd:role "???"^^xsd:string ;
	bd:supplementalQualifier "false"^^xsd:string ;
	bd:used "false"^^xsd:string ;
.
mdrDomainsV1:V-LB_LBSTRESU
	rdf:type bd:Variable ;
	bd:basedOn <http://rdf.cdisc.org/std/sdtmig-3-1-2#Column.LB.LBSTRESU> ;
	rdfs:label "SDTM Variable"^^xsd:string ;
	bd:core "???"^^xsd:string ;
	bd:datatype "???"^^xsd:string ;
	bd:defaultCommentSet "false"^^xsd:string ;
	bd:defaultComment ""^^xsd:string ;
	bd:length "NN"^^xsd:string ;
	bd:format "???"^^xsd:string ;
	bd:notes "???"^^xsd:string ;
	bd:origin ""^^xsd:string ;
	bd:role "???"^^xsd:string ;
	bd:supplementalQualifier "false"^^xsd:string ;
	bd:used "false"^^xsd:string ;
.
mdrDomainsV1:V-LB_LBTEST
	rdf:type bd:Variable ;
	bd:basedOn <http://rdf.cdisc.org/std/sdtmig-3-1-2#Column.LB.LBTEST> ;
	rdfs:label "SDTM Variable"^^xsd:string ;
	bd:core "???"^^xsd:string ;
	bd:datatype "???"^^xsd:string ;
	bd:defaultCommentSet "false"^^xsd:string ;
	bd:defaultComment ""^^xsd:string ;
	bd:length "NN"^^xsd:string ;
	bd:format "???"^^xsd:string ;
	bd:notes "???"^^xsd:string ;
	bd:origin ""^^xsd:string ;
	bd:role "???"^^xsd:string ;
	bd:supplementalQualifier "false"^^xsd:string ;
	bd:used "false"^^xsd:string ;
.
mdrDomainsV1:V-LB_LBTESTCD
	rdf:type bd:Variable ;
	bd:basedOn <http://rdf.cdisc.org/std/sdtmig-3-1-2#Column.LB.LBTESTCD> ;
	rdfs:label "SDTM Variable"^^xsd:string ;
	bd:core "???"^^xsd:string ;
	bd:datatype "???"^^xsd:string ;
	bd:defaultCommentSet "false"^^xsd:string ;
	bd:defaultComment ""^^xsd:string ;
	bd:length "NN"^^xsd:string ;
	bd:format "???"^^xsd:string ;
	bd:notes "???"^^xsd:string ;
	bd:origin ""^^xsd:string ;
	bd:role "???"^^xsd:string ;
	bd:supplementalQualifier "false"^^xsd:string ;
	bd:used "false"^^xsd:string ;
.
mdrDomainsV1:V-LB_LBTOX
	rdf:type bd:Variable ;
	bd:basedOn <http://rdf.cdisc.org/std/sdtmig-3-1-2#Column.LB.LBTOX> ;
	rdfs:label "SDTM Variable"^^xsd:string ;
	bd:core "???"^^xsd:string ;
	bd:datatype "???"^^xsd:string ;
	bd:defaultCommentSet "false"^^xsd:string ;
	bd:defaultComment ""^^xsd:string ;
	bd:length "NN"^^xsd:string ;
	bd:format "???"^^xsd:string ;
	bd:notes "???"^^xsd:string ;
	bd:origin ""^^xsd:string ;
	bd:role "???"^^xsd:string ;
	bd:supplementalQualifier "false"^^xsd:string ;
	bd:used "false"^^xsd:string ;
.
mdrDomainsV1:V-LB_LBTOXGR
	rdf:type bd:Variable ;
	bd:basedOn <http://rdf.cdisc.org/std/sdtmig-3-1-2#Column.LB.LBTOXGR> ;
	rdfs:label "SDTM Variable"^^xsd:string ;
	bd:core "???"^^xsd:string ;
	bd:datatype "???"^^xsd:string ;
	bd:defaultCommentSet "false"^^xsd:string ;
	bd:defaultComment ""^^xsd:string ;
	bd:length "NN"^^xsd:string ;
	bd:format "???"^^xsd:string ;
	bd:notes "???"^^xsd:string ;
	bd:origin ""^^xsd:string ;
	bd:role "???"^^xsd:string ;
	bd:supplementalQualifier "false"^^xsd:string ;
	bd:used "false"^^xsd:string ;
.
mdrDomainsV1:V-LB_LBTPT
	rdf:type bd:Variable ;
	bd:basedOn <http://rdf.cdisc.org/std/sdtmig-3-1-2#Column.LB.LBTPT> ;
	rdfs:label "SDTM Variable"^^xsd:string ;
	bd:core "???"^^xsd:string ;
	bd:datatype "???"^^xsd:string ;
	bd:defaultCommentSet "false"^^xsd:string ;
	bd:defaultComment ""^^xsd:string ;
	bd:length "NN"^^xsd:string ;
	bd:format "???"^^xsd:string ;
	bd:notes "???"^^xsd:string ;
	bd:origin ""^^xsd:string ;
	bd:role "???"^^xsd:string ;
	bd:supplementalQualifier "false"^^xsd:string ;
	bd:used "false"^^xsd:string ;
.
mdrDomainsV1:V-LB_LBTPTNUM
	rdf:type bd:Variable ;
	bd:basedOn <http://rdf.cdisc.org/std/sdtmig-3-1-2#Column.LB.LBTPTNUM> ;
	rdfs:label "SDTM Variable"^^xsd:string ;
	bd:core "???"^^xsd:string ;
	bd:datatype "???"^^xsd:string ;
	bd:defaultCommentSet "false"^^xsd:string ;
	bd:defaultComment ""^^xsd:string ;
	bd:length "NN"^^xsd:string ;
	bd:format "???"^^xsd:string ;
	bd:notes "???"^^xsd:string ;
	bd:origin ""^^xsd:string ;
	bd:role "???"^^xsd:string ;
	bd:supplementalQualifier "false"^^xsd:string ;
	bd:used "false"^^xsd:string ;
.
mdrDomainsV1:V-LB_LBTPTREF
	rdf:type bd:Variable ;
	bd:basedOn <http://rdf.cdisc.org/std/sdtmig-3-1-2#Column.LB.LBTPTREF> ;
	rdfs:label "SDTM Variable"^^xsd:string ;
	bd:core "???"^^xsd:string ;
	bd:datatype "???"^^xsd:string ;
	bd:defaultCommentSet "false"^^xsd:string ;
	bd:defaultComment ""^^xsd:string ;
	bd:length "NN"^^xsd:string ;
	bd:format "???"^^xsd:string ;
	bd:notes "???"^^xsd:string ;
	bd:origin ""^^xsd:string ;
	bd:role "???"^^xsd:string ;
	bd:supplementalQualifier "false"^^xsd:string ;
	bd:used "false"^^xsd:string ;
.
mdrDomainsV1:V-LB_STUDYID
	rdf:type bd:Variable ;
	bd:basedOn <http://rdf.cdisc.org/std/sdtmig-3-1-2#Column.LB.STUDYID> ;
	rdfs:label "SDTM Variable"^^xsd:string ;
	bd:core "???"^^xsd:string ;
	bd:datatype "???"^^xsd:string ;
	bd:defaultCommentSet "false"^^xsd:string ;
	bd:defaultComment ""^^xsd:string ;
	bd:length "NN"^^xsd:string ;
	bd:format "???"^^xsd:string ;
	bd:notes "???"^^xsd:string ;
	bd:origin ""^^xsd:string ;
	bd:role "???"^^xsd:string ;
	bd:supplementalQualifier "false"^^xsd:string ;
	bd:used "false"^^xsd:string ;
.
mdrDomainsV1:V-LB_USUBJID
	rdf:type bd:Variable ;
	bd:basedOn <http://rdf.cdisc.org/std/sdtmig-3-1-2#Column.LB.USUBJID> ;
	rdfs:label "SDTM Variable"^^xsd:string ;
	bd:core "???"^^xsd:string ;
	bd:datatype "???"^^xsd:string ;
	bd:defaultCommentSet "false"^^xsd:string ;
	bd:defaultComment ""^^xsd:string ;
	bd:length "NN"^^xsd:string ;
	bd:format "???"^^xsd:string ;
	bd:notes "???"^^xsd:string ;
	bd:origin ""^^xsd:string ;
	bd:role "???"^^xsd:string ;
	bd:supplementalQualifier "false"^^xsd:string ;
	bd:used "false"^^xsd:string ;
.
mdrDomainsV1:V-LB_VISIT
	rdf:type bd:Variable ;
	bd:basedOn <http://rdf.cdisc.org/std/sdtmig-3-1-2#Column.LB.VISIT> ;
	rdfs:label "SDTM Variable"^^xsd:string ;
	bd:core "???"^^xsd:string ;
	bd:datatype "???"^^xsd:string ;
	bd:defaultCommentSet "false"^^xsd:string ;
	bd:defaultComment ""^^xsd:string ;
	bd:length "NN"^^xsd:string ;
	bd:format "???"^^xsd:string ;
	bd:notes "???"^^xsd:string ;
	bd:origin ""^^xsd:string ;
	bd:role "???"^^xsd:string ;
	bd:supplementalQualifier "false"^^xsd:string ;
	bd:used "false"^^xsd:string ;
.
mdrDomainsV1:V-LB_VISITDY
	rdf:type bd:Variable ;
	bd:basedOn <http://rdf.cdisc.org/std/sdtmig-3-1-2#Column.LB.VISITDY> ;
	rdfs:label "SDTM Variable"^^xsd:string ;
	bd:core "???"^^xsd:string ;
	bd:datatype "???"^^xsd:string ;
	bd:defaultCommentSet "false"^^xsd:string ;
	bd:defaultComment ""^^xsd:string ;
	bd:length "NN"^^xsd:string ;
	bd:format "???"^^xsd:string ;
	bd:notes "???"^^xsd:string ;
	bd:origin ""^^xsd:string ;
	bd:role "???"^^xsd:string ;
	bd:supplementalQualifier "false"^^xsd:string ;
	bd:used "false"^^xsd:string ;
.
mdrDomainsV1:V-LB_VISITNUM
	rdf:type bd:Variable ;
	bd:basedOn <http://rdf.cdisc.org/std/sdtmig-3-1-2#Column.LB.VISITNUM> ;
	rdfs:label "SDTM Variable"^^xsd:string ;
	bd:core "???"^^xsd:string ;
	bd:datatype "???"^^xsd:string ;
	bd:defaultCommentSet "false"^^xsd:string ;
	bd:defaultComment ""^^xsd:string ;
	bd:length "NN"^^xsd:string ;
	bd:format "???"^^xsd:string ;
	bd:notes "???"^^xsd:string ;
	bd:origin ""^^xsd:string ;
	bd:role "???"^^xsd:string ;
	bd:supplementalQualifier "false"^^xsd:string ;
	bd:used "false"^^xsd:string ;
.
mdrDomainsV1:V-MH_DOMAIN
	rdf:type bd:Variable ;
	bd:basedOn <http://rdf.cdisc.org/std/sdtmig-3-1-2#Column.MH.DOMAIN> ;
	rdfs:label "SDTM Variable"^^xsd:string ;
	bd:core "???"^^xsd:string ;
	bd:datatype "???"^^xsd:string ;
	bd:defaultCommentSet "false"^^xsd:string ;
	bd:defaultComment ""^^xsd:string ;
	bd:length "NN"^^xsd:string ;
	bd:format "???"^^xsd:string ;
	bd:notes "???"^^xsd:string ;
	bd:origin ""^^xsd:string ;
	bd:role "???"^^xsd:string ;
	bd:supplementalQualifier "false"^^xsd:string ;
	bd:used "false"^^xsd:string ;
.
mdrDomainsV1:V-MH_MHBODSYS
	rdf:type bd:Variable ;
	bd:basedOn <http://rdf.cdisc.org/std/sdtmig-3-1-2#Column.MH.MHBODSYS> ;
	rdfs:label "SDTM Variable"^^xsd:string ;
	bd:core "???"^^xsd:string ;
	bd:datatype "???"^^xsd:string ;
	bd:defaultCommentSet "false"^^xsd:string ;
	bd:defaultComment ""^^xsd:string ;
	bd:length "NN"^^xsd:string ;
	bd:format "???"^^xsd:string ;
	bd:notes "???"^^xsd:string ;
	bd:origin ""^^xsd:string ;
	bd:role "???"^^xsd:string ;
	bd:supplementalQualifier "false"^^xsd:string ;
	bd:used "false"^^xsd:string ;
.
mdrDomainsV1:V-MH_MHCAT
	rdf:type bd:Variable ;
	bd:basedOn <http://rdf.cdisc.org/std/sdtmig-3-1-2#Column.MH.MHCAT> ;
	rdfs:label "SDTM Variable"^^xsd:string ;
	bd:core "???"^^xsd:string ;
	bd:datatype "???"^^xsd:string ;
	bd:defaultCommentSet "false"^^xsd:string ;
	bd:defaultComment ""^^xsd:string ;
	bd:length "NN"^^xsd:string ;
	bd:format "???"^^xsd:string ;
	bd:notes "???"^^xsd:string ;
	bd:origin ""^^xsd:string ;
	bd:role "???"^^xsd:string ;
	bd:supplementalQualifier "false"^^xsd:string ;
	bd:used "false"^^xsd:string ;
.
mdrDomainsV1:V-MH_MHDECOD
	rdf:type bd:Variable ;
	bd:basedOn <http://rdf.cdisc.org/std/sdtmig-3-1-2#Column.MH.MHDECOD> ;
	rdfs:label "SDTM Variable"^^xsd:string ;
	bd:core "???"^^xsd:string ;
	bd:datatype "???"^^xsd:string ;
	bd:defaultCommentSet "false"^^xsd:string ;
	bd:defaultComment ""^^xsd:string ;
	bd:length "NN"^^xsd:string ;
	bd:format "???"^^xsd:string ;
	bd:notes "???"^^xsd:string ;
	bd:origin ""^^xsd:string ;
	bd:role "???"^^xsd:string ;
	bd:supplementalQualifier "false"^^xsd:string ;
	bd:used "false"^^xsd:string ;
.
mdrDomainsV1:V-MH_MHDTC
	rdf:type bd:Variable ;
	bd:basedOn <http://rdf.cdisc.org/std/sdtmig-3-1-2#Column.MH.MHDTC> ;
	rdfs:label "SDTM Variable"^^xsd:string ;
	bd:core "???"^^xsd:string ;
	bd:datatype "???"^^xsd:string ;
	bd:defaultCommentSet "false"^^xsd:string ;
	bd:defaultComment ""^^xsd:string ;
	bd:length "NN"^^xsd:string ;
	bd:format "???"^^xsd:string ;
	bd:notes "???"^^xsd:string ;
	bd:origin ""^^xsd:string ;
	bd:role "???"^^xsd:string ;
	bd:supplementalQualifier "false"^^xsd:string ;
	bd:used "false"^^xsd:string ;
.
mdrDomainsV1:V-MH_MHDY
	rdf:type bd:Variable ;
	bd:basedOn <http://rdf.cdisc.org/std/sdtmig-3-1-2#Column.MH.MHDY> ;
	rdfs:label "SDTM Variable"^^xsd:string ;
	bd:core "???"^^xsd:string ;
	bd:datatype "???"^^xsd:string ;
	bd:defaultCommentSet "false"^^xsd:string ;
	bd:defaultComment ""^^xsd:string ;
	bd:length "NN"^^xsd:string ;
	bd:format "???"^^xsd:string ;
	bd:notes "???"^^xsd:string ;
	bd:origin ""^^xsd:string ;
	bd:role "???"^^xsd:string ;
	bd:supplementalQualifier "false"^^xsd:string ;
	bd:used "false"^^xsd:string ;
.
mdrDomainsV1:V-MH_MHENDTC
	rdf:type bd:Variable ;
	bd:basedOn <http://rdf.cdisc.org/std/sdtmig-3-1-2#Column.MH.MHENDTC> ;
	rdfs:label "SDTM Variable"^^xsd:string ;
	bd:core "???"^^xsd:string ;
	bd:datatype "???"^^xsd:string ;
	bd:defaultCommentSet "false"^^xsd:string ;
	bd:defaultComment ""^^xsd:string ;
	bd:length "NN"^^xsd:string ;
	bd:format "???"^^xsd:string ;
	bd:notes "???"^^xsd:string ;
	bd:origin ""^^xsd:string ;
	bd:role "???"^^xsd:string ;
	bd:supplementalQualifier "false"^^xsd:string ;
	bd:used "false"^^xsd:string ;
.
mdrDomainsV1:V-MH_MHENRF
	rdf:type bd:Variable ;
	bd:basedOn <http://rdf.cdisc.org/std/sdtmig-3-1-2#Column.MH.MHENRF> ;
	rdfs:label "SDTM Variable"^^xsd:string ;
	bd:core "???"^^xsd:string ;
	bd:datatype "???"^^xsd:string ;
	bd:defaultCommentSet "false"^^xsd:string ;
	bd:defaultComment ""^^xsd:string ;
	bd:length "NN"^^xsd:string ;
	bd:format "???"^^xsd:string ;
	bd:notes "???"^^xsd:string ;
	bd:origin ""^^xsd:string ;
	bd:role "???"^^xsd:string ;
	bd:supplementalQualifier "false"^^xsd:string ;
	bd:used "false"^^xsd:string ;
.
mdrDomainsV1:V-MH_MHENRTPT
	rdf:type bd:Variable ;
	bd:basedOn <http://rdf.cdisc.org/std/sdtmig-3-1-2#Column.MH.MHENRTPT> ;
	rdfs:label "SDTM Variable"^^xsd:string ;
	bd:core "???"^^xsd:string ;
	bd:datatype "???"^^xsd:string ;
	bd:defaultCommentSet "false"^^xsd:string ;
	bd:defaultComment ""^^xsd:string ;
	bd:length "NN"^^xsd:string ;
	bd:format "???"^^xsd:string ;
	bd:notes "???"^^xsd:string ;
	bd:origin ""^^xsd:string ;
	bd:role "???"^^xsd:string ;
	bd:supplementalQualifier "false"^^xsd:string ;
	bd:used "false"^^xsd:string ;
.
mdrDomainsV1:V-MH_MHENTPT
	rdf:type bd:Variable ;
	bd:basedOn <http://rdf.cdisc.org/std/sdtmig-3-1-2#Column.MH.MHENTPT> ;
	rdfs:label "SDTM Variable"^^xsd:string ;
	bd:core "???"^^xsd:string ;
	bd:datatype "???"^^xsd:string ;
	bd:defaultCommentSet "false"^^xsd:string ;
	bd:defaultComment ""^^xsd:string ;
	bd:length "NN"^^xsd:string ;
	bd:format "???"^^xsd:string ;
	bd:notes "???"^^xsd:string ;
	bd:origin ""^^xsd:string ;
	bd:role "???"^^xsd:string ;
	bd:supplementalQualifier "false"^^xsd:string ;
	bd:used "false"^^xsd:string ;
.
mdrDomainsV1:V-MH_MHGRPID
	rdf:type bd:Variable ;
	bd:basedOn <http://rdf.cdisc.org/std/sdtmig-3-1-2#Column.MH.MHGRPID> ;
	rdfs:label "SDTM Variable"^^xsd:string ;
	bd:core "???"^^xsd:string ;
	bd:datatype "???"^^xsd:string ;
	bd:defaultCommentSet "false"^^xsd:string ;
	bd:defaultComment ""^^xsd:string ;
	bd:length "NN"^^xsd:string ;
	bd:format "???"^^xsd:string ;
	bd:notes "???"^^xsd:string ;
	bd:origin ""^^xsd:string ;
	bd:role "???"^^xsd:string ;
	bd:supplementalQualifier "false"^^xsd:string ;
	bd:used "false"^^xsd:string ;
.
mdrDomainsV1:V-MH_MHMODIFY
	rdf:type bd:Variable ;
	bd:basedOn <http://rdf.cdisc.org/std/sdtmig-3-1-2#Column.MH.MHMODIFY> ;
	rdfs:label "SDTM Variable"^^xsd:string ;
	bd:core "???"^^xsd:string ;
	bd:datatype "???"^^xsd:string ;
	bd:defaultCommentSet "false"^^xsd:string ;
	bd:defaultComment ""^^xsd:string ;
	bd:length "NN"^^xsd:string ;
	bd:format "???"^^xsd:string ;
	bd:notes "???"^^xsd:string ;
	bd:origin ""^^xsd:string ;
	bd:role "???"^^xsd:string ;
	bd:supplementalQualifier "false"^^xsd:string ;
	bd:used "false"^^xsd:string ;
.
mdrDomainsV1:V-MH_MHOCCUR
	rdf:type bd:Variable ;
	bd:basedOn <http://rdf.cdisc.org/std/sdtmig-3-1-2#Column.MH.MHOCCUR> ;
	rdfs:label "SDTM Variable"^^xsd:string ;
	bd:core "???"^^xsd:string ;
	bd:datatype "???"^^xsd:string ;
	bd:defaultCommentSet "false"^^xsd:string ;
	bd:defaultComment ""^^xsd:string ;
	bd:length "NN"^^xsd:string ;
	bd:format "???"^^xsd:string ;
	bd:notes "???"^^xsd:string ;
	bd:origin ""^^xsd:string ;
	bd:role "???"^^xsd:string ;
	bd:supplementalQualifier "false"^^xsd:string ;
	bd:used "false"^^xsd:string ;
.
mdrDomainsV1:V-MH_MHPRESP
	rdf:type bd:Variable ;
	bd:basedOn <http://rdf.cdisc.org/std/sdtmig-3-1-2#Column.MH.MHPRESP> ;
	rdfs:label "SDTM Variable"^^xsd:string ;
	bd:core "???"^^xsd:string ;
	bd:datatype "???"^^xsd:string ;
	bd:defaultCommentSet "false"^^xsd:string ;
	bd:defaultComment ""^^xsd:string ;
	bd:length "NN"^^xsd:string ;
	bd:format "???"^^xsd:string ;
	bd:notes "???"^^xsd:string ;
	bd:origin ""^^xsd:string ;
	bd:role "???"^^xsd:string ;
	bd:supplementalQualifier "false"^^xsd:string ;
	bd:used "false"^^xsd:string ;
.
mdrDomainsV1:V-MH_MHREASND
	rdf:type bd:Variable ;
	bd:basedOn <http://rdf.cdisc.org/std/sdtmig-3-1-2#Column.MH.MHREASND> ;
	rdfs:label "SDTM Variable"^^xsd:string ;
	bd:core "???"^^xsd:string ;
	bd:datatype "???"^^xsd:string ;
	bd:defaultCommentSet "false"^^xsd:string ;
	bd:defaultComment ""^^xsd:string ;
	bd:length "NN"^^xsd:string ;
	bd:format "???"^^xsd:string ;
	bd:notes "???"^^xsd:string ;
	bd:origin ""^^xsd:string ;
	bd:role "???"^^xsd:string ;
	bd:supplementalQualifier "false"^^xsd:string ;
	bd:used "false"^^xsd:string ;
.
mdrDomainsV1:V-MH_MHREFID
	rdf:type bd:Variable ;
	bd:basedOn <http://rdf.cdisc.org/std/sdtmig-3-1-2#Column.MH.MHREFID> ;
