@prefix : <http://www.acme-pharma.com/F_BASELINE/V1#> .
@prefix bf: <http://www.assero.co.uk/BusinessForm#> .
@prefix isoC: <http://www.assero.co.uk/ISO11179Concepts#> .
@prefix isoT: <http://www.assero.co.uk/ISO11179Types#> .
@prefix isoR: <http://www.assero.co.uk/ISO11179Registration#> .
@prefix isoI: <http://www.assero.co.uk/ISO11179Identification#> .
@prefix bo: <http://www.assero.co.uk/BusinessOperational#> .
@prefix owl: <http://www.w3.org/2002/07/owl#> .
@prefix rdf: <http://www.w3.org/1999/02/22-rdf-syntax-ns#> .
@prefix rdfs: <http://www.w3.org/2000/01/rdf-schema#> .
@prefix xsd: <http://www.w3.org/2001/XMLSchema#> .
@prefix skos: <http://www.w3.org/2004/02/skos/core#> .

<http://www.acme-pharma.com/F_BASELINE/V1>
	rdf:type owl:Ontology ;
.
:F
	rdf:type bf:Form ;
	isoC:label "Baseline Visit Form"^^xsd:string ;
	isoT:hasState :F_RS ;
	isoT:hasIdentifier :F_SI ;
	isoT:origin ""^^xsd:string ;
	isoT:changeDescription ""^^xsd:string ;
	isoT:creationDate "2021-03-01T11:04:43+01:00"^^xsd:dateTime ;
	isoT:lastChangeDate "2021-03-01T11:04:43+01:00"^^xsd:dateTime ;
	isoT:explanatoryComment ""^^xsd:string ;
	bf:note ""^^xsd:string ;
	bf:completion ""^^xsd:string ;
	bf:hasGroup <http://www.acme-pharma.com/FBASELINE/V1#NG_1760cbb1-a370-41f6-a3b3-493c1d9c2238> ;
	bf:hasGroup <http://www.acme-pharma.com/FBASELINE/V1#NG_36d01a04-97fa-4ae9-8f40-9f266a6cdc06> ;
	bf:hasGroup <http://www.acme-pharma.com/FBASELINE/V1#NG_f9fe7128-4b63-482d-9a11-62250e24fe0c> ;
	bf:hasGroup <http://www.acme-pharma.com/FBASELINE/V1#NG_4b981364-daf4-4c99-84f0-f7514bd092e7> ;
	bf:hasGroup <http://www.acme-pharma.com/FBASELINE/V1#NG_830fa72c-a59e-475b-9b2c-eb4b5ace264f> ;
.
:F_RS
	rdf:type isoR:RegistrationState ;
	isoR:registrationStatus "Standard"^^xsd:string ;
	isoR:administrativeNote ""^^xsd:string ;
	isoR:effectiveDate "2016-01-01T00:00:00+00:00"^^xsd:dateTime ;
	isoR:untilDate "2016-01-01T00:00:00+00:00"^^xsd:dateTime ;
	isoR:unresolvedIssue ""^^xsd:string ;
	isoR:administrativeStatus ""^^xsd:string ;
	isoR:previousState "Standard"^^xsd:string ;
	isoR:multipleEdit "false"^^xsd:boolean ;
	isoR:byAuthority <http://www.assero.co.uk/RA#DUNS123456789> ;
.
:F_SI
	rdf:type isoI:ScopedIdentifier ;
	isoI:identifier "F BASELINE"^^xsd:string ;
	isoI:versionLabel "0.1.0"^^xsd:string ;
	isoI:version "1"^^xsd:positiveInteger ;
	isoI:semanticVersion "0.1.0"^^xsd:string ;
	isoI:hasScope <http://www.assero.co.uk/NS#ACME> ;
.
<http://www.acme-pharma.com/FBASELINE/V1#NG_1760cbb1-a370-41f6-a3b3-493c1d9c2238>
	rdf:type bf:NormalGroup ;
	isoC:label "Common"^^xsd:string ;
	bf:ordinal "1"^^xsd:integer ;
	bf:note ""^^xsd:string ;
	bf:completion ""^^xsd:string ;
	bf:optional "false"^^xsd:boolean ;
	bf:hasItem <http://www.acme-pharma.com/FBASELINE/V1#Q_4646b47a-4ae4-4f21-b5e2-565815c8cded> ;
	bf:hasItem <http://www.acme-pharma.com/FBASELINE/V1#Q_92bf8b74-ec78-4348-9a1b-154a6ccb9b9f> ;
	bf:hasItem <http://www.acme-pharma.com/FBASELINE/V1#Q_b76597f7-972f-40f4-bed7-e134725cf296> ;
	bf:repeating "false"^^xsd:boolean ;
.
<http://www.acme-pharma.com/FBASELINE/V1#Q_4646b47a-4ae4-4f21-b5e2-565815c8cded>
	rdf:type bf:Question ;
	isoC:label "Site Number"^^xsd:string ;
	bf:ordinal "1"^^xsd:integer ;
	bf:note ""^^xsd:string ;
	bf:completion ""^^xsd:string ;
	bf:optional "false"^^xsd:boolean ;
	bf:datatype "string"^^xsd:string ;
	bf:format "3"^^xsd:string ;
	bf:mapping "SITEID"^^xsd:string ;
	bf:questionText "Site #"^^xsd:string ;
.
<http://www.acme-pharma.com/FBASELINE/V1#Q_92bf8b74-ec78-4348-9a1b-154a6ccb9b9f>
	rdf:type bf:Question ;
	isoC:label "Subject ID"^^xsd:string ;
	bf:ordinal "2"^^xsd:integer ;
	bf:note ""^^xsd:string ;
	bf:completion ""^^xsd:string ;
	bf:optional "false"^^xsd:boolean ;
	bf:datatype "string"^^xsd:string ;
	bf:format "11"^^xsd:string ;
	bf:mapping "USUBJID"^^xsd:string ;
	bf:questionText "Subject ID #"^^xsd:string ;
.
<http://www.acme-pharma.com/FBASELINE/V1#Q_b76597f7-972f-40f4-bed7-e134725cf296>
	rdf:type bf:Question ;
	isoC:label "Visit Date"^^xsd:string ;
	bf:ordinal "3"^^xsd:integer ;
	bf:note ""^^xsd:string ;
	bf:completion ""^^xsd:string ;
	bf:optional "false"^^xsd:boolean ;
	bf:datatype "date"^^xsd:string ;
	bf:format ""^^xsd:string ;
	bf:mapping "RFSTDTC"^^xsd:string ;
	bf:questionText "Visit Date"^^xsd:string ;
.
<http://www.acme-pharma.com/FBASELINE/V1#NG_36d01a04-97fa-4ae9-8f40-9f266a6cdc06>
	rdf:type bf:NormalGroup ;
	isoC:label "Demographics"^^xsd:string ;
	bf:ordinal "2"^^xsd:integer ;
	bf:note ""^^xsd:string ;
	bf:completion ""^^xsd:string ;
	bf:optional "false"^^xsd:boolean ;
	bf:hasItem <http://www.acme-pharma.com/FBASELINE/V1#Q_0cda6f24-e54d-4724-af79-916d41d9bd7f> ;
	bf:hasItem <http://www.acme-pharma.com/FBASELINE/V1#Q_7948e614-fdba-484a-9dfc-c98ce368d4e7> ;
	bf:hasItem <http://www.acme-pharma.com/FBASELINE/V1#Q_c9f7f7de-d227-4e15-b171-06c4306b77f4> ;
	bf:repeating "false"^^xsd:boolean ;
.
<http://www.acme-pharma.com/FBASELINE/V1#Q_0cda6f24-e54d-4724-af79-916d41d9bd7f>
	rdf:type bf:Question ;
	isoC:label "Date of Birth"^^xsd:string ;
	bf:ordinal "1"^^xsd:integer ;
	bf:note ""^^xsd:string ;
	bf:completion ""^^xsd:string ;
	bf:optional "false"^^xsd:boolean ;
	bf:datatype "date"^^xsd:string ;
	bf:format ""^^xsd:string ;
	bf:mapping "BRTHDTC"^^xsd:string ;
	bf:questionText "Date of Birth"^^xsd:string ;
.
<http://www.acme-pharma.com/FBASELINE/V1#Q_7948e614-fdba-484a-9dfc-c98ce368d4e7>
	rdf:type bf:Question ;
	isoC:label "DM - Sex"^^xsd:string ;
	bf:ordinal "2"^^xsd:integer ;
	bf:note ""^^xsd:string ;
	bf:completion ""^^xsd:string ;
	bf:optional "false"^^xsd:boolean ;
	bf:datatype "string"^^xsd:string ;
	bf:format "1"^^xsd:string ;
	bf:mapping "SEX"^^xsd:string ;
	bf:questionText "Sex"^^xsd:string ;
	bf:hasCodedValue <http://www.acme-pharma.com/FBASELINE/V1#Q_7948e614-fdba-484a-9dfc-c98ce368d4e7_TUC1> ;
	bf:hasCodedValue <http://www.acme-pharma.com/FBASELINE/V1#Q_7948e614-fdba-484a-9dfc-c98ce368d4e7_TUC2> ;
.
<http://www.acme-pharma.com/FBASELINE/V1#Q_7948e614-fdba-484a-9dfc-c98ce368d4e7_TUC1>
	rdf:type bo:TucReference ;
	isoC:label ""^^xsd:string ;
	bo:enabled "true"^^xsd:boolean ;
	bo:optional "false"^^xsd:boolean ;
	bo:ordinal "1"^^xsd:positiveInteger ;
	bo:reference <http://www.cdisc.org/C66731/V16#C66731_C20197> ;
	bo:context <http://www.cdisc.org/C66731/V39#C66731> ;
	bo:localLabel "Male"^^xsd:string ;
.
<http://www.acme-pharma.com/FBASELINE/V1#Q_7948e614-fdba-484a-9dfc-c98ce368d4e7_TUC2>
	rdf:type bo:TucReference ;
	isoC:label ""^^xsd:string ;
	bo:enabled "true"^^xsd:boolean ;
	bo:optional "false"^^xsd:boolean ;
	bo:ordinal "2"^^xsd:positiveInteger ;
	bo:reference <http://www.cdisc.org/C66731/V4#C66731_C16576> ;
	bo:context <http://www.cdisc.org/C66731/V39#C66731> ;
	bo:localLabel "Female"^^xsd:string ;
.
<http://www.acme-pharma.com/FBASELINE/V1#Q_c9f7f7de-d227-4e15-b171-06c4306b77f4>
	rdf:type bf:Question ;
	isoC:label "DM - Race"^^xsd:string ;
	bf:ordinal "3"^^xsd:integer ;
	bf:note "* No entries found in code list 'C74457' for item with submission value: 'CAUCASIAN' or preferred term: 'Caucasian'.\n* No entries found in code list 'C74457' for item with submission value: 'BLACK' or preferred term: 'Black'.\n* No entries found in code list 'C74457' for item with submission value: 'OTHER' or preferred term: 'Other'.\n"^^xsd:string ;
	bf:completion ""^^xsd:string ;
	bf:optional "false"^^xsd:boolean ;
	bf:datatype "string"^^xsd:string ;
	bf:format "20"^^xsd:string ;
	bf:mapping "RACE"^^xsd:string ;
	bf:questionText "Race"^^xsd:string ;
	bf:hasCodedValue <http://www.acme-pharma.com/FBASELINE/V1#Q_c9f7f7de-d227-4e15-b171-06c4306b77f4_TUC1> ;
.
<http://www.acme-pharma.com/FBASELINE/V1#Q_c9f7f7de-d227-4e15-b171-06c4306b77f4_TUC1>
	rdf:type bo:TucReference ;
	isoC:label ""^^xsd:string ;
	bo:enabled "true"^^xsd:boolean ;
	bo:optional "false"^^xsd:boolean ;
	bo:ordinal "1"^^xsd:positiveInteger ;
	bo:reference <http://www.cdisc.org/C74457/V10#C74457_C41260> ;
	bo:context <http://www.cdisc.org/C74457/V49#C74457> ;
	bo:localLabel "Asian"^^xsd:string ;
.
<http://www.acme-pharma.com/FBASELINE/V1#NG_f9fe7128-4b63-482d-9a11-62250e24fe0c>
	rdf:type bf:NormalGroup ;
	isoC:label "Smoking History"^^xsd:string ;
	bf:ordinal "3"^^xsd:integer ;
	bf:note ""^^xsd:string ;
	bf:completion ""^^xsd:string ;
	bf:optional "false"^^xsd:boolean ;
	bf:hasItem <http://www.acme-pharma.com/FBASELINE/V1#Q_f03287d6-23ea-43bb-b3cf-f972761caabd> ;
	bf:repeating "false"^^xsd:boolean ;
.
<http://www.acme-pharma.com/FBASELINE/V1#Q_f03287d6-23ea-43bb-b3cf-f972761caabd>
	rdf:type bf:Question ;
	isoC:label "Smoking"^^xsd:string ;
	bf:ordinal "1"^^xsd:integer ;
	bf:note "* No entries found for code list, parameters ['notation=SMOKE'].\n* No entries found for code list, parameters ['notation=CLSMOKING'].\n* No entries found for code list, parameters ['identifier='].\n* No entries found for code list, parameters ['label=Smoking'].\n"^^xsd:string ;
	bf:completion ""^^xsd:string ;
	bf:optional "false"^^xsd:boolean ;
	bf:datatype "string"^^xsd:string ;
	bf:format "20"^^xsd:string ;
	bf:mapping "SUDOSE"^^xsd:string ;
	bf:questionText "Number of cigarettes per day"^^xsd:string ;
.
<http://www.acme-pharma.com/FBASELINE/V1#NG_4b981364-daf4-4c99-84f0-f7514bd092e7>
	rdf:type bf:NormalGroup ;
	isoC:label "Drinking History"^^xsd:string ;
	bf:ordinal "4"^^xsd:integer ;
	bf:note ""^^xsd:string ;
	bf:completion ""^^xsd:string ;
	bf:optional "false"^^xsd:boolean ;
	bf:hasItem <http://www.acme-pharma.com/FBASELINE/V1#Q_8cd62d3c-bce2-4d1b-bc7e-cc6544551abb> ;
	bf:repeating "false"^^xsd:boolean ;
.
<http://www.acme-pharma.com/FBASELINE/V1#Q_8cd62d3c-bce2-4d1b-bc7e-cc6544551abb>
	rdf:type bf:Question ;
	isoC:label "Drinking"^^xsd:string ;
	bf:ordinal "1"^^xsd:integer ;
	bf:note "* No entries found for code list, parameters ['notation=DRINK'].\n* No entries found for code list, parameters ['notation=CLDRINKING'].\n* No entries found for code list, parameters ['identifier='].\n* No entries found for code list, parameters ['label=Drinking'].\n"^^xsd:string ;
	bf:completion ""^^xsd:string ;
	bf:optional "false"^^xsd:boolean ;
	bf:datatype "string"^^xsd:string ;
	bf:format "20"^^xsd:string ;
	bf:mapping "SUDOSE"^^xsd:string ;
	bf:questionText "Number of alcoholic drinks per day"^^xsd:string ;
.
<http://www.acme-pharma.com/FBASELINE/V1#NG_830fa72c-a59e-475b-9b2c-eb4b5ace264f>
	rdf:type bf:NormalGroup ;
	isoC:label "Physical Exam"^^xsd:string ;
	bf:ordinal "5"^^xsd:integer ;
	bf:note ""^^xsd:string ;
	bf:completion ""^^xsd:string ;
	bf:optional "false"^^xsd:boolean ;
	bf:hasItem <http://www.acme-pharma.com/FBASELINE/V1#Q_242c3d94-f47c-4477-9f51-afa4c18fa949> ;
	bf:hasItem <http://www.acme-pharma.com/FBASELINE/V1#Q_159a7d7f-1ef5-40f7-808b-d5d66ac7a06e> ;
	bf:hasItem <http://www.acme-pharma.com/FBASELINE/V1#Q_53dd87c3-1c29-4240-ba98-72341896b348> ;
	bf:hasItem <http://www.acme-pharma.com/FBASELINE/V1#Q_9512d1d4-7f6c-4b3c-a330-ff3081f8de24> ;
	bf:hasItem <http://www.acme-pharma.com/FBASELINE/V1#Q_16815e87-0141-4de3-b575-f06a729bdf40> ;
	bf:hasItem <http://www.acme-pharma.com/FBASELINE/V1#Q_f79069ba-85a0-4c75-a2b1-987b90fadd9d> ;
	bf:hasItem <http://www.acme-pharma.com/FBASELINE/V1#Q_b40ce817-f549-40d0-ab47-88d4faeda520> ;
	bf:hasItem <http://www.acme-pharma.com/FBASELINE/V1#Q_46e0d9c5-c6c2-4331-9716-d82e3edfa837> ;
	bf:repeating "false"^^xsd:boolean ;
.
<http://www.acme-pharma.com/FBASELINE/V1#Q_242c3d94-f47c-4477-9f51-afa4c18fa949>
	rdf:type bf:Question ;
	isoC:label "Height"^^xsd:string ;
	bf:ordinal "1"^^xsd:integer ;
	bf:note ""^^xsd:string ;
	bf:completion ""^^xsd:string ;
	bf:optional "false"^^xsd:boolean ;
	bf:datatype "integer"^^xsd:string ;
	bf:format "3"^^xsd:string ;
	bf:mapping "VSORRES"^^xsd:string ;
	bf:questionText "Height"^^xsd:string ;
.
<http://www.acme-pharma.com/FBASELINE/V1#Q_159a7d7f-1ef5-40f7-808b-d5d66ac7a06e>
	rdf:type bf:Question ;
	isoC:label "Height units"^^xsd:string ;
	bf:ordinal "2"^^xsd:integer ;
	bf:note "* Multiple entries [C48500,C48500] found for parameters ['notation=in'], using first found.\n"^^xsd:string ;
	bf:completion ""^^xsd:string ;
	bf:optional "false"^^xsd:boolean ;
	bf:datatype "string"^^xsd:string ;
	bf:format "20"^^xsd:string ;
	bf:mapping "[NO MAPPING]"^^xsd:string ;
	bf:questionText "Height units"^^xsd:string ;
	bf:hasCodedValue <http://www.acme-pharma.com/FBASELINE/V1#Q_159a7d7f-1ef5-40f7-808b-d5d66ac7a06e_TUC1> ;
.
<http://www.acme-pharma.com/FBASELINE/V1#Q_159a7d7f-1ef5-40f7-808b-d5d66ac7a06e_TUC1>
	rdf:type bo:TucReference ;
	isoC:label ""^^xsd:string ;
	bo:enabled "true"^^xsd:boolean ;
	bo:optional "false"^^xsd:boolean ;
	bo:ordinal "1"^^xsd:positiveInteger ;
	bo:reference <http://www.cdisc.org/C71620/V42#C71620_C48500> ;
	bo:context <http://www.cdisc.org/C71620/V49#C71620> ;
	bo:localLabel "Inch"^^xsd:string ;
.
<http://www.acme-pharma.com/FBASELINE/V1#Q_53dd87c3-1c29-4240-ba98-72341896b348>
	rdf:type bf:Question ;
	isoC:label "Weight"^^xsd:string ;
	bf:ordinal "3"^^xsd:integer ;
	bf:note ""^^xsd:string ;
	bf:completion ""^^xsd:string ;
	bf:optional "false"^^xsd:boolean ;
	bf:datatype "integer"^^xsd:string ;
	bf:format "3"^^xsd:string ;
	bf:mapping "VSORRES"^^xsd:string ;
	bf:questionText "Weight"^^xsd:string ;
.
<http://www.acme-pharma.com/FBASELINE/V1#Q_9512d1d4-7f6c-4b3c-a330-ff3081f8de24>
	rdf:type bf:Question ;
	isoC:label "Weight units"^^xsd:string ;
	bf:ordinal "4"^^xsd:integer ;
	bf:note "* No entries found for parameters ['notation=lbs'].\n"^^xsd:string ;
	bf:completion ""^^xsd:string ;
	bf:optional "false"^^xsd:boolean ;
	bf:datatype "string"^^xsd:string ;
	bf:format "20"^^xsd:string ;
	bf:mapping "[NO MAPPING]"^^xsd:string ;
	bf:questionText "Weight units"^^xsd:string ;
.
<http://www.acme-pharma.com/FBASELINE/V1#Q_16815e87-0141-4de3-b575-f06a729bdf40>
	rdf:type bf:Question ;
	isoC:label "Systolic BP"^^xsd:string ;
	bf:ordinal "5"^^xsd:integer ;
	bf:note ""^^xsd:string ;
	bf:completion ""^^xsd:string ;
	bf:optional "false"^^xsd:boolean ;
	bf:datatype "integer"^^xsd:string ;
	bf:format "3"^^xsd:string ;
	bf:mapping "VSORRES"^^xsd:string ;
	bf:questionText "Systolic BP"^^xsd:string ;
.
<http://www.acme-pharma.com/FBASELINE/V1#Q_f79069ba-85a0-4c75-a2b1-987b90fadd9d>
	rdf:type bf:Question ;
	isoC:label "Systolic BP units"^^xsd:string ;
	bf:ordinal "6"^^xsd:integer ;
	bf:note "* No entries found for parameters ['notation=mm Hg'].\n"^^xsd:string ;
	bf:completion ""^^xsd:string ;
	bf:optional "false"^^xsd:boolean ;
	bf:datatype "string"^^xsd:string ;
	bf:format "20"^^xsd:string ;
	bf:mapping "[NO MAPPING]"^^xsd:string ;
	bf:questionText "Systolic BP units"^^xsd:string ;
.
<http://www.acme-pharma.com/FBASELINE/V1#Q_b40ce817-f549-40d0-ab47-88d4faeda520>
	rdf:type bf:Question ;
	isoC:label "Diastolic BP"^^xsd:string ;
	bf:ordinal "7"^^xsd:integer ;
	bf:note ""^^xsd:string ;
	bf:completion ""^^xsd:string ;
	bf:optional "false"^^xsd:boolean ;
	bf:datatype "integer"^^xsd:string ;
	bf:format "3"^^xsd:string ;
	bf:mapping "VSORRES"^^xsd:string ;
	bf:questionText "Diastolic BP"^^xsd:string ;
.
<http://www.acme-pharma.com/FBASELINE/V1#Q_46e0d9c5-c6c2-4331-9716-d82e3edfa837>
	rdf:type bf:Question ;
	isoC:label "Diastolic BP units"^^xsd:string ;
	bf:ordinal "8"^^xsd:integer ;
	bf:note "* No entries found for parameters ['notation=mm Hg'].\n"^^xsd:string ;
	bf:completion ""^^xsd:string ;
	bf:optional "false"^^xsd:boolean ;
	bf:datatype "string"^^xsd:string ;
	bf:format "20"^^xsd:string ;
	bf:mapping "[NO MAPPING]"^^xsd:string ;
	bf:questionText "Diastolic BP units"^^xsd:string ;
.