@prefix : <http://www.acme-pharma.com/F_AE/V1#> .
@prefix bf: <http://www.assero.co.uk/BusinessForm#> .
@prefix isoC: <http://www.assero.co.uk/ISO11179Concepts#> .
@prefix isoT: <http://www.assero.co.uk/ISO11179Types#> .
@prefix isoR: <http://www.assero.co.uk/ISO11179Registration#> .
@prefix isoI: <http://www.assero.co.uk/ISO11179Identification#> .
@prefix owl: <http://www.w3.org/2002/07/owl#> .
@prefix rdf: <http://www.w3.org/1999/02/22-rdf-syntax-ns#> .
@prefix rdfs: <http://www.w3.org/2000/01/rdf-schema#> .
@prefix xsd: <http://www.w3.org/2001/XMLSchema#> .
@prefix skos: <http://www.w3.org/2004/02/skos/core#> .

<http://www.acme-pharma.com/F_AE/V1>
	rdf:type owl:Ontology ;
.
:F
	rdf:type bf:Form ;
	isoC:label "Adverse Event Form (ACRO)"^^xsd:string ;
	isoT:hasState :F_RS ;
	isoT:hasIdentifier :F_SI ;
	isoT:origin ""^^xsd:string ;
	isoT:changeDescription ""^^xsd:string ;
	isoT:creationDate "2021-03-01T18:13:05+01:00"^^xsd:dateTime ;
	isoT:lastChangeDate "2021-03-01T18:13:05+01:00"^^xsd:dateTime ;
	isoT:explanatoryComment ""^^xsd:string ;
	bf:note ""^^xsd:string ;
	bf:completion ""^^xsd:string ;
	bf:hasGroup <http://www.acme-pharma.com/FAE/V1#NG_1760cbb1-a370-41f6-a3b3-493c1d9c2238> ;
	bf:hasGroup <http://www.acme-pharma.com/FAE/V1#NG_36d01a04-97fa-4ae9-8f40-9f266a6cdc06> ;
	bf:hasGroup <http://www.acme-pharma.com/FAE/V1#NG_7948e614-fdba-484a-9dfc-c98ce368d4e7> ;
.
:F_RS
	rdf:type isoR:RegistrationState ;
	isoR:registrationStatus "Standard"^^xsd:string ;
	isoR:administrativeNote ""^^xsd:string ;
	isoR:effectiveDate "2016-01-01T00:00:00+00:00"^^xsd:dateTime ;
	isoR:untilDate "2016-01-01T00:00:00+00:00"^^xsd:dateTime ;
	isoR:unresolvedIssue ""^^xsd:string ;
	isoR:administrativeStatus ""^^xsd:string ;
	isoR:previousState "Standard"^^xsd:string ;
	isoR:multipleEdit "false"^^xsd:boolean ;
	isoR:byAuthority <http://www.assero.co.uk/RA#DUNS123456789> ;
.
:F_SI
	rdf:type isoI:ScopedIdentifier ;
	isoI:identifier "F AE"^^xsd:string ;
	isoI:versionLabel "0.1.0"^^xsd:string ;
	isoI:version "1"^^xsd:positiveInteger ;
	isoI:semanticVersion "0.1.0"^^xsd:string ;
	isoI:hasScope <http://www.assero.co.uk/NS#ACME> ;
.
<http://www.acme-pharma.com/FAE/V1#NG_1760cbb1-a370-41f6-a3b3-493c1d9c2238>
	rdf:type bf:NormalGroup ;
	isoC:label "Common"^^xsd:string ;
	bf:ordinal "1"^^xsd:integer ;
	bf:note ""^^xsd:string ;
	bf:completion ""^^xsd:string ;
	bf:optional "false"^^xsd:boolean ;
	bf:hasItem <http://www.acme-pharma.com/FAE/V1#Q_4646b47a-4ae4-4f21-b5e2-565815c8cded> ;
	bf:hasItem <http://www.acme-pharma.com/FAE/V1#Q_92bf8b74-ec78-4348-9a1b-154a6ccb9b9f> ;
	bf:hasItem <http://www.acme-pharma.com/FAE/V1#Q_b76597f7-972f-40f4-bed7-e134725cf296> ;
	bf:repeating "false"^^xsd:boolean ;
.
<http://www.acme-pharma.com/FAE/V1#Q_4646b47a-4ae4-4f21-b5e2-565815c8cded>
	rdf:type bf:Question ;
	isoC:label "Site Number"^^xsd:string ;
	bf:ordinal "1"^^xsd:integer ;
	bf:note ""^^xsd:string ;
	bf:completion ""^^xsd:string ;
	bf:optional "false"^^xsd:boolean ;
	bf:datatype "string"^^xsd:string ;
	bf:format "3"^^xsd:string ;
	bf:mapping "SITEID"^^xsd:string ;
	bf:questionText "Site #"^^xsd:string ;
.
<http://www.acme-pharma.com/FAE/V1#Q_92bf8b74-ec78-4348-9a1b-154a6ccb9b9f>
	rdf:type bf:Question ;
	isoC:label "Subject ID"^^xsd:string ;
	bf:ordinal "2"^^xsd:integer ;
	bf:note ""^^xsd:string ;
	bf:completion ""^^xsd:string ;
	bf:optional "false"^^xsd:boolean ;
	bf:datatype "string"^^xsd:string ;
	bf:format "11"^^xsd:string ;
	bf:mapping "USUBJID"^^xsd:string ;
	bf:questionText "Subject ID #"^^xsd:string ;
.
<http://www.acme-pharma.com/FAE/V1#Q_b76597f7-972f-40f4-bed7-e134725cf296>
	rdf:type bf:Question ;
	isoC:label "Visit Date"^^xsd:string ;
	bf:ordinal "3"^^xsd:integer ;
	bf:note ""^^xsd:string ;
	bf:completion ""^^xsd:string ;
	bf:optional "false"^^xsd:boolean ;
	bf:datatype "date"^^xsd:string ;
	bf:format ""^^xsd:string ;
	bf:mapping "RFSTDTC"^^xsd:string ;
	bf:questionText "Visit Date"^^xsd:string ;
.
<http://www.acme-pharma.com/FAE/V1#NG_36d01a04-97fa-4ae9-8f40-9f266a6cdc06>
	rdf:type bf:NormalGroup ;
	isoC:label "Adverse Events Occurred"^^xsd:string ;
	bf:ordinal "2"^^xsd:integer ;
	bf:note ""^^xsd:string ;
	bf:completion ""^^xsd:string ;
	bf:optional "false"^^xsd:boolean ;
	bf:hasItem <http://www.acme-pharma.com/FAE/V1#Q_0cda6f24-e54d-4724-af79-916d41d9bd7f> ;
	bf:repeating "false"^^xsd:boolean ;
.
<http://www.acme-pharma.com/FAE/V1#Q_0cda6f24-e54d-4724-af79-916d41d9bd7f>
	rdf:type bf:Question ;
	isoC:label "Adverse Event Experienced"^^xsd:string ;
	bf:ordinal "1"^^xsd:integer ;
	bf:note "\n\nTerminology Search:\n* No entries found for code list, parameters ['notation=NOYES'].\n* No entries found for code list, parameters ['notation=CLNOYES'].\n* No entries found for code list, parameters ['identifier='].\n* No entries found for code list, parameters ['label=No Yes']."^^xsd:string ;
	bf:completion ""^^xsd:string ;
	bf:optional "false"^^xsd:boolean ;
	bf:datatype "string"^^xsd:string ;
	bf:format "1"^^xsd:string ;
	bf:mapping "[NO MAPPING]"^^xsd:string ;
	bf:questionText "Has the subject experienced any adverse events"^^xsd:string ;
.
<http://www.acme-pharma.com/FAE/V1#NG_7948e614-fdba-484a-9dfc-c98ce368d4e7>
	rdf:type bf:NormalGroup ;
	isoC:label "Adverse Event"^^xsd:string ;
	bf:ordinal "3"^^xsd:integer ;
	bf:note ""^^xsd:string ;
	bf:completion ""^^xsd:string ;
	bf:optional "false"^^xsd:boolean ;
	bf:hasItem <http://www.acme-pharma.com/FAE/V1#Q_c9f7f7de-d227-4e15-b171-06c4306b77f4> ;
	bf:hasItem <http://www.acme-pharma.com/FAE/V1#Q_f9fe7128-4b63-482d-9a11-62250e24fe0c> ;
	bf:hasItem <http://www.acme-pharma.com/FAE/V1#Q_f03287d6-23ea-43bb-b3cf-f972761caabd> ;
	bf:hasItem <http://www.acme-pharma.com/FAE/V1#Q_4b981364-daf4-4c99-84f0-f7514bd092e7> ;
	bf:hasItem <http://www.acme-pharma.com/FAE/V1#Q_8cd62d3c-bce2-4d1b-bc7e-cc6544551abb> ;
	bf:hasItem <http://www.acme-pharma.com/FAE/V1#Q_830fa72c-a59e-475b-9b2c-eb4b5ace264f> ;
	bf:hasItem <http://www.acme-pharma.com/FAE/V1#Q_242c3d94-f47c-4477-9f51-afa4c18fa949> ;
	bf:hasItem <http://www.acme-pharma.com/FAE/V1#Q_159a7d7f-1ef5-40f7-808b-d5d66ac7a06e> ;
	bf:hasItem <http://www.acme-pharma.com/FAE/V1#Q_53dd87c3-1c29-4240-ba98-72341896b348> ;
	bf:hasItem <http://www.acme-pharma.com/FAE/V1#Q_9512d1d4-7f6c-4b3c-a330-ff3081f8de24> ;
	bf:repeating "false"^^xsd:boolean ;
.
<http://www.acme-pharma.com/FAE/V1#Q_c9f7f7de-d227-4e15-b171-06c4306b77f4>
	rdf:type bf:Question ;
	isoC:label "Adverse Event Number"^^xsd:string ;
	bf:ordinal "1"^^xsd:integer ;
	bf:note ""^^xsd:string ;
	bf:completion ""^^xsd:string ;
	bf:optional "false"^^xsd:boolean ;
	bf:datatype "integer"^^xsd:string ;
	bf:format "3"^^xsd:string ;
	bf:mapping "AESPID"^^xsd:string ;
	bf:questionText "Event No."^^xsd:string ;
.
<http://www.acme-pharma.com/FAE/V1#Q_f9fe7128-4b63-482d-9a11-62250e24fe0c>
	rdf:type bf:Question ;
	isoC:label "Adverse Event Term"^^xsd:string ;
	bf:ordinal "2"^^xsd:integer ;
	bf:note ""^^xsd:string ;
	bf:completion ""^^xsd:string ;
	bf:optional "false"^^xsd:boolean ;
	bf:datatype "string"^^xsd:string ;
	bf:format "255"^^xsd:string ;
	bf:mapping "AETERM"^^xsd:string ;
	bf:questionText "Adverse event"^^xsd:string ;
.
<http://www.acme-pharma.com/FAE/V1#Q_f03287d6-23ea-43bb-b3cf-f972761caabd>
	rdf:type bf:Question ;
	isoC:label "Adverse Event Start Date"^^xsd:string ;
	bf:ordinal "3"^^xsd:integer ;
	bf:note ""^^xsd:string ;
	bf:completion ""^^xsd:string ;
	bf:optional "false"^^xsd:boolean ;
	bf:datatype "date"^^xsd:string ;
	bf:format ""^^xsd:string ;
	bf:mapping "AESTDTC"^^xsd:string ;
	bf:questionText "Start Date"^^xsd:string ;
.
<http://www.acme-pharma.com/FAE/V1#Q_4b981364-daf4-4c99-84f0-f7514bd092e7>
	rdf:type bf:Question ;
	isoC:label "Adverse Event Stop Date"^^xsd:string ;
	bf:ordinal "4"^^xsd:integer ;
	bf:note ""^^xsd:string ;
	bf:completion ""^^xsd:string ;
	bf:optional "false"^^xsd:boolean ;
	bf:datatype "date"^^xsd:string ;
	bf:format ""^^xsd:string ;
	bf:mapping "AEENDTC"^^xsd:string ;
	bf:questionText "Stop Date"^^xsd:string ;
.
<http://www.acme-pharma.com/FAE/V1#Q_8cd62d3c-bce2-4d1b-bc7e-cc6544551abb>
	rdf:type bf:Question ;
	isoC:label "Adverse Event Continues"^^xsd:string ;
	bf:ordinal "5"^^xsd:integer ;
	bf:note "\n\nTerminology Search:\n* No entries found for code list, parameters ['notation=NOYES'].\n* No entries found for code list, parameters ['notation=CLNOYES'].\n* No entries found for code list, parameters ['identifier='].\n* No entries found for code list, parameters ['label=No Yes']."^^xsd:string ;
	bf:completion ""^^xsd:string ;
	bf:optional "false"^^xsd:boolean ;
	bf:datatype "string"^^xsd:string ;
	bf:format "1"^^xsd:string ;
	bf:mapping "AEENRF"^^xsd:string ;
	bf:questionText "Mark if event is still continuing"^^xsd:string ;
.
<http://www.acme-pharma.com/FAE/V1#Q_830fa72c-a59e-475b-9b2c-eb4b5ace264f>
	rdf:type bf:Question ;
	isoC:label "Adverse Event Serious"^^xsd:string ;
	bf:ordinal "6"^^xsd:integer ;
	bf:note "\n\nTerminology Search:\n* No entries found for code list, parameters ['notation=NOYES'].\n* No entries found for code list, parameters ['notation=CLNOYES'].\n* No entries found for code list, parameters ['identifier='].\n* No entries found for code list, parameters ['label=No Yes']."^^xsd:string ;
	bf:completion ""^^xsd:string ;
	bf:optional "false"^^xsd:boolean ;
	bf:datatype "string"^^xsd:string ;
	bf:format "1"^^xsd:string ;
	bf:mapping "AESER"^^xsd:string ;
	bf:questionText "Was event serious"^^xsd:string ;
.
<http://www.acme-pharma.com/FAE/V1#Q_242c3d94-f47c-4477-9f51-afa4c18fa949>
	rdf:type bf:Question ;
	isoC:label "Adverse Event Severity"^^xsd:string ;
	bf:ordinal "7"^^xsd:integer ;
	bf:note ""^^xsd:string ;
	bf:completion ""^^xsd:string ;
	bf:optional "false"^^xsd:boolean ;
	bf:datatype "string"^^xsd:string ;
	bf:format "1"^^xsd:string ;
	bf:mapping "AESEV"^^xsd:string ;
	bf:questionText "Severity"^^xsd:string ;
.
<http://www.acme-pharma.com/FAE/V1#Q_159a7d7f-1ef5-40f7-808b-d5d66ac7a06e>
	rdf:type bf:Question ;
	isoC:label "Adverse Event Related"^^xsd:string ;
	bf:ordinal "8"^^xsd:integer ;
	bf:note "\n\nTerminology Search:\n* No entries found for code list, parameters ['notation=NOYES'].\n* No entries found for code list, parameters ['notation=CLNOYES'].\n* No entries found for code list, parameters ['identifier='].\n* No entries found for code list, parameters ['label=No Yes']."^^xsd:string ;
	bf:completion ""^^xsd:string ;
	bf:optional "false"^^xsd:boolean ;
	bf:datatype "string"^^xsd:string ;
	bf:format "1"^^xsd:string ;
	bf:mapping "AEREL"^^xsd:string ;
	bf:questionText "Is there a reasonable possibility that the AE may have been caused by the study drug"^^xsd:string ;
.
<http://www.acme-pharma.com/FAE/V1#Q_53dd87c3-1c29-4240-ba98-72341896b348>
	rdf:type bf:Question ;
	isoC:label "Adverse Event Action Taken"^^xsd:string ;
	bf:ordinal "9"^^xsd:integer ;
	bf:note "\n\nTerminology Search:\n* No entries found for code list, parameters ['notation=AEACTION'].\n* No entries found for code list, parameters ['notation=CLAEACTION'].\n* No entries found for code list, parameters ['identifier='].\n* No entries found for code list, parameters ['label=Adverse Event Action Taken']."^^xsd:string ;
	bf:completion ""^^xsd:string ;
	bf:optional "false"^^xsd:boolean ;
	bf:datatype "string"^^xsd:string ;
	bf:format "1"^^xsd:string ;
	bf:mapping "AEACN"^^xsd:string ;
	bf:questionText "Action taken with study drug"^^xsd:string ;
.
<http://www.acme-pharma.com/FAE/V1#Q_9512d1d4-7f6c-4b3c-a330-ff3081f8de24>
	rdf:type bf:Question ;
	isoC:label "Adverse Event Subject Outcome"^^xsd:string ;
	bf:ordinal "10"^^xsd:integer ;
	bf:note "\n\nTerminology Search:\n* No entries found for code list, parameters ['notation=AEOUT'].\n* No entries found for code list, parameters ['notation=CLAEOUTCOME'].\n* No entries found for code list, parameters ['identifier='].\n* No entries found for code list, parameters ['label=Adverse Event Action Taken']."^^xsd:string ;
	bf:completion ""^^xsd:string ;
	bf:optional "false"^^xsd:boolean ;
	bf:datatype "string"^^xsd:string ;
	bf:format "1"^^xsd:string ;
	bf:mapping "AEOUT"^^xsd:string ;
	bf:questionText "Subject outcome"^^xsd:string ;
.