---
6MWT TEST: C115387
6MWT TESTCD: C115388
ABSCAT: SN000116
ABTEST: SN000003
ABTESTCD: SN000004
ACN: C66767
ACNC: SN000730
ACNN: SN000005
ACN_01: SN003000
ACN_03: SN003001
ACQ6091R: SN000187
ACQ6092R: SN000721
ACQ6093R: SN001890
ACQ6094R: SN000190
ACQ6096R: SN000192
ACQ609TC: SN000186
ACQ609TN: SN000707
ACSPCAT: C101865
ADAS-Cog CDISC Version TEST: C100131
ADAS-Cog CDISC Version TESTCD: C100132
ADCS-ADL MCI TEST: C106650
ADCS-ADL MCI TESTCD: C106651
ADCS-ADL Severe Dementia TEST: C106652
ADCS-ADL Severe Dementia TESTCD: C106653
ADCS-ADL TEST: C105139
ADCS-ADL TESTCD: C105140
ADCS-CGIC TEST: C103458
ADCS-CGIC TESTCD: C103459
ADJRSN: SN000006
AECAT: SN000753
AERELA: SN000012
AERELAN: SN000013
AERELA_01: SN003068
AESCAT: SN000107
AESCAT_01: SN003080
AESEV: C66769
AESEVMD: SN000612
AESEVMD_01: SN003077
AESEVMD_02: SN003078
AESEVN: SN000015
AETERM: SN000016
AETERM_01: SN003060
AETERM_02: SN003061
AGCAT: SN001912
AGEGRPE: SN000018
AGEGRPEN: SN000019
AGEGRPP: SN000020
AGEGRPPN: SN000021
AGERANG: SN001909
AGEU: C66781
AIMS TEST: C101806
AIMS TESTCD: C101805
AJCCGRD: SC135012
ALTTYP: SN000691
ANLPURP: C117745
ANLREAS: C117744
APACHE II TEST: C120984
APACHE II TESTCD: C120985
AQ20 TEST: C112434
AQ20 TESTCD: C112435
ARC STC Grade TEST: C119079
ARC STC Grade TESTCD: C119080
ARC STC Timing TEST: C119077
ARC STC Timing TESTCD: C119078
AUDIT-C TEST: C119061
AUDIT-C TESTCD: C119062
AUDIT-SR TEST: C119059
AUDIT-SR TESTCD: C119060
AVLT TEST: C101808
AVLT TESTCD: C101807
AVOUTTRT: C120521
BACS TEST: C120982
BACS TESTCD: C120983
BARS TEST: C101810
BARS TESTCD: C101809
BASETYPE: SN000024
BCLCSTG: SN000025
BDI TEST: C106654
BDI TESTCD: C106655
BLCS TEST: C113851
BLCS TESTCD: C113852
BODE INDEX TEST: C120986
BODE INDEX TESTCD: C120987
BPI Short Form TEST: C100163
BPI Short Form TESTCD: C100164
BPI TEST: C100161
BPI TESTCD: C100162
BPRS-A TEST: C100133
BPRS-A TESTCD: C100134
BRDGMOOD: SC125923
BWCS TEST: C113853
BWCS TESTCD: C113854
Borg CR-10 Scale TEST: C113845
Borg CR-10 Scale TESTCD: C113846
C-SSRS Already Enrolled Subjects TEST: C106658
C-SSRS Already Enrolled Subjects TESTCD: C106659
C-SSRS Baseline TEST: C100167
C-SSRS Baseline TESTCD: C100168
C-SSRS Baseline/Screening Version Phase 1 Study TEST: C105131
C-SSRS Baseline/Screening Version Phase 1 Study TESTCD: C105132
C-SSRS Baseline/Screening Version TEST: C106660
C-SSRS Baseline/Screening Version TESTCD: C106661
C-SSRS Children's Baseline TEST: C111335
C-SSRS Children's Baseline TESTCD: C111336
C-SSRS Children's Baseline/Screening TEST: C111337
C-SSRS Children's Baseline/Screening TESTCD: C111338
C-SSRS Children's Since Last Visit TEST: C111339
C-SSRS Children's Since Last Visit TESTCD: C111340
C-SSRS Lifetime/Recent Version TEST: C117988
C-SSRS Lifetime/Recent Version TESTCD: C117989
C-SSRS PEDIATRIC/COGNITIVELY IMPAIRED LIFETIME/RECENT TEST: C113847
C-SSRS PEDIATRIC/COGNITIVELY IMPAIRED LIFETIME/RECENT TESTCD: C113848
C-SSRS Screening TEST: C111341
C-SSRS Screening TESTCD: C111342
C-SSRS Since Last Visit TEST: C103460
C-SSRS Since Last Visit TESTCD: C103461
CACRDSC: C101842
CADGRS: C119018
CADPRSN: C101843
CADRISK: C101849
CADSYMP: C101844
CARTDOM: C101860
CCCAT: C118971
CCINVTYP: C102575
CCQ 1 Week Version TEST: C119065
CCQ 1 Week Version TESTCD: C119066
CCQ 24 Hour Version TEST: C119063
CCQ 24 Hour Version TESTCD: C119064
CCRCLS: C101837
CCRCLSCD: C101838
CCTEST: SN000056
CCTESTCD: SN000057
CDMSTAGE: SN000058
CDNSTAGE: SN000059
CDR TEST: C101812
CDR TESTCD: C101811
CDSTYP: SN000631
CDTSTAGE: SN000061
CDTYP: SN000062
CECAT: SN000066
CECEDIAG: SN001915
CECVOUT: SN002088
CEDURATI: SN000067
CEDURATI_01: SN003031
CEDURATI_02: SN003032
CEDURATI_03: SN003033
CEIEDIAG: SN000637
CESCAT: SN000697
CGCAT: SN000128
CGI TEST: C100149
CGI TESTCD: C100150
CHAQ01TC: SN000079
CHAQ01TN: SN000080
CHAQABIL: SN001918
CHAQABIL_01: SN003015
CHART-SF Interview Version TEST: C117986
CHART-SF Interview Version TESTCD: C117987
CHART-SF Paper Version TEST: C119067
CHART-SF Paper Version TESTCD: C119068
CHILD-PUGH CLASSIFICATION TEST: C120988
CHILD-PUGH CLASSIFICATION TESTCD: C120989
CHPUGH1: SN000081
CHPUGH2: SN000082
CHPUGH3: SN000083
CHPUGH4: SN000084
CHPUGH5: SN000085
CHPUGH6: SN000086
CICAT: SN002055
CLINSIG: SN000700
CLMETH: SC132314
CMCAT: SN000760
CMCAT_02: SN003014
CMSCAT: SN002031
CMSCAT_01: SN003081
CMSCAT_02: SN003082
COCOMCAT: SN000101
COMM TEST: C100157
COMM TESTCD: C100158
COUNTRY: C66786
COWS TEST: C101814
COWS TESTCD: C101813
CRQ-SAS FIRST ADMINISTRATION VERSION TEST: C120978
CRQ-SAS FIRST ADMINISTRATION VERSION TESTCD: C120979
CRQ-SAS FOLLOW-UP ADMINISTRATION VERSION TEST: C120980
CRQ-SAS FOLLOW-UP ADMINISTRATION VERSION TESTCD: C120981
CRYDFMAN: C101866
CSLVLNIM: C101864
CTTIMIRS: C119017
CTVERS: SN000307
CVFARS: C119016
CVFATS: C119014
CVFATSCD: C119015
CVLSTSEV: C101854
CVLVRSEV: C101853
CVPRCIND: C101859
CVSLDEXT: C101850
CVTEST: C101846
CVTESTCD: C101847
DAD TEST: C105129
DAD TESTCD: C105130
DATEFL: C81223
DATEST: C78731
DATESTCD: C78732
DDPRCS: SN000716
DDTEST: C116107
DDTESTCD: C116108
DEACNDEV: C111110
DECAT: C111109
DEDECOD: SN001067
DGCONFRM: SN000714
DIABTHPY: C101857
DICTNAM: C66788
DIPARM: C106480
DIPARMCD: C106481
DIR: C99074
DIR_01: SN003030
DISCHDX: C101863
DISSTG: SN000713
DLQI TEST: C119069
DLQI TESTCD: C119070
DLQI11R: SN000915
DLQI12R: SN000916
DLQI13R: SN000917
DLQI14R: SN000918
DLQI1TC: SC119070
DLQI1TN: SC119069
DOBSTLOC: C102576
DOMAIN: C66734
DOTEST: C111112
DOTESTCD: C111111
DRS TEST: C115401
DRS TESTCD: C115402
DRSTAT: C102577
DSCAT: C74558
DSCBBRKR: SN000712
DSCBMETH: SN000711
DSCBWHOR: SN000710
DSCBWHOR_01: SN003016
DSICWHO: SN000708
DSMETHOD: SN000185
DSMETHOD_01: SN003029
DSSCAT: SN000640
DSSOUT: C102578
DSTAT: SN000705
DTDECOD: C112037
DTYPE: C81224
DURU: SN000701
DUTEST: C106482
DUTESTCD: C106483
DVCAT: SN000195
DVCLAS: SN000699
DVSCAT: SN000200
DVSOURCE: SN000201
Disease Steps TEST: C112436
Disease Steps TESTCD: C112437
ECCAT: SN002089
ECOG1R: SN000193
ECOG1R_01: SN003034
ECOG1TC: SC101815
ECOG1TN: SC101816
EDSS TEST: C112438
EDSS TESTCD: C112439
EDUCATE: SN000205
EGCAT: SN000690
EGCATEG: SN000208
EGCOMP: SN000209
EGLEAD: C90013
EGLPARM: SN001023
EGMETHOD: C71151
EGPARM: SN001021
EGPARMCD: SN001022
EGRDMETH: SN001024
EGREAMET: SN000210
EGSCAT: SN000211
EGSOURCE: SN000212
EGSTRESC: C71150
EGTEST: C71152
EGTESTCD: C71153
EMERP: SN000213
EMPSTAT: C111108
EPOCH: C99079
EQ-5D-3L TEST: C100135
EQ-5D-3L TESTCD: C100136
EQ-5D-5L TEST: C101818
EQ-5D-5L TESTCD: C101817
EQ5D011R: SN000919
EQ5D012R: SN000920
EQ5D013R: SN000921
EQ5D014R: SN000922
EQ5D015R: SN000923
EQ5D01TC: SC100136
EQ5D01TN: SC100135
ESRSA TEST: C117990
ESRSA TESTCD: C117991
ESS TEST: C103462
ESS TESTCD: C103463
ETHNIC: C66790
EVAL: C78735
EVDRETRT: C102579
EVNTMNG: SN001062
EXCAT: SN000206
EXTENT: SN000229
FACAT: SN000231
FAMS TEST: C112440
FAMS TESTCD: C112441
FAQ TEST: C111343
FAQ TESTCD: C111344
FAQ-NACC Version TEST: C111345
FAQ-NACC Version TESTCD: C111346
FASCAT: SN000234
FATEST: C101833
FATESTCD: C101832
FDGPETSC: SN000237
FIQR TEST: C103464
FIQR TESTCD: C103465
FPSR TEST: C100153
FPSR TESTCD: C100154
FREQ: C71113
FREQ_01: SN003035
FRM: C66726
FSS TEST: C113849
FSS TESTCD: C113850
FTADWRS: SN000238
FTCAT: C115304
FTREASND: SN000240
GAD01TC: SC103467
GAD01TN: SC103466
GCGI TEST: C105137
GCGI TESTCD: C105138
GDS SHORT FORM TEST: C106664
GDS SHORT FORM TESTCD: C106665
GDS TEST: C106662
GDS TESTCD: C106663
GENRTYP: SC132317
GENSMP: C111114
GENTYP: SN000315
GLASGWTS: SN000646
GNRLOBSC: C103329
GOSE TEST: C115403
GOSE TESTCD: C115404
GRADSTG: SN000279
GRAFTTYP: C117737
GROUP: SN000280
GROUP_01: SN003036
GRSTNLOC: C101851
HADS TEST: C103468
HADS TESTCD: C103469
HAI TEST: C115389
HAI TESTCD: C115390
HAMA TEST: C101820
HAMA TESTCD: C101819
HAMD 17 TEST: C100137
HAMD 17 TESTCD: C100138
HAMD 21 TEST: C101822
HAMD 21 TESTCD: C101821
HAQ-DI TEST: C106666
HAQ-DI TESTCD: C106667
HEALTYPE: SN000288
HEFATS: C117738
HEFATSCD: C117739
HEPENCGR: C117746
HESTRESC: C120522
HETEST: C120524
HETESTCD: C120523
HHD9TC: SN001027
HHD9TN: SN001026
HISTOL: SN000293
HLTYPE: SN000311
HLTYPE_01: SN003088
HOSP: SN000636
HOSP_01: SN003075
HOSP_02: SN003076
HYPOPER: SN000304
IDMCSEV: SN000644
IECAT: C66797
IECRITNO: SN000325
IE_TI: SN000310
IIEF TEST: C103470
IIEF TESTCD: C103471
INFCST: SN000330
INIPROL: SN000332
INTMODEL: C99076
INTTYPE: C99078
INVASSND: SN000737
ISCAT: SN000782
ISTEST: C120526
ISTESTCD: C120525
IVIS TEST: C113855
IVIS TESTCD: C113856
JNTASMTS: SN002004
KCCQ9TC: SN000744
KCCQ9TN: SN000745
KFSS TEST: C112442
KFSS TESTCD: C112443
KILLIPC: C101840
KPSSR: SN000897
KPSSR_01: SN003037
KPSSTC: SC100170
KPSSTN: SC100169
LAT: C99073
LAT_01: SN003042
LAT_03: SN003043
LBCATEG: SN000009
LBLPARM: SN001923
LBMETHOD: SN000339
LBPARM: SN001919
LBPARMCD: SN001920
LBPARMN: SN000938
LBPARMUN: SN000939
LBPARMUS: SN001921
LBPARUCD: SN001922
LBSCATEG: SN000341
LBSTRESC: C102580
LBSTRESC_01: SN003040
LBSTRESC_02: SN003041
LBTEST: C67154
LBTESTCD: C65047
LBTEST_01: SN003038
LBTEST_03: SN003039
LBTYPE: SN000342
LEADABN: C101862
LEADSTAT: C101867
LESTYPE: SN000345
LOC: C74456
LOC_01: SN003003
LOC_02: SN003004
LOC_03: SN003005
LOC_04: SN003006
LOC_05: SN003007
LOC_06: SN003008
LOC_08: SN003009
LOC_09: SN003010
LOC_10: SN003011
LOC_11: SN003012
LPPSS1R: SN001000
LPPSS1TC: SC138215
LPPSS1TN: SC138214
LSNCMPX: C101861
LVEFMRE: C101868
MARISTAT: C76348
MARISTAT_01: SN003044
MARKHO: SN000105
MBTEST: C120528
MBTESTCD: C120527
MCIDCERT: C102581
MCRCSPTM: C101845
MDS-UPDRS TEST: C100139
MDS-UPDRS TESTCD: C100140
MEDEVAL: C96777
MELD TEST: C120990
MELD TESTCD: C120991
MENARCHE: SN001916
METHOD: C85492
METHOD_01: SN003045
METHOD_02: SN003046
METHOD_03: SN003047
METHOD_06: SN003048
MFIS TEST: C113857
MFIS TESTCD: C113858
MHCAT: SN000804
MHEDTTYP: SC124301
MHIS-NACC TEST: C112444
MHIS-NACC TESTCD: C112445
MHSCAT: SN000797
MHTERM: SN000367
MHTERM_01: SN003062
MICAT: SN001905
MICROORG: C85491
MICROORG_01: SN003049
MISCAT: SN000794
MITEST: C89973
MITESTCD: C89974
MKCAT: SN000372
MLAMT: SN000375
MLCAT: SN001911
MLTYPE: SN000376
MMHCTYP: SN000377
MMRC TEST: C106668
MMRC TESTCD: C106669
MNSI TEST: C100151
MNSI TESTCD: C100152
MOCAT: SN000379
MOOD: SN000383
MOSCAT: SN000951
MOTEST: C114116
MOTESTCD: C114117
MPAI-4 TEST: C115405
MPAI-4 TESTCD: C115406
MRS TEST: C111347
MRS TESTCD: C111348
MRS01R: SN000641
MRS01TC: SC111348
MRS01TN: SC111347
MSFATS: C117740
MSFATSCD: C117741
MSQOL-54 TEST: C113859
MSQOL-54 TESTCD: C113860
MSRESCAT: C85495
MTC: SN000387
MUSCTS: SC127270
MUSCTSCD: SC127269
NANORABN: SN000388
NCF: C78738
NCIDICTV: SN001061
NCOMPLT: C66727
NCOMPLTN: SN001020
NCOMPLT_01: SN003021
NCOMPLT_02: SN003022
NCOMPLT_03: SN003023
NCOMPLT_04: SN003024
NCOMPLT_05: SN003025
NCOMPLT_06: SN003026
NCOMPLT_SCR01: SN003018
NCOMPLT_SCR02: SN003019
NCOMPLT_SCR03: SN003020
NCOMPLT_TS04: SN003027
NCOMPLT_TS05: SN003028
ND: C66789
NDNORABN: SN000391
NEOPLASM: C88025
NHLBI CAD Grade TEST: C119075
NHLBI CAD Grade TESTCD: C119076
NHPT TEST: C115391
NHPT TESTCD: C115392
NORMABNM: C101834
NORMABNM_01: SN003054
NORMED: SN000393
NORMEDN: SN000394
NPI TEST: C100143
NPI TESTCD: C100144
NPS TEST: C103472
NPS TESTCD: C103473
NRIND: C78736
NSA-16 TEST: C120992
NSA-16 TESTCD: C120993
NSYSPCID: C101855
NVTEST: C116103
NVTESTCD: C116104
NY: C66742
NYHAC: C101839
NY_01: SN003051
NY_02: SN003052
NY_YN: SN003050
NY_YNU: SN003053
OAB-Q Short Form TEST: C103476
OAB-Q Short Form TESTCD: C103477
OAB-Q TEST: C103474
OAB-Q TESTCD: C103475
ODI v2.1A TEST: C103478
ODI v2.1A TESTCD: C103479
OECAT: SN000692
OEFOCUS: C119013
OESCAT: SN000720
OETEST: C117742
OETESTCD: C117743
ONCRSCAT: SC124298
ORIGIN: SN000406
OUT: C66768
OUTN: SN000407
OUTPRG: SN000408
PARAMTYP: C81225
PASAT TEST: C115393
PASAT TESTCD: C115394
PBSTMT: C114119
PCCAT: SN000106
PCCATEG: SN000410
PCSACAT: SN001924
PCSAHLO: SN000412
PCSAV: SN000413
PCTEST: SN000414
PCTESTCD: SN000415
PDDS TEST: C112446
PDDS TESTCD: C112447
PECAT: SN000642
PESCAT: SN001932
PETEST: SN000600
PETESTCD: SN000601
PFCAT: SN000434
PFTEST: C116105
PFTESTCD: C116106
PHQ-15 TEST: C103482
PHQ-15 TESTCD: C103483
PHQ01TC: SC103481
PHQ01TN: SC103480
PHSPRP: C95120
PHSPRPCD: C95121
PI TEST: C105133
PI TESTCD: C105134
PI01TC: SC105134
PI01TN: SC105133
PKPARM: C85493
PKPARMCD: C85839
PKUNIT: C85494
POEM9R: SN000924
POEM9TC: SN000926
POEM9TN: SN000925
PORTOT: C99075
POSITION: C71148
POSITION_01: SN003056
POSITION_02: SN003057
PPTYP: SN000452
PR TEST: C105135
PR TESTCD: C105136
PRCAT: SN000465
PRESABS: SN000467
PRITBCON: C102582
PROCEDUR: C101858
PROCEDUR_01: SN003058
PROCEDUR_02: SN003059
PROGSTG: SN000469
PROGSTG_01: SN003055
PROTMLST: C114118
PROTVER: SN000470
PRRSEND: SN000473
PRRSN: SN000474
PRSCAT: SN000121
PRSCAT_01: SN003083
PRTYPE: SN000477
PRURGNCY: C101856
PVDELMOD: SN000479
PVOBS: SN000481
PVOUT: SN000480
QSCAT: C100129
QSSCAT: SN000506
RACE: C74457
RACEC: SC128689
RACEN: SN000517
RAND-36 V1.0 TEST: C113861
RAND-36 V1.0 TESTCD: C113862
RANGTYPE: SN000306
RASHLOC: SN000645
RCTEST: SN000521
RCTESTCD: SN000522
RDM: SN000523
RDQ TEST: C100165
RDQ TESTCD: C100166
REASTINT: C102583
REASTRT: C102584
REASTRTF: C102585
RECAT: SN000524
REGMEN: SN000525
RELSUB: C100130
RELTYPE: C78737
RETEST: C111107
RETESTCD: C111106
RISKSOC: C102587
RNRIND: SN000528
ROUTE: C66729
ROUTE_01: SN003069
ROUTE_02: SN003070
ROUTE_03: SN003071
ROUTE_05: SN003072
RPCAT: SN000148
RPQ TEST: C119071
RPQ TESTCD: C119072
RPTEST: C106478
RPTESTCD: C106479
RSKASMT: C101848
RSREASDS: SN000722
RSSTRESC: C96785
RSSTRESC_01: SN003086
RSSTRESC_02: SN003087
RSTEST: C96781
RSTESTCD: C96782
RSTRTNA: C102586
SAMEVERS: SN000898
SAMTYPE: SN000536
SCTEST: C103330
SCTESTCD: C74559
SDMT TEST: C115395
SDMT TESTCD: C115396
SDS TEST: C111349
SDS TESTCD: C111350
SDTHSDTP: C101852
SETCON: C102588
SEX: C66731
SEXPOP: C66732
SGRQ Past 3 Months Version TEST: C112448
SGRQ Past 3 Months Version TESTCD: C112449
SGRQ Past 4 Weeks Version TEST: C112450
SGRQ Past 4 Weeks Version TESTCD: C112451
SGRQ-C TEST: C106670
SGRQ-C TESTCD: C106671
SHIFT: SN000548
SHIFT2: SN000549
SHIFT2N: SN000550
SHIFTN: SN000551
SIQR TEST: C103484
SIQR TESTCD: C103485
SIXMW9TC: SN001028
SIXMW9TN: SN001029
SIZE: C66733
SKINCLAS: C76351
SKINTYP: C74561
SMPGTIME: SN000554
SMPGTIME_01: SN003073
SMPGTIME_02: SN003074
SMQSCOPE: SN000555
SMQSCPN: SN000556
SOAPP-R TEST: C100159
SOAPP-R TESTCD: C100160
SOWS Subjective TEST: C101829
SOWS Subjective TESTCD: C101828
SPCIES: C116111
SPECCOND: C78733
SPECTYPE: C78734
SPECTYPE_02: SN003079
SRTEST: C112023
SRTESTCD: C112024
SSTATRS: SC124304
SSTATRS_01: SN003084
SSTEST: SC124306
SSTESTCD: SC124305
STCARCRS: C119020
STCTIMRS: C119019
STENRF: C66728
STENRF_01: SN003067
STUDP: SN000564
STYPE: C99077
SUAM: SN000566
SUAM_01: SN003002
SUBWREA: SN000688
SUCAT: SN000568
SUNCF: C83004
SUUSETYP: SN000625
SWLS TEST: C115407
SWLS TESTCD: C115408
Short-Form MPQ-2 TEST: C100155
Short-Form MPQ-2 TESTCD: C100156
T25FW TEST: C115397
T25FW TESTCD: C115398
TANN01TC: SC124664
TANN01TN: SC124663
TANN02TC: SC124662
TANN02TN: SC124661
TBLIND: C66735
TCNTRL: C66785
TDI TEST: C106656
TDI TESTCD: C106657
TDIGRP: C66787
TIMEFL: C81226
TIMI Thrombus Grade TEST: C119073
TIMI Thrombus Grade TESTCD: C119074
TIMIFLRS: C101841
TINDTP: C66736
TOXGR: SN001030
TOXGRA: SN001073
TOXGRN: SN001072
TOXGRV3: C66784
TOXGRV4: C87162
TOXGR_01: SN003017
TPHASE: C66737
TRANSTYP: SN000572
TRTEM: SN000582
TRTEPSD: C102589
TRTEST: C96778
TRTESTCD: C96779
TRTINTNT: SC124307
TRTRSN: SN000583
TRTRSN_01: SN003063
TRTRSN_02: SN003064
TRTRSN_03: SN003065
TRTRSN_04: SN003066
TSPARM: C67152
TSPARMCD: C66738
TTCAT: SN000123
TTSCAT: SN000124
TTYPE: C66739
TUG TEST: C115399
TUG TESTCD: C115400
TUMIDENT: C96780
TUMIDENT_01: SN003085
TUTEST: C96783
TUTESTCD: C96784
TXASSIST: SN000738
TXASSIST_01: SN003013
UNIT: C71620
UNIT_01: SN003089
UNIT_02: SN003090
UNIT_03: SN003091
UNIT_04: SN003092
UNIT_05: SN003093
UPDRS TEST: C100147
UPDRS TESTCD: C100148
UPS TEST: C103488
UPS TESTCD: C103489
VCNEVD: C102590
VFQ25-Interviewer Administered TEST: C112452
VFQ25-Interviewer Administered TESTCD: C112453
VFQ25-Self Administered TEST: C112454
VFQ25-Self Administered TESTCD: C112455
VRTEST: C116109
VRTESTCD: C116110
VSCAT: SN000743
VSLPARM: SN001929
VSPARM: SN001925
VSPARMCD: SN001926
VSRESU: C66770
VSRESU_TEMP: SN003094
VSTEST: C67153
VSTESTCD: C66741
WPAI-SHP TEST: C100175
WPAI-SHP TESTCD: C100176
