---
ABSCAT: S006884
ABTEST: S010167
ABTESTCD: S010167
ACGC01TC: C103531
ACGC01TN: C103531
ACN: C78728
ACNN: S003958
ACN_01: C49505
ACN_03: C49502
ACN_04: C49505
ACQ6091R: S030299
ACQ6092R: S030305
ACQ6093R: S030311
ACQ6094R: S030348
ACQ6096R: S030348
ACQ609TC: S030416
ACQ609TN: S030416
ACSPCAT: C80383
ADCTC: C100286
ADCTN: C100286
ADL01TC: C105361
ADL01TN: C105361
ADL02TC: C107016
ADL02TN: C107016
ADL03TC: C107092
ADL03TN: C107092
ADT01TC: C119118
ADT01TN: C119118
ADTC01TC: C119121
ADTC01TN: C119121
ADTNQRS: C85998
AECAT: S031110
AERELA: S000094
AERELAN: S017488
AERELA_01: S000093
AERELDEV: S000093
AERELDEV_01: S000093
AESCAT: S000062
AESEV: C41340
AESEVMD: C41340
AESEVMD_01: C41340
AESEVMD_02: C41340
AESEVN: S000102
AETERM: S000105
AETERM_01: S000105
AETERM_02: S000104
AGCAT: S004879
AGEGRPE: S009907
AGEGRPEN: S000139
AGEGRPP: S000144
AGEGRPPN: S000147
AGERANG: S016557
AGERANG_01: S012888
AGEU: C29848
AIMS01TC: C102045
AIMS01TN: C102045
AJCCGRD: C28082
AMBS01R: S012611
AMBS01TC: S014068
AMBS01TN: S014068
ANLPURP: C98781
ANLREAS: C117753
APCH1TC: C121113
APCH1TN: C121113
AQ01TC: C112548
AQ01TN: C112548
ASCVD1TC: C124720
ASCVD1TN: C124720
ASEX01TC: C129254
ASEX01TN: C129254
ASEX02TC: C129256
ASEX02TN: C129256
ASFATS: C127786
ASFATSCD: C127786
ASSG01TC: C124721
ASSG01TN: C124721
ASSTDV: S016556
ASSTDV_01: S016556
ASSTTYP: S016553
ASSTTYP_01: S016553
ASTYPE: S003957
AVL01TC: C102033
AVL01TN: C102033
AVL02TC: C123718
AVL02TN: C123718
AVOUTTRT: C120605
BACS1TC: C121062
BACS1TN: C121062
BARS01TC: C102049
BARS01TN: C102049
BASETYPE: S003960
BCLCSTG: S000176
BCR101TC: C113888
BCR101TN: C113888
BDI01TC: C106703
BDI01TN: C106703
BDI0201R: S001413
BDI0202R: S001415
BDI0203R: S001417
BDI0204R: S001421
BDI0205R: S001425
BDI0206R: S001429
BDI0207R: S001433
BDI0208R: S001437
BDI0209R: S001441
BDI0210R: S001445
BDI0211R: S001449
BDI0212R: S001453
BDI0213R: S001457
BDI0214R: S001461
BDI0215R: S001465
BDI0216R: S016551
BDI0217R: S001476
BDI0218R: S016545
BDI0219R: S001487
BDI0220R: S001491
BDI0221R: S001495
BDI02TC: S016322
BDI02TN: S016322
BEBQ01TC: C135792
BEBQ01TN: C135792
BEBQ02TC: C135810
BEBQ02TN: C135810
BEDECOD: C85856
BLCS01TC: C113956
BLCS01TN: C113956
BLTERM: S016599
BLTYPE: S011050
BODE01TC: C121067
BODE01TN: C121067
BPI1TC: C100355
BPI1TN: C100355
BPI2TC: C100371
BPI2TN: C100371
BPR01TC: C100389
BPR01TN: C100389
BRDGMOOD: C38000
BSTEST: C63637
BSTESTCD: C63637
BUERS1TC: C130326
BUERS1TN: C130326
BWCS01TC: C113961
BWCS01TN: C113961
CACRDSC: C77268
CADG01TC: C119196
CADG01TN: C119196
CADGRS: C119593
CADPRSN: C80383
CADRISK: C99978
CADSYMP: C99917
CARTDOM: C99971
CASEFIND: C127516
CCCAT: C138333
CCINVTYP: C102646
CCQ01TC: C119131
CCQ01TN: C119131
CCQ02TC: C119141
CCQ02TN: C119141
CCRCLS: C66916
CCRCLSCD: C66916
CCTEST: S010965
CCTESTCD: S010965
CDMSTAGE: S000182
CDNSTAGE: S000192
CDR01TC: C113881
CDR01TN: C113881
CDSTYP: S003970
CDTSTAGE: S008616
CDTYP: S007173
CECAT: S031110
CECEDIAG: S030800
CECVOUT: S009908
CEDURATI: S001604
CEDURATI_01: S001604
CEDURATI_02: S000002
CEDURATI_03: S000004
CEIEDIAG: C66914
CES01TC: C132562
CES01TN: C132562
CESCAT: S016321
CESCAT_01: S000062
CGCAT: S030095
CGGUY1TC: C135813
CGGUY1TN: C135813
CGI02TC: C135816
CGI02TN: C135816
CHAQ01TC: S030798
CHAQ01TN: S030798
CHAQABIL: S004919
CHAQABIL_01: S004919
CHIVC1TC: C124779
CHIVC1TN: C124779
CHSF1TC: C118018
CHSF1TN: C118018
CHSF2TC: C119162
CHSF2TN: C119162
CLMETH: S000902
CLMETH_01: C15361
CLMETH_02: S000902
CLTMDTYP: C85510
CMCAT: S030063
CMCAT_02: S030063
CMDOSTYP: S007730
CMDOSTYP_01: S007730
CMSCAT: S030351
CMSCAT_01: S004855
CMSCAT_02: S007161
CNTMODE: SC171537
COCOMCAT: S001819
COMM1TC: C100975
COMM1TN: C100975
CONROL: C54622
COWS1TC: C112468
COWS1TN: C112468
CPFATS: C94596
CPFATSCD: C94596
CPS0101R: S001746
CPS0102R: S001745
CPS0103R: S001750
CPS0104R: S001749
CPS0105R: S001748
CPS0106R: S001747
CPS0107R: S007351
CPS01TC: S010965
CPS01TN: S010965
CRQ01TC: C121029
CRQ01TN: C121029
CRQ02TC: C121049
CRQ02TN: C121049
CRSR01TC: C124746
CRSR01TN: C124746
CRYDFMAN: C99973
CSLVLNIM: C99933
CSS01TC: S014067
CSS01TN: S014067
CSS0206R: S010261
CSS0207R: S010266
CSS0208R: S010271
CSS0209R: S010277
CSS0210R: S010283
CSS0211R: S010289
CSS0212R: S012771
CSS0213R: S012774
CSS02TC: C103801
CSS02TN: C103801
CSS03TC: C105260
CSS03TN: C105260
CSS0406R: S010261
CSS0407R: S010266
CSS0408R: S010271
CSS0409R: S010277
CSS0410R: S010283
CSS0411R: S010289
CSS0412R: S012771
CSS0413R: S012774
CSS04TC: S014067
CSS04TN: S014067
CSS05TC: C107088
CSS05TN: C107088
CSS06TC: C111563
CSS06TN: C111563
CSS07TC: C111427
CSS07TN: C111427
CSS08TC: C111459
CSS08TN: C111459
CSS09TC: C111498
CSS09TN: C111498
CSS10TC: C113943
CSS10TN: C113943
CSS11TC: C118078
CSS11TN: C118078
CTAUGRS: SC161472
CTTIMIRS: C119587
CTVERS: S030470
CVFARS: C95803
CVFATS: C123443
CVFATSCD: C123443
CVPRCIND: S003515
CVSLDEXT: C99997
CVTEST: S016422
CVTESTCD: S016422
D1FATS: SC25676
D1FATSCD: SC25676
DAD01TC: C111617
DAD01TN: C111617
DATEFL: C81212
DATEST: S009946
DATESTCD: S009946
DDPRCS: S005134
DEACNDEV: C69187
DECAT: C67227
DEDECOD: S010876
DEDECOD_01: S010876
DEVTYP: S016590
DEVTYP_01: S016590
DGCONFRM: S016613
DGCONFRM_01: S016613
DGCONFRM_02: S001995
DIABTHPY: C99994
DICTNAM: SC49704
DIPARM: C99286
DIPARMCD: C99286
DIR: S016620
DIR_01: C25355
DIR_02: S016620
DISCHDX: C99984
DISSTG: S003972
DKFATS: C130057
DKFATSCD: C130057
DLQI11R: S012937
DLQI12R: S012938
DLQI13R: S012940
DLQI14R: S012937
DLQI1TC: S014067
DLQI1TN: S014067
DMFATS: C139175
DMFATSCD: C139175
DOMAIN: SC165871
DOTEST: C70855
DOTESTCD: C70855
DRS01TC: C115827
DRS01TN: C115827
DRSTAT: C85563
DS01TC: C112549
DS01TN: C112549
DSCAT: C74590
DSCBBRKR: C41331
DSCBMETH: S000981
DSCBMETH_01: S000981
DSCBWHOR: S001999
DSCBWHOR_01: S001999
DSICWHO: S010180
DSMETHOD: S006876
DSMETHOD_01: S000989
DSMETHOD_02: S006876
DSPRTYP: C4958
DSSCAT: SC170570
DSSOUT: C38155
DTCEVD: S011615
DTDECOD: C80457
DTHDX: S009947
DTHDXCD: S009947
DTYPE: SC170545
DURS: C130066
DUTEST: C94862
DUTESTCD: C94862
DVCAT: S014948
DVCLAS: S016762
DVSOURCE: S002083
EASOURCE: S016622
EBFATS: C25676
EBFATSCD: C25676
ECCAT: S004855
ECOG1R: S016589
ECOG1R_01: S002089
ECOG1TC: S014067
ECOG1TN: S014067
ED1TC: C125802
ED1TN: C125802
ED2TC: C125828
ED2TN: C125828
EDSS01R: S012706
EDSS01TC: S014067
EDSS01TN: S014067
EGCAT: S011588
EGCOMP: S002108
EGLEAD: C90418
EGLPARM: S015255
EGMETHOD: C90350
EGPARM: S015254
EGPARMCD: S015254
EGRDMETH: SC70669
EGREAMET: S002111
EGSCAT: S002095
EGSOURCE: S002114
EGSTRESC: C92235
EGTEST: S009948
EGTESTCD: S009948
ELEMENT: S012686
EMERP: S002116
EMPSTAT: C75563
EPDS01TC: C132572
EPDS01TN: C132572
EPIC1TC: C127398
EPIC1TN: C127398
EPIC2TC: C127420
EPIC2TN: C127420
EPOCH: S016711
EQ5D011R: S012902
EQ5D012R: S012905
EQ5D013R: S012908
EQ5D014R: S012911
EQ5D015R: S012914
EQ5D01TC: S014067
EQ5D01TN: S014067
EQ5D021R: S012919
EQ5D022R: S012923
EQ5D023R: S012928
EQ5D024R: S012930
EQ5D025R: S012932
EQ5D02TC: S014067
EQ5D02TN: S014067
ERRORTYP: S012065
ESPARM: S017816
ESPARMCD: S017816
ESRSA1TC: C118106
ESRSA1TN: C118106
ESS01TC: C103543
ESS01TN: C103543
ETCD: S012649
ETHNIC: C43234
ETIOL: S008622
EVAL: S012933
EVDRETRT: C35869
EVNTMNG: S010787
EXACT1TC: C123682
EXACT1TN: C123682
EXCAT: S016641
EXTENT: S016635
FAC001TC: C127447
FAC001TN: C127447
FAC005TC: C129224
FAC005TN: C129224
FAC015TC: C130502
FAC015TN: C130502
FAC017TC: C130457
FAC017TN: C130457
FAC018TC: C130544
FAC018TN: C130544
FAC023TC: C127503
FAC023TN: C127503
FAC028TC: C129187
FAC028TN: C129187
FAC029TC: C138443
FAC029TN: C138443
FAC039TC: C138458
FAC039TN: C138458
FAC042TC: C129169
FAC042TN: C129169
FAC043TC: C138464
FAC043TN: C138464
FAC049TC: C129232
FAC049TN: C129232
FAC050TC: C129250
FAC050TN: C129250
FAC052TC: C127464
FAC052TN: C127464
FAC071TC: C129150
FAC071TN: C129150
FACAT: S031110
FAMS01TC: C112608
FAMS01TN: C112608
FAQ01TC: C111509
FAQ01TN: C111509
FAQ02TC: C111519
FAQ02TN: C111519
FASCAT: S030133
FCVD1TC: C124722
FCVD1TN: C124722
FDATSRS: SC174287
FDGPETSC: S002347
FIQR01TC: C118110
FIQR01TN: C118110
FPSR1TC: C101013
FPSR1TN: C101013
FREQ: S001888
FREQ_01: S001888
FRM: C97197
FSS01TC: C113952
FSS01TN: C113952
FTCAT: S012594
FTREASND: S016538
FTREASND_01: S016538
FTREASND_02: S002375
FTSCAT: S009123
GAD01TC: C113886
GAD01TN: C113886
GASTRO: C139184
GASTROCD: C139184
GCGI01TC: C105282
GCGI01TN: C105282
GCS01TC: C124735
GCS01TN: C124735
GDS01TC: C106793
GDS01TN: C106793
GDS02TC: C106808
GDS02TN: C106808
GENRTYP: S010122
GENSMP: C95954
GLASGWTS: S005201
GNRLOBSC: C135396
GOSE1TC: C115850
GOSE1TN: C115850
GRADSTG: S002385
GRAFTTYP: C117823
GROUP: S001885
GROUP_01: S001870
GRSTNLOC: C99918
HADS01TC: C118112
HADS01TN: C118112
HAI01TC: C115806
HAI01TN: C115806
HAMA1TC: C102086
HAMA1TN: C102086
HAMD1TC: C100416
HAMD1TN: C100416
HAMD2TC: C102110
HAMD2TN: C102110
HAMD3TC: C130359
HAMD3TN: C130359
HAMD4TC: C130334
HAMD4TN: C130334
HAMDS1TC: C130550
HAMDS1TN: C130550
HAQ0101R: S016317
HAQ0102R: S012756
HAQ01TC: S014067
HAQ01TN: S014067
HAQ02TC: C132617
HAQ02TN: C132617
HEALTYPE: S002403
HEPENCGR: C117828
HESTRESC: C92235
HETEST: C41255
HETESTCD: C41255
HOSP: S009908
HOSP_01: S000284
HOSP_02: S009908
HOTERM: S016581
HPFATS: S016484
HPFATSCD: S016484
HSB01TC: C138363
HSB01TN: C138363
HYPOPER: S002451
IDMCSEV: S005194
IDSC1TC: C130392
IDSC1TN: C130392
IDSR1TC: C130583
IDSR1TN: C130583
IECAT: C25532
IECRITNO: S004016
IE_TI: S031013
IIEF01TC: C103601
IIEF01TN: C103601
IIFATS: S013426
IIFATSCD: S013426
INFCST: S016631
INIPROL: S002669
INSYMP: S018001
INTMODEL: SC142568
INTTYPE: C98769
INVASSND: S006245
ISCAT: S003161
ISTEST: S009950
ISTESTCD: S009950
IVIS01TC: C113966
IVIS01TN: C113966
JNTASMTS: S006404
KCCQ9TC: S006696
KCCQ9TN: S006696
KDPI01TC: C130393
KDPI01TN: C130393
KFSS11R: S012713
KFSS12R: S012719
KFSS13R: S012725
KFSS14R: S012732
KFSS15R: S012739
KFSS16R: S012746
KFSS17R: S012752
KFSS18R: S012754
KFSS19R: S012756
KFSS1TC: S014067
KFSS1TN: S014067
KILLIPC: C77272
KPSSR: S002696
KPSSR_01: S002696
KPSSTC: S014067
KPSSTN: S014067
LAT: C68598
LAT_01: C25229
LAT_03: C68598
LAT_04: C48660
LBCAT: S007163
LBLPARM: S900078
LBPARM: S015322
LBPARMCD: S015322
LBPARMN: S013405
LBPARMUN: S013406
LBPARMUS: S015328
LBPARUCD: S015328
LBSCAT: S030056
LBSTRESC: S002749
LBSTRESC_01: C38758
LBSTRESC_02: C38758
LBTEST: SC172491
LBTESTCD: SC172491
LBTEST_01: SC163437
LBTEST_03: S000395
LBTYPE: S002995
LEADABN: C99954
LEADSTAT: C99906
LEC01TC: C135921
LEC01TN: C135921
LESTYPE: S003101
LOC: SC78205
LOC_01: S001153
LOC_02: S001156
LOC_03: S001140
LOC_04: S001140
LOC_05: S001127
LOC_06: C34320
LOC_07: C89806
LOC_08: S006406
LOC_09: S006409
LOC_10: SC142369
LOC_11: C12674
LOC_12: C53075
LOC_13: SC78205
LOC_14: C48660
LOC_15: C33763
LPPSS1R: S009845
LPPSS1TC: S010965
LPPSS1TN: S010965
LSNCMPX: C100039
LVEFMRE: C99513
MARISTAT: S003102
MARKHO: S001240
MBTEST: C82021
MBTESTCD: C82021
MCIDCERT: C62607
MCORGTYP: S013087
MCRCSPTM: C99981
MECHAR: S016808
MEDEVAL: C96692
MELD01TC: C121076
MELD01TN: C121076
MENARCHE: S004914
METHOD: SC172597
METHOD_03: C62667
MFES01R: S013401
MFES01TC: S016588
MFES01TN: S016588
MFIS01R: S012765
MFIS01TC: S014067
MFIS01TN: S014067
MHCAT: S030132
MHEDTTYP: S007099
MHIS01TC: C112813
MHIS01TN: C112813
MHSCAT: S030133
MHTERM: S001387
MHTERM_01: S001387
MICAT: S030095
MICROORG: C97157
MICROORG_01: C17998
MIFTSDTL: C95149
MISCAT: S010976
MITS: C90424
MITSCD: C90424
MKCAT: S016559
MKSCAT: S011940
MLAMT: S016634
MLCAT: S006374
MLTYPE: S003114
MMHCTYP: S011593
MMRC01TC: C106852
MMRC01TN: C106852
MMS1TC: C136234
MMS1TN: C136234
MNSI1TC: C101020
MNSI1TN: C101020
MOCAT: S030126
MODTRN: C98977
MOSCAT: S012141
MOTEST: SC17649
MOTESTCD: SC154886
MPAI1TC: C115894
MPAI1TN: C115894
MRFATS: C25676
MRFATSCD: C25676
MRS01R: S004904
MRS01TC: C111520
MRS01TN: C111520
MSFATS: C117885
MSFATSCD: C117885
MSQL1TC: C114042
MSQL1TN: C114042
MSRESCAT: C85563
MSSI0101: S031560
MSSI0102: S031403
MSSI0106: S031405
MSSI0107: S031560
MSSI0111: S031560
MSSI0112: S031560
MSSI0114: S031560
MSSI0116: S031560
MSSI0120: S031560
MSSI0123: S031560
MSSI0125: S031424
MSSI01TC: S031401
MSSI01TN: S031401
MSTEST: C85540
MSTESTCD: C85540
MTC: S008892
MUSCTS: S016562
MUSCTSCD: S016562
MUSCTSCD_01: S016562
MUSCTS_01: S016562
NANORABN: C48660
NCF: C70543
NCIDICTV: S010954
NCOMPLT: SC142742
NCOMPLTN: S009936
NCOMPLT_01: C41331
NCOMPLT_02: C49634
NCOMPLT_03: C41331
NCOMPLT_04: C49634
NCOMPLT_05: S001277
NCOMPLT_06: S001277
NCOMPLT_07: S001275
NCOMPLT_08: S001276
NCOMPLT_09: C49628
NCOMPLT_10: S001277
NCOMPLT_11: S001277
NCOMPLT_12: S001277
ND: C49484
NDNORABN: C49484
NEOPLASM: S011938
NHPT01R: S016535
NHPT01TC: S014068
NHPT01TN: S014068
NORMABNM: C62222
NORMABNM_01: C25401
NORMED: S017281
NORMEDN: S003130
NPI1TC: C112482
NPI1TN: C112482
NPS01TC: C103652
NPS01TN: C103652
NRIND: C78802
NSA01TC: C121095
NSA01TN: C121095
NSAA1TC: C132555
NSAA1TN: C132555
NSYSPCID: C99950
NVTEST: S009955
NVTESTCD: S009955
NY: C78728
NYHAC: C66908
NY_01: C49488
NY_02: C49488
NY_YN: C49488
NY_YNU: C49488
OABQ01TC: C103685
OABQ01TN: C103685
OABQ02TC: C103704
OABQ02TN: C103704
OBSSBSR: C127778
OBSSMO: C15407
OBSSSM: C71517
OBSSTP: C53312
ODI01TC: C125762
ODI01TN: C125762
OECAT: S004925
OEFOCUS: C119335
OESCAT: S004877
OETEST: S009956
OETESTCD: S009956
ONCRSCAT: SC38046
ONCRSR: SC142361
ONCRSR_01: C96700
ONCRSR_02: SC142361
ONCRTS: S014058
ONCRTSCD: S014058
ONFATS: S013429
ONFATSCD: S013429
ORIGIN: S003150
OUT: C49498
OUTN: S009915
OUTPRG: S003160
PANSS1TC: C124776
PANSS1TN: C124776
PARAMTYP: C81197
PASAT1TC: C115815
PASAT1TN: C115815
PASI01TC: C135774
PASI01TN: C135774
PBSTMT: C85563
PCCAT: S004110
PCL01TC: C135941
PCL01TN: C135941
PCSACAT: S016633
PCSAHLO: S003168
PCSAV: S008891
PCSCAT: S006884
PCTEST: S009957
PCTESTCD: S009957
PDDS01TC: C112626
PDDS01TN: C112626
PECAT: S011274
PESCAT: S003171
PETEST: SC25389
PETESTCD: S011285
PFCAT: S004600
PFTEST: S009959
PFTESTCD: S009959
PGA03TC: S016344
PGA03TN: S016344
PGI01TC: C135819
PGI01TN: C135819
PGTST: C43685
PGTSTCD: C43685
PHFATS: S012306
PHFATSCD: S012306
PHQ01TC: C113887
PHQ01TN: C113887
PHQ02TC: C124782
PHQ02TN: C124782
PHQ03TC: C125887
PHQ03TN: C125887
PHSPRP: C95110
PHSPRPCD: C95110
PI01TC: S014067
PI01TN: S014067
PKPARM: C96695
PKPARMCD: C96695
PKUDMG: C85784
PKUDUG: C85784
PKUNIT: S012068
PKUWG: C85784
PKUWKG: C85784
PODCI1TC: C136033
PODCI1TN: C136033
PODCI2TC: C136125
PODCI2TN: C136125
PODCI3TC: C136214
PODCI3TN: C136214
POEM9R: S008581
POEM9TC: S010168
POEM9TN: S010168
PORTOT: C81009
POSITION: C92604
POSITION_01: C62166
PPTYP: S001970
PQL01TC: C138881
PQL01TN: C138881
PQL02TC: C138806
PQL02TN: C138806
PQL03TC: C138856
PQL03TN: C138856
PQL04TC: C138781
PQL04TN: C138781
PQL05TC: C138706
PQL05TN: C138706
PQL06TC: C138756
PQL06TN: C138756
PQL07TC: C138898
PQL07TN: C138898
PQL08TC: C138831
PQL08TN: C138831
PQL09TC: C138731
PQL09TN: C138731
PQL10TC: C138664
PQL10TN: C138664
PQL11TC: C138589
PQL11TN: C138589
PQL12TC: C138639
PQL12TN: C138639
PQL13TC: C138564
PQL13TN: C138564
PQL14TC: C138489
PQL14TN: C138489
PQL15TC: C138539
PQL15TN: C138539
PQL16TC: C138681
PQL16TN: C138681
PQL17TC: C138614
PQL17TN: C138614
PQL18TC: C138514
PQL18TN: C138514
PR01TC: C105277
PR01TN: C105277
PRCAT: S030126
PRESABS: C48190
PRITBCON: C102665
PROCEDUR: SC70909
PROCEDUR_01: S005202
PROCEDUR_02: S005204
PROGSTG: S003331
PROGSTG_01: S003331
PROS01TC: C127513
PROS01TN: C127513
PROTMLST: S016631
PROTTYP: S016617
PROTVER: S003201
PRRSN: S003204
PRSCAT: S012141
PRSCAT_01: S012141
PRURGNCY: C62648
PUL01TC: C138396
PUL01TN: C138396
PUL02TC: C138428
PUL02TN: C138428
PVDELMOD: S003211
PVOBS: S003217
PVOUT: S005286
QIDSC1TC: C130413
QIDSC1TN: C130413
QIDSR1TC: C130603
QIDSR1TN: C130603
QLES1TC: C130704
QLES1TN: C130704
QLES2TC: C130720
QLES2TN: C130720
QSCAT: S016629
QSSCAT: S016587
QSTEST: S014067
QSTESTCD: S014067
R3601TC: C114078
R3601TN: C114078
RACE: C78728
RACEC: S013097
RACEN: S014021
RANGTYPE: S016481
RASHLOC: S005193
RCTEST: S000781
RCTESTCD: S000781
RCVD01TC: C124723
RCVD01TN: C124723
RDQ01TC: C100804
RDQ01TN: C100804
REASNT: S016614
REASNT_01: S016601
REASNT_02: S016614
REASTINT: C91752
REASTNFA: S011005
REASTNFA_01: S011005
REASTRT: C38155
RECAT: S001580
REGMEN: S003255
REITERM: S016578
RELSUB: C96658
RELTYPE: C78728
RESPMOD: S016510
RETEST: S009960
RETESTCD: S009960
RISKSOC: C85521
RNRIND: S003257
ROUTE: S003258
ROUTE_01: C38675
ROUTE_02: C38304
ROUTE_03: S003258
ROUTE_05: C38299
ROUTE_06: C38288
RPCAT: S009970
RPQ01TC: C119194
RPQ01TN: C119194
RPTEST: S009961
RPTESTCD: S009961
RSKASMT: C17998
RSREASDS: S010930
RSSS01TC: C136233
RSSS01TN: C136233
SAMEVERS: S016637
SAMTYPE: S002602
SBJTSTAT: C53279
SCTEST: S015808
SCTESTCD: S015808
SDMT01TC: S014068
SDMT01TN: S014068
SDS01TC: C111526
SDS01TN: C111526
SDTHSDTP: C99936
SDTMIGRS: SC161437
SDTMVRS: SC161431
SETOCC: S012076
SETTING: C85863
SEVRS: SC70667
SEVRS_01: SC70667
SEVRS_02: SC61376
SEX: C45908
SEXPOP: C49636
SEX_01: C20197
SF12101R: S016586
SF12102R: S016506
SF12103R: S016505
SF12104R: S016504
SF12105R: S016501
SF12106R: S016498
SF121TC: S016197
SF121TN: S016197
SF36301R: S016496
SF36302R: S016491
SF36303R: S016488
SF36304R: S016487
SF36305R: S016479
SF36306R: S016475
SF36307R: S016470
SF36308R: S016468
SF36309R: S016628
SF363TC: S016626
SF363TN: S016626
SFMP2TC: C101021
SFMP2TN: C101021
SGRQ01TC: C112677
SGRQ01TN: C112677
SGRQ02TC: C112728
SGRQ02TN: C112728
SGRQC1TC: C107026
SGRQC1TN: C107026
SHIFT: S005180
SHIFT2: S008890
SHIFT2N: S003276
SHIFTN: S005180
SIQR01TC: C103750
SIQR01TN: C103750
SIXMW1TC: S014068
SIXMW1TN: S014068
SIZE: C49508
SKINCLAS: C74574
SKINTYP: C74593
SMPGTIME: S010835
SMPGTIME_01: S010835
SMPGTIME_02: S003737
SMQSCOPE: S003278
SMQSCPN: S003278
SOAPR1TC: C100895
SOAPR1TN: C100895
SOWSA1TC: C102424
SOWSA1TN: C102424
SPCIES: C97157
SPECCOND: S016651
SPECTYPE: SC150895
SPECTYPE_02: C17649
SRTEST: S009964
SRTESTCD: S009964
SSTATRS: C37987
SSTATRS_01: C37987
SSTEST: S009965
SSTESTCD: S009965
STAOCC: S012074
STCARCRS: C119600
STCG01TC: C119198
STCG01TN: C119198
STCTIMRS: C119597
STENRF: C53279
STENRF_01: C25629
STUDP: S003287
STYPE: C98722
SUAM: S003703
SUAM_01: S003703
SUBWREA: S004410
SUCAT: S013464
SWLS01TC: C115899
SWLS01TN: C115899
SZFATS: C35461
SZFATSCD: C35461
T25FW1R: S016625
T25FW1TC: S014068
T25FW1TN: S014068
TANN01TC: S010965
TANN01TN: S010965
TANN02TC: S010965
TANN02TN: S010965
TBFATS: S011284
TBFATSCD: S011284
TBLIND: C49659
TCNTRL: C49649
TDI01TC: C106706
TDI01TN: C106706
TDIGRP: C49651
TIMEFL: C81215
TIMG01TC: C119195
TIMG01TN: C119195
TIMIFLRS: C100043
TINDTP: C71486
TMT01TC: S014068
TMT01TN: S014068
TOXGR: S011599
TOXGRA: S030802
TOXGRN: S017644
TOXGR_01: S011599
TPHASE: C54721
TRANSTYP: S009937
TRPROPRS: C96644
TRTEFFIC: S011108
TRTEM: S003319
TRTEST: S009966
TRTESTCD: S009966
TRTINTNT: C62220
TRTRSN: SC15747
TRTRSN_01: S003014
TRTRSN_02: SC15747
TRTRSN_03: C62220
TRTRSN_04: S003011
TRTRSN_05: S016642
TRTSET: C124454
TSPARM: SC156605
TSPARMCD: SC156605
TSQM01TC: C132631
TSQM01TN: C132631
TTCAT: S030132
TTSCAT: S030133
TTYPE: C98791
TUG01TC: C115819
TUG01TN: C115819
TUIDRS: C94522
TUIDRS_01: C94521
TUTEST: S009967
TUTESTCD: S009967
TXASSIST: S006741
TXASSIST_01: S006741
UNIT: SC73681
UNIT_01: C18064
UNIT_02: C70512
UNIT_03: C29846
UNIT_04: C67015
UNIT_05: S010223
UNIT_06: C48154
UNIT_07: C29848
UNIT_08: C48152
UPD1TC: C111616
UPD1TN: C111616
UPD2TC: C113883
UPD2TN: C113883
UPS01TC: C103761
UPS01TN: C103761
URNSTS: C64546
URNSTSCD: C64546
VCNEVD: C86042
VFQ1TC: C112770
VFQ1TN: C112770
VFQ2TC: C112812
VFQ2TN: C112812
VLERS1TC: C130327
VLERS1TN: C130327
VNFATS: SC96684
VNFATSCD: SC96684
VSCAT: S031110
VSLPARM: S100254
VSPARM: S005160
VSPARMCD: S005160
VSRESU: C49674
VSSCAT: S000062
VSTEST: S010959
VSTESTCD: S010959
WD1TC: C130918
WD1TN: C130918
WD2TC: C130934
WD2TN: C130934
WD3TC: C130949
WD3TN: C130949
WD4TC: C130897
WD4TN: C130897
WD5TC: C130769
WD5TN: C130769
WD6TC: C130809
WD6TN: C130809
WD7TC: C130848
WD7TN: C130848
WHEG01TC: C117747
WHEG01TN: C117747
WHIVS1TC: C124777
WHIVS1TN: C124777
WHIVS2TC: C124778
WHIVS2TN: C124778
WKREFTIM: S013589
WKREFTIM_01: S013588
WKREFTIM_02: S013589
WPAI01TC: C100954
WPAI01TN: C100954
