@prefix : <http://www.assero.co.uk/BusinessOperational#> .
@prefix ba: <http://www.assero.co.uk/Annotations#> .
@prefix isoC: <http://www.assero.co.uk/ISO11179Concepts#> .
@prefix bo: <http://www.assero.co.uk/BusinessOperational#> .
@prefix owl: <http://www.w3.org/2002/07/owl#> .
@prefix rdf: <http://www.w3.org/1999/02/22-rdf-syntax-ns#> .
@prefix rdfs: <http://www.w3.org/2000/01/rdf-schema#> .
@prefix xsd: <http://www.w3.org/2001/XMLSchema#> .
@prefix skos: <http://www.w3.org/2004/02/skos/core#> .

<http://www.assero.co.uk/BusinessOperational>
	rdf:type owl:Ontology ;
.
<http://www.assero.co.uk/CHIN#250c4522-3d4a-47a7-a562-bb745246cdee>
	rdf:type ba:ChangeInstruction ;
	isoC:label ""^^xsd:string ;
	ba:reference "CDISC-4770"^^xsd:string ;
	ba:description "C100778 being moved from QSCAT codelist to CCAT codelist."^^xsd:string ;
	ba:current <http://www.assero.co.uk/CHIN#250c4522-3d4a-47a7-a562-bb745246cdee_TUC2> ;
	ba:ordinal "1"^^xsd:integer ;
	ba:semantic "related terminology"^^xsd:string ;
	ba:previous <http://www.assero.co.uk/CHIN#250c4522-3d4a-47a7-a562-bb745246cdee_TUC1> ;
.
<http://www.assero.co.uk/CHIN#250c4522-3d4a-47a7-a562-bb745246cdee_TUC2>
	rdf:type :TucReference ;
	isoC:label ""^^xsd:string ;
	:enabled "true"^^xsd:boolean ;
	:optional "false"^^xsd:boolean ;
	:ordinal "2"^^xsd:positiveInteger ;
	:reference <http://www.cdisc.org/C118971/V69#C118971_C100778> ;
	:context <http://www.cdisc.org/CT/V69#TH> ;
	:localLabel ""^^xsd:string ;
.
<http://www.assero.co.uk/CHIN#250c4522-3d4a-47a7-a562-bb745246cdee_TUC1>
	rdf:type :TucReference ;
	isoC:label ""^^xsd:string ;
	:enabled "true"^^xsd:boolean ;
	:optional "false"^^xsd:boolean ;
	:ordinal "1"^^xsd:positiveInteger ;
	:reference <http://www.cdisc.org/C100129/V33#C100129_C100778> ;
	:context <http://www.cdisc.org/CT/V68#TH> ;
	:localLabel ""^^xsd:string ;
.
<http://www.assero.co.uk/CHIN#13db8bb7-46d5-45aa-aeea-63d16062bef6>
	rdf:type ba:ChangeInstruction ;
	isoC:label ""^^xsd:string ;
	ba:reference "CDISC-4781"^^xsd:string ;
	ba:description "Remove C103387 from codelist and replace with C177992."^^xsd:string ;
	ba:current <http://www.assero.co.uk/CHIN#13db8bb7-46d5-45aa-aeea-63d16062bef6_TUC2> ;
	ba:ordinal "2"^^xsd:integer ;
	ba:semantic "related terminology"^^xsd:string ;
	ba:previous <http://www.assero.co.uk/CHIN#13db8bb7-46d5-45aa-aeea-63d16062bef6_TUC1> ;
.
<http://www.assero.co.uk/CHIN#13db8bb7-46d5-45aa-aeea-63d16062bef6_TUC2>
	rdf:type :TucReference ;
	isoC:label ""^^xsd:string ;
	:enabled "true"^^xsd:boolean ;
	:optional "false"^^xsd:boolean ;
	:ordinal "2"^^xsd:positiveInteger ;
	:reference <http://www.cdisc.org/C67154/V69#C67154_C177992> ;
	:context <http://www.cdisc.org/CT/V69#TH> ;
	:localLabel ""^^xsd:string ;
.
<http://www.assero.co.uk/CHIN#13db8bb7-46d5-45aa-aeea-63d16062bef6_TUC1>
	rdf:type :TucReference ;
	isoC:label ""^^xsd:string ;
	:enabled "true"^^xsd:boolean ;
	:optional "false"^^xsd:boolean ;
	:ordinal "1"^^xsd:positiveInteger ;
	:reference <http://www.cdisc.org/C67154/V48#C67154_C103387> ;
	:context <http://www.cdisc.org/CT/V68#TH> ;
	:localLabel ""^^xsd:string ;
.
<http://www.assero.co.uk/CHIN#aa263e2e-1adc-4367-a745-1d0e9a7bd01d>
	rdf:type ba:ChangeInstruction ;
	isoC:label ""^^xsd:string ;
	ba:reference "CDISC-4781"^^xsd:string ;
	ba:description "Remove C163485 from codelist and replace with C177993."^^xsd:string ;
	ba:current <http://www.assero.co.uk/CHIN#aa263e2e-1adc-4367-a745-1d0e9a7bd01d_TUC2> ;
	ba:ordinal "3"^^xsd:integer ;
	ba:semantic "related terminology"^^xsd:string ;
	ba:previous <http://www.assero.co.uk/CHIN#aa263e2e-1adc-4367-a745-1d0e9a7bd01d_TUC1> ;
.
<http://www.assero.co.uk/CHIN#aa263e2e-1adc-4367-a745-1d0e9a7bd01d_TUC2>
	rdf:type :TucReference ;
	isoC:label ""^^xsd:string ;
	:enabled "true"^^xsd:boolean ;
	:optional "false"^^xsd:boolean ;
	:ordinal "2"^^xsd:positiveInteger ;
	:reference <http://www.cdisc.org/C67154/V69#C67154_C177993> ;
	:context <http://www.cdisc.org/CT/V69#TH> ;
	:localLabel ""^^xsd:string ;
.
<http://www.assero.co.uk/CHIN#aa263e2e-1adc-4367-a745-1d0e9a7bd01d_TUC1>
	rdf:type :TucReference ;
	isoC:label ""^^xsd:string ;
	:enabled "true"^^xsd:boolean ;
	:optional "false"^^xsd:boolean ;
	:ordinal "1"^^xsd:positiveInteger ;
	:reference <http://www.cdisc.org/C67154/V61#C67154_C163485> ;
	:context <http://www.cdisc.org/CT/V68#TH> ;
	:localLabel ""^^xsd:string ;
.
<http://www.assero.co.uk/CHIN#a80a562d-c28e-4693-b030-03c34d1adeb2>
	rdf:type ba:ChangeInstruction ;
	isoC:label ""^^xsd:string ;
	ba:reference "CDISC-4410"^^xsd:string ;
	ba:description "C178140 (Partial Thromboplastin Time) is being split out from C38462 (Activated Partial Thromboplastin Time); Partial Thromboplastin Time and Activated Partial Thromboplastin time are not synonymous."^^xsd:string ;
	ba:current <http://www.assero.co.uk/CHIN#a80a562d-c28e-4693-b030-03c34d1adeb2_TUC2> ;
	ba:ordinal "4"^^xsd:integer ;
	ba:semantic "related terminology"^^xsd:string ;
	ba:previous <http://www.assero.co.uk/CHIN#a80a562d-c28e-4693-b030-03c34d1adeb2_TUC1> ;
.
<http://www.assero.co.uk/CHIN#a80a562d-c28e-4693-b030-03c34d1adeb2_TUC2>
	rdf:type :TucReference ;
	isoC:label ""^^xsd:string ;
	:enabled "true"^^xsd:boolean ;
	:optional "false"^^xsd:boolean ;
	:ordinal "2"^^xsd:positiveInteger ;
	:reference <http://www.cdisc.org/C67154/V69#C67154_C178140> ;
	:context <http://www.cdisc.org/CT/V69#TH> ;
	:localLabel ""^^xsd:string ;
.
<http://www.assero.co.uk/CHIN#a80a562d-c28e-4693-b030-03c34d1adeb2_TUC1>
	rdf:type :TucReference ;
	isoC:label ""^^xsd:string ;
	:enabled "true"^^xsd:boolean ;
	:optional "false"^^xsd:boolean ;
	:ordinal "1"^^xsd:positiveInteger ;
	:reference <http://www.cdisc.org/C67154/V4#C67154_C38462> ;
	:context <http://www.cdisc.org/CT/V68#TH> ;
	:localLabel ""^^xsd:string ;
.
<http://www.assero.co.uk/CHIN#e776a63e-6be7-43f2-89b1-fcddc7b7f527>
	rdf:type ba:ChangeInstruction ;
	isoC:label ""^^xsd:string ;
	ba:reference "CDISC-4781"^^xsd:string ;
	ba:description "Remove C103387 from codelist and replace with C177992."^^xsd:string ;
	ba:current <http://www.assero.co.uk/CHIN#e776a63e-6be7-43f2-89b1-fcddc7b7f527_TUC2> ;
	ba:ordinal "5"^^xsd:integer ;
	ba:semantic "related terminology"^^xsd:string ;
	ba:previous <http://www.assero.co.uk/CHIN#e776a63e-6be7-43f2-89b1-fcddc7b7f527_TUC1> ;
.
<http://www.assero.co.uk/CHIN#e776a63e-6be7-43f2-89b1-fcddc7b7f527_TUC2>
	rdf:type :TucReference ;
	isoC:label ""^^xsd:string ;
	:enabled "true"^^xsd:boolean ;
	:optional "false"^^xsd:boolean ;
	:ordinal "2"^^xsd:positiveInteger ;
	:reference <http://www.cdisc.org/C67154/V69#C67154_C177992> ;
	:context <http://www.cdisc.org/CT/V69#TH> ;
	:localLabel ""^^xsd:string ;
.
<http://www.assero.co.uk/CHIN#e776a63e-6be7-43f2-89b1-fcddc7b7f527_TUC1>
	rdf:type :TucReference ;
	isoC:label ""^^xsd:string ;
	:enabled "true"^^xsd:boolean ;
	:optional "false"^^xsd:boolean ;
	:ordinal "1"^^xsd:positiveInteger ;
	:reference <http://www.cdisc.org/C67154/V48#C67154_C103387> ;
	:context <http://www.cdisc.org/CT/V68#TH> ;
	:localLabel ""^^xsd:string ;
.
<http://www.assero.co.uk/CHIN#0e641e6e-18ec-413b-a08d-c65ff009cb8e>
	rdf:type ba:ChangeInstruction ;
	isoC:label ""^^xsd:string ;
	ba:reference "CDISC-4781"^^xsd:string ;
	ba:description "Remove C163485 from codelist and replace with C177993."^^xsd:string ;
	ba:current <http://www.assero.co.uk/CHIN#0e641e6e-18ec-413b-a08d-c65ff009cb8e_TUC2> ;
	ba:ordinal "6"^^xsd:integer ;
	ba:semantic "related terminology"^^xsd:string ;
	ba:previous <http://www.assero.co.uk/CHIN#0e641e6e-18ec-413b-a08d-c65ff009cb8e_TUC1> ;
.
<http://www.assero.co.uk/CHIN#0e641e6e-18ec-413b-a08d-c65ff009cb8e_TUC2>
	rdf:type :TucReference ;
	isoC:label ""^^xsd:string ;
	:enabled "true"^^xsd:boolean ;
	:optional "false"^^xsd:boolean ;
	:ordinal "2"^^xsd:positiveInteger ;
	:reference <http://www.cdisc.org/C67154/V69#C67154_C177993> ;
	:context <http://www.cdisc.org/CT/V69#TH> ;
	:localLabel ""^^xsd:string ;
.
<http://www.assero.co.uk/CHIN#0e641e6e-18ec-413b-a08d-c65ff009cb8e_TUC1>
	rdf:type :TucReference ;
	isoC:label ""^^xsd:string ;
	:enabled "true"^^xsd:boolean ;
	:optional "false"^^xsd:boolean ;
	:ordinal "1"^^xsd:positiveInteger ;
	:reference <http://www.cdisc.org/C67154/V61#C67154_C163485> ;
	:context <http://www.cdisc.org/CT/V68#TH> ;
	:localLabel ""^^xsd:string ;
.
<http://www.assero.co.uk/CHIN#e31b4cac-8f2b-4568-b345-f04a1cac9e87>
	rdf:type ba:ChangeInstruction ;
	isoC:label ""^^xsd:string ;
	ba:reference "CDISC-4410"^^xsd:string ;
	ba:description "C178140 (Partial Thromboplastin Time) is being split out from C38462 (Activated Partial Thromboplastin Time); Partial Thromboplastin Time and Activated Partial Thromboplastin time are not synonymous."^^xsd:string ;
	ba:current <http://www.assero.co.uk/CHIN#e31b4cac-8f2b-4568-b345-f04a1cac9e87_TUC2> ;
	ba:ordinal "7"^^xsd:integer ;
	ba:semantic "related terminology"^^xsd:string ;
	ba:previous <http://www.assero.co.uk/CHIN#e31b4cac-8f2b-4568-b345-f04a1cac9e87_TUC1> ;
.
<http://www.assero.co.uk/CHIN#e31b4cac-8f2b-4568-b345-f04a1cac9e87_TUC2>
	rdf:type :TucReference ;
	isoC:label ""^^xsd:string ;
	:enabled "true"^^xsd:boolean ;
	:optional "false"^^xsd:boolean ;
	:ordinal "2"^^xsd:positiveInteger ;
	:reference <http://www.cdisc.org/C67154/V69#C67154_C178140> ;
	:context <http://www.cdisc.org/CT/V69#TH> ;
	:localLabel ""^^xsd:string ;
.
<http://www.assero.co.uk/CHIN#e31b4cac-8f2b-4568-b345-f04a1cac9e87_TUC1>
	rdf:type :TucReference ;
	isoC:label ""^^xsd:string ;
	:enabled "true"^^xsd:boolean ;
	:optional "false"^^xsd:boolean ;
	:ordinal "1"^^xsd:positiveInteger ;
	:reference <http://www.cdisc.org/C67154/V4#C67154_C38462> ;
	:context <http://www.cdisc.org/CT/V68#TH> ;
	:localLabel ""^^xsd:string ;
.
<http://www.assero.co.uk/CHIN#6c3268fe-6af8-4445-854f-df95083e81bf>
	rdf:type ba:ChangeInstruction ;
	isoC:label ""^^xsd:string ;
	ba:reference "CDISC-4781"^^xsd:string ;
	ba:description "C178142 is replacing C106516 in the METHOD codelist."^^xsd:string ;
	ba:current <http://www.assero.co.uk/CHIN#6c3268fe-6af8-4445-854f-df95083e81bf_TUC2> ;
	ba:ordinal "8"^^xsd:integer ;
	ba:semantic "related terminology"^^xsd:string ;
	ba:previous <http://www.assero.co.uk/CHIN#6c3268fe-6af8-4445-854f-df95083e81bf_TUC1> ;
.
<http://www.assero.co.uk/CHIN#6c3268fe-6af8-4445-854f-df95083e81bf_TUC2>
	rdf:type :TucReference ;
	isoC:label ""^^xsd:string ;
	:enabled "true"^^xsd:boolean ;
	:optional "false"^^xsd:boolean ;
	:ordinal "2"^^xsd:positiveInteger ;
	:reference <http://www.cdisc.org/C85492/V69#C85492_C178142> ;
	:context <http://www.cdisc.org/CT/V69#TH> ;
	:localLabel ""^^xsd:string ;
.
<http://www.assero.co.uk/CHIN#6c3268fe-6af8-4445-854f-df95083e81bf_TUC1>
	rdf:type :TucReference ;
	isoC:label ""^^xsd:string ;
	:enabled "true"^^xsd:boolean ;
	:optional "false"^^xsd:boolean ;
	:ordinal "1"^^xsd:positiveInteger ;
	:reference <http://www.cdisc.org/C85492/V35#C85492_C106516> ;
	:context <http://www.cdisc.org/CT/V68#TH> ;
	:localLabel ""^^xsd:string ;
.
<http://www.assero.co.uk/CHIN#91439552-5767-41c4-8115-27717f04086e>
	rdf:type ba:ChangeInstruction ;
	isoC:label ""^^xsd:string ;
	ba:reference "CDISC-4781"^^xsd:string ;
	ba:description "Remove C102280 from codelist and replace with C158220."^^xsd:string ;
	ba:current <http://www.assero.co.uk/CHIN#91439552-5767-41c4-8115-27717f04086e_TUC2> ;
	ba:ordinal "9"^^xsd:integer ;
	ba:semantic "related terminology"^^xsd:string ;
	ba:previous <http://www.assero.co.uk/CHIN#91439552-5767-41c4-8115-27717f04086e_TUC1> ;
.
<http://www.assero.co.uk/CHIN#91439552-5767-41c4-8115-27717f04086e_TUC2>
	rdf:type :TucReference ;
	isoC:label ""^^xsd:string ;
	:enabled "true"^^xsd:boolean ;
	:optional "false"^^xsd:boolean ;
	:ordinal "2"^^xsd:positiveInteger ;
	:reference <http://www.cdisc.org/C67154/V59#C67154_C158220> ;
	:context <http://www.cdisc.org/CT/V69#TH> ;
	:localLabel ""^^xsd:string ;
.
<http://www.assero.co.uk/CHIN#91439552-5767-41c4-8115-27717f04086e_TUC1>
	rdf:type :TucReference ;
	isoC:label ""^^xsd:string ;
	:enabled "true"^^xsd:boolean ;
	:optional "false"^^xsd:boolean ;
	:ordinal "1"^^xsd:positiveInteger ;
	:reference <http://www.cdisc.org/C67154/V31#C67154_C102280> ;
	:context <http://www.cdisc.org/CT/V68#TH> ;
	:localLabel ""^^xsd:string ;
.
<http://www.assero.co.uk/CHIN#fa2d4059-5716-448b-8949-40c39f6bf029>
	rdf:type ba:ChangeInstruction ;
	isoC:label ""^^xsd:string ;
	ba:reference "CDISC-4781"^^xsd:string ;
	ba:description "Remove C106499 from codelist and replace with C74732."^^xsd:string ;
	ba:current <http://www.assero.co.uk/CHIN#fa2d4059-5716-448b-8949-40c39f6bf029_TUC2> ;
	ba:ordinal "10"^^xsd:integer ;
	ba:semantic "related terminology"^^xsd:string ;
	ba:previous <http://www.assero.co.uk/CHIN#fa2d4059-5716-448b-8949-40c39f6bf029_TUC1> ;
.
<http://www.assero.co.uk/CHIN#fa2d4059-5716-448b-8949-40c39f6bf029_TUC2>
	rdf:type :TucReference ;
	isoC:label ""^^xsd:string ;
	:enabled "true"^^xsd:boolean ;
	:optional "false"^^xsd:boolean ;
	:ordinal "2"^^xsd:positiveInteger ;
	:reference <http://www.cdisc.org/C67154/V55#C67154_C74732> ;
	:context <http://www.cdisc.org/CT/V69#TH> ;
	:localLabel ""^^xsd:string ;
.
<http://www.assero.co.uk/CHIN#fa2d4059-5716-448b-8949-40c39f6bf029_TUC1>
	rdf:type :TucReference ;
	isoC:label ""^^xsd:string ;
	:enabled "true"^^xsd:boolean ;
	:optional "false"^^xsd:boolean ;
	:ordinal "1"^^xsd:positiveInteger ;
	:reference <http://www.cdisc.org/C67154/V35#C67154_C106499> ;
	:context <http://www.cdisc.org/CT/V68#TH> ;
	:localLabel ""^^xsd:string ;
.
<http://www.assero.co.uk/CHIN#2bc0e96a-7bf1-40a8-8814-8be9441539cf>
	rdf:type ba:ChangeInstruction ;
	isoC:label ""^^xsd:string ;
	ba:reference "CDISC-4781"^^xsd:string ;
	ba:description "Remove C161356 from codelist and replace with C161355."^^xsd:string ;
	ba:current <http://www.assero.co.uk/CHIN#2bc0e96a-7bf1-40a8-8814-8be9441539cf_TUC2> ;
	ba:ordinal "11"^^xsd:integer ;
	ba:semantic "related terminology"^^xsd:string ;
	ba:previous <http://www.assero.co.uk/CHIN#2bc0e96a-7bf1-40a8-8814-8be9441539cf_TUC1> ;
.
<http://www.assero.co.uk/CHIN#2bc0e96a-7bf1-40a8-8814-8be9441539cf_TUC2>
	rdf:type :TucReference ;
	isoC:label ""^^xsd:string ;
	:enabled "true"^^xsd:boolean ;
	:optional "false"^^xsd:boolean ;
	:ordinal "2"^^xsd:positiveInteger ;
	:reference <http://www.cdisc.org/C67154/V60#C67154_C161355> ;
	:context <http://www.cdisc.org/CT/V69#TH> ;
	:localLabel ""^^xsd:string ;
.
<http://www.assero.co.uk/CHIN#2bc0e96a-7bf1-40a8-8814-8be9441539cf_TUC1>
	rdf:type :TucReference ;
	isoC:label ""^^xsd:string ;
	:enabled "true"^^xsd:boolean ;
	:optional "false"^^xsd:boolean ;
	:ordinal "1"^^xsd:positiveInteger ;
	:reference <http://www.cdisc.org/C67154/V60#C67154_C161356> ;
	:context <http://www.cdisc.org/CT/V68#TH> ;
	:localLabel ""^^xsd:string ;
.
<http://www.assero.co.uk/CHIN#a69b7889-1236-4b77-ae23-f2a1ba271ed3>
	rdf:type ba:ChangeInstruction ;
	isoC:label ""^^xsd:string ;
	ba:reference "CDISC-4781"^^xsd:string ;
	ba:description "Remove C102280 from codelist and replace with C158220."^^xsd:string ;
	ba:current <http://www.assero.co.uk/CHIN#a69b7889-1236-4b77-ae23-f2a1ba271ed3_TUC2> ;
	ba:ordinal "12"^^xsd:integer ;
	ba:semantic "related terminology"^^xsd:string ;
	ba:previous <http://www.assero.co.uk/CHIN#a69b7889-1236-4b77-ae23-f2a1ba271ed3_TUC1> ;
.
<http://www.assero.co.uk/CHIN#a69b7889-1236-4b77-ae23-f2a1ba271ed3_TUC2>
	rdf:type :TucReference ;
	isoC:label ""^^xsd:string ;
	:enabled "true"^^xsd:boolean ;
	:optional "false"^^xsd:boolean ;
	:ordinal "2"^^xsd:positiveInteger ;
	:reference <http://www.cdisc.org/C67154/V59#C67154_C158220> ;
	:context <http://www.cdisc.org/CT/V69#TH> ;
	:localLabel ""^^xsd:string ;
.
<http://www.assero.co.uk/CHIN#a69b7889-1236-4b77-ae23-f2a1ba271ed3_TUC1>
	rdf:type :TucReference ;
	isoC:label ""^^xsd:string ;
	:enabled "true"^^xsd:boolean ;
	:optional "false"^^xsd:boolean ;
	:ordinal "1"^^xsd:positiveInteger ;
	:reference <http://www.cdisc.org/C67154/V31#C67154_C102280> ;
	:context <http://www.cdisc.org/CT/V68#TH> ;
	:localLabel ""^^xsd:string ;
.
<http://www.assero.co.uk/CHIN#20b3f232-c009-4bd3-8028-3e62cb546ffb>
	rdf:type ba:ChangeInstruction ;
	isoC:label ""^^xsd:string ;
	ba:reference "CDISC-4781"^^xsd:string ;
	ba:description "Remove C106499 from codelist and replace with C74732."^^xsd:string ;
	ba:current <http://www.assero.co.uk/CHIN#20b3f232-c009-4bd3-8028-3e62cb546ffb_TUC2> ;
	ba:ordinal "13"^^xsd:integer ;
	ba:semantic "related terminology"^^xsd:string ;
	ba:previous <http://www.assero.co.uk/CHIN#20b3f232-c009-4bd3-8028-3e62cb546ffb_TUC1> ;
.
<http://www.assero.co.uk/CHIN#20b3f232-c009-4bd3-8028-3e62cb546ffb_TUC2>
	rdf:type :TucReference ;
	isoC:label ""^^xsd:string ;
	:enabled "true"^^xsd:boolean ;
	:optional "false"^^xsd:boolean ;
	:ordinal "2"^^xsd:positiveInteger ;
	:reference <http://www.cdisc.org/C67154/V55#C67154_C74732> ;
	:context <http://www.cdisc.org/CT/V69#TH> ;
	:localLabel ""^^xsd:string ;
.
<http://www.assero.co.uk/CHIN#20b3f232-c009-4bd3-8028-3e62cb546ffb_TUC1>
	rdf:type :TucReference ;
	isoC:label ""^^xsd:string ;
	:enabled "true"^^xsd:boolean ;
	:optional "false"^^xsd:boolean ;
	:ordinal "1"^^xsd:positiveInteger ;
	:reference <http://www.cdisc.org/C67154/V35#C67154_C106499> ;
	:context <http://www.cdisc.org/CT/V68#TH> ;
	:localLabel ""^^xsd:string ;
.
<http://www.assero.co.uk/CHIN#f9b902c8-0430-42b8-899e-986a2ff3193b>
	rdf:type ba:ChangeInstruction ;
	isoC:label ""^^xsd:string ;
	ba:reference "CDISC-4781"^^xsd:string ;
	ba:description "Remove C161356 from codelist and replace with C161355."^^xsd:string ;
	ba:current <http://www.assero.co.uk/CHIN#f9b902c8-0430-42b8-899e-986a2ff3193b_TUC2> ;
	ba:ordinal "14"^^xsd:integer ;
	ba:semantic "related terminology"^^xsd:string ;
	ba:previous <http://www.assero.co.uk/CHIN#f9b902c8-0430-42b8-899e-986a2ff3193b_TUC1> ;
.
<http://www.assero.co.uk/CHIN#f9b902c8-0430-42b8-899e-986a2ff3193b_TUC2>
	rdf:type :TucReference ;
	isoC:label ""^^xsd:string ;
	:enabled "true"^^xsd:boolean ;
	:optional "false"^^xsd:boolean ;
	:ordinal "2"^^xsd:positiveInteger ;
	:reference <http://www.cdisc.org/C67154/V60#C67154_C161355> ;
	:context <http://www.cdisc.org/CT/V69#TH> ;
	:localLabel ""^^xsd:string ;
.
<http://www.assero.co.uk/CHIN#f9b902c8-0430-42b8-899e-986a2ff3193b_TUC1>
	rdf:type :TucReference ;
	isoC:label ""^^xsd:string ;
	:enabled "true"^^xsd:boolean ;
	:optional "false"^^xsd:boolean ;
	:ordinal "1"^^xsd:positiveInteger ;
	:reference <http://www.cdisc.org/C67154/V60#C67154_C161356> ;
	:context <http://www.cdisc.org/CT/V68#TH> ;
	:localLabel ""^^xsd:string ;
.
<http://www.assero.co.uk/CHIN#5008fab2-c39c-4b9d-aa1d-54c132ec183e>
	rdf:type ba:ChangeInstruction ;
	isoC:label ""^^xsd:string ;
	ba:reference "CDISC-4290"^^xsd:string ;
	ba:description "Remove C156548 from codelist. This concept will be moved to MIFTSDTL codelist. Existing, published MITST/MITSTCD values can be used instead."^^xsd:string ;
	ba:current <http://www.assero.co.uk/CHIN#5008fab2-c39c-4b9d-aa1d-54c132ec183e_TUC2> ;
	ba:ordinal "15"^^xsd:integer ;
	ba:semantic "related terminology"^^xsd:string ;
	ba:previous <http://www.assero.co.uk/CHIN#5008fab2-c39c-4b9d-aa1d-54c132ec183e_TUC1> ;
.
<http://www.assero.co.uk/CHIN#5008fab2-c39c-4b9d-aa1d-54c132ec183e_TUC2>
	rdf:type :TucReference ;
	isoC:label ""^^xsd:string ;
	:enabled "true"^^xsd:boolean ;
	:optional "false"^^xsd:boolean ;
	:ordinal "2"^^xsd:positiveInteger ;
	:reference <http://www.cdisc.org/C125922/V69#C125922_C156548> ;
	:context <http://www.cdisc.org/CT/V69#TH> ;
	:localLabel ""^^xsd:string ;
.
<http://www.assero.co.uk/CHIN#5008fab2-c39c-4b9d-aa1d-54c132ec183e_TUC1>
	rdf:type :TucReference ;
	isoC:label ""^^xsd:string ;
	:enabled "true"^^xsd:boolean ;
	:optional "false"^^xsd:boolean ;
	:ordinal "1"^^xsd:positiveInteger ;
	:reference <http://www.cdisc.org/C132262/V58#C132262_C156548> ;
	:context <http://www.cdisc.org/CT/V68#TH> ;
	:localLabel ""^^xsd:string ;
.
<http://www.assero.co.uk/CHIN#68559ab8-bff3-414b-8f55-905c76ffd192>
	rdf:type ba:ChangeInstruction ;
	isoC:label ""^^xsd:string ;
	ba:reference "CDISC-4290"^^xsd:string ;
	ba:description "Remove C156548 from codelist. This concept will be moved to MIFTSDTL codelist. Existing, published MITST/MITSTCD values can be used instead."^^xsd:string ;
	ba:current <http://www.assero.co.uk/CHIN#68559ab8-bff3-414b-8f55-905c76ffd192_TUC2> ;
	ba:ordinal "16"^^xsd:integer ;
	ba:semantic "related terminology"^^xsd:string ;
	ba:previous <http://www.assero.co.uk/CHIN#68559ab8-bff3-414b-8f55-905c76ffd192_TUC1> ;
.
<http://www.assero.co.uk/CHIN#68559ab8-bff3-414b-8f55-905c76ffd192_TUC2>
	rdf:type :TucReference ;
	isoC:label ""^^xsd:string ;
	:enabled "true"^^xsd:boolean ;
	:optional "false"^^xsd:boolean ;
	:ordinal "2"^^xsd:positiveInteger ;
	:reference <http://www.cdisc.org/C125922/V69#C125922_C156548> ;
	:context <http://www.cdisc.org/CT/V69#TH> ;
	:localLabel ""^^xsd:string ;
.
<http://www.assero.co.uk/CHIN#68559ab8-bff3-414b-8f55-905c76ffd192_TUC1>
	rdf:type :TucReference ;
	isoC:label ""^^xsd:string ;
	:enabled "true"^^xsd:boolean ;
	:optional "false"^^xsd:boolean ;
	:ordinal "1"^^xsd:positiveInteger ;
	:reference <http://www.cdisc.org/C132263/V58#C132263_C156548> ;
	:context <http://www.cdisc.org/CT/V68#TH> ;
	:localLabel ""^^xsd:string ;
.
<http://www.assero.co.uk/CHIN#52863697-ed0d-47db-a6e9-ea5b52ad949e>
	rdf:type ba:ChangeInstruction ;
	isoC:label ""^^xsd:string ;
	ba:reference "CDISC-4349"^^xsd:string ;
	ba:description "Update to CDISC submission value to consistently represent the same concept across multiple, domain-specific --TEST/--TESTCD paired codelists."^^xsd:string ;
	ba:current <http://www.assero.co.uk/CHIN#52863697-ed0d-47db-a6e9-ea5b52ad949e_TUC2> ;
	ba:ordinal "17"^^xsd:integer ;
	ba:semantic "related terminology"^^xsd:string ;
	ba:previous <http://www.assero.co.uk/CHIN#52863697-ed0d-47db-a6e9-ea5b52ad949e_TUC1> ;
.
<http://www.assero.co.uk/CHIN#52863697-ed0d-47db-a6e9-ea5b52ad949e_TUC2>
	rdf:type :TucReference ;
	isoC:label ""^^xsd:string ;
	:enabled "true"^^xsd:boolean ;
	:optional "false"^^xsd:boolean ;
	:ordinal "2"^^xsd:positiveInteger ;
	:reference <http://www.cdisc.org/C67154/V69#C67154_C135472> ;
	:context <http://www.cdisc.org/CT/V69#TH> ;
	:localLabel ""^^xsd:string ;
.
<http://www.assero.co.uk/CHIN#52863697-ed0d-47db-a6e9-ea5b52ad949e_TUC1>
	rdf:type :TucReference ;
	isoC:label ""^^xsd:string ;
	:enabled "true"^^xsd:boolean ;
	:optional "false"^^xsd:boolean ;
	:ordinal "1"^^xsd:positiveInteger ;
	:reference <http://www.cdisc.org/C67154/V65#C67154_C135472> ;
	:context <http://www.cdisc.org/CT/V68#TH> ;
	:localLabel ""^^xsd:string ;
.
<http://www.assero.co.uk/CHIN#11e10b5b-a8fd-4b4a-8dee-27c780a45f12>
	rdf:type ba:ChangeInstruction ;
	isoC:label ""^^xsd:string ;
	ba:reference "CDISC-4349"^^xsd:string ;
	ba:description "Update to CDISC submission value to consistently represent the same concept across multiple, domain-specific --TEST/--TESTCD paired codelists."^^xsd:string ;
	ba:current <http://www.assero.co.uk/CHIN#11e10b5b-a8fd-4b4a-8dee-27c780a45f12_TUC2> ;
	ba:ordinal "18"^^xsd:integer ;
	ba:semantic "related terminology"^^xsd:string ;
	ba:previous <http://www.assero.co.uk/CHIN#11e10b5b-a8fd-4b4a-8dee-27c780a45f12_TUC1> ;
.
<http://www.assero.co.uk/CHIN#11e10b5b-a8fd-4b4a-8dee-27c780a45f12_TUC2>
	rdf:type :TucReference ;
	isoC:label ""^^xsd:string ;
	:enabled "true"^^xsd:boolean ;
	:optional "false"^^xsd:boolean ;
	:ordinal "2"^^xsd:positiveInteger ;
	:reference <http://www.cdisc.org/C67154/V69#C67154_C135472> ;
	:context <http://www.cdisc.org/CT/V69#TH> ;
	:localLabel ""^^xsd:string ;
.
<http://www.assero.co.uk/CHIN#11e10b5b-a8fd-4b4a-8dee-27c780a45f12_TUC1>
	rdf:type :TucReference ;
	isoC:label ""^^xsd:string ;
	:enabled "true"^^xsd:boolean ;
	:optional "false"^^xsd:boolean ;
	:ordinal "1"^^xsd:positiveInteger ;
	:reference <http://www.cdisc.org/C67154/V65#C67154_C135472> ;
	:context <http://www.cdisc.org/CT/V68#TH> ;
	:localLabel ""^^xsd:string ;
.
<http://www.assero.co.uk/CHIN#1dcd4901-6cb7-4331-9559-c0dfa6c1beaa>
	rdf:type ba:ChangeInstruction ;
	isoC:label ""^^xsd:string ;
	ba:reference "CDISC-4781"^^xsd:string ;
	ba:description "C170607 was removed from the MHEDTTYP codelist and replaced with C13680. The modeling was changed in the Psoriasis TAUG to use the Non-Standard Variable --CRNORD to store 'MOST RECENT'. This synonym was added to assist in mapping."^^xsd:string ;
	ba:current <http://www.assero.co.uk/CHIN#1dcd4901-6cb7-4331-9559-c0dfa6c1beaa_TUC2> ;
	ba:ordinal "19"^^xsd:integer ;
	ba:semantic "related terminology"^^xsd:string ;
	ba:previous <http://www.assero.co.uk/CHIN#1dcd4901-6cb7-4331-9559-c0dfa6c1beaa_TUC1> ;
.
<http://www.assero.co.uk/CHIN#1dcd4901-6cb7-4331-9559-c0dfa6c1beaa_TUC2>
	rdf:type :TucReference ;
	isoC:label ""^^xsd:string ;
	:enabled "true"^^xsd:boolean ;
	:optional "false"^^xsd:boolean ;
	:ordinal "2"^^xsd:positiveInteger ;
	:reference <http://www.cdisc.org/C124301/V69#C124301_C113680> ;
	:context <http://www.cdisc.org/CT/V69#TH> ;
	:localLabel ""^^xsd:string ;
.
<http://www.assero.co.uk/CHIN#1dcd4901-6cb7-4331-9559-c0dfa6c1beaa_TUC1>
	rdf:type :TucReference ;
	isoC:label ""^^xsd:string ;
	:enabled "true"^^xsd:boolean ;
	:optional "false"^^xsd:boolean ;
	:ordinal "1"^^xsd:positiveInteger ;
	:reference <http://www.cdisc.org/C124301/V63#C124301_C170607> ;
	:context <http://www.cdisc.org/CT/V68#TH> ;
	:localLabel ""^^xsd:string ;
.
<http://www.assero.co.uk/CHIN#38222232-0909-475c-9df8-3f31fec0bc0c>
	rdf:type ba:ChangeInstruction ;
	isoC:label ""^^xsd:string ;
	ba:reference "CDISC-4595"^^xsd:string ;
	ba:description "The concept 'Number of Live Births' C178141 was mis-coded to C16955/Parity. However these are not synonymous. Because a separate test of PARITY has been added to the RPTEST-CD codelists with P45, the existing term Number of Live Births/BRTHLVN has gotten a new C-code (C178141) while the new concept of Parity has been correctly associated with C16955."^^xsd:string ;
	ba:current <http://www.assero.co.uk/CHIN#38222232-0909-475c-9df8-3f31fec0bc0c_TUC2> ;
	ba:current <http://www.assero.co.uk/CHIN#38222232-0909-475c-9df8-3f31fec0bc0c_TUC3> ;
	ba:ordinal "20"^^xsd:integer ;
	ba:semantic "related terminology"^^xsd:string ;
	ba:previous <http://www.assero.co.uk/CHIN#38222232-0909-475c-9df8-3f31fec0bc0c_TUC1> ;
.
<http://www.assero.co.uk/CHIN#38222232-0909-475c-9df8-3f31fec0bc0c_TUC2>
	rdf:type :TucReference ;
	isoC:label ""^^xsd:string ;
	:enabled "true"^^xsd:boolean ;
	:optional "false"^^xsd:boolean ;
	:ordinal "2"^^xsd:positiveInteger ;
	:reference <http://www.cdisc.org/C106478/V69#C106478_C178141> ;
	:context <http://www.cdisc.org/CT/V69#TH> ;
	:localLabel ""^^xsd:string ;
.
<http://www.assero.co.uk/CHIN#38222232-0909-475c-9df8-3f31fec0bc0c_TUC3>
	rdf:type :TucReference ;
	isoC:label ""^^xsd:string ;
	:enabled "true"^^xsd:boolean ;
	:optional "false"^^xsd:boolean ;
	:ordinal "3"^^xsd:positiveInteger ;
	:reference <http://www.cdisc.org/C106478/V69#C106478_C16955> ;
	:context <http://www.cdisc.org/CT/V69#TH> ;
	:localLabel ""^^xsd:string ;
.
<http://www.assero.co.uk/CHIN#38222232-0909-475c-9df8-3f31fec0bc0c_TUC1>
	rdf:type :TucReference ;
	isoC:label ""^^xsd:string ;
	:enabled "true"^^xsd:boolean ;
	:optional "false"^^xsd:boolean ;
	:ordinal "1"^^xsd:positiveInteger ;
	:reference <http://www.cdisc.org/C106478/V35#C106478_C16955> ;
	:context <http://www.cdisc.org/CT/V68#TH> ;
	:localLabel ""^^xsd:string ;
.
<http://www.assero.co.uk/CHIN#8d07122d-ddc6-4ba5-bb5f-83acaf2d6946>
	rdf:type ba:ChangeInstruction ;
	isoC:label ""^^xsd:string ;
	ba:reference "CDISC-4595"^^xsd:string ;
	ba:description "The concept 'Number of Live Births' C178141 was mis-coded to C16955/Parity. However these are not synonymous. Because a separate test of PARITY has been added to the RPTEST-CD codelists with P45, the existing term Number of Live Births/BRTHLVN has gotten a new C-code (C178141) while the new concept of Parity has been correctly associated with C16955."^^xsd:string ;
	ba:current <http://www.assero.co.uk/CHIN#8d07122d-ddc6-4ba5-bb5f-83acaf2d6946_TUC2> ;
	ba:current <http://www.assero.co.uk/CHIN#8d07122d-ddc6-4ba5-bb5f-83acaf2d6946_TUC3> ;
	ba:ordinal "21"^^xsd:integer ;
	ba:semantic "related terminology"^^xsd:string ;
	ba:previous <http://www.assero.co.uk/CHIN#8d07122d-ddc6-4ba5-bb5f-83acaf2d6946_TUC1> ;
.
<http://www.assero.co.uk/CHIN#8d07122d-ddc6-4ba5-bb5f-83acaf2d6946_TUC2>
	rdf:type :TucReference ;
	isoC:label ""^^xsd:string ;
	:enabled "true"^^xsd:boolean ;
	:optional "false"^^xsd:boolean ;
	:ordinal "2"^^xsd:positiveInteger ;
	:reference <http://www.cdisc.org/C106479/V69#C106479_C178141> ;
	:context <http://www.cdisc.org/CT/V69#TH> ;
	:localLabel ""^^xsd:string ;
.
<http://www.assero.co.uk/CHIN#8d07122d-ddc6-4ba5-bb5f-83acaf2d6946_TUC3>
	rdf:type :TucReference ;
	isoC:label ""^^xsd:string ;
	:enabled "true"^^xsd:boolean ;
	:optional "false"^^xsd:boolean ;
	:ordinal "3"^^xsd:positiveInteger ;
	:reference <http://www.cdisc.org/C106479/V69#C106479_C16955> ;
	:context <http://www.cdisc.org/CT/V69#TH> ;
	:localLabel ""^^xsd:string ;
.
<http://www.assero.co.uk/CHIN#8d07122d-ddc6-4ba5-bb5f-83acaf2d6946_TUC1>
	rdf:type :TucReference ;
	isoC:label ""^^xsd:string ;
	:enabled "true"^^xsd:boolean ;
	:optional "false"^^xsd:boolean ;
	:ordinal "1"^^xsd:positiveInteger ;
	:reference <http://www.cdisc.org/C106479/V35#C106479_C16955> ;
	:context <http://www.cdisc.org/CT/V68#TH> ;
	:localLabel ""^^xsd:string ;
.
<http://www.assero.co.uk/CHIN#91a8381c-f6fe-410c-b35e-ce940da4087d>
	rdf:type ba:ChangeInstruction ;
	isoC:label ""^^xsd:string ;
	ba:reference "CDISC-4656"^^xsd:string ;
	ba:description "C77956 being removed from codelist and will be merged into C77662."^^xsd:string ;
	ba:current <http://www.assero.co.uk/CHIN#91a8381c-f6fe-410c-b35e-ce940da4087d_TUC2> ;
	ba:ordinal "22"^^xsd:integer ;
	ba:semantic "related terminology"^^xsd:string ;
	ba:previous <http://www.assero.co.uk/CHIN#91a8381c-f6fe-410c-b35e-ce940da4087d_TUC1> ;
.
<http://www.assero.co.uk/CHIN#91a8381c-f6fe-410c-b35e-ce940da4087d_TUC2>
	rdf:type :TucReference ;
	isoC:label ""^^xsd:string ;
	:enabled "true"^^xsd:boolean ;
	:optional "false"^^xsd:boolean ;
	:ordinal "2"^^xsd:positiveInteger ;
	:reference <http://www.cdisc.org/C77529/V69#C77529_C77662> ;
	:context <http://www.cdisc.org/CT/V69#TH> ;
	:localLabel ""^^xsd:string ;
.
<http://www.assero.co.uk/CHIN#91a8381c-f6fe-410c-b35e-ce940da4087d_TUC1>
	rdf:type :TucReference ;
	isoC:label ""^^xsd:string ;
	:enabled "true"^^xsd:boolean ;
	:optional "false"^^xsd:boolean ;
	:ordinal "1"^^xsd:positiveInteger ;
	:reference <http://www.cdisc.org/C77529/V51#C77529_C77956> ;
	:context <http://www.cdisc.org/CT/V68#TH> ;
	:localLabel ""^^xsd:string ;
.