---
:columns:
- - Code List Preferred Term
- - Code List Code
- - Code List Submission Value
- - Definition
- - Total number of Items
- - Number of extended items
- - Percentage
:data:
- - Category of Questionnaire
  - C100129
  - QSCAT
  - A grouping of observations within the Questionnaire domain.
  - '115'
  - '3'
  - '2.6'
- - Relationship to Subject
  - C100130
  - RELSUB
  - The relationship of a person to a study subject.
  - '55'
  - '1'
  - '1.8'
- - Findings About Test Code
  - C101832
  - FATESTCD
  - Terminology relevant to the test codes that describe findings about an event or
    intervention.
  - '55'
  - '54'
  - '98.2'
- - Findings About Test Name
  - C101833
  - FATEST
  - Terminology relevant to the test names that describe findings about an event or
    intervention.
  - '55'
  - '54'
  - '98.2'
- - Cardiovascular Test Name
  - C101846
  - CVTEST
  - A terminology codelist to describe the test name for a physiological examination
    of the cardiovascular system.
  - '46'
  - '33'
  - '71.7'
- - Cardiovascular Test Code
  - C101847
  - CVTESTCD
  - A terminology codelist to describe the test code for a physiological examination
    of the cardiovascular system.
  - '46'
  - '33'
  - '71.7'
- - Procedure
  - C101858
  - PROCEDUR
  - A terminology codelist to describe any activity considered to be a therapeutic
    or diagnostic procedure.
  - '55'
  - '5'
  - '9.1'
- - Cardiac Procedure Indication
  - C101859
  - CVPRCIND
  - The reason that a subject had a cardiac procedure.
  - '34'
  - '1'
  - '2.9'
- - Laboratory Test Standard Character Result
  - C102580
  - LBSTRESC
  - Terminology relevant to the standardized results, in character format, for laboratory
    tests.
  - '21'
  - '16'
  - '76.2'
- - Subject Characteristic Test Name
  - C103330
  - SCTEST
  - The test name representing each subject characteristic.
  - '24'
  - '2'
  - '8.3'
- - Reproductive System Findings Test Name
  - C106478
  - RPTEST
  - A terminology codelist for the physiological test names related to the male and
    female reproductive systems.
  - '19'
  - '3'
  - '15.8'
- - Reproductive System Findings Test Code
  - C106479
  - RPTESTCD
  - A terminology codelist for the physiological test codes related to the male and
    female reproductive systems.
  - '19'
  - '3'
  - '15.8'
- - Respiratory Test Code
  - C111106
  - RETESTCD
  - A terminology codelist based on the test codes for physiological findings related
    to the respiratory system, including the organs that are involved in breathing
    such as the nose, throat, larynx, trachea, bronchi and lungs.
  - '47'
  - '5'
  - '10.6'
- - Respiratory Test Name
  - C111107
  - RETEST
  - A terminology codelist based on the test names for physiological findings related
    to the respiratory system, including the organs that are involved in breathing
    such as the nose, throat, larynx, trachea, bronchi and lungs.
  - '47'
  - '5'
  - '10.6'
- - Skin Response Test Name
  - C112023
  - SRTEST
  - A terminology codelist based on the test names for dermal responses to antigens.
  - '9'
  - '1'
  - '11.1'
- - Skin Response Test Code
  - C112024
  - SRTESTCD
  - A terminology codelist based on the test codes for dermal responses to antigens.
  - '9'
  - '1'
  - '11.1'
- - Morphology Test Name
  - C114116
  - MOTEST
  - A terminology codelist based on the test names for macroscopic assessments that
    are seen by the naked eye or observed via procedures such as imaging modalities,
    endoscopy, or other technologies.
  - '38'
  - '4'
  - '10.5'
- - Morphology Test Code
  - C114117
  - MOTESTCD
  - A terminology codelist based on the test codes for macroscopic assessments that
    are seen by the naked eye or observed via procedures such as imaging modalities,
    endoscopy, or other technologies.
  - '38'
  - '4'
  - '10.5'
- - Protocol Milestone
  - C114118
  - PROTMLST
  - A terminology codelist relevant to protocol-specified, point-in-time events during
    a study.
  - '10'
  - '8'
  - '80.0'
- - Category of Functional Test
  - C115304
  - FTCAT
  - A grouping of observations within the Functional Test domain.
  - '9'
  - '1'
  - '11.1'
- - Nervous System Physiology Test Name
  - C116103
  - NVTEST
  - Terminology relevant to the test names that describe nervous system physiology
    findings.
  - '5'
  - '1'
  - '20.0'
- - Nervous System Physiology Test Code
  - C116104
  - NVTESTCD
  - Terminology relevant to the test codes that describe nervous system physiology
    findings.
  - '5'
  - '1'
  - '20.0'
- - Pharmacogenomics Findings Test Name
  - C116105
  - PFTEST
  - Terminology relevant to the test names that describe pharmacogenomics findings.
  - '2'
  - '1'
  - '50.0'
- - Pharmacogenomics Findings Test Code
  - C116106
  - PFTESTCD
  - Terminology relevant to the test codes that describe pharmacogenomics findings.
  - '2'
  - '1'
  - '50.0'
- - Death Details Test Name
  - C116107
  - DDTEST
  - Terminology relevant to the death detail assessment name.
  - '8'
  - '6'
  - '75.0'
- - Death Details Test Code
  - C116108
  - DDTESTCD
  - Terminology relevant to the death detail assessment short name.
  - '8'
  - '6'
  - '75.0'
- - Ophthalmic Exam Test Name
  - C117742
  - OETEST
  - Terminology relevant to the test names that describe findings from ophthalmic
    examinations.
  - '9'
  - '3'
  - '33.3'
- - Ophthalmic Exam Test Code
  - C117743
  - OETESTCD
  - Terminology relevant to the test codes that describe findings from ophthalmic
    examinations.
  - '9'
  - '3'
  - '33.3'
- - Category of Clinical Classification
  - C118971
  - CCCAT
  - A grouping of observations within the Clinical Classification domain.
  - '12'
  - '3'
  - '25.0'
- - Immunogenicity Specimen Assessments Test Code
  - C120525
  - ISTESTCD
  - Terminology relevant to the immunogenicity specimen test codes of the CDISC Study
    Data Tabulation Model.
  - '53'
  - '50'
  - '94.3'
- - Immunogenicity Specimen Assessments Test Name
  - C120526
  - ISTEST
  - Terminology relevant to the immunogenicity specimen test names of the CDISC Study
    Data Tabulation Model.
  - '53'
  - '50'
  - '94.3'
- - Microbiology Test Code
  - C120527
  - MBTESTCD
  - Terminology relevant to the microbiology test codes of the CDISC Study Data Tabulation
    Model.
  - '5'
  - '1'
  - '20.0'
- - Microbiology Test Name
  - C120528
  - MBTEST
  - Terminology relevant to the microbiology test names of the CDISC Study Data Tabulation
    Model.
  - '5'
  - '1'
  - '20.0'
- - Laboratory Test Code
  - C65047
  - LBTESTCD
  - Terminology used for laboratory test codes of the CDISC Study Data Tabulation
    Model.
  - '1561'
  - '326'
  - '20.9'
- - Completion/Reason for Non-Completion
  - C66727
  - NCOMPLT
  - The status of the subject's completion of the study or a segment of the study,
    or the reason the subject discontinued the study or segment of the study.
  - '32'
  - '12'
  - '37.5'
- - Route of Administration
  - C66729
  - ROUTE
  - The course by which a substance was administered in order to reach the site of
    action in the body.
  - '126'
  - '3'
  - '2.4'
- - SDTM Domain Abbreviation
  - C66734
  - DOMAIN
  - A unique, 2-character domain code used in the regulatory submission process. The
    domain abbreviation is used consistently throughout the submission, i.e. in the
    dataset name, as the value of the domain variable within the dataset, and as a
    prefix for most variable names in the dataset. (CDISC Glossary)
  - '85'
  - '1'
  - '1.2'
- - Vital Signs Test Code
  - C66741
  - VSTESTCD
  - The test code given to the test that analyzes a particular set of vital signs
    including temperature, respiratory rate, heart rate, and blood pressure.
  - '30'
  - '2'
  - '6.7'
- - Action Taken with Study Treatment
  - C66767
  - ACN
  - Terminology specifying changes to the study treatment as a result of an adverse
    event.
  - '8'
  - '1'
  - '12.5'
- - Vital Signs Test Name
  - C67153
  - VSTEST
  - The test name given to the test that analyzes a particular set of vital signs
    including temperature, respiratory rate, heart rate, and blood pressure.
  - '30'
  - '2'
  - '6.7'
- - Laboratory Test Name
  - C67154
  - LBTEST
  - Terminology used for laboratory test names of the CDISC Study Data Tabulation
    Model.
  - '1561'
  - '326'
  - '20.9'
- - Frequency
  - C71113
  - FREQ
  - The terminology that includes terms pertaining to frequency within CDISC.
  - '77'
  - '5'
  - '6.5'
- - Position
  - C71148
  - POSITION
  - Terminology codelist used with Body Position within CDISC.
  - '17'
  - '2'
  - '11.8'
- - ECG Test Name
  - C71152
  - EGTEST
  - Terminology codelist used with ECG Test Names within CDISC.
  - '142'
  - '11'
  - '7.7'
- - ECG Test Code
  - C71153
  - EGTESTCD
  - Terminology codelist used with ECG Tests within CDISC.
  - '142'
  - '11'
  - '7.7'
- - Unit
  - C71620
  - UNIT
  - Terminology codelist used for units within CDISC.
  - '637'
  - '69'
  - '10.8'
- - Anatomical Location
  - C74456
  - LOC
  - Terminology codelist used for anatomical location within CDISC.
  - '785'
  - '36'
  - '4.6'
- - Race
  - C74457
  - RACE
  - Terminology codelist used to identify the race of an individual within the Clinical
    Data Interchange Standards Consortium Study Data Tabulation Model.
  - '6'
  - '1'
  - '16.7'
- - Subject Characteristic Test Code
  - C74559
  - SCTESTCD
  - The test code representing each subject characteristic.
  - '24'
  - '2'
  - '8.3'
- - Marital Status
  - C76348
  - MARISTAT
  - A demographic parameter indicating a person's current conjugal status.
  - '10'
  - '1'
  - '10.0'
- - Drug Accountability Test Name
  - C78731
  - DATEST
  - The name of the test for the drug accountability assessment.
  - '3'
  - '1'
  - '33.3'
- - Drug Accountability Test Code
  - C78732
  - DATESTCD
  - The short name, or code, of the test for the drug accountability assessment.
  - '3'
  - '1'
  - '33.3'
- - Specimen Condition
  - C78733
  - SPECCOND
  - The physical state or quality of a biological specimen.
  - '42'
  - '29'
  - '69.0'
- - Specimen Type
  - C78734
  - SPECTYPE
  - The name and description of a biological specimen.
  - '89'
  - '13'
  - '14.6'
- - Derivation Type
  - C81224
  - DTYPE
  - 'Derivation Type: Analysis value derivation method.'
  - '25'
  - '8'
  - '32.0'
- - Microorganism
  - C85491
  - MICROORG
  - Microorganisms, bacteria, fungi and other organisms.
  - '1073'
  - '1'
  - '0.1'
- - Method
  - C85492
  - METHOD
  - Method is any technique or procedure (an action) that determines how an observation
    or clinical finding was made.
  - '308'
  - '91'
  - '29.5'
- - Neoplasm Type
  - C88025
  - NEOPLASM
  - The terminology that includes concepts relevant to benign or malignant tissue
    growth.
  - '323'
  - '1'
  - '0.3'
- - Microscopic Findings Test Name
  - C89973
  - MITEST
  - Terminology for the test names concerned with the findings from a specimen that
    are visible by microscopic analysis.
  - '14'
  - '8'
  - '57.1'
- - Microscopic Findings Test Code
  - C89974
  - MITESTCD
  - Terminology for the test codes concerned with the findings from a specimen that
    are visible by microscopic analysis.
  - '14'
  - '8'
  - '57.1'
- - Tumor or Lesion Properties Test Name
  - C96778
  - TRTEST
  - Terminology relevant to the test names that describe the assessment or measurement
    of a tumor, lesion or site of disease.
  - '39'
  - '2'
  - '5.1'
- - Tumor or Lesion Properties Test Code
  - C96779
  - TRTESTCD
  - Terminology relevant to the test codes that describe the assessment or measurement
    of a tumor, lesion or site of disease.
  - '39'
  - '2'
  - '5.1'
- - Tumor Response Assessment Test Name
  - C96781
  - RSTEST
  - Terminology relevant to the test names that describe an assessment of tumor response
    to treatment or therapy.
  - '12'
  - '6'
  - '50.0'
- - Tumor Response Assessment Test Code
  - C96782
  - RSTESTCD
  - Terminology relevant to the test codes that describe an assessment of tumor response
    to treatment or therapy.
  - '12'
  - '6'
  - '50.0'
- - Tumor Identification Test Name
  - C96783
  - TUTEST
  - Terminology relevant to the test names that describe tumor assessments for identification
    purposes.
  - '8'
  - '1'
  - '12.5'
- - Tumor Identification Test Code
  - C96784
  - TUTESTCD
  - Terminology relevant to the test codes that describe tumor assessments for identification
    purposes.
  - '8'
  - '1'
  - '12.5'
- - Tumor Response Result
  - C96785
  - RSSTRESC
  - The result of an assessment of tumor response to treatment or therapy.
  - '18'
  - '8'
  - '44.4'
- - Epoch
  - C99079
  - EPOCH
  - The name of the EPOCH.
  - '28'
  - '20'
  - '71.4'
