---
:columns:
- - Code List Preferred Term
- - Code List Code
- - Code List Submission Value
- - Definition
- - Total number of Items
- - Number of extended items
- - Percentage
:data:
- - Category of Questionnaire
  - C100129
  - QSCAT
  - A grouping of observations within the Questionnaires domain.
  - '212'
  - '4'
  - '1.9'
- - Cardiovascular Test Name
  - C101846
  - CVTEST
  - A terminology codelist to describe the test name for a physiological examination
    of the cardiovascular system.
  - '178'
  - '30'
  - '16.9'
- - Cardiovascular Test Code
  - C101847
  - CVTESTCD
  - A terminology codelist to describe the test code for a physiological examination
    of the cardiovascular system.
  - '178'
  - '30'
  - '16.9'
- - Procedure
  - C101858
  - PROCEDUR
  - A terminology codelist to describe any activity considered to be a therapeutic
    or diagnostic procedure.
  - '63'
  - '4'
  - '6.3'
- - Cardiac Procedure Indication
  - C101859
  - CVPRCIND
  - The reason that a subject had a cardiac procedure.
  - '34'
  - '1'
  - '2.9'
- - Laboratory Test Standard Character Result
  - C102580
  - LBSTRESC
  - Terminology relevant to the standardized results, in character format, for laboratory
    tests.
  - '21'
  - '16'
  - '76.2'
- - Subject Characteristic Test Name
  - C103330
  - SCTEST
  - The test name representing each subject characteristic.
  - '35'
  - '2'
  - '5.7'
- - Reproductive System Findings Test Name
  - C106478
  - RPTEST
  - A terminology codelist for the physiological test names related to the male and
    female reproductive systems.
  - '33'
  - '3'
  - '9.1'
- - Reproductive System Findings Test Code
  - C106479
  - RPTESTCD
  - A terminology codelist for the physiological test codes related to the male and
    female reproductive systems.
  - '33'
  - '3'
  - '9.1'
- - Respiratory Test Code
  - C111106
  - RETESTCD
  - A terminology codelist based on the test codes for physiological findings related
    to the respiratory system, including the organs that are involved in breathing
    such as the nose, throat, larynx, trachea, bronchi and lungs.
  - '96'
  - '3'
  - '3.1'
- - Respiratory Test Name
  - C111107
  - RETEST
  - A terminology codelist based on the test names for physiological findings related
    to the respiratory system, including the organs that are involved in breathing
    such as the nose, throat, larynx, trachea, bronchi and lungs.
  - '96'
  - '3'
  - '3.1'
- - Skin Response Test Name
  - C112023
  - SRTEST
  - A terminology codelist based on the test names for dermal responses to antigens.
  - '13'
  - '1'
  - '7.7'
- - Skin Response Test Code
  - C112024
  - SRTESTCD
  - A terminology codelist based on the test codes for dermal responses to antigens.
  - '13'
  - '1'
  - '7.7'
- - Protocol Milestone
  - C114118
  - PROTMLST
  - A terminology codelist relevant to protocol-specified, point-in-time events during
    a study.
  - '11'
  - '8'
  - '72.7'
- - Category of Functional Test
  - C115304
  - FTCAT
  - A grouping of observations within the Functional Tests domain.
  - '16'
  - '2'
  - '12.5'
- - Nervous System Physiology Test Name
  - C116103
  - NVTEST
  - Terminology relevant to the test names that describe nervous system physiology
    findings.
  - '9'
  - '1'
  - '11.1'
- - Nervous System Physiology Test Code
  - C116104
  - NVTESTCD
  - Terminology relevant to the test codes that describe nervous system physiology
    findings.
  - '9'
  - '1'
  - '11.1'
- - Pharmacogenomics Findings Test Name
  - C116105
  - PFTEST
  - Terminology relevant to the test names that describe pharmacogenomics findings.
  - '14'
  - '1'
  - '7.1'
- - Pharmacogenomics Findings Test Code
  - C116106
  - PFTESTCD
  - Terminology relevant to the test codes that describe pharmacogenomics findings.
  - '14'
  - '1'
  - '7.1'
- - SDTM Death Diagnosis Test Name
  - C116107
  - DTHDX
  - Terminology relevant to the test names that describe the death diagnosis.
  - '12'
  - '5'
  - '41.7'
- - SDTM Death Diagnosis Test Code
  - C116108
  - DTHDXCD
  - Terminology relevant to the test codes that describe the death diagnosis.
  - '12'
  - '5'
  - '41.7'
- - Ophthalmic Exam Test Name
  - C117742
  - OETEST
  - Terminology relevant to the test names that describe findings from ophthalmic
    examinations.
  - '30'
  - '2'
  - '6.7'
- - Ophthalmic Exam Test Code
  - C117743
  - OETESTCD
  - Terminology relevant to the test codes that describe findings from ophthalmic
    examinations.
  - '30'
  - '2'
  - '6.7'
- - Immunogenicity Specimen Assessments Test Code
  - C120525
  - ISTESTCD
  - Terminology relevant to the immunogenicity specimen test codes of the CDISC Study
    Data Tabulation Model.
  - '8'
  - '2'
  - '25.0'
- - Immunogenicity Specimen Assessments Test Name
  - C120526
  - ISTEST
  - Terminology relevant to the immunogenicity specimen test names of the CDISC Study
    Data Tabulation Model.
  - '8'
  - '2'
  - '25.0'
- - Microbiology Test Code
  - C120527
  - MBTESTCD
  - Terminology relevant to the microbiology test codes of the CDISC Study Data Tabulation
    Model.
  - '21'
  - '1'
  - '4.8'
- - Microbiology Test Name
  - C120528
  - MBTEST
  - Terminology relevant to the microbiology test names of the CDISC Study Data Tabulation
    Model.
  - '21'
  - '1'
  - '4.8'
- - Category of Oncology Response Assessment
  - C124298
  - ONCRSCAT
  - The named criteria used for the grouping of assessments of response to treatment
    or therapy observations for oncology studies within the Disease Response and Clinical
    Classification domain.
  - '74'
  - '5'
  - '6.8'
- - Medical History Event Date Type
  - C124301
  - MHEDTTYP
  - Terminology relevant to the classification of the medical condition or event by
    which MHSTDTC is defined.
  - '6'
  - '2'
  - '33.3'
- - Subject Status Test Code
  - C124305
  - SSTESTCD
  - Terminology relevant to test code for subject characteristics that are evaluated
    periodically to determine if they have changed.
  - '2'
  - '1'
  - '50.0'
- - Subject Status Test Name
  - C124306
  - SSTEST
  - Terminology relevant to test name for subject characteristics that are evaluated
    periodically to determine if they have changed.
  - '2'
  - '1'
  - '50.0'
- - Tuberculosis Findings About Test Code
  - C127266
  - TBFATSCD
  - Terminology relevant to the test codes that describe findings about a tuberculosis
    event or intervention.
  - '6'
  - '2'
  - '33.3'
- - Tuberculosis Findings About Test Name
  - C127267
  - TBFATS
  - Terminology relevant to the test names that describe findings about a tuberculosis
    event or intervention.
  - '6'
  - '2'
  - '33.3'
- - Musculoskeletal System Finding Test Code
  - C127269
  - MUSCTSCD
  - A terminology codelist to describe the test code for a physiological examination
    of the musculoskeletal system.
  - '35'
  - '3'
  - '8.6'
- - Musculoskeletal System Finding Test Name
  - C127270
  - MUSCTS
  - A terminology codelist to describe the test name for a physiological examination
    of the musculoskeletal system.
  - '35'
  - '3'
  - '8.6'
- - Race As Collected
  - C128689
  - RACEC
  - A terminology codelist relevant to the race of an individual as collected on the
    case report form.
  - '81'
  - '4'
  - '4.9'
- - Specimen Collection Method
  - C132314
  - CLMETH
  - Terminology relevant to the method used in specimen collection.
  - '7'
  - '1'
  - '14.3'
- - Genetic Region of Interest Type
  - C132317
  - GENRTYP
  - Terminology relevant to the classification of the genetic region under study.
  - '3'
  - '1'
  - '33.3'
- - Laboratory Test Code
  - C65047
  - LBTESTCD
  - Terminology used for laboratory test codes of the CDISC Study Data Tabulation
    Model.
  - '2476'
  - '865'
  - '34.9'
- - Completion/Reason for Non-Completion
  - C66727
  - NCOMPLT
  - The status of the subject's completion of the study or a segment of the study,
    or the reason the subject discontinued the study or segment of the study.
  - '38'
  - '12'
  - '31.6'
- - Route of Administration Response
  - C66729
  - ROUTE
  - A terminology codelist relevant to the course by which a substance is administered
    in order to reach the site of action in the body.
  - '131'
  - '2'
  - '1.5'
- - SDTM Domain Abbreviation
  - C66734
  - DOMAIN
  - A unique, 2-character domain code used in the regulatory submission process. The
    domain abbreviation is used consistently throughout the submission, i.e. in the
    dataset name, as the value of the domain variable within the dataset, and as a
    prefix for most variable names in the dataset. (CDISC Glossary)
  - '88'
  - '3'
  - '3.4'
- - Vital Signs Test Code
  - C66741
  - VSTESTCD
  - The test code given to the test that analyzes a particular set of vital signs
    including temperature, respiratory rate, heart rate, and blood pressure.
  - '34'
  - '2'
  - '5.9'
- - Action Taken with Study Treatment
  - C66767
  - ACN
  - Terminology specifying changes to the study treatment as a result of an adverse
    event.
  - '8'
  - '1'
  - '12.5'
- - Vital Signs Test Name
  - C67153
  - VSTEST
  - The test name given to the test that analyzes a particular set of vital signs
    including temperature, respiratory rate, heart rate, and blood pressure.
  - '34'
  - '2'
  - '5.9'
- - Laboratory Test Name
  - C67154
  - LBTEST
  - Terminology used for laboratory test names of the CDISC Study Data Tabulation
    Model.
  - '2476'
  - '865'
  - '34.9'
- - Frequency
  - C71113
  - FREQ
  - The terminology that includes terms pertaining to frequency within CDISC.
  - '89'
  - '5'
  - '5.6'
- - Position
  - C71148
  - POSITION
  - Terminology codelist used with Body Position within CDISC.
  - '17'
  - '2'
  - '11.8'
- - ECG Test Name
  - C71152
  - EGTEST
  - Terminology codelist used with ECG Test Names within CDISC.
  - '118'
  - '11'
  - '9.3'
- - ECG Test Code
  - C71153
  - EGTESTCD
  - Terminology codelist used with ECG Tests within CDISC.
  - '118'
  - '11'
  - '9.3'
- - Unit
  - C71620
  - UNIT
  - Terminology codelist used for units within CDISC.
  - '1556'
  - '883'
  - '56.7'
- - Anatomical Location
  - C74456
  - LOC
  - Terminology codelist used for anatomical location within CDISC.
  - '946'
  - '30'
  - '3.2'
- - Race
  - C74457
  - RACE
  - Terminology codelist used to identify the race of an individual within the Clinical
    Data Interchange Standards Consortium Study Data Tabulation Model.
  - '6'
  - '1'
  - '16.7'
- - Subject Characteristic Test Code
  - C74559
  - SCTESTCD
  - The test code representing each subject characteristic.
  - '35'
  - '2'
  - '5.7'
- - Marital Status Response
  - C76348
  - MARISTAT
  - A terminology codelist relevant to a person's current conjugal status.
  - '10'
  - '1'
  - '10.0'
- - Drug Accountability Test Name
  - C78731
  - DATEST
  - The name of the test for the drug accountability assessment.
  - '3'
  - '1'
  - '33.3'
- - Drug Accountability Test Code
  - C78732
  - DATESTCD
  - The short name, or code, of the test for the drug accountability assessment.
  - '3'
  - '1'
  - '33.3'
- - Specimen Condition
  - C78733
  - SPECCOND
  - The physical state or quality of a biological specimen.
  - '46'
  - '29'
  - '63.0'
- - Specimen Type
  - C78734
  - SPECTYPE
  - The name and description of a biological specimen.
  - '101'
  - '13'
  - '12.9'
- - Evaluator
  - C78735
  - EVAL
  - The role that the individual or entity plays with respect to a specific situation
    or person.
  - '21'
  - '1'
  - '4.8'
- - Derivation Type
  - C81224
  - DTYPE
  - 'Derivation Type: Analysis value derivation method.'
  - '30'
  - '8'
  - '26.7'
- - Microorganism
  - C85491
  - MICROORG
  - Microorganisms, bacteria, fungi and other organisms.
  - '1507'
  - '1'
  - '0.1'
- - Method
  - C85492
  - METHOD
  - Method is any technique or procedure (an action) that determines how an observation
    or clinical finding was made.
  - '369'
  - '87'
  - '23.6'
- - PK Units of Measure
  - C85494
  - PKUNIT
  - Units of measure for pharmacokinetic data and parameters.
  - '296'
  - '3'
  - '1.0'
- - Tumor or Lesion Properties Test Name
  - C96778
  - TRTEST
  - Terminology relevant to the test names that describe the assessment or measurement
    of a tumor, lesion or site of disease.
  - '57'
  - '1'
  - '1.8'
- - Tumor or Lesion Properties Test Code
  - C96779
  - TRTESTCD
  - Terminology relevant to the test codes that describe the assessment or measurement
    of a tumor, lesion or site of disease.
  - '57'
  - '1'
  - '1.8'
- - Oncology Response Assessment Test Name
  - C96781
  - ONCRTS
  - Terminology for oncology studies relevant to the test names that describe an assessment
    of response to treatment or therapy within the disease response and clinical classification
    domain.
  - '35'
  - '8'
  - '22.9'
- - Oncology Response Assessment Test Code
  - C96782
  - ONCRTSCD
  - Terminology for oncology studies relevant to the test codes that describe an assessment
    of response to treatment or therapy within the disease response and clinical classification
    domain.
  - '35'
  - '8'
  - '22.9'
- - Tumor or Lesion Identification Test Name
  - C96783
  - TUTEST
  - Terminology relevant to the test names that describe tumor or lesion assessments
    for identification purposes.
  - '9'
  - '1'
  - '11.1'
- - Tumor or Lesion Identification Test Code
  - C96784
  - TUTESTCD
  - Terminology relevant to the test codes that describe tumor or lesion assessments
    for identification purposes.
  - '9'
  - '1'
  - '11.1'
- - Oncology Response Assessment Result
  - C96785
  - ONCRSR
  - Terminology for oncology studies relevant to the result of response to treatment
    or therapy assessment within the disease response and clinical classification
    domain.
  - '78'
  - '8'
  - '10.3'
- - Epoch
  - C99079
  - EPOCH
  - The name of the EPOCH.
  - '31'
  - '20'
  - '64.5'
