---
:type: http://www.assero.co.uk/BusinessDomain#ClassDomain
:id: M-CDISC_SDTMMODELEVENTS
:namespace: http://www.assero.co.uk/MDRSdtmMd/CDISC/V1
:label: Events
:extension_properties: []
:origin: ''
:change_description: ''
:creation_date: '2017-01-01T00:00:00+00:00'
:last_changed_date: '2017-01-01T00:00:00+00:00'
:explanatory_comment: ''
:registration_state:
  :namespace: http://www.assero.co.uk/MDRItems
  :id: RS-CDISC_SDTMMODELEVENTS-1
  :registration_authority:
    :id: aHR0cDovL3d3dy5hc3Nlcm8uY28udWsvUkEjRFVOUzA4NDQzMzc1OQ==
    :uri: http://www.assero.co.uk/RA#DUNS084433759
    :rdf_type: http://www.assero.co.uk/ISO11179Registration#RegistrationAuthority
    :organization_identifier: '084433759'
    :international_code_designator: DUNS
    :owner: false
    :ra_namespace:
      :id: aHR0cDovL3d3dy5hc3Nlcm8uY28udWsvTlMjQ0RJU0M=
      :uri: http://www.assero.co.uk/NS#CDISC
      :rdf_type: http://www.assero.co.uk/ISO11179Identification#Namespace
      :short_name: CDISC
      :name: Clinical Data Interchange Standards Consortium
      :authority: www.cdisc.org
  :registration_status: Standard
  :administrative_note: ''
  :effective_date: '2016-01-01T00:00:00+00:00'
  :until_date: '2016-01-01T00:00:00+00:00'
  :current: false
  :unresolved_issue: ''
  :administrative_status: ''
  :previous_state: Incomplete
:scoped_identifier:
  :id: SI-CDISC_SDTMMODELEVENTS-1
  :identifier: SDTMMODEL EVENTS
  :version_label: Version Label
  :version: 1
  :semantic_version: 0.0.0
  :namespace:
    :id: aHR0cDovL3d3dy5hc3Nlcm8uY28udWsvTlMjQ0RJU0M=
    :uri: http://www.assero.co.uk/NS#CDISC
    :rdf_type: http://www.assero.co.uk/ISO11179Identification#Namespace
    :short_name: CDISC
    :name: Clinical Data Interchange Standards Consortium
    :authority: www.cdisc.org
:ordinal: 1
:rule: ''
:children:
- :type: http://www.assero.co.uk/BusinessDomain#ClassVariable
  :id: M-CDISC_SDTMMODELEVENTS_STUDYID
  :namespace: http://www.assero.co.uk/MDRSdtmMd/CDISC/V1
  :label: Study Identifier
  :extension_properties: []
  :ordinal: 1
  :rule: ''
  :name: STUDYID
  :variable_ref:
    :type: http://www.assero.co.uk/BusinessOperational#CReference
    :id: M-CDISC_SDTMMODELEVENTS_STUDYID_CR1
    :namespace: http://www.assero.co.uk/MDRSdtmMd/CDISC/V1
    :label: Based on Variable Reference
    :extension_properties: []
    :enabled: true
    :optional: false
    :ordinal: 1
    :local_label: ''
    :subject_ref:
      :namespace: http://www.assero.co.uk/MDRSdtmM/CDISC/V1
      :id: M-CDISC_SDTMMODEL_STUDYID
- :type: http://www.assero.co.uk/BusinessDomain#ClassVariable
  :id: M-CDISC_SDTMMODELEVENTS_DOMAIN
  :namespace: http://www.assero.co.uk/MDRSdtmMd/CDISC/V1
  :label: Domain Abbreviation
  :extension_properties: []
  :ordinal: 2
  :rule: ''
  :name: DOMAIN
  :variable_ref:
    :type: http://www.assero.co.uk/BusinessOperational#CReference
    :id: M-CDISC_SDTMMODELEVENTS_DOMAIN_CR1
    :namespace: http://www.assero.co.uk/MDRSdtmMd/CDISC/V1
    :label: Based on Variable Reference
    :extension_properties: []
    :enabled: true
    :optional: false
    :ordinal: 2
    :local_label: ''
    :subject_ref:
      :namespace: http://www.assero.co.uk/MDRSdtmM/CDISC/V1
      :id: M-CDISC_SDTMMODEL_DOMAIN
- :type: http://www.assero.co.uk/BusinessDomain#ClassVariable
  :id: M-CDISC_SDTMMODELEVENTS_USUBJID
  :namespace: http://www.assero.co.uk/MDRSdtmMd/CDISC/V1
  :label: Unique Subject Identifier
  :extension_properties: []
  :ordinal: 3
  :rule: ''
  :name: USUBJID
  :variable_ref:
    :type: http://www.assero.co.uk/BusinessOperational#CReference
    :id: M-CDISC_SDTMMODELEVENTS_USUBJID_CR1
    :namespace: http://www.assero.co.uk/MDRSdtmMd/CDISC/V1
    :label: Based on Variable Reference
    :extension_properties: []
    :enabled: true
    :optional: false
    :ordinal: 3
    :local_label: ''
    :subject_ref:
      :namespace: http://www.assero.co.uk/MDRSdtmM/CDISC/V1
      :id: M-CDISC_SDTMMODEL_USUBJID
- :type: http://www.assero.co.uk/BusinessDomain#ClassVariable
  :id: M-CDISC_SDTMMODELEVENTS_POOLID
  :namespace: http://www.assero.co.uk/MDRSdtmMd/CDISC/V1
  :label: Pool Identifier
  :extension_properties: []
  :ordinal: 4
  :rule: ''
  :name: POOLID
  :variable_ref:
    :type: http://www.assero.co.uk/BusinessOperational#CReference
    :id: M-CDISC_SDTMMODELEVENTS_POOLID_CR1
    :namespace: http://www.assero.co.uk/MDRSdtmMd/CDISC/V1
    :label: Based on Variable Reference
    :extension_properties: []
    :enabled: true
    :optional: false
    :ordinal: 4
    :local_label: ''
    :subject_ref:
      :namespace: http://www.assero.co.uk/MDRSdtmM/CDISC/V1
      :id: M-CDISC_SDTMMODEL_POOLID
- :type: http://www.assero.co.uk/BusinessDomain#ClassVariable
  :id: M-CDISC_SDTMMODELEVENTS_SPDEVID
  :namespace: http://www.assero.co.uk/MDRSdtmMd/CDISC/V1
  :label: Sponsor Device Identifier
  :extension_properties: []
  :ordinal: 5
  :rule: ''
  :name: SPDEVID
  :variable_ref:
    :type: http://www.assero.co.uk/BusinessOperational#CReference
    :id: M-CDISC_SDTMMODELEVENTS_SPDEVID_CR1
    :namespace: http://www.assero.co.uk/MDRSdtmMd/CDISC/V1
    :label: Based on Variable Reference
    :extension_properties: []
    :enabled: true
    :optional: false
    :ordinal: 5
    :local_label: ''
    :subject_ref:
      :namespace: http://www.assero.co.uk/MDRSdtmM/CDISC/V1
      :id: M-CDISC_SDTMMODEL_SPDEVID
- :type: http://www.assero.co.uk/BusinessDomain#ClassVariable
  :id: M-CDISC_SDTMMODELEVENTS_xxSEQ
  :namespace: http://www.assero.co.uk/MDRSdtmMd/CDISC/V1
  :label: Sequence Number
  :extension_properties: []
  :ordinal: 6
  :rule: ''
  :name: "--SEQ"
  :variable_ref:
    :type: http://www.assero.co.uk/BusinessOperational#CReference
    :id: M-CDISC_SDTMMODELEVENTS_xxSEQ_CR1
    :namespace: http://www.assero.co.uk/MDRSdtmMd/CDISC/V1
    :label: Based on Variable Reference
    :extension_properties: []
    :enabled: true
    :optional: false
    :ordinal: 6
    :local_label: ''
    :subject_ref:
      :namespace: http://www.assero.co.uk/MDRSdtmM/CDISC/V1
      :id: M-CDISC_SDTMMODEL_xxSEQ
- :type: http://www.assero.co.uk/BusinessDomain#ClassVariable
  :id: M-CDISC_SDTMMODELEVENTS_xxGRPID
  :namespace: http://www.assero.co.uk/MDRSdtmMd/CDISC/V1
  :label: Group ID
  :extension_properties: []
  :ordinal: 7
  :rule: ''
  :name: "--GRPID"
  :variable_ref:
    :type: http://www.assero.co.uk/BusinessOperational#CReference
    :id: M-CDISC_SDTMMODELEVENTS_xxGRPID_CR1
    :namespace: http://www.assero.co.uk/MDRSdtmMd/CDISC/V1
    :label: Based on Variable Reference
    :extension_properties: []
    :enabled: true
    :optional: false
    :ordinal: 7
    :local_label: ''
    :subject_ref:
      :namespace: http://www.assero.co.uk/MDRSdtmM/CDISC/V1
      :id: M-CDISC_SDTMMODEL_xxGRPID
- :type: http://www.assero.co.uk/BusinessDomain#ClassVariable
  :id: M-CDISC_SDTMMODELEVENTS_xxREFID
  :namespace: http://www.assero.co.uk/MDRSdtmMd/CDISC/V1
  :label: Reference ID
  :extension_properties: []
  :ordinal: 8
  :rule: ''
  :name: "--REFID"
  :variable_ref:
    :type: http://www.assero.co.uk/BusinessOperational#CReference
    :id: M-CDISC_SDTMMODELEVENTS_xxREFID_CR1
    :namespace: http://www.assero.co.uk/MDRSdtmMd/CDISC/V1
    :label: Based on Variable Reference
    :extension_properties: []
    :enabled: true
    :optional: false
    :ordinal: 8
    :local_label: ''
    :subject_ref:
      :namespace: http://www.assero.co.uk/MDRSdtmM/CDISC/V1
      :id: M-CDISC_SDTMMODEL_xxREFID
- :type: http://www.assero.co.uk/BusinessDomain#ClassVariable
  :id: M-CDISC_SDTMMODELEVENTS_xxSPID
  :namespace: http://www.assero.co.uk/MDRSdtmMd/CDISC/V1
  :label: Sponsor-Defined Identifier
  :extension_properties: []
  :ordinal: 9
  :rule: ''
  :name: "--SPID"
  :variable_ref:
    :type: http://www.assero.co.uk/BusinessOperational#CReference
    :id: M-CDISC_SDTMMODELEVENTS_xxSPID_CR1
    :namespace: http://www.assero.co.uk/MDRSdtmMd/CDISC/V1
    :label: Based on Variable Reference
    :extension_properties: []
    :enabled: true
    :optional: false
    :ordinal: 9
    :local_label: ''
    :subject_ref:
      :namespace: http://www.assero.co.uk/MDRSdtmM/CDISC/V1
      :id: M-CDISC_SDTMMODEL_xxSPID
- :type: http://www.assero.co.uk/BusinessDomain#ClassVariable
  :id: M-CDISC_SDTMMODELEVENTS_xxLNKID
  :namespace: http://www.assero.co.uk/MDRSdtmMd/CDISC/V1
  :label: Link ID
  :extension_properties: []
  :ordinal: 10
  :rule: ''
  :name: "--LNKID"
  :variable_ref:
    :type: http://www.assero.co.uk/BusinessOperational#CReference
    :id: M-CDISC_SDTMMODELEVENTS_xxLNKID_CR1
    :namespace: http://www.assero.co.uk/MDRSdtmMd/CDISC/V1
    :label: Based on Variable Reference
    :extension_properties: []
    :enabled: true
    :optional: false
    :ordinal: 10
    :local_label: ''
    :subject_ref:
      :namespace: http://www.assero.co.uk/MDRSdtmM/CDISC/V1
      :id: M-CDISC_SDTMMODEL_xxLNKID
- :type: http://www.assero.co.uk/BusinessDomain#ClassVariable
  :id: M-CDISC_SDTMMODELEVENTS_xxLNKGRP
  :namespace: http://www.assero.co.uk/MDRSdtmMd/CDISC/V1
  :label: Link Group ID
  :extension_properties: []
  :ordinal: 11
  :rule: ''
  :name: "--LNKGRP"
  :variable_ref:
    :type: http://www.assero.co.uk/BusinessOperational#CReference
    :id: M-CDISC_SDTMMODELEVENTS_xxLNKGRP_CR1
    :namespace: http://www.assero.co.uk/MDRSdtmMd/CDISC/V1
    :label: Based on Variable Reference
    :extension_properties: []
    :enabled: true
    :optional: false
    :ordinal: 11
    :local_label: ''
    :subject_ref:
      :namespace: http://www.assero.co.uk/MDRSdtmM/CDISC/V1
      :id: M-CDISC_SDTMMODEL_xxLNKGRP
- :type: http://www.assero.co.uk/BusinessDomain#ClassVariable
  :id: M-CDISC_SDTMMODELEVENTS_xxTERM
  :namespace: http://www.assero.co.uk/MDRSdtmMd/CDISC/V1
  :label: Reported Term
  :extension_properties: []
  :ordinal: 12
  :rule: ''
  :name: "--TERM"
  :variable_ref:
    :type: http://www.assero.co.uk/BusinessOperational#CReference
    :id: M-CDISC_SDTMMODELEVENTS_xxTERM_CR1
    :namespace: http://www.assero.co.uk/MDRSdtmMd/CDISC/V1
    :label: Based on Variable Reference
    :extension_properties: []
    :enabled: true
    :optional: false
    :ordinal: 12
    :local_label: ''
    :subject_ref:
      :namespace: http://www.assero.co.uk/MDRSdtmM/CDISC/V1
      :id: M-CDISC_SDTMMODEL_xxTERM
- :type: http://www.assero.co.uk/BusinessDomain#ClassVariable
  :id: M-CDISC_SDTMMODELEVENTS_xxMODIFY
  :namespace: http://www.assero.co.uk/MDRSdtmMd/CDISC/V1
  :label: Modified Reported Term
  :extension_properties: []
  :ordinal: 13
  :rule: ''
  :name: "--MODIFY"
  :variable_ref:
    :type: http://www.assero.co.uk/BusinessOperational#CReference
    :id: M-CDISC_SDTMMODELEVENTS_xxMODIFY_CR1
    :namespace: http://www.assero.co.uk/MDRSdtmMd/CDISC/V1
    :label: Based on Variable Reference
    :extension_properties: []
    :enabled: true
    :optional: false
    :ordinal: 13
    :local_label: ''
    :subject_ref:
      :namespace: http://www.assero.co.uk/MDRSdtmM/CDISC/V1
      :id: M-CDISC_SDTMMODEL_xxMODIFY
- :type: http://www.assero.co.uk/BusinessDomain#ClassVariable
  :id: M-CDISC_SDTMMODELEVENTS_xxLLT
  :namespace: http://www.assero.co.uk/MDRSdtmMd/CDISC/V1
  :label: Lowest Level Term
  :extension_properties: []
  :ordinal: 14
  :rule: ''
  :name: "--LLT"
  :variable_ref:
    :type: http://www.assero.co.uk/BusinessOperational#CReference
    :id: M-CDISC_SDTMMODELEVENTS_xxLLT_CR1
    :namespace: http://www.assero.co.uk/MDRSdtmMd/CDISC/V1
    :label: Based on Variable Reference
    :extension_properties: []
    :enabled: true
    :optional: false
    :ordinal: 14
    :local_label: ''
    :subject_ref:
      :namespace: http://www.assero.co.uk/MDRSdtmM/CDISC/V1
      :id: M-CDISC_SDTMMODEL_xxLLT
- :type: http://www.assero.co.uk/BusinessDomain#ClassVariable
  :id: M-CDISC_SDTMMODELEVENTS_xxLLTCD
  :namespace: http://www.assero.co.uk/MDRSdtmMd/CDISC/V1
  :label: Lowest Level Term Code
  :extension_properties: []
  :ordinal: 15
  :rule: ''
  :name: "--LLTCD"
  :variable_ref:
    :type: http://www.assero.co.uk/BusinessOperational#CReference
    :id: M-CDISC_SDTMMODELEVENTS_xxLLTCD_CR1
    :namespace: http://www.assero.co.uk/MDRSdtmMd/CDISC/V1
    :label: Based on Variable Reference
    :extension_properties: []
    :enabled: true
    :optional: false
    :ordinal: 15
    :local_label: ''
    :subject_ref:
      :namespace: http://www.assero.co.uk/MDRSdtmM/CDISC/V1
      :id: M-CDISC_SDTMMODEL_xxLLTCD
- :type: http://www.assero.co.uk/BusinessDomain#ClassVariable
  :id: M-CDISC_SDTMMODELEVENTS_xxDECOD
  :namespace: http://www.assero.co.uk/MDRSdtmMd/CDISC/V1
  :label: Dictionary-Derived Term
  :extension_properties: []
  :ordinal: 16
  :rule: ''
  :name: "--DECOD"
  :variable_ref:
    :type: http://www.assero.co.uk/BusinessOperational#CReference
    :id: M-CDISC_SDTMMODELEVENTS_xxDECOD_CR1
    :namespace: http://www.assero.co.uk/MDRSdtmMd/CDISC/V1
    :label: Based on Variable Reference
    :extension_properties: []
    :enabled: true
    :optional: false
    :ordinal: 16
    :local_label: ''
    :subject_ref:
      :namespace: http://www.assero.co.uk/MDRSdtmM/CDISC/V1
      :id: M-CDISC_SDTMMODEL_xxDECOD
- :type: http://www.assero.co.uk/BusinessDomain#ClassVariable
  :id: M-CDISC_SDTMMODELEVENTS_xxPTCD
  :namespace: http://www.assero.co.uk/MDRSdtmMd/CDISC/V1
  :label: Preferred Term Code
  :extension_properties: []
  :ordinal: 17
  :rule: ''
  :name: "--PTCD"
  :variable_ref:
    :type: http://www.assero.co.uk/BusinessOperational#CReference
    :id: M-CDISC_SDTMMODELEVENTS_xxPTCD_CR1
    :namespace: http://www.assero.co.uk/MDRSdtmMd/CDISC/V1
    :label: Based on Variable Reference
    :extension_properties: []
    :enabled: true
    :optional: false
    :ordinal: 17
    :local_label: ''
    :subject_ref:
      :namespace: http://www.assero.co.uk/MDRSdtmM/CDISC/V1
      :id: M-CDISC_SDTMMODEL_xxPTCD
- :type: http://www.assero.co.uk/BusinessDomain#ClassVariable
  :id: M-CDISC_SDTMMODELEVENTS_xxHLT
  :namespace: http://www.assero.co.uk/MDRSdtmMd/CDISC/V1
  :label: High Level Term
  :extension_properties: []
  :ordinal: 18
  :rule: ''
  :name: "--HLT"
  :variable_ref:
    :type: http://www.assero.co.uk/BusinessOperational#CReference
    :id: M-CDISC_SDTMMODELEVENTS_xxHLT_CR1
    :namespace: http://www.assero.co.uk/MDRSdtmMd/CDISC/V1
    :label: Based on Variable Reference
    :extension_properties: []
    :enabled: true
    :optional: false
    :ordinal: 18
    :local_label: ''
    :subject_ref:
      :namespace: http://www.assero.co.uk/MDRSdtmM/CDISC/V1
      :id: M-CDISC_SDTMMODEL_xxHLT
- :type: http://www.assero.co.uk/BusinessDomain#ClassVariable
  :id: M-CDISC_SDTMMODELEVENTS_xxHLTCD
  :namespace: http://www.assero.co.uk/MDRSdtmMd/CDISC/V1
  :label: High Level Term Code
  :extension_properties: []
  :ordinal: 19
  :rule: ''
  :name: "--HLTCD"
  :variable_ref:
    :type: http://www.assero.co.uk/BusinessOperational#CReference
    :id: M-CDISC_SDTMMODELEVENTS_xxHLTCD_CR1
    :namespace: http://www.assero.co.uk/MDRSdtmMd/CDISC/V1
    :label: Based on Variable Reference
    :extension_properties: []
    :enabled: true
    :optional: false
    :ordinal: 19
    :local_label: ''
    :subject_ref:
      :namespace: http://www.assero.co.uk/MDRSdtmM/CDISC/V1
      :id: M-CDISC_SDTMMODEL_xxHLTCD
- :type: http://www.assero.co.uk/BusinessDomain#ClassVariable
  :id: M-CDISC_SDTMMODELEVENTS_xxHLGT
  :namespace: http://www.assero.co.uk/MDRSdtmMd/CDISC/V1
  :label: High Level Group Term
  :extension_properties: []
  :ordinal: 20
  :rule: ''
  :name: "--HLGT"
  :variable_ref:
    :type: http://www.assero.co.uk/BusinessOperational#CReference
    :id: M-CDISC_SDTMMODELEVENTS_xxHLGT_CR1
    :namespace: http://www.assero.co.uk/MDRSdtmMd/CDISC/V1
    :label: Based on Variable Reference
    :extension_properties: []
    :enabled: true
    :optional: false
    :ordinal: 20
    :local_label: ''
    :subject_ref:
      :namespace: http://www.assero.co.uk/MDRSdtmM/CDISC/V1
      :id: M-CDISC_SDTMMODEL_xxHLGT
- :type: http://www.assero.co.uk/BusinessDomain#ClassVariable
  :id: M-CDISC_SDTMMODELEVENTS_xxHLGTCD
  :namespace: http://www.assero.co.uk/MDRSdtmMd/CDISC/V1
  :label: High Level Group Term Code
  :extension_properties: []
  :ordinal: 21
  :rule: ''
  :name: "--HLGTCD"
  :variable_ref:
    :type: http://www.assero.co.uk/BusinessOperational#CReference
    :id: M-CDISC_SDTMMODELEVENTS_xxHLGTCD_CR1
    :namespace: http://www.assero.co.uk/MDRSdtmMd/CDISC/V1
    :label: Based on Variable Reference
    :extension_properties: []
    :enabled: true
    :optional: false
    :ordinal: 21
    :local_label: ''
    :subject_ref:
      :namespace: http://www.assero.co.uk/MDRSdtmM/CDISC/V1
      :id: M-CDISC_SDTMMODEL_xxHLGTCD
- :type: http://www.assero.co.uk/BusinessDomain#ClassVariable
  :id: M-CDISC_SDTMMODELEVENTS_xxCAT
  :namespace: http://www.assero.co.uk/MDRSdtmMd/CDISC/V1
  :label: Category
  :extension_properties: []
  :ordinal: 22
  :rule: ''
  :name: "--CAT"
  :variable_ref:
    :type: http://www.assero.co.uk/BusinessOperational#CReference
    :id: M-CDISC_SDTMMODELEVENTS_xxCAT_CR1
    :namespace: http://www.assero.co.uk/MDRSdtmMd/CDISC/V1
    :label: Based on Variable Reference
    :extension_properties: []
    :enabled: true
    :optional: false
    :ordinal: 22
    :local_label: ''
    :subject_ref:
      :namespace: http://www.assero.co.uk/MDRSdtmM/CDISC/V1
      :id: M-CDISC_SDTMMODEL_xxCAT
- :type: http://www.assero.co.uk/BusinessDomain#ClassVariable
  :id: M-CDISC_SDTMMODELEVENTS_xxSCAT
  :namespace: http://www.assero.co.uk/MDRSdtmMd/CDISC/V1
  :label: Subcategory
  :extension_properties: []
  :ordinal: 23
  :rule: ''
  :name: "--SCAT"
  :variable_ref:
    :type: http://www.assero.co.uk/BusinessOperational#CReference
    :id: M-CDISC_SDTMMODELEVENTS_xxSCAT_CR1
    :namespace: http://www.assero.co.uk/MDRSdtmMd/CDISC/V1
    :label: Based on Variable Reference
    :extension_properties: []
    :enabled: true
    :optional: false
    :ordinal: 23
    :local_label: ''
    :subject_ref:
      :namespace: http://www.assero.co.uk/MDRSdtmM/CDISC/V1
      :id: M-CDISC_SDTMMODEL_xxSCAT
- :type: http://www.assero.co.uk/BusinessDomain#ClassVariable
  :id: M-CDISC_SDTMMODELEVENTS_xxPRESP
  :namespace: http://www.assero.co.uk/MDRSdtmMd/CDISC/V1
  :label: Pre-specified
  :extension_properties: []
  :ordinal: 24
  :rule: ''
  :name: "--PRESP"
  :variable_ref:
    :type: http://www.assero.co.uk/BusinessOperational#CReference
    :id: M-CDISC_SDTMMODELEVENTS_xxPRESP_CR1
    :namespace: http://www.assero.co.uk/MDRSdtmMd/CDISC/V1
    :label: Based on Variable Reference
    :extension_properties: []
    :enabled: true
    :optional: false
    :ordinal: 24
    :local_label: ''
    :subject_ref:
      :namespace: http://www.assero.co.uk/MDRSdtmM/CDISC/V1
      :id: M-CDISC_SDTMMODEL_xxPRESP
- :type: http://www.assero.co.uk/BusinessDomain#ClassVariable
  :id: M-CDISC_SDTMMODELEVENTS_xxOCCUR
  :namespace: http://www.assero.co.uk/MDRSdtmMd/CDISC/V1
  :label: Occurrence
  :extension_properties: []
  :ordinal: 25
  :rule: ''
  :name: "--OCCUR"
  :variable_ref:
    :type: http://www.assero.co.uk/BusinessOperational#CReference
    :id: M-CDISC_SDTMMODELEVENTS_xxOCCUR_CR1
    :namespace: http://www.assero.co.uk/MDRSdtmMd/CDISC/V1
    :label: Based on Variable Reference
    :extension_properties: []
    :enabled: true
    :optional: false
    :ordinal: 25
    :local_label: ''
    :subject_ref:
      :namespace: http://www.assero.co.uk/MDRSdtmM/CDISC/V1
      :id: M-CDISC_SDTMMODEL_xxOCCUR
- :type: http://www.assero.co.uk/BusinessDomain#ClassVariable
  :id: M-CDISC_SDTMMODELEVENTS_xxSTAT
  :namespace: http://www.assero.co.uk/MDRSdtmMd/CDISC/V1
  :label: Completion Status
  :extension_properties: []
  :ordinal: 26
  :rule: ''
  :name: "--STAT"
  :variable_ref:
    :type: http://www.assero.co.uk/BusinessOperational#CReference
    :id: M-CDISC_SDTMMODELEVENTS_xxSTAT_CR1
    :namespace: http://www.assero.co.uk/MDRSdtmMd/CDISC/V1
    :label: Based on Variable Reference
    :extension_properties: []
    :enabled: true
    :optional: false
    :ordinal: 26
    :local_label: ''
    :subject_ref:
      :namespace: http://www.assero.co.uk/MDRSdtmM/CDISC/V1
      :id: M-CDISC_SDTMMODEL_xxSTAT
- :type: http://www.assero.co.uk/BusinessDomain#ClassVariable
  :id: M-CDISC_SDTMMODELEVENTS_xxREASND
  :namespace: http://www.assero.co.uk/MDRSdtmMd/CDISC/V1
  :label: Reason Not Done
  :extension_properties: []
  :ordinal: 27
  :rule: ''
  :name: "--REASND"
  :variable_ref:
    :type: http://www.assero.co.uk/BusinessOperational#CReference
    :id: M-CDISC_SDTMMODELEVENTS_xxREASND_CR1
    :namespace: http://www.assero.co.uk/MDRSdtmMd/CDISC/V1
    :label: Based on Variable Reference
    :extension_properties: []
    :enabled: true
    :optional: false
    :ordinal: 27
    :local_label: ''
    :subject_ref:
      :namespace: http://www.assero.co.uk/MDRSdtmM/CDISC/V1
      :id: M-CDISC_SDTMMODEL_xxREASND
- :type: http://www.assero.co.uk/BusinessDomain#ClassVariable
  :id: M-CDISC_SDTMMODELEVENTS_xxBODSYS
  :namespace: http://www.assero.co.uk/MDRSdtmMd/CDISC/V1
  :label: Body System or Organ Class
  :extension_properties: []
  :ordinal: 28
  :rule: ''
  :name: "--BODSYS"
  :variable_ref:
    :type: http://www.assero.co.uk/BusinessOperational#CReference
    :id: M-CDISC_SDTMMODELEVENTS_xxBODSYS_CR1
    :namespace: http://www.assero.co.uk/MDRSdtmMd/CDISC/V1
    :label: Based on Variable Reference
    :extension_properties: []
    :enabled: true
    :optional: false
    :ordinal: 28
    :local_label: ''
    :subject_ref:
      :namespace: http://www.assero.co.uk/MDRSdtmM/CDISC/V1
      :id: M-CDISC_SDTMMODEL_xxBODSYS
- :type: http://www.assero.co.uk/BusinessDomain#ClassVariable
  :id: M-CDISC_SDTMMODELEVENTS_xxBDSYCD
  :namespace: http://www.assero.co.uk/MDRSdtmMd/CDISC/V1
  :label: Body System or Organ Class Code
  :extension_properties: []
  :ordinal: 29
  :rule: ''
  :name: "--BDSYCD"
  :variable_ref:
    :type: http://www.assero.co.uk/BusinessOperational#CReference
    :id: M-CDISC_SDTMMODELEVENTS_xxBDSYCD_CR1
    :namespace: http://www.assero.co.uk/MDRSdtmMd/CDISC/V1
    :label: Based on Variable Reference
    :extension_properties: []
    :enabled: true
    :optional: false
    :ordinal: 29
    :local_label: ''
    :subject_ref:
      :namespace: http://www.assero.co.uk/MDRSdtmM/CDISC/V1
      :id: M-CDISC_SDTMMODEL_xxBDSYCD
- :type: http://www.assero.co.uk/BusinessDomain#ClassVariable
  :id: M-CDISC_SDTMMODELEVENTS_xxSOC
  :namespace: http://www.assero.co.uk/MDRSdtmMd/CDISC/V1
  :label: Primary System Organ Class
  :extension_properties: []
  :ordinal: 30
  :rule: ''
  :name: "--SOC"
  :variable_ref:
    :type: http://www.assero.co.uk/BusinessOperational#CReference
    :id: M-CDISC_SDTMMODELEVENTS_xxSOC_CR1
    :namespace: http://www.assero.co.uk/MDRSdtmMd/CDISC/V1
    :label: Based on Variable Reference
    :extension_properties: []
    :enabled: true
    :optional: false
    :ordinal: 30
    :local_label: ''
    :subject_ref:
      :namespace: http://www.assero.co.uk/MDRSdtmM/CDISC/V1
      :id: M-CDISC_SDTMMODEL_xxSOC
- :type: http://www.assero.co.uk/BusinessDomain#ClassVariable
  :id: M-CDISC_SDTMMODELEVENTS_xxSOCCD
  :namespace: http://www.assero.co.uk/MDRSdtmMd/CDISC/V1
  :label: Primary System Organ Class Code
  :extension_properties: []
  :ordinal: 31
  :rule: ''
  :name: "--SOCCD"
  :variable_ref:
    :type: http://www.assero.co.uk/BusinessOperational#CReference
    :id: M-CDISC_SDTMMODELEVENTS_xxSOCCD_CR1
    :namespace: http://www.assero.co.uk/MDRSdtmMd/CDISC/V1
    :label: Based on Variable Reference
    :extension_properties: []
    :enabled: true
    :optional: false
    :ordinal: 31
    :local_label: ''
    :subject_ref:
      :namespace: http://www.assero.co.uk/MDRSdtmM/CDISC/V1
      :id: M-CDISC_SDTMMODEL_xxSOCCD
- :type: http://www.assero.co.uk/BusinessDomain#ClassVariable
  :id: M-CDISC_SDTMMODELEVENTS_xxLOC
  :namespace: http://www.assero.co.uk/MDRSdtmMd/CDISC/V1
  :label: Location of Event
  :extension_properties: []
  :ordinal: 32
  :rule: ''
  :name: "--LOC"
  :variable_ref:
    :type: http://www.assero.co.uk/BusinessOperational#CReference
    :id: M-CDISC_SDTMMODELEVENTS_xxLOC_CR1
    :namespace: http://www.assero.co.uk/MDRSdtmMd/CDISC/V1
    :label: Based on Variable Reference
    :extension_properties: []
    :enabled: true
    :optional: false
    :ordinal: 32
    :local_label: ''
    :subject_ref:
      :namespace: http://www.assero.co.uk/MDRSdtmM/CDISC/V1
      :id: M-CDISC_SDTMMODEL_xxLOC
- :type: http://www.assero.co.uk/BusinessDomain#ClassVariable
  :id: M-CDISC_SDTMMODELEVENTS_xxLAT
  :namespace: http://www.assero.co.uk/MDRSdtmMd/CDISC/V1
  :label: Laterality
  :extension_properties: []
  :ordinal: 33
  :rule: ''
  :name: "--LAT"
  :variable_ref:
    :type: http://www.assero.co.uk/BusinessOperational#CReference
    :id: M-CDISC_SDTMMODELEVENTS_xxLAT_CR1
    :namespace: http://www.assero.co.uk/MDRSdtmMd/CDISC/V1
    :label: Based on Variable Reference
    :extension_properties: []
    :enabled: true
    :optional: false
    :ordinal: 33
    :local_label: ''
    :subject_ref:
      :namespace: http://www.assero.co.uk/MDRSdtmM/CDISC/V1
      :id: M-CDISC_SDTMMODEL_xxLAT
- :type: http://www.assero.co.uk/BusinessDomain#ClassVariable
  :id: M-CDISC_SDTMMODELEVENTS_xxDIR
  :namespace: http://www.assero.co.uk/MDRSdtmMd/CDISC/V1
  :label: Directionality
  :extension_properties: []
  :ordinal: 34
  :rule: ''
  :name: "--DIR"
  :variable_ref:
    :type: http://www.assero.co.uk/BusinessOperational#CReference
    :id: M-CDISC_SDTMMODELEVENTS_xxDIR_CR1
    :namespace: http://www.assero.co.uk/MDRSdtmMd/CDISC/V1
    :label: Based on Variable Reference
    :extension_properties: []
    :enabled: true
    :optional: false
    :ordinal: 34
    :local_label: ''
    :subject_ref:
      :namespace: http://www.assero.co.uk/MDRSdtmM/CDISC/V1
      :id: M-CDISC_SDTMMODEL_xxDIR
- :type: http://www.assero.co.uk/BusinessDomain#ClassVariable
  :id: M-CDISC_SDTMMODELEVENTS_xxPORTOT
  :namespace: http://www.assero.co.uk/MDRSdtmMd/CDISC/V1
  :label: Portion or Totality
  :extension_properties: []
  :ordinal: 35
  :rule: ''
  :name: "--PORTOT"
  :variable_ref:
    :type: http://www.assero.co.uk/BusinessOperational#CReference
    :id: M-CDISC_SDTMMODELEVENTS_xxPORTOT_CR1
    :namespace: http://www.assero.co.uk/MDRSdtmMd/CDISC/V1
    :label: Based on Variable Reference
    :extension_properties: []
    :enabled: true
    :optional: false
    :ordinal: 35
    :local_label: ''
    :subject_ref:
      :namespace: http://www.assero.co.uk/MDRSdtmM/CDISC/V1
      :id: M-CDISC_SDTMMODEL_xxPORTOT
- :type: http://www.assero.co.uk/BusinessDomain#ClassVariable
  :id: M-CDISC_SDTMMODELEVENTS_xxPARTY
  :namespace: http://www.assero.co.uk/MDRSdtmMd/CDISC/V1
  :label: Accountable Party
  :extension_properties: []
  :ordinal: 36
  :rule: ''
  :name: "--PARTY"
  :variable_ref:
    :type: http://www.assero.co.uk/BusinessOperational#CReference
    :id: M-CDISC_SDTMMODELEVENTS_xxPARTY_CR1
    :namespace: http://www.assero.co.uk/MDRSdtmMd/CDISC/V1
    :label: Based on Variable Reference
    :extension_properties: []
    :enabled: true
    :optional: false
    :ordinal: 36
    :local_label: ''
    :subject_ref:
      :namespace: http://www.assero.co.uk/MDRSdtmM/CDISC/V1
      :id: M-CDISC_SDTMMODEL_xxPARTY
- :type: http://www.assero.co.uk/BusinessDomain#ClassVariable
  :id: M-CDISC_SDTMMODELEVENTS_xxPRTYID
  :namespace: http://www.assero.co.uk/MDRSdtmMd/CDISC/V1
  :label: Identification of Accountable Party
  :extension_properties: []
  :ordinal: 37
  :rule: ''
  :name: "--PRTYID"
  :variable_ref:
    :type: http://www.assero.co.uk/BusinessOperational#CReference
    :id: M-CDISC_SDTMMODELEVENTS_xxPRTYID_CR1
    :namespace: http://www.assero.co.uk/MDRSdtmMd/CDISC/V1
    :label: Based on Variable Reference
    :extension_properties: []
    :enabled: true
    :optional: false
    :ordinal: 37
    :local_label: ''
    :subject_ref:
      :namespace: http://www.assero.co.uk/MDRSdtmM/CDISC/V1
      :id: M-CDISC_SDTMMODEL_xxPRTYID
- :type: http://www.assero.co.uk/BusinessDomain#ClassVariable
  :id: M-CDISC_SDTMMODELEVENTS_xxSEV
  :namespace: http://www.assero.co.uk/MDRSdtmMd/CDISC/V1
  :label: Severity/Intensity
  :extension_properties: []
  :ordinal: 38
  :rule: ''
  :name: "--SEV"
  :variable_ref:
    :type: http://www.assero.co.uk/BusinessOperational#CReference
    :id: M-CDISC_SDTMMODELEVENTS_xxSEV_CR1
    :namespace: http://www.assero.co.uk/MDRSdtmMd/CDISC/V1
    :label: Based on Variable Reference
    :extension_properties: []
    :enabled: true
    :optional: false
    :ordinal: 38
    :local_label: ''
    :subject_ref:
      :namespace: http://www.assero.co.uk/MDRSdtmM/CDISC/V1
      :id: M-CDISC_SDTMMODEL_xxSEV
- :type: http://www.assero.co.uk/BusinessDomain#ClassVariable
  :id: M-CDISC_SDTMMODELEVENTS_xxSER
  :namespace: http://www.assero.co.uk/MDRSdtmMd/CDISC/V1
  :label: Serious Event
  :extension_properties: []
  :ordinal: 39
  :rule: ''
  :name: "--SER"
  :variable_ref:
    :type: http://www.assero.co.uk/BusinessOperational#CReference
    :id: M-CDISC_SDTMMODELEVENTS_xxSER_CR1
    :namespace: http://www.assero.co.uk/MDRSdtmMd/CDISC/V1
    :label: Based on Variable Reference
    :extension_properties: []
    :enabled: true
    :optional: false
    :ordinal: 39
    :local_label: ''
    :subject_ref:
      :namespace: http://www.assero.co.uk/MDRSdtmM/CDISC/V1
      :id: M-CDISC_SDTMMODEL_xxSER
- :type: http://www.assero.co.uk/BusinessDomain#ClassVariable
  :id: M-CDISC_SDTMMODELEVENTS_xxACN
  :namespace: http://www.assero.co.uk/MDRSdtmMd/CDISC/V1
  :label: Action Taken with Study Treatment
  :extension_properties: []
  :ordinal: 40
  :rule: ''
  :name: "--ACN"
  :variable_ref:
    :type: http://www.assero.co.uk/BusinessOperational#CReference
    :id: M-CDISC_SDTMMODELEVENTS_xxACN_CR1
    :namespace: http://www.assero.co.uk/MDRSdtmMd/CDISC/V1
    :label: Based on Variable Reference
    :extension_properties: []
    :enabled: true
    :optional: false
    :ordinal: 40
    :local_label: ''
    :subject_ref:
      :namespace: http://www.assero.co.uk/MDRSdtmM/CDISC/V1
      :id: M-CDISC_SDTMMODEL_xxACN
- :type: http://www.assero.co.uk/BusinessDomain#ClassVariable
  :id: M-CDISC_SDTMMODELEVENTS_xxACNOTH
  :namespace: http://www.assero.co.uk/MDRSdtmMd/CDISC/V1
  :label: Other Action Taken
  :extension_properties: []
  :ordinal: 41
  :rule: ''
  :name: "--ACNOTH"
  :variable_ref:
    :type: http://www.assero.co.uk/BusinessOperational#CReference
    :id: M-CDISC_SDTMMODELEVENTS_xxACNOTH_CR1
    :namespace: http://www.assero.co.uk/MDRSdtmMd/CDISC/V1
    :label: Based on Variable Reference
    :extension_properties: []
    :enabled: true
    :optional: false
    :ordinal: 41
    :local_label: ''
    :subject_ref:
      :namespace: http://www.assero.co.uk/MDRSdtmM/CDISC/V1
      :id: M-CDISC_SDTMMODEL_xxACNOTH
- :type: http://www.assero.co.uk/BusinessDomain#ClassVariable
  :id: M-CDISC_SDTMMODELEVENTS_xxACNDEV
  :namespace: http://www.assero.co.uk/MDRSdtmMd/CDISC/V1
  :label: Action Taken with Device
  :extension_properties: []
  :ordinal: 42
  :rule: ''
  :name: "--ACNDEV"
  :variable_ref:
    :type: http://www.assero.co.uk/BusinessOperational#CReference
    :id: M-CDISC_SDTMMODELEVENTS_xxACNDEV_CR1
    :namespace: http://www.assero.co.uk/MDRSdtmMd/CDISC/V1
    :label: Based on Variable Reference
    :extension_properties: []
    :enabled: true
    :optional: false
    :ordinal: 42
    :local_label: ''
    :subject_ref:
      :namespace: http://www.assero.co.uk/MDRSdtmM/CDISC/V1
      :id: M-CDISC_SDTMMODEL_xxACNDEV
- :type: http://www.assero.co.uk/BusinessDomain#ClassVariable
  :id: M-CDISC_SDTMMODELEVENTS_xxREL
  :namespace: http://www.assero.co.uk/MDRSdtmMd/CDISC/V1
  :label: Causality
  :extension_properties: []
  :ordinal: 43
  :rule: ''
  :name: "--REL"
  :variable_ref:
    :type: http://www.assero.co.uk/BusinessOperational#CReference
    :id: M-CDISC_SDTMMODELEVENTS_xxREL_CR1
    :namespace: http://www.assero.co.uk/MDRSdtmMd/CDISC/V1
    :label: Based on Variable Reference
    :extension_properties: []
    :enabled: true
    :optional: false
    :ordinal: 43
    :local_label: ''
    :subject_ref:
      :namespace: http://www.assero.co.uk/MDRSdtmM/CDISC/V1
      :id: M-CDISC_SDTMMODEL_xxREL
- :type: http://www.assero.co.uk/BusinessDomain#ClassVariable
  :id: M-CDISC_SDTMMODELEVENTS_xxRELNST
  :namespace: http://www.assero.co.uk/MDRSdtmMd/CDISC/V1
  :label: Relationship to Non-Study Treatment
  :extension_properties: []
  :ordinal: 44
  :rule: ''
  :name: "--RELNST"
  :variable_ref:
    :type: http://www.assero.co.uk/BusinessOperational#CReference
    :id: M-CDISC_SDTMMODELEVENTS_xxRELNST_CR1
    :namespace: http://www.assero.co.uk/MDRSdtmMd/CDISC/V1
    :label: Based on Variable Reference
    :extension_properties: []
    :enabled: true
    :optional: false
    :ordinal: 44
    :local_label: ''
    :subject_ref:
      :namespace: http://www.assero.co.uk/MDRSdtmM/CDISC/V1
      :id: M-CDISC_SDTMMODEL_xxRELNST
- :type: http://www.assero.co.uk/BusinessDomain#ClassVariable
  :id: M-CDISC_SDTMMODELEVENTS_xxPATT
  :namespace: http://www.assero.co.uk/MDRSdtmMd/CDISC/V1
  :label: Pattern of Event
  :extension_properties: []
  :ordinal: 45
  :rule: ''
  :name: "--PATT"
  :variable_ref:
    :type: http://www.assero.co.uk/BusinessOperational#CReference
    :id: M-CDISC_SDTMMODELEVENTS_xxPATT_CR1
    :namespace: http://www.assero.co.uk/MDRSdtmMd/CDISC/V1
    :label: Based on Variable Reference
    :extension_properties: []
    :enabled: true
    :optional: false
    :ordinal: 45
    :local_label: ''
    :subject_ref:
      :namespace: http://www.assero.co.uk/MDRSdtmM/CDISC/V1
      :id: M-CDISC_SDTMMODEL_xxPATT
- :type: http://www.assero.co.uk/BusinessDomain#ClassVariable
  :id: M-CDISC_SDTMMODELEVENTS_xxOUT
  :namespace: http://www.assero.co.uk/MDRSdtmMd/CDISC/V1
  :label: Outcome of Event
  :extension_properties: []
  :ordinal: 46
  :rule: ''
  :name: "--OUT"
  :variable_ref:
    :type: http://www.assero.co.uk/BusinessOperational#CReference
    :id: M-CDISC_SDTMMODELEVENTS_xxOUT_CR1
    :namespace: http://www.assero.co.uk/MDRSdtmMd/CDISC/V1
    :label: Based on Variable Reference
    :extension_properties: []
    :enabled: true
    :optional: false
    :ordinal: 46
    :local_label: ''
    :subject_ref:
      :namespace: http://www.assero.co.uk/MDRSdtmM/CDISC/V1
      :id: M-CDISC_SDTMMODEL_xxOUT
- :type: http://www.assero.co.uk/BusinessDomain#ClassVariable
  :id: M-CDISC_SDTMMODELEVENTS_xxSCAN
  :namespace: http://www.assero.co.uk/MDRSdtmMd/CDISC/V1
  :label: Involves Cancer
  :extension_properties: []
  :ordinal: 47
  :rule: ''
  :name: "--SCAN"
  :variable_ref:
    :type: http://www.assero.co.uk/BusinessOperational#CReference
    :id: M-CDISC_SDTMMODELEVENTS_xxSCAN_CR1
    :namespace: http://www.assero.co.uk/MDRSdtmMd/CDISC/V1
    :label: Based on Variable Reference
    :extension_properties: []
    :enabled: true
    :optional: false
    :ordinal: 47
    :local_label: ''
    :subject_ref:
      :namespace: http://www.assero.co.uk/MDRSdtmM/CDISC/V1
      :id: M-CDISC_SDTMMODEL_xxSCAN
- :type: http://www.assero.co.uk/BusinessDomain#ClassVariable
  :id: M-CDISC_SDTMMODELEVENTS_xxSCONG
  :namespace: http://www.assero.co.uk/MDRSdtmMd/CDISC/V1
  :label: Congenital Anomaly or Birth Defect
  :extension_properties: []
  :ordinal: 48
  :rule: ''
  :name: "--SCONG"
  :variable_ref:
    :type: http://www.assero.co.uk/BusinessOperational#CReference
    :id: M-CDISC_SDTMMODELEVENTS_xxSCONG_CR1
    :namespace: http://www.assero.co.uk/MDRSdtmMd/CDISC/V1
    :label: Based on Variable Reference
    :extension_properties: []
    :enabled: true
    :optional: false
    :ordinal: 48
    :local_label: ''
    :subject_ref:
      :namespace: http://www.assero.co.uk/MDRSdtmM/CDISC/V1
      :id: M-CDISC_SDTMMODEL_xxSCONG
- :type: http://www.assero.co.uk/BusinessDomain#ClassVariable
  :id: M-CDISC_SDTMMODELEVENTS_xxSDISAB
  :namespace: http://www.assero.co.uk/MDRSdtmMd/CDISC/V1
  :label: Persist or Signif Disability/Incapacity
  :extension_properties: []
  :ordinal: 49
  :rule: ''
  :name: "--SDISAB"
  :variable_ref:
    :type: http://www.assero.co.uk/BusinessOperational#CReference
    :id: M-CDISC_SDTMMODELEVENTS_xxSDISAB_CR1
    :namespace: http://www.assero.co.uk/MDRSdtmMd/CDISC/V1
    :label: Based on Variable Reference
    :extension_properties: []
    :enabled: true
    :optional: false
    :ordinal: 49
    :local_label: ''
    :subject_ref:
      :namespace: http://www.assero.co.uk/MDRSdtmM/CDISC/V1
      :id: M-CDISC_SDTMMODEL_xxSDISAB
- :type: http://www.assero.co.uk/BusinessDomain#ClassVariable
  :id: M-CDISC_SDTMMODELEVENTS_xxSDTH
  :namespace: http://www.assero.co.uk/MDRSdtmMd/CDISC/V1
  :label: Results in Death
  :extension_properties: []
  :ordinal: 50
  :rule: ''
  :name: "--SDTH"
  :variable_ref:
    :type: http://www.assero.co.uk/BusinessOperational#CReference
    :id: M-CDISC_SDTMMODELEVENTS_xxSDTH_CR1
    :namespace: http://www.assero.co.uk/MDRSdtmMd/CDISC/V1
    :label: Based on Variable Reference
    :extension_properties: []
    :enabled: true
    :optional: false
    :ordinal: 50
    :local_label: ''
    :subject_ref:
      :namespace: http://www.assero.co.uk/MDRSdtmM/CDISC/V1
      :id: M-CDISC_SDTMMODEL_xxSDTH
- :type: http://www.assero.co.uk/BusinessDomain#ClassVariable
  :id: M-CDISC_SDTMMODELEVENTS_xxSHOSP
  :namespace: http://www.assero.co.uk/MDRSdtmMd/CDISC/V1
  :label: Requires or Prolongs Hospitalization
  :extension_properties: []
  :ordinal: 51
  :rule: ''
  :name: "--SHOSP"
  :variable_ref:
    :type: http://www.assero.co.uk/BusinessOperational#CReference
    :id: M-CDISC_SDTMMODELEVENTS_xxSHOSP_CR1
    :namespace: http://www.assero.co.uk/MDRSdtmMd/CDISC/V1
    :label: Based on Variable Reference
    :extension_properties: []
    :enabled: true
    :optional: false
    :ordinal: 51
    :local_label: ''
    :subject_ref:
      :namespace: http://www.assero.co.uk/MDRSdtmM/CDISC/V1
      :id: M-CDISC_SDTMMODEL_xxSHOSP
- :type: http://www.assero.co.uk/BusinessDomain#ClassVariable
  :id: M-CDISC_SDTMMODELEVENTS_xxSLIFE
  :namespace: http://www.assero.co.uk/MDRSdtmMd/CDISC/V1
  :label: Is Life Threatening
  :extension_properties: []
  :ordinal: 52
  :rule: ''
  :name: "--SLIFE"
  :variable_ref:
    :type: http://www.assero.co.uk/BusinessOperational#CReference
    :id: M-CDISC_SDTMMODELEVENTS_xxSLIFE_CR1
    :namespace: http://www.assero.co.uk/MDRSdtmMd/CDISC/V1
    :label: Based on Variable Reference
    :extension_properties: []
    :enabled: true
    :optional: false
    :ordinal: 52
    :local_label: ''
    :subject_ref:
      :namespace: http://www.assero.co.uk/MDRSdtmM/CDISC/V1
      :id: M-CDISC_SDTMMODEL_xxSLIFE
- :type: http://www.assero.co.uk/BusinessDomain#ClassVariable
  :id: M-CDISC_SDTMMODELEVENTS_xxSOD
  :namespace: http://www.assero.co.uk/MDRSdtmMd/CDISC/V1
  :label: Occurred with Overdose
  :extension_properties: []
  :ordinal: 53
  :rule: ''
  :name: "--SOD"
  :variable_ref:
    :type: http://www.assero.co.uk/BusinessOperational#CReference
    :id: M-CDISC_SDTMMODELEVENTS_xxSOD_CR1
    :namespace: http://www.assero.co.uk/MDRSdtmMd/CDISC/V1
    :label: Based on Variable Reference
    :extension_properties: []
    :enabled: true
    :optional: false
    :ordinal: 53
    :local_label: ''
    :subject_ref:
      :namespace: http://www.assero.co.uk/MDRSdtmM/CDISC/V1
      :id: M-CDISC_SDTMMODEL_xxSOD
- :type: http://www.assero.co.uk/BusinessDomain#ClassVariable
  :id: M-CDISC_SDTMMODELEVENTS_xxSMIE
  :namespace: http://www.assero.co.uk/MDRSdtmMd/CDISC/V1
  :label: Other Medically Important Serious Event
  :extension_properties: []
  :ordinal: 54
  :rule: ''
  :name: "--SMIE"
  :variable_ref:
    :type: http://www.assero.co.uk/BusinessOperational#CReference
    :id: M-CDISC_SDTMMODELEVENTS_xxSMIE_CR1
    :namespace: http://www.assero.co.uk/MDRSdtmMd/CDISC/V1
    :label: Based on Variable Reference
    :extension_properties: []
    :enabled: true
    :optional: false
    :ordinal: 54
    :local_label: ''
    :subject_ref:
      :namespace: http://www.assero.co.uk/MDRSdtmM/CDISC/V1
      :id: M-CDISC_SDTMMODEL_xxSMIE
- :type: http://www.assero.co.uk/BusinessDomain#ClassVariable
  :id: M-CDISC_SDTMMODELEVENTS_xxCONTRT
  :namespace: http://www.assero.co.uk/MDRSdtmMd/CDISC/V1
  :label: Concomitant or Additional Trtmnt Given
  :extension_properties: []
  :ordinal: 55
  :rule: ''
  :name: "--CONTRT"
  :variable_ref:
    :type: http://www.assero.co.uk/BusinessOperational#CReference
    :id: M-CDISC_SDTMMODELEVENTS_xxCONTRT_CR1
    :namespace: http://www.assero.co.uk/MDRSdtmMd/CDISC/V1
    :label: Based on Variable Reference
    :extension_properties: []
    :enabled: true
    :optional: false
    :ordinal: 55
    :local_label: ''
    :subject_ref:
      :namespace: http://www.assero.co.uk/MDRSdtmM/CDISC/V1
      :id: M-CDISC_SDTMMODEL_xxCONTRT
- :type: http://www.assero.co.uk/BusinessDomain#ClassVariable
  :id: M-CDISC_SDTMMODELEVENTS_xxTOX
  :namespace: http://www.assero.co.uk/MDRSdtmMd/CDISC/V1
  :label: Toxicity
  :extension_properties: []
  :ordinal: 56
  :rule: ''
  :name: "--TOX"
  :variable_ref:
    :type: http://www.assero.co.uk/BusinessOperational#CReference
    :id: M-CDISC_SDTMMODELEVENTS_xxTOX_CR1
    :namespace: http://www.assero.co.uk/MDRSdtmMd/CDISC/V1
    :label: Based on Variable Reference
    :extension_properties: []
    :enabled: true
    :optional: false
    :ordinal: 56
    :local_label: ''
    :subject_ref:
      :namespace: http://www.assero.co.uk/MDRSdtmM/CDISC/V1
      :id: M-CDISC_SDTMMODEL_xxTOX
- :type: http://www.assero.co.uk/BusinessDomain#ClassVariable
  :id: M-CDISC_SDTMMODELEVENTS_xxTOXGR
  :namespace: http://www.assero.co.uk/MDRSdtmMd/CDISC/V1
  :label: Toxicity Grade
  :extension_properties: []
  :ordinal: 57
  :rule: ''
  :name: "--TOXGR"
  :variable_ref:
    :type: http://www.assero.co.uk/BusinessOperational#CReference
    :id: M-CDISC_SDTMMODELEVENTS_xxTOXGR_CR1
    :namespace: http://www.assero.co.uk/MDRSdtmMd/CDISC/V1
    :label: Based on Variable Reference
    :extension_properties: []
    :enabled: true
    :optional: false
    :ordinal: 57
    :local_label: ''
    :subject_ref:
      :namespace: http://www.assero.co.uk/MDRSdtmM/CDISC/V1
      :id: M-CDISC_SDTMMODEL_xxTOXGR
- :type: http://www.assero.co.uk/BusinessDomain#ClassVariable
  :id: M-CDISC_SDTMMODELEVENTS_VISITNUM
  :namespace: http://www.assero.co.uk/MDRSdtmMd/CDISC/V1
  :label: Visit Number
  :extension_properties: []
  :ordinal: 58
  :rule: ''
  :name: VISITNUM
  :variable_ref:
    :type: http://www.assero.co.uk/BusinessOperational#CReference
    :id: M-CDISC_SDTMMODELEVENTS_VISITNUM_CR1
    :namespace: http://www.assero.co.uk/MDRSdtmMd/CDISC/V1
    :label: Based on Variable Reference
    :extension_properties: []
    :enabled: true
    :optional: false
    :ordinal: 58
    :local_label: ''
    :subject_ref:
      :namespace: http://www.assero.co.uk/MDRSdtmM/CDISC/V1
      :id: M-CDISC_SDTMMODEL_VISITNUM
- :type: http://www.assero.co.uk/BusinessDomain#ClassVariable
  :id: M-CDISC_SDTMMODELEVENTS_VISIT
  :namespace: http://www.assero.co.uk/MDRSdtmMd/CDISC/V1
  :label: Visit Name
  :extension_properties: []
  :ordinal: 59
  :rule: ''
  :name: VISIT
  :variable_ref:
    :type: http://www.assero.co.uk/BusinessOperational#CReference
    :id: M-CDISC_SDTMMODELEVENTS_VISIT_CR1
    :namespace: http://www.assero.co.uk/MDRSdtmMd/CDISC/V1
    :label: Based on Variable Reference
    :extension_properties: []
    :enabled: true
    :optional: false
    :ordinal: 59
    :local_label: ''
    :subject_ref:
      :namespace: http://www.assero.co.uk/MDRSdtmM/CDISC/V1
      :id: M-CDISC_SDTMMODEL_VISIT
- :type: http://www.assero.co.uk/BusinessDomain#ClassVariable
  :id: M-CDISC_SDTMMODELEVENTS_VISITDY
  :namespace: http://www.assero.co.uk/MDRSdtmMd/CDISC/V1
  :label: Planned Study Day of Visit
  :extension_properties: []
  :ordinal: 60
  :rule: ''
  :name: VISITDY
  :variable_ref:
    :type: http://www.assero.co.uk/BusinessOperational#CReference
    :id: M-CDISC_SDTMMODELEVENTS_VISITDY_CR1
    :namespace: http://www.assero.co.uk/MDRSdtmMd/CDISC/V1
    :label: Based on Variable Reference
    :extension_properties: []
    :enabled: true
    :optional: false
    :ordinal: 60
    :local_label: ''
    :subject_ref:
      :namespace: http://www.assero.co.uk/MDRSdtmM/CDISC/V1
      :id: M-CDISC_SDTMMODEL_VISITDY
- :type: http://www.assero.co.uk/BusinessDomain#ClassVariable
  :id: M-CDISC_SDTMMODELEVENTS_TAETORD
  :namespace: http://www.assero.co.uk/MDRSdtmMd/CDISC/V1
  :label: Planned Order of Element within Arm
  :extension_properties: []
  :ordinal: 61
  :rule: ''
  :name: TAETORD
  :variable_ref:
    :type: http://www.assero.co.uk/BusinessOperational#CReference
    :id: M-CDISC_SDTMMODELEVENTS_TAETORD_CR1
    :namespace: http://www.assero.co.uk/MDRSdtmMd/CDISC/V1
    :label: Based on Variable Reference
    :extension_properties: []
    :enabled: true
    :optional: false
    :ordinal: 61
    :local_label: ''
    :subject_ref:
      :namespace: http://www.assero.co.uk/MDRSdtmM/CDISC/V1
      :id: M-CDISC_SDTMMODEL_TAETORD
- :type: http://www.assero.co.uk/BusinessDomain#ClassVariable
  :id: M-CDISC_SDTMMODELEVENTS_EPOCH
  :namespace: http://www.assero.co.uk/MDRSdtmMd/CDISC/V1
  :label: Epoch
  :extension_properties: []
  :ordinal: 62
  :rule: ''
  :name: EPOCH
  :variable_ref:
    :type: http://www.assero.co.uk/BusinessOperational#CReference
    :id: M-CDISC_SDTMMODELEVENTS_EPOCH_CR1
    :namespace: http://www.assero.co.uk/MDRSdtmMd/CDISC/V1
    :label: Based on Variable Reference
    :extension_properties: []
    :enabled: true
    :optional: false
    :ordinal: 62
    :local_label: ''
    :subject_ref:
      :namespace: http://www.assero.co.uk/MDRSdtmM/CDISC/V1
      :id: M-CDISC_SDTMMODEL_EPOCH
- :type: http://www.assero.co.uk/BusinessDomain#ClassVariable
  :id: M-CDISC_SDTMMODELEVENTS_xxDTC
  :namespace: http://www.assero.co.uk/MDRSdtmMd/CDISC/V1
  :label: Date/Time of Collection
  :extension_properties: []
  :ordinal: 63
  :rule: ''
  :name: "--DTC"
  :variable_ref:
    :type: http://www.assero.co.uk/BusinessOperational#CReference
    :id: M-CDISC_SDTMMODELEVENTS_xxDTC_CR1
    :namespace: http://www.assero.co.uk/MDRSdtmMd/CDISC/V1
    :label: Based on Variable Reference
    :extension_properties: []
    :enabled: true
    :optional: false
    :ordinal: 63
    :local_label: ''
    :subject_ref:
      :namespace: http://www.assero.co.uk/MDRSdtmM/CDISC/V1
      :id: M-CDISC_SDTMMODEL_xxDTC
- :type: http://www.assero.co.uk/BusinessDomain#ClassVariable
  :id: M-CDISC_SDTMMODELEVENTS_xxSTDTC
  :namespace: http://www.assero.co.uk/MDRSdtmMd/CDISC/V1
  :label: Start Date/Time of Observation
  :extension_properties: []
  :ordinal: 64
  :rule: ''
  :name: "--STDTC"
  :variable_ref:
    :type: http://www.assero.co.uk/BusinessOperational#CReference
    :id: M-CDISC_SDTMMODELEVENTS_xxSTDTC_CR1
    :namespace: http://www.assero.co.uk/MDRSdtmMd/CDISC/V1
    :label: Based on Variable Reference
    :extension_properties: []
    :enabled: true
    :optional: false
    :ordinal: 64
    :local_label: ''
    :subject_ref:
      :namespace: http://www.assero.co.uk/MDRSdtmM/CDISC/V1
      :id: M-CDISC_SDTMMODEL_xxSTDTC
- :type: http://www.assero.co.uk/BusinessDomain#ClassVariable
  :id: M-CDISC_SDTMMODELEVENTS_xxENDTC
  :namespace: http://www.assero.co.uk/MDRSdtmMd/CDISC/V1
  :label: End Date/Time of Observation
  :extension_properties: []
  :ordinal: 65
  :rule: ''
  :name: "--ENDTC"
  :variable_ref:
    :type: http://www.assero.co.uk/BusinessOperational#CReference
    :id: M-CDISC_SDTMMODELEVENTS_xxENDTC_CR1
    :namespace: http://www.assero.co.uk/MDRSdtmMd/CDISC/V1
    :label: Based on Variable Reference
    :extension_properties: []
    :enabled: true
    :optional: false
    :ordinal: 65
    :local_label: ''
    :subject_ref:
      :namespace: http://www.assero.co.uk/MDRSdtmM/CDISC/V1
      :id: M-CDISC_SDTMMODEL_xxENDTC
- :type: http://www.assero.co.uk/BusinessDomain#ClassVariable
  :id: M-CDISC_SDTMMODELEVENTS_xxDY
  :namespace: http://www.assero.co.uk/MDRSdtmMd/CDISC/V1
  :label: Study Day of Visit/Collection/Exam
  :extension_properties: []
  :ordinal: 66
  :rule: ''
  :name: "--DY"
  :variable_ref:
    :type: http://www.assero.co.uk/BusinessOperational#CReference
    :id: M-CDISC_SDTMMODELEVENTS_xxDY_CR1
    :namespace: http://www.assero.co.uk/MDRSdtmMd/CDISC/V1
    :label: Based on Variable Reference
    :extension_properties: []
    :enabled: true
    :optional: false
    :ordinal: 66
    :local_label: ''
    :subject_ref:
      :namespace: http://www.assero.co.uk/MDRSdtmM/CDISC/V1
      :id: M-CDISC_SDTMMODEL_xxDY
- :type: http://www.assero.co.uk/BusinessDomain#ClassVariable
  :id: M-CDISC_SDTMMODELEVENTS_xxSTDY
  :namespace: http://www.assero.co.uk/MDRSdtmMd/CDISC/V1
  :label: Study Day of Start of Observation
  :extension_properties: []
  :ordinal: 67
  :rule: ''
  :name: "--STDY"
  :variable_ref:
    :type: http://www.assero.co.uk/BusinessOperational#CReference
    :id: M-CDISC_SDTMMODELEVENTS_xxSTDY_CR1
    :namespace: http://www.assero.co.uk/MDRSdtmMd/CDISC/V1
    :label: Based on Variable Reference
    :extension_properties: []
    :enabled: true
    :optional: false
    :ordinal: 67
    :local_label: ''
    :subject_ref:
      :namespace: http://www.assero.co.uk/MDRSdtmM/CDISC/V1
      :id: M-CDISC_SDTMMODEL_xxSTDY
- :type: http://www.assero.co.uk/BusinessDomain#ClassVariable
  :id: M-CDISC_SDTMMODELEVENTS_xxENDY
  :namespace: http://www.assero.co.uk/MDRSdtmMd/CDISC/V1
  :label: Study Day of End of Observation
  :extension_properties: []
  :ordinal: 68
  :rule: ''
  :name: "--ENDY"
  :variable_ref:
    :type: http://www.assero.co.uk/BusinessOperational#CReference
    :id: M-CDISC_SDTMMODELEVENTS_xxENDY_CR1
    :namespace: http://www.assero.co.uk/MDRSdtmMd/CDISC/V1
    :label: Based on Variable Reference
    :extension_properties: []
    :enabled: true
    :optional: false
    :ordinal: 68
    :local_label: ''
    :subject_ref:
      :namespace: http://www.assero.co.uk/MDRSdtmM/CDISC/V1
      :id: M-CDISC_SDTMMODEL_xxENDY
- :type: http://www.assero.co.uk/BusinessDomain#ClassVariable
  :id: M-CDISC_SDTMMODELEVENTS_xxDUR
  :namespace: http://www.assero.co.uk/MDRSdtmMd/CDISC/V1
  :label: Duration
  :extension_properties: []
  :ordinal: 69
  :rule: ''
  :name: "--DUR"
  :variable_ref:
    :type: http://www.assero.co.uk/BusinessOperational#CReference
    :id: M-CDISC_SDTMMODELEVENTS_xxDUR_CR1
    :namespace: http://www.assero.co.uk/MDRSdtmMd/CDISC/V1
    :label: Based on Variable Reference
    :extension_properties: []
    :enabled: true
    :optional: false
    :ordinal: 69
    :local_label: ''
    :subject_ref:
      :namespace: http://www.assero.co.uk/MDRSdtmM/CDISC/V1
      :id: M-CDISC_SDTMMODEL_xxDUR
- :type: http://www.assero.co.uk/BusinessDomain#ClassVariable
  :id: M-CDISC_SDTMMODELEVENTS_xxTPT
  :namespace: http://www.assero.co.uk/MDRSdtmMd/CDISC/V1
  :label: Planned Time Point Name
  :extension_properties: []
  :ordinal: 70
  :rule: ''
  :name: "--TPT"
  :variable_ref:
    :type: http://www.assero.co.uk/BusinessOperational#CReference
    :id: M-CDISC_SDTMMODELEVENTS_xxTPT_CR1
    :namespace: http://www.assero.co.uk/MDRSdtmMd/CDISC/V1
    :label: Based on Variable Reference
    :extension_properties: []
    :enabled: true
    :optional: false
    :ordinal: 70
    :local_label: ''
    :subject_ref:
      :namespace: http://www.assero.co.uk/MDRSdtmM/CDISC/V1
      :id: M-CDISC_SDTMMODEL_xxTPT
- :type: http://www.assero.co.uk/BusinessDomain#ClassVariable
  :id: M-CDISC_SDTMMODELEVENTS_xxTPTNUM
  :namespace: http://www.assero.co.uk/MDRSdtmMd/CDISC/V1
  :label: Planned Time Point Number
  :extension_properties: []
  :ordinal: 71
  :rule: ''
  :name: "--TPTNUM"
  :variable_ref:
    :type: http://www.assero.co.uk/BusinessOperational#CReference
    :id: M-CDISC_SDTMMODELEVENTS_xxTPTNUM_CR1
    :namespace: http://www.assero.co.uk/MDRSdtmMd/CDISC/V1
    :label: Based on Variable Reference
    :extension_properties: []
    :enabled: true
    :optional: false
    :ordinal: 71
    :local_label: ''
    :subject_ref:
      :namespace: http://www.assero.co.uk/MDRSdtmM/CDISC/V1
      :id: M-CDISC_SDTMMODEL_xxTPTNUM
- :type: http://www.assero.co.uk/BusinessDomain#ClassVariable
  :id: M-CDISC_SDTMMODELEVENTS_xxELTM
  :namespace: http://www.assero.co.uk/MDRSdtmMd/CDISC/V1
  :label: Planned Elapsed Time from Time Point Ref
  :extension_properties: []
  :ordinal: 72
  :rule: ''
  :name: "--ELTM"
  :variable_ref:
    :type: http://www.assero.co.uk/BusinessOperational#CReference
    :id: M-CDISC_SDTMMODELEVENTS_xxELTM_CR1
    :namespace: http://www.assero.co.uk/MDRSdtmMd/CDISC/V1
    :label: Based on Variable Reference
    :extension_properties: []
    :enabled: true
    :optional: false
    :ordinal: 72
    :local_label: ''
    :subject_ref:
      :namespace: http://www.assero.co.uk/MDRSdtmM/CDISC/V1
      :id: M-CDISC_SDTMMODEL_xxELTM
- :type: http://www.assero.co.uk/BusinessDomain#ClassVariable
  :id: M-CDISC_SDTMMODELEVENTS_xxTPTREF
  :namespace: http://www.assero.co.uk/MDRSdtmMd/CDISC/V1
  :label: Time Point Reference
  :extension_properties: []
  :ordinal: 73
  :rule: ''
  :name: "--TPTREF"
  :variable_ref:
    :type: http://www.assero.co.uk/BusinessOperational#CReference
    :id: M-CDISC_SDTMMODELEVENTS_xxTPTREF_CR1
    :namespace: http://www.assero.co.uk/MDRSdtmMd/CDISC/V1
    :label: Based on Variable Reference
    :extension_properties: []
    :enabled: true
    :optional: false
    :ordinal: 73
    :local_label: ''
    :subject_ref:
      :namespace: http://www.assero.co.uk/MDRSdtmM/CDISC/V1
      :id: M-CDISC_SDTMMODEL_xxTPTREF
- :type: http://www.assero.co.uk/BusinessDomain#ClassVariable
  :id: M-CDISC_SDTMMODELEVENTS_xxRFTDTC
  :namespace: http://www.assero.co.uk/MDRSdtmMd/CDISC/V1
  :label: Date/Time of Reference Time Point
  :extension_properties: []
  :ordinal: 74
  :rule: ''
  :name: "--RFTDTC"
  :variable_ref:
    :type: http://www.assero.co.uk/BusinessOperational#CReference
    :id: M-CDISC_SDTMMODELEVENTS_xxRFTDTC_CR1
    :namespace: http://www.assero.co.uk/MDRSdtmMd/CDISC/V1
    :label: Based on Variable Reference
    :extension_properties: []
    :enabled: true
    :optional: false
    :ordinal: 74
    :local_label: ''
    :subject_ref:
      :namespace: http://www.assero.co.uk/MDRSdtmM/CDISC/V1
      :id: M-CDISC_SDTMMODEL_xxRFTDTC
- :type: http://www.assero.co.uk/BusinessDomain#ClassVariable
  :id: M-CDISC_SDTMMODELEVENTS_xxSTRF
  :namespace: http://www.assero.co.uk/MDRSdtmMd/CDISC/V1
  :label: Start Relative to Reference Period
  :extension_properties: []
  :ordinal: 75
  :rule: ''
  :name: "--STRF"
  :variable_ref:
    :type: http://www.assero.co.uk/BusinessOperational#CReference
    :id: M-CDISC_SDTMMODELEVENTS_xxSTRF_CR1
    :namespace: http://www.assero.co.uk/MDRSdtmMd/CDISC/V1
    :label: Based on Variable Reference
    :extension_properties: []
    :enabled: true
    :optional: false
    :ordinal: 75
    :local_label: ''
    :subject_ref:
      :namespace: http://www.assero.co.uk/MDRSdtmM/CDISC/V1
      :id: M-CDISC_SDTMMODEL_xxSTRF
- :type: http://www.assero.co.uk/BusinessDomain#ClassVariable
  :id: M-CDISC_SDTMMODELEVENTS_xxENRF
  :namespace: http://www.assero.co.uk/MDRSdtmMd/CDISC/V1
  :label: End Relative to Reference Period
  :extension_properties: []
  :ordinal: 76
  :rule: ''
  :name: "--ENRF"
  :variable_ref:
    :type: http://www.assero.co.uk/BusinessOperational#CReference
    :id: M-CDISC_SDTMMODELEVENTS_xxENRF_CR1
    :namespace: http://www.assero.co.uk/MDRSdtmMd/CDISC/V1
    :label: Based on Variable Reference
    :extension_properties: []
    :enabled: true
    :optional: false
    :ordinal: 76
    :local_label: ''
    :subject_ref:
      :namespace: http://www.assero.co.uk/MDRSdtmM/CDISC/V1
      :id: M-CDISC_SDTMMODEL_xxENRF
- :type: http://www.assero.co.uk/BusinessDomain#ClassVariable
  :id: M-CDISC_SDTMMODELEVENTS_xxEVLINT
  :namespace: http://www.assero.co.uk/MDRSdtmMd/CDISC/V1
  :label: Evaluation Interval
  :extension_properties: []
  :ordinal: 77
  :rule: ''
  :name: "--EVLINT"
  :variable_ref:
    :type: http://www.assero.co.uk/BusinessOperational#CReference
    :id: M-CDISC_SDTMMODELEVENTS_xxEVLINT_CR1
    :namespace: http://www.assero.co.uk/MDRSdtmMd/CDISC/V1
    :label: Based on Variable Reference
    :extension_properties: []
    :enabled: true
    :optional: false
    :ordinal: 77
    :local_label: ''
    :subject_ref:
      :namespace: http://www.assero.co.uk/MDRSdtmM/CDISC/V1
      :id: M-CDISC_SDTMMODEL_xxEVLINT
- :type: http://www.assero.co.uk/BusinessDomain#ClassVariable
  :id: M-CDISC_SDTMMODELEVENTS_xxEVINTX
  :namespace: http://www.assero.co.uk/MDRSdtmMd/CDISC/V1
  :label: Evaluation Interval Text
  :extension_properties: []
  :ordinal: 78
  :rule: ''
  :name: "--EVINTX"
  :variable_ref:
    :type: http://www.assero.co.uk/BusinessOperational#CReference
    :id: M-CDISC_SDTMMODELEVENTS_xxEVINTX_CR1
    :namespace: http://www.assero.co.uk/MDRSdtmMd/CDISC/V1
    :label: Based on Variable Reference
    :extension_properties: []
    :enabled: true
    :optional: false
    :ordinal: 78
    :local_label: ''
    :subject_ref:
      :namespace: http://www.assero.co.uk/MDRSdtmM/CDISC/V1
      :id: M-CDISC_SDTMMODEL_xxEVINTX
- :type: http://www.assero.co.uk/BusinessDomain#ClassVariable
  :id: M-CDISC_SDTMMODELEVENTS_xxSTRTPT
  :namespace: http://www.assero.co.uk/MDRSdtmMd/CDISC/V1
  :label: Start Relative to Reference Time Point
  :extension_properties: []
  :ordinal: 79
  :rule: ''
  :name: "--STRTPT"
  :variable_ref:
    :type: http://www.assero.co.uk/BusinessOperational#CReference
    :id: M-CDISC_SDTMMODELEVENTS_xxSTRTPT_CR1
    :namespace: http://www.assero.co.uk/MDRSdtmMd/CDISC/V1
    :label: Based on Variable Reference
    :extension_properties: []
    :enabled: true
    :optional: false
    :ordinal: 79
    :local_label: ''
    :subject_ref:
      :namespace: http://www.assero.co.uk/MDRSdtmM/CDISC/V1
      :id: M-CDISC_SDTMMODEL_xxSTRTPT
- :type: http://www.assero.co.uk/BusinessDomain#ClassVariable
  :id: M-CDISC_SDTMMODELEVENTS_xxSTTPT
  :namespace: http://www.assero.co.uk/MDRSdtmMd/CDISC/V1
  :label: Start Reference Time Point
  :extension_properties: []
  :ordinal: 80
  :rule: ''
  :name: "--STTPT"
  :variable_ref:
    :type: http://www.assero.co.uk/BusinessOperational#CReference
    :id: M-CDISC_SDTMMODELEVENTS_xxSTTPT_CR1
    :namespace: http://www.assero.co.uk/MDRSdtmMd/CDISC/V1
    :label: Based on Variable Reference
    :extension_properties: []
    :enabled: true
    :optional: false
    :ordinal: 80
    :local_label: ''
    :subject_ref:
      :namespace: http://www.assero.co.uk/MDRSdtmM/CDISC/V1
      :id: M-CDISC_SDTMMODEL_xxSTTPT
- :type: http://www.assero.co.uk/BusinessDomain#ClassVariable
  :id: M-CDISC_SDTMMODELEVENTS_xxENRTPT
  :namespace: http://www.assero.co.uk/MDRSdtmMd/CDISC/V1
  :label: End Relative to Reference Time Point
  :extension_properties: []
  :ordinal: 81
  :rule: ''
  :name: "--ENRTPT"
  :variable_ref:
    :type: http://www.assero.co.uk/BusinessOperational#CReference
    :id: M-CDISC_SDTMMODELEVENTS_xxENRTPT_CR1
    :namespace: http://www.assero.co.uk/MDRSdtmMd/CDISC/V1
    :label: Based on Variable Reference
    :extension_properties: []
    :enabled: true
    :optional: false
    :ordinal: 81
    :local_label: ''
    :subject_ref:
      :namespace: http://www.assero.co.uk/MDRSdtmM/CDISC/V1
      :id: M-CDISC_SDTMMODEL_xxENRTPT
- :type: http://www.assero.co.uk/BusinessDomain#ClassVariable
  :id: M-CDISC_SDTMMODELEVENTS_xxENTPT
  :namespace: http://www.assero.co.uk/MDRSdtmMd/CDISC/V1
  :label: End Reference Time Point
  :extension_properties: []
  :ordinal: 82
  :rule: ''
  :name: "--ENTPT"
  :variable_ref:
    :type: http://www.assero.co.uk/BusinessOperational#CReference
    :id: M-CDISC_SDTMMODELEVENTS_xxENTPT_CR1
    :namespace: http://www.assero.co.uk/MDRSdtmMd/CDISC/V1
    :label: Based on Variable Reference
    :extension_properties: []
    :enabled: true
    :optional: false
    :ordinal: 82
    :local_label: ''
    :subject_ref:
      :namespace: http://www.assero.co.uk/MDRSdtmM/CDISC/V1
      :id: M-CDISC_SDTMMODEL_xxENTPT
- :type: http://www.assero.co.uk/BusinessDomain#ClassVariable
  :id: M-CDISC_SDTMMODELEVENTS_xxSTINT
  :namespace: http://www.assero.co.uk/MDRSdtmMd/CDISC/V1
  :label: Planned Start of Assessment Interval
  :extension_properties: []
  :ordinal: 83
  :rule: ''
  :name: "--STINT"
  :variable_ref:
    :type: http://www.assero.co.uk/BusinessOperational#CReference
    :id: M-CDISC_SDTMMODELEVENTS_xxSTINT_CR1
    :namespace: http://www.assero.co.uk/MDRSdtmMd/CDISC/V1
    :label: Based on Variable Reference
    :extension_properties: []
    :enabled: true
    :optional: false
    :ordinal: 83
    :local_label: ''
    :subject_ref:
      :namespace: http://www.assero.co.uk/MDRSdtmM/CDISC/V1
      :id: M-CDISC_SDTMMODEL_xxSTINT
- :type: http://www.assero.co.uk/BusinessDomain#ClassVariable
  :id: M-CDISC_SDTMMODELEVENTS_xxENINT
  :namespace: http://www.assero.co.uk/MDRSdtmMd/CDISC/V1
  :label: Planned End of Assessment Interval
  :extension_properties: []
  :ordinal: 84
  :rule: ''
  :name: "--ENINT"
  :variable_ref:
    :type: http://www.assero.co.uk/BusinessOperational#CReference
    :id: M-CDISC_SDTMMODELEVENTS_xxENINT_CR1
    :namespace: http://www.assero.co.uk/MDRSdtmMd/CDISC/V1
    :label: Based on Variable Reference
    :extension_properties: []
    :enabled: true
    :optional: false
    :ordinal: 84
    :local_label: ''
    :subject_ref:
      :namespace: http://www.assero.co.uk/MDRSdtmM/CDISC/V1
      :id: M-CDISC_SDTMMODEL_xxENINT
- :type: http://www.assero.co.uk/BusinessDomain#ClassVariable
  :id: M-CDISC_SDTMMODELEVENTS_xxDETECT
  :namespace: http://www.assero.co.uk/MDRSdtmMd/CDISC/V1
  :label: Time in Days to Detection
  :extension_properties: []
  :ordinal: 85
  :rule: ''
  :name: "--DETECT"
  :variable_ref:
    :type: http://www.assero.co.uk/BusinessOperational#CReference
    :id: M-CDISC_SDTMMODELEVENTS_xxDETECT_CR1
    :namespace: http://www.assero.co.uk/MDRSdtmMd/CDISC/V1
    :label: Based on Variable Reference
    :extension_properties: []
    :enabled: true
    :optional: false
    :ordinal: 85
    :local_label: ''
    :subject_ref:
      :namespace: http://www.assero.co.uk/MDRSdtmM/CDISC/V1
      :id: M-CDISC_SDTMMODEL_xxDETECT
