---
- '"Code","Codelist Code","Codelist Extensible (Yes/No)","Codelist Name","CDISC Submission
  Value","CDISC Synonym(s)","CDISC Definition","NCI Preferred Term"'
- '"C66788","C66788","true","Dictionary Name","DICTNAM","DICTNAM; Dictionary Name;
  Name of Dictionary","A name given to a reference source that lists words and gives
  their meaning. (NCI)","CDISC SDTM Dictionary Name Terminology"'
- '"C53489","C66788","","","SNOMED","SNOMED; Systematized Nomenclature of Medicine","A
  multiaxial, hierarchical classification system for diseases in man developed by
  the College of American Pathologists. (NCI)","Systematized Nomenclature of Medicine"'
- '"C49476","C66788","","","LOINC","LOINC; Logical Observation Identifiers Names and
  Codes","Published by the The Regenstrief Institute, the Logical Observation Identifiers
  Names and Codes covers clinical and clinical laboratory terminology. (NCI)","Logical
  Observation Identifiers Names and Codes"'
- '"C49468","C66788","","","WHOART","WHOART; World Health Organization Adverse Reaction
  Terms","A terminology implemented by the World Health Organization to describe adverse
  reactions to a prescribed medication or treatment regimen. (NCI)","World Health
  Organization Adverse Reaction Terminology"'
- '"C49474","C66788","","","ICD","ICD; International Classification of Diseases","A
  system of categories to which morbid entries are assigned according to established
  criteria. Included is the entire range of conditions in a manageable number of categories,
  grouped to facilitate mortality reporting. It is produced by the World Health Organization
  (from ICD-10, p1). The Clinical Modifications, produced by the United States Dept.
  of Health and Human Services, are larger extensions used for morbidity and general
  epidemiological purposes, primarily in the U.S. (MSH2005_2004_10_12)","International
  Classification of Diseases"'
- '"C43820","C66788","","","MedDRA","MedDRA; Medical Dictionary for Regulatory Activities","MedDRA
  is an international medical terminology designed to support the classification,
  retrieval, presentation, and communication of medical information throughout the
  medical product regulatory cycle. MedDRA was developed under the auspices of the
  International Conference on Harmonisation of Technical Requirements for Registration
  of Pharmaceuticals for Human Use (ICH). The MedDRA Maintenance and Support Services
  Organization (MSSO) holds a contract with the International Federation of Pharmaceutical
  Manufacturers Associations (IFPMA) to maintain and support the implementation of
  the terminology. (NCI)","MedDRA"'
- '"C49471","C66788","","","COSTART","COSTART; Coding Symbols for a Thesaurus of Adverse
  Reaction Terms","A terminology developed and used by the Food and Drug Administration
  (FDA) for the coding, filing and retrieving of post marketing adverse reaction reports.
  (NCI)","Thesaurus of Adverse Reaction Term Coding Symbols"'
- '"C49475","C66788","","","WHODD","WHODD; World Health Organization Drug Dictionary","A
  reference source of drugs and drug associated information maintained by the World
  Health Organization. (NCI)","World Health Organization Drug Dictionary"'
