---
- '"Code","Codelist Code","Codelist Extensible (Yes/No)","Codelist Name","CDISC Submission
  Value","CDISC Synonym(s)","CDISC Definition","NCI Preferred Term"'
- '"C66790","C66790","true","Patient Ethnic Group","ETHNIC","ETHNIC; Patient Ethnic
  Group","A social group characterized by a distinctive social and cultural tradition
  maintained from generation to generation, a common history and origin and a sense
  of identification with the group; members of the group have distinctive features
  in their way of life, shared experiences and often a common genetic heritage; these
  features may be reflected in their experience of health and disease. (NCI)","CDISC
  SDTM Patient Ethnic GroupTerminology"'
- '"C17998","C66790","","","UNKNOWN","U; UNKNOWN; Unknown","Not known, not observed,
  not recorded, or refused. (NCI)","Unknown"'
- '"C43234","C66790","","","Not reported","Not reported","Not provided or available","Not
  Stated"'
- '"C17459","C66790","","","HISPANIC OR LATINO","HISPANIC OR LATINO","A person of
  Mexican, Puerto Rican, Cuban, Central or South American or other Spanish culture
  or origin, regardless of race.  (NCI)","Hispanic or Latino"'
- '"C41222","C66790","","","NOT HISPANIC OR LATINO","NOT HISPANIC OR LATINO","A person
  not of Cuban, Mexican, Puerto Rican, South or Central American, or other Spanish
  culture or origin, regardless of race. An arbitrary ethnic classification. (NCI)","Not
  Hispanic or Latino"'
