---
:type: http://www.assero.co.uk/BusinessDomain#UserDomain
:id: D-ACME_XXDomain
:namespace: http://www.assero.co.uk/MDRSdtmUD/ACME/V1
:label: Clone VS as XX
:extension_properties: []
:origin: ''
:change_description: ''
:creation_date: '2017-12-20T20:52:09+00:00'
:last_changed_date: '2017-12-20T20:52:09+00:00'
:explanatory_comment: ''
:registration_state:
  :namespace: http://www.assero.co.uk/MDRItems
  :id: RS-ACME_XXDomain-1
  :registration_authority:
    :id: RA-123456789
    :number: '123456789'
    :scheme: DUNS
    :owner: true
    :namespace:
      :namespace: http://www.assero.co.uk/MDRItems
      :id: NS-ACME
      :name: ACME Pharma
      :shortName: ACME
  :registration_status: Incomplete
  :administrative_note: ''
  :effective_date: '2016-01-01T00:00:00+00:00'
  :until_date: '2016-01-01T00:00:00+00:00'
  :current: false
  :unresolved_issue: ''
  :administrative_status: ''
  :previous_state: Incomplete
:scoped_identifier:
  :id: SI-ACME_XXDomain-1
  :identifier: XX Domain
  :version_label: ''
  :version: 1
  :semantic_version: 0.1.0
  :namespace:
    :namespace: http://www.assero.co.uk/MDRItems
    :id: NS-ACME
    :name: ACME Pharma
    :shortName: ACME
:ordinal: 1
:rule: ''
:prefix: XX
:structure: ''
:notes: ''
:model_ref:
  :type: http://www.assero.co.uk/BusinessOperational#TReference
  :id: D-ACME_XXDomain_MD1
  :namespace: http://www.assero.co.uk/MDRSdtmUD/ACME/V1
  :label: Based on Domain Reference
  :extension_properties: []
  :enabled: true
  :optional: false
  :ordinal: 1
  :local_label: ''
  :subject_ref:
    :namespace: http://www.assero.co.uk/MDRSdtmMd/CDISC/V3
    :id: M-CDISC_SDTMMODELFINDINGS
:ig_ref:
  :type: http://www.assero.co.uk/BusinessOperational#TReference
  :id: D-ACME_XXDomain_IGD1
  :namespace: http://www.assero.co.uk/MDRSdtmUD/ACME/V1
  :label: Based on Domain Reference
  :extension_properties: []
  :enabled: true
  :optional: false
  :ordinal: 0
  :local_label: ''
  :subject_ref:
    :namespace: http://www.assero.co.uk/MDRSdtmIgD/CDISC/V3
    :id: IG-CDISC_SDTMIGVS
:children:
- :type: http://www.assero.co.uk/BusinessDomain#UserVariable
  :id: D-ACME_XXDomain_V1
  :namespace: http://www.assero.co.uk/MDRSdtmUD/ACME/V1
  :label: Study Identifier
  :extension_properties: []
  :ordinal: 1
  :rule: ''
  :name: STUDYID
  :notes: ''
  :format: ''
  :ct: ''
  :non_standard: false
  :comment: ''
  :length: 0
  :used: true
  :key_ordinal: 0
  :datatype:
    :type: http://www.assero.co.uk/BusinessDomain#VariableType
    :id: M-CDISC_SDTMMODEL_DT_CHAR
    :namespace: http://www.assero.co.uk/MDRSdtmM/CDISC/V3
    :label: Char
    :extension_properties: []
  :compliance:
    :type: http://www.assero.co.uk/BusinessDomain#VariableCompliance
    :id: IG-CDISC_SDTMIG_C_REQUIRED
    :namespace: http://www.assero.co.uk/MDRSdtmIg/CDISC/V3
    :label: Required
    :extension_properties: []
  :classification:
    :type: http://www.assero.co.uk/BusinessDomain#VariableClassification
    :id: M-CDISC_SDTMMODEL_C_IDENTIFIER
    :namespace: http://www.assero.co.uk/MDRSdtmM/CDISC/V3
    :label: Identifier
    :extension_properties: []
  :sub_classification: {}
  :variable_ref:
    :type: http://www.assero.co.uk/BusinessOperational#CReference
    :id: D-ACME_XXDomain_V1_IGV1
    :namespace: http://www.assero.co.uk/MDRSdtmUD/ACME/V1
    :label: Based on Variable Reference
    :extension_properties: []
    :enabled: true
    :optional: false
    :ordinal: 0
    :local_label: ''
    :subject_ref:
      :namespace: http://www.assero.co.uk/MDRSdtmIgD/CDISC/V3
      :id: IG-CDISC_SDTMIGVS_STUDYID
  :property_refs: []
- :type: http://www.assero.co.uk/BusinessDomain#UserVariable
  :id: D-ACME_XXDomain_V2
  :namespace: http://www.assero.co.uk/MDRSdtmUD/ACME/V1
  :label: Domain Abbreviation
  :extension_properties: []
  :ordinal: 2
  :rule: ''
  :name: DOMAIN
  :notes: ''
  :format: ''
  :ct: DOMAIN
  :non_standard: false
  :comment: ''
  :length: 0
  :used: true
  :key_ordinal: 0
  :datatype:
    :type: http://www.assero.co.uk/BusinessDomain#VariableType
    :id: M-CDISC_SDTMMODEL_DT_CHAR
    :namespace: http://www.assero.co.uk/MDRSdtmM/CDISC/V3
    :label: Char
    :extension_properties: []
  :compliance:
    :type: http://www.assero.co.uk/BusinessDomain#VariableCompliance
    :id: IG-CDISC_SDTMIG_C_REQUIRED
    :namespace: http://www.assero.co.uk/MDRSdtmIg/CDISC/V3
    :label: Required
    :extension_properties: []
  :classification:
    :type: http://www.assero.co.uk/BusinessDomain#VariableClassification
    :id: M-CDISC_SDTMMODEL_C_IDENTIFIER
    :namespace: http://www.assero.co.uk/MDRSdtmM/CDISC/V3
    :label: Identifier
    :extension_properties: []
  :sub_classification: {}
  :variable_ref:
    :type: http://www.assero.co.uk/BusinessOperational#CReference
    :id: D-ACME_XXDomain_V2_IGV1
    :namespace: http://www.assero.co.uk/MDRSdtmUD/ACME/V1
    :label: Based on Variable Reference
    :extension_properties: []
    :enabled: true
    :optional: false
    :ordinal: 0
    :local_label: ''
    :subject_ref:
      :namespace: http://www.assero.co.uk/MDRSdtmIgD/CDISC/V3
      :id: IG-CDISC_SDTMIGVS_DOMAIN
  :property_refs: []
- :type: http://www.assero.co.uk/BusinessDomain#UserVariable
  :id: D-ACME_XXDomain_V3
  :namespace: http://www.assero.co.uk/MDRSdtmUD/ACME/V1
  :label: Unique Subject Identifier
  :extension_properties: []
  :ordinal: 3
  :rule: ''
  :name: USUBJID
  :notes: ''
  :format: ''
  :ct: ''
  :non_standard: false
  :comment: ''
  :length: 0
  :used: true
  :key_ordinal: 0
  :datatype:
    :type: http://www.assero.co.uk/BusinessDomain#VariableType
    :id: M-CDISC_SDTMMODEL_DT_CHAR
    :namespace: http://www.assero.co.uk/MDRSdtmM/CDISC/V3
    :label: Char
    :extension_properties: []
  :compliance:
    :type: http://www.assero.co.uk/BusinessDomain#VariableCompliance
    :id: IG-CDISC_SDTMIG_C_REQUIRED
    :namespace: http://www.assero.co.uk/MDRSdtmIg/CDISC/V3
    :label: Required
    :extension_properties: []
  :classification:
    :type: http://www.assero.co.uk/BusinessDomain#VariableClassification
    :id: M-CDISC_SDTMMODEL_C_IDENTIFIER
    :namespace: http://www.assero.co.uk/MDRSdtmM/CDISC/V3
    :label: Identifier
    :extension_properties: []
  :sub_classification: {}
  :variable_ref:
    :type: http://www.assero.co.uk/BusinessOperational#CReference
    :id: D-ACME_XXDomain_V3_IGV1
    :namespace: http://www.assero.co.uk/MDRSdtmUD/ACME/V1
    :label: Based on Variable Reference
    :extension_properties: []
    :enabled: true
    :optional: false
    :ordinal: 0
    :local_label: ''
    :subject_ref:
      :namespace: http://www.assero.co.uk/MDRSdtmIgD/CDISC/V3
      :id: IG-CDISC_SDTMIGVS_USUBJID
  :property_refs: []
- :type: http://www.assero.co.uk/BusinessDomain#UserVariable
  :id: D-ACME_XXDomain_V4
  :namespace: http://www.assero.co.uk/MDRSdtmUD/ACME/V1
  :label: Sequence Number
  :extension_properties: []
  :ordinal: 4
  :rule: ''
  :name: XXSEQ
  :notes: ''
  :format: ''
  :ct: ''
  :non_standard: false
  :comment: ''
  :length: 0
  :used: true
  :key_ordinal: 0
  :datatype:
    :type: http://www.assero.co.uk/BusinessDomain#VariableType
    :id: M-CDISC_SDTMMODEL_DT_NUM
    :namespace: http://www.assero.co.uk/MDRSdtmM/CDISC/V3
    :label: Num
    :extension_properties: []
  :compliance:
    :type: http://www.assero.co.uk/BusinessDomain#VariableCompliance
    :id: IG-CDISC_SDTMIG_C_REQUIRED
    :namespace: http://www.assero.co.uk/MDRSdtmIg/CDISC/V3
    :label: Required
    :extension_properties: []
  :classification:
    :type: http://www.assero.co.uk/BusinessDomain#VariableClassification
    :id: M-CDISC_SDTMMODEL_C_IDENTIFIER
    :namespace: http://www.assero.co.uk/MDRSdtmM/CDISC/V3
    :label: Identifier
    :extension_properties: []
  :sub_classification: {}
  :variable_ref:
    :type: http://www.assero.co.uk/BusinessOperational#CReference
    :id: D-ACME_XXDomain_V4_IGV1
    :namespace: http://www.assero.co.uk/MDRSdtmUD/ACME/V1
    :label: Based on Variable Reference
    :extension_properties: []
    :enabled: true
    :optional: false
    :ordinal: 0
    :local_label: ''
    :subject_ref:
      :namespace: http://www.assero.co.uk/MDRSdtmIgD/CDISC/V3
      :id: IG-CDISC_SDTMIGVS_VSSEQ
  :property_refs: []
- :type: http://www.assero.co.uk/BusinessDomain#UserVariable
  :id: D-ACME_XXDomain_V5
  :namespace: http://www.assero.co.uk/MDRSdtmUD/ACME/V1
  :label: Group ID
  :extension_properties: []
  :ordinal: 5
  :rule: ''
  :name: XXGRPID
  :notes: ''
  :format: ''
  :ct: ''
  :non_standard: false
  :comment: ''
  :length: 0
  :used: true
  :key_ordinal: 0
  :datatype:
    :type: http://www.assero.co.uk/BusinessDomain#VariableType
    :id: M-CDISC_SDTMMODEL_DT_CHAR
    :namespace: http://www.assero.co.uk/MDRSdtmM/CDISC/V3
    :label: Char
    :extension_properties: []
  :compliance:
    :type: http://www.assero.co.uk/BusinessDomain#VariableCompliance
    :id: IG-CDISC_SDTMIG_C_PERMISSIBLE
    :namespace: http://www.assero.co.uk/MDRSdtmIg/CDISC/V3
    :label: Permissible
    :extension_properties: []
  :classification:
    :type: http://www.assero.co.uk/BusinessDomain#VariableClassification
    :id: M-CDISC_SDTMMODEL_C_IDENTIFIER
    :namespace: http://www.assero.co.uk/MDRSdtmM/CDISC/V3
    :label: Identifier
    :extension_properties: []
  :sub_classification: {}
  :variable_ref:
    :type: http://www.assero.co.uk/BusinessOperational#CReference
    :id: D-ACME_XXDomain_V5_IGV1
    :namespace: http://www.assero.co.uk/MDRSdtmUD/ACME/V1
    :label: Based on Variable Reference
    :extension_properties: []
    :enabled: true
    :optional: false
    :ordinal: 0
    :local_label: ''
    :subject_ref:
      :namespace: http://www.assero.co.uk/MDRSdtmIgD/CDISC/V3
      :id: IG-CDISC_SDTMIGVS_VSGRPID
  :property_refs: []
- :type: http://www.assero.co.uk/BusinessDomain#UserVariable
  :id: D-ACME_XXDomain_V6
  :namespace: http://www.assero.co.uk/MDRSdtmUD/ACME/V1
  :label: Sponsor-Defined Identifier
  :extension_properties: []
  :ordinal: 6
  :rule: ''
  :name: XXSPID
  :notes: ''
  :format: ''
  :ct: ''
  :non_standard: false
  :comment: ''
  :length: 0
  :used: true
  :key_ordinal: 0
  :datatype:
    :type: http://www.assero.co.uk/BusinessDomain#VariableType
    :id: M-CDISC_SDTMMODEL_DT_CHAR
    :namespace: http://www.assero.co.uk/MDRSdtmM/CDISC/V3
    :label: Char
    :extension_properties: []
  :compliance:
    :type: http://www.assero.co.uk/BusinessDomain#VariableCompliance
    :id: IG-CDISC_SDTMIG_C_PERMISSIBLE
    :namespace: http://www.assero.co.uk/MDRSdtmIg/CDISC/V3
    :label: Permissible
    :extension_properties: []
  :classification:
    :type: http://www.assero.co.uk/BusinessDomain#VariableClassification
    :id: M-CDISC_SDTMMODEL_C_IDENTIFIER
    :namespace: http://www.assero.co.uk/MDRSdtmM/CDISC/V3
    :label: Identifier
    :extension_properties: []
  :sub_classification: {}
  :variable_ref:
    :type: http://www.assero.co.uk/BusinessOperational#CReference
    :id: D-ACME_XXDomain_V6_IGV1
    :namespace: http://www.assero.co.uk/MDRSdtmUD/ACME/V1
    :label: Based on Variable Reference
    :extension_properties: []
    :enabled: true
    :optional: false
    :ordinal: 0
    :local_label: ''
    :subject_ref:
      :namespace: http://www.assero.co.uk/MDRSdtmIgD/CDISC/V3
      :id: IG-CDISC_SDTMIGVS_VSSPID
  :property_refs: []
- :type: http://www.assero.co.uk/BusinessDomain#UserVariable
  :id: D-ACME_XXDomain_V7
  :namespace: http://www.assero.co.uk/MDRSdtmUD/ACME/V1
  :label: Vital Signs Test Short Name
  :extension_properties: []
  :ordinal: 7
  :rule: ''
  :name: XXTESTCD
  :notes: ''
  :format: ''
  :ct: VSTESTCD
  :non_standard: false
  :comment: ''
  :length: 0
  :used: true
  :key_ordinal: 0
  :datatype:
    :type: http://www.assero.co.uk/BusinessDomain#VariableType
    :id: M-CDISC_SDTMMODEL_DT_CHAR
    :namespace: http://www.assero.co.uk/MDRSdtmM/CDISC/V3
    :label: Char
    :extension_properties: []
  :compliance:
    :type: http://www.assero.co.uk/BusinessDomain#VariableCompliance
    :id: IG-CDISC_SDTMIG_C_REQUIRED
    :namespace: http://www.assero.co.uk/MDRSdtmIg/CDISC/V3
    :label: Required
    :extension_properties: []
  :classification:
    :type: http://www.assero.co.uk/BusinessDomain#VariableClassification
    :id: M-CDISC_SDTMMODEL_C_TOPIC
    :namespace: http://www.assero.co.uk/MDRSdtmM/CDISC/V3
    :label: Topic
    :extension_properties: []
  :sub_classification: {}
  :variable_ref:
    :type: http://www.assero.co.uk/BusinessOperational#CReference
    :id: D-ACME_XXDomain_V7_IGV1
    :namespace: http://www.assero.co.uk/MDRSdtmUD/ACME/V1
    :label: Based on Variable Reference
    :extension_properties: []
    :enabled: true
    :optional: false
    :ordinal: 0
    :local_label: ''
    :subject_ref:
      :namespace: http://www.assero.co.uk/MDRSdtmIgD/CDISC/V3
      :id: IG-CDISC_SDTMIGVS_VSTESTCD
  :property_refs: []
- :type: http://www.assero.co.uk/BusinessDomain#UserVariable
  :id: D-ACME_XXDomain_V8
  :namespace: http://www.assero.co.uk/MDRSdtmUD/ACME/V1
  :label: Vital Signs Test Name
  :extension_properties: []
  :ordinal: 8
  :rule: ''
  :name: XXTEST
  :notes: ''
  :format: ''
  :ct: VSTEST
  :non_standard: false
  :comment: ''
  :length: 0
  :used: true
  :key_ordinal: 0
  :datatype:
    :type: http://www.assero.co.uk/BusinessDomain#VariableType
    :id: M-CDISC_SDTMMODEL_DT_CHAR
    :namespace: http://www.assero.co.uk/MDRSdtmM/CDISC/V3
    :label: Char
    :extension_properties: []
  :compliance:
    :type: http://www.assero.co.uk/BusinessDomain#VariableCompliance
    :id: IG-CDISC_SDTMIG_C_REQUIRED
    :namespace: http://www.assero.co.uk/MDRSdtmIg/CDISC/V3
    :label: Required
    :extension_properties: []
  :classification:
    :type: http://www.assero.co.uk/BusinessDomain#VariableClassification
    :id: M-CDISC_SDTMMODEL_C_QUALIFIER
    :namespace: http://www.assero.co.uk/MDRSdtmM/CDISC/V3
    :label: Qualifier
    :extension_properties: []
  :sub_classification:
    :type: http://www.assero.co.uk/BusinessDomain#VariableClassification
    :id: M-CDISC_SDTMMODEL_C_QUALIFIER_SC_SYNONYMQUALIFIER
    :namespace: http://www.assero.co.uk/MDRSdtmM/CDISC/V3
    :label: Synonym Qualifier
    :extension_properties: []
  :variable_ref:
    :type: http://www.assero.co.uk/BusinessOperational#CReference
    :id: D-ACME_XXDomain_V8_IGV1
    :namespace: http://www.assero.co.uk/MDRSdtmUD/ACME/V1
    :label: Based on Variable Reference
    :extension_properties: []
    :enabled: true
    :optional: false
    :ordinal: 0
    :local_label: ''
    :subject_ref:
      :namespace: http://www.assero.co.uk/MDRSdtmIgD/CDISC/V3
      :id: IG-CDISC_SDTMIGVS_VSTEST
  :property_refs: []
- :type: http://www.assero.co.uk/BusinessDomain#UserVariable
  :id: D-ACME_XXDomain_V9
  :namespace: http://www.assero.co.uk/MDRSdtmUD/ACME/V1
  :label: Category for Vital Signs
  :extension_properties: []
  :ordinal: 9
  :rule: ''
  :name: XXCAT
  :notes: ''
  :format: ''
  :ct: ''
  :non_standard: false
  :comment: ''
  :length: 0
  :used: true
  :key_ordinal: 0
  :datatype:
    :type: http://www.assero.co.uk/BusinessDomain#VariableType
    :id: M-CDISC_SDTMMODEL_DT_CHAR
    :namespace: http://www.assero.co.uk/MDRSdtmM/CDISC/V3
    :label: Char
    :extension_properties: []
  :compliance:
    :type: http://www.assero.co.uk/BusinessDomain#VariableCompliance
    :id: IG-CDISC_SDTMIG_C_PERMISSIBLE
    :namespace: http://www.assero.co.uk/MDRSdtmIg/CDISC/V3
    :label: Permissible
    :extension_properties: []
  :classification:
    :type: http://www.assero.co.uk/BusinessDomain#VariableClassification
    :id: M-CDISC_SDTMMODEL_C_QUALIFIER
    :namespace: http://www.assero.co.uk/MDRSdtmM/CDISC/V3
    :label: Qualifier
    :extension_properties: []
  :sub_classification:
    :type: http://www.assero.co.uk/BusinessDomain#VariableClassification
    :id: M-CDISC_SDTMMODEL_C_QUALIFIER_SC_GROUPINGQUALIFIER
    :namespace: http://www.assero.co.uk/MDRSdtmM/CDISC/V3
    :label: Grouping Qualifier
    :extension_properties: []
  :variable_ref:
    :type: http://www.assero.co.uk/BusinessOperational#CReference
    :id: D-ACME_XXDomain_V9_IGV1
    :namespace: http://www.assero.co.uk/MDRSdtmUD/ACME/V1
    :label: Based on Variable Reference
    :extension_properties: []
    :enabled: true
    :optional: false
    :ordinal: 0
    :local_label: ''
    :subject_ref:
      :namespace: http://www.assero.co.uk/MDRSdtmIgD/CDISC/V3
      :id: IG-CDISC_SDTMIGVS_VSCAT
  :property_refs: []
- :type: http://www.assero.co.uk/BusinessDomain#UserVariable
  :id: D-ACME_XXDomain_V10
  :namespace: http://www.assero.co.uk/MDRSdtmUD/ACME/V1
  :label: Subcategory for Vital Signs
  :extension_properties: []
  :ordinal: 10
  :rule: ''
  :name: XXSCAT
  :notes: ''
  :format: ''
  :ct: ''
  :non_standard: false
  :comment: ''
  :length: 0
  :used: true
  :key_ordinal: 0
  :datatype:
    :type: http://www.assero.co.uk/BusinessDomain#VariableType
    :id: M-CDISC_SDTMMODEL_DT_CHAR
    :namespace: http://www.assero.co.uk/MDRSdtmM/CDISC/V3
    :label: Char
    :extension_properties: []
  :compliance:
    :type: http://www.assero.co.uk/BusinessDomain#VariableCompliance
    :id: IG-CDISC_SDTMIG_C_PERMISSIBLE
    :namespace: http://www.assero.co.uk/MDRSdtmIg/CDISC/V3
    :label: Permissible
    :extension_properties: []
  :classification:
    :type: http://www.assero.co.uk/BusinessDomain#VariableClassification
    :id: M-CDISC_SDTMMODEL_C_QUALIFIER
    :namespace: http://www.assero.co.uk/MDRSdtmM/CDISC/V3
    :label: Qualifier
    :extension_properties: []
  :sub_classification:
    :type: http://www.assero.co.uk/BusinessDomain#VariableClassification
    :id: M-CDISC_SDTMMODEL_C_QUALIFIER_SC_GROUPINGQUALIFIER
    :namespace: http://www.assero.co.uk/MDRSdtmM/CDISC/V3
    :label: Grouping Qualifier
    :extension_properties: []
  :variable_ref:
    :type: http://www.assero.co.uk/BusinessOperational#CReference
    :id: D-ACME_XXDomain_V10_IGV1
    :namespace: http://www.assero.co.uk/MDRSdtmUD/ACME/V1
    :label: Based on Variable Reference
    :extension_properties: []
    :enabled: true
    :optional: false
    :ordinal: 0
    :local_label: ''
    :subject_ref:
      :namespace: http://www.assero.co.uk/MDRSdtmIgD/CDISC/V3
      :id: IG-CDISC_SDTMIGVS_VSSCAT
  :property_refs: []
- :type: http://www.assero.co.uk/BusinessDomain#UserVariable
  :id: D-ACME_XXDomain_V11
  :namespace: http://www.assero.co.uk/MDRSdtmUD/ACME/V1
  :label: Vital Signs Position of Subject
  :extension_properties: []
  :ordinal: 11
  :rule: ''
  :name: XXPOS
  :notes: ''
  :format: ''
  :ct: POSITION
  :non_standard: false
  :comment: ''
  :length: 0
  :used: true
  :key_ordinal: 0
  :datatype:
    :type: http://www.assero.co.uk/BusinessDomain#VariableType
    :id: M-CDISC_SDTMMODEL_DT_CHAR
    :namespace: http://www.assero.co.uk/MDRSdtmM/CDISC/V3
    :label: Char
    :extension_properties: []
  :compliance:
    :type: http://www.assero.co.uk/BusinessDomain#VariableCompliance
    :id: IG-CDISC_SDTMIG_C_PERMISSIBLE
    :namespace: http://www.assero.co.uk/MDRSdtmIg/CDISC/V3
    :label: Permissible
    :extension_properties: []
  :classification:
    :type: http://www.assero.co.uk/BusinessDomain#VariableClassification
    :id: M-CDISC_SDTMMODEL_C_QUALIFIER
    :namespace: http://www.assero.co.uk/MDRSdtmM/CDISC/V3
    :label: Qualifier
    :extension_properties: []
  :sub_classification:
    :type: http://www.assero.co.uk/BusinessDomain#VariableClassification
    :id: M-CDISC_SDTMMODEL_C_QUALIFIER_SC_RECORDQUALIFIER
    :namespace: http://www.assero.co.uk/MDRSdtmM/CDISC/V3
    :label: Record Qualifier
    :extension_properties: []
  :variable_ref:
    :type: http://www.assero.co.uk/BusinessOperational#CReference
    :id: D-ACME_XXDomain_V11_IGV1
    :namespace: http://www.assero.co.uk/MDRSdtmUD/ACME/V1
    :label: Based on Variable Reference
    :extension_properties: []
    :enabled: true
    :optional: false
    :ordinal: 0
    :local_label: ''
    :subject_ref:
      :namespace: http://www.assero.co.uk/MDRSdtmIgD/CDISC/V3
      :id: IG-CDISC_SDTMIGVS_VSPOS
  :property_refs: []
- :type: http://www.assero.co.uk/BusinessDomain#UserVariable
  :id: D-ACME_XXDomain_V12
  :namespace: http://www.assero.co.uk/MDRSdtmUD/ACME/V1
  :label: Result or Finding in Original Units
  :extension_properties: []
  :ordinal: 12
  :rule: ''
  :name: XXORRES
  :notes: ''
  :format: ''
  :ct: ''
  :non_standard: false
  :comment: ''
  :length: 0
  :used: true
  :key_ordinal: 0
  :datatype:
    :type: http://www.assero.co.uk/BusinessDomain#VariableType
    :id: M-CDISC_SDTMMODEL_DT_CHAR
    :namespace: http://www.assero.co.uk/MDRSdtmM/CDISC/V3
    :label: Char
    :extension_properties: []
  :compliance:
    :type: http://www.assero.co.uk/BusinessDomain#VariableCompliance
    :id: IG-CDISC_SDTMIG_C_EXPECTED
    :namespace: http://www.assero.co.uk/MDRSdtmIg/CDISC/V3
    :label: Expected
    :extension_properties: []
  :classification:
    :type: http://www.assero.co.uk/BusinessDomain#VariableClassification
    :id: M-CDISC_SDTMMODEL_C_QUALIFIER
    :namespace: http://www.assero.co.uk/MDRSdtmM/CDISC/V3
    :label: Qualifier
    :extension_properties: []
  :sub_classification:
    :type: http://www.assero.co.uk/BusinessDomain#VariableClassification
    :id: M-CDISC_SDTMMODEL_C_QUALIFIER_SC_RESULTQUALIFIER
    :namespace: http://www.assero.co.uk/MDRSdtmM/CDISC/V3
    :label: Result Qualifier
    :extension_properties: []
  :variable_ref:
    :type: http://www.assero.co.uk/BusinessOperational#CReference
    :id: D-ACME_XXDomain_V12_IGV1
    :namespace: http://www.assero.co.uk/MDRSdtmUD/ACME/V1
    :label: Based on Variable Reference
    :extension_properties: []
    :enabled: true
    :optional: false
    :ordinal: 0
    :local_label: ''
    :subject_ref:
      :namespace: http://www.assero.co.uk/MDRSdtmIgD/CDISC/V3
      :id: IG-CDISC_SDTMIGVS_VSORRES
  :property_refs: []
- :type: http://www.assero.co.uk/BusinessDomain#UserVariable
  :id: D-ACME_XXDomain_V13
  :namespace: http://www.assero.co.uk/MDRSdtmUD/ACME/V1
  :label: Original Units
  :extension_properties: []
  :ordinal: 13
  :rule: ''
  :name: XXORRESU
  :notes: ''
  :format: ''
  :ct: VSRESU
  :non_standard: false
  :comment: ''
  :length: 0
  :used: true
  :key_ordinal: 0
  :datatype:
    :type: http://www.assero.co.uk/BusinessDomain#VariableType
    :id: M-CDISC_SDTMMODEL_DT_CHAR
    :namespace: http://www.assero.co.uk/MDRSdtmM/CDISC/V3
    :label: Char
    :extension_properties: []
  :compliance:
    :type: http://www.assero.co.uk/BusinessDomain#VariableCompliance
    :id: IG-CDISC_SDTMIG_C_EXPECTED
    :namespace: http://www.assero.co.uk/MDRSdtmIg/CDISC/V3
    :label: Expected
    :extension_properties: []
  :classification:
    :type: http://www.assero.co.uk/BusinessDomain#VariableClassification
    :id: M-CDISC_SDTMMODEL_C_QUALIFIER
    :namespace: http://www.assero.co.uk/MDRSdtmM/CDISC/V3
    :label: Qualifier
    :extension_properties: []
  :sub_classification:
    :type: http://www.assero.co.uk/BusinessDomain#VariableClassification
    :id: M-CDISC_SDTMMODEL_C_QUALIFIER_SC_VARIABLEQUALIFIER
    :namespace: http://www.assero.co.uk/MDRSdtmM/CDISC/V3
    :label: Variable Qualifier
    :extension_properties: []
  :variable_ref:
    :type: http://www.assero.co.uk/BusinessOperational#CReference
    :id: D-ACME_XXDomain_V13_IGV1
    :namespace: http://www.assero.co.uk/MDRSdtmUD/ACME/V1
    :label: Based on Variable Reference
    :extension_properties: []
    :enabled: true
    :optional: false
    :ordinal: 0
    :local_label: ''
    :subject_ref:
      :namespace: http://www.assero.co.uk/MDRSdtmIgD/CDISC/V3
      :id: IG-CDISC_SDTMIGVS_VSORRESU
  :property_refs: []
- :type: http://www.assero.co.uk/BusinessDomain#UserVariable
  :id: D-ACME_XXDomain_V14
  :namespace: http://www.assero.co.uk/MDRSdtmUD/ACME/V1
  :label: Character Result/Finding in Std Format
  :extension_properties: []
  :ordinal: 14
  :rule: ''
  :name: XXSTRESC
  :notes: ''
  :format: ''
  :ct: ''
  :non_standard: false
  :comment: ''
  :length: 0
  :used: true
  :key_ordinal: 0
  :datatype:
    :type: http://www.assero.co.uk/BusinessDomain#VariableType
    :id: M-CDISC_SDTMMODEL_DT_CHAR
    :namespace: http://www.assero.co.uk/MDRSdtmM/CDISC/V3
    :label: Char
    :extension_properties: []
  :compliance:
    :type: http://www.assero.co.uk/BusinessDomain#VariableCompliance
    :id: IG-CDISC_SDTMIG_C_EXPECTED
    :namespace: http://www.assero.co.uk/MDRSdtmIg/CDISC/V3
    :label: Expected
    :extension_properties: []
  :classification:
    :type: http://www.assero.co.uk/BusinessDomain#VariableClassification
    :id: M-CDISC_SDTMMODEL_C_QUALIFIER
    :namespace: http://www.assero.co.uk/MDRSdtmM/CDISC/V3
    :label: Qualifier
    :extension_properties: []
  :sub_classification:
    :type: http://www.assero.co.uk/BusinessDomain#VariableClassification
    :id: M-CDISC_SDTMMODEL_C_QUALIFIER_SC_RESULTQUALIFIER
    :namespace: http://www.assero.co.uk/MDRSdtmM/CDISC/V3
    :label: Result Qualifier
    :extension_properties: []
  :variable_ref:
    :type: http://www.assero.co.uk/BusinessOperational#CReference
    :id: D-ACME_XXDomain_V14_IGV1
    :namespace: http://www.assero.co.uk/MDRSdtmUD/ACME/V1
    :label: Based on Variable Reference
    :extension_properties: []
    :enabled: true
    :optional: false
    :ordinal: 0
    :local_label: ''
    :subject_ref:
      :namespace: http://www.assero.co.uk/MDRSdtmIgD/CDISC/V3
      :id: IG-CDISC_SDTMIGVS_VSSTRESC
  :property_refs: []
- :type: http://www.assero.co.uk/BusinessDomain#UserVariable
  :id: D-ACME_XXDomain_V15
  :namespace: http://www.assero.co.uk/MDRSdtmUD/ACME/V1
  :label: Numeric Result/Finding in Standard Units
  :extension_properties: []
  :ordinal: 15
  :rule: ''
  :name: XXSTRESN
  :notes: ''
  :format: ''
  :ct: ''
  :non_standard: false
  :comment: ''
  :length: 0
  :used: true
  :key_ordinal: 0
  :datatype:
    :type: http://www.assero.co.uk/BusinessDomain#VariableType
    :id: M-CDISC_SDTMMODEL_DT_NUM
    :namespace: http://www.assero.co.uk/MDRSdtmM/CDISC/V3
    :label: Num
    :extension_properties: []
  :compliance:
    :type: http://www.assero.co.uk/BusinessDomain#VariableCompliance
    :id: IG-CDISC_SDTMIG_C_EXPECTED
    :namespace: http://www.assero.co.uk/MDRSdtmIg/CDISC/V3
    :label: Expected
    :extension_properties: []
  :classification:
    :type: http://www.assero.co.uk/BusinessDomain#VariableClassification
    :id: M-CDISC_SDTMMODEL_C_QUALIFIER
    :namespace: http://www.assero.co.uk/MDRSdtmM/CDISC/V3
    :label: Qualifier
    :extension_properties: []
  :sub_classification:
    :type: http://www.assero.co.uk/BusinessDomain#VariableClassification
    :id: M-CDISC_SDTMMODEL_C_QUALIFIER_SC_RESULTQUALIFIER
    :namespace: http://www.assero.co.uk/MDRSdtmM/CDISC/V3
    :label: Result Qualifier
    :extension_properties: []
  :variable_ref:
    :type: http://www.assero.co.uk/BusinessOperational#CReference
    :id: D-ACME_XXDomain_V15_IGV1
    :namespace: http://www.assero.co.uk/MDRSdtmUD/ACME/V1
    :label: Based on Variable Reference
    :extension_properties: []
    :enabled: true
    :optional: false
    :ordinal: 0
    :local_label: ''
    :subject_ref:
      :namespace: http://www.assero.co.uk/MDRSdtmIgD/CDISC/V3
      :id: IG-CDISC_SDTMIGVS_VSSTRESN
  :property_refs: []
- :type: http://www.assero.co.uk/BusinessDomain#UserVariable
  :id: D-ACME_XXDomain_V16
  :namespace: http://www.assero.co.uk/MDRSdtmUD/ACME/V1
  :label: Standard Units
  :extension_properties: []
  :ordinal: 16
  :rule: ''
  :name: XXSTRESU
  :notes: ''
  :format: ''
  :ct: VSRESU
  :non_standard: false
  :comment: ''
  :length: 0
  :used: true
  :key_ordinal: 0
  :datatype:
    :type: http://www.assero.co.uk/BusinessDomain#VariableType
    :id: M-CDISC_SDTMMODEL_DT_CHAR
    :namespace: http://www.assero.co.uk/MDRSdtmM/CDISC/V3
    :label: Char
    :extension_properties: []
  :compliance:
    :type: http://www.assero.co.uk/BusinessDomain#VariableCompliance
    :id: IG-CDISC_SDTMIG_C_EXPECTED
    :namespace: http://www.assero.co.uk/MDRSdtmIg/CDISC/V3
    :label: Expected
    :extension_properties: []
  :classification:
    :type: http://www.assero.co.uk/BusinessDomain#VariableClassification
    :id: M-CDISC_SDTMMODEL_C_QUALIFIER
    :namespace: http://www.assero.co.uk/MDRSdtmM/CDISC/V3
    :label: Qualifier
    :extension_properties: []
  :sub_classification:
    :type: http://www.assero.co.uk/BusinessDomain#VariableClassification
    :id: M-CDISC_SDTMMODEL_C_QUALIFIER_SC_VARIABLEQUALIFIER
    :namespace: http://www.assero.co.uk/MDRSdtmM/CDISC/V3
    :label: Variable Qualifier
    :extension_properties: []
  :variable_ref:
    :type: http://www.assero.co.uk/BusinessOperational#CReference
    :id: D-ACME_XXDomain_V16_IGV1
    :namespace: http://www.assero.co.uk/MDRSdtmUD/ACME/V1
    :label: Based on Variable Reference
    :extension_properties: []
    :enabled: true
    :optional: false
    :ordinal: 0
    :local_label: ''
    :subject_ref:
      :namespace: http://www.assero.co.uk/MDRSdtmIgD/CDISC/V3
      :id: IG-CDISC_SDTMIGVS_VSSTRESU
  :property_refs: []
- :type: http://www.assero.co.uk/BusinessDomain#UserVariable
  :id: D-ACME_XXDomain_V17
  :namespace: http://www.assero.co.uk/MDRSdtmUD/ACME/V1
  :label: Completion Status
  :extension_properties: []
  :ordinal: 17
  :rule: ''
  :name: XXSTAT
  :notes: ''
  :format: ''
  :ct: ND
  :non_standard: false
  :comment: ''
  :length: 0
  :used: true
  :key_ordinal: 0
  :datatype:
    :type: http://www.assero.co.uk/BusinessDomain#VariableType
    :id: M-CDISC_SDTMMODEL_DT_CHAR
    :namespace: http://www.assero.co.uk/MDRSdtmM/CDISC/V3
    :label: Char
    :extension_properties: []
  :compliance:
    :type: http://www.assero.co.uk/BusinessDomain#VariableCompliance
    :id: IG-CDISC_SDTMIG_C_PERMISSIBLE
    :namespace: http://www.assero.co.uk/MDRSdtmIg/CDISC/V3
    :label: Permissible
    :extension_properties: []
  :classification:
    :type: http://www.assero.co.uk/BusinessDomain#VariableClassification
    :id: M-CDISC_SDTMMODEL_C_QUALIFIER
    :namespace: http://www.assero.co.uk/MDRSdtmM/CDISC/V3
    :label: Qualifier
    :extension_properties: []
  :sub_classification:
    :type: http://www.assero.co.uk/BusinessDomain#VariableClassification
    :id: M-CDISC_SDTMMODEL_C_QUALIFIER_SC_RECORDQUALIFIER
    :namespace: http://www.assero.co.uk/MDRSdtmM/CDISC/V3
    :label: Record Qualifier
    :extension_properties: []
  :variable_ref:
    :type: http://www.assero.co.uk/BusinessOperational#CReference
    :id: D-ACME_XXDomain_V17_IGV1
    :namespace: http://www.assero.co.uk/MDRSdtmUD/ACME/V1
    :label: Based on Variable Reference
    :extension_properties: []
    :enabled: true
    :optional: false
    :ordinal: 0
    :local_label: ''
    :subject_ref:
      :namespace: http://www.assero.co.uk/MDRSdtmIgD/CDISC/V3
      :id: IG-CDISC_SDTMIGVS_VSSTAT
  :property_refs: []
- :type: http://www.assero.co.uk/BusinessDomain#UserVariable
  :id: D-ACME_XXDomain_V18
  :namespace: http://www.assero.co.uk/MDRSdtmUD/ACME/V1
  :label: Reason Not Performed
  :extension_properties: []
  :ordinal: 18
  :rule: ''
  :name: XXREASND
  :notes: ''
  :format: ''
  :ct: ''
  :non_standard: false
  :comment: ''
  :length: 0
  :used: true
  :key_ordinal: 0
  :datatype:
    :type: http://www.assero.co.uk/BusinessDomain#VariableType
    :id: M-CDISC_SDTMMODEL_DT_CHAR
    :namespace: http://www.assero.co.uk/MDRSdtmM/CDISC/V3
    :label: Char
    :extension_properties: []
  :compliance:
    :type: http://www.assero.co.uk/BusinessDomain#VariableCompliance
    :id: IG-CDISC_SDTMIG_C_PERMISSIBLE
    :namespace: http://www.assero.co.uk/MDRSdtmIg/CDISC/V3
    :label: Permissible
    :extension_properties: []
  :classification:
    :type: http://www.assero.co.uk/BusinessDomain#VariableClassification
    :id: M-CDISC_SDTMMODEL_C_QUALIFIER
    :namespace: http://www.assero.co.uk/MDRSdtmM/CDISC/V3
    :label: Qualifier
    :extension_properties: []
  :sub_classification:
    :type: http://www.assero.co.uk/BusinessDomain#VariableClassification
    :id: M-CDISC_SDTMMODEL_C_QUALIFIER_SC_RECORDQUALIFIER
    :namespace: http://www.assero.co.uk/MDRSdtmM/CDISC/V3
    :label: Record Qualifier
    :extension_properties: []
  :variable_ref:
    :type: http://www.assero.co.uk/BusinessOperational#CReference
    :id: D-ACME_XXDomain_V18_IGV1
    :namespace: http://www.assero.co.uk/MDRSdtmUD/ACME/V1
    :label: Based on Variable Reference
    :extension_properties: []
    :enabled: true
    :optional: false
    :ordinal: 0
    :local_label: ''
    :subject_ref:
      :namespace: http://www.assero.co.uk/MDRSdtmIgD/CDISC/V3
      :id: IG-CDISC_SDTMIGVS_VSREASND
  :property_refs: []
- :type: http://www.assero.co.uk/BusinessDomain#UserVariable
  :id: D-ACME_XXDomain_V19
  :namespace: http://www.assero.co.uk/MDRSdtmUD/ACME/V1
  :label: Location of Vital Signs Measurement
  :extension_properties: []
  :ordinal: 19
  :rule: ''
  :name: XXLOC
  :notes: ''
  :format: ''
  :ct: LOC
  :non_standard: false
  :comment: ''
  :length: 0
  :used: true
  :key_ordinal: 0
  :datatype:
    :type: http://www.assero.co.uk/BusinessDomain#VariableType
    :id: M-CDISC_SDTMMODEL_DT_CHAR
    :namespace: http://www.assero.co.uk/MDRSdtmM/CDISC/V3
    :label: Char
    :extension_properties: []
  :compliance:
    :type: http://www.assero.co.uk/BusinessDomain#VariableCompliance
    :id: IG-CDISC_SDTMIG_C_PERMISSIBLE
    :namespace: http://www.assero.co.uk/MDRSdtmIg/CDISC/V3
    :label: Permissible
    :extension_properties: []
  :classification:
    :type: http://www.assero.co.uk/BusinessDomain#VariableClassification
    :id: M-CDISC_SDTMMODEL_C_QUALIFIER
    :namespace: http://www.assero.co.uk/MDRSdtmM/CDISC/V3
    :label: Qualifier
    :extension_properties: []
  :sub_classification:
    :type: http://www.assero.co.uk/BusinessDomain#VariableClassification
    :id: M-CDISC_SDTMMODEL_C_QUALIFIER_SC_RECORDQUALIFIER
    :namespace: http://www.assero.co.uk/MDRSdtmM/CDISC/V3
    :label: Record Qualifier
    :extension_properties: []
  :variable_ref:
    :type: http://www.assero.co.uk/BusinessOperational#CReference
    :id: D-ACME_XXDomain_V19_IGV1
    :namespace: http://www.assero.co.uk/MDRSdtmUD/ACME/V1
    :label: Based on Variable Reference
    :extension_properties: []
    :enabled: true
    :optional: false
    :ordinal: 0
    :local_label: ''
    :subject_ref:
      :namespace: http://www.assero.co.uk/MDRSdtmIgD/CDISC/V3
      :id: IG-CDISC_SDTMIGVS_VSLOC
  :property_refs: []
- :type: http://www.assero.co.uk/BusinessDomain#UserVariable
  :id: D-ACME_XXDomain_V20
  :namespace: http://www.assero.co.uk/MDRSdtmUD/ACME/V1
  :label: Laterality
  :extension_properties: []
  :ordinal: 20
  :rule: ''
  :name: XXLAT
  :notes: ''
  :format: ''
  :ct: LAT
  :non_standard: false
  :comment: ''
  :length: 0
  :used: true
  :key_ordinal: 0
  :datatype:
    :type: http://www.assero.co.uk/BusinessDomain#VariableType
    :id: M-CDISC_SDTMMODEL_DT_CHAR
    :namespace: http://www.assero.co.uk/MDRSdtmM/CDISC/V3
    :label: Char
    :extension_properties: []
  :compliance:
    :type: http://www.assero.co.uk/BusinessDomain#VariableCompliance
    :id: IG-CDISC_SDTMIG_C_PERMISSIBLE
    :namespace: http://www.assero.co.uk/MDRSdtmIg/CDISC/V3
    :label: Permissible
    :extension_properties: []
  :classification:
    :type: http://www.assero.co.uk/BusinessDomain#VariableClassification
    :id: M-CDISC_SDTMMODEL_C_QUALIFIER
    :namespace: http://www.assero.co.uk/MDRSdtmM/CDISC/V3
    :label: Qualifier
    :extension_properties: []
  :sub_classification:
    :type: http://www.assero.co.uk/BusinessDomain#VariableClassification
    :id: M-CDISC_SDTMMODEL_C_QUALIFIER_SC_VARIABLEQUALIFIER
    :namespace: http://www.assero.co.uk/MDRSdtmM/CDISC/V3
    :label: Variable Qualifier
    :extension_properties: []
  :variable_ref:
    :type: http://www.assero.co.uk/BusinessOperational#CReference
    :id: D-ACME_XXDomain_V20_IGV1
    :namespace: http://www.assero.co.uk/MDRSdtmUD/ACME/V1
    :label: Based on Variable Reference
    :extension_properties: []
    :enabled: true
    :optional: false
    :ordinal: 0
    :local_label: ''
    :subject_ref:
      :namespace: http://www.assero.co.uk/MDRSdtmIgD/CDISC/V3
      :id: IG-CDISC_SDTMIGVS_VSLAT
  :property_refs: []
- :type: http://www.assero.co.uk/BusinessDomain#UserVariable
  :id: D-ACME_XXDomain_V21
  :namespace: http://www.assero.co.uk/MDRSdtmUD/ACME/V1
  :label: Baseline Flag
  :extension_properties: []
  :ordinal: 21
  :rule: ''
  :name: XXBLFL
  :notes: ''
  :format: ''
  :ct: NY
  :non_standard: false
  :comment: ''
  :length: 0
  :used: true
  :key_ordinal: 0
  :datatype:
    :type: http://www.assero.co.uk/BusinessDomain#VariableType
    :id: M-CDISC_SDTMMODEL_DT_CHAR
    :namespace: http://www.assero.co.uk/MDRSdtmM/CDISC/V3
    :label: Char
    :extension_properties: []
  :compliance:
    :type: http://www.assero.co.uk/BusinessDomain#VariableCompliance
    :id: IG-CDISC_SDTMIG_C_EXPECTED
    :namespace: http://www.assero.co.uk/MDRSdtmIg/CDISC/V3
    :label: Expected
    :extension_properties: []
  :classification:
    :type: http://www.assero.co.uk/BusinessDomain#VariableClassification
    :id: M-CDISC_SDTMMODEL_C_QUALIFIER
    :namespace: http://www.assero.co.uk/MDRSdtmM/CDISC/V3
    :label: Qualifier
    :extension_properties: []
  :sub_classification:
    :type: http://www.assero.co.uk/BusinessDomain#VariableClassification
    :id: M-CDISC_SDTMMODEL_C_QUALIFIER_SC_RECORDQUALIFIER
    :namespace: http://www.assero.co.uk/MDRSdtmM/CDISC/V3
    :label: Record Qualifier
    :extension_properties: []
  :variable_ref:
    :type: http://www.assero.co.uk/BusinessOperational#CReference
    :id: D-ACME_XXDomain_V21_IGV1
    :namespace: http://www.assero.co.uk/MDRSdtmUD/ACME/V1
    :label: Based on Variable Reference
    :extension_properties: []
    :enabled: true
    :optional: false
    :ordinal: 0
    :local_label: ''
    :subject_ref:
      :namespace: http://www.assero.co.uk/MDRSdtmIgD/CDISC/V3
      :id: IG-CDISC_SDTMIGVS_VSBLFL
  :property_refs: []
- :type: http://www.assero.co.uk/BusinessDomain#UserVariable
  :id: D-ACME_XXDomain_V22
  :namespace: http://www.assero.co.uk/MDRSdtmUD/ACME/V1
  :label: Derived Flag
  :extension_properties: []
  :ordinal: 22
  :rule: ''
  :name: XXDRVFL
  :notes: ''
  :format: ''
  :ct: NY
  :non_standard: false
  :comment: ''
  :length: 0
  :used: true
  :key_ordinal: 0
  :datatype:
    :type: http://www.assero.co.uk/BusinessDomain#VariableType
    :id: M-CDISC_SDTMMODEL_DT_CHAR
    :namespace: http://www.assero.co.uk/MDRSdtmM/CDISC/V3
    :label: Char
    :extension_properties: []
  :compliance:
    :type: http://www.assero.co.uk/BusinessDomain#VariableCompliance
    :id: IG-CDISC_SDTMIG_C_PERMISSIBLE
    :namespace: http://www.assero.co.uk/MDRSdtmIg/CDISC/V3
    :label: Permissible
    :extension_properties: []
  :classification:
    :type: http://www.assero.co.uk/BusinessDomain#VariableClassification
    :id: M-CDISC_SDTMMODEL_C_QUALIFIER
    :namespace: http://www.assero.co.uk/MDRSdtmM/CDISC/V3
    :label: Qualifier
    :extension_properties: []
  :sub_classification:
    :type: http://www.assero.co.uk/BusinessDomain#VariableClassification
    :id: M-CDISC_SDTMMODEL_C_QUALIFIER_SC_RECORDQUALIFIER
    :namespace: http://www.assero.co.uk/MDRSdtmM/CDISC/V3
    :label: Record Qualifier
    :extension_properties: []
  :variable_ref:
    :type: http://www.assero.co.uk/BusinessOperational#CReference
    :id: D-ACME_XXDomain_V22_IGV1
    :namespace: http://www.assero.co.uk/MDRSdtmUD/ACME/V1
    :label: Based on Variable Reference
    :extension_properties: []
    :enabled: true
    :optional: false
    :ordinal: 0
    :local_label: ''
    :subject_ref:
      :namespace: http://www.assero.co.uk/MDRSdtmIgD/CDISC/V3
      :id: IG-CDISC_SDTMIGVS_VSDRVFL
  :property_refs: []
- :type: http://www.assero.co.uk/BusinessDomain#UserVariable
  :id: D-ACME_XXDomain_V23
  :namespace: http://www.assero.co.uk/MDRSdtmUD/ACME/V1
  :label: Visit Number
  :extension_properties: []
  :ordinal: 23
  :rule: ''
  :name: VISITNUM
  :notes: ''
  :format: ''
  :ct: ''
  :non_standard: false
  :comment: ''
  :length: 0
  :used: true
  :key_ordinal: 0
  :datatype:
    :type: http://www.assero.co.uk/BusinessDomain#VariableType
    :id: M-CDISC_SDTMMODEL_DT_NUM
    :namespace: http://www.assero.co.uk/MDRSdtmM/CDISC/V3
    :label: Num
    :extension_properties: []
  :compliance:
    :type: http://www.assero.co.uk/BusinessDomain#VariableCompliance
    :id: IG-CDISC_SDTMIG_C_EXPECTED
    :namespace: http://www.assero.co.uk/MDRSdtmIg/CDISC/V3
    :label: Expected
    :extension_properties: []
  :classification:
    :type: http://www.assero.co.uk/BusinessDomain#VariableClassification
    :id: M-CDISC_SDTMMODEL_C_TIMING
    :namespace: http://www.assero.co.uk/MDRSdtmM/CDISC/V3
    :label: Timing
    :extension_properties: []
  :sub_classification: {}
  :variable_ref:
    :type: http://www.assero.co.uk/BusinessOperational#CReference
    :id: D-ACME_XXDomain_V23_IGV1
    :namespace: http://www.assero.co.uk/MDRSdtmUD/ACME/V1
    :label: Based on Variable Reference
    :extension_properties: []
    :enabled: true
    :optional: false
    :ordinal: 0
    :local_label: ''
    :subject_ref:
      :namespace: http://www.assero.co.uk/MDRSdtmIgD/CDISC/V3
      :id: IG-CDISC_SDTMIGVS_VISITNUM
  :property_refs: []
- :type: http://www.assero.co.uk/BusinessDomain#UserVariable
  :id: D-ACME_XXDomain_V24
  :namespace: http://www.assero.co.uk/MDRSdtmUD/ACME/V1
  :label: Visit Name
  :extension_properties: []
  :ordinal: 24
  :rule: ''
  :name: VISIT
  :notes: ''
  :format: ''
  :ct: ''
  :non_standard: false
  :comment: ''
  :length: 0
  :used: true
  :key_ordinal: 0
  :datatype:
    :type: http://www.assero.co.uk/BusinessDomain#VariableType
    :id: M-CDISC_SDTMMODEL_DT_CHAR
    :namespace: http://www.assero.co.uk/MDRSdtmM/CDISC/V3
    :label: Char
    :extension_properties: []
  :compliance:
    :type: http://www.assero.co.uk/BusinessDomain#VariableCompliance
    :id: IG-CDISC_SDTMIG_C_PERMISSIBLE
    :namespace: http://www.assero.co.uk/MDRSdtmIg/CDISC/V3
    :label: Permissible
    :extension_properties: []
  :classification:
    :type: http://www.assero.co.uk/BusinessDomain#VariableClassification
    :id: M-CDISC_SDTMMODEL_C_TIMING
    :namespace: http://www.assero.co.uk/MDRSdtmM/CDISC/V3
    :label: Timing
    :extension_properties: []
  :sub_classification: {}
  :variable_ref:
    :type: http://www.assero.co.uk/BusinessOperational#CReference
    :id: D-ACME_XXDomain_V24_IGV1
    :namespace: http://www.assero.co.uk/MDRSdtmUD/ACME/V1
    :label: Based on Variable Reference
    :extension_properties: []
    :enabled: true
    :optional: false
    :ordinal: 0
    :local_label: ''
    :subject_ref:
      :namespace: http://www.assero.co.uk/MDRSdtmIgD/CDISC/V3
      :id: IG-CDISC_SDTMIGVS_VISIT
  :property_refs: []
- :type: http://www.assero.co.uk/BusinessDomain#UserVariable
  :id: D-ACME_XXDomain_V25
  :namespace: http://www.assero.co.uk/MDRSdtmUD/ACME/V1
  :label: Planned Study Day of Visit
  :extension_properties: []
  :ordinal: 25
  :rule: ''
  :name: VISITDY
  :notes: ''
  :format: ''
  :ct: ''
  :non_standard: false
  :comment: ''
  :length: 0
  :used: true
  :key_ordinal: 0
  :datatype:
    :type: http://www.assero.co.uk/BusinessDomain#VariableType
    :id: M-CDISC_SDTMMODEL_DT_NUM
    :namespace: http://www.assero.co.uk/MDRSdtmM/CDISC/V3
    :label: Num
    :extension_properties: []
  :compliance:
    :type: http://www.assero.co.uk/BusinessDomain#VariableCompliance
    :id: IG-CDISC_SDTMIG_C_PERMISSIBLE
    :namespace: http://www.assero.co.uk/MDRSdtmIg/CDISC/V3
    :label: Permissible
    :extension_properties: []
  :classification:
    :type: http://www.assero.co.uk/BusinessDomain#VariableClassification
    :id: M-CDISC_SDTMMODEL_C_TIMING
    :namespace: http://www.assero.co.uk/MDRSdtmM/CDISC/V3
    :label: Timing
    :extension_properties: []
  :sub_classification: {}
  :variable_ref:
    :type: http://www.assero.co.uk/BusinessOperational#CReference
    :id: D-ACME_XXDomain_V25_IGV1
    :namespace: http://www.assero.co.uk/MDRSdtmUD/ACME/V1
    :label: Based on Variable Reference
    :extension_properties: []
    :enabled: true
    :optional: false
    :ordinal: 0
    :local_label: ''
    :subject_ref:
      :namespace: http://www.assero.co.uk/MDRSdtmIgD/CDISC/V3
      :id: IG-CDISC_SDTMIGVS_VISITDY
  :property_refs: []
- :type: http://www.assero.co.uk/BusinessDomain#UserVariable
  :id: D-ACME_XXDomain_V26
  :namespace: http://www.assero.co.uk/MDRSdtmUD/ACME/V1
  :label: Date/Time of Measurements
  :extension_properties: []
  :ordinal: 26
  :rule: ''
  :name: XXDTC
  :notes: ''
  :format: ISO 8601
  :ct: ''
  :non_standard: false
  :comment: ''
  :length: 0
  :used: true
  :key_ordinal: 0
  :datatype:
    :type: http://www.assero.co.uk/BusinessDomain#VariableType
    :id: M-CDISC_SDTMMODEL_DT_CHAR
    :namespace: http://www.assero.co.uk/MDRSdtmM/CDISC/V3
    :label: Char
    :extension_properties: []
  :compliance:
    :type: http://www.assero.co.uk/BusinessDomain#VariableCompliance
    :id: IG-CDISC_SDTMIG_C_EXPECTED
    :namespace: http://www.assero.co.uk/MDRSdtmIg/CDISC/V3
    :label: Expected
    :extension_properties: []
  :classification:
    :type: http://www.assero.co.uk/BusinessDomain#VariableClassification
    :id: M-CDISC_SDTMMODEL_C_TIMING
    :namespace: http://www.assero.co.uk/MDRSdtmM/CDISC/V3
    :label: Timing
    :extension_properties: []
  :sub_classification: {}
  :variable_ref:
    :type: http://www.assero.co.uk/BusinessOperational#CReference
    :id: D-ACME_XXDomain_V26_IGV1
    :namespace: http://www.assero.co.uk/MDRSdtmUD/ACME/V1
    :label: Based on Variable Reference
    :extension_properties: []
    :enabled: true
    :optional: false
    :ordinal: 0
    :local_label: ''
    :subject_ref:
      :namespace: http://www.assero.co.uk/MDRSdtmIgD/CDISC/V3
      :id: IG-CDISC_SDTMIGVS_VSDTC
  :property_refs: []
- :type: http://www.assero.co.uk/BusinessDomain#UserVariable
  :id: D-ACME_XXDomain_V27
  :namespace: http://www.assero.co.uk/MDRSdtmUD/ACME/V1
  :label: Study Day of Vital Signs
  :extension_properties: []
  :ordinal: 27
  :rule: ''
  :name: XXDY
  :notes: ''
  :format: ''
  :ct: ''
  :non_standard: false
  :comment: ''
  :length: 0
  :used: true
  :key_ordinal: 0
  :datatype:
    :type: http://www.assero.co.uk/BusinessDomain#VariableType
    :id: M-CDISC_SDTMMODEL_DT_NUM
    :namespace: http://www.assero.co.uk/MDRSdtmM/CDISC/V3
    :label: Num
    :extension_properties: []
  :compliance:
    :type: http://www.assero.co.uk/BusinessDomain#VariableCompliance
    :id: IG-CDISC_SDTMIG_C_PERMISSIBLE
    :namespace: http://www.assero.co.uk/MDRSdtmIg/CDISC/V3
    :label: Permissible
    :extension_properties: []
  :classification:
    :type: http://www.assero.co.uk/BusinessDomain#VariableClassification
    :id: M-CDISC_SDTMMODEL_C_TIMING
    :namespace: http://www.assero.co.uk/MDRSdtmM/CDISC/V3
    :label: Timing
    :extension_properties: []
  :sub_classification: {}
  :variable_ref:
    :type: http://www.assero.co.uk/BusinessOperational#CReference
    :id: D-ACME_XXDomain_V27_IGV1
    :namespace: http://www.assero.co.uk/MDRSdtmUD/ACME/V1
    :label: Based on Variable Reference
    :extension_properties: []
    :enabled: true
    :optional: false
    :ordinal: 0
    :local_label: ''
    :subject_ref:
      :namespace: http://www.assero.co.uk/MDRSdtmIgD/CDISC/V3
      :id: IG-CDISC_SDTMIGVS_VSDY
  :property_refs: []
- :type: http://www.assero.co.uk/BusinessDomain#UserVariable
  :id: D-ACME_XXDomain_V28
  :namespace: http://www.assero.co.uk/MDRSdtmUD/ACME/V1
  :label: Planned Time Point Name
  :extension_properties: []
  :ordinal: 28
  :rule: ''
  :name: XXTPT
  :notes: ''
  :format: ''
  :ct: ''
  :non_standard: false
  :comment: ''
  :length: 0
  :used: true
  :key_ordinal: 0
  :datatype:
    :type: http://www.assero.co.uk/BusinessDomain#VariableType
    :id: M-CDISC_SDTMMODEL_DT_CHAR
    :namespace: http://www.assero.co.uk/MDRSdtmM/CDISC/V3
    :label: Char
    :extension_properties: []
  :compliance:
    :type: http://www.assero.co.uk/BusinessDomain#VariableCompliance
    :id: IG-CDISC_SDTMIG_C_PERMISSIBLE
    :namespace: http://www.assero.co.uk/MDRSdtmIg/CDISC/V3
    :label: Permissible
    :extension_properties: []
  :classification:
    :type: http://www.assero.co.uk/BusinessDomain#VariableClassification
    :id: M-CDISC_SDTMMODEL_C_TIMING
    :namespace: http://www.assero.co.uk/MDRSdtmM/CDISC/V3
    :label: Timing
    :extension_properties: []
  :sub_classification: {}
  :variable_ref:
    :type: http://www.assero.co.uk/BusinessOperational#CReference
    :id: D-ACME_XXDomain_V28_IGV1
    :namespace: http://www.assero.co.uk/MDRSdtmUD/ACME/V1
    :label: Based on Variable Reference
    :extension_properties: []
    :enabled: true
    :optional: false
    :ordinal: 0
    :local_label: ''
    :subject_ref:
      :namespace: http://www.assero.co.uk/MDRSdtmIgD/CDISC/V3
      :id: IG-CDISC_SDTMIGVS_VSTPT
  :property_refs: []
- :type: http://www.assero.co.uk/BusinessDomain#UserVariable
  :id: D-ACME_XXDomain_V29
  :namespace: http://www.assero.co.uk/MDRSdtmUD/ACME/V1
  :label: Planned Time Point Number
  :extension_properties: []
  :ordinal: 29
  :rule: ''
  :name: XXTPTNUM
  :notes: ''
  :format: ''
  :ct: ''
  :non_standard: false
  :comment: ''
  :length: 0
  :used: true
  :key_ordinal: 0
  :datatype:
    :type: http://www.assero.co.uk/BusinessDomain#VariableType
    :id: M-CDISC_SDTMMODEL_DT_NUM
    :namespace: http://www.assero.co.uk/MDRSdtmM/CDISC/V3
    :label: Num
    :extension_properties: []
  :compliance:
    :type: http://www.assero.co.uk/BusinessDomain#VariableCompliance
    :id: IG-CDISC_SDTMIG_C_PERMISSIBLE
    :namespace: http://www.assero.co.uk/MDRSdtmIg/CDISC/V3
    :label: Permissible
    :extension_properties: []
  :classification:
    :type: http://www.assero.co.uk/BusinessDomain#VariableClassification
    :id: M-CDISC_SDTMMODEL_C_TIMING
    :namespace: http://www.assero.co.uk/MDRSdtmM/CDISC/V3
    :label: Timing
    :extension_properties: []
  :sub_classification: {}
  :variable_ref:
    :type: http://www.assero.co.uk/BusinessOperational#CReference
    :id: D-ACME_XXDomain_V29_IGV1
    :namespace: http://www.assero.co.uk/MDRSdtmUD/ACME/V1
    :label: Based on Variable Reference
    :extension_properties: []
    :enabled: true
    :optional: false
    :ordinal: 0
    :local_label: ''
    :subject_ref:
      :namespace: http://www.assero.co.uk/MDRSdtmIgD/CDISC/V3
      :id: IG-CDISC_SDTMIGVS_VSTPTNUM
  :property_refs: []
- :type: http://www.assero.co.uk/BusinessDomain#UserVariable
  :id: D-ACME_XXDomain_V30
  :namespace: http://www.assero.co.uk/MDRSdtmUD/ACME/V1
  :label: Planned Elapsed Time from Time Point Ref
  :extension_properties: []
  :ordinal: 30
  :rule: ''
  :name: XXELTM
  :notes: ''
  :format: ISO 8601
  :ct: ''
  :non_standard: false
  :comment: ''
  :length: 0
  :used: true
  :key_ordinal: 0
  :datatype:
    :type: http://www.assero.co.uk/BusinessDomain#VariableType
    :id: M-CDISC_SDTMMODEL_DT_CHAR
    :namespace: http://www.assero.co.uk/MDRSdtmM/CDISC/V3
    :label: Char
    :extension_properties: []
  :compliance:
    :type: http://www.assero.co.uk/BusinessDomain#VariableCompliance
    :id: IG-CDISC_SDTMIG_C_PERMISSIBLE
    :namespace: http://www.assero.co.uk/MDRSdtmIg/CDISC/V3
    :label: Permissible
    :extension_properties: []
  :classification:
    :type: http://www.assero.co.uk/BusinessDomain#VariableClassification
    :id: M-CDISC_SDTMMODEL_C_TIMING
    :namespace: http://www.assero.co.uk/MDRSdtmM/CDISC/V3
    :label: Timing
    :extension_properties: []
  :sub_classification: {}
  :variable_ref:
    :type: http://www.assero.co.uk/BusinessOperational#CReference
    :id: D-ACME_XXDomain_V30_IGV1
    :namespace: http://www.assero.co.uk/MDRSdtmUD/ACME/V1
    :label: Based on Variable Reference
    :extension_properties: []
    :enabled: true
    :optional: false
    :ordinal: 0
    :local_label: ''
    :subject_ref:
      :namespace: http://www.assero.co.uk/MDRSdtmIgD/CDISC/V3
      :id: IG-CDISC_SDTMIGVS_VSELTM
  :property_refs: []
- :type: http://www.assero.co.uk/BusinessDomain#UserVariable
  :id: D-ACME_XXDomain_V31
  :namespace: http://www.assero.co.uk/MDRSdtmUD/ACME/V1
  :label: Time Point Reference
  :extension_properties: []
  :ordinal: 31
  :rule: ''
  :name: XXTPTREF
  :notes: ''
  :format: ''
  :ct: ''
  :non_standard: false
  :comment: ''
  :length: 0
  :used: true
  :key_ordinal: 0
  :datatype:
    :type: http://www.assero.co.uk/BusinessDomain#VariableType
    :id: M-CDISC_SDTMMODEL_DT_CHAR
    :namespace: http://www.assero.co.uk/MDRSdtmM/CDISC/V3
    :label: Char
    :extension_properties: []
  :compliance:
    :type: http://www.assero.co.uk/BusinessDomain#VariableCompliance
    :id: IG-CDISC_SDTMIG_C_PERMISSIBLE
    :namespace: http://www.assero.co.uk/MDRSdtmIg/CDISC/V3
    :label: Permissible
    :extension_properties: []
  :classification:
    :type: http://www.assero.co.uk/BusinessDomain#VariableClassification
    :id: M-CDISC_SDTMMODEL_C_TIMING
    :namespace: http://www.assero.co.uk/MDRSdtmM/CDISC/V3
    :label: Timing
    :extension_properties: []
  :sub_classification: {}
  :variable_ref:
    :type: http://www.assero.co.uk/BusinessOperational#CReference
    :id: D-ACME_XXDomain_V31_IGV1
    :namespace: http://www.assero.co.uk/MDRSdtmUD/ACME/V1
    :label: Based on Variable Reference
    :extension_properties: []
    :enabled: true
    :optional: false
    :ordinal: 0
    :local_label: ''
    :subject_ref:
      :namespace: http://www.assero.co.uk/MDRSdtmIgD/CDISC/V3
      :id: IG-CDISC_SDTMIGVS_VSTPTREF
  :property_refs: []
- :type: http://www.assero.co.uk/BusinessDomain#UserVariable
  :id: D-ACME_XXDomain_V32
  :namespace: http://www.assero.co.uk/MDRSdtmUD/ACME/V1
  :label: Date/Time of Reference Time Point
  :extension_properties: []
  :ordinal: 32
  :rule: ''
  :name: XXRFTDTC
  :notes: ''
  :format: ISO 8601
  :ct: ''
  :non_standard: false
  :comment: ''
  :length: 0
  :used: true
  :key_ordinal: 0
  :datatype:
    :type: http://www.assero.co.uk/BusinessDomain#VariableType
    :id: M-CDISC_SDTMMODEL_DT_CHAR
    :namespace: http://www.assero.co.uk/MDRSdtmM/CDISC/V3
    :label: Char
    :extension_properties: []
  :compliance:
    :type: http://www.assero.co.uk/BusinessDomain#VariableCompliance
    :id: IG-CDISC_SDTMIG_C_PERMISSIBLE
    :namespace: http://www.assero.co.uk/MDRSdtmIg/CDISC/V3
    :label: Permissible
    :extension_properties: []
  :classification:
    :type: http://www.assero.co.uk/BusinessDomain#VariableClassification
    :id: M-CDISC_SDTMMODEL_C_TIMING
    :namespace: http://www.assero.co.uk/MDRSdtmM/CDISC/V3
    :label: Timing
    :extension_properties: []
  :sub_classification: {}
  :variable_ref:
    :type: http://www.assero.co.uk/BusinessOperational#CReference
    :id: D-ACME_XXDomain_V32_IGV1
    :namespace: http://www.assero.co.uk/MDRSdtmUD/ACME/V1
    :label: Based on Variable Reference
    :extension_properties: []
    :enabled: true
    :optional: false
    :ordinal: 0
    :local_label: ''
    :subject_ref:
      :namespace: http://www.assero.co.uk/MDRSdtmIgD/CDISC/V3
      :id: IG-CDISC_SDTMIGVS_VSRFTDTC
  :property_refs: []
:bc_refs: []
