@prefix : <http://www.cdisc.org/SDTM_MODEL/V7#> .
@prefix bd: <http://www.assero.co.uk/Tabulation#> .
@prefix isoC: <http://www.assero.co.uk/ISO11179Concepts#> .
@prefix isoT: <http://www.assero.co.uk/ISO11179Types#> .
@prefix isoR: <http://www.assero.co.uk/ISO11179Registration#> .
@prefix isoI: <http://www.assero.co.uk/ISO11179Identification#> .
@prefix bo: <http://www.assero.co.uk/BusinessOperational#> .
@prefix owl: <http://www.w3.org/2002/07/owl#> .
@prefix rdf: <http://www.w3.org/1999/02/22-rdf-syntax-ns#> .
@prefix rdfs: <http://www.w3.org/2000/01/rdf-schema#> .
@prefix xsd: <http://www.w3.org/2001/XMLSchema#> .
@prefix skos: <http://www.w3.org/2004/02/skos/core#> .

<http://www.cdisc.org/SDTM_MODEL/V7>
	rdf:type owl:Ontology ;
.
:M
	rdf:type bd:Model ;
	isoC:label "Controlled Terminology"^^xsd:string ;
	isoT:hasState :M_RS ;
	isoT:hasIdentifier :M_SI ;
	isoT:hasPreviousVersion <http://www.cdisc.org/SDTM_MODEL/V6#M> ;
	isoT:origin "Created from files: 'sdtm_1-8.xlsx'"^^xsd:string ;
	isoT:changeDescription ""^^xsd:string ;
	isoT:creationDate "2019-09-17T00:00:00+00:00"^^xsd:dateTime ;
	isoT:lastChangeDate "2019-09-17T00:00:00+00:00"^^xsd:dateTime ;
	isoT:explanatoryComment ""^^xsd:string ;
	bo:hasManaged :M_R1 ;
	bo:hasManaged :M_R2 ;
	bo:hasManaged :M_R3 ;
	bo:hasManaged :M_R4 ;
	bo:hasManaged :M_R5 ;
	bo:hasManaged :M_R6 ;
	bo:hasManaged :M_R7 ;
	bo:hasManaged :M_R8 ;
	bo:hasManaged :M_R9 ;
	bo:hasManaged :M_R10 ;
	bo:hasManaged :M_R11 ;
	bo:hasManaged :M_R12 ;
	bo:hasManaged :M_R13 ;
	bo:hasManaged :M_R14 ;
	bo:hasManaged :M_R15 ;
	bo:hasManaged :M_R16 ;
	bo:hasManaged :M_R17 ;
	bo:hasManaged :M_R18 ;
	bo:hasManaged :M_R19 ;
	bo:hasManaged :M_R20 ;
	bo:hasManaged :M_R21 ;
	bo:hasManaged :M_R22 ;
	bo:hasManaged :M_R23 ;
	bo:hasManaged :M_R24 ;
	bo:hasManaged :M_R25 ;
.
:M_RS
	rdf:type isoR:RegistrationState ;
	isoR:registrationStatus "Standard"^^xsd:string ;
	isoR:administrativeNote ""^^xsd:string ;
	isoR:effectiveDate "2016-01-01T00:00:00+00:00"^^xsd:dateTime ;
	isoR:untilDate "2016-01-01T00:00:00+00:00"^^xsd:dateTime ;
	isoR:unresolvedIssue ""^^xsd:string ;
	isoR:administrativeStatus ""^^xsd:string ;
	isoR:previousState "Standard"^^xsd:string ;
	isoR:multipleEdit "false"^^xsd:boolean ;
	isoR:byAuthority <http://www.assero.co.uk/RA#DUNS084433759> ;
.
:M_SI
	rdf:type isoI:ScopedIdentifier ;
	isoI:identifier "SDTM MODEL"^^xsd:string ;
	isoI:versionLabel "2019-09-17 Release"^^xsd:string ;
	isoI:version "7"^^xsd:positiveInteger ;
	isoI:semanticVersion "7.0.0"^^xsd:string ;
	isoI:hasScope <http://www.assero.co.uk/NS#CDISC> ;
.
:M_R1
	rdf:type bo:Reference ;
	isoC:label ""^^xsd:string ;
	bo:enabled "true"^^xsd:boolean ;
	bo:optional "false"^^xsd:boolean ;
	bo:ordinal "1"^^xsd:positiveInteger ;
	bo:reference <http://www.cdisc.org/SDTM_MODEL_INTERVENTIONS/V7#CL> ;
.
:M_R2
	rdf:type bo:Reference ;
	isoC:label ""^^xsd:string ;
	bo:enabled "true"^^xsd:boolean ;
	bo:optional "false"^^xsd:boolean ;
	bo:ordinal "2"^^xsd:positiveInteger ;
	bo:reference <http://www.cdisc.org/SDTM_MODEL_EVENTS/V7#CL> ;
.
:M_R3
	rdf:type bo:Reference ;
	isoC:label ""^^xsd:string ;
	bo:enabled "true"^^xsd:boolean ;
	bo:optional "false"^^xsd:boolean ;
	bo:ordinal "3"^^xsd:positiveInteger ;
	bo:reference <http://www.cdisc.org/SDTM_MODEL_FINDINGS/V7#CL> ;
.
:M_R4
	rdf:type bo:Reference ;
	isoC:label ""^^xsd:string ;
	bo:enabled "true"^^xsd:boolean ;
	bo:optional "false"^^xsd:boolean ;
	bo:ordinal "4"^^xsd:positiveInteger ;
	bo:reference <http://www.cdisc.org/SDTM_MODEL_DM/V7#CL> ;
.
:M_R5
	rdf:type bo:Reference ;
	isoC:label ""^^xsd:string ;
	bo:enabled "true"^^xsd:boolean ;
	bo:optional "false"^^xsd:boolean ;
	bo:ordinal "5"^^xsd:positiveInteger ;
	bo:reference <http://www.cdisc.org/SDTM_MODEL_CO/V7#CL> ;
.
:M_R6
	rdf:type bo:Reference ;
	isoC:label ""^^xsd:string ;
	bo:enabled "true"^^xsd:boolean ;
	bo:optional "false"^^xsd:boolean ;
	bo:ordinal "6"^^xsd:positiveInteger ;
	bo:reference <http://www.cdisc.org/SDTM_MODEL_SE/V7#CL> ;
.
:M_R7
	rdf:type bo:Reference ;
	isoC:label ""^^xsd:string ;
	bo:enabled "true"^^xsd:boolean ;
	bo:optional "false"^^xsd:boolean ;
	bo:ordinal "7"^^xsd:positiveInteger ;
	bo:reference <http://www.cdisc.org/SDTM_MODEL_SV/V7#CL> ;
.
:M_R8
	rdf:type bo:Reference ;
	isoC:label ""^^xsd:string ;
	bo:enabled "true"^^xsd:boolean ;
	bo:optional "false"^^xsd:boolean ;
	bo:ordinal "8"^^xsd:positiveInteger ;
	bo:reference <http://www.cdisc.org/SDTM_MODEL_SM/V7#CL> ;
.
:M_R9
	rdf:type bo:Reference ;
	isoC:label ""^^xsd:string ;
	bo:enabled "true"^^xsd:boolean ;
	bo:optional "false"^^xsd:boolean ;
	bo:ordinal "9"^^xsd:positiveInteger ;
	bo:reference <http://www.cdisc.org/SDTM_MODEL_SJ/V7#CL> ;
.
:M_R10
	rdf:type bo:Reference ;
	isoC:label ""^^xsd:string ;
	bo:enabled "true"^^xsd:boolean ;
	bo:optional "false"^^xsd:boolean ;
	bo:ordinal "10"^^xsd:positiveInteger ;
	bo:reference <http://www.cdisc.org/SDTM_MODEL_TE/V7#CL> ;
.
:M_R11
	rdf:type bo:Reference ;
	isoC:label ""^^xsd:string ;
	bo:enabled "true"^^xsd:boolean ;
	bo:optional "false"^^xsd:boolean ;
	bo:ordinal "11"^^xsd:positiveInteger ;
	bo:reference <http://www.cdisc.org/SDTM_MODEL_TA/V7#CL> ;
.
:M_R12
	rdf:type bo:Reference ;
	isoC:label ""^^xsd:string ;
	bo:enabled "true"^^xsd:boolean ;
	bo:optional "false"^^xsd:boolean ;
	bo:ordinal "12"^^xsd:positiveInteger ;
	bo:reference <http://www.cdisc.org/SDTM_MODEL_TV/V7#CL> ;
.
:M_R13
	rdf:type bo:Reference ;
	isoC:label ""^^xsd:string ;
	bo:enabled "true"^^xsd:boolean ;
	bo:optional "false"^^xsd:boolean ;
	bo:ordinal "13"^^xsd:positiveInteger ;
	bo:reference <http://www.cdisc.org/SDTM_MODEL_TX/V7#CL> ;
.
:M_R14
	rdf:type bo:Reference ;
	isoC:label ""^^xsd:string ;
	bo:enabled "true"^^xsd:boolean ;
	bo:optional "false"^^xsd:boolean ;
	bo:ordinal "14"^^xsd:positiveInteger ;
	bo:reference <http://www.cdisc.org/SDTM_MODEL_TT/V7#CL> ;
.
:M_R15
	rdf:type bo:Reference ;
	isoC:label ""^^xsd:string ;
	bo:enabled "true"^^xsd:boolean ;
	bo:optional "false"^^xsd:boolean ;
	bo:ordinal "15"^^xsd:positiveInteger ;
	bo:reference <http://www.cdisc.org/SDTM_MODEL_TP/V7#CL> ;
.
:M_R16
	rdf:type bo:Reference ;
	isoC:label ""^^xsd:string ;
	bo:enabled "true"^^xsd:boolean ;
	bo:optional "false"^^xsd:boolean ;
	bo:ordinal "16"^^xsd:positiveInteger ;
	bo:reference <http://www.cdisc.org/SDTM_MODEL_TI/V7#CL> ;
.
:M_R17
	rdf:type bo:Reference ;
	isoC:label ""^^xsd:string ;
	bo:enabled "true"^^xsd:boolean ;
	bo:optional "false"^^xsd:boolean ;
	bo:ordinal "17"^^xsd:positiveInteger ;
	bo:reference <http://www.cdisc.org/SDTM_MODEL_TS/V7#CL> ;
.
:M_R18
	rdf:type bo:Reference ;
	isoC:label ""^^xsd:string ;
	bo:enabled "true"^^xsd:boolean ;
	bo:optional "false"^^xsd:boolean ;
	bo:ordinal "18"^^xsd:positiveInteger ;
	bo:reference <http://www.cdisc.org/SDTM_MODEL_TD/V7#CL> ;
.
:M_R19
	rdf:type bo:Reference ;
	isoC:label ""^^xsd:string ;
	bo:enabled "true"^^xsd:boolean ;
	bo:optional "false"^^xsd:boolean ;
	bo:ordinal "19"^^xsd:positiveInteger ;
	bo:reference <http://www.cdisc.org/SDTM_MODEL_TM/V7#CL> ;
.
:M_R20
	rdf:type bo:Reference ;
	isoC:label ""^^xsd:string ;
	bo:enabled "true"^^xsd:boolean ;
	bo:optional "false"^^xsd:boolean ;
	bo:ordinal "20"^^xsd:positiveInteger ;
	bo:reference <http://www.cdisc.org/SDTM_MODEL_AC/V7#CL> ;
.
:M_R21
	rdf:type bo:Reference ;
	isoC:label ""^^xsd:string ;
	bo:enabled "true"^^xsd:boolean ;
	bo:optional "false"^^xsd:boolean ;
	bo:ordinal "21"^^xsd:positiveInteger ;
	bo:reference <http://www.cdisc.org/SDTM_MODEL_RELREC/V7#CL> ;
.
:M_R22
	rdf:type bo:Reference ;
	isoC:label ""^^xsd:string ;
	bo:enabled "true"^^xsd:boolean ;
	bo:optional "false"^^xsd:boolean ;
	bo:ordinal "22"^^xsd:positiveInteger ;
	bo:reference <http://www.cdisc.org/SDTM_MODEL_SUPPQUAL/V7#CL> ;
.
:M_R23
	rdf:type bo:Reference ;
	isoC:label ""^^xsd:string ;
	bo:enabled "true"^^xsd:boolean ;
	bo:optional "false"^^xsd:boolean ;
	bo:ordinal "23"^^xsd:positiveInteger ;
	bo:reference <http://www.cdisc.org/SDTM_MODEL_POOLDEF/V7#CL> ;
.
:M_R24
	rdf:type bo:Reference ;
	isoC:label ""^^xsd:string ;
	bo:enabled "true"^^xsd:boolean ;
	bo:optional "false"^^xsd:boolean ;
	bo:ordinal "24"^^xsd:positiveInteger ;
	bo:reference <http://www.cdisc.org/SDTM_MODEL_RELSUB/V7#CL> ;
.
:M_R25
	rdf:type bo:Reference ;
	isoC:label ""^^xsd:string ;
	bo:enabled "true"^^xsd:boolean ;
	bo:optional "false"^^xsd:boolean ;
	bo:ordinal "25"^^xsd:positiveInteger ;
	bo:reference <http://www.cdisc.org/SDTM_MODEL_DR/V6#CL> ;
.
<http://www.cdisc.org/SDTM_MODEL_INTERVENTIONS/V7#CL>
	rdf:type bd:SdtmClass ;
	isoC:label "SDTM MODEL INTERVENTIONS"^^xsd:string ;
	isoT:hasState <http://www.cdisc.org/SDTM_MODEL_INTERVENTIONS/V7#CL_RS> ;
	isoT:hasIdentifier <http://www.cdisc.org/SDTM_MODEL_INTERVENTIONS/V7#CL_SI> ;
	isoT:hasPreviousVersion <http://www.cdisc.org/SDTM_MODEL_INTERVENTIONS/V6#CL> ;
	isoT:origin ""^^xsd:string ;
	isoT:changeDescription ""^^xsd:string ;
	isoT:creationDate "2019-09-17T00:00:00+00:00"^^xsd:dateTime ;
	isoT:lastChangeDate "2019-09-17T00:00:00+00:00"^^xsd:dateTime ;
	isoT:explanatoryComment ""^^xsd:string ;
	bd:rule ""^^xsd:string ;
	bd:ordinal "1"^^xsd:positiveInteger ;
	bd:includesColumn <http://www.cdisc.org/SDTM_MODEL_ALL/V1#CL_STUDYID> ;
	bd:includesColumn <http://www.cdisc.org/SDTM_MODEL_ALL/V6#CL_DOMAIN> ;
	bd:includesColumn <http://www.cdisc.org/SDTM_MODEL_ALL/V1#CL_USUBJID> ;
	bd:includesColumn <http://www.cdisc.org/SDTM_MODEL_ALL/V7#CL_APID> ;
	bd:includesColumn <http://www.cdisc.org/SDTM_MODEL_ALL/V4#CL_POOLID> ;
	bd:includesColumn <http://www.cdisc.org/SDTM_MODEL_ALL/V4#CL_SPDEVID> ;
	bd:includesColumn <http://www.cdisc.org/SDTM_MODEL_ALL/V5#CL_NHOID> ;
	bd:includesColumn <http://www.cdisc.org/SDTM_MODEL_ALL/V5#CL_FETUSID> ;
	bd:includesColumn <http://www.cdisc.org/SDTM_MODEL_ALL/V7#CL_FOCID> ;
	bd:includesColumn <http://www.cdisc.org/SDTM_MODEL_ALL/V5#CL_--SEQ> ;
	bd:includesColumn <http://www.cdisc.org/SDTM_MODEL_ALL/V6#CL_--GRPID> ;
	bd:includesColumn <http://www.cdisc.org/SDTM_MODEL_ALL/V5#CL_--REFID> ;
	bd:includesColumn <http://www.cdisc.org/SDTM_MODEL_ALL/V5#CL_--RECID> ;
	bd:includesColumn <http://www.cdisc.org/SDTM_MODEL_ALL/V7#CL_--SPID> ;
	bd:includesColumn <http://www.cdisc.org/SDTM_MODEL_ALL/V6#CL_--LNKID> ;
	bd:includesColumn <http://www.cdisc.org/SDTM_MODEL_ALL/V6#CL_--LNKGRP> ;
	bd:includesColumn <http://www.cdisc.org/SDTM_MODEL_ALL/V5#CL_VISITNUM> ;
	bd:includesColumn <http://www.cdisc.org/SDTM_MODEL_ALL/V5#CL_VISIT> ;
	bd:includesColumn <http://www.cdisc.org/SDTM_MODEL_ALL/V5#CL_VISITDY> ;
	bd:includesColumn <http://www.cdisc.org/SDTM_MODEL_ALL/V6#CL_TAETORD> ;
	bd:includesColumn <http://www.cdisc.org/SDTM_MODEL_ALL/V6#CL_EPOCH> ;
	bd:includesColumn <http://www.cdisc.org/SDTM_MODEL_ALL/V5#CL_RPHASE> ;
	bd:includesColumn <http://www.cdisc.org/SDTM_MODEL_ALL/V5#CL_RPPLDY> ;
	bd:includesColumn <http://www.cdisc.org/SDTM_MODEL_ALL/V5#CL_RPPLSTDY> ;
	bd:includesColumn <http://www.cdisc.org/SDTM_MODEL_ALL/V5#CL_RPPLENDY> ;
	bd:includesColumn <http://www.cdisc.org/SDTM_MODEL_ALL/V5#CL_--DTC> ;
	bd:includesColumn <http://www.cdisc.org/SDTM_MODEL_ALL/V5#CL_--STDTC> ;
	bd:includesColumn <http://www.cdisc.org/SDTM_MODEL_ALL/V5#CL_--ENDTC> ;
	bd:includesColumn <http://www.cdisc.org/SDTM_MODEL_ALL/V5#CL_--DY> ;
	bd:includesColumn <http://www.cdisc.org/SDTM_MODEL_ALL/V5#CL_--STDY> ;
	bd:includesColumn <http://www.cdisc.org/SDTM_MODEL_ALL/V5#CL_--ENDY> ;
	bd:includesColumn <http://www.cdisc.org/SDTM_MODEL_ALL/V6#CL_--NOMDY> ;
	bd:includesColumn <http://www.cdisc.org/SDTM_MODEL_ALL/V5#CL_--NOMLBL> ;
	bd:includesColumn <http://www.cdisc.org/SDTM_MODEL_ALL/V5#CL_--RPDY> ;
	bd:includesColumn <http://www.cdisc.org/SDTM_MODEL_ALL/V5#CL_--RPSTDY> ;
	bd:includesColumn <http://www.cdisc.org/SDTM_MODEL_ALL/V5#CL_--RPENDY> ;
	bd:includesColumn <http://www.cdisc.org/SDTM_MODEL_ALL/V7#CL_--XDY> ;
	bd:includesColumn <http://www.cdisc.org/SDTM_MODEL_ALL/V7#CL_--XSTDY> ;
	bd:includesColumn <http://www.cdisc.org/SDTM_MODEL_ALL/V7#CL_--XENDY> ;
	bd:includesColumn <http://www.cdisc.org/SDTM_MODEL_ALL/V7#CL_--CHDY> ;
	bd:includesColumn <http://www.cdisc.org/SDTM_MODEL_ALL/V7#CL_--CHSTDY> ;
	bd:includesColumn <http://www.cdisc.org/SDTM_MODEL_ALL/V7#CL_--CHENDY> ;
	bd:includesColumn <http://www.cdisc.org/SDTM_MODEL_ALL/V7#CL_--DUR> ;
	bd:includesColumn <http://www.cdisc.org/SDTM_MODEL_ALL/V7#CL_--TPT> ;
	bd:includesColumn <http://www.cdisc.org/SDTM_MODEL_ALL/V7#CL_--TPTNUM> ;
	bd:includesColumn <http://www.cdisc.org/SDTM_MODEL_ALL/V7#CL_--ELTM> ;
	bd:includesColumn <http://www.cdisc.org/SDTM_MODEL_ALL/V7#CL_--TPTREF> ;
	bd:includesColumn <http://www.cdisc.org/SDTM_MODEL_ALL/V7#CL_--RFTDTC> ;
	bd:includesColumn <http://www.cdisc.org/SDTM_MODEL_ALL/V7#CL_--STRF> ;
	bd:includesColumn <http://www.cdisc.org/SDTM_MODEL_ALL/V7#CL_--ENRF> ;
	bd:includesColumn <http://www.cdisc.org/SDTM_MODEL_ALL/V7#CL_--EVLINT> ;
	bd:includesColumn <http://www.cdisc.org/SDTM_MODEL_ALL/V7#CL_--EVINTX> ;
	bd:includesColumn <http://www.cdisc.org/SDTM_MODEL_ALL/V7#CL_--STRTPT> ;
	bd:includesColumn <http://www.cdisc.org/SDTM_MODEL_ALL/V7#CL_--STTPT> ;
	bd:includesColumn <http://www.cdisc.org/SDTM_MODEL_ALL/V7#CL_--ENRTPT> ;
	bd:includesColumn <http://www.cdisc.org/SDTM_MODEL_ALL/V7#CL_--ENTPT> ;
	bd:includesColumn <http://www.cdisc.org/SDTM_MODEL_ALL/V7#CL_MIDS> ;
	bd:includesColumn <http://www.cdisc.org/SDTM_MODEL_ALL/V7#CL_RELMIDS> ;
	bd:includesColumn <http://www.cdisc.org/SDTM_MODEL_ALL/V7#CL_MIDSDTC> ;
	bd:includesColumn <http://www.cdisc.org/SDTM_MODEL_ALL/V7#CL_--STINT> ;
	bd:includesColumn <http://www.cdisc.org/SDTM_MODEL_ALL/V7#CL_--ENINT> ;
	bd:includesColumn <http://www.cdisc.org/SDTM_MODEL_ALL/V7#CL_--DETECT> ;
	bd:includesColumn <http://www.cdisc.org/SDTM_MODEL_INTERVENTIONS/V1#CL_--TRT> ;
	bd:includesColumn <http://www.cdisc.org/SDTM_MODEL_INTERVENTIONS/V7#CL_--MODIFY> ;
	bd:includesColumn <http://www.cdisc.org/SDTM_MODEL_INTERVENTIONS/V7#CL_--DECOD> ;
	bd:includesColumn <http://www.cdisc.org/SDTM_MODEL_INTERVENTIONS/V6#CL_--MOOD> ;
	bd:includesColumn <http://www.cdisc.org/SDTM_MODEL_INTERVENTIONS/V3#CL_--CAT> ;
	bd:includesColumn <http://www.cdisc.org/SDTM_MODEL_INTERVENTIONS/V3#CL_--SCAT> ;
	bd:includesColumn <http://www.cdisc.org/SDTM_MODEL_INTERVENTIONS/V7#CL_--PRESP> ;
	bd:includesColumn <http://www.cdisc.org/SDTM_MODEL_INTERVENTIONS/V7#CL_--OCCUR> ;
	bd:includesColumn <http://www.cdisc.org/SDTM_MODEL_INTERVENTIONS/V7#CL_--STAT> ;
	bd:includesColumn <http://www.cdisc.org/SDTM_MODEL_INTERVENTIONS/V6#CL_--REASND> ;
	bd:includesColumn <http://www.cdisc.org/SDTM_MODEL_INTERVENTIONS/V3#CL_--INDC> ;
	bd:includesColumn <http://www.cdisc.org/SDTM_MODEL_INTERVENTIONS/V7#CL_--CLAS> ;
	bd:includesColumn <http://www.cdisc.org/SDTM_MODEL_INTERVENTIONS/V7#CL_--CLASCD> ;
	bd:includesColumn <http://www.cdisc.org/SDTM_MODEL_INTERVENTIONS/V3#CL_--DOSE> ;
	bd:includesColumn <http://www.cdisc.org/SDTM_MODEL_INTERVENTIONS/V3#CL_--DOSTXT> ;
	bd:includesColumn <http://www.cdisc.org/SDTM_MODEL_INTERVENTIONS/V7#CL_--DOSU> ;
	bd:includesColumn <http://www.cdisc.org/SDTM_MODEL_INTERVENTIONS/V7#CL_--TDOSD> ;
	bd:includesColumn <http://www.cdisc.org/SDTM_MODEL_INTERVENTIONS/V7#CL_--FTDOSD> ;
	bd:includesColumn <http://www.cdisc.org/SDTM_MODEL_INTERVENTIONS/V7#CL_--DOSFRM> ;
	bd:includesColumn <http://www.cdisc.org/SDTM_MODEL_INTERVENTIONS/V7#CL_--DOSFRQ> ;
	bd:includesColumn <http://www.cdisc.org/SDTM_MODEL_INTERVENTIONS/V7#CL_--DOSTOT> ;
	bd:includesColumn <http://www.cdisc.org/SDTM_MODEL_INTERVENTIONS/V7#CL_--DOSRGM> ;
	bd:includesColumn <http://www.cdisc.org/SDTM_MODEL_INTERVENTIONS/V7#CL_--ROUTE> ;
	bd:includesColumn <http://www.cdisc.org/SDTM_MODEL_INTERVENTIONS/V7#CL_--LOT> ;
	bd:includesColumn <http://www.cdisc.org/SDTM_MODEL_INTERVENTIONS/V7#CL_--LOC> ;
	bd:includesColumn <http://www.cdisc.org/SDTM_MODEL_INTERVENTIONS/V7#CL_--LAT> ;
	bd:includesColumn <http://www.cdisc.org/SDTM_MODEL_INTERVENTIONS/V7#CL_--DIR> ;
	bd:includesColumn <http://www.cdisc.org/SDTM_MODEL_INTERVENTIONS/V7#CL_--PORTOT> ;
	bd:includesColumn <http://www.cdisc.org/SDTM_MODEL_INTERVENTIONS/V7#CL_--FAST> ;
	bd:includesColumn <http://www.cdisc.org/SDTM_MODEL_INTERVENTIONS/V7#CL_--PSTRG> ;
	bd:includesColumn <http://www.cdisc.org/SDTM_MODEL_INTERVENTIONS/V7#CL_--PSTRGU> ;
	bd:includesColumn <http://www.cdisc.org/SDTM_MODEL_INTERVENTIONS/V7#CL_--TRTV> ;
	bd:includesColumn <http://www.cdisc.org/SDTM_MODEL_INTERVENTIONS/V7#CL_--VAMT> ;
	bd:includesColumn <http://www.cdisc.org/SDTM_MODEL_INTERVENTIONS/V7#CL_--VAMTU> ;
	bd:includesColumn <http://www.cdisc.org/SDTM_MODEL_INTERVENTIONS/V7#CL_--ADJ> ;
	bd:includesColumn <http://www.cdisc.org/SDTM_MODEL_INTERVENTIONS/V7#CL_--RSDISC> ;
	bd:includesColumn <http://www.cdisc.org/SDTM_MODEL_INTERVENTIONS/V7#CL_--USCHFL> ;
	bd:includesColumn <http://www.cdisc.org/SDTM_MODEL_INTERVENTIONS/V7#CL_--RSTIND> ;
	bd:includesColumn <http://www.cdisc.org/SDTM_MODEL_INTERVENTIONS/V7#CL_--RSTMOD> ;
.
<http://www.cdisc.org/SDTM_MODEL_INTERVENTIONS/V7#CL_RS>
	rdf:type isoR:RegistrationState ;
	isoR:registrationStatus "Standard"^^xsd:string ;
	isoR:administrativeNote ""^^xsd:string ;
	isoR:effectiveDate "2016-01-01T00:00:00+00:00"^^xsd:dateTime ;
	isoR:untilDate "2016-01-01T00:00:00+00:00"^^xsd:dateTime ;
	isoR:unresolvedIssue ""^^xsd:string ;
	isoR:administrativeStatus ""^^xsd:string ;
	isoR:previousState "Standard"^^xsd:string ;
	isoR:multipleEdit "false"^^xsd:boolean ;
	isoR:byAuthority <http://www.assero.co.uk/RA#DUNS084433759> ;
.
<http://www.cdisc.org/SDTM_MODEL_INTERVENTIONS/V7#CL_SI>
	rdf:type isoI:ScopedIdentifier ;
	isoI:identifier "SDTM MODEL INTERVENTIONS"^^xsd:string ;
	isoI:versionLabel "2019-09-17 Release"^^xsd:string ;
	isoI:version "7"^^xsd:positiveInteger ;
	isoI:semanticVersion "7.0.0"^^xsd:string ;
	isoI:hasScope <http://www.assero.co.uk/NS#CDISC> ;
.
<http://www.cdisc.org/SDTM_MODEL_ALL/V7#CL_APID>
	rdf:type bd:SdtmClassVariable ;
	isoC:label "Associated Persons Identifier"^^xsd:string ;
	bd:rule ""^^xsd:string ;
	bd:ordinal "4"^^xsd:positiveInteger ;
	bd:name "APID"^^xsd:string ;
	bd:prefixed "false"^^xsd:boolean ;
	bd:description "Identifier for a single associated person, a group of associated persons, or a pool of associated persons. If APID identifies a pool, POOLDEF records must exist for each associated person. (See Table 4.1.3.1, POOLDEF Dataset, and Section 6, Applying Model Fundamentals to Associated Persons)."^^xsd:string ;
	bd:typedAs <http://www.assero.co.uk/CSN#d2f2bbeb-8f79-4fb1-b190-dd864d29f080> ;
	bd:classifiedAs <http://www.assero.co.uk/CSN#d46bb337-92cd-4250-b50c-9be5079d6ab3> ;
.
<http://www.cdisc.org/SDTM_MODEL_ALL/V7#CL_FOCID>
	rdf:type bd:SdtmClassVariable ;
	isoC:label "Focus of Study-Specific Interest"^^xsd:string ;
	bd:rule ""^^xsd:string ;
	bd:ordinal "9"^^xsd:positiveInteger ;
	bd:name "FOCID"^^xsd:string ;
	bd:prefixed "false"^^xsd:boolean ;
	bd:description "Identification of a focus of study-specific interest on or within a subject or specimen as called out in the protocol for which a measurement, test, or examination was performed, such as a drug application site (e.g., \"Injection site 1\", \"Biopsy site 1\", \"Treated site 1\"), or a more specific focus (e.g., \"OD\" (right eye), \"Upper left quadrant of the back\"). The value in this variable should have inherent semantic meaning."^^xsd:string ;
	bd:typedAs <http://www.assero.co.uk/CSN#d2f2bbeb-8f79-4fb1-b190-dd864d29f080> ;
	bd:classifiedAs <http://www.assero.co.uk/CSN#d46bb337-92cd-4250-b50c-9be5079d6ab3> ;
.
<http://www.cdisc.org/SDTM_MODEL_ALL/V7#CL_--SPID>
	rdf:type bd:SdtmClassVariable ;
	isoC:label "Sponsor-Defined Identifier"^^xsd:string ;
	bd:rule ""^^xsd:string ;
	bd:ordinal "14"^^xsd:positiveInteger ;
	bd:name "--SPID"^^xsd:string ;
	bd:prefixed "true"^^xsd:boolean ;
	bd:description "Sponsor-defined identifier. Example: preprinted line identifier on a Concomitant Medications page."^^xsd:string ;
	bd:typedAs <http://www.assero.co.uk/CSN#d2f2bbeb-8f79-4fb1-b190-dd864d29f080> ;
	bd:classifiedAs <http://www.assero.co.uk/CSN#d46bb337-92cd-4250-b50c-9be5079d6ab3> ;
.
<http://www.cdisc.org/SDTM_MODEL_ALL/V7#CL_--XDY>
	rdf:type bd:SdtmClassVariable ;
	isoC:label "Day of Obs Relative to Exposure"^^xsd:string ;
	bd:rule ""^^xsd:string ;
	bd:ordinal "37"^^xsd:positiveInteger ;
	bd:name "--XDY"^^xsd:string ;
	bd:prefixed "true"^^xsd:boolean ;
	bd:description "The actual study day of an intervention, event, or finding, derived relative to the first exposure to any protocol-specified treatment. Expressed in integer days relative to RFXSTDTC in Demographics."^^xsd:string ;
	bd:typedAs <http://www.assero.co.uk/CSN#178f8dbe-c3ba-4dc0-8a2a-18081644b4c6> ;
	bd:classifiedAs <http://www.assero.co.uk/CSN#2c3ff386-a062-47f5-b594-eef7ead02243> ;
.
<http://www.cdisc.org/SDTM_MODEL_ALL/V7#CL_--XSTDY>
	rdf:type bd:SdtmClassVariable ;
	isoC:label "Start Day of Obs Relative to Exposure"^^xsd:string ;
	bd:rule ""^^xsd:string ;
	bd:ordinal "38"^^xsd:positiveInteger ;
	bd:name "--XSTDY"^^xsd:string ;
	bd:prefixed "true"^^xsd:boolean ;
	bd:description "The actual study day of the start of an intervention or event, derived relative to the first exposure to any protocol-specified treatment. Expressed in integer days relative to RFXSTDTC in Demographics."^^xsd:string ;
	bd:typedAs <http://www.assero.co.uk/CSN#178f8dbe-c3ba-4dc0-8a2a-18081644b4c6> ;
	bd:classifiedAs <http://www.assero.co.uk/CSN#2c3ff386-a062-47f5-b594-eef7ead02243> ;
.
<http://www.cdisc.org/SDTM_MODEL_ALL/V7#CL_--XENDY>
	rdf:type bd:SdtmClassVariable ;
	isoC:label "End Day of Obs Relative to Exposure"^^xsd:string ;
	bd:rule ""^^xsd:string ;
	bd:ordinal "39"^^xsd:positiveInteger ;
	bd:name "--XENDY"^^xsd:string ;
	bd:prefixed "true"^^xsd:boolean ;
	bd:description "The actual study day of the end of an intervention, event, or finding, derived relative to the first exposure to any protocol-specified treatment. Expressed in integer days relative to RFXSTDTC in Demographics."^^xsd:string ;
	bd:typedAs <http://www.assero.co.uk/CSN#178f8dbe-c3ba-4dc0-8a2a-18081644b4c6> ;
	bd:classifiedAs <http://www.assero.co.uk/CSN#2c3ff386-a062-47f5-b594-eef7ead02243> ;
.
<http://www.cdisc.org/SDTM_MODEL_ALL/V7#CL_--CHDY>
	rdf:type bd:SdtmClassVariable ;
	isoC:label "Day of Obs Rel to Challenge Agent"^^xsd:string ;
	bd:rule ""^^xsd:string ;
	bd:ordinal "40"^^xsd:positiveInteger ;
	bd:name "--CHDY"^^xsd:string ;
	bd:prefixed "true"^^xsd:boolean ;
	bd:description "The actual study day of an intervention, event, or finding, derived relative to the first exposure to the challenge agent that induces the disease or condition that the investigational treatment is intended to cure, mitigate, treat, or prevent. Expressed in integer days relative to RFCSTDTC in Demographics."^^xsd:string ;
	bd:typedAs <http://www.assero.co.uk/CSN#178f8dbe-c3ba-4dc0-8a2a-18081644b4c6> ;
	bd:classifiedAs <http://www.assero.co.uk/CSN#2c3ff386-a062-47f5-b594-eef7ead02243> ;
.
<http://www.cdisc.org/SDTM_MODEL_ALL/V7#CL_--CHSTDY>
	rdf:type bd:SdtmClassVariable ;
	isoC:label "Start Day of Obs Rel to Challenge Agent"^^xsd:string ;
	bd:rule ""^^xsd:string ;
	bd:ordinal "41"^^xsd:positiveInteger ;
	bd:name "--CHSTDY"^^xsd:string ;
	bd:prefixed "true"^^xsd:boolean ;
	bd:description "The actual study day of the start of an intervention or event derived relative to the first exposure to the challenge agent that induces the disease or condition that the investigational treatment is intended to cure, mitigate, treat, or prevent. Expressed in integer days relative to RFCSTDTC in Demographics."^^xsd:string ;
	bd:typedAs <http://www.assero.co.uk/CSN#178f8dbe-c3ba-4dc0-8a2a-18081644b4c6> ;
	bd:classifiedAs <http://www.assero.co.uk/CSN#2c3ff386-a062-47f5-b594-eef7ead02243> ;
.
<http://www.cdisc.org/SDTM_MODEL_ALL/V7#CL_--CHENDY>
	rdf:type bd:SdtmClassVariable ;
	isoC:label "End Day of Obs Rel to Challenge Agent"^^xsd:string ;
	bd:rule ""^^xsd:string ;
	bd:ordinal "42"^^xsd:positiveInteger ;
	bd:name "--CHENDY"^^xsd:string ;
	bd:prefixed "true"^^xsd:boolean ;
	bd:description "The actual study day of the end of an intervention, event, or finding derived relative to the first exposure to the challenge agent that induces the disease or condition that the investigational treatment is intended to cure, mitigate, treat, or prevent. Expressed in integer days relative to RFCSTDTC in Demographics."^^xsd:string ;
	bd:typedAs <http://www.assero.co.uk/CSN#178f8dbe-c3ba-4dc0-8a2a-18081644b4c6> ;
	bd:classifiedAs <http://www.assero.co.uk/CSN#2c3ff386-a062-47f5-b594-eef7ead02243> ;
.
<http://www.cdisc.org/SDTM_MODEL_ALL/V7#CL_--DUR>
	rdf:type bd:SdtmClassVariable ;
	isoC:label "Duration"^^xsd:string ;
	bd:rule ""^^xsd:string ;
	bd:ordinal "43"^^xsd:positiveInteger ;
	bd:name "--DUR"^^xsd:string ;
	bd:prefixed "true"^^xsd:boolean ;
	bd:description "Collected duration of an event, intervention, or finding. Used only if collected on the CRF and not derived."^^xsd:string ;
	bd:typedAs <http://www.assero.co.uk/CSN#d2f2bbeb-8f79-4fb1-b190-dd864d29f080> ;
	bd:classifiedAs <http://www.assero.co.uk/CSN#2c3ff386-a062-47f5-b594-eef7ead02243> ;
.
<http://www.cdisc.org/SDTM_MODEL_ALL/V7#CL_--TPT>
	rdf:type bd:SdtmClassVariable ;
	isoC:label "Planned Time Point Name"^^xsd:string ;
	bd:rule ""^^xsd:string ;
	bd:ordinal "44"^^xsd:positiveInteger ;
	bd:name "--TPT"^^xsd:string ;
	bd:prefixed "true"^^xsd:boolean ;
	bd:description "Text description of time when a measurement or observation should be taken as defined in the protocol. This may be represented as an elapsed time relative to a fixed reference point (e.g., time of last dose). See --TPTNUM and --TPTREF."^^xsd:string ;
	bd:typedAs <http://www.assero.co.uk/CSN#d2f2bbeb-8f79-4fb1-b190-dd864d29f080> ;
	bd:classifiedAs <http://www.assero.co.uk/CSN#2c3ff386-a062-47f5-b594-eef7ead02243> ;
.
<http://www.cdisc.org/SDTM_MODEL_ALL/V7#CL_--TPTNUM>
	rdf:type bd:SdtmClassVariable ;
	isoC:label "Planned Time Point Number"^^xsd:string ;
	bd:rule ""^^xsd:string ;
	bd:ordinal "45"^^xsd:positiveInteger ;
	bd:name "--TPTNUM"^^xsd:string ;
	bd:prefixed "true"^^xsd:boolean ;
	bd:description "Numeric version of planned time point used in sorting."^^xsd:string ;
	bd:typedAs <http://www.assero.co.uk/CSN#178f8dbe-c3ba-4dc0-8a2a-18081644b4c6> ;
	bd:classifiedAs <http://www.assero.co.uk/CSN#2c3ff386-a062-47f5-b594-eef7ead02243> ;
.
<http://www.cdisc.org/SDTM_MODEL_ALL/V7#CL_--ELTM>
	rdf:type bd:SdtmClassVariable ;
	isoC:label "Planned Elapsed Time from Time Point Ref"^^xsd:string ;
	bd:rule ""^^xsd:string ;
	bd:ordinal "46"^^xsd:positiveInteger ;
	bd:name "--ELTM"^^xsd:string ;
	bd:prefixed "true"^^xsd:boolean ;
	bd:description "Planned elapsed time relative to a planned fixed reference (--TPTREF) such as \"Previous Dose\" or \"Previous Meal\". This variable is useful where there are repetitive measures. Not a clock time or a date/time variable, but an interval."^^xsd:string ;
	bd:typedAs <http://www.assero.co.uk/CSN#d2f2bbeb-8f79-4fb1-b190-dd864d29f080> ;
	bd:classifiedAs <http://www.assero.co.uk/CSN#2c3ff386-a062-47f5-b594-eef7ead02243> ;
.
<http://www.cdisc.org/SDTM_MODEL_ALL/V7#CL_--TPTREF>
	rdf:type bd:SdtmClassVariable ;
	isoC:label "Time Point Reference"^^xsd:string ;
	bd:rule ""^^xsd:string ;
	bd:ordinal "47"^^xsd:positiveInteger ;
	bd:name "--TPTREF"^^xsd:string ;
	bd:prefixed "true"^^xsd:boolean ;
	bd:description "Description of the fixed reference point referred to by --ELTM, --TPTNUM, --TPT, --STINT, and --ENINT. Examples: \"PREVIOUS DOSE\", \"PREVIOUS MEAL\"."^^xsd:string ;
	bd:typedAs <http://www.assero.co.uk/CSN#d2f2bbeb-8f79-4fb1-b190-dd864d29f080> ;
	bd:classifiedAs <http://www.assero.co.uk/CSN#2c3ff386-a062-47f5-b594-eef7ead02243> ;
.
<http://www.cdisc.org/SDTM_MODEL_ALL/V7#CL_--RFTDTC>
	rdf:type bd:SdtmClassVariable ;
	isoC:label "Date/Time of Reference Time Point"^^xsd:string ;
	bd:rule ""^^xsd:string ;
	bd:ordinal "48"^^xsd:positiveInteger ;
	bd:name "--RFTDTC"^^xsd:string ;
	bd:prefixed "true"^^xsd:boolean ;
	bd:description "Date/time for a fixed reference time point defined by --TPTREF."^^xsd:string ;
	bd:typedAs <http://www.assero.co.uk/CSN#d2f2bbeb-8f79-4fb1-b190-dd864d29f080> ;
	bd:classifiedAs <http://www.assero.co.uk/CSN#2c3ff386-a062-47f5-b594-eef7ead02243> ;
.
<http://www.cdisc.org/SDTM_MODEL_ALL/V7#CL_--STRF>
	rdf:type bd:SdtmClassVariable ;
	isoC:label "Start Relative to Reference Period"^^xsd:string ;
	bd:rule ""^^xsd:string ;
	bd:ordinal "49"^^xsd:positiveInteger ;
	bd:name "--STRF"^^xsd:string ;
	bd:prefixed "true"^^xsd:boolean ;
	bd:description "Identifies the start of the observation as being before, during, or after the sponsor-defined reference period. The sponsor-defined reference period is a continuous period of time defined by a discrete starting point and a discrete ending point represented by RFSTDTC and RFENDTC in Demographics."^^xsd:string ;
	bd:typedAs <http://www.assero.co.uk/CSN#d2f2bbeb-8f79-4fb1-b190-dd864d29f080> ;
	bd:classifiedAs <http://www.assero.co.uk/CSN#2c3ff386-a062-47f5-b594-eef7ead02243> ;
.
<http://www.cdisc.org/SDTM_MODEL_ALL/V7#CL_--ENRF>
	rdf:type bd:SdtmClassVariable ;
	isoC:label "End Relative to Reference Period"^^xsd:string ;
	bd:rule ""^^xsd:string ;
	bd:ordinal "50"^^xsd:positiveInteger ;
	bd:name "--ENRF"^^xsd:string ;
	bd:prefixed "true"^^xsd:boolean ;
	bd:description "Identifies the end of the observation as being before, during or after the sponsor-defined reference period. The sponsor-defined reference period is a continuous period of time defined by a discrete starting point and a discrete ending point represented by RFSTDTC and RFENDTC in Demographics."^^xsd:string ;
	bd:typedAs <http://www.assero.co.uk/CSN#d2f2bbeb-8f79-4fb1-b190-dd864d29f080> ;
	bd:classifiedAs <http://www.assero.co.uk/CSN#2c3ff386-a062-47f5-b594-eef7ead02243> ;
.
<http://www.cdisc.org/SDTM_MODEL_ALL/V7#CL_--EVLINT>
	rdf:type bd:SdtmClassVariable ;
	isoC:label "Evaluation Interval"^^xsd:string ;
	bd:rule ""^^xsd:string ;
	bd:ordinal "51"^^xsd:positiveInteger ;
	bd:name "--EVLINT"^^xsd:string ;
	bd:prefixed "true"^^xsd:boolean ;
	bd:description "Duration of interval associated with an observation such as a finding --TESTCD. Usually used with --DTC to describe an interval of this duration that ended at the time represented in --DTC. Example: \"-P2M\" to represent a period of the past 2 months as the evaluation interval for a question from a questionnaire."^^xsd:string ;
	bd:typedAs <http://www.assero.co.uk/CSN#d2f2bbeb-8f79-4fb1-b190-dd864d29f080> ;
	bd:classifiedAs <http://www.assero.co.uk/CSN#2c3ff386-a062-47f5-b594-eef7ead02243> ;
.
<http://www.cdisc.org/SDTM_MODEL_ALL/V7#CL_--EVINTX>
	rdf:type bd:SdtmClassVariable ;
	isoC:label "Evaluation Interval Text"^^xsd:string ;
	bd:rule ""^^xsd:string ;
	bd:ordinal "52"^^xsd:positiveInteger ;
	bd:name "--EVINTX"^^xsd:string ;
	bd:prefixed "true"^^xsd:boolean ;
	bd:description "Evaluation interval associated with an observation, where the interval is not able to be represented in ISO 8601 format. Examples: \"LIFETIME\", \"LAST NIGHT\", \"RECENTLY\", \"OVER THE LAST FEW WEEKS\"."^^xsd:string ;
	bd:typedAs <http://www.assero.co.uk/CSN#d2f2bbeb-8f79-4fb1-b190-dd864d29f080> ;
	bd:classifiedAs <http://www.assero.co.uk/CSN#2c3ff386-a062-47f5-b594-eef7ead02243> ;
.
<http://www.cdisc.org/SDTM_MODEL_ALL/V7#CL_--STRTPT>
	rdf:type bd:SdtmClassVariable ;
	isoC:label "Start Relative to Reference Time Point"^^xsd:string ;
	bd:rule ""^^xsd:string ;
	bd:ordinal "53"^^xsd:positiveInteger ;
	bd:name "--STRTPT"^^xsd:string ;
	bd:prefixed "true"^^xsd:boolean ;
	bd:description "Identifies the start of the observation as being before or after the sponsor-defined reference time point defined by variable --STTPT."^^xsd:string ;
	bd:typedAs <http://www.assero.co.uk/CSN#d2f2bbeb-8f79-4fb1-b190-dd864d29f080> ;
	bd:classifiedAs <http://www.assero.co.uk/CSN#2c3ff386-a062-47f5-b594-eef7ead02243> ;
.
<http://www.cdisc.org/SDTM_MODEL_ALL/V7#CL_--STTPT>
	rdf:type bd:SdtmClassVariable ;
	isoC:label "Start Reference Time Point"^^xsd:string ;
	bd:rule ""^^xsd:string ;
	bd:ordinal "54"^^xsd:positiveInteger ;
	bd:name "--STTPT"^^xsd:string ;
	bd:prefixed "true"^^xsd:boolean ;
	bd:description "Description or date/time in ISO 8601 or other character format of the sponsor-defined reference point referred to by --STRTPT. Examples: \"2003-12-15\", \"VISIT 1\"."^^xsd:string ;
	bd:typedAs <http://www.assero.co.uk/CSN#d2f2bbeb-8f79-4fb1-b190-dd864d29f080> ;
	bd:classifiedAs <http://www.assero.co.uk/CSN#2c3ff386-a062-47f5-b594-eef7ead02243> ;
.
<http://www.cdisc.org/SDTM_MODEL_ALL/V7#CL_--ENRTPT>
	rdf:type bd:SdtmClassVariable ;
	isoC:label "End Relative to Reference Time Point"^^xsd:string ;
	bd:rule ""^^xsd:string ;
	bd:ordinal "55"^^xsd:positiveInteger ;
	bd:name "--ENRTPT"^^xsd:string ;
	bd:prefixed "true"^^xsd:boolean ;
	bd:description "Identifies the end of the observation as being before or after the sponsor-defined reference time point defined by variable --ENTPT."^^xsd:string ;
	bd:typedAs <http://www.assero.co.uk/CSN#d2f2bbeb-8f79-4fb1-b190-dd864d29f080> ;
	bd:classifiedAs <http://www.assero.co.uk/CSN#2c3ff386-a062-47f5-b594-eef7ead02243> ;
.
<http://www.cdisc.org/SDTM_MODEL_ALL/V7#CL_--ENTPT>
	rdf:type bd:SdtmClassVariable ;
	isoC:label "End Reference Time Point"^^xsd:string ;
	bd:rule ""^^xsd:string ;
	bd:ordinal "56"^^xsd:positiveInteger ;
	bd:name "--ENTPT"^^xsd:string ;
	bd:prefixed "true"^^xsd:boolean ;
	bd:description "Description or date/time in ISO 8601 or other character format of the sponsor-defined reference point referred to by --ENRTPT. Examples: \"2003-12-25\", \"VISIT 2\"."^^xsd:string ;
	bd:typedAs <http://www.assero.co.uk/CSN#d2f2bbeb-8f79-4fb1-b190-dd864d29f080> ;
	bd:classifiedAs <http://www.assero.co.uk/CSN#2c3ff386-a062-47f5-b594-eef7ead02243> ;
.
<http://www.cdisc.org/SDTM_MODEL_ALL/V7#CL_MIDS>
	rdf:type bd:SdtmClassVariable ;
	isoC:label "Disease Milestone Instance Name"^^xsd:string ;
	bd:rule ""^^xsd:string ;
	bd:ordinal "57"^^xsd:positiveInteger ;
	bd:name "MIDS"^^xsd:string ;
	bd:prefixed "false"^^xsd:boolean ;
	bd:description "The name of a specific instance of a Disease Milestone Type (MIDSTYPE) described in the Trial Disease Milestones dataset (see Section 3.5, Trial Disease Milestones). This should be unique within a subject. Used only in conjunction with RELMIDS and MIDSDTC."^^xsd:string ;
	bd:typedAs <http://www.assero.co.uk/CSN#d2f2bbeb-8f79-4fb1-b190-dd864d29f080> ;
	bd:classifiedAs <http://www.assero.co.uk/CSN#2c3ff386-a062-47f5-b594-eef7ead02243> ;
.
<http://www.cdisc.org/SDTM_MODEL_ALL/V7#CL_RELMIDS>
	rdf:type bd:SdtmClassVariable ;
	isoC:label "Temporal Relation to Milestone Instance"^^xsd:string ;
	bd:rule ""^^xsd:string ;
	bd:ordinal "58"^^xsd:positiveInteger ;
	bd:name "RELMIDS"^^xsd:string ;
	bd:prefixed "false"^^xsd:boolean ;
	bd:description "The temporal relationship of the observation to the Disease Milestone Instance Name in MIDS. Examples: \"IMMEDIATELY BEFORE\", \"AT TIME OF\", \"AFTER\"."^^xsd:string ;
	bd:typedAs <http://www.assero.co.uk/CSN#d2f2bbeb-8f79-4fb1-b190-dd864d29f080> ;
	bd:classifiedAs <http://www.assero.co.uk/CSN#2c3ff386-a062-47f5-b594-eef7ead02243> ;
.
<http://www.cdisc.org/SDTM_MODEL_ALL/V7#CL_MIDSDTC>
	rdf:type bd:SdtmClassVariable ;
	isoC:label "Disease Milestone Instance Date/Time"^^xsd:string ;
	bd:rule ""^^xsd:string ;
	bd:ordinal "59"^^xsd:positiveInteger ;
	bd:name "MIDSDTC"^^xsd:string ;
	bd:prefixed "false"^^xsd:boolean ;
	bd:description "The start date/time of the Disease Milestone Instance Name in MIDS."^^xsd:string ;
	bd:typedAs <http://www.assero.co.uk/CSN#d2f2bbeb-8f79-4fb1-b190-dd864d29f080> ;
	bd:classifiedAs <http://www.assero.co.uk/CSN#2c3ff386-a062-47f5-b594-eef7ead02243> ;
.
<http://www.cdisc.org/SDTM_MODEL_ALL/V7#CL_--STINT>
	rdf:type bd:SdtmClassVariable ;
	isoC:label "Planned Start of Assessment Interval"^^xsd:string ;
	bd:rule ""^^xsd:string ;
	bd:ordinal "60"^^xsd:positiveInteger ;
	bd:name "--STINT"^^xsd:string ;
	bd:prefixed "true"^^xsd:boolean ;
	bd:description "The start of a planned evaluation or assessment interval relative to the Time Point Reference (--TPTREF)."^^xsd:string ;
	bd:typedAs <http://www.assero.co.uk/CSN#d2f2bbeb-8f79-4fb1-b190-dd864d29f080> ;
	bd:classifiedAs <http://www.assero.co.uk/CSN#2c3ff386-a062-47f5-b594-eef7ead02243> ;
.
<http://www.cdisc.org/SDTM_MODEL_ALL/V7#CL_--ENINT>
	rdf:type bd:SdtmClassVariable ;
	isoC:label "Planned End of Assessment Interval"^^xsd:string ;
	bd:rule ""^^xsd:string ;
	bd:ordinal "61"^^xsd:positiveInteger ;
	bd:name "--ENINT"^^xsd:string ;
	bd:prefixed "true"^^xsd:boolean ;
	bd:description "The end of a planned evaluation or assessment interval relative to the Time Point Reference (--TPTREF)."^^xsd:string ;
	bd:typedAs <http://www.assero.co.uk/CSN#d2f2bbeb-8f79-4fb1-b190-dd864d29f080> ;
	bd:classifiedAs <http://www.assero.co.uk/CSN#2c3ff386-a062-47f5-b594-eef7ead02243> ;
.
<http://www.cdisc.org/SDTM_MODEL_ALL/V7#CL_--DETECT>
	rdf:type bd:SdtmClassVariable ;
	isoC:label "Time in Days to Detection"^^xsd:string ;
	bd:rule ""^^xsd:string ;
	bd:ordinal "62"^^xsd:positiveInteger ;
	bd:name "--DETECT"^^xsd:string ;
	bd:prefixed "true"^^xsd:boolean ;
	bd:description "The number of days from the start of dosing to the earliest detection of a condition or pathogen. Not to be used with human clinical trials."^^xsd:string ;
	bd:typedAs <http://www.assero.co.uk/CSN#178f8dbe-c3ba-4dc0-8a2a-18081644b4c6> ;
	bd:classifiedAs <http://www.assero.co.uk/CSN#2c3ff386-a062-47f5-b594-eef7ead02243> ;
.
<http://www.cdisc.org/SDTM_MODEL_INTERVENTIONS/V7#CL_--MODIFY>
	rdf:type bd:SdtmClassVariable ;
	isoC:label "Modified Treatment Name"^^xsd:string ;
	bd:rule ""^^xsd:string ;
	bd:ordinal "2"^^xsd:positiveInteger ;
	bd:name "--MODIFY"^^xsd:string ;
	bd:prefixed "true"^^xsd:boolean ;
	bd:description "If the value for --TRT is modified for coding purposes, then the modified text is placed here."^^xsd:string ;
	bd:typedAs <http://www.assero.co.uk/CSN#d2f2bbeb-8f79-4fb1-b190-dd864d29f080> ;
	bd:classifiedAs <http://www.assero.co.uk/CSN#818a9757-1ee5-4bd3-a179-e662e26b5b47> ;
.
<http://www.cdisc.org/SDTM_MODEL_INTERVENTIONS/V7#CL_--DECOD>
	rdf:type bd:SdtmClassVariable ;
	isoC:label "Standardized Treatment Name"^^xsd:string ;
	bd:rule ""^^xsd:string ;
	bd:ordinal "3"^^xsd:positiveInteger ;
	bd:name "--DECOD"^^xsd:string ;
	bd:prefixed "true"^^xsd:boolean ;
	bd:description "Standardized or dictionary-derived name of the topic variable, --TRT, or the modified topic variable (--MODIFY), if applicable. Equivalent to the generic drug name in WHODrug, or a term in SNOMED, ICD-9, or other published or sponsor-defined dictionaries."^^xsd:string ;
	bd:typedAs <http://www.assero.co.uk/CSN#d2f2bbeb-8f79-4fb1-b190-dd864d29f080> ;
	bd:classifiedAs <http://www.assero.co.uk/CSN#818a9757-1ee5-4bd3-a179-e662e26b5b47> ;
.
<http://www.cdisc.org/SDTM_MODEL_INTERVENTIONS/V7#CL_--PRESP>
	rdf:type bd:SdtmClassVariable ;
	isoC:label "Pre-specified"^^xsd:string ;
	bd:rule ""^^xsd:string ;
	bd:ordinal "7"^^xsd:positiveInteger ;
	bd:name "--PRESP"^^xsd:string ;
	bd:prefixed "true"^^xsd:boolean ;
	bd:description "Used when a specific intervention is prespecified on a CRF. Values should be \"Y\" or null."^^xsd:string ;
	bd:typedAs <http://www.assero.co.uk/CSN#d2f2bbeb-8f79-4fb1-b190-dd864d29f080> ;
.
<http://www.cdisc.org/SDTM_MODEL_INTERVENTIONS/V7#CL_--OCCUR>
	rdf:type bd:SdtmClassVariable ;
	isoC:label "Occurrence Indicator"^^xsd:string ;
	bd:rule ""^^xsd:string ;
	bd:ordinal "8"^^xsd:positiveInteger ;
	bd:name "--OCCUR"^^xsd:string ;
	bd:prefixed "true"^^xsd:boolean ;
	bd:description "Used to record whether a prespecified intervention occurred when information about the occurrence of a specific intervention is solicited."^^xsd:string ;
	bd:typedAs <http://www.assero.co.uk/CSN#d2f2bbeb-8f79-4fb1-b190-dd864d29f080> ;
	bd:classifiedAs <http://www.assero.co.uk/CSN#4bb7578c-6705-4d2e-93d6-b56960d9e21e> ;
.
<http://www.cdisc.org/SDTM_MODEL_INTERVENTIONS/V7#CL_--STAT>
	rdf:type bd:SdtmClassVariable ;
	isoC:label "Completion Status"^^xsd:string ;
	bd:rule ""^^xsd:string ;
	bd:ordinal "9"^^xsd:positiveInteger ;
	bd:name "--STAT"^^xsd:string ;
	bd:prefixed "true"^^xsd:boolean ;
	bd:description "Used to indicate when a question about the occurrence of a prespecified intervention was not answered. Should be null or have a value of \"NOT DONE\"."^^xsd:string ;
	bd:typedAs <http://www.assero.co.uk/CSN#d2f2bbeb-8f79-4fb1-b190-dd864d29f080> ;
	bd:classifiedAs <http://www.assero.co.uk/CSN#4bb7578c-6705-4d2e-93d6-b56960d9e21e> ;
	bd:isA <http://www.s-cubed.dk/CAR#bae7d5be70820ed56467bd9a63744e23b47bd711> ;
.
<http://www.cdisc.org/SDTM_MODEL_INTERVENTIONS/V7#CL_--CLAS>
	rdf:type bd:SdtmClassVariable ;
	isoC:label "Class"^^xsd:string ;
	bd:rule ""^^xsd:string ;
	bd:ordinal "12"^^xsd:positiveInteger ;
	bd:name "--CLAS"^^xsd:string ;
	bd:prefixed "true"^^xsd:boolean ;
	bd:description "Class for a medication or treatment, often obtained from a coding dictionary."^^xsd:string ;
	bd:typedAs <http://www.assero.co.uk/CSN#d2f2bbeb-8f79-4fb1-b190-dd864d29f080> ;
.
<http://www.cdisc.org/SDTM_MODEL_INTERVENTIONS/V7#CL_--CLASCD>
	rdf:type bd:SdtmClassVariable ;
	isoC:label "Class Code"^^xsd:string ;
	bd:rule ""^^xsd:string ;
	bd:ordinal "13"^^xsd:positiveInteger ;
	bd:name "--CLASCD"^^xsd:string ;
	bd:prefixed "true"^^xsd:boolean ;
	bd:description "Used to represent code for --CLAS."^^xsd:string ;
	bd:typedAs <http://www.assero.co.uk/CSN#d2f2bbeb-8f79-4fb1-b190-dd864d29f080> ;
.
<http://www.cdisc.org/SDTM_MODEL_INTERVENTIONS/V7#CL_--DOSU>
	rdf:type bd:SdtmClassVariable ;
	isoC:label "Dose Units"^^xsd:string ;
	bd:rule ""^^xsd:string ;
	bd:ordinal "16"^^xsd:positiveInteger ;
	bd:name "--DOSU"^^xsd:string ;
	bd:prefixed "true"^^xsd:boolean ;
	bd:description "Units for --DOSE, --DOSTOT, or --DOSTXT. Examples: \"ng\", \"mg\", \"mg/kg\"."^^xsd:string ;
	bd:typedAs <http://www.assero.co.uk/CSN#d2f2bbeb-8f79-4fb1-b190-dd864d29f080> ;
.
<http://www.cdisc.org/SDTM_MODEL_INTERVENTIONS/V7#CL_--TDOSD>
	rdf:type bd:SdtmClassVariable ;
	isoC:label "Toxic/Physiologic Dose Descr"^^xsd:string ;
	bd:rule ""^^xsd:string ;
	bd:ordinal "17"^^xsd:positiveInteger ;
	bd:name "--TDOSD"^^xsd:string ;
	bd:prefixed "true"^^xsd:boolean ;
	bd:description "A description of a statistically derived estimate of a dose with a certain toxicological or physiological effect in a population, based on data from a dose-response study. Examples: \"LD50\", \"ED90\"."^^xsd:string ;
	bd:typedAs <http://www.assero.co.uk/CSN#d2f2bbeb-8f79-4fb1-b190-dd864d29f080> ;
	bd:classifiedAs <http://www.assero.co.uk/CSN#4bb7578c-6705-4d2e-93d6-b56960d9e21e> ;
.
<http://www.cdisc.org/SDTM_MODEL_INTERVENTIONS/V7#CL_--FTDOSD>
	rdf:type bd:SdtmClassVariable ;
	isoC:label "Factor for Toxic/Physiologic Dose Descr"^^xsd:string ;
	bd:rule ""^^xsd:string ;
	bd:ordinal "18"^^xsd:positiveInteger ;
	bd:name "--FTDOSD"^^xsd:string ;
	bd:prefixed "true"^^xsd:boolean ;
	bd:description "The quantity given for the multiplier of --TDOSD. For example, if --TDOSD = \"LD50\" and --FTDOSD = \"5\", then the value represented by --DOSE and --DOSU is 5 times the LD50."^^xsd:string ;
	bd:typedAs <http://www.assero.co.uk/CSN#178f8dbe-c3ba-4dc0-8a2a-18081644b4c6> ;
.
<http://www.cdisc.org/SDTM_MODEL_INTERVENTIONS/V7#CL_--DOSFRM>
	rdf:type bd:SdtmClassVariable ;
	isoC:label "Dose Form"^^xsd:string ;
	bd:rule ""^^xsd:string ;
	bd:ordinal "19"^^xsd:positiveInteger ;
	bd:name "--DOSFRM"^^xsd:string ;
	bd:prefixed "true"^^xsd:boolean ;
	bd:description "Dose form for the treatment. Examples: \"TABLET\", \"CAPSULE\"."^^xsd:string ;
	bd:typedAs <http://www.assero.co.uk/CSN#d2f2bbeb-8f79-4fb1-b190-dd864d29f080> ;
.
<http://www.cdisc.org/SDTM_MODEL_INTERVENTIONS/V7#CL_--DOSFRQ>
	rdf:type bd:SdtmClassVariable ;
	isoC:label "Dosing Frequency per Interval"^^xsd:string ;
	bd:rule ""^^xsd:string ;
	bd:ordinal "20"^^xsd:positiveInteger ;
	bd:name "--DOSFRQ"^^xsd:string ;
	bd:prefixed "true"^^xsd:boolean ;
	bd:description "Usually expressed as the number of doses given per a specific interval. Examples: \"Q2H\", \"QD\", \"PRN\"."^^xsd:string ;
	bd:typedAs <http://www.assero.co.uk/CSN#d2f2bbeb-8f79-4fb1-b190-dd864d29f080> ;
.
<http://www.cdisc.org/SDTM_MODEL_INTERVENTIONS/V7#CL_--DOSTOT>
	rdf:type bd:SdtmClassVariable ;
	isoC:label "Total Daily Dose"^^xsd:string ;
	bd:rule ""^^xsd:string ;
	bd:ordinal "21"^^xsd:positiveInteger ;
	bd:name "--DOSTOT"^^xsd:string ;
	bd:prefixed "true"^^xsd:boolean ;
	bd:description "Total daily dose of --TRT using the units in --DOSU. Used when dosing is collected as Total Daily Dose."^^xsd:string ;
	bd:typedAs <http://www.assero.co.uk/CSN#178f8dbe-c3ba-4dc0-8a2a-18081644b4c6> ;
	bd:classifiedAs <http://www.assero.co.uk/CSN#4bb7578c-6705-4d2e-93d6-b56960d9e21e> ;
.
<http://www.cdisc.org/SDTM_MODEL_INTERVENTIONS/V7#CL_--DOSRGM>
	rdf:type bd:SdtmClassVariable ;
	isoC:label "Intended Dose Regimen"^^xsd:string ;
	bd:rule ""^^xsd:string ;
	bd:ordinal "22"^^xsd:positiveInteger ;
	bd:name "--DOSRGM"^^xsd:string ;
	bd:prefixed "true"^^xsd:boolean ;
	bd:description "Text description of the (intended) schedule or regimen for the Intervention. Example: \"TWO WEEKS ON, TWO WEEKS OFF\"."^^xsd:string ;
	bd:typedAs <http://www.assero.co.uk/CSN#d2f2bbeb-8f79-4fb1-b190-dd864d29f080> ;
.
<http://www.cdisc.org/SDTM_MODEL_INTERVENTIONS/V7#CL_--ROUTE>
	rdf:type bd:SdtmClassVariable ;
	isoC:label "Route of Administration"^^xsd:string ;
	bd:rule ""^^xsd:string ;
	bd:ordinal "23"^^xsd:positiveInteger ;
	bd:name "--ROUTE"^^xsd:string ;
	bd:prefixed "true"^^xsd:boolean ;
	bd:description "Route of administration for the intervention. Examples: \"ORAL\", \"INTRAVENOUS\"."^^xsd:string ;
	bd:typedAs <http://www.assero.co.uk/CSN#d2f2bbeb-8f79-4fb1-b190-dd864d29f080> ;
.
<http://www.cdisc.org/SDTM_MODEL_INTERVENTIONS/V7#CL_--LOT>
	rdf:type bd:SdtmClassVariable ;
	isoC:label "Lot Number"^^xsd:string ;
	bd:rule ""^^xsd:string ;
	bd:ordinal "24"^^xsd:positiveInteger ;
	bd:name "--LOT"^^xsd:string ;
	bd:prefixed "true"^^xsd:boolean ;
	bd:description "Lot number for the intervention described in --TRT."^^xsd:string ;
	bd:typedAs <http://www.assero.co.uk/CSN#d2f2bbeb-8f79-4fb1-b190-dd864d29f080> ;
	bd:classifiedAs <http://www.assero.co.uk/CSN#4bb7578c-6705-4d2e-93d6-b56960d9e21e> ;
.
<http://www.cdisc.org/SDTM_MODEL_INTERVENTIONS/V7#CL_--LOC>
	rdf:type bd:SdtmClassVariable ;
	isoC:label "Location of Dose Administration"^^xsd:string ;
	bd:rule ""^^xsd:string ;
	bd:ordinal "25"^^xsd:positiveInteger ;
	bd:name "--LOC"^^xsd:string ;
	bd:prefixed "true"^^xsd:boolean ;
	bd:description "Anatomical location of an intervention, such as an injection site. Example: \"ARM\" for an injection."^^xsd:string ;
	bd:typedAs <http://www.assero.co.uk/CSN#d2f2bbeb-8f79-4fb1-b190-dd864d29f080> ;
	bd:classifiedAs <http://www.assero.co.uk/CSN#4bb7578c-6705-4d2e-93d6-b56960d9e21e> ;
	bd:isA <http://www.s-cubed.dk/CAR#d219c68101f532de10add2cf42fb9dbeca73d3be> ;
.
<http://www.cdisc.org/SDTM_MODEL_INTERVENTIONS/V7#CL_--LAT>
	rdf:type bd:SdtmClassVariable ;
	isoC:label "Laterality"^^xsd:string ;
	bd:rule ""^^xsd:string ;
	bd:ordinal "26"^^xsd:positiveInteger ;
	bd:name "--LAT"^^xsd:string ;
	bd:prefixed "true"^^xsd:boolean ;
	bd:description "Qualifier for anatomical location further detailing laterality of intervention administration. Examples: \"RIGHT\", \"LEFT\", \"BILATERAL\"."^^xsd:string ;
	bd:typedAs <http://www.assero.co.uk/CSN#d2f2bbeb-8f79-4fb1-b190-dd864d29f080> ;
	bd:isA <http://www.s-cubed.dk/CAR#ef3aa1b3b12817712a7c3e62022cbe06bd6c3f08> ;
.
<http://www.cdisc.org/SDTM_MODEL_INTERVENTIONS/V7#CL_--DIR>
	rdf:type bd:SdtmClassVariable ;
	isoC:label "Directionality"^^xsd:string ;
	bd:rule ""^^xsd:string ;
	bd:ordinal "27"^^xsd:positiveInteger ;
	bd:name "--DIR"^^xsd:string ;
	bd:prefixed "true"^^xsd:boolean ;
	bd:description "Qualifier for anatomical location further detailing directionality of intervention administration. Examples: \"ANTERIOR\", \"LOWER\", \"PROXIMAL\"."^^xsd:string ;
	bd:typedAs <http://www.assero.co.uk/CSN#d2f2bbeb-8f79-4fb1-b190-dd864d29f080> ;
	bd:isA <http://www.s-cubed.dk/CAR#b8480e9c78891769429c713a44f238f2ca3c3abb> ;
.
<http://www.cdisc.org/SDTM_MODEL_INTERVENTIONS/V7#CL_--PORTOT>
	rdf:type bd:SdtmClassVariable ;
	isoC:label "Portion or Totality"^^xsd:string ;
	bd:rule ""^^xsd:string ;
	bd:ordinal "28"^^xsd:positiveInteger ;
	bd:name "--PORTOT"^^xsd:string ;
	bd:prefixed "true"^^xsd:boolean ;
	bd:description "Qualifier for anatomical location further detailing the distribution, which means arrangement of, apportioning of the intervention administration. Examples: \"ENTIRE\", \"SINGLE\", \"SEGMENT\", \"MANY\"."^^xsd:string ;
	bd:typedAs <http://www.assero.co.uk/CSN#d2f2bbeb-8f79-4fb1-b190-dd864d29f080> ;
.
<http://www.cdisc.org/SDTM_MODEL_INTERVENTIONS/V7#CL_--FAST>
	rdf:type bd:SdtmClassVariable ;
	isoC:label "Fasting Status"^^xsd:string ;
	bd:rule ""^^xsd:string ;
	bd:ordinal "29"^^xsd:positiveInteger ;
	bd:name "--FAST"^^xsd:string ;
	bd:prefixed "true"^^xsd:boolean ;
	bd:description "Indicator used to identify fasting status. Valid values include \"Y\", \"N\", \"U\", or null if not relevant."^^xsd:string ;
	bd:typedAs <http://www.assero.co.uk/CSN#d2f2bbeb-8f79-4fb1-b190-dd864d29f080> ;
	bd:classifiedAs <http://www.assero.co.uk/CSN#4bb7578c-6705-4d2e-93d6-b56960d9e21e> ;
.
<http://www.cdisc.org/SDTM_MODEL_INTERVENTIONS/V7#CL_--PSTRG>
	rdf:type bd:SdtmClassVariable ;
	isoC:label "Pharmaceutical Strength"^^xsd:string ;
	bd:rule ""^^xsd:string ;
	bd:ordinal "30"^^xsd:positiveInteger ;
	bd:name "--PSTRG"^^xsd:string ;
	bd:prefixed "true"^^xsd:boolean ;
	bd:description "Amount of an active ingredient expressed quantitatively per dosage unit, per unit of volume, or per unit of weight, according to the pharmaceutical dose form. Examples: \"50 mg/TABLET\", \"300 mg/L\"."^^xsd:string ;
	bd:typedAs <http://www.assero.co.uk/CSN#178f8dbe-c3ba-4dc0-8a2a-18081644b4c6> ;
	bd:classifiedAs <http://www.assero.co.uk/CSN#4bb7578c-6705-4d2e-93d6-b56960d9e21e> ;
.
<http://www.cdisc.org/SDTM_MODEL_INTERVENTIONS/V7#CL_--PSTRGU>
	rdf:type bd:SdtmClassVariable ;
	isoC:label "Pharmaceutical Strength Units"^^xsd:string ;
	bd:rule ""^^xsd:string ;
	bd:ordinal "31"^^xsd:positiveInteger ;
	bd:name "--PSTRGU"^^xsd:string ;
	bd:prefixed "true"^^xsd:boolean ;
	bd:description "Unit for --PSTRG. Examples: \"mg/TABLET\", \"mg/mL\"."^^xsd:string ;
	bd:typedAs <http://www.assero.co.uk/CSN#d2f2bbeb-8f79-4fb1-b190-dd864d29f080> ;
.
<http://www.cdisc.org/SDTM_MODEL_INTERVENTIONS/V7#CL_--TRTV>
	rdf:type bd:SdtmClassVariable ;
	isoC:label "Treatment Vehicle"^^xsd:string ;
	bd:rule ""^^xsd:string ;
	bd:ordinal "32"^^xsd:positiveInteger ;
	bd:name "--TRTV"^^xsd:string ;
	bd:prefixed "true"^^xsd:boolean ;
	bd:description "Vehicle for administration of treatment, such as a liquid in which the treatment drug is dissolved. Example: \"SALINE\"."^^xsd:string ;
	bd:typedAs <http://www.assero.co.uk/CSN#d2f2bbeb-8f79-4fb1-b190-dd864d29f080> ;
	bd:classifiedAs <http://www.assero.co.uk/CSN#4bb7578c-6705-4d2e-93d6-b56960d9e21e> ;
.
<http://www.cdisc.org/SDTM_MODEL_INTERVENTIONS/V7#CL_--VAMT>
	rdf:type bd:SdtmClassVariable ;
	isoC:label "Treatment Vehicle Amount"^^xsd:string ;
	bd:rule ""^^xsd:string ;
	bd:ordinal "33"^^xsd:positiveInteger ;
	bd:name "--VAMT"^^xsd:string ;
	bd:prefixed "true"^^xsd:boolean ;
	bd:description "Amount of the prepared product (treatment + vehicle) administered or given. Note: should not be diluent amount alone."^^xsd:string ;
	bd:typedAs <http://www.assero.co.uk/CSN#178f8dbe-c3ba-4dc0-8a2a-18081644b4c6> ;
	bd:classifiedAs <http://www.assero.co.uk/CSN#4bb7578c-6705-4d2e-93d6-b56960d9e21e> ;
.
<http://www.cdisc.org/SDTM_MODEL_INTERVENTIONS/V7#CL_--VAMTU>
	rdf:type bd:SdtmClassVariable ;
	isoC:label "Treatment Vehicle Amount Units"^^xsd:string ;
	bd:rule ""^^xsd:string ;
	bd:ordinal "34"^^xsd:positiveInteger ;
	bd:name "--VAMTU"^^xsd:string ;
	bd:prefixed "true"^^xsd:boolean ;
	bd:description "Units for the prepared product (treatment + vehicle). Examples: \"mL\", \"mg\"."^^xsd:string ;
	bd:typedAs <http://www.assero.co.uk/CSN#d2f2bbeb-8f79-4fb1-b190-dd864d29f080> ;
.
<http://www.cdisc.org/SDTM_MODEL_INTERVENTIONS/V7#CL_--ADJ>
	rdf:type bd:SdtmClassVariable ;
	isoC:label "Reason for Dose Adjustment"^^xsd:string ;
	bd:rule ""^^xsd:string ;
	bd:ordinal "35"^^xsd:positiveInteger ;
	bd:name "--ADJ"^^xsd:string ;
	bd:prefixed "true"^^xsd:boolean ;
	bd:description "Describes reason for or explanation of why a dose is adjusted. Examples \"ADVERSE EVENT\", \"INSUFFICIENT RESPONSE\", \"NON-MEDICAL REASON\"."^^xsd:string ;
	bd:typedAs <http://www.assero.co.uk/CSN#d2f2bbeb-8f79-4fb1-b190-dd864d29f080> ;
	bd:classifiedAs <http://www.assero.co.uk/CSN#4bb7578c-6705-4d2e-93d6-b56960d9e21e> ;
.
<http://www.cdisc.org/SDTM_MODEL_INTERVENTIONS/V7#CL_--RSDISC>
	rdf:type bd:SdtmClassVariable ;
	isoC:label "Reason for Treatment Discontinuation"^^xsd:string ;
	bd:rule ""^^xsd:string ;
	bd:ordinal "36"^^xsd:positiveInteger ;
	bd:name "--RSDISC"^^xsd:string ;
	bd:prefixed "true"^^xsd:boolean ;
	bd:description "Reason why the treatment was discontinued."^^xsd:string ;
	bd:typedAs <http://www.assero.co.uk/CSN#d2f2bbeb-8f79-4fb1-b190-dd864d29f080> ;
	bd:classifiedAs <http://www.assero.co.uk/CSN#4bb7578c-6705-4d2e-93d6-b56960d9e21e> ;
.
<http://www.cdisc.org/SDTM_MODEL_INTERVENTIONS/V7#CL_--USCHFL>
	rdf:type bd:SdtmClassVariable ;
	isoC:label "Unscheduled Flag"^^xsd:string ;
	bd:rule ""^^xsd:string ;
	bd:ordinal "37"^^xsd:positiveInteger ;
	bd:name "--USCHFL"^^xsd:string ;
	bd:prefixed "true"^^xsd:boolean ;
	bd:description "Indicates whether the timing of a performed test or observation was unscheduled. If a test or observation was performed based upon a schedule defined in the protocol, this flag should be null. Expected values are \"Y\" or null. Not to be used with human clinical trials. This variable would not be needed when information on planned assessments is provided, such as when the Trial Visits (TV) and Subject Visits (SV) domains are used."^^xsd:string ;
	bd:typedAs <http://www.assero.co.uk/CSN#d2f2bbeb-8f79-4fb1-b190-dd864d29f080> ;
	bd:classifiedAs <http://www.assero.co.uk/CSN#4bb7578c-6705-4d2e-93d6-b56960d9e21e> ;
.
<http://www.cdisc.org/SDTM_MODEL_INTERVENTIONS/V7#CL_--RSTIND>
	rdf:type bd:SdtmClassVariable ;
	isoC:label "Restraint Indicator"^^xsd:string ;
	bd:rule ""^^xsd:string ;
	bd:ordinal "38"^^xsd:positiveInteger ;
	bd:name "--RSTIND"^^xsd:string ;
	bd:prefixed "true"^^xsd:boolean ;
	bd:description "An indicator as to whether the animal subject was restrained during the intervention period. Expected values are \"Y\" or null. Not to be used with human clinical trials."^^xsd:string ;
	bd:typedAs <http://www.assero.co.uk/CSN#d2f2bbeb-8f79-4fb1-b190-dd864d29f080> ;
	bd:classifiedAs <http://www.assero.co.uk/CSN#4bb7578c-6705-4d2e-93d6-b56960d9e21e> ;
.
<http://www.cdisc.org/SDTM_MODEL_INTERVENTIONS/V7#CL_--RSTMOD>
	rdf:type bd:SdtmClassVariable ;
	isoC:label "Restraint Mode"^^xsd:string ;
	bd:rule ""^^xsd:string ;
	bd:ordinal "39"^^xsd:positiveInteger ;
	bd:name "--RSTMOD"^^xsd:string ;
	bd:prefixed "true"^^xsd:boolean ;
	bd:description "A description of whether the restraint was physical and/or chemical. Not to be used with human clinical trials."^^xsd:string ;
	bd:typedAs <http://www.assero.co.uk/CSN#d2f2bbeb-8f79-4fb1-b190-dd864d29f080> ;
	bd:classifiedAs <http://www.assero.co.uk/CSN#4bb7578c-6705-4d2e-93d6-b56960d9e21e> ;
.
<http://www.cdisc.org/SDTM_MODEL_EVENTS/V7#CL>
	rdf:type bd:SdtmClass ;
	isoC:label "SDTM MODEL EVENTS"^^xsd:string ;
	isoT:hasState <http://www.cdisc.org/SDTM_MODEL_EVENTS/V7#CL_RS> ;
	isoT:hasIdentifier <http://www.cdisc.org/SDTM_MODEL_EVENTS/V7#CL_SI> ;
	isoT:hasPreviousVersion <http://www.cdisc.org/SDTM_MODEL_EVENTS/V6#CL> ;
	isoT:origin ""^^xsd:string ;
	isoT:changeDescription ""^^xsd:string ;
	isoT:creationDate "2019-09-17T00:00:00+00:00"^^xsd:dateTime ;
	isoT:lastChangeDate "2019-09-17T00:00:00+00:00"^^xsd:dateTime ;
	isoT:explanatoryComment ""^^xsd:string ;
	bd:rule ""^^xsd:string ;
	bd:ordinal "1"^^xsd:positiveInteger ;
	bd:includesColumn <http://www.cdisc.org/SDTM_MODEL_ALL/V1#CL_STUDYID> ;
	bd:includesColumn <http://www.cdisc.org/SDTM_MODEL_ALL/V6#CL_DOMAIN> ;
	bd:includesColumn <http://www.cdisc.org/SDTM_MODEL_ALL/V1#CL_USUBJID> ;
	bd:includesColumn <http://www.cdisc.org/SDTM_MODEL_ALL/V7#CL_APID> ;
	bd:includesColumn <http://www.cdisc.org/SDTM_MODEL_ALL/V4#CL_POOLID> ;
	bd:includesColumn <http://www.cdisc.org/SDTM_MODEL_ALL/V4#CL_SPDEVID> ;
	bd:includesColumn <http://www.cdisc.org/SDTM_MODEL_ALL/V5#CL_NHOID> ;
	bd:includesColumn <http://www.cdisc.org/SDTM_MODEL_ALL/V5#CL_FETUSID> ;
	bd:includesColumn <http://www.cdisc.org/SDTM_MODEL_ALL/V7#CL_FOCID> ;
	bd:includesColumn <http://www.cdisc.org/SDTM_MODEL_ALL/V5#CL_--SEQ> ;
	bd:includesColumn <http://www.cdisc.org/SDTM_MODEL_ALL/V6#CL_--GRPID> ;
	bd:includesColumn <http://www.cdisc.org/SDTM_MODEL_ALL/V5#CL_--REFID> ;
	bd:includesColumn <http://www.cdisc.org/SDTM_MODEL_ALL/V5#CL_--RECID> ;
	bd:includesColumn <http://www.cdisc.org/SDTM_MODEL_ALL/V7#CL_--SPID> ;
	bd:includesColumn <http://www.cdisc.org/SDTM_MODEL_ALL/V6#CL_--LNKID> ;
	bd:includesColumn <http://www.cdisc.org/SDTM_MODEL_ALL/V6#CL_--LNKGRP> ;
	bd:includesColumn <http://www.cdisc.org/SDTM_MODEL_ALL/V5#CL_VISITNUM> ;
	bd:includesColumn <http://www.cdisc.org/SDTM_MODEL_ALL/V5#CL_VISIT> ;
	bd:includesColumn <http://www.cdisc.org/SDTM_MODEL_ALL/V5#CL_VISITDY> ;
	bd:includesColumn <http://www.cdisc.org/SDTM_MODEL_ALL/V6#CL_TAETORD> ;
	bd:includesColumn <http://www.cdisc.org/SDTM_MODEL_ALL/V6#CL_EPOCH> ;
	bd:includesColumn <http://www.cdisc.org/SDTM_MODEL_ALL/V5#CL_RPHASE> ;
	bd:includesColumn <http://www.cdisc.org/SDTM_MODEL_ALL/V5#CL_RPPLDY> ;
	bd:includesColumn <http://www.cdisc.org/SDTM_MODEL_ALL/V5#CL_RPPLSTDY> ;
	bd:includesColumn <http://www.cdisc.org/SDTM_MODEL_ALL/V5#CL_RPPLENDY> ;
	bd:includesColumn <http://www.cdisc.org/SDTM_MODEL_ALL/V5#CL_--DTC> ;
	bd:includesColumn <http://www.cdisc.org/SDTM_MODEL_ALL/V5#CL_--STDTC> ;
	bd:includesColumn <http://www.cdisc.org/SDTM_MODEL_ALL/V5#CL_--ENDTC> ;
	bd:includesColumn <http://www.cdisc.org/SDTM_MODEL_ALL/V5#CL_--DY> ;
	bd:includesColumn <http://www.cdisc.org/SDTM_MODEL_ALL/V5#CL_--STDY> ;
	bd:includesColumn <http://www.cdisc.org/SDTM_MODEL_ALL/V5#CL_--ENDY> ;
	bd:includesColumn <http://www.cdisc.org/SDTM_MODEL_ALL/V6#CL_--NOMDY> ;
	bd:includesColumn <http://www.cdisc.org/SDTM_MODEL_ALL/V5#CL_--NOMLBL> ;
	bd:includesColumn <http://www.cdisc.org/SDTM_MODEL_ALL/V5#CL_--RPDY> ;
	bd:includesColumn <http://www.cdisc.org/SDTM_MODEL_ALL/V5#CL_--RPSTDY> ;
	bd:includesColumn <http://www.cdisc.org/SDTM_MODEL_ALL/V5#CL_--RPENDY> ;
	bd:includesColumn <http://www.cdisc.org/SDTM_MODEL_ALL/V7#CL_--XDY> ;
	bd:includesColumn <http://www.cdisc.org/SDTM_MODEL_ALL/V7#CL_--XSTDY> ;
	bd:includesColumn <http://www.cdisc.org/SDTM_MODEL_ALL/V7#CL_--XENDY> ;
	bd:includesColumn <http://www.cdisc.org/SDTM_MODEL_ALL/V7#CL_--CHDY> ;
	bd:includesColumn <http://www.cdisc.org/SDTM_MODEL_ALL/V7#CL_--CHSTDY> ;
	bd:includesColumn <http://www.cdisc.org/SDTM_MODEL_ALL/V7#CL_--CHENDY> ;
	bd:includesColumn <http://www.cdisc.org/SDTM_MODEL_ALL/V7#CL_--DUR> ;
	bd:includesColumn <http://www.cdisc.org/SDTM_MODEL_ALL/V7#CL_--TPT> ;
	bd:includesColumn <http://www.cdisc.org/SDTM_MODEL_ALL/V7#CL_--TPTNUM> ;
	bd:includesColumn <http://www.cdisc.org/SDTM_MODEL_ALL/V7#CL_--ELTM> ;
	bd:includesColumn <http://www.cdisc.org/SDTM_MODEL_ALL/V7#CL_--TPTREF> ;
	bd:includesColumn <http://www.cdisc.org/SDTM_MODEL_ALL/V7#CL_--RFTDTC> ;
	bd:includesColumn <http://www.cdisc.org/SDTM_MODEL_ALL/V7#CL_--STRF> ;
	bd:includesColumn <http://www.cdisc.org/SDTM_MODEL_ALL/V7#CL_--ENRF> ;
	bd:includesColumn <http://www.cdisc.org/SDTM_MODEL_ALL/V7#CL_--EVLINT> ;
	bd:includesColumn <http://www.cdisc.org/SDTM_MODEL_ALL/V7#CL_--EVINTX> ;
	bd:includesColumn <http://www.cdisc.org/SDTM_MODEL_ALL/V7#CL_--STRTPT> ;
	bd:includesColumn <http://www.cdisc.org/SDTM_MODEL_ALL/V7#CL_--STTPT> ;
	bd:includesColumn <http://www.cdisc.org/SDTM_MODEL_ALL/V7#CL_--ENRTPT> ;
	bd:includesColumn <http://www.cdisc.org/SDTM_MODEL_ALL/V7#CL_--ENTPT> ;
	bd:includesColumn <http://www.cdisc.org/SDTM_MODEL_ALL/V7#CL_MIDS> ;
	bd:includesColumn <http://www.cdisc.org/SDTM_MODEL_ALL/V7#CL_RELMIDS> ;
	bd:includesColumn <http://www.cdisc.org/SDTM_MODEL_ALL/V7#CL_MIDSDTC> ;
	bd:includesColumn <http://www.cdisc.org/SDTM_MODEL_ALL/V7#CL_--STINT> ;
	bd:includesColumn <http://www.cdisc.org/SDTM_MODEL_ALL/V7#CL_--ENINT> ;
	bd:includesColumn <http://www.cdisc.org/SDTM_MODEL_ALL/V7#CL_--DETECT> ;
	bd:includesColumn <http://www.cdisc.org/SDTM_MODEL_EVENTS/V7#CL_--TERM> ;
	bd:includesColumn <http://www.cdisc.org/SDTM_MODEL_EVENTS/V7#CL_--MODIFY> ;
	bd:includesColumn <http://www.cdisc.org/SDTM_MODEL_EVENTS/V7#CL_--LLT> ;
	bd:includesColumn <http://www.cdisc.org/SDTM_MODEL_EVENTS/V7#CL_--LLTCD> ;
	bd:includesColumn <http://www.cdisc.org/SDTM_MODEL_EVENTS/V7#CL_--DECOD> ;
	bd:includesColumn <http://www.cdisc.org/SDTM_MODEL_EVENTS/V7#CL_--PTCD> ;
	bd:includesColumn <http://www.cdisc.org/SDTM_MODEL_EVENTS/V7#CL_--HLT> ;
	bd:includesColumn <http://www.cdisc.org/SDTM_MODEL_EVENTS/V7#CL_--HLTCD> ;
	bd:includesColumn <http://www.cdisc.org/SDTM_MODEL_EVENTS/V7#CL_--HLGT> ;
	bd:includesColumn <http://www.cdisc.org/SDTM_MODEL_EVENTS/V7#CL_--HLGTCD> ;
	bd:includesColumn <http://www.cdisc.org/SDTM_MODEL_EVENTS/V2#CL_--CAT> ;
	bd:includesColumn <http://www.cdisc.org/SDTM_MODEL_EVENTS/V2#CL_--SCAT> ;
	bd:includesColumn <http://www.cdisc.org/SDTM_MODEL_EVENTS/V7#CL_--PRESP> ;
	bd:includesColumn <http://www.cdisc.org/SDTM_MODEL_EVENTS/V7#CL_--OCCUR> ;
	bd:includesColumn <http://www.cdisc.org/SDTM_MODEL_EVENTS/V7#CL_--STAT> ;
	bd:includesColumn <http://www.cdisc.org/SDTM_MODEL_EVENTS/V6#CL_--REASND> ;
	bd:includesColumn <http://www.cdisc.org/SDTM_MODEL_EVENTS/V6#CL_--BODSYS> ;
	bd:includesColumn <http://www.cdisc.org/SDTM_MODEL_EVENTS/V7#CL_--BDSYCD> ;
	bd:includesColumn <http://www.cdisc.org/SDTM_MODEL_EVENTS/V7#CL_--SOC> ;
	bd:includesColumn <http://www.cdisc.org/SDTM_MODEL_EVENTS/V7#CL_--SOCCD> ;
	bd:includesColumn <http://www.cdisc.org/SDTM_MODEL_EVENTS/V6#CL_--LOC> ;
	bd:includesColumn <http://www.cdisc.org/SDTM_MODEL_EVENTS/V7#CL_--LAT> ;
	bd:includesColumn <http://www.cdisc.org/SDTM_MODEL_EVENTS/V7#CL_--DIR> ;
	bd:includesColumn <http://www.cdisc.org/SDTM_MODEL_EVENTS/V7#CL_--PORTOT> ;
	bd:includesColumn <http://www.cdisc.org/SDTM_MODEL_EVENTS/V6#CL_--PARTY> ;
	bd:includesColumn <http://www.cdisc.org/SDTM_MODEL_EVENTS/V6#CL_--PRTYID> ;
	bd:includesColumn <http://www.cdisc.org/SDTM_MODEL_EVENTS/V6#CL_--SEV> ;
	bd:includesColumn <http://www.cdisc.org/SDTM_MODEL_EVENTS/V3#CL_--SER> ;
	bd:includesColumn <http://www.cdisc.org/SDTM_MODEL_EVENTS/V6#CL_--ACN> ;
	bd:includesColumn <http://www.cdisc.org/SDTM_MODEL_EVENTS/V3#CL_--ACNOTH> ;
	bd:includesColumn <http://www.cdisc.org/SDTM_MODEL_EVENTS/V6#CL_--ACNDEV> ;
	bd:includesColumn <http://www.cdisc.org/SDTM_MODEL_EVENTS/V6#CL_--REL> ;
	bd:includesColumn <http://www.cdisc.org/SDTM_MODEL_EVENTS/V6#CL_--RELNST> ;
	bd:includesColumn <http://www.cdisc.org/SDTM_MODEL_EVENTS/V6#CL_--PATT> ;
	bd:includesColumn <http://www.cdisc.org/SDTM_MODEL_EVENTS/V6#CL_--OUT> ;
	bd:includesColumn <http://www.cdisc.org/SDTM_MODEL_EVENTS/V6#CL_--SCAN> ;
	bd:includesColumn <http://www.cdisc.org/SDTM_MODEL_EVENTS/V6#CL_--SCONG> ;
	bd:includesColumn <http://www.cdisc.org/SDTM_MODEL_EVENTS/V6#CL_--SDISAB> ;
	bd:includesColumn <http://www.cdisc.org/SDTM_MODEL_EVENTS/V6#CL_--SDTH> ;
	bd:includesColumn <http://www.cdisc.org/SDTM_MODEL_EVENTS/V6#CL_--SHOSP> ;
	bd:includesColumn <http://www.cdisc.org/SDTM_MODEL_EVENTS/V6#CL_--SLIFE> ;
	bd:includesColumn <http://www.cdisc.org/SDTM_MODEL_EVENTS/V6#CL_--SOD> ;
	bd:includesColumn <http://www.cdisc.org/SDTM_MODEL_EVENTS/V6#CL_--SMIE> ;
	bd:includesColumn <http://www.cdisc.org/SDTM_MODEL_EVENTS/V6#CL_--CONTRT> ;
	bd:includesColumn <http://www.cdisc.org/SDTM_MODEL_EVENTS/V7#CL_--TOX> ;
	bd:includesColumn <http://www.cdisc.org/SDTM_MODEL_EVENTS/V7#CL_--TOXGR> ;
	bd:includesColumn <http://www.cdisc.org/SDTM_MODEL_EVENTS/V7#CL_--USCHFL> ;
.
<http://www.cdisc.org/SDTM_MODEL_EVENTS/V7#CL_RS>
	rdf:type isoR:RegistrationState ;
	isoR:registrationStatus "Standard"^^xsd:string ;
	isoR:administrativeNote ""^^xsd:string ;
	isoR:effectiveDate "2016-01-01T00:00:00+00:00"^^xsd:dateTime ;
	isoR:untilDate "2016-01-01T00:00:00+00:00"^^xsd:dateTime ;
	isoR:unresolvedIssue ""^^xsd:string ;
	isoR:administrativeStatus ""^^xsd:string ;
	isoR:previousState "Standard"^^xsd:string ;
	isoR:multipleEdit "false"^^xsd:boolean ;
	isoR:byAuthority <http://www.assero.co.uk/RA#DUNS084433759> ;
.
<http://www.cdisc.org/SDTM_MODEL_EVENTS/V7#CL_SI>
	rdf:type isoI:ScopedIdentifier ;
	isoI:identifier "SDTM MODEL EVENTS"^^xsd:string ;
	isoI:versionLabel "2019-09-17 Release"^^xsd:string ;
	isoI:version "7"^^xsd:positiveInteger ;
	isoI:semanticVersion "7.0.0"^^xsd:string ;
	isoI:hasScope <http://www.assero.co.uk/NS#CDISC> ;
.
<http://www.cdisc.org/SDTM_MODEL_EVENTS/V7#CL_--TERM>
	rdf:type bd:SdtmClassVariable ;
	isoC:label "Reported Term"^^xsd:string ;
	bd:rule ""^^xsd:string ;
	bd:ordinal "1"^^xsd:positiveInteger ;
	bd:name "--TERM"^^xsd:string ;
	bd:prefixed "true"^^xsd:boolean ;
	bd:description "Topic variable for an event observation, which is the verbatim or prespecified name of the event."^^xsd:string ;
	bd:typedAs <http://www.assero.co.uk/CSN#d2f2bbeb-8f79-4fb1-b190-dd864d29f080> ;
	bd:classifiedAs <http://www.assero.co.uk/CSN#692cafbf-658a-43f0-97a2-f040ecb1a20d> ;
	bd:isA <http://www.s-cubed.dk/CAR#2a4eb8036d87ab68656ba5b80bbf77123f088904> ;
.
<http://www.cdisc.org/SDTM_MODEL_EVENTS/V7#CL_--MODIFY>
	rdf:type bd:SdtmClassVariable ;
	isoC:label "Modified Reported Term"^^xsd:string ;
	bd:rule ""^^xsd:string ;
	bd:ordinal "2"^^xsd:positiveInteger ;
	bd:name "--MODIFY"^^xsd:string ;
	bd:prefixed "true"^^xsd:boolean ;
	bd:description "If the value for --TERM is modified for coding purposes, then the modified text is placed here."^^xsd:string ;
	bd:typedAs <http://www.assero.co.uk/CSN#d2f2bbeb-8f79-4fb1-b190-dd864d29f080> ;
	bd:classifiedAs <http://www.assero.co.uk/CSN#818a9757-1ee5-4bd3-a179-e662e26b5b47> ;
.
<http://www.cdisc.org/SDTM_MODEL_EVENTS/V7#CL_--LLT>
	rdf:type bd:SdtmClassVariable ;
	isoC:label "Lowest Level Term"^^xsd:string ;
	bd:rule ""^^xsd:string ;
	bd:ordinal "3"^^xsd:positiveInteger ;
	bd:name "--LLT"^^xsd:string ;
	bd:prefixed "true"^^xsd:boolean ;
	bd:description "MedDRA Lowest Level Term."^^xsd:string ;
	bd:typedAs <http://www.assero.co.uk/CSN#d2f2bbeb-8f79-4fb1-b190-dd864d29f080> ;
.
<http://www.cdisc.org/SDTM_MODEL_EVENTS/V7#CL_--LLTCD>
	rdf:type bd:SdtmClassVariable ;
	isoC:label "Lowest Level Term Code"^^xsd:string ;
	bd:rule ""^^xsd:string ;
	bd:ordinal "4"^^xsd:positiveInteger ;
	bd:name "--LLTCD"^^xsd:string ;
	bd:prefixed "true"^^xsd:boolean ;
	bd:description "MedDRA Lowest Level Term code."^^xsd:string ;
	bd:typedAs <http://www.assero.co.uk/CSN#178f8dbe-c3ba-4dc0-8a2a-18081644b4c6> ;
.
<http://www.cdisc.org/SDTM_MODEL_EVENTS/V7#CL_--DECOD>
	rdf:type bd:SdtmClassVariable ;
	isoC:label "Dictionary-Derived Term"^^xsd:string ;
	bd:rule ""^^xsd:string ;
	bd:ordinal "5"^^xsd:positiveInteger ;
	bd:name "--DECOD"^^xsd:string ;
	bd:prefixed "true"^^xsd:boolean ;
	bd:description "Dictionary or sponsor-defined derived text description of the topic variable, --TERM, or the modified topic variable (--MODIFY), if applicable. Equivalent to the Preferred Term (PT in MedDRA)."^^xsd:string ;
	bd:typedAs <http://www.assero.co.uk/CSN#d2f2bbeb-8f79-4fb1-b190-dd864d29f080> ;
	bd:classifiedAs <http://www.assero.co.uk/CSN#818a9757-1ee5-4bd3-a179-e662e26b5b47> ;
.
<http://www.cdisc.org/SDTM_MODEL_EVENTS/V7#CL_--PTCD>
	rdf:type bd:SdtmClassVariable ;
	isoC:label "Preferred Term Code"^^xsd:string ;
	bd:rule ""^^xsd:string ;
	bd:ordinal "6"^^xsd:positiveInteger ;
	bd:name "--PTCD"^^xsd:string ;
	bd:prefixed "true"^^xsd:boolean ;
	bd:description "MedDRA Preferred Term code."^^xsd:string ;
	bd:typedAs <http://www.assero.co.uk/CSN#178f8dbe-c3ba-4dc0-8a2a-18081644b4c6> ;
.
<http://www.cdisc.org/SDTM_MODEL_EVENTS/V7#CL_--HLT>
	rdf:type bd:SdtmClassVariable ;
	isoC:label "High Level Term"^^xsd:string ;
	bd:rule ""^^xsd:string ;
	bd:ordinal "7"^^xsd:positiveInteger ;
	bd:name "--HLT"^^xsd:string ;
	bd:prefixed "true"^^xsd:boolean ;
	bd:description "MedDRA High Level Term from the primary path."^^xsd:string ;
	bd:typedAs <http://www.assero.co.uk/CSN#d2f2bbeb-8f79-4fb1-b190-dd864d29f080> ;
.
<http://www.cdisc.org/SDTM_MODEL_EVENTS/V7#CL_--HLTCD>
	rdf:type bd:SdtmClassVariable ;
	isoC:label "High Level Term Code"^^xsd:string ;
	bd:rule ""^^xsd:string ;
	bd:ordinal "8"^^xsd:positiveInteger ;
	bd:name "--HLTCD"^^xsd:string ;
	bd:prefixed "true"^^xsd:boolean ;
	bd:description "MedDRA High Level Term code from the primary path."^^xsd:string ;
	bd:typedAs <http://www.assero.co.uk/CSN#178f8dbe-c3ba-4dc0-8a2a-18081644b4c6> ;
.
<http://www.cdisc.org/SDTM_MODEL_EVENTS/V7#CL_--HLGT>
	rdf:type bd:SdtmClassVariable ;
	isoC:label "High Level Group Term"^^xsd:string ;
	bd:rule ""^^xsd:string ;
	bd:ordinal "9"^^xsd:positiveInteger ;
	bd:name "--HLGT"^^xsd:string ;
	bd:prefixed "true"^^xsd:boolean ;
	bd:description "MedDRA High Level Group Term from the primary path."^^xsd:string ;
	bd:typedAs <http://www.assero.co.uk/CSN#d2f2bbeb-8f79-4fb1-b190-dd864d29f080> ;
.
<http://www.cdisc.org/SDTM_MODEL_EVENTS/V7#CL_--HLGTCD>
	rdf:type bd:SdtmClassVariable ;
	isoC:label "High Level Group Term Code"^^xsd:string ;
	bd:rule ""^^xsd:string ;
	bd:ordinal "10"^^xsd:positiveInteger ;
	bd:name "--HLGTCD"^^xsd:string ;
	bd:prefixed "true"^^xsd:boolean ;
	bd:description "MedDRA High Level Group Term code from the primary path."^^xsd:string ;
	bd:typedAs <http://www.assero.co.uk/CSN#178f8dbe-c3ba-4dc0-8a2a-18081644b4c6> ;
.
<http://www.cdisc.org/SDTM_MODEL_EVENTS/V7#CL_--PRESP>
	rdf:type bd:SdtmClassVariable ;
	isoC:label "Pre-Specified"^^xsd:string ;
	bd:rule ""^^xsd:string ;
	bd:ordinal "13"^^xsd:positiveInteger ;
	bd:name "--PRESP"^^xsd:string ;
	bd:prefixed "true"^^xsd:boolean ;
	bd:description "Used to indicate whether the event described by --TERM was pre-specified on a CRF. Value is Y for pre-specified events, null for spontaneously reported events."^^xsd:string ;
	bd:typedAs <http://www.assero.co.uk/CSN#d2f2bbeb-8f79-4fb1-b190-dd864d29f080> ;
.
<http://www.cdisc.org/SDTM_MODEL_EVENTS/V7#CL_--OCCUR>
	rdf:type bd:SdtmClassVariable ;
	isoC:label "Occurrence Indicator"^^xsd:string ;
	bd:rule ""^^xsd:string ;
	bd:ordinal "14"^^xsd:positiveInteger ;
	bd:name "--OCCUR"^^xsd:string ;
	bd:prefixed "true"^^xsd:boolean ;
	bd:description "Used to record whether a prespecified event occurred when information about the occurrence of a specific event is solicited."^^xsd:string ;
	bd:typedAs <http://www.assero.co.uk/CSN#d2f2bbeb-8f79-4fb1-b190-dd864d29f080> ;
	bd:classifiedAs <http://www.assero.co.uk/CSN#4bb7578c-6705-4d2e-93d6-b56960d9e21e> ;
.
<http://www.cdisc.org/SDTM_MODEL_EVENTS/V7#CL_--STAT>
	rdf:type bd:SdtmClassVariable ;
	isoC:label "Completion Status"^^xsd:string ;
	bd:rule ""^^xsd:string ;
	bd:ordinal "15"^^xsd:positiveInteger ;
	bd:name "--STAT"^^xsd:string ;
	bd:prefixed "true"^^xsd:boolean ;
	bd:description "Used to indicate when a question about the occurrence of a prespecified event was not answered. Should be null or have a value of NOT DONE."^^xsd:string ;
	bd:typedAs <http://www.assero.co.uk/CSN#d2f2bbeb-8f79-4fb1-b190-dd864d29f080> ;
	bd:classifiedAs <http://www.assero.co.uk/CSN#4bb7578c-6705-4d2e-93d6-b56960d9e21e> ;
	bd:isA <http://www.s-cubed.dk/CAR#bae7d5be70820ed56467bd9a63744e23b47bd711> ;
.
<http://www.cdisc.org/SDTM_MODEL_EVENTS/V7#CL_--BDSYCD>
	rdf:type bd:SdtmClassVariable ;
	isoC:label "Body System or Organ Class Code"^^xsd:string ;
	bd:rule ""^^xsd:string ;
	bd:ordinal "18"^^xsd:positiveInteger ;
	bd:name "--BDSYCD"^^xsd:string ;
	bd:prefixed "true"^^xsd:boolean ;
	bd:description "MedDRA System Organ Class code corresponding to --BODSYS assigned for analysis."^^xsd:string ;
	bd:typedAs <http://www.assero.co.uk/CSN#178f8dbe-c3ba-4dc0-8a2a-18081644b4c6> ;
.
<http://www.cdisc.org/SDTM_MODEL_EVENTS/V7#CL_--SOC>
	rdf:type bd:SdtmClassVariable ;
	isoC:label "Primary System Organ Class"^^xsd:string ;
	bd:rule ""^^xsd:string ;
	bd:ordinal "19"^^xsd:positiveInteger ;
	bd:name "--SOC"^^xsd:string ;
	bd:prefixed "true"^^xsd:boolean ;
	bd:description "MedDRA primary System Organ Class associated with the event."^^xsd:string ;
	bd:typedAs <http://www.assero.co.uk/CSN#d2f2bbeb-8f79-4fb1-b190-dd864d29f080> ;
.
<http://www.cdisc.org/SDTM_MODEL_EVENTS/V7#CL_--SOCCD>
	rdf:type bd:SdtmClassVariable ;
	isoC:label "Primary System Organ Class Code"^^xsd:string ;
	bd:rule ""^^xsd:string ;
	bd:ordinal "20"^^xsd:positiveInteger ;
	bd:name "--SOCCD"^^xsd:string ;
	bd:prefixed "true"^^xsd:boolean ;
	bd:description "MedDRA primary System Organ Class code."^^xsd:string ;
	bd:typedAs <http://www.assero.co.uk/CSN#178f8dbe-c3ba-4dc0-8a2a-18081644b4c6> ;
.
<http://www.cdisc.org/SDTM_MODEL_EVENTS/V7#CL_--LAT>
	rdf:type bd:SdtmClassVariable ;
	isoC:label "Laterality"^^xsd:string ;
	bd:rule ""^^xsd:string ;
	bd:ordinal "22"^^xsd:positiveInteger ;
	bd:name "--LAT"^^xsd:string ;
	bd:prefixed "true"^^xsd:boolean ;
	bd:description "Qualifier for anatomical location further detailing laterality. Examples: \"RIGHT\", \"LEFT\", \"BILATERAL\"."^^xsd:string ;
	bd:typedAs <http://www.assero.co.uk/CSN#d2f2bbeb-8f79-4fb1-b190-dd864d29f080> ;
	bd:isA <http://www.s-cubed.dk/CAR#ef3aa1b3b12817712a7c3e62022cbe06bd6c3f08> ;
.
<http://www.cdisc.org/SDTM_MODEL_EVENTS/V7#CL_--DIR>
	rdf:type bd:SdtmClassVariable ;
	isoC:label "Directionality"^^xsd:string ;
	bd:rule ""^^xsd:string ;
	bd:ordinal "23"^^xsd:positiveInteger ;
	bd:name "--DIR"^^xsd:string ;
	bd:prefixed "true"^^xsd:boolean ;
	bd:description "Qualifier for anatomical location further detailing directionality. Examples: \"ANTERIOR\", \"LOWER\", \"PROXIMAL\"."^^xsd:string ;
	bd:typedAs <http://www.assero.co.uk/CSN#d2f2bbeb-8f79-4fb1-b190-dd864d29f080> ;
	bd:isA <http://www.s-cubed.dk/CAR#b8480e9c78891769429c713a44f238f2ca3c3abb> ;
.
<http://www.cdisc.org/SDTM_MODEL_EVENTS/V7#CL_--PORTOT>
	rdf:type bd:SdtmClassVariable ;
	isoC:label "Portion or Totality"^^xsd:string ;
	bd:rule ""^^xsd:string ;
	bd:ordinal "24"^^xsd:positiveInteger ;
	bd:name "--PORTOT"^^xsd:string ;
	bd:prefixed "true"^^xsd:boolean ;
	bd:description "Qualifier for anatomical location further detailing the distribution, which means arrangement of, apportioning of. Examples: \"ENTIRE\", \"SINGLE\", \"SEGMENT\", \"MANY\"."^^xsd:string ;
	bd:typedAs <http://www.assero.co.uk/CSN#d2f2bbeb-8f79-4fb1-b190-dd864d29f080> ;
.
<http://www.cdisc.org/SDTM_MODEL_EVENTS/V7#CL_--TOX>
	rdf:type bd:SdtmClassVariable ;
	isoC:label "Toxicity"^^xsd:string ;
	bd:rule ""^^xsd:string ;
	bd:ordinal "45"^^xsd:positiveInteger ;
	bd:name "--TOX"^^xsd:string ;
	bd:prefixed "true"^^xsd:boolean ;
	bd:description "Description of toxicity quantified by --TOXGR such as NCI CTCAE Short Name. Examples: \"HYPERCALCEMIA\", \"HYPOCALCEMIA\". Sponsor should specify which scale and version is used in the Sponsor Comments column of the Define-XML document."^^xsd:string ;
	bd:typedAs <http://www.assero.co.uk/CSN#d2f2bbeb-8f79-4fb1-b190-dd864d29f080> ;
.
<http://www.cdisc.org/SDTM_MODEL_EVENTS/V7#CL_--TOXGR>
	rdf:type bd:SdtmClassVariable ;
	isoC:label "Toxicity Grade"^^xsd:string ;
	bd:rule ""^^xsd:string ;
	bd:ordinal "46"^^xsd:positiveInteger ;
	bd:name "--TOXGR"^^xsd:string ;
	bd:prefixed "true"^^xsd:boolean ;
	bd:description "Records toxicity grade using a standard toxicity scale (such as the NCI CTCAE). Sponsor should specify which scale and version is used in the Sponsor Comments column of the Define-XML document."^^xsd:string ;
	bd:typedAs <http://www.assero.co.uk/CSN#d2f2bbeb-8f79-4fb1-b190-dd864d29f080> ;
	bd:classifiedAs <http://www.assero.co.uk/CSN#4bb7578c-6705-4d2e-93d6-b56960d9e21e> ;
.
<http://www.cdisc.org/SDTM_MODEL_EVENTS/V7#CL_--USCHFL>
	rdf:type bd:SdtmClassVariable ;
	isoC:label "Unscheduled Flag"^^xsd:string ;
	bd:rule ""^^xsd:string ;
	bd:ordinal "47"^^xsd:positiveInteger ;
	bd:name "--USCHFL"^^xsd:string ;
	bd:prefixed "true"^^xsd:boolean ;
	bd:description "Indicates whether the timing of a performed test or observation was unscheduled. If a test or observation was performed based upon a schedule defined in the protocol, this flag should be null. Expected values are \"Y\" or null. Not to be used with human clinical trials. This variable would not be needed when information on planned assessments is provided, such as when the Trial Visits (TV) and Subject Visits (SV) domains are used."^^xsd:string ;
	bd:typedAs <http://www.assero.co.uk/CSN#d2f2bbeb-8f79-4fb1-b190-dd864d29f080> ;
	bd:classifiedAs <http://www.assero.co.uk/CSN#4bb7578c-6705-4d2e-93d6-b56960d9e21e> ;
.
<http://www.cdisc.org/SDTM_MODEL_FINDINGS/V7#CL>
	rdf:type bd:SdtmClass ;
	isoC:label "SDTM MODEL FINDINGS"^^xsd:string ;
	isoT:hasState <http://www.cdisc.org/SDTM_MODEL_FINDINGS/V7#CL_RS> ;
	isoT:hasIdentifier <http://www.cdisc.org/SDTM_MODEL_FINDINGS/V7#CL_SI> ;
	isoT:hasPreviousVersion <http://www.cdisc.org/SDTM_MODEL_FINDINGS/V6#CL> ;
	isoT:origin ""^^xsd:string ;
	isoT:changeDescription ""^^xsd:string ;
	isoT:creationDate "2019-09-17T00:00:00+00:00"^^xsd:dateTime ;
	isoT:lastChangeDate "2019-09-17T00:00:00+00:00"^^xsd:dateTime ;
	isoT:explanatoryComment ""^^xsd:string ;
	bd:rule ""^^xsd:string ;
	bd:ordinal "1"^^xsd:positiveInteger ;
	bd:includesColumn <http://www.cdisc.org/SDTM_MODEL_ALL/V1#CL_STUDYID> ;
	bd:includesColumn <http://www.cdisc.org/SDTM_MODEL_ALL/V6#CL_DOMAIN> ;
	bd:includesColumn <http://www.cdisc.org/SDTM_MODEL_ALL/V1#CL_USUBJID> ;
	bd:includesColumn <http://www.cdisc.org/SDTM_MODEL_ALL/V7#CL_APID> ;
	bd:includesColumn <http://www.cdisc.org/SDTM_MODEL_ALL/V4#CL_POOLID> ;
	bd:includesColumn <http://www.cdisc.org/SDTM_MODEL_ALL/V4#CL_SPDEVID> ;
	bd:includesColumn <http://www.cdisc.org/SDTM_MODEL_ALL/V5#CL_NHOID> ;
	bd:includesColumn <http://www.cdisc.org/SDTM_MODEL_ALL/V5#CL_FETUSID> ;
	bd:includesColumn <http://www.cdisc.org/SDTM_MODEL_ALL/V7#CL_FOCID> ;
	bd:includesColumn <http://www.cdisc.org/SDTM_MODEL_ALL/V5#CL_--SEQ> ;
	bd:includesColumn <http://www.cdisc.org/SDTM_MODEL_ALL/V6#CL_--GRPID> ;
	bd:includesColumn <http://www.cdisc.org/SDTM_MODEL_ALL/V5#CL_--REFID> ;
	bd:includesColumn <http://www.cdisc.org/SDTM_MODEL_ALL/V5#CL_--RECID> ;
	bd:includesColumn <http://www.cdisc.org/SDTM_MODEL_ALL/V7#CL_--SPID> ;
	bd:includesColumn <http://www.cdisc.org/SDTM_MODEL_ALL/V6#CL_--LNKID> ;
	bd:includesColumn <http://www.cdisc.org/SDTM_MODEL_ALL/V6#CL_--LNKGRP> ;
	bd:includesColumn <http://www.cdisc.org/SDTM_MODEL_ALL/V5#CL_VISITNUM> ;
	bd:includesColumn <http://www.cdisc.org/SDTM_MODEL_ALL/V5#CL_VISIT> ;
	bd:includesColumn <http://www.cdisc.org/SDTM_MODEL_ALL/V5#CL_VISITDY> ;
	bd:includesColumn <http://www.cdisc.org/SDTM_MODEL_ALL/V6#CL_TAETORD> ;
	bd:includesColumn <http://www.cdisc.org/SDTM_MODEL_ALL/V6#CL_EPOCH> ;
	bd:includesColumn <http://www.cdisc.org/SDTM_MODEL_ALL/V5#CL_RPHASE> ;
	bd:includesColumn <http://www.cdisc.org/SDTM_MODEL_ALL/V5#CL_RPPLDY> ;
	bd:includesColumn <http://www.cdisc.org/SDTM_MODEL_ALL/V5#CL_RPPLSTDY> ;
	bd:includesColumn <http://www.cdisc.org/SDTM_MODEL_ALL/V5#CL_RPPLENDY> ;
	bd:includesColumn <http://www.cdisc.org/SDTM_MODEL_ALL/V5#CL_--DTC> ;
	bd:includesColumn <http://www.cdisc.org/SDTM_MODEL_ALL/V5#CL_--STDTC> ;
	bd:includesColumn <http://www.cdisc.org/SDTM_MODEL_ALL/V5#CL_--ENDTC> ;
	bd:includesColumn <http://www.cdisc.org/SDTM_MODEL_ALL/V5#CL_--DY> ;
	bd:includesColumn <http://www.cdisc.org/SDTM_MODEL_ALL/V5#CL_--STDY> ;
	bd:includesColumn <http://www.cdisc.org/SDTM_MODEL_ALL/V5#CL_--ENDY> ;
	bd:includesColumn <http://www.cdisc.org/SDTM_MODEL_ALL/V6#CL_--NOMDY> ;
	bd:includesColumn <http://www.cdisc.org/SDTM_MODEL_ALL/V5#CL_--NOMLBL> ;
	bd:includesColumn <http://www.cdisc.org/SDTM_MODEL_ALL/V5#CL_--RPDY> ;
	bd:includesColumn <http://www.cdisc.org/SDTM_MODEL_ALL/V5#CL_--RPSTDY> ;
	bd:includesColumn <http://www.cdisc.org/SDTM_MODEL_ALL/V5#CL_--RPENDY> ;
	bd:includesColumn <http://www.cdisc.org/SDTM_MODEL_ALL/V7#CL_--XDY> ;
	bd:includesColumn <http://www.cdisc.org/SDTM_MODEL_ALL/V7#CL_--XSTDY> ;
	bd:includesColumn <http://www.cdisc.org/SDTM_MODEL_ALL/V7#CL_--XENDY> ;
	bd:includesColumn <http://www.cdisc.org/SDTM_MODEL_ALL/V7#CL_--CHDY> ;
	bd:includesColumn <http://www.cdisc.org/SDTM_MODEL_ALL/V7#CL_--CHSTDY> ;
	bd:includesColumn <http://www.cdisc.org/SDTM_MODEL_ALL/V7#CL_--CHENDY> ;
	bd:includesColumn <http://www.cdisc.org/SDTM_MODEL_ALL/V7#CL_--DUR> ;
	bd:includesColumn <http://www.cdisc.org/SDTM_MODEL_ALL/V7#CL_--TPT> ;
	bd:includesColumn <http://www.cdisc.org/SDTM_MODEL_ALL/V7#CL_--TPTNUM> ;
	bd:includesColumn <http://www.cdisc.org/SDTM_MODEL_ALL/V7#CL_--ELTM> ;
	bd:includesColumn <http://www.cdisc.org/SDTM_MODEL_ALL/V7#CL_--TPTREF> ;
	bd:includesColumn <http://www.cdisc.org/SDTM_MODEL_ALL/V7#CL_--RFTDTC> ;
	bd:includesColumn <http://www.cdisc.org/SDTM_MODEL_ALL/V7#CL_--STRF> ;
	bd:includesColumn <http://www.cdisc.org/SDTM_MODEL_ALL/V7#CL_--ENRF> ;
	bd:includesColumn <http://www.cdisc.org/SDTM_MODEL_ALL/V7#CL_--EVLINT> ;
	bd:includesColumn <http://www.cdisc.org/SDTM_MODEL_ALL/V7#CL_--EVINTX> ;
	bd:includesColumn <http://www.cdisc.org/SDTM_MODEL_ALL/V7#CL_--STRTPT> ;
	bd:includesColumn <http://www.cdisc.org/SDTM_MODEL_ALL/V7#CL_--STTPT> ;
	bd:includesColumn <http://www.cdisc.org/SDTM_MODEL_ALL/V7#CL_--ENRTPT> ;
	bd:includesColumn <http://www.cdisc.org/SDTM_MODEL_ALL/V7#CL_--ENTPT> ;
	bd:includesColumn <http://www.cdisc.org/SDTM_MODEL_ALL/V7#CL_MIDS> ;
	bd:includesColumn <http://www.cdisc.org/SDTM_MODEL_ALL/V7#CL_RELMIDS> ;
	bd:includesColumn <http://www.cdisc.org/SDTM_MODEL_ALL/V7#CL_MIDSDTC> ;
	bd:includesColumn <http://www.cdisc.org/SDTM_MODEL_ALL/V7#CL_--STINT> ;
	bd:includesColumn <http://www.cdisc.org/SDTM_MODEL_ALL/V7#CL_--ENINT> ;
	bd:includesColumn <http://www.cdisc.org/SDTM_MODEL_ALL/V7#CL_--DETECT> ;
	bd:includesColumn <http://www.cdisc.org/SDTM_MODEL_FINDINGS/V6#CL_--TESTCD> ;
	bd:includesColumn <http://www.cdisc.org/SDTM_MODEL_FINDINGS/V7#CL_--TEST> ;
	bd:includesColumn <http://www.cdisc.org/SDTM_MODEL_FINDINGS/V7#CL_--MODIFY> ;
	bd:includesColumn <http://www.cdisc.org/SDTM_MODEL_FINDINGS/V7#CL_--TSTDTL> ;
	bd:includesColumn <http://www.cdisc.org/SDTM_MODEL_FINDINGS/V6#CL_--CAT> ;
	bd:includesColumn <http://www.cdisc.org/SDTM_MODEL_FINDINGS/V6#CL_--SCAT> ;
	bd:includesColumn <http://www.cdisc.org/SDTM_MODEL_FINDINGS/V6#CL_--POS> ;
	bd:includesColumn <http://www.cdisc.org/SDTM_MODEL_FINDINGS/V3#CL_--BODSYS> ;
	bd:includesColumn <http://www.cdisc.org/SDTM_MODEL_FINDINGS/V6#CL_--ORRES> ;
	bd:includesColumn <http://www.cdisc.org/SDTM_MODEL_FINDINGS/V7#CL_--ORRESU> ;
	bd:includesColumn <http://www.cdisc.org/SDTM_MODEL_FINDINGS/V7#CL_--ORNRLO> ;
	bd:includesColumn <http://www.cdisc.org/SDTM_MODEL_FINDINGS/V7#CL_--ORNRHI> ;
	bd:includesColumn <http://www.cdisc.org/SDTM_MODEL_FINDINGS/V7#CL_--ORREF> ;
	bd:includesColumn <http://www.cdisc.org/SDTM_MODEL_FINDINGS/V4#CL_--STRESC> ;
	bd:includesColumn <http://www.cdisc.org/SDTM_MODEL_FINDINGS/V4#CL_--STRESN> ;
	bd:includesColumn <http://www.cdisc.org/SDTM_MODEL_FINDINGS/V7#CL_--STRESU> ;
	bd:includesColumn <http://www.cdisc.org/SDTM_MODEL_FINDINGS/V7#CL_--STNRLO> ;
	bd:includesColumn <http://www.cdisc.org/SDTM_MODEL_FINDINGS/V7#CL_--STNRHI> ;
	bd:includesColumn <http://www.cdisc.org/SDTM_MODEL_FINDINGS/V7#CL_--STNRC> ;
	bd:includesColumn <http://www.cdisc.org/SDTM_MODEL_FINDINGS/V7#CL_--STREFC> ;
	bd:includesColumn <http://www.cdisc.org/SDTM_MODEL_FINDINGS/V7#CL_--STREFN> ;
	bd:includesColumn <http://www.cdisc.org/SDTM_MODEL_FINDINGS/V7#CL_--NRIND> ;
	bd:includesColumn <http://www.cdisc.org/SDTM_MODEL_FINDINGS/V7#CL_--RESCAT> ;
	bd:includesColumn <http://www.cdisc.org/SDTM_MODEL_FINDINGS/V7#CL_--CHRON> ;
	bd:includesColumn <http://www.cdisc.org/SDTM_MODEL_FINDINGS/V7#CL_--DISTR> ;
	bd:includesColumn <http://www.cdisc.org/SDTM_MODEL_FINDINGS/V5#CL_--RESLOC> ;
	bd:includesColumn <http://www.cdisc.org/SDTM_MODEL_FINDINGS/V6#CL_--STAT> ;
	bd:includesColumn <http://www.cdisc.org/SDTM_MODEL_FINDINGS/V6#CL_--REASND> ;
	bd:includesColumn <http://www.cdisc.org/SDTM_MODEL_FINDINGS/V5#CL_--XFN> ;
	bd:includesColumn <http://www.cdisc.org/SDTM_MODEL_FINDINGS/V5#CL_--NAM> ;
	bd:includesColumn <http://www.cdisc.org/SDTM_MODEL_FINDINGS/V7#CL_--LOINC> ;
	bd:includesColumn <http://www.cdisc.org/SDTM_MODEL_FINDINGS/V6#CL_--SPEC> ;
	bd:includesColumn <http://www.cdisc.org/SDTM_MODEL_FINDINGS/V7#CL_--ANTREG> ;
	bd:includesColumn <http://www.cdisc.org/SDTM_MODEL_FINDINGS/V6#CL_--SPCCND> ;
	bd:includesColumn <http://www.cdisc.org/SDTM_MODEL_FINDINGS/V6#CL_--SPCUFL> ;
	bd:includesColumn <http://www.cdisc.org/SDTM_MODEL_FINDINGS/V6#CL_--LOC> ;
	bd:includesColumn <http://www.cdisc.org/SDTM_MODEL_FINDINGS/V7#CL_--LAT> ;
	bd:includesColumn <http://www.cdisc.org/SDTM_MODEL_FINDINGS/V7#CL_--DIR> ;
	bd:includesColumn <http://www.cdisc.org/SDTM_MODEL_FINDINGS/V7#CL_--PORTOT> ;
	bd:includesColumn <http://www.cdisc.org/SDTM_MODEL_FINDINGS/V6#CL_--METHOD> ;
	bd:includesColumn <http://www.cdisc.org/SDTM_MODEL_FINDINGS/V5#CL_--RUNID> ;
	bd:includesColumn <http://www.cdisc.org/SDTM_MODEL_FINDINGS/V6#CL_--ANMETH> ;
	bd:includesColumn <http://www.cdisc.org/SDTM_MODEL_FINDINGS/V6#CL_--LEAD> ;
	bd:includesColumn <http://www.cdisc.org/SDTM_MODEL_FINDINGS/V6#CL_--CSTATE> ;
	bd:includesColumn <http://www.cdisc.org/SDTM_MODEL_FINDINGS/V6#CL_--LOBXFL> ;
	bd:includesColumn <http://www.cdisc.org/SDTM_MODEL_FINDINGS/V6#CL_--BLFL> ;
	bd:includesColumn <http://www.cdisc.org/SDTM_MODEL_FINDINGS/V6#CL_--FAST> ;
	bd:includesColumn <http://www.cdisc.org/SDTM_MODEL_FINDINGS/V6#CL_--DRVFL> ;
	bd:includesColumn <http://www.cdisc.org/SDTM_MODEL_FINDINGS/V6#CL_--EVAL> ;
	bd:includesColumn <http://www.cdisc.org/SDTM_MODEL_FINDINGS/V7#CL_--EVALID> ;
	bd:includesColumn <http://www.cdisc.org/SDTM_MODEL_FINDINGS/V6#CL_--ACPTFL> ;
	bd:includesColumn <http://www.cdisc.org/SDTM_MODEL_FINDINGS/V7#CL_--TOX> ;
	bd:includesColumn <http://www.cdisc.org/SDTM_MODEL_FINDINGS/V7#CL_--TOXGR> ;
	bd:includesColumn <http://www.cdisc.org/SDTM_MODEL_FINDINGS/V6#CL_--SEV> ;
	bd:includesColumn <http://www.cdisc.org/SDTM_MODEL_FINDINGS/V6#CL_--DTHREL> ;
	bd:includesColumn <http://www.cdisc.org/SDTM_MODEL_FINDINGS/V7#CL_--LLOQ> ;
	bd:includesColumn <http://www.cdisc.org/SDTM_MODEL_FINDINGS/V7#CL_--ULOQ> ;
	bd:includesColumn <http://www.cdisc.org/SDTM_MODEL_FINDINGS/V7#CL_--EXCLFL> ;
	bd:includesColumn <http://www.cdisc.org/SDTM_MODEL_FINDINGS/V6#CL_--REASEX> ;
	bd:includesColumn <http://www.cdisc.org/SDTM_MODEL_FINDINGS/V6#CL_--USCHFL> ;
	bd:includesColumn <http://www.cdisc.org/SDTM_MODEL_FINDINGS/V6#CL_--REPNUM> ;
	bd:includesColumn <http://www.cdisc.org/SDTM_MODEL_FINDINGS/V7#CL_--RSTIND> ;
	bd:includesColumn <http://www.cdisc.org/SDTM_MODEL_FINDINGS/V7#CL_--RSTMOD> ;
.
<http://www.cdisc.org/SDTM_MODEL_FINDINGS/V7#CL_RS>
	rdf:type isoR:RegistrationState ;
	isoR:registrationStatus "Standard"^^xsd:string ;
	isoR:administrativeNote ""^^xsd:string ;
	isoR:effectiveDate "2016-01-01T00:00:00+00:00"^^xsd:dateTime ;
	isoR:untilDate "2016-01-01T00:00:00+00:00"^^xsd:dateTime ;
	isoR:unresolvedIssue ""^^xsd:string ;
	isoR:administrativeStatus ""^^xsd:string ;
	isoR:previousState "Standard"^^xsd:string ;
	isoR:multipleEdit "false"^^xsd:boolean ;
	isoR:byAuthority <http://www.assero.co.uk/RA#DUNS084433759> ;
.
<http://www.cdisc.org/SDTM_MODEL_FINDINGS/V7#CL_SI>
	rdf:type isoI:ScopedIdentifier ;
	isoI:identifier "SDTM MODEL FINDINGS"^^xsd:string ;
	isoI:versionLabel "2019-09-17 Release"^^xsd:string ;
	isoI:version "7"^^xsd:positiveInteger ;
	isoI:semanticVersion "7.0.0"^^xsd:string ;
	isoI:hasScope <http://www.assero.co.uk/NS#CDISC> ;
.
<http://www.cdisc.org/SDTM_MODEL_FINDINGS/V7#CL_--TEST>
	rdf:type bd:SdtmClassVariable ;
	isoC:label "Name of Measurement, Test, or Exam"^^xsd:string ;
	bd:rule ""^^xsd:string ;
	bd:ordinal "2"^^xsd:positiveInteger ;
	bd:name "--TEST"^^xsd:string ;
	bd:prefixed "true"^^xsd:boolean ;
	bd:description "Long name For --TESTCD. Examples: \"Platelets\", \"Systolic Blood Pressure\", \"Summary (Min) RR Duration\", \"Eye Examination\"."^^xsd:string ;
	bd:typedAs <http://www.assero.co.uk/CSN#d2f2bbeb-8f79-4fb1-b190-dd864d29f080> ;
	bd:classifiedAs <http://www.assero.co.uk/CSN#818a9757-1ee5-4bd3-a179-e662e26b5b47> ;
.
<http://www.cdisc.org/SDTM_MODEL_FINDINGS/V7#CL_--MODIFY>
	rdf:type bd:SdtmClassVariable ;
	isoC:label "Modified Term"^^xsd:string ;
	bd:rule ""^^xsd:string ;
	bd:ordinal "3"^^xsd:positiveInteger ;
	bd:name "--MODIFY"^^xsd:string ;
	bd:prefixed "true"^^xsd:boolean ;
	bd:description "If the value of --ORRES is modified for coding purposes, then the modified text is placed here."^^xsd:string ;
	bd:typedAs <http://www.assero.co.uk/CSN#d2f2bbeb-8f79-4fb1-b190-dd864d29f080> ;
	bd:classifiedAs <http://www.assero.co.uk/CSN#818a9757-1ee5-4bd3-a179-e662e26b5b47> ;
.
<http://www.cdisc.org/SDTM_MODEL_FINDINGS/V7#CL_--TSTDTL>
	rdf:type bd:SdtmClassVariable ;
	isoC:label "Measurement, Test, or Examination Detail"^^xsd:string ;
	bd:rule ""^^xsd:string ;
	bd:ordinal "4"^^xsd:positiveInteger ;
	bd:name "--TSTDTL"^^xsd:string ;
	bd:prefixed "true"^^xsd:boolean ;
	bd:description "Further description of --TESTCD and --TEST. Example: \"The percentage of cells with +1 intensity of staining\" when MITEST=\"Thyroid Transcription Factor 1\"."^^xsd:string ;
	bd:typedAs <http://www.assero.co.uk/CSN#d2f2bbeb-8f79-4fb1-b190-dd864d29f080> ;
.
<http://www.cdisc.org/SDTM_MODEL_FINDINGS/V7#CL_--ORRESU>
	rdf:type bd:SdtmClassVariable ;
	isoC:label "Original Units"^^xsd:string ;
	bd:rule ""^^xsd:string ;
	bd:ordinal "10"^^xsd:positiveInteger ;
	bd:name "--ORRESU"^^xsd:string ;
	bd:prefixed "true"^^xsd:boolean ;
	bd:description "Unit for --ORRES and --ORREF. Examples: \"in\", \"LB\", \"kg/L\"."^^xsd:string ;
	bd:typedAs <http://www.assero.co.uk/CSN#d2f2bbeb-8f79-4fb1-b190-dd864d29f080> ;
	bd:isA <http://www.s-cubed.dk/CAR#af5f0ce4847da645162514a984a7b88b67016e80> ;
.
<http://www.cdisc.org/SDTM_MODEL_FINDINGS/V7#CL_--ORNRLO>
	rdf:type bd:SdtmClassVariable ;
	isoC:label "Normal Range Lower Limit-Original Units"^^xsd:string ;
	bd:rule ""^^xsd:string ;
	bd:ordinal "11"^^xsd:positiveInteger ;
	bd:name "--ORNRLO"^^xsd:string ;
	bd:prefixed "true"^^xsd:boolean ;
	bd:description "Lower end of normal range or reference range for results stored in --ORRES."^^xsd:string ;
	bd:typedAs <http://www.assero.co.uk/CSN#d2f2bbeb-8f79-4fb1-b190-dd864d29f080> ;
.
<http://www.cdisc.org/SDTM_MODEL_FINDINGS/V7#CL_--ORNRHI>
	rdf:type bd:SdtmClassVariable ;
	isoC:label "Normal Range Upper Limit-Original Units"^^xsd:string ;
	bd:rule ""^^xsd:string ;
	bd:ordinal "12"^^xsd:positiveInteger ;
	bd:name "--ORNRHI"^^xsd:string ;
	bd:prefixed "true"^^xsd:boolean ;
	bd:description "Upper end of normal range or reference range for results stored in --ORRES."^^xsd:string ;
	bd:typedAs <http://www.assero.co.uk/CSN#d2f2bbeb-8f79-4fb1-b190-dd864d29f080> ;
.
<http://www.cdisc.org/SDTM_MODEL_FINDINGS/V7#CL_--ORREF>
	rdf:type bd:SdtmClassVariable ;
	isoC:label "Reference Result in Original Units"^^xsd:string ;
	bd:rule ""^^xsd:string ;
	bd:ordinal "13"^^xsd:positiveInteger ;
	bd:name "--ORREF"^^xsd:string ;
	bd:prefixed "true"^^xsd:boolean ;
	bd:description "Reference value for the result or finding as originally received or collected. --ORREF uses the same units as --ORRES, if applicable. Examples: value from predicted normal value in spirometry tests."^^xsd:string ;
	bd:typedAs <http://www.assero.co.uk/CSN#d2f2bbeb-8f79-4fb1-b190-dd864d29f080> ;
.
<http://www.cdisc.org/SDTM_MODEL_FINDINGS/V7#CL_--STRESU>
	rdf:type bd:SdtmClassVariable ;
	isoC:label "Standard Units"^^xsd:string ;
	bd:rule ""^^xsd:string ;
	bd:ordinal "16"^^xsd:positiveInteger ;
	bd:name "--STRESU"^^xsd:string ;
	bd:prefixed "true"^^xsd:boolean ;
	bd:description "Standardized units used for --STRESC, --STRESN, --STREFC, and --STREFN. Example: \"mol/L\"."^^xsd:string ;
	bd:typedAs <http://www.assero.co.uk/CSN#d2f2bbeb-8f79-4fb1-b190-dd864d29f080> ;
.
<http://www.cdisc.org/SDTM_MODEL_FINDINGS/V7#CL_--STNRLO>
	rdf:type bd:SdtmClassVariable ;
	isoC:label "Normal Range Lower Limit-Standard Units"^^xsd:string ;
	bd:rule ""^^xsd:string ;
	bd:ordinal "17"^^xsd:positiveInteger ;
	bd:name "--STNRLO"^^xsd:string ;
	bd:prefixed "true"^^xsd:boolean ;
	bd:description "Lower end of normal range or reference range for standardized results (e.g., --STRESC, --STRESN) represented in standardized units (--STRESU)."^^xsd:string ;
	bd:typedAs <http://www.assero.co.uk/CSN#178f8dbe-c3ba-4dc0-8a2a-18081644b4c6> ;
.
<http://www.cdisc.org/SDTM_MODEL_FINDINGS/V7#CL_--STNRHI>
	rdf:type bd:SdtmClassVariable ;
	isoC:label "Normal Range Upper Limit-Standard Units"^^xsd:string ;
	bd:rule ""^^xsd:string ;
	bd:ordinal "18"^^xsd:positiveInteger ;
	bd:name "--STNRHI"^^xsd:string ;
	bd:prefixed "true"^^xsd:boolean ;
	bd:description "Upper end of normal range or reference range for standardized results (e.g., --STRESC, --STRESN) represented in standardized units (--STRESU)."^^xsd:string ;
	bd:typedAs <http://www.assero.co.uk/CSN#178f8dbe-c3ba-4dc0-8a2a-18081644b4c6> ;
.
<http://www.cdisc.org/SDTM_MODEL_FINDINGS/V7#CL_--STNRC>
	rdf:type bd:SdtmClassVariable ;
	isoC:label "Normal Range for Character Results"^^xsd:string ;
	bd:rule ""^^xsd:string ;
	bd:ordinal "19"^^xsd:positiveInteger ;
	bd:name "--STNRC"^^xsd:string ;
	bd:prefixed "true"^^xsd:boolean ;
	bd:description "Normal range or reference range for results stored in --STRESC that are character in ordinal or categorical scale. Example: \"Negative to Trace\"."^^xsd:string ;
	bd:typedAs <http://www.assero.co.uk/CSN#d2f2bbeb-8f79-4fb1-b190-dd864d29f080> ;
.
<http://www.cdisc.org/SDTM_MODEL_FINDINGS/V7#CL_--STREFC>
	rdf:type bd:SdtmClassVariable ;
	isoC:label "Reference Result in Standard Format"^^xsd:string ;
	bd:rule ""^^xsd:string ;
	bd:ordinal "20"^^xsd:positiveInteger ;
	bd:name "--STREFC"^^xsd:string ;
	bd:prefixed "true"^^xsd:boolean ;
	bd:description "Reference value for the result or finding copied or derived from --ORREF in a standard format."^^xsd:string ;
	bd:typedAs <http://www.assero.co.uk/CSN#d2f2bbeb-8f79-4fb1-b190-dd864d29f080> ;
.
<http://www.cdisc.org/SDTM_MODEL_FINDINGS/V7#CL_--STREFN>
	rdf:type bd:SdtmClassVariable ;
	isoC:label "Numeric Reference Result in Std Units"^^xsd:string ;
	bd:rule ""^^xsd:string ;
	bd:ordinal "21"^^xsd:positiveInteger ;
	bd:name "--STREFN"^^xsd:string ;
	bd:prefixed "true"^^xsd:boolean ;
	bd:description "Reference value for continuous or numeric results or findings in standard format or in standard units. --STREFN uses the same units as --STRESN, if applicable."^^xsd:string ;
	bd:typedAs <http://www.assero.co.uk/CSN#178f8dbe-c3ba-4dc0-8a2a-18081644b4c6> ;
.
<http://www.cdisc.org/SDTM_MODEL_FINDINGS/V7#CL_--NRIND>
	rdf:type bd:SdtmClassVariable ;
	isoC:label "Normal/Reference Range Indicator"^^xsd:string ;
	bd:rule ""^^xsd:string ;
	bd:ordinal "22"^^xsd:positiveInteger ;
	bd:name "--NRIND"^^xsd:string ;
	bd:prefixed "true"^^xsd:boolean ;
	bd:description "Used to indicate the value is outside the normal range or reference range. May be defined by --ORNRLO and --ORNRHI or other objective criteria. Examples: \"Y\", \"N\"; \"HIGH\", \"LOW\"; \"NORMAL\", \"ABNORMAL\"."^^xsd:string ;
	bd:typedAs <http://www.assero.co.uk/CSN#d2f2bbeb-8f79-4fb1-b190-dd864d29f080> ;
.
<http://www.cdisc.org/SDTM_MODEL_FINDINGS/V7#CL_--RESCAT>
	rdf:type bd:SdtmClassVariable ;
	isoC:label "Result Category"^^xsd:string ;
	bd:rule ""^^xsd:string ;
	bd:ordinal "23"^^xsd:positiveInteger ;
	bd:name "--RESCAT"^^xsd:string ;
	bd:prefixed "true"^^xsd:boolean ;
	bd:description "Used to categorize the result of a finding. Example: \"MALIGNANT\" or \"BENIGN\" for tumor findings."^^xsd:string ;
	bd:typedAs <http://www.assero.co.uk/CSN#d2f2bbeb-8f79-4fb1-b190-dd864d29f080> ;
.
<http://www.cdisc.org/SDTM_MODEL_FINDINGS/V7#CL_--CHRON>
	rdf:type bd:SdtmClassVariable ;
	isoC:label "Chronicity of Finding"^^xsd:string ;
	bd:rule ""^^xsd:string ;
	bd:ordinal "24"^^xsd:positiveInteger ;
	bd:name "--CHRON"^^xsd:string ;
	bd:prefixed "true"^^xsd:boolean ;
	bd:description "Characterization of the duration of a biological process resulting in a particular finding. Examples: \"ACUTE\", \"CHRONIC\", \"SUBACUTE\"."^^xsd:string ;
	bd:typedAs <http://www.assero.co.uk/CSN#d2f2bbeb-8f79-4fb1-b190-dd864d29f080> ;
.
<http://www.cdisc.org/SDTM_MODEL_FINDINGS/V7#CL_--DISTR>
	rdf:type bd:SdtmClassVariable ;
	isoC:label "Distribution Pattern of Finding"^^xsd:string ;
	bd:rule ""^^xsd:string ;
	bd:ordinal "25"^^xsd:positiveInteger ;
	bd:name "--DISTR"^^xsd:string ;
	bd:prefixed "true"^^xsd:boolean ;
	bd:description "Description of the distribution pattern of a finding within the examined area. Examples: \"FOCAL\", \"MULTIFOCAL\", \"DIFFUSE\", \"FOCAL\", \"MULTIFOCAL\"."^^xsd:string ;
	bd:typedAs <http://www.assero.co.uk/CSN#d2f2bbeb-8f79-4fb1-b190-dd864d29f080> ;
.
<http://www.cdisc.org/SDTM_MODEL_FINDINGS/V7#CL_--LOINC>
	rdf:type bd:SdtmClassVariable ;
	isoC:label "LOINC Code"^^xsd:string ;
	bd:rule ""^^xsd:string ;
	bd:ordinal "31"^^xsd:positiveInteger ;
	bd:name "--LOINC"^^xsd:string ;
	bd:prefixed "true"^^xsd:boolean ;
	bd:description "Logical Observation Identifiers Names and Codes (LOINC) code for the topic variable such as a lab test."^^xsd:string ;
	bd:typedAs <http://www.assero.co.uk/CSN#d2f2bbeb-8f79-4fb1-b190-dd864d29f080> ;
	bd:classifiedAs <http://www.assero.co.uk/CSN#818a9757-1ee5-4bd3-a179-e662e26b5b47> ;
.
<http://www.cdisc.org/SDTM_MODEL_FINDINGS/V7#CL_--ANTREG>
	rdf:type bd:SdtmClassVariable ;
	isoC:label "Anatomical Region"^^xsd:string ;
	bd:rule ""^^xsd:string ;
	bd:ordinal "33"^^xsd:positiveInteger ;
	bd:name "--ANTREG"^^xsd:string ;
	bd:prefixed "true"^^xsd:boolean ;
	bd:description "Defines the specific anatomical or biological region of a tissue, organ specimen or the region from which the specimen is obtained, as defined in the protocol, such as a section or part of what is described in the --SPEC variable. Examples: \"CORTEX\", \"MEDULLA\", \"MUCOSA\"."^^xsd:string ;
	bd:typedAs <http://www.assero.co.uk/CSN#d2f2bbeb-8f79-4fb1-b190-dd864d29f080> ;
.
<http://www.cdisc.org/SDTM_MODEL_FINDINGS/V7#CL_--LAT>
	rdf:type bd:SdtmClassVariable ;
	isoC:label "Laterality"^^xsd:string ;
	bd:rule ""^^xsd:string ;
	bd:ordinal "37"^^xsd:positiveInteger ;
	bd:name "--LAT"^^xsd:string ;
	bd:prefixed "true"^^xsd:boolean ;
	bd:description "Qualifier for anatomical location or specimen further detailing laterality. Examples: \"RIGHT\", \"LEFT\", \"BILATERAL\"."^^xsd:string ;
	bd:typedAs <http://www.assero.co.uk/CSN#d2f2bbeb-8f79-4fb1-b190-dd864d29f080> ;
	bd:isA <http://www.s-cubed.dk/CAR#ef3aa1b3b12817712a7c3e62022cbe06bd6c3f08> ;
.
<http://www.cdisc.org/SDTM_MODEL_FINDINGS/V7#CL_--DIR>
	rdf:type bd:SdtmClassVariable ;
	isoC:label "Directionality"^^xsd:string ;
	bd:rule ""^^xsd:string ;
	bd:ordinal "38"^^xsd:positiveInteger ;
	bd:name "--DIR"^^xsd:string ;
	bd:prefixed "true"^^xsd:boolean ;
	bd:description "Qualifier for anatomical location or specimen further detailing directionality. Examples: \"ANTERIOR\", \"LOWER\", \"PROXIMAL\"."^^xsd:string ;
	bd:typedAs <http://www.assero.co.uk/CSN#d2f2bbeb-8f79-4fb1-b190-dd864d29f080> ;
	bd:isA <http://www.s-cubed.dk/CAR#b8480e9c78891769429c713a44f238f2ca3c3abb> ;
.
<http://www.cdisc.org/SDTM_MODEL_FINDINGS/V7#CL_--PORTOT>
	rdf:type bd:SdtmClassVariable ;
	isoC:label "Portion or Totality"^^xsd:string ;
	bd:rule ""^^xsd:string ;
	bd:ordinal "39"^^xsd:positiveInteger ;
	bd:name "--PORTOT"^^xsd:string ;
	bd:prefixed "true"^^xsd:boolean ;
	bd:description "Qualifier for anatomical location or specimen further detailing the distribution, which means arrangement or apportioning of. Examples: \"ENTIRE\", \"SINGLE\", \"SEGMENT\", \"MANY\"."^^xsd:string ;
	bd:typedAs <http://www.assero.co.uk/CSN#d2f2bbeb-8f79-4fb1-b190-dd864d29f080> ;
.
<http://www.cdisc.org/SDTM_MODEL_FINDINGS/V7#CL_--EVALID>
	rdf:type bd:SdtmClassVariable ;
	isoC:label "Evaluator Identifier"^^xsd:string ;
	bd:rule ""^^xsd:string ;
	bd:ordinal "50"^^xsd:positiveInteger ;
	bd:name "--EVALID"^^xsd:string ;
	bd:prefixed "true"^^xsd:boolean ;
	bd:description "Used to distinguish multiple evaluators with the same role recorded in --EVAL. Examples: \"RADIOLOGIST1\", \"RADIOLOGIST2\"."^^xsd:string ;
	bd:typedAs <http://www.assero.co.uk/CSN#d2f2bbeb-8f79-4fb1-b190-dd864d29f080> ;
.
<http://www.cdisc.org/SDTM_MODEL_FINDINGS/V7#CL_--TOX>
	rdf:type bd:SdtmClassVariable ;
	isoC:label "Toxicity"^^xsd:string ;
	bd:rule ""^^xsd:string ;
	bd:ordinal "52"^^xsd:positiveInteger ;
	bd:name "--TOX"^^xsd:string ;
	bd:prefixed "true"^^xsd:boolean ;
	bd:description "Description of toxicity quantified by --TOXGR such as NCI CTCAE Short Name. Examples: \"HYPERCALCEMIA\", \"HYPOCALCEMIA\". Sponsor should specify which scale and version is used in the Sponsor Comments column of the Define-XML document."^^xsd:string ;
	bd:typedAs <http://www.assero.co.uk/CSN#d2f2bbeb-8f79-4fb1-b190-dd864d29f080> ;
.
<http://www.cdisc.org/SDTM_MODEL_FINDINGS/V7#CL_--TOXGR>
	rdf:type bd:SdtmClassVariable ;
	isoC:label "Toxicity Grade"^^xsd:string ;
	bd:rule ""^^xsd:string ;
	bd:ordinal "53"^^xsd:positiveInteger ;
	bd:name "--TOXGR"^^xsd:string ;
	bd:prefixed "true"^^xsd:boolean ;
	bd:description "Records toxicity grade using a standard toxicity scale (such as the NCI CTCAE). Sponsor should specify which scale and version is used in the Sponsor Comments column of the Define data definition document. Example: \"2\"."^^xsd:string ;
	bd:typedAs <http://www.assero.co.uk/CSN#d2f2bbeb-8f79-4fb1-b190-dd864d29f080> ;
	bd:classifiedAs <http://www.assero.co.uk/CSN#4bb7578c-6705-4d2e-93d6-b56960d9e21e> ;
.
<http://www.cdisc.org/SDTM_MODEL_FINDINGS/V7#CL_--LLOQ>
	rdf:type bd:SdtmClassVariable ;
	isoC:label "Lower Limit of Quantitation"^^xsd:string ;
	bd:rule ""^^xsd:string ;
	bd:ordinal "56"^^xsd:positiveInteger ;
	bd:name "--LLOQ"^^xsd:string ;
	bd:prefixed "true"^^xsd:boolean ;
	bd:description "Indicates the lower limit of quantitation for an assay. Units will be those used for --STRESU."^^xsd:string ;
	bd:typedAs <http://www.assero.co.uk/CSN#178f8dbe-c3ba-4dc0-8a2a-18081644b4c6> ;
.
<http://www.cdisc.org/SDTM_MODEL_FINDINGS/V7#CL_--ULOQ>
	rdf:type bd:SdtmClassVariable ;
	isoC:label "Upper Limit of Quantitation"^^xsd:string ;
	bd:rule ""^^xsd:string ;
	bd:ordinal "57"^^xsd:positiveInteger ;
	bd:name "--ULOQ"^^xsd:string ;
	bd:prefixed "true"^^xsd:boolean ;
	bd:description "Indicates the upper limit of quantitation for an assay. Units will be those used for --STRESU."^^xsd:string ;
	bd:typedAs <http://www.assero.co.uk/CSN#178f8dbe-c3ba-4dc0-8a2a-18081644b4c6> ;
.
<http://www.cdisc.org/SDTM_MODEL_FINDINGS/V7#CL_--EXCLFL>
	rdf:type bd:SdtmClassVariable ;
	isoC:label "Exclude from Statistics"^^xsd:string ;
	bd:rule ""^^xsd:string ;
	bd:ordinal "58"^^xsd:positiveInteger ;
	bd:name "--EXCLFL"^^xsd:string ;
	bd:prefixed "true"^^xsd:boolean ;
	bd:description "Indicates whether the values in the result variables for this record should be excluded from summary statistical calculations such as Mean, Standard Deviation, and Count (and others). Expected to be \"Y\" or null. --EXCLFL should not be used when --STAT is \"NOT DONE\". Not to be used with human clinical trials."^^xsd:string ;
	bd:typedAs <http://www.assero.co.uk/CSN#d2f2bbeb-8f79-4fb1-b190-dd864d29f080> ;
	bd:classifiedAs <http://www.assero.co.uk/CSN#4bb7578c-6705-4d2e-93d6-b56960d9e21e> ;
.
<http://www.cdisc.org/SDTM_MODEL_FINDINGS/V7#CL_--RSTIND>
	rdf:type bd:SdtmClassVariable ;
	isoC:label "Restraint Indicator"^^xsd:string ;
	bd:rule ""^^xsd:string ;
	bd:ordinal "62"^^xsd:positiveInteger ;
	bd:name "--RSTIND"^^xsd:string ;
	bd:prefixed "true"^^xsd:boolean ;
	bd:description "An indicator as to whether the animal was restrained during the observation period. Expected values are \"Y\" or null. Not to be used with human clinical trials."^^xsd:string ;
	bd:typedAs <http://www.assero.co.uk/CSN#d2f2bbeb-8f79-4fb1-b190-dd864d29f080> ;
	bd:classifiedAs <http://www.assero.co.uk/CSN#4bb7578c-6705-4d2e-93d6-b56960d9e21e> ;
.
<http://www.cdisc.org/SDTM_MODEL_FINDINGS/V7#CL_--RSTMOD>
	rdf:type bd:SdtmClassVariable ;
	isoC:label "Restraint Mode"^^xsd:string ;
	bd:rule ""^^xsd:string ;
	bd:ordinal "63"^^xsd:positiveInteger ;
	bd:name "--RSTMOD"^^xsd:string ;
	bd:prefixed "true"^^xsd:boolean ;
	bd:description "A description of whether the restraint was physical and/or chemical. Not to be used with human clinical trials."^^xsd:string ;
	bd:typedAs <http://www.assero.co.uk/CSN#d2f2bbeb-8f79-4fb1-b190-dd864d29f080> ;
	bd:classifiedAs <http://www.assero.co.uk/CSN#4bb7578c-6705-4d2e-93d6-b56960d9e21e> ;
.
<http://www.cdisc.org/SDTM_MODEL_DM/V7#CL>
	rdf:type bd:SdtmClass ;
	isoC:label "DM"^^xsd:string ;
	isoT:hasState <http://www.cdisc.org/SDTM_MODEL_DM/V7#CL_RS> ;
	isoT:hasIdentifier <http://www.cdisc.org/SDTM_MODEL_DM/V7#CL_SI> ;
	isoT:hasPreviousVersion <http://www.cdisc.org/SDTM_MODEL_DM/V6#CL> ;
	isoT:origin ""^^xsd:string ;
	isoT:changeDescription ""^^xsd:string ;
	isoT:creationDate "2019-09-17T00:00:00+00:00"^^xsd:dateTime ;
	isoT:lastChangeDate "2019-09-17T00:00:00+00:00"^^xsd:dateTime ;
	isoT:explanatoryComment ""^^xsd:string ;
	bd:rule ""^^xsd:string ;
	bd:ordinal "1"^^xsd:positiveInteger ;
	bd:includesColumn <http://www.cdisc.org/SDTM_MODEL_DM/V1#CL_STUDYID> ;
	bd:includesColumn <http://www.cdisc.org/SDTM_MODEL_DM/V6#CL_DOMAIN> ;
	bd:includesColumn <http://www.cdisc.org/SDTM_MODEL_DM/V4#CL_USUBJID> ;
	bd:includesColumn <http://www.cdisc.org/SDTM_MODEL_DM/V6#CL_SUBJID> ;
	bd:includesColumn <http://www.cdisc.org/SDTM_MODEL_DM/V6#CL_RFSTDTC> ;
	bd:includesColumn <http://www.cdisc.org/SDTM_MODEL_DM/V6#CL_RFENDTC> ;
	bd:includesColumn <http://www.cdisc.org/SDTM_MODEL_DM/V6#CL_RFXSTDTC> ;
	bd:includesColumn <http://www.cdisc.org/SDTM_MODEL_DM/V6#CL_RFXENDTC> ;
	bd:includesColumn <http://www.cdisc.org/SDTM_MODEL_DM/V7#CL_RFCSTDTC> ;
	bd:includesColumn <http://www.cdisc.org/SDTM_MODEL_DM/V7#CL_RFCENDTC> ;
	bd:includesColumn <http://www.cdisc.org/SDTM_MODEL_DM/V7#CL_RFICDTC> ;
	bd:includesColumn <http://www.cdisc.org/SDTM_MODEL_DM/V7#CL_RFPENDTC> ;
	bd:includesColumn <http://www.cdisc.org/SDTM_MODEL_DM/V7#CL_DTHDTC> ;
	bd:includesColumn <http://www.cdisc.org/SDTM_MODEL_DM/V7#CL_DTHFL> ;
	bd:includesColumn <http://www.cdisc.org/SDTM_MODEL_DM/V7#CL_SITEID> ;
	bd:includesColumn <http://www.cdisc.org/SDTM_MODEL_DM/V7#CL_INVID> ;
	bd:includesColumn <http://www.cdisc.org/SDTM_MODEL_DM/V7#CL_INVNAM> ;
	bd:includesColumn <http://www.cdisc.org/SDTM_MODEL_DM/V7#CL_BRTHDTC> ;
	bd:includesColumn <http://www.cdisc.org/SDTM_MODEL_DM/V7#CL_AGE> ;
	bd:includesColumn <http://www.cdisc.org/SDTM_MODEL_DM/V7#CL_AGETXT> ;
	bd:includesColumn <http://www.cdisc.org/SDTM_MODEL_DM/V7#CL_AGEU> ;
	bd:includesColumn <http://www.cdisc.org/SDTM_MODEL_DM/V7#CL_SEX> ;
	bd:includesColumn <http://www.cdisc.org/SDTM_MODEL_DM/V7#CL_RACE> ;
	bd:includesColumn <http://www.cdisc.org/SDTM_MODEL_DM/V7#CL_ETHNIC> ;
	bd:includesColumn <http://www.cdisc.org/SDTM_MODEL_DM/V7#CL_SPECIES> ;
	bd:includesColumn <http://www.cdisc.org/SDTM_MODEL_DM/V7#CL_STRAIN> ;
	bd:includesColumn <http://www.cdisc.org/SDTM_MODEL_DM/V7#CL_SBSTRAIN> ;
	bd:includesColumn <http://www.cdisc.org/SDTM_MODEL_DM/V7#CL_ARMCD> ;
	bd:includesColumn <http://www.cdisc.org/SDTM_MODEL_DM/V7#CL_ARM> ;
	bd:includesColumn <http://www.cdisc.org/SDTM_MODEL_DM/V7#CL_ACTARMCD> ;
	bd:includesColumn <http://www.cdisc.org/SDTM_MODEL_DM/V7#CL_ACTARM> ;
	bd:includesColumn <http://www.cdisc.org/SDTM_MODEL_DM/V7#CL_ARMNRS> ;
	bd:includesColumn <http://www.cdisc.org/SDTM_MODEL_DM/V7#CL_ACTARMUD> ;
	bd:includesColumn <http://www.cdisc.org/SDTM_MODEL_DM/V7#CL_SETCD> ;
	bd:includesColumn <http://www.cdisc.org/SDTM_MODEL_DM/V7#CL_RPATHCD> ;
	bd:includesColumn <http://www.cdisc.org/SDTM_MODEL_DM/V7#CL_COUNTRY> ;
	bd:includesColumn <http://www.cdisc.org/SDTM_MODEL_DM/V7#CL_DMDTC> ;
	bd:includesColumn <http://www.cdisc.org/SDTM_MODEL_DM/V7#CL_DMDY> ;
.
<http://www.cdisc.org/SDTM_MODEL_DM/V7#CL_RS>
	rdf:type isoR:RegistrationState ;
	isoR:registrationStatus "Standard"^^xsd:string ;
	isoR:administrativeNote ""^^xsd:string ;
	isoR:effectiveDate "2016-01-01T00:00:00+00:00"^^xsd:dateTime ;
	isoR:untilDate "2016-01-01T00:00:00+00:00"^^xsd:dateTime ;
	isoR:unresolvedIssue ""^^xsd:string ;
	isoR:administrativeStatus ""^^xsd:string ;
	isoR:previousState "Standard"^^xsd:string ;
	isoR:multipleEdit "false"^^xsd:boolean ;
	isoR:byAuthority <http://www.assero.co.uk/RA#DUNS084433759> ;
.
<http://www.cdisc.org/SDTM_MODEL_DM/V7#CL_SI>
	rdf:type isoI:ScopedIdentifier ;
	isoI:identifier "SDTM MODEL DM"^^xsd:string ;
	isoI:versionLabel "2019-09-17 Release"^^xsd:string ;
	isoI:version "7"^^xsd:positiveInteger ;
	isoI:semanticVersion "7.0.0"^^xsd:string ;
	isoI:hasScope <http://www.assero.co.uk/NS#CDISC> ;
.
<http://www.cdisc.org/SDTM_MODEL_DM/V7#CL_RFCSTDTC>
	rdf:type bd:SdtmClassVariable ;
	isoC:label "Date/Time of First Challenge Agent Admin"^^xsd:string ;
	bd:rule ""^^xsd:string ;
	bd:ordinal "9"^^xsd:positiveInteger ;
	bd:name "RFCSTDTC"^^xsd:string ;
	bd:prefixed "false"^^xsd:boolean ;
	bd:description "The start date or date and time of the first exposure to any protocol-specified challenge agent that induces the disease or condition that the investigational treatment is intended to cure, mitigate, treat, or prevent, represented in a standardized character format. \n Equal to the earliest value of AGSTDTC for the challenge agent."^^xsd:string ;
	bd:typedAs <http://www.assero.co.uk/CSN#d2f2bbeb-8f79-4fb1-b190-dd864d29f080> ;
	bd:classifiedAs <http://www.assero.co.uk/CSN#4bb7578c-6705-4d2e-93d6-b56960d9e21e> ;
.
<http://www.cdisc.org/SDTM_MODEL_DM/V7#CL_RFCENDTC>
	rdf:type bd:SdtmClassVariable ;
	isoC:label "Date/Time of Last Challenge Agent Admin"^^xsd:string ;
	bd:rule ""^^xsd:string ;
	bd:ordinal "10"^^xsd:positiveInteger ;
	bd:name "RFCENDTC"^^xsd:string ;
	bd:prefixed "false"^^xsd:boolean ;
	bd:description "The end date or date and time of the last exposure to any protocol-specified challenge agent that induces the disease or condition that the investigational treatment is intended to cure, mitigate, treat, or prevent, represented in a standardized character format. \n Equal to the latest value of AGENDTC for the challenge agent."^^xsd:string ;
	bd:typedAs <http://www.assero.co.uk/CSN#d2f2bbeb-8f79-4fb1-b190-dd864d29f080> ;
	bd:classifiedAs <http://www.assero.co.uk/CSN#4bb7578c-6705-4d2e-93d6-b56960d9e21e> ;
.
<http://www.cdisc.org/SDTM_MODEL_DM/V7#CL_RFICDTC>
	rdf:type bd:SdtmClassVariable ;
	isoC:label "Date/Time of Informed Consent"^^xsd:string ;
	bd:rule ""^^xsd:string ;
	bd:ordinal "11"^^xsd:positiveInteger ;
	bd:name "RFICDTC"^^xsd:string ;
	bd:prefixed "false"^^xsd:boolean ;
	bd:description "Date/time of informed consent."^^xsd:string ;
	bd:typedAs <http://www.assero.co.uk/CSN#d2f2bbeb-8f79-4fb1-b190-dd864d29f080> ;
	bd:classifiedAs <http://www.assero.co.uk/CSN#4bb7578c-6705-4d2e-93d6-b56960d9e21e> ;
.
<http://www.cdisc.org/SDTM_MODEL_DM/V7#CL_RFPENDTC>
	rdf:type bd:SdtmClassVariable ;
	isoC:label "Date/Time of End of Participation"^^xsd:string ;
	bd:rule ""^^xsd:string ;
	bd:ordinal "12"^^xsd:positiveInteger ;
	bd:name "RFPENDTC"^^xsd:string ;
	bd:prefixed "false"^^xsd:boolean ;
	bd:description "Date/time when subject ended participation or follow-up in a trial. Should correspond to the last known date of contact."^^xsd:string ;
	bd:typedAs <http://www.assero.co.uk/CSN#d2f2bbeb-8f79-4fb1-b190-dd864d29f080> ;
	bd:classifiedAs <http://www.assero.co.uk/CSN#4bb7578c-6705-4d2e-93d6-b56960d9e21e> ;
.
<http://www.cdisc.org/SDTM_MODEL_DM/V7#CL_DTHDTC>
	rdf:type bd:SdtmClassVariable ;
	isoC:label "Date/Time of Death"^^xsd:string ;
	bd:rule ""^^xsd:string ;
	bd:ordinal "13"^^xsd:positiveInteger ;
	bd:name "DTHDTC"^^xsd:string ;
	bd:prefixed "false"^^xsd:boolean ;
	bd:description "Date/time of death for any subject who died, in ISO 8601 format. Should represent the date/time that is captured in the clinical-trial database."^^xsd:string ;
	bd:typedAs <http://www.assero.co.uk/CSN#d2f2bbeb-8f79-4fb1-b190-dd864d29f080> ;
	bd:classifiedAs <http://www.assero.co.uk/CSN#4bb7578c-6705-4d2e-93d6-b56960d9e21e> ;
.
<http://www.cdisc.org/SDTM_MODEL_DM/V7#CL_DTHFL>
	rdf:type bd:SdtmClassVariable ;
	isoC:label "Subject Death Flag"^^xsd:string ;
	bd:rule ""^^xsd:string ;
	bd:ordinal "14"^^xsd:positiveInteger ;
	bd:name "DTHFL"^^xsd:string ;
	bd:prefixed "false"^^xsd:boolean ;
	bd:description "A value of \"Y\" indicates the subject died. Should be \"Y\" or null. Should be populated even when the death date is unknown."^^xsd:string ;
	bd:typedAs <http://www.assero.co.uk/CSN#d2f2bbeb-8f79-4fb1-b190-dd864d29f080> ;
	bd:classifiedAs <http://www.assero.co.uk/CSN#4bb7578c-6705-4d2e-93d6-b56960d9e21e> ;
.
<http://www.cdisc.org/SDTM_MODEL_DM/V7#CL_SITEID>
	rdf:type bd:SdtmClassVariable ;
	isoC:label "Study Site Identifier"^^xsd:string ;
	bd:rule ""^^xsd:string ;
	bd:ordinal "15"^^xsd:positiveInteger ;
	bd:name "SITEID"^^xsd:string ;
	bd:prefixed "false"^^xsd:boolean ;
	bd:description "Unique identifier for a site within a study."^^xsd:string ;
	bd:typedAs <http://www.assero.co.uk/CSN#d2f2bbeb-8f79-4fb1-b190-dd864d29f080> ;
	bd:classifiedAs <http://www.assero.co.uk/CSN#4bb7578c-6705-4d2e-93d6-b56960d9e21e> ;
.
<http://www.cdisc.org/SDTM_MODEL_DM/V7#CL_INVID>
	rdf:type bd:SdtmClassVariable ;
	isoC:label "Investigator Identifier"^^xsd:string ;
	bd:rule ""^^xsd:string ;
	bd:ordinal "16"^^xsd:positiveInteger ;
	bd:name "INVID"^^xsd:string ;
	bd:prefixed "false"^^xsd:boolean ;
	bd:description "An identifier to describe the Investigator for the study. May be used in addition to the SITEID. Not needed if SITEID is equivalent to INVID."^^xsd:string ;
	bd:typedAs <http://www.assero.co.uk/CSN#d2f2bbeb-8f79-4fb1-b190-dd864d29f080> ;
	bd:classifiedAs <http://www.assero.co.uk/CSN#4bb7578c-6705-4d2e-93d6-b56960d9e21e> ;
.
<http://www.cdisc.org/SDTM_MODEL_DM/V7#CL_INVNAM>
	rdf:type bd:SdtmClassVariable ;
	isoC:label "Investigator Name"^^xsd:string ;
	bd:rule ""^^xsd:string ;
	bd:ordinal "17"^^xsd:positiveInteger ;
	bd:name "INVNAM"^^xsd:string ;
	bd:prefixed "false"^^xsd:boolean ;
	bd:description "Name of the investigator for a site."^^xsd:string ;
	bd:typedAs <http://www.assero.co.uk/CSN#d2f2bbeb-8f79-4fb1-b190-dd864d29f080> ;
	bd:classifiedAs <http://www.assero.co.uk/CSN#818a9757-1ee5-4bd3-a179-e662e26b5b47> ;
.
<http://www.cdisc.org/SDTM_MODEL_DM/V7#CL_BRTHDTC>
	rdf:type bd:SdtmClassVariable ;
	isoC:label "Date/Time of Birth"^^xsd:string ;
	bd:rule ""^^xsd:string ;
	bd:ordinal "18"^^xsd:positiveInteger ;
	bd:name "BRTHDTC"^^xsd:string ;
	bd:prefixed "false"^^xsd:boolean ;
	bd:description "Date/time of birth of the subject."^^xsd:string ;
	bd:typedAs <http://www.assero.co.uk/CSN#d2f2bbeb-8f79-4fb1-b190-dd864d29f080> ;
	bd:classifiedAs <http://www.assero.co.uk/CSN#4bb7578c-6705-4d2e-93d6-b56960d9e21e> ;
.
<http://www.cdisc.org/SDTM_MODEL_DM/V7#CL_AGE>
	rdf:type bd:SdtmClassVariable ;
	isoC:label "Age"^^xsd:string ;
	bd:rule ""^^xsd:string ;
	bd:ordinal "19"^^xsd:positiveInteger ;
	bd:name "AGE"^^xsd:string ;
	bd:prefixed "false"^^xsd:boolean ;
	bd:description "Age expressed in AGEU. May be derived as (RFSTDTC-BRTHDTC), but BRTHDTC may not be available in all cases (due to subject privacy concerns)."^^xsd:string ;
	bd:typedAs <http://www.assero.co.uk/CSN#178f8dbe-c3ba-4dc0-8a2a-18081644b4c6> ;
	bd:classifiedAs <http://www.assero.co.uk/CSN#4bb7578c-6705-4d2e-93d6-b56960d9e21e> ;
.
<http://www.cdisc.org/SDTM_MODEL_DM/V7#CL_AGETXT>
	rdf:type bd:SdtmClassVariable ;
	isoC:label "Age Text"^^xsd:string ;
	bd:rule ""^^xsd:string ;
	bd:ordinal "20"^^xsd:positiveInteger ;
	bd:name "AGETXT"^^xsd:string ;
	bd:prefixed "false"^^xsd:boolean ;
	bd:description "The age of the subject at study start, as planned, expressed as a range. If an age integer value is available, then populate the age variable instead. Either the AGE or AGETXT variable should be populated, but not both."^^xsd:string ;
	bd:typedAs <http://www.assero.co.uk/CSN#d2f2bbeb-8f79-4fb1-b190-dd864d29f080> ;
	bd:classifiedAs <http://www.assero.co.uk/CSN#4bb7578c-6705-4d2e-93d6-b56960d9e21e> ;
.
<http://www.cdisc.org/SDTM_MODEL_DM/V7#CL_AGEU>
	rdf:type bd:SdtmClassVariable ;
	isoC:label "Age Units"^^xsd:string ;
	bd:rule ""^^xsd:string ;
	bd:ordinal "21"^^xsd:positiveInteger ;
	bd:name "AGEU"^^xsd:string ;
	bd:prefixed "false"^^xsd:boolean ;
	bd:description "Units associated with AGE or AGETXT."^^xsd:string ;
	bd:typedAs <http://www.assero.co.uk/CSN#d2f2bbeb-8f79-4fb1-b190-dd864d29f080> ;
.
<http://www.cdisc.org/SDTM_MODEL_DM/V7#CL_SEX>
	rdf:type bd:SdtmClassVariable ;
	isoC:label "Sex"^^xsd:string ;
	bd:rule ""^^xsd:string ;
	bd:ordinal "22"^^xsd:positiveInteger ;
	bd:name "SEX"^^xsd:string ;
	bd:prefixed "false"^^xsd:boolean ;
	bd:description "Sex of the subject."^^xsd:string ;
	bd:typedAs <http://www.assero.co.uk/CSN#d2f2bbeb-8f79-4fb1-b190-dd864d29f080> ;
	bd:classifiedAs <http://www.assero.co.uk/CSN#4bb7578c-6705-4d2e-93d6-b56960d9e21e> ;
.
<http://www.cdisc.org/SDTM_MODEL_DM/V7#CL_RACE>
	rdf:type bd:SdtmClassVariable ;
	isoC:label "Race"^^xsd:string ;
	bd:rule ""^^xsd:string ;
	bd:ordinal "23"^^xsd:positiveInteger ;
	bd:name "RACE"^^xsd:string ;
	bd:prefixed "false"^^xsd:boolean ;
	bd:description "Race of the subject. Sponsors should refer to the FDA guidance regarding the collection of race data.1"^^xsd:string ;
	bd:typedAs <http://www.assero.co.uk/CSN#d2f2bbeb-8f79-4fb1-b190-dd864d29f080> ;
	bd:classifiedAs <http://www.assero.co.uk/CSN#4bb7578c-6705-4d2e-93d6-b56960d9e21e> ;
.
<http://www.cdisc.org/SDTM_MODEL_DM/V7#CL_ETHNIC>
	rdf:type bd:SdtmClassVariable ;
	isoC:label "Ethnicity"^^xsd:string ;
	bd:rule ""^^xsd:string ;
	bd:ordinal "24"^^xsd:positiveInteger ;
	bd:name "ETHNIC"^^xsd:string ;
	bd:prefixed "false"^^xsd:boolean ;
	bd:description "The ethnicity of the subject. Sponsors should refer to the FDA guidance regarding the collection of ethnicity data.1"^^xsd:string ;
	bd:typedAs <http://www.assero.co.uk/CSN#d2f2bbeb-8f79-4fb1-b190-dd864d29f080> ;
	bd:classifiedAs <http://www.assero.co.uk/CSN#4bb7578c-6705-4d2e-93d6-b56960d9e21e> ;
.
<http://www.cdisc.org/SDTM_MODEL_DM/V7#CL_SPECIES>
	rdf:type bd:SdtmClassVariable ;
	isoC:label "Species"^^xsd:string ;
	bd:rule ""^^xsd:string ;
	bd:ordinal "25"^^xsd:positiveInteger ;
	bd:name "SPECIES"^^xsd:string ;
	bd:prefixed "false"^^xsd:boolean ;
	bd:description "Used to identify the common species name of the subject (i.e., test system) under study (e.g., \"MOUSE\", \"RAT\", \"DOG\", \"MONKEY\"). Not to be used with human clinical trials."^^xsd:string ;
	bd:typedAs <http://www.assero.co.uk/CSN#d2f2bbeb-8f79-4fb1-b190-dd864d29f080> ;
	bd:classifiedAs <http://www.assero.co.uk/CSN#4bb7578c-6705-4d2e-93d6-b56960d9e21e> ;
.
<http://www.cdisc.org/SDTM_MODEL_DM/V7#CL_STRAIN>
	rdf:type bd:SdtmClassVariable ;
	isoC:label "Strain/Substrain"^^xsd:string ;
	bd:rule ""^^xsd:string ;
	bd:ordinal "26"^^xsd:positiveInteger ;
	bd:name "STRAIN"^^xsd:string ;
	bd:prefixed "false"^^xsd:boolean ;
	bd:description "Used to identify the vendor-supplied strain/substrain designation for the subject (i.e., test system) under study. When applicable, it combines the root strain, substrain, and associated genetic modifications, as supplied by the vendor (e.g., \"C57BL/6\", \"A/J\", \"B6.129-Pparg<tm2Rev>/J\", \"FISCHER 344\", \"SPRAGUE DAWLEY IGS\", \"WISTAR Kyoto\", \"BEAGLE\", \"CYNOMOLGUS\", \"CHIMPANZEE\"). Not to be used with human clinical trials."^^xsd:string ;
	bd:typedAs <http://www.assero.co.uk/CSN#d2f2bbeb-8f79-4fb1-b190-dd864d29f080> ;
	bd:classifiedAs <http://www.assero.co.uk/CSN#4bb7578c-6705-4d2e-93d6-b56960d9e21e> ;
.
<http://www.cdisc.org/SDTM_MODEL_DM/V7#CL_SBSTRAIN>
	rdf:type bd:SdtmClassVariable ;
	isoC:label "Strain/Substrain Details"^^xsd:string ;
	bd:rule ""^^xsd:string ;
	bd:ordinal "27"^^xsd:positiveInteger ;
	bd:name "SBSTRAIN"^^xsd:string ;
	bd:prefixed "false"^^xsd:boolean ;
	bd:description "Free-text field that allows the sponsor to enter additional details regarding the subject (i.e. test system) under study, such as a description of a specific genetic alteration. Not to be used with human clinical trials."^^xsd:string ;
	bd:typedAs <http://www.assero.co.uk/CSN#d2f2bbeb-8f79-4fb1-b190-dd864d29f080> ;
.
<http://www.cdisc.org/SDTM_MODEL_DM/V7#CL_ARMCD>
	rdf:type bd:SdtmClassVariable ;
	isoC:label "Planned Arm Code"^^xsd:string ;
	bd:rule ""^^xsd:string ;
	bd:ordinal "28"^^xsd:positiveInteger ;
	bd:name "ARMCD"^^xsd:string ;
	bd:prefixed "false"^^xsd:boolean ;
	bd:description "Short name for the Arm to which the subject was assigned, limited to 20 characters."^^xsd:string ;
	bd:typedAs <http://www.assero.co.uk/CSN#d2f2bbeb-8f79-4fb1-b190-dd864d29f080> ;
	bd:classifiedAs <http://www.assero.co.uk/CSN#4bb7578c-6705-4d2e-93d6-b56960d9e21e> ;
.
<http://www.cdisc.org/SDTM_MODEL_DM/V7#CL_ARM>
	rdf:type bd:SdtmClassVariable ;
	isoC:label "Description of Planned Arm"^^xsd:string ;
	bd:rule ""^^xsd:string ;
	bd:ordinal "29"^^xsd:positiveInteger ;
	bd:name "ARM"^^xsd:string ;
	bd:prefixed "false"^^xsd:boolean ;
	bd:description "Name of the Arm to which the subject was assigned."^^xsd:string ;
	bd:typedAs <http://www.assero.co.uk/CSN#d2f2bbeb-8f79-4fb1-b190-dd864d29f080> ;
	bd:classifiedAs <http://www.assero.co.uk/CSN#818a9757-1ee5-4bd3-a179-e662e26b5b47> ;
.
<http://www.cdisc.org/SDTM_MODEL_DM/V7#CL_ACTARMCD>
	rdf:type bd:SdtmClassVariable ;
	isoC:label "Actual Arm Code"^^xsd:string ;
	bd:rule ""^^xsd:string ;
	bd:ordinal "30"^^xsd:positiveInteger ;
	bd:name "ACTARMCD"^^xsd:string ;
	bd:prefixed "false"^^xsd:boolean ;
	bd:description "Short name for the actual Arm in which the subject participated during the trial, limited to 20 characters."^^xsd:string ;
	bd:typedAs <http://www.assero.co.uk/CSN#d2f2bbeb-8f79-4fb1-b190-dd864d29f080> ;
	bd:classifiedAs <http://www.assero.co.uk/CSN#4bb7578c-6705-4d2e-93d6-b56960d9e21e> ;
.
<http://www.cdisc.org/SDTM_MODEL_DM/V7#CL_ACTARM>
	rdf:type bd:SdtmClassVariable ;
	isoC:label "Description of Actual Arm"^^xsd:string ;
	bd:rule ""^^xsd:string ;
	bd:ordinal "31"^^xsd:positiveInteger ;
	bd:name "ACTARM"^^xsd:string ;
	bd:prefixed "false"^^xsd:boolean ;
	bd:description "Description of the actual Arm in which the subject participated during the trial."^^xsd:string ;
	bd:typedAs <http://www.assero.co.uk/CSN#d2f2bbeb-8f79-4fb1-b190-dd864d29f080> ;
	bd:classifiedAs <http://www.assero.co.uk/CSN#818a9757-1ee5-4bd3-a179-e662e26b5b47> ;
.
<http://www.cdisc.org/SDTM_MODEL_DM/V7#CL_ARMNRS>
	rdf:type bd:SdtmClassVariable ;
	isoC:label "Reason Arm and/or Actual Arm is Null"^^xsd:string ;
	bd:rule ""^^xsd:string ;
	bd:ordinal "32"^^xsd:positiveInteger ;
	bd:name "ARMNRS"^^xsd:string ;
	bd:prefixed "false"^^xsd:boolean ;
	bd:description "The reason why the actual arm variables are null or why both the planned and actual arm variables are null. Examples: \"SCREEN FAILURE\", \"NOT ASSIGNED\", \"NOT TREATED\", \"UNPLANNED TREATMENT\". It is assumed that if the arm and actual arm variables are null, the same reason applies to both."^^xsd:string ;
	bd:typedAs <http://www.assero.co.uk/CSN#d2f2bbeb-8f79-4fb1-b190-dd864d29f080> ;
	bd:classifiedAs <http://www.assero.co.uk/CSN#4bb7578c-6705-4d2e-93d6-b56960d9e21e> ;
.
<http://www.cdisc.org/SDTM_MODEL_DM/V7#CL_ACTARMUD>
	rdf:type bd:SdtmClassVariable ;
	isoC:label "Description of Unplanned Actual Arm"^^xsd:string ;
	bd:rule ""^^xsd:string ;
	bd:ordinal "33"^^xsd:positiveInteger ;
	bd:name "ACTARMUD"^^xsd:string ;
	bd:prefixed "false"^^xsd:boolean ;
	bd:description "A description of actual treatment for a subject who did not receive treatment described in one of the planned trial arms."^^xsd:string ;
	bd:typedAs <http://www.assero.co.uk/CSN#d2f2bbeb-8f79-4fb1-b190-dd864d29f080> ;
	bd:classifiedAs <http://www.assero.co.uk/CSN#4bb7578c-6705-4d2e-93d6-b56960d9e21e> ;
.
<http://www.cdisc.org/SDTM_MODEL_DM/V7#CL_SETCD>
	rdf:type bd:SdtmClassVariable ;
	isoC:label "Set Code"^^xsd:string ;
	bd:rule ""^^xsd:string ;
	bd:ordinal "34"^^xsd:positiveInteger ;
	bd:name "SETCD"^^xsd:string ;
	bd:prefixed "false"^^xsd:boolean ;
	bd:description "Short name of a specific Trial Set, as defined by the sponsor (see Section 3.1.4, Trial Sets). Maximum of 8 characters. This represents the code for the Trial Set for which parameters are being submitted."^^xsd:string ;
	bd:typedAs <http://www.assero.co.uk/CSN#d2f2bbeb-8f79-4fb1-b190-dd864d29f080> ;
	bd:classifiedAs <http://www.assero.co.uk/CSN#4bb7578c-6705-4d2e-93d6-b56960d9e21e> ;
.
<http://www.cdisc.org/SDTM_MODEL_DM/V7#CL_RPATHCD>
	rdf:type bd:SdtmClassVariable ;
	isoC:label "Planned Repro Path Code"^^xsd:string ;
	bd:rule ""^^xsd:string ;
	bd:ordinal "35"^^xsd:positiveInteger ;
	bd:name "RPATHCD"^^xsd:string ;
	bd:prefixed "false"^^xsd:boolean ;
	bd:description "Short name for the planned Repro Path to which the subject was assigned. Limited to 20 characters. Not to be used with human clinical trials."^^xsd:string ;
	bd:typedAs <http://www.assero.co.uk/CSN#d2f2bbeb-8f79-4fb1-b190-dd864d29f080> ;
	bd:classifiedAs <http://www.assero.co.uk/CSN#4bb7578c-6705-4d2e-93d6-b56960d9e21e> ;
.
<http://www.cdisc.org/SDTM_MODEL_DM/V7#CL_COUNTRY>
	rdf:type bd:SdtmClassVariable ;
	isoC:label "Country"^^xsd:string ;
	bd:rule ""^^xsd:string ;
	bd:ordinal "36"^^xsd:positiveInteger ;
	bd:name "COUNTRY"^^xsd:string ;
	bd:prefixed "false"^^xsd:boolean ;
	bd:description "Country of the investigation site at which the subject participated in the trial."^^xsd:string ;
	bd:typedAs <http://www.assero.co.uk/CSN#d2f2bbeb-8f79-4fb1-b190-dd864d29f080> ;
	bd:classifiedAs <http://www.assero.co.uk/CSN#4bb7578c-6705-4d2e-93d6-b56960d9e21e> ;
.
<http://www.cdisc.org/SDTM_MODEL_DM/V7#CL_DMDTC>
	rdf:type bd:SdtmClassVariable ;
	isoC:label "Date/Time of Collection"^^xsd:string ;
	bd:rule ""^^xsd:string ;
	bd:ordinal "37"^^xsd:positiveInteger ;
	bd:name "DMDTC"^^xsd:string ;
	bd:prefixed "false"^^xsd:boolean ;
	bd:description "Date/time of collection of the demographic information."^^xsd:string ;
	bd:typedAs <http://www.assero.co.uk/CSN#d2f2bbeb-8f79-4fb1-b190-dd864d29f080> ;
	bd:classifiedAs <http://www.assero.co.uk/CSN#2c3ff386-a062-47f5-b594-eef7ead02243> ;
.
<http://www.cdisc.org/SDTM_MODEL_DM/V7#CL_DMDY>
	rdf:type bd:SdtmClassVariable ;
	isoC:label "Study Day of Collection"^^xsd:string ;
	bd:rule ""^^xsd:string ;
	bd:ordinal "38"^^xsd:positiveInteger ;
	bd:name "DMDY"^^xsd:string ;
	bd:prefixed "false"^^xsd:boolean ;
	bd:description "Study day of collection measured as integer days. Algorithm for calculations must be relative to the sponsor-defined RFSTDTC in Demographics."^^xsd:string ;
	bd:typedAs <http://www.assero.co.uk/CSN#178f8dbe-c3ba-4dc0-8a2a-18081644b4c6> ;
	bd:classifiedAs <http://www.assero.co.uk/CSN#2c3ff386-a062-47f5-b594-eef7ead02243> ;
.
<http://www.cdisc.org/SDTM_MODEL_CO/V7#CL>
	rdf:type bd:SdtmClass ;
	isoC:label "CO"^^xsd:string ;
	isoT:hasState <http://www.cdisc.org/SDTM_MODEL_CO/V7#CL_RS> ;
	isoT:hasIdentifier <http://www.cdisc.org/SDTM_MODEL_CO/V7#CL_SI> ;
	isoT:hasPreviousVersion <http://www.cdisc.org/SDTM_MODEL_CO/V6#CL> ;
	isoT:origin ""^^xsd:string ;
	isoT:changeDescription ""^^xsd:string ;
	isoT:creationDate "2019-09-17T00:00:00+00:00"^^xsd:dateTime ;
	isoT:lastChangeDate "2019-09-17T00:00:00+00:00"^^xsd:dateTime ;
	isoT:explanatoryComment ""^^xsd:string ;
	bd:rule ""^^xsd:string ;
	bd:ordinal "1"^^xsd:positiveInteger ;
	bd:includesColumn <http://www.cdisc.org/SDTM_MODEL_CO/V1#CL_STUDYID> ;
	bd:includesColumn <http://www.cdisc.org/SDTM_MODEL_CO/V6#CL_DOMAIN> ;
	bd:includesColumn <http://www.cdisc.org/SDTM_MODEL_CO/V6#CL_RDOMAIN> ;
	bd:includesColumn <http://www.cdisc.org/SDTM_MODEL_CO/V6#CL_USUBJID> ;
	bd:includesColumn <http://www.cdisc.org/SDTM_MODEL_CO/V6#CL_POOLID> ;
	bd:includesColumn <http://www.cdisc.org/SDTM_MODEL_CO/V6#CL_COSEQ> ;
	bd:includesColumn <http://www.cdisc.org/SDTM_MODEL_CO/V6#CL_IDVAR> ;
	bd:includesColumn <http://www.cdisc.org/SDTM_MODEL_CO/V6#CL_IDVARVAL> ;
	bd:includesColumn <http://www.cdisc.org/SDTM_MODEL_CO/V6#CL_COREF> ;
	bd:includesColumn <http://www.cdisc.org/SDTM_MODEL_CO/V6#CL_COVAL> ;
	bd:includesColumn <http://www.cdisc.org/SDTM_MODEL_CO/V6#CL_COEVAL> ;
	bd:includesColumn <http://www.cdisc.org/SDTM_MODEL_CO/V7#CL_COEVALID> ;
	bd:includesColumn <http://www.cdisc.org/SDTM_MODEL_CO/V6#CL_CODTC> ;
	bd:includesColumn <http://www.cdisc.org/SDTM_MODEL_CO/V6#CL_CODY> ;
.
<http://www.cdisc.org/SDTM_MODEL_CO/V7#CL_RS>
	rdf:type isoR:RegistrationState ;
	isoR:registrationStatus "Standard"^^xsd:string ;
	isoR:administrativeNote ""^^xsd:string ;
	isoR:effectiveDate "2016-01-01T00:00:00+00:00"^^xsd:dateTime ;
	isoR:untilDate "2016-01-01T00:00:00+00:00"^^xsd:dateTime ;
	isoR:unresolvedIssue ""^^xsd:string ;
	isoR:administrativeStatus ""^^xsd:string ;
	isoR:previousState "Standard"^^xsd:string ;
	isoR:multipleEdit "false"^^xsd:boolean ;
	isoR:byAuthority <http://www.assero.co.uk/RA#DUNS084433759> ;
.
<http://www.cdisc.org/SDTM_MODEL_CO/V7#CL_SI>
	rdf:type isoI:ScopedIdentifier ;
	isoI:identifier "SDTM MODEL CO"^^xsd:string ;
	isoI:versionLabel "2019-09-17 Release"^^xsd:string ;
	isoI:version "7"^^xsd:positiveInteger ;
	isoI:semanticVersion "7.0.0"^^xsd:string ;
	isoI:hasScope <http://www.assero.co.uk/NS#CDISC> ;
.
<http://www.cdisc.org/SDTM_MODEL_CO/V7#CL_COEVALID>
	rdf:type bd:SdtmClassVariable ;
	isoC:label "Evaluator Identifier"^^xsd:string ;
	bd:rule ""^^xsd:string ;
	bd:ordinal "12"^^xsd:positiveInteger ;
	bd:name "COEVALID"^^xsd:string ;
	bd:prefixed "false"^^xsd:boolean ;
	bd:description "Used to distinguish multiple evaluators with the same role recorded in --EVAL. Examples: \"RADIOLOGIST1\", \"RADIOLOGIST2\"."^^xsd:string ;
	bd:typedAs <http://www.assero.co.uk/CSN#d2f2bbeb-8f79-4fb1-b190-dd864d29f080> ;
.
<http://www.cdisc.org/SDTM_MODEL_SE/V7#CL>
	rdf:type bd:SdtmClass ;
	isoC:label "SE"^^xsd:string ;
	isoT:hasState <http://www.cdisc.org/SDTM_MODEL_SE/V7#CL_RS> ;
	isoT:hasIdentifier <http://www.cdisc.org/SDTM_MODEL_SE/V7#CL_SI> ;
	isoT:hasPreviousVersion <http://www.cdisc.org/SDTM_MODEL_SE/V6#CL> ;
	isoT:origin ""^^xsd:string ;
	isoT:changeDescription ""^^xsd:string ;
	isoT:creationDate "2019-09-17T00:00:00+00:00"^^xsd:dateTime ;
	isoT:lastChangeDate "2019-09-17T00:00:00+00:00"^^xsd:dateTime ;
	isoT:explanatoryComment ""^^xsd:string ;
	bd:rule ""^^xsd:string ;
	bd:ordinal "1"^^xsd:positiveInteger ;
	bd:includesColumn <http://www.cdisc.org/SDTM_MODEL_SE/V1#CL_STUDYID> ;
	bd:includesColumn <http://www.cdisc.org/SDTM_MODEL_SE/V6#CL_DOMAIN> ;
	bd:includesColumn <http://www.cdisc.org/SDTM_MODEL_SE/V1#CL_USUBJID> ;
	bd:includesColumn <http://www.cdisc.org/SDTM_MODEL_SE/V6#CL_SESEQ> ;
	bd:includesColumn <http://www.cdisc.org/SDTM_MODEL_SE/V6#CL_ETCD> ;
	bd:includesColumn <http://www.cdisc.org/SDTM_MODEL_SE/V7#CL_ELEMENT> ;
	bd:includesColumn <http://www.cdisc.org/SDTM_MODEL_SE/V6#CL_TAETORD> ;
	bd:includesColumn <http://www.cdisc.org/SDTM_MODEL_SE/V6#CL_EPOCH> ;
	bd:includesColumn <http://www.cdisc.org/SDTM_MODEL_SE/V6#CL_SESTDTC> ;
	bd:includesColumn <http://www.cdisc.org/SDTM_MODEL_SE/V6#CL_SEENDTC> ;
	bd:includesColumn <http://www.cdisc.org/SDTM_MODEL_SE/V7#CL_SEUPDES> ;
.
<http://www.cdisc.org/SDTM_MODEL_SE/V7#CL_RS>
	rdf:type isoR:RegistrationState ;
	isoR:registrationStatus "Standard"^^xsd:string ;
	isoR:administrativeNote ""^^xsd:string ;
	isoR:effectiveDate "2016-01-01T00:00:00+00:00"^^xsd:dateTime ;
	isoR:untilDate "2016-01-01T00:00:00+00:00"^^xsd:dateTime ;
	isoR:unresolvedIssue ""^^xsd:string ;
	isoR:administrativeStatus ""^^xsd:string ;
	isoR:previousState "Standard"^^xsd:string ;
	isoR:multipleEdit "false"^^xsd:boolean ;
	isoR:byAuthority <http://www.assero.co.uk/RA#DUNS084433759> ;
.
<http://www.cdisc.org/SDTM_MODEL_SE/V7#CL_SI>
	rdf:type isoI:ScopedIdentifier ;
	isoI:identifier "SDTM MODEL SE"^^xsd:string ;
	isoI:versionLabel "2019-09-17 Release"^^xsd:string ;
	isoI:version "7"^^xsd:positiveInteger ;
	isoI:semanticVersion "7.0.0"^^xsd:string ;
	isoI:hasScope <http://www.assero.co.uk/NS#CDISC> ;
.
<http://www.cdisc.org/SDTM_MODEL_SE/V7#CL_ELEMENT>
	rdf:type bd:SdtmClassVariable ;
	isoC:label "Description of Element"^^xsd:string ;
	bd:rule ""^^xsd:string ;
	bd:ordinal "6"^^xsd:positiveInteger ;
	bd:name "ELEMENT"^^xsd:string ;
	bd:prefixed "false"^^xsd:boolean ;
	bd:description "The name of the Element. If ETCD has a value of \"UNPLAN\" then ELEMENT should be null."^^xsd:string ;
	bd:typedAs <http://www.assero.co.uk/CSN#d2f2bbeb-8f79-4fb1-b190-dd864d29f080> ;
	bd:classifiedAs <http://www.assero.co.uk/CSN#818a9757-1ee5-4bd3-a179-e662e26b5b47> ;
.
<http://www.cdisc.org/SDTM_MODEL_SE/V7#CL_SEUPDES>
	rdf:type bd:SdtmClassVariable ;
	isoC:label "Description of Unplanned Element"^^xsd:string ;
	bd:rule ""^^xsd:string ;
	bd:ordinal "11"^^xsd:positiveInteger ;
	bd:name "SEUPDES"^^xsd:string ;
	bd:prefixed "false"^^xsd:boolean ;
	bd:description "Description of what happened to the subject during an unplanned Element. Used only if ETCD has the value of \"UNPLAN\"."^^xsd:string ;
	bd:typedAs <http://www.assero.co.uk/CSN#d2f2bbeb-8f79-4fb1-b190-dd864d29f080> ;
	bd:classifiedAs <http://www.assero.co.uk/CSN#818a9757-1ee5-4bd3-a179-e662e26b5b47> ;
.
<http://www.cdisc.org/SDTM_MODEL_SV/V7#CL>
	rdf:type bd:SdtmClass ;
	isoC:label "SV"^^xsd:string ;
	isoT:hasState <http://www.cdisc.org/SDTM_MODEL_SV/V7#CL_RS> ;
	isoT:hasIdentifier <http://www.cdisc.org/SDTM_MODEL_SV/V7#CL_SI> ;
	isoT:hasPreviousVersion <http://www.cdisc.org/SDTM_MODEL_SV/V6#CL> ;
	isoT:origin ""^^xsd:string ;
	isoT:changeDescription ""^^xsd:string ;
	isoT:creationDate "2019-09-17T00:00:00+00:00"^^xsd:dateTime ;
	isoT:lastChangeDate "2019-09-17T00:00:00+00:00"^^xsd:dateTime ;
	isoT:explanatoryComment ""^^xsd:string ;
	bd:rule ""^^xsd:string ;
	bd:ordinal "1"^^xsd:positiveInteger ;
	bd:includesColumn <http://www.cdisc.org/SDTM_MODEL_SV/V1#CL_STUDYID> ;
	bd:includesColumn <http://www.cdisc.org/SDTM_MODEL_SV/V6#CL_DOMAIN> ;
	bd:includesColumn <http://www.cdisc.org/SDTM_MODEL_SV/V1#CL_USUBJID> ;
	bd:includesColumn <http://www.cdisc.org/SDTM_MODEL_SV/V6#CL_VISITNUM> ;
	bd:includesColumn <http://www.cdisc.org/SDTM_MODEL_SV/V6#CL_VISIT> ;
	bd:includesColumn <http://www.cdisc.org/SDTM_MODEL_SV/V2#CL_VISITDY> ;
	bd:includesColumn <http://www.cdisc.org/SDTM_MODEL_SV/V6#CL_SVSTDTC> ;
	bd:includesColumn <http://www.cdisc.org/SDTM_MODEL_SV/V6#CL_SVENDTC> ;
	bd:includesColumn <http://www.cdisc.org/SDTM_MODEL_SV/V1#CL_SVSTDY> ;
	bd:includesColumn <http://www.cdisc.org/SDTM_MODEL_SV/V1#CL_SVENDY> ;
	bd:includesColumn <http://www.cdisc.org/SDTM_MODEL_SV/V7#CL_SVUPDES> ;
.
<http://www.cdisc.org/SDTM_MODEL_SV/V7#CL_RS>
	rdf:type isoR:RegistrationState ;
	isoR:registrationStatus "Standard"^^xsd:string ;
	isoR:administrativeNote ""^^xsd:string ;
	isoR:effectiveDate "2016-01-01T00:00:00+00:00"^^xsd:dateTime ;
	isoR:untilDate "2016-01-01T00:00:00+00:00"^^xsd:dateTime ;
	isoR:unresolvedIssue ""^^xsd:string ;
	isoR:administrativeStatus ""^^xsd:string ;
	isoR:previousState "Standard"^^xsd:string ;
	isoR:multipleEdit "false"^^xsd:boolean ;
	isoR:byAuthority <http://www.assero.co.uk/RA#DUNS084433759> ;
.
<http://www.cdisc.org/SDTM_MODEL_SV/V7#CL_SI>
	rdf:type isoI:ScopedIdentifier ;
	isoI:identifier "SDTM MODEL SV"^^xsd:string ;
	isoI:versionLabel "2019-09-17 Release"^^xsd:string ;
	isoI:version "7"^^xsd:positiveInteger ;
	isoI:semanticVersion "7.0.0"^^xsd:string ;
	isoI:hasScope <http://www.assero.co.uk/NS#CDISC> ;
.
<http://www.cdisc.org/SDTM_MODEL_SV/V7#CL_SVUPDES>
	rdf:type bd:SdtmClassVariable ;
	isoC:label "Description of Unplanned Visit"^^xsd:string ;
	bd:rule ""^^xsd:string ;
	bd:ordinal "11"^^xsd:positiveInteger ;
	bd:name "SVUPDES"^^xsd:string ;
	bd:prefixed "false"^^xsd:boolean ;
	bd:description "Description of what happened to the subject during an unplanned visit. Null for protocol-defined visits."^^xsd:string ;
	bd:typedAs <http://www.assero.co.uk/CSN#d2f2bbeb-8f79-4fb1-b190-dd864d29f080> ;
	bd:classifiedAs <http://www.assero.co.uk/CSN#818a9757-1ee5-4bd3-a179-e662e26b5b47> ;
.
<http://www.cdisc.org/SDTM_MODEL_SM/V7#CL>
	rdf:type bd:SdtmClass ;
	isoC:label "SM"^^xsd:string ;
	isoT:hasState <http://www.cdisc.org/SDTM_MODEL_SM/V7#CL_RS> ;
	isoT:hasIdentifier <http://www.cdisc.org/SDTM_MODEL_SM/V7#CL_SI> ;
	isoT:hasPreviousVersion <http://www.cdisc.org/SDTM_MODEL_SM/V6#CL> ;
	isoT:origin ""^^xsd:string ;
	isoT:changeDescription ""^^xsd:string ;
	isoT:creationDate "2019-09-17T00:00:00+00:00"^^xsd:dateTime ;
	isoT:lastChangeDate "2019-09-17T00:00:00+00:00"^^xsd:dateTime ;
	isoT:explanatoryComment ""^^xsd:string ;
	bd:rule ""^^xsd:string ;
	bd:ordinal "1"^^xsd:positiveInteger ;
	bd:includesColumn <http://www.cdisc.org/SDTM_MODEL_SM/V6#CL_STUDYID> ;
	bd:includesColumn <http://www.cdisc.org/SDTM_MODEL_SM/V6#CL_DOMAIN> ;
	bd:includesColumn <http://www.cdisc.org/SDTM_MODEL_SM/V6#CL_USUBJID> ;
	bd:includesColumn <http://www.cdisc.org/SDTM_MODEL_SM/V6#CL_SMSEQ> ;
	bd:includesColumn <http://www.cdisc.org/SDTM_MODEL_SM/V6#CL_MIDS> ;
	bd:includesColumn <http://www.cdisc.org/SDTM_MODEL_SM/V6#CL_MIDSTYPE> ;
	bd:includesColumn <http://www.cdisc.org/SDTM_MODEL_SM/V6#CL_SMSTDTC> ;
	bd:includesColumn <http://www.cdisc.org/SDTM_MODEL_SM/V6#CL_SMENDTC> ;
	bd:includesColumn <http://www.cdisc.org/SDTM_MODEL_SM/V6#CL_SMSTDY> ;
	bd:includesColumn <http://www.cdisc.org/SDTM_MODEL_SM/V6#CL_SMENDY> ;
.
<http://www.cdisc.org/SDTM_MODEL_SM/V7#CL_RS>
	rdf:type isoR:RegistrationState ;
	isoR:registrationStatus "Standard"^^xsd:string ;
	isoR:administrativeNote ""^^xsd:string ;
	isoR:effectiveDate "2016-01-01T00:00:00+00:00"^^xsd:dateTime ;
	isoR:untilDate "2016-01-01T00:00:00+00:00"^^xsd:dateTime ;
	isoR:unresolvedIssue ""^^xsd:string ;
	isoR:administrativeStatus ""^^xsd:string ;
	isoR:previousState "Standard"^^xsd:string ;
	isoR:multipleEdit "false"^^xsd:boolean ;
	isoR:byAuthority <http://www.assero.co.uk/RA#DUNS084433759> ;
.
<http://www.cdisc.org/SDTM_MODEL_SM/V7#CL_SI>
	rdf:type isoI:ScopedIdentifier ;
	isoI:identifier "SDTM MODEL SM"^^xsd:string ;
	isoI:versionLabel "2019-09-17 Release"^^xsd:string ;
	isoI:version "7"^^xsd:positiveInteger ;
	isoI:semanticVersion "7.0.0"^^xsd:string ;
	isoI:hasScope <http://www.assero.co.uk/NS#CDISC> ;
.
<http://www.cdisc.org/SDTM_MODEL_SJ/V7#CL>
	rdf:type bd:SdtmClass ;
	isoC:label "SJ"^^xsd:string ;
	isoT:hasState <http://www.cdisc.org/SDTM_MODEL_SJ/V7#CL_RS> ;
	isoT:hasIdentifier <http://www.cdisc.org/SDTM_MODEL_SJ/V7#CL_SI> ;
	isoT:hasPreviousVersion <http://www.cdisc.org/SDTM_MODEL_SJ/V6#CL> ;
	isoT:origin ""^^xsd:string ;
	isoT:changeDescription ""^^xsd:string ;
	isoT:creationDate "2019-09-17T00:00:00+00:00"^^xsd:dateTime ;
	isoT:lastChangeDate "2019-09-17T00:00:00+00:00"^^xsd:dateTime ;
	isoT:explanatoryComment ""^^xsd:string ;
	bd:rule ""^^xsd:string ;
	bd:ordinal "1"^^xsd:positiveInteger ;
	bd:includesColumn <http://www.cdisc.org/SDTM_MODEL_SJ/V6#CL_STUDYID> ;
	bd:includesColumn <http://www.cdisc.org/SDTM_MODEL_SJ/V6#CL_DOMAIN> ;
	bd:includesColumn <http://www.cdisc.org/SDTM_MODEL_SJ/V6#CL_USUBJID> ;
	bd:includesColumn <http://www.cdisc.org/SDTM_MODEL_SJ/V6#CL_SJSEQ> ;
	bd:includesColumn <http://www.cdisc.org/SDTM_MODEL_SJ/V6#CL_RSTGCD> ;
	bd:includesColumn <http://www.cdisc.org/SDTM_MODEL_SJ/V7#CL_RSTAGE> ;
	bd:includesColumn <http://www.cdisc.org/SDTM_MODEL_SJ/V6#CL_SJSTDTC> ;
	bd:includesColumn <http://www.cdisc.org/SDTM_MODEL_SJ/V6#CL_SJENDTC> ;
	bd:includesColumn <http://www.cdisc.org/SDTM_MODEL_SJ/V6#CL_RPHASE> ;
	bd:includesColumn <http://www.cdisc.org/SDTM_MODEL_SJ/V7#CL_SJUPDES> ;
.
<http://www.cdisc.org/SDTM_MODEL_SJ/V7#CL_RS>
	rdf:type isoR:RegistrationState ;
	isoR:registrationStatus "Standard"^^xsd:string ;
	isoR:administrativeNote ""^^xsd:string ;
	isoR:effectiveDate "2016-01-01T00:00:00+00:00"^^xsd:dateTime ;
	isoR:untilDate "2016-01-01T00:00:00+00:00"^^xsd:dateTime ;
	isoR:unresolvedIssue ""^^xsd:string ;
	isoR:administrativeStatus ""^^xsd:string ;
	isoR:previousState "Standard"^^xsd:string ;
	isoR:multipleEdit "false"^^xsd:boolean ;
	isoR:byAuthority <http://www.assero.co.uk/RA#DUNS084433759> ;
.
<http://www.cdisc.org/SDTM_MODEL_SJ/V7#CL_SI>
	rdf:type isoI:ScopedIdentifier ;
	isoI:identifier "SDTM MODEL SJ"^^xsd:string ;
	isoI:versionLabel "2019-09-17 Release"^^xsd:string ;
	isoI:version "7"^^xsd:positiveInteger ;
	isoI:semanticVersion "7.0.0"^^xsd:string ;
	isoI:hasScope <http://www.assero.co.uk/NS#CDISC> ;
.
<http://www.cdisc.org/SDTM_MODEL_SJ/V7#CL_RSTAGE>
	rdf:type bd:SdtmClassVariable ;
	isoC:label "Description of Repro Stage"^^xsd:string ;
	bd:rule ""^^xsd:string ;
	bd:ordinal "6"^^xsd:positiveInteger ;
	bd:name "RSTAGE"^^xsd:string ;
	bd:prefixed "false"^^xsd:boolean ;
	bd:description "The name of the Repro Stage. If RSTGCD has a value of \"UNPLAN\" then RSTAGE should be null."^^xsd:string ;
	bd:typedAs <http://www.assero.co.uk/CSN#d2f2bbeb-8f79-4fb1-b190-dd864d29f080> ;
	bd:classifiedAs <http://www.assero.co.uk/CSN#818a9757-1ee5-4bd3-a179-e662e26b5b47> ;
.
<http://www.cdisc.org/SDTM_MODEL_SJ/V7#CL_SJUPDES>
	rdf:type bd:SdtmClassVariable ;
	isoC:label "Description of Unplanned Repro Stage"^^xsd:string ;
	bd:rule ""^^xsd:string ;
	bd:ordinal "10"^^xsd:positiveInteger ;
	bd:name "SJUPDES"^^xsd:string ;
	bd:prefixed "false"^^xsd:boolean ;
	bd:description "Description of what happened to the subject during an unplanned Repro Stage. Used only if RSTGCD has the value of \"UNPLAN\"."^^xsd:string ;
	bd:typedAs <http://www.assero.co.uk/CSN#d2f2bbeb-8f79-4fb1-b190-dd864d29f080> ;
	bd:classifiedAs <http://www.assero.co.uk/CSN#818a9757-1ee5-4bd3-a179-e662e26b5b47> ;
.
<http://www.cdisc.org/SDTM_MODEL_TE/V7#CL>
	rdf:type bd:SdtmClass ;
	isoC:label "TE"^^xsd:string ;
	isoT:hasState <http://www.cdisc.org/SDTM_MODEL_TE/V7#CL_RS> ;
	isoT:hasIdentifier <http://www.cdisc.org/SDTM_MODEL_TE/V7#CL_SI> ;
	isoT:hasPreviousVersion <http://www.cdisc.org/SDTM_MODEL_TE/V6#CL> ;
	isoT:origin ""^^xsd:string ;
	isoT:changeDescription ""^^xsd:string ;
	isoT:creationDate "2019-09-17T00:00:00+00:00"^^xsd:dateTime ;
	isoT:lastChangeDate "2019-09-17T00:00:00+00:00"^^xsd:dateTime ;
	isoT:explanatoryComment ""^^xsd:string ;
	bd:rule ""^^xsd:string ;
	bd:ordinal "1"^^xsd:positiveInteger ;
	bd:includesColumn <http://www.cdisc.org/SDTM_MODEL_TE/V1#CL_STUDYID> ;
	bd:includesColumn <http://www.cdisc.org/SDTM_MODEL_TE/V6#CL_DOMAIN> ;
	bd:includesColumn <http://www.cdisc.org/SDTM_MODEL_TE/V6#CL_ETCD> ;
	bd:includesColumn <http://www.cdisc.org/SDTM_MODEL_TE/V7#CL_ELEMENT> ;
	bd:includesColumn <http://www.cdisc.org/SDTM_MODEL_TE/V6#CL_TESTRL> ;
	bd:includesColumn <http://www.cdisc.org/SDTM_MODEL_TE/V6#CL_TEENRL> ;
	bd:includesColumn <http://www.cdisc.org/SDTM_MODEL_TE/V6#CL_TEDUR> ;
.
<http://www.cdisc.org/SDTM_MODEL_TE/V7#CL_RS>
	rdf:type isoR:RegistrationState ;
	isoR:registrationStatus "Standard"^^xsd:string ;
	isoR:administrativeNote ""^^xsd:string ;
	isoR:effectiveDate "2016-01-01T00:00:00+00:00"^^xsd:dateTime ;
	isoR:untilDate "2016-01-01T00:00:00+00:00"^^xsd:dateTime ;
	isoR:unresolvedIssue ""^^xsd:string ;
	isoR:administrativeStatus ""^^xsd:string ;
	isoR:previousState "Standard"^^xsd:string ;
	isoR:multipleEdit "false"^^xsd:boolean ;
	isoR:byAuthority <http://www.assero.co.uk/RA#DUNS084433759> ;
.
<http://www.cdisc.org/SDTM_MODEL_TE/V7#CL_SI>
	rdf:type isoI:ScopedIdentifier ;
	isoI:identifier "SDTM MODEL TE"^^xsd:string ;
	isoI:versionLabel "2019-09-17 Release"^^xsd:string ;
	isoI:version "7"^^xsd:positiveInteger ;
	isoI:semanticVersion "7.0.0"^^xsd:string ;
	isoI:hasScope <http://www.assero.co.uk/NS#CDISC> ;
.
<http://www.cdisc.org/SDTM_MODEL_TE/V7#CL_ELEMENT>
	rdf:type bd:SdtmClassVariable ;
	isoC:label "Description of Element"^^xsd:string ;
	bd:rule ""^^xsd:string ;
	bd:ordinal "4"^^xsd:positiveInteger ;
	bd:name "ELEMENT"^^xsd:string ;
	bd:prefixed "false"^^xsd:boolean ;
	bd:description "The name of the Element."^^xsd:string ;
	bd:typedAs <http://www.assero.co.uk/CSN#d2f2bbeb-8f79-4fb1-b190-dd864d29f080> ;
	bd:classifiedAs <http://www.assero.co.uk/CSN#818a9757-1ee5-4bd3-a179-e662e26b5b47> ;
.
<http://www.cdisc.org/SDTM_MODEL_TA/V7#CL>
	rdf:type bd:SdtmClass ;
	isoC:label "TA"^^xsd:string ;
	isoT:hasState <http://www.cdisc.org/SDTM_MODEL_TA/V7#CL_RS> ;
	isoT:hasIdentifier <http://www.cdisc.org/SDTM_MODEL_TA/V7#CL_SI> ;
	isoT:hasPreviousVersion <http://www.cdisc.org/SDTM_MODEL_TA/V6#CL> ;
	isoT:origin ""^^xsd:string ;
	isoT:changeDescription ""^^xsd:string ;
	isoT:creationDate "2019-09-17T00:00:00+00:00"^^xsd:dateTime ;
	isoT:lastChangeDate "2019-09-17T00:00:00+00:00"^^xsd:dateTime ;
	isoT:explanatoryComment ""^^xsd:string ;
	bd:rule ""^^xsd:string ;
	bd:ordinal "1"^^xsd:positiveInteger ;
	bd:includesColumn <http://www.cdisc.org/SDTM_MODEL_TA/V1#CL_STUDYID> ;
	bd:includesColumn <http://www.cdisc.org/SDTM_MODEL_TA/V6#CL_DOMAIN> ;
	bd:includesColumn <http://www.cdisc.org/SDTM_MODEL_TA/V6#CL_ARMCD> ;
	bd:includesColumn <http://www.cdisc.org/SDTM_MODEL_TA/V7#CL_ARM> ;
	bd:includesColumn <http://www.cdisc.org/SDTM_MODEL_TA/V6#CL_TAETORD> ;
	bd:includesColumn <http://www.cdisc.org/SDTM_MODEL_TA/V6#CL_ETCD> ;
	bd:includesColumn <http://www.cdisc.org/SDTM_MODEL_TA/V7#CL_ELEMENT> ;
	bd:includesColumn <http://www.cdisc.org/SDTM_MODEL_TA/V6#CL_TABRANCH> ;
	bd:includesColumn <http://www.cdisc.org/SDTM_MODEL_TA/V6#CL_TATRANS> ;
	bd:includesColumn <http://www.cdisc.org/SDTM_MODEL_TA/V6#CL_EPOCH> ;
.
<http://www.cdisc.org/SDTM_MODEL_TA/V7#CL_RS>
	rdf:type isoR:RegistrationState ;
	isoR:registrationStatus "Standard"^^xsd:string ;
	isoR:administrativeNote ""^^xsd:string ;
	isoR:effectiveDate "2016-01-01T00:00:00+00:00"^^xsd:dateTime ;
	isoR:untilDate "2016-01-01T00:00:00+00:00"^^xsd:dateTime ;
	isoR:unresolvedIssue ""^^xsd:string ;
	isoR:administrativeStatus ""^^xsd:string ;
	isoR:previousState "Standard"^^xsd:string ;
	isoR:multipleEdit "false"^^xsd:boolean ;
	isoR:byAuthority <http://www.assero.co.uk/RA#DUNS084433759> ;
.
<http://www.cdisc.org/SDTM_MODEL_TA/V7#CL_SI>
	rdf:type isoI:ScopedIdentifier ;
	isoI:identifier "SDTM MODEL TA"^^xsd:string ;
	isoI:versionLabel "2019-09-17 Release"^^xsd:string ;
	isoI:version "7"^^xsd:positiveInteger ;
	isoI:semanticVersion "7.0.0"^^xsd:string ;
	isoI:hasScope <http://www.assero.co.uk/NS#CDISC> ;
.
<http://www.cdisc.org/SDTM_MODEL_TA/V7#CL_ARM>
	rdf:type bd:SdtmClassVariable ;
	isoC:label "Description of Planned Arm"^^xsd:string ;
	bd:rule ""^^xsd:string ;
	bd:ordinal "4"^^xsd:positiveInteger ;
	bd:name "ARM"^^xsd:string ;
	bd:prefixed "false"^^xsd:boolean ;
	bd:description "Name given to Arm or treatment group."^^xsd:string ;
	bd:typedAs <http://www.assero.co.uk/CSN#d2f2bbeb-8f79-4fb1-b190-dd864d29f080> ;
	bd:classifiedAs <http://www.assero.co.uk/CSN#818a9757-1ee5-4bd3-a179-e662e26b5b47> ;
.
<http://www.cdisc.org/SDTM_MODEL_TA/V7#CL_ELEMENT>
	rdf:type bd:SdtmClassVariable ;
	isoC:label "Description of Element"^^xsd:string ;
	bd:rule ""^^xsd:string ;
	bd:ordinal "7"^^xsd:positiveInteger ;
	bd:name "ELEMENT"^^xsd:string ;
	bd:prefixed "false"^^xsd:boolean ;
	bd:description "The name of the Element."^^xsd:string ;
	bd:typedAs <http://www.assero.co.uk/CSN#d2f2bbeb-8f79-4fb1-b190-dd864d29f080> ;
	bd:classifiedAs <http://www.assero.co.uk/CSN#818a9757-1ee5-4bd3-a179-e662e26b5b47> ;
.
<http://www.cdisc.org/SDTM_MODEL_TV/V7#CL>
	rdf:type bd:SdtmClass ;
	isoC:label "TV"^^xsd:string ;
	isoT:hasState <http://www.cdisc.org/SDTM_MODEL_TV/V7#CL_RS> ;
	isoT:hasIdentifier <http://www.cdisc.org/SDTM_MODEL_TV/V7#CL_SI> ;
	isoT:hasPreviousVersion <http://www.cdisc.org/SDTM_MODEL_TV/V6#CL> ;
	isoT:origin ""^^xsd:string ;
	isoT:changeDescription ""^^xsd:string ;
	isoT:creationDate "2019-09-17T00:00:00+00:00"^^xsd:dateTime ;
	isoT:lastChangeDate "2019-09-17T00:00:00+00:00"^^xsd:dateTime ;
	isoT:explanatoryComment ""^^xsd:string ;
	bd:rule ""^^xsd:string ;
	bd:ordinal "1"^^xsd:positiveInteger ;
	bd:includesColumn <http://www.cdisc.org/SDTM_MODEL_TV/V1#CL_STUDYID> ;
	bd:includesColumn <http://www.cdisc.org/SDTM_MODEL_TV/V6#CL_DOMAIN> ;
	bd:includesColumn <http://www.cdisc.org/SDTM_MODEL_TV/V6#CL_VISITNUM> ;
	bd:includesColumn <http://www.cdisc.org/SDTM_MODEL_TV/V7#CL_VISIT> ;
	bd:includesColumn <http://www.cdisc.org/SDTM_MODEL_TV/V6#CL_VISITDY> ;
	bd:includesColumn <http://www.cdisc.org/SDTM_MODEL_TV/V6#CL_ARMCD> ;
	bd:includesColumn <http://www.cdisc.org/SDTM_MODEL_TV/V7#CL_ARM> ;
	bd:includesColumn <http://www.cdisc.org/SDTM_MODEL_TV/V6#CL_TVSTRL> ;
	bd:includesColumn <http://www.cdisc.org/SDTM_MODEL_TV/V6#CL_TVENRL> ;
.
<http://www.cdisc.org/SDTM_MODEL_TV/V7#CL_RS>
	rdf:type isoR:RegistrationState ;
	isoR:registrationStatus "Standard"^^xsd:string ;
	isoR:administrativeNote ""^^xsd:string ;
	isoR:effectiveDate "2016-01-01T00:00:00+00:00"^^xsd:dateTime ;
	isoR:untilDate "2016-01-01T00:00:00+00:00"^^xsd:dateTime ;
	isoR:unresolvedIssue ""^^xsd:string ;
	isoR:administrativeStatus ""^^xsd:string ;
	isoR:previousState "Standard"^^xsd:string ;
	isoR:multipleEdit "false"^^xsd:boolean ;
	isoR:byAuthority <http://www.assero.co.uk/RA#DUNS084433759> ;
.
<http://www.cdisc.org/SDTM_MODEL_TV/V7#CL_SI>
	rdf:type isoI:ScopedIdentifier ;
	isoI:identifier "SDTM MODEL TV"^^xsd:string ;
	isoI:versionLabel "2019-09-17 Release"^^xsd:string ;
	isoI:version "7"^^xsd:positiveInteger ;
	isoI:semanticVersion "7.0.0"^^xsd:string ;
	isoI:hasScope <http://www.assero.co.uk/NS#CDISC> ;
.
<http://www.cdisc.org/SDTM_MODEL_TV/V7#CL_VISIT>
	rdf:type bd:SdtmClassVariable ;
	isoC:label "Visit Name"^^xsd:string ;
	bd:rule ""^^xsd:string ;
	bd:ordinal "4"^^xsd:positiveInteger ;
	bd:name "VISIT"^^xsd:string ;
	bd:prefixed "false"^^xsd:boolean ;
	bd:description "Protocol-defined description of the clinical encounter. May be used in addition to VISITNUM and/or VISITDY as a text description of the clinical encounter."^^xsd:string ;
	bd:typedAs <http://www.assero.co.uk/CSN#d2f2bbeb-8f79-4fb1-b190-dd864d29f080> ;
	bd:classifiedAs <http://www.assero.co.uk/CSN#818a9757-1ee5-4bd3-a179-e662e26b5b47> ;
.
<http://www.cdisc.org/SDTM_MODEL_TV/V7#CL_ARM>
	rdf:type bd:SdtmClassVariable ;
	isoC:label "Description of Planned Arm"^^xsd:string ;
	bd:rule ""^^xsd:string ;
	bd:ordinal "7"^^xsd:positiveInteger ;
	bd:name "ARM"^^xsd:string ;
	bd:prefixed "false"^^xsd:boolean ;
	bd:description "Name given to Arm or treatment group."^^xsd:string ;
	bd:typedAs <http://www.assero.co.uk/CSN#d2f2bbeb-8f79-4fb1-b190-dd864d29f080> ;
	bd:classifiedAs <http://www.assero.co.uk/CSN#818a9757-1ee5-4bd3-a179-e662e26b5b47> ;
.
<http://www.cdisc.org/SDTM_MODEL_TX/V7#CL>
	rdf:type bd:SdtmClass ;
	isoC:label "TX"^^xsd:string ;
	isoT:hasState <http://www.cdisc.org/SDTM_MODEL_TX/V7#CL_RS> ;
	isoT:hasIdentifier <http://www.cdisc.org/SDTM_MODEL_TX/V7#CL_SI> ;
	isoT:hasPreviousVersion <http://www.cdisc.org/SDTM_MODEL_TX/V6#CL> ;
	isoT:origin ""^^xsd:string ;
	isoT:changeDescription ""^^xsd:string ;
	isoT:creationDate "2019-09-17T00:00:00+00:00"^^xsd:dateTime ;
	isoT:lastChangeDate "2019-09-17T00:00:00+00:00"^^xsd:dateTime ;
	isoT:explanatoryComment ""^^xsd:string ;
	bd:rule ""^^xsd:string ;
	bd:ordinal "1"^^xsd:positiveInteger ;
	bd:includesColumn <http://www.cdisc.org/SDTM_MODEL_TX/V4#CL_STUDYID> ;
	bd:includesColumn <http://www.cdisc.org/SDTM_MODEL_TX/V6#CL_DOMAIN> ;
	bd:includesColumn <http://www.cdisc.org/SDTM_MODEL_TX/V6#CL_SETCD> ;
	bd:includesColumn <http://www.cdisc.org/SDTM_MODEL_TX/V7#CL_SET> ;
	bd:includesColumn <http://www.cdisc.org/SDTM_MODEL_TX/V6#CL_TXSEQ> ;
	bd:includesColumn <http://www.cdisc.org/SDTM_MODEL_TX/V4#CL_TXPARMCD> ;
	bd:includesColumn <http://www.cdisc.org/SDTM_MODEL_TX/V7#CL_TXPARM> ;
	bd:includesColumn <http://www.cdisc.org/SDTM_MODEL_TX/V6#CL_TXVAL> ;
.
<http://www.cdisc.org/SDTM_MODEL_TX/V7#CL_RS>
	rdf:type isoR:RegistrationState ;
	isoR:registrationStatus "Standard"^^xsd:string ;
	isoR:administrativeNote ""^^xsd:string ;
	isoR:effectiveDate "2016-01-01T00:00:00+00:00"^^xsd:dateTime ;
	isoR:untilDate "2016-01-01T00:00:00+00:00"^^xsd:dateTime ;
	isoR:unresolvedIssue ""^^xsd:string ;
	isoR:administrativeStatus ""^^xsd:string ;
	isoR:previousState "Standard"^^xsd:string ;
	isoR:multipleEdit "false"^^xsd:boolean ;
	isoR:byAuthority <http://www.assero.co.uk/RA#DUNS084433759> ;
.
<http://www.cdisc.org/SDTM_MODEL_TX/V7#CL_SI>
	rdf:type isoI:ScopedIdentifier ;
	isoI:identifier "SDTM MODEL TX"^^xsd:string ;
	isoI:versionLabel "2019-09-17 Release"^^xsd:string ;
	isoI:version "7"^^xsd:positiveInteger ;
	isoI:semanticVersion "7.0.0"^^xsd:string ;
	isoI:hasScope <http://www.assero.co.uk/NS#CDISC> ;
.
<http://www.cdisc.org/SDTM_MODEL_TX/V7#CL_SET>
	rdf:type bd:SdtmClassVariable ;
	isoC:label "Set Description"^^xsd:string ;
	bd:rule ""^^xsd:string ;
	bd:ordinal "4"^^xsd:positiveInteger ;
	bd:name "SET"^^xsd:string ;
	bd:prefixed "false"^^xsd:boolean ;
	bd:description "Long description of a specific Trial Set, as defined by the sponsor."^^xsd:string ;
	bd:typedAs <http://www.assero.co.uk/CSN#d2f2bbeb-8f79-4fb1-b190-dd864d29f080> ;
	bd:classifiedAs <http://www.assero.co.uk/CSN#818a9757-1ee5-4bd3-a179-e662e26b5b47> ;
.
<http://www.cdisc.org/SDTM_MODEL_TX/V7#CL_TXPARM>
	rdf:type bd:SdtmClassVariable ;
	isoC:label "Trial Set Parameter"^^xsd:string ;
	bd:rule ""^^xsd:string ;
	bd:ordinal "7"^^xsd:positiveInteger ;
	bd:name "TXPARM"^^xsd:string ;
	bd:prefixed "false"^^xsd:boolean ;
	bd:description "Term for the Trial Set parameter. Maximum 40 characters."^^xsd:string ;
	bd:typedAs <http://www.assero.co.uk/CSN#d2f2bbeb-8f79-4fb1-b190-dd864d29f080> ;
	bd:classifiedAs <http://www.assero.co.uk/CSN#818a9757-1ee5-4bd3-a179-e662e26b5b47> ;
.
<http://www.cdisc.org/SDTM_MODEL_TT/V7#CL>
	rdf:type bd:SdtmClass ;
	isoC:label "TT"^^xsd:string ;
	isoT:hasState <http://www.cdisc.org/SDTM_MODEL_TT/V7#CL_RS> ;
	isoT:hasIdentifier <http://www.cdisc.org/SDTM_MODEL_TT/V7#CL_SI> ;
	isoT:hasPreviousVersion <http://www.cdisc.org/SDTM_MODEL_TT/V6#CL> ;
	isoT:origin ""^^xsd:string ;
	isoT:changeDescription ""^^xsd:string ;
	isoT:creationDate "2019-09-17T00:00:00+00:00"^^xsd:dateTime ;
	isoT:lastChangeDate "2019-09-17T00:00:00+00:00"^^xsd:dateTime ;
	isoT:explanatoryComment ""^^xsd:string ;
	bd:rule ""^^xsd:string ;
	bd:ordinal "1"^^xsd:positiveInteger ;
	bd:includesColumn <http://www.cdisc.org/SDTM_MODEL_TT/V6#CL_STUDYID> ;
	bd:includesColumn <http://www.cdisc.org/SDTM_MODEL_TT/V6#CL_DOMAIN> ;
	bd:includesColumn <http://www.cdisc.org/SDTM_MODEL_TT/V6#CL_RSTGCD> ;
	bd:includesColumn <http://www.cdisc.org/SDTM_MODEL_TT/V7#CL_RSTAGE> ;
	bd:includesColumn <http://www.cdisc.org/SDTM_MODEL_TT/V6#CL_TTSTRL> ;
	bd:includesColumn <http://www.cdisc.org/SDTM_MODEL_TT/V6#CL_TTENRL> ;
	bd:includesColumn <http://www.cdisc.org/SDTM_MODEL_TT/V6#CL_TTDUR> ;
.
<http://www.cdisc.org/SDTM_MODEL_TT/V7#CL_RS>
	rdf:type isoR:RegistrationState ;
	isoR:registrationStatus "Standard"^^xsd:string ;
	isoR:administrativeNote ""^^xsd:string ;
	isoR:effectiveDate "2016-01-01T00:00:00+00:00"^^xsd:dateTime ;
	isoR:untilDate "2016-01-01T00:00:00+00:00"^^xsd:dateTime ;
	isoR:unresolvedIssue ""^^xsd:string ;
	isoR:administrativeStatus ""^^xsd:string ;
	isoR:previousState "Standard"^^xsd:string ;
	isoR:multipleEdit "false"^^xsd:boolean ;
	isoR:byAuthority <http://www.assero.co.uk/RA#DUNS084433759> ;
.
<http://www.cdisc.org/SDTM_MODEL_TT/V7#CL_SI>
	rdf:type isoI:ScopedIdentifier ;
	isoI:identifier "SDTM MODEL TT"^^xsd:string ;
	isoI:versionLabel "2019-09-17 Release"^^xsd:string ;
	isoI:version "7"^^xsd:positiveInteger ;
	isoI:semanticVersion "7.0.0"^^xsd:string ;
	isoI:hasScope <http://www.assero.co.uk/NS#CDISC> ;
.
<http://www.cdisc.org/SDTM_MODEL_TT/V7#CL_RSTAGE>
	rdf:type bd:SdtmClassVariable ;
	isoC:label "Description of Repro Stage"^^xsd:string ;
	bd:rule ""^^xsd:string ;
	bd:ordinal "4"^^xsd:positiveInteger ;
	bd:name "RSTAGE"^^xsd:string ;
	bd:prefixed "false"^^xsd:boolean ;
	bd:description "The name of the Repro Stage."^^xsd:string ;
	bd:typedAs <http://www.assero.co.uk/CSN#d2f2bbeb-8f79-4fb1-b190-dd864d29f080> ;
	bd:classifiedAs <http://www.assero.co.uk/CSN#818a9757-1ee5-4bd3-a179-e662e26b5b47> ;
.
<http://www.cdisc.org/SDTM_MODEL_TP/V7#CL>
	rdf:type bd:SdtmClass ;
	isoC:label "TP"^^xsd:string ;
	isoT:hasState <http://www.cdisc.org/SDTM_MODEL_TP/V7#CL_RS> ;
	isoT:hasIdentifier <http://www.cdisc.org/SDTM_MODEL_TP/V7#CL_SI> ;
	isoT:hasPreviousVersion <http://www.cdisc.org/SDTM_MODEL_TP/V6#CL> ;
	isoT:origin ""^^xsd:string ;
	isoT:changeDescription ""^^xsd:string ;
	isoT:creationDate "2019-09-17T00:00:00+00:00"^^xsd:dateTime ;
	isoT:lastChangeDate "2019-09-17T00:00:00+00:00"^^xsd:dateTime ;
	isoT:explanatoryComment ""^^xsd:string ;
	bd:rule ""^^xsd:string ;
	bd:ordinal "1"^^xsd:positiveInteger ;
	bd:includesColumn <http://www.cdisc.org/SDTM_MODEL_TP/V6#CL_STUDYID> ;
	bd:includesColumn <http://www.cdisc.org/SDTM_MODEL_TP/V6#CL_DOMAIN> ;
	bd:includesColumn <http://www.cdisc.org/SDTM_MODEL_TP/V6#CL_RPATHCD> ;
	bd:includesColumn <http://www.cdisc.org/SDTM_MODEL_TP/V7#CL_RPATH> ;
	bd:includesColumn <http://www.cdisc.org/SDTM_MODEL_TP/V6#CL_TPSTGORD> ;
	bd:includesColumn <http://www.cdisc.org/SDTM_MODEL_TP/V6#CL_RSTGCD> ;
	bd:includesColumn <http://www.cdisc.org/SDTM_MODEL_TP/V7#CL_RSTAGE> ;
	bd:includesColumn <http://www.cdisc.org/SDTM_MODEL_TP/V6#CL_TPBRANCH> ;
	bd:includesColumn <http://www.cdisc.org/SDTM_MODEL_TP/V6#CL_RPHASE> ;
	bd:includesColumn <http://www.cdisc.org/SDTM_MODEL_TP/V6#CL_RPRFDY> ;
.
<http://www.cdisc.org/SDTM_MODEL_TP/V7#CL_RS>
	rdf:type isoR:RegistrationState ;
	isoR:registrationStatus "Standard"^^xsd:string ;
	isoR:administrativeNote ""^^xsd:string ;
	isoR:effectiveDate "2016-01-01T00:00:00+00:00"^^xsd:dateTime ;
	isoR:untilDate "2016-01-01T00:00:00+00:00"^^xsd:dateTime ;
	isoR:unresolvedIssue ""^^xsd:string ;
	isoR:administrativeStatus ""^^xsd:string ;
	isoR:previousState "Standard"^^xsd:string ;
	isoR:multipleEdit "false"^^xsd:boolean ;
	isoR:byAuthority <http://www.assero.co.uk/RA#DUNS084433759> ;
.
<http://www.cdisc.org/SDTM_MODEL_TP/V7#CL_SI>
	rdf:type isoI:ScopedIdentifier ;
	isoI:identifier "SDTM MODEL TP"^^xsd:string ;
	isoI:versionLabel "2019-09-17 Release"^^xsd:string ;
	isoI:version "7"^^xsd:positiveInteger ;
	isoI:semanticVersion "7.0.0"^^xsd:string ;
	isoI:hasScope <http://www.assero.co.uk/NS#CDISC> ;
.
<http://www.cdisc.org/SDTM_MODEL_TP/V7#CL_RPATH>
	rdf:type bd:SdtmClassVariable ;
	isoC:label "Description of Planned Repro Path"^^xsd:string ;
	bd:rule ""^^xsd:string ;
	bd:ordinal "4"^^xsd:positiveInteger ;
	bd:name "RPATH"^^xsd:string ;
	bd:prefixed "false"^^xsd:boolean ;
	bd:description "Name of the planned Repro Path."^^xsd:string ;
	bd:typedAs <http://www.assero.co.uk/CSN#d2f2bbeb-8f79-4fb1-b190-dd864d29f080> ;
	bd:classifiedAs <http://www.assero.co.uk/CSN#818a9757-1ee5-4bd3-a179-e662e26b5b47> ;
.
<http://www.cdisc.org/SDTM_MODEL_TP/V7#CL_RSTAGE>
	rdf:type bd:SdtmClassVariable ;
	isoC:label "Description of Repro Stage"^^xsd:string ;
	bd:rule ""^^xsd:string ;
	bd:ordinal "7"^^xsd:positiveInteger ;
	bd:name "RSTAGE"^^xsd:string ;
	bd:prefixed "false"^^xsd:boolean ;
	bd:description "The name of the Repro Stage."^^xsd:string ;
	bd:typedAs <http://www.assero.co.uk/CSN#d2f2bbeb-8f79-4fb1-b190-dd864d29f080> ;
	bd:classifiedAs <http://www.assero.co.uk/CSN#818a9757-1ee5-4bd3-a179-e662e26b5b47> ;
.
<http://www.cdisc.org/SDTM_MODEL_TI/V7#CL>
	rdf:type bd:SdtmClass ;
	isoC:label "TI"^^xsd:string ;
	isoT:hasState <http://www.cdisc.org/SDTM_MODEL_TI/V7#CL_RS> ;
	isoT:hasIdentifier <http://www.cdisc.org/SDTM_MODEL_TI/V7#CL_SI> ;
	isoT:hasPreviousVersion <http://www.cdisc.org/SDTM_MODEL_TI/V6#CL> ;
	isoT:origin ""^^xsd:string ;
	isoT:changeDescription ""^^xsd:string ;
	isoT:creationDate "2019-09-17T00:00:00+00:00"^^xsd:dateTime ;
	isoT:lastChangeDate "2019-09-17T00:00:00+00:00"^^xsd:dateTime ;
	isoT:explanatoryComment ""^^xsd:string ;
	bd:rule ""^^xsd:string ;
	bd:ordinal "1"^^xsd:positiveInteger ;
	bd:includesColumn <http://www.cdisc.org/SDTM_MODEL_TI/V1#CL_STUDYID> ;
	bd:includesColumn <http://www.cdisc.org/SDTM_MODEL_TI/V6#CL_DOMAIN> ;
	bd:includesColumn <http://www.cdisc.org/SDTM_MODEL_TI/V6#CL_IETESTCD> ;
	bd:includesColumn <http://www.cdisc.org/SDTM_MODEL_TI/V7#CL_IETEST> ;
	bd:includesColumn <http://www.cdisc.org/SDTM_MODEL_TI/V6#CL_IECAT> ;
	bd:includesColumn <http://www.cdisc.org/SDTM_MODEL_TI/V6#CL_IESCAT> ;
	bd:includesColumn <http://www.cdisc.org/SDTM_MODEL_TI/V6#CL_TIRL> ;
	bd:includesColumn <http://www.cdisc.org/SDTM_MODEL_TI/V6#CL_TIVERS> ;
.
<http://www.cdisc.org/SDTM_MODEL_TI/V7#CL_RS>
	rdf:type isoR:RegistrationState ;
	isoR:registrationStatus "Standard"^^xsd:string ;
	isoR:administrativeNote ""^^xsd:string ;
	isoR:effectiveDate "2016-01-01T00:00:00+00:00"^^xsd:dateTime ;
	isoR:untilDate "2016-01-01T00:00:00+00:00"^^xsd:dateTime ;
	isoR:unresolvedIssue ""^^xsd:string ;
	isoR:administrativeStatus ""^^xsd:string ;
	isoR:previousState "Standard"^^xsd:string ;
	isoR:multipleEdit "false"^^xsd:boolean ;
	isoR:byAuthority <http://www.assero.co.uk/RA#DUNS084433759> ;
.
<http://www.cdisc.org/SDTM_MODEL_TI/V7#CL_SI>
	rdf:type isoI:ScopedIdentifier ;
	isoI:identifier "SDTM MODEL TI"^^xsd:string ;
	isoI:versionLabel "2019-09-17 Release"^^xsd:string ;
	isoI:version "7"^^xsd:positiveInteger ;
	isoI:semanticVersion "7.0.0"^^xsd:string ;
	isoI:hasScope <http://www.assero.co.uk/NS#CDISC> ;
.
<http://www.cdisc.org/SDTM_MODEL_TI/V7#CL_IETEST>
	rdf:type bd:SdtmClassVariable ;
	isoC:label "Inclusion/Exclusion Criterion"^^xsd:string ;
	bd:rule ""^^xsd:string ;
	bd:ordinal "4"^^xsd:positiveInteger ;
	bd:name "IETEST"^^xsd:string ;
	bd:prefixed "false"^^xsd:boolean ;
	bd:description "Full text of the inclusion or exclusion criterion. The prefix \"IE\" is used to ensure consistency with the IE domain."^^xsd:string ;
	bd:typedAs <http://www.assero.co.uk/CSN#d2f2bbeb-8f79-4fb1-b190-dd864d29f080> ;
	bd:classifiedAs <http://www.assero.co.uk/CSN#818a9757-1ee5-4bd3-a179-e662e26b5b47> ;
.
<http://www.cdisc.org/SDTM_MODEL_TS/V7#CL>
	rdf:type bd:SdtmClass ;
	isoC:label "TS"^^xsd:string ;
	isoT:hasState <http://www.cdisc.org/SDTM_MODEL_TS/V7#CL_RS> ;
	isoT:hasIdentifier <http://www.cdisc.org/SDTM_MODEL_TS/V7#CL_SI> ;
	isoT:hasPreviousVersion <http://www.cdisc.org/SDTM_MODEL_TS/V6#CL> ;
	isoT:origin ""^^xsd:string ;
	isoT:changeDescription ""^^xsd:string ;
	isoT:creationDate "2019-09-17T00:00:00+00:00"^^xsd:dateTime ;
	isoT:lastChangeDate "2019-09-17T00:00:00+00:00"^^xsd:dateTime ;
	isoT:explanatoryComment ""^^xsd:string ;
	bd:rule ""^^xsd:string ;
	bd:ordinal "1"^^xsd:positiveInteger ;
	bd:includesColumn <http://www.cdisc.org/SDTM_MODEL_TS/V6#CL_STUDYID> ;
	bd:includesColumn <http://www.cdisc.org/SDTM_MODEL_TS/V6#CL_DOMAIN> ;
	bd:includesColumn <http://www.cdisc.org/SDTM_MODEL_TS/V6#CL_TSSEQ> ;
	bd:includesColumn <http://www.cdisc.org/SDTM_MODEL_TS/V6#CL_TSGRPID> ;
	bd:includesColumn <http://www.cdisc.org/SDTM_MODEL_TS/V7#CL_TSPARMCD> ;
	bd:includesColumn <http://www.cdisc.org/SDTM_MODEL_TS/V7#CL_TSPARM> ;
	bd:includesColumn <http://www.cdisc.org/SDTM_MODEL_TS/V6#CL_TSVAL> ;
	bd:includesColumn <http://www.cdisc.org/SDTM_MODEL_TS/V6#CL_TSVALNF> ;
	bd:includesColumn <http://www.cdisc.org/SDTM_MODEL_TS/V6#CL_TSVALCD> ;
	bd:includesColumn <http://www.cdisc.org/SDTM_MODEL_TS/V6#CL_TSVCDREF> ;
	bd:includesColumn <http://www.cdisc.org/SDTM_MODEL_TS/V6#CL_TSVCDVER> ;
.
<http://www.cdisc.org/SDTM_MODEL_TS/V7#CL_RS>
	rdf:type isoR:RegistrationState ;
	isoR:registrationStatus "Standard"^^xsd:string ;
	isoR:administrativeNote ""^^xsd:string ;
	isoR:effectiveDate "2016-01-01T00:00:00+00:00"^^xsd:dateTime ;
	isoR:untilDate "2016-01-01T00:00:00+00:00"^^xsd:dateTime ;
	isoR:unresolvedIssue ""^^xsd:string ;
	isoR:administrativeStatus ""^^xsd:string ;
	isoR:previousState "Standard"^^xsd:string ;
	isoR:multipleEdit "false"^^xsd:boolean ;
	isoR:byAuthority <http://www.assero.co.uk/RA#DUNS084433759> ;
.
<http://www.cdisc.org/SDTM_MODEL_TS/V7#CL_SI>
	rdf:type isoI:ScopedIdentifier ;
	isoI:identifier "SDTM MODEL TS"^^xsd:string ;
	isoI:versionLabel "2019-09-17 Release"^^xsd:string ;
	isoI:version "7"^^xsd:positiveInteger ;
	isoI:semanticVersion "7.0.0"^^xsd:string ;
	isoI:hasScope <http://www.assero.co.uk/NS#CDISC> ;
.
<http://www.cdisc.org/SDTM_MODEL_TS/V7#CL_TSPARMCD>
	rdf:type bd:SdtmClassVariable ;
	isoC:label "Trial Summary Parameter Short Name"^^xsd:string ;
	bd:rule ""^^xsd:string ;
	bd:ordinal "5"^^xsd:positiveInteger ;
	bd:name "TSPARMCD"^^xsd:string ;
	bd:prefixed "false"^^xsd:boolean ;
	bd:description "TSPARMCD (the companion to TSPARM) is limited to 8 characters and does not have special character restrictions. These values should be short for ease of use in programming, but it is not expected that TSPARMCD will need to serve as variable names. \n Examples: AGEMIN, AGEMAX."^^xsd:string ;
	bd:typedAs <http://www.assero.co.uk/CSN#d2f2bbeb-8f79-4fb1-b190-dd864d29f080> ;
	bd:classifiedAs <http://www.assero.co.uk/CSN#692cafbf-658a-43f0-97a2-f040ecb1a20d> ;
.
<http://www.cdisc.org/SDTM_MODEL_TS/V7#CL_TSPARM>
	rdf:type bd:SdtmClassVariable ;
	isoC:label "Trial Summary Parameter"^^xsd:string ;
	bd:rule ""^^xsd:string ;
	bd:ordinal "6"^^xsd:positiveInteger ;
	bd:name "TSPARM"^^xsd:string ;
	bd:prefixed "false"^^xsd:boolean ;
	bd:description "Term for the Trial Summary Parameter. The value in TSPARM cannot be longer than 40 characters. Examples: Planned Minimum Age of Subjects, Planned Maximum Age of Subjects."^^xsd:string ;
	bd:typedAs <http://www.assero.co.uk/CSN#d2f2bbeb-8f79-4fb1-b190-dd864d29f080> ;
	bd:classifiedAs <http://www.assero.co.uk/CSN#818a9757-1ee5-4bd3-a179-e662e26b5b47> ;
.
<http://www.cdisc.org/SDTM_MODEL_TD/V7#CL>
	rdf:type bd:SdtmClass ;
	isoC:label "TD"^^xsd:string ;
	isoT:hasState <http://www.cdisc.org/SDTM_MODEL_TD/V7#CL_RS> ;
	isoT:hasIdentifier <http://www.cdisc.org/SDTM_MODEL_TD/V7#CL_SI> ;
	isoT:hasPreviousVersion <http://www.cdisc.org/SDTM_MODEL_TD/V6#CL> ;
	isoT:origin ""^^xsd:string ;
	isoT:changeDescription ""^^xsd:string ;
	isoT:creationDate "2019-09-17T00:00:00+00:00"^^xsd:dateTime ;
	isoT:lastChangeDate "2019-09-17T00:00:00+00:00"^^xsd:dateTime ;
	isoT:explanatoryComment ""^^xsd:string ;
	bd:rule ""^^xsd:string ;
	bd:ordinal "1"^^xsd:positiveInteger ;
	bd:includesColumn <http://www.cdisc.org/SDTM_MODEL_TD/V3#CL_STUDYID> ;
	bd:includesColumn <http://www.cdisc.org/SDTM_MODEL_TD/V6#CL_DOMAIN> ;
	bd:includesColumn <http://www.cdisc.org/SDTM_MODEL_TD/V3#CL_TDORDER> ;
	bd:includesColumn <http://www.cdisc.org/SDTM_MODEL_TD/V6#CL_TDANCVAR> ;
	bd:includesColumn <http://www.cdisc.org/SDTM_MODEL_TD/V6#CL_TDSTOFF> ;
	bd:includesColumn <http://www.cdisc.org/SDTM_MODEL_TD/V6#CL_TDTGTPAI> ;
	bd:includesColumn <http://www.cdisc.org/SDTM_MODEL_TD/V6#CL_TDMINPAI> ;
	bd:includesColumn <http://www.cdisc.org/SDTM_MODEL_TD/V6#CL_TDMAXPAI> ;
	bd:includesColumn <http://www.cdisc.org/SDTM_MODEL_TD/V6#CL_TDNUMRPT> ;
.
<http://www.cdisc.org/SDTM_MODEL_TD/V7#CL_RS>
	rdf:type isoR:RegistrationState ;
	isoR:registrationStatus "Standard"^^xsd:string ;
	isoR:administrativeNote ""^^xsd:string ;
	isoR:effectiveDate "2016-01-01T00:00:00+00:00"^^xsd:dateTime ;
	isoR:untilDate "2016-01-01T00:00:00+00:00"^^xsd:dateTime ;
	isoR:unresolvedIssue ""^^xsd:string ;
	isoR:administrativeStatus ""^^xsd:string ;
	isoR:previousState "Standard"^^xsd:string ;
	isoR:multipleEdit "false"^^xsd:boolean ;
	isoR:byAuthority <http://www.assero.co.uk/RA#DUNS084433759> ;
.
<http://www.cdisc.org/SDTM_MODEL_TD/V7#CL_SI>
	rdf:type isoI:ScopedIdentifier ;
	isoI:identifier "SDTM MODEL TD"^^xsd:string ;
	isoI:versionLabel "2019-09-17 Release"^^xsd:string ;
	isoI:version "7"^^xsd:positiveInteger ;
	isoI:semanticVersion "7.0.0"^^xsd:string ;
	isoI:hasScope <http://www.assero.co.uk/NS#CDISC> ;
.
<http://www.cdisc.org/SDTM_MODEL_TM/V7#CL>
	rdf:type bd:SdtmClass ;
	isoC:label "TM"^^xsd:string ;
	isoT:hasState <http://www.cdisc.org/SDTM_MODEL_TM/V7#CL_RS> ;
	isoT:hasIdentifier <http://www.cdisc.org/SDTM_MODEL_TM/V7#CL_SI> ;
	isoT:hasPreviousVersion <http://www.cdisc.org/SDTM_MODEL_TM/V6#CL> ;
	isoT:origin ""^^xsd:string ;
	isoT:changeDescription ""^^xsd:string ;
	isoT:creationDate "2019-09-17T00:00:00+00:00"^^xsd:dateTime ;
	isoT:lastChangeDate "2019-09-17T00:00:00+00:00"^^xsd:dateTime ;
	isoT:explanatoryComment ""^^xsd:string ;
	bd:rule ""^^xsd:string ;
	bd:ordinal "1"^^xsd:positiveInteger ;
	bd:includesColumn <http://www.cdisc.org/SDTM_MODEL_TM/V6#CL_STUDYID> ;
	bd:includesColumn <http://www.cdisc.org/SDTM_MODEL_TM/V6#CL_DOMAIN> ;
	bd:includesColumn <http://www.cdisc.org/SDTM_MODEL_TM/V6#CL_MIDSTYPE> ;
	bd:includesColumn <http://www.cdisc.org/SDTM_MODEL_TM/V6#CL_TMDEF> ;
	bd:includesColumn <http://www.cdisc.org/SDTM_MODEL_TM/V6#CL_TMRPT> ;
.
<http://www.cdisc.org/SDTM_MODEL_TM/V7#CL_RS>
	rdf:type isoR:RegistrationState ;
	isoR:registrationStatus "Standard"^^xsd:string ;
	isoR:administrativeNote ""^^xsd:string ;
	isoR:effectiveDate "2016-01-01T00:00:00+00:00"^^xsd:dateTime ;
	isoR:untilDate "2016-01-01T00:00:00+00:00"^^xsd:dateTime ;
	isoR:unresolvedIssue ""^^xsd:string ;
	isoR:administrativeStatus ""^^xsd:string ;
	isoR:previousState "Standard"^^xsd:string ;
	isoR:multipleEdit "false"^^xsd:boolean ;
	isoR:byAuthority <http://www.assero.co.uk/RA#DUNS084433759> ;
.
<http://www.cdisc.org/SDTM_MODEL_TM/V7#CL_SI>
	rdf:type isoI:ScopedIdentifier ;
	isoI:identifier "SDTM MODEL TM"^^xsd:string ;
	isoI:versionLabel "2019-09-17 Release"^^xsd:string ;
	isoI:version "7"^^xsd:positiveInteger ;
	isoI:semanticVersion "7.0.0"^^xsd:string ;
	isoI:hasScope <http://www.assero.co.uk/NS#CDISC> ;
.
<http://www.cdisc.org/SDTM_MODEL_AC/V7#CL>
	rdf:type bd:SdtmClass ;
	isoC:label "AC"^^xsd:string ;
	isoT:hasState <http://www.cdisc.org/SDTM_MODEL_AC/V7#CL_RS> ;
	isoT:hasIdentifier <http://www.cdisc.org/SDTM_MODEL_AC/V7#CL_SI> ;
	isoT:origin ""^^xsd:string ;
	isoT:changeDescription ""^^xsd:string ;
	isoT:creationDate "2019-09-17T00:00:00+00:00"^^xsd:dateTime ;
	isoT:lastChangeDate "2019-09-17T00:00:00+00:00"^^xsd:dateTime ;
	isoT:explanatoryComment ""^^xsd:string ;
	bd:rule ""^^xsd:string ;
	bd:ordinal "1"^^xsd:positiveInteger ;
	bd:includesColumn <http://www.cdisc.org/SDTM_MODEL_AC/V7#CL_STUDYID> ;
	bd:includesColumn <http://www.cdisc.org/SDTM_MODEL_AC/V7#CL_DOMAIN> ;
	bd:includesColumn <http://www.cdisc.org/SDTM_MODEL_AC/V7#CL_ACSEQ> ;
	bd:includesColumn <http://www.cdisc.org/SDTM_MODEL_AC/V7#CL_ACGRPID> ;
	bd:includesColumn <http://www.cdisc.org/SDTM_MODEL_AC/V7#CL_ACPARMCD> ;
	bd:includesColumn <http://www.cdisc.org/SDTM_MODEL_AC/V7#CL_ACPARM> ;
	bd:includesColumn <http://www.cdisc.org/SDTM_MODEL_AC/V7#CL_ACVAL> ;
	bd:includesColumn <http://www.cdisc.org/SDTM_MODEL_AC/V7#CL_ACVALU> ;
	bd:includesColumn <http://www.cdisc.org/SDTM_MODEL_AC/V7#CL_ACVALNF> ;
	bd:includesColumn <http://www.cdisc.org/SDTM_MODEL_AC/V7#CL_ACVALCD> ;
	bd:includesColumn <http://www.cdisc.org/SDTM_MODEL_AC/V7#CL_ACVCDREF> ;
	bd:includesColumn <http://www.cdisc.org/SDTM_MODEL_AC/V7#CL_ACVCDVER> ;
.
<http://www.cdisc.org/SDTM_MODEL_AC/V7#CL_RS>
	rdf:type isoR:RegistrationState ;
	isoR:registrationStatus "Standard"^^xsd:string ;
	isoR:administrativeNote ""^^xsd:string ;
	isoR:effectiveDate "2016-01-01T00:00:00+00:00"^^xsd:dateTime ;
	isoR:untilDate "2016-01-01T00:00:00+00:00"^^xsd:dateTime ;
	isoR:unresolvedIssue ""^^xsd:string ;
	isoR:administrativeStatus ""^^xsd:string ;
	isoR:previousState "Standard"^^xsd:string ;
	isoR:multipleEdit "false"^^xsd:boolean ;
	isoR:byAuthority <http://www.assero.co.uk/RA#DUNS084433759> ;
.
<http://www.cdisc.org/SDTM_MODEL_AC/V7#CL_SI>
	rdf:type isoI:ScopedIdentifier ;
	isoI:identifier "SDTM MODEL AC"^^xsd:string ;
	isoI:versionLabel "2019-09-17 Release"^^xsd:string ;
	isoI:version "7"^^xsd:positiveInteger ;
	isoI:semanticVersion "7.0.0"^^xsd:string ;
	isoI:hasScope <http://www.assero.co.uk/NS#CDISC> ;
.
<http://www.cdisc.org/SDTM_MODEL_AC/V7#CL_STUDYID>
	rdf:type bd:SdtmClassVariable ;
	isoC:label "Study Identifier"^^xsd:string ;
	bd:rule ""^^xsd:string ;
	bd:ordinal "1"^^xsd:positiveInteger ;
	bd:name "STUDYID"^^xsd:string ;
	bd:prefixed "false"^^xsd:boolean ;
	bd:description "Unique Identifier for a study."^^xsd:string ;
	bd:typedAs <http://www.assero.co.uk/CSN#d2f2bbeb-8f79-4fb1-b190-dd864d29f080> ;
	bd:classifiedAs <http://www.assero.co.uk/CSN#d46bb337-92cd-4250-b50c-9be5079d6ab3> ;
.
<http://www.cdisc.org/SDTM_MODEL_AC/V7#CL_DOMAIN>
	rdf:type bd:SdtmClassVariable ;
	isoC:label "Domain Abbreviation"^^xsd:string ;
	bd:rule ""^^xsd:string ;
	bd:ordinal "2"^^xsd:positiveInteger ;
	bd:name "DOMAIN"^^xsd:string ;
	bd:prefixed "false"^^xsd:boolean ;
	bd:description "2-character abbreviation for the domain, which must be \"AC\"."^^xsd:string ;
	bd:typedAs <http://www.assero.co.uk/CSN#d2f2bbeb-8f79-4fb1-b190-dd864d29f080> ;
	bd:classifiedAs <http://www.assero.co.uk/CSN#d46bb337-92cd-4250-b50c-9be5079d6ab3> ;
.
<http://www.cdisc.org/SDTM_MODEL_AC/V7#CL_ACSEQ>
	rdf:type bd:SdtmClassVariable ;
	isoC:label "Sequence Number"^^xsd:string ;
	bd:rule ""^^xsd:string ;
	bd:ordinal "3"^^xsd:positiveInteger ;
	bd:name "ACSEQ"^^xsd:string ;
	bd:prefixed "false"^^xsd:boolean ;
	bd:description "Sequence number given to ensure uniqueness within a dataset. Allows inclusion of multiple records for the same ACPARMCD."^^xsd:string ;
	bd:typedAs <http://www.assero.co.uk/CSN#178f8dbe-c3ba-4dc0-8a2a-18081644b4c6> ;
	bd:classifiedAs <http://www.assero.co.uk/CSN#d46bb337-92cd-4250-b50c-9be5079d6ab3> ;
.
<http://www.cdisc.org/SDTM_MODEL_AC/V7#CL_ACGRPID>
	rdf:type bd:SdtmClassVariable ;
	isoC:label "Group ID"^^xsd:string ;
	bd:rule ""^^xsd:string ;
	bd:ordinal "4"^^xsd:positiveInteger ;
	bd:name "ACGRPID"^^xsd:string ;
	bd:prefixed "false"^^xsd:boolean ;
	bd:description "Used to tie together a group of related records."^^xsd:string ;
	bd:typedAs <http://www.assero.co.uk/CSN#d2f2bbeb-8f79-4fb1-b190-dd864d29f080> ;
	bd:classifiedAs <http://www.assero.co.uk/CSN#d46bb337-92cd-4250-b50c-9be5079d6ab3> ;
.
<http://www.cdisc.org/SDTM_MODEL_AC/V7#CL_ACPARMCD>
	rdf:type bd:SdtmClassVariable ;
	isoC:label "Challenge Agent Parameter Short Name"^^xsd:string ;
	bd:rule ""^^xsd:string ;
	bd:ordinal "5"^^xsd:positiveInteger ;
	bd:name "ACPARMCD"^^xsd:string ;
	bd:prefixed "false"^^xsd:boolean ;
	bd:description "ACPARMCD (the companion to ACPARM) is limited to 8 characters and does not have special character restrictions. These values should be short for ease of use in programming, but it is not expected that ACPARMCD will need to serve as variable names."^^xsd:string ;
	bd:typedAs <http://www.assero.co.uk/CSN#d2f2bbeb-8f79-4fb1-b190-dd864d29f080> ;
	bd:classifiedAs <http://www.assero.co.uk/CSN#692cafbf-658a-43f0-97a2-f040ecb1a20d> ;
.
<http://www.cdisc.org/SDTM_MODEL_AC/V7#CL_ACPARM>
	rdf:type bd:SdtmClassVariable ;
	isoC:label "Challenge Agent Parameter"^^xsd:string ;
	bd:rule ""^^xsd:string ;
	bd:ordinal "6"^^xsd:positiveInteger ;
	bd:name "ACPARM"^^xsd:string ;
	bd:prefixed "false"^^xsd:boolean ;
	bd:description "Term for the Challenge Agent Characterization Parameter. The value in ACPARM cannot be longer than 40 characters."^^xsd:string ;
	bd:typedAs <http://www.assero.co.uk/CSN#d2f2bbeb-8f79-4fb1-b190-dd864d29f080> ;
	bd:classifiedAs <http://www.assero.co.uk/CSN#818a9757-1ee5-4bd3-a179-e662e26b5b47> ;
.
<http://www.cdisc.org/SDTM_MODEL_AC/V7#CL_ACVAL>
	rdf:type bd:SdtmClassVariable ;
	isoC:label "Parameter Value"^^xsd:string ;
	bd:rule ""^^xsd:string ;
	bd:ordinal "7"^^xsd:positiveInteger ;
	bd:name "ACVAL"^^xsd:string ;
	bd:prefixed "false"^^xsd:boolean ;
	bd:description "Value of ACPARM."^^xsd:string ;
	bd:typedAs <http://www.assero.co.uk/CSN#d2f2bbeb-8f79-4fb1-b190-dd864d29f080> ;
	bd:classifiedAs <http://www.assero.co.uk/CSN#4e516e50-4563-4412-aa8d-6e7740d99444> ;
.
<http://www.cdisc.org/SDTM_MODEL_AC/V7#CL_ACVALU>
	rdf:type bd:SdtmClassVariable ;
	isoC:label "Parameter Units"^^xsd:string ;
	bd:rule ""^^xsd:string ;
	bd:ordinal "8"^^xsd:positiveInteger ;
	bd:name "ACVALU"^^xsd:string ;
	bd:prefixed "false"^^xsd:boolean ;
	bd:description "Units for the value in ACVAL, if applicable."^^xsd:string ;
	bd:typedAs <http://www.assero.co.uk/CSN#d2f2bbeb-8f79-4fb1-b190-dd864d29f080> ;
.
<http://www.cdisc.org/SDTM_MODEL_AC/V7#CL_ACVALNF>
	rdf:type bd:SdtmClassVariable ;
	isoC:label "Parameter Null Flavor"^^xsd:string ;
	bd:rule ""^^xsd:string ;
	bd:ordinal "9"^^xsd:positiveInteger ;
	bd:name "ACVALNF"^^xsd:string ;
	bd:prefixed "false"^^xsd:boolean ;
	bd:description "Null flavor for the value of ACPARM, to be populated if and only if ACVAL is null."^^xsd:string ;
	bd:typedAs <http://www.assero.co.uk/CSN#d2f2bbeb-8f79-4fb1-b190-dd864d29f080> ;
	bd:classifiedAs <http://www.assero.co.uk/CSN#4e516e50-4563-4412-aa8d-6e7740d99444> ;
.
<http://www.cdisc.org/SDTM_MODEL_AC/V7#CL_ACVALCD>
	rdf:type bd:SdtmClassVariable ;
	isoC:label "Parameter Value Code"^^xsd:string ;
	bd:rule ""^^xsd:string ;
	bd:ordinal "10"^^xsd:positiveInteger ;
	bd:name "ACVALCD"^^xsd:string ;
	bd:prefixed "false"^^xsd:boolean ;
	bd:description "This is the code of the term in ACVAL."^^xsd:string ;
	bd:typedAs <http://www.assero.co.uk/CSN#d2f2bbeb-8f79-4fb1-b190-dd864d29f080> ;
	bd:classifiedAs <http://www.assero.co.uk/CSN#4e516e50-4563-4412-aa8d-6e7740d99444> ;
.
<http://www.cdisc.org/SDTM_MODEL_AC/V7#CL_ACVCDREF>
	rdf:type bd:SdtmClassVariable ;
	isoC:label "Name of the Reference Terminology"^^xsd:string ;
	bd:rule ""^^xsd:string ;
	bd:ordinal "11"^^xsd:positiveInteger ;
	bd:name "ACVCDREF"^^xsd:string ;
	bd:prefixed "false"^^xsd:boolean ;
	bd:description "The name of the Reference Terminology from which ACVALCD is taken. For example; CDISC, ISO 8601."^^xsd:string ;
	bd:typedAs <http://www.assero.co.uk/CSN#d2f2bbeb-8f79-4fb1-b190-dd864d29f080> ;
	bd:classifiedAs <http://www.assero.co.uk/CSN#4e516e50-4563-4412-aa8d-6e7740d99444> ;
.
<http://www.cdisc.org/SDTM_MODEL_AC/V7#CL_ACVCDVER>
	rdf:type bd:SdtmClassVariable ;
	isoC:label "Version of the Reference Terminology"^^xsd:string ;
	bd:rule ""^^xsd:string ;
	bd:ordinal "12"^^xsd:positiveInteger ;
	bd:name "ACVCDVER"^^xsd:string ;
	bd:prefixed "false"^^xsd:boolean ;
	bd:description "The version number of the Reference Terminology cited in ACVCDREF, if applicable."^^xsd:string ;
	bd:typedAs <http://www.assero.co.uk/CSN#d2f2bbeb-8f79-4fb1-b190-dd864d29f080> ;
	bd:classifiedAs <http://www.assero.co.uk/CSN#4e516e50-4563-4412-aa8d-6e7740d99444> ;
.
<http://www.cdisc.org/SDTM_MODEL_RELREC/V7#CL>
	rdf:type bd:SdtmClass ;
	isoC:label "RELREC"^^xsd:string ;
	isoT:hasState <http://www.cdisc.org/SDTM_MODEL_RELREC/V7#CL_RS> ;
	isoT:hasIdentifier <http://www.cdisc.org/SDTM_MODEL_RELREC/V7#CL_SI> ;
	isoT:hasPreviousVersion <http://www.cdisc.org/SDTM_MODEL_RELREC/V6#CL> ;
	isoT:origin ""^^xsd:string ;
	isoT:changeDescription ""^^xsd:string ;
	isoT:creationDate "2019-09-17T00:00:00+00:00"^^xsd:dateTime ;
	isoT:lastChangeDate "2019-09-17T00:00:00+00:00"^^xsd:dateTime ;
	isoT:explanatoryComment ""^^xsd:string ;
	bd:rule ""^^xsd:string ;
	bd:ordinal "1"^^xsd:positiveInteger ;
	bd:includesColumn <http://www.cdisc.org/SDTM_MODEL_RELREC/V6#CL_STUDYID> ;
	bd:includesColumn <http://www.cdisc.org/SDTM_MODEL_RELREC/V6#CL_RDOMAIN> ;
	bd:includesColumn <http://www.cdisc.org/SDTM_MODEL_RELREC/V6#CL_USUBJID> ;
	bd:includesColumn <http://www.cdisc.org/SDTM_MODEL_RELREC/V7#CL_APID> ;
	bd:includesColumn <http://www.cdisc.org/SDTM_MODEL_RELREC/V6#CL_POOLID> ;
	bd:includesColumn <http://www.cdisc.org/SDTM_MODEL_RELREC/V6#CL_IDVAR> ;
	bd:includesColumn <http://www.cdisc.org/SDTM_MODEL_RELREC/V6#CL_IDVARVAL> ;
	bd:includesColumn <http://www.cdisc.org/SDTM_MODEL_RELREC/V6#CL_RELTYPE> ;
	bd:includesColumn <http://www.cdisc.org/SDTM_MODEL_RELREC/V6#CL_RELID> ;
.
<http://www.cdisc.org/SDTM_MODEL_RELREC/V7#CL_RS>
	rdf:type isoR:RegistrationState ;
	isoR:registrationStatus "Standard"^^xsd:string ;
	isoR:administrativeNote ""^^xsd:string ;
	isoR:effectiveDate "2016-01-01T00:00:00+00:00"^^xsd:dateTime ;
	isoR:untilDate "2016-01-01T00:00:00+00:00"^^xsd:dateTime ;
	isoR:unresolvedIssue ""^^xsd:string ;
	isoR:administrativeStatus ""^^xsd:string ;
	isoR:previousState "Standard"^^xsd:string ;
	isoR:multipleEdit "false"^^xsd:boolean ;
	isoR:byAuthority <http://www.assero.co.uk/RA#DUNS084433759> ;
.
<http://www.cdisc.org/SDTM_MODEL_RELREC/V7#CL_SI>
	rdf:type isoI:ScopedIdentifier ;
	isoI:identifier "SDTM MODEL RELREC"^^xsd:string ;
	isoI:versionLabel "2019-09-17 Release"^^xsd:string ;
	isoI:version "7"^^xsd:positiveInteger ;
	isoI:semanticVersion "7.0.0"^^xsd:string ;
	isoI:hasScope <http://www.assero.co.uk/NS#CDISC> ;
.
<http://www.cdisc.org/SDTM_MODEL_RELREC/V7#CL_APID>
	rdf:type bd:SdtmClassVariable ;
	isoC:label "Associated Persons Identifier"^^xsd:string ;
	bd:rule ""^^xsd:string ;
	bd:ordinal "4"^^xsd:positiveInteger ;
	bd:name "APID"^^xsd:string ;
	bd:prefixed "false"^^xsd:boolean ;
	bd:description "Identifier for a single associated person, a group of associated persons, or a pool of associated persons. If APID identifies a pool, POOLDEF records must exist for each associated person (see Section 4.1.3, Pool Definition Dataset, and Section 6.2, Associated Persons Relationships)."^^xsd:string ;
	bd:typedAs <http://www.assero.co.uk/CSN#d2f2bbeb-8f79-4fb1-b190-dd864d29f080> ;
	bd:classifiedAs <http://www.assero.co.uk/CSN#d46bb337-92cd-4250-b50c-9be5079d6ab3> ;
.
<http://www.cdisc.org/SDTM_MODEL_SUPPQUAL/V7#CL>
	rdf:type bd:SdtmClass ;
	isoC:label "SUPPQUAL"^^xsd:string ;
	isoT:hasState <http://www.cdisc.org/SDTM_MODEL_SUPPQUAL/V7#CL_RS> ;
	isoT:hasIdentifier <http://www.cdisc.org/SDTM_MODEL_SUPPQUAL/V7#CL_SI> ;
	isoT:hasPreviousVersion <http://www.cdisc.org/SDTM_MODEL_SUPPQUAL/V6#CL> ;
	isoT:origin ""^^xsd:string ;
	isoT:changeDescription ""^^xsd:string ;
	isoT:creationDate "2019-09-17T00:00:00+00:00"^^xsd:dateTime ;
	isoT:lastChangeDate "2019-09-17T00:00:00+00:00"^^xsd:dateTime ;
	isoT:explanatoryComment ""^^xsd:string ;
	bd:rule ""^^xsd:string ;
	bd:ordinal "1"^^xsd:positiveInteger ;
	bd:includesColumn <http://www.cdisc.org/SDTM_MODEL_SUPPQUAL/V6#CL_STUDYID> ;
	bd:includesColumn <http://www.cdisc.org/SDTM_MODEL_SUPPQUAL/V6#CL_RDOMAIN> ;
	bd:includesColumn <http://www.cdisc.org/SDTM_MODEL_SUPPQUAL/V6#CL_USUBJID> ;
	bd:includesColumn <http://www.cdisc.org/SDTM_MODEL_SUPPQUAL/V7#CL_APID> ;
	bd:includesColumn <http://www.cdisc.org/SDTM_MODEL_SUPPQUAL/V6#CL_POOLID> ;
	bd:includesColumn <http://www.cdisc.org/SDTM_MODEL_SUPPQUAL/V6#CL_IDVAR> ;
	bd:includesColumn <http://www.cdisc.org/SDTM_MODEL_SUPPQUAL/V6#CL_IDVARVAL> ;
	bd:includesColumn <http://www.cdisc.org/SDTM_MODEL_SUPPQUAL/V7#CL_QNAM> ;
	bd:includesColumn <http://www.cdisc.org/SDTM_MODEL_SUPPQUAL/V7#CL_QLABEL> ;
	bd:includesColumn <http://www.cdisc.org/SDTM_MODEL_SUPPQUAL/V6#CL_QVAL> ;
	bd:includesColumn <http://www.cdisc.org/SDTM_MODEL_SUPPQUAL/V6#CL_QORIG> ;
	bd:includesColumn <http://www.cdisc.org/SDTM_MODEL_SUPPQUAL/V6#CL_QEVAL> ;
.
<http://www.cdisc.org/SDTM_MODEL_SUPPQUAL/V7#CL_RS>
	rdf:type isoR:RegistrationState ;
	isoR:registrationStatus "Standard"^^xsd:string ;
	isoR:administrativeNote ""^^xsd:string ;
	isoR:effectiveDate "2016-01-01T00:00:00+00:00"^^xsd:dateTime ;
	isoR:untilDate "2016-01-01T00:00:00+00:00"^^xsd:dateTime ;
	isoR:unresolvedIssue ""^^xsd:string ;
	isoR:administrativeStatus ""^^xsd:string ;
	isoR:previousState "Standard"^^xsd:string ;
	isoR:multipleEdit "false"^^xsd:boolean ;
	isoR:byAuthority <http://www.assero.co.uk/RA#DUNS084433759> ;
.
<http://www.cdisc.org/SDTM_MODEL_SUPPQUAL/V7#CL_SI>
	rdf:type isoI:ScopedIdentifier ;
	isoI:identifier "SDTM MODEL SUPPQUAL"^^xsd:string ;
	isoI:versionLabel "2019-09-17 Release"^^xsd:string ;
	isoI:version "7"^^xsd:positiveInteger ;
	isoI:semanticVersion "7.0.0"^^xsd:string ;
	isoI:hasScope <http://www.assero.co.uk/NS#CDISC> ;
.
<http://www.cdisc.org/SDTM_MODEL_SUPPQUAL/V7#CL_APID>
	rdf:type bd:SdtmClassVariable ;
	isoC:label "Associated Persons Identifier"^^xsd:string ;
	bd:rule ""^^xsd:string ;
	bd:ordinal "4"^^xsd:positiveInteger ;
	bd:name "APID"^^xsd:string ;
	bd:prefixed "false"^^xsd:boolean ;
	bd:description "Identifier for a single associated person, a group of associated persons, or a pool of associated persons. If APID identifies a pool, POOLDEF records must exist for each associated person (see Section 4.1.3, Pool Definition Dataset, and Section 6.2, Associated Persons Relationships)."^^xsd:string ;
	bd:typedAs <http://www.assero.co.uk/CSN#d2f2bbeb-8f79-4fb1-b190-dd864d29f080> ;
	bd:classifiedAs <http://www.assero.co.uk/CSN#d46bb337-92cd-4250-b50c-9be5079d6ab3> ;
.
<http://www.cdisc.org/SDTM_MODEL_SUPPQUAL/V7#CL_QNAM>
	rdf:type bd:SdtmClassVariable ;
	isoC:label "Qualifier Variable Name"^^xsd:string ;
	bd:rule ""^^xsd:string ;
	bd:ordinal "8"^^xsd:positiveInteger ;
	bd:name "QNAM"^^xsd:string ;
	bd:prefixed "false"^^xsd:boolean ;
	bd:description "The short name of the Qualifier variable, which is used as a column name in a domain view with data from the parent domain. The value in QNAM cannot be longer than 8 characters, nor can it start with a number (e.g., \"1TEST\"). \n QNAM cannot contain characters other than letters, numbers, or underscores. This will often be the column name in the sponsor's operational dataset. QNAM should not be the name of any standard ADaM variable."^^xsd:string ;
	bd:typedAs <http://www.assero.co.uk/CSN#d2f2bbeb-8f79-4fb1-b190-dd864d29f080> ;
	bd:classifiedAs <http://www.assero.co.uk/CSN#692cafbf-658a-43f0-97a2-f040ecb1a20d> ;
.
<http://www.cdisc.org/SDTM_MODEL_SUPPQUAL/V7#CL_QLABEL>
	rdf:type bd:SdtmClassVariable ;
	isoC:label "Qualifier Variable Label"^^xsd:string ;
	bd:rule ""^^xsd:string ;
	bd:ordinal "9"^^xsd:positiveInteger ;
	bd:name "QLABEL"^^xsd:string ;
	bd:prefixed "false"^^xsd:boolean ;
	bd:description "This is the long name or label associated with QNAM. The value in QLABEL cannot be longer than 40 characters. This will often be the column label in the sponsor's original dataset."^^xsd:string ;
	bd:typedAs <http://www.assero.co.uk/CSN#d2f2bbeb-8f79-4fb1-b190-dd864d29f080> ;
	bd:classifiedAs <http://www.assero.co.uk/CSN#818a9757-1ee5-4bd3-a179-e662e26b5b47> ;
.
<http://www.cdisc.org/SDTM_MODEL_POOLDEF/V7#CL>
	rdf:type bd:SdtmClass ;
	isoC:label "POOLDEF"^^xsd:string ;
	isoT:hasState <http://www.cdisc.org/SDTM_MODEL_POOLDEF/V7#CL_RS> ;
	isoT:hasIdentifier <http://www.cdisc.org/SDTM_MODEL_POOLDEF/V7#CL_SI> ;
	isoT:hasPreviousVersion <http://www.cdisc.org/SDTM_MODEL_POOLDEF/V6#CL> ;
	isoT:origin ""^^xsd:string ;
	isoT:changeDescription ""^^xsd:string ;
	isoT:creationDate "2019-09-17T00:00:00+00:00"^^xsd:dateTime ;
	isoT:lastChangeDate "2019-09-17T00:00:00+00:00"^^xsd:dateTime ;
	isoT:explanatoryComment ""^^xsd:string ;
	bd:rule ""^^xsd:string ;
	bd:ordinal "1"^^xsd:positiveInteger ;
	bd:includesColumn <http://www.cdisc.org/SDTM_MODEL_POOLDEF/V6#CL_STUDYID> ;
	bd:includesColumn <http://www.cdisc.org/SDTM_MODEL_POOLDEF/V6#CL_POOLID> ;
	bd:includesColumn <http://www.cdisc.org/SDTM_MODEL_POOLDEF/V6#CL_USUBJID> ;
	bd:includesColumn <http://www.cdisc.org/SDTM_MODEL_POOLDEF/V6#CL_APID> ;
.
<http://www.cdisc.org/SDTM_MODEL_POOLDEF/V7#CL_RS>
	rdf:type isoR:RegistrationState ;
	isoR:registrationStatus "Standard"^^xsd:string ;
	isoR:administrativeNote ""^^xsd:string ;
	isoR:effectiveDate "2016-01-01T00:00:00+00:00"^^xsd:dateTime ;
	isoR:untilDate "2016-01-01T00:00:00+00:00"^^xsd:dateTime ;
	isoR:unresolvedIssue ""^^xsd:string ;
	isoR:administrativeStatus ""^^xsd:string ;
	isoR:previousState "Standard"^^xsd:string ;
	isoR:multipleEdit "false"^^xsd:boolean ;
	isoR:byAuthority <http://www.assero.co.uk/RA#DUNS084433759> ;
.
<http://www.cdisc.org/SDTM_MODEL_POOLDEF/V7#CL_SI>
	rdf:type isoI:ScopedIdentifier ;
	isoI:identifier "SDTM MODEL POOLDEF"^^xsd:string ;
	isoI:versionLabel "2019-09-17 Release"^^xsd:string ;
	isoI:version "7"^^xsd:positiveInteger ;
	isoI:semanticVersion "7.0.0"^^xsd:string ;
	isoI:hasScope <http://www.assero.co.uk/NS#CDISC> ;
.
<http://www.cdisc.org/SDTM_MODEL_RELSUB/V7#CL>
	rdf:type bd:SdtmClass ;
	isoC:label "RELSUB"^^xsd:string ;
	isoT:hasState <http://www.cdisc.org/SDTM_MODEL_RELSUB/V7#CL_RS> ;
	isoT:hasIdentifier <http://www.cdisc.org/SDTM_MODEL_RELSUB/V7#CL_SI> ;
	isoT:hasPreviousVersion <http://www.cdisc.org/SDTM_MODEL_RELSUB/V6#CL> ;
	isoT:origin ""^^xsd:string ;
	isoT:changeDescription ""^^xsd:string ;
	isoT:creationDate "2019-09-17T00:00:00+00:00"^^xsd:dateTime ;
	isoT:lastChangeDate "2019-09-17T00:00:00+00:00"^^xsd:dateTime ;
	isoT:explanatoryComment ""^^xsd:string ;
	bd:rule ""^^xsd:string ;
	bd:ordinal "1"^^xsd:positiveInteger ;
	bd:includesColumn <http://www.cdisc.org/SDTM_MODEL_RELSUB/V6#CL_STUDYID> ;
	bd:includesColumn <http://www.cdisc.org/SDTM_MODEL_RELSUB/V6#CL_USUBJID> ;
	bd:includesColumn <http://www.cdisc.org/SDTM_MODEL_RELSUB/V6#CL_POOLID> ;
	bd:includesColumn <http://www.cdisc.org/SDTM_MODEL_RELSUB/V6#CL_RSUBJID> ;
	bd:includesColumn <http://www.cdisc.org/SDTM_MODEL_RELSUB/V6#CL_SREL> ;
.
<http://www.cdisc.org/SDTM_MODEL_RELSUB/V7#CL_RS>
	rdf:type isoR:RegistrationState ;
	isoR:registrationStatus "Standard"^^xsd:string ;
	isoR:administrativeNote ""^^xsd:string ;
	isoR:effectiveDate "2016-01-01T00:00:00+00:00"^^xsd:dateTime ;
	isoR:untilDate "2016-01-01T00:00:00+00:00"^^xsd:dateTime ;
	isoR:unresolvedIssue ""^^xsd:string ;
	isoR:administrativeStatus ""^^xsd:string ;
	isoR:previousState "Standard"^^xsd:string ;
	isoR:multipleEdit "false"^^xsd:boolean ;
	isoR:byAuthority <http://www.assero.co.uk/RA#DUNS084433759> ;
.
<http://www.cdisc.org/SDTM_MODEL_RELSUB/V7#CL_SI>
	rdf:type isoI:ScopedIdentifier ;
	isoI:identifier "SDTM MODEL RELSUB"^^xsd:string ;
	isoI:versionLabel "2019-09-17 Release"^^xsd:string ;
	isoI:version "7"^^xsd:positiveInteger ;
	isoI:semanticVersion "7.0.0"^^xsd:string ;
	isoI:hasScope <http://www.assero.co.uk/NS#CDISC> ;
.