---
- :type: IG
  :order: 1
  :instance:
    :operation:
      :action: CREATE
      :new_version: '1'
      :new_semantic_version: 0.1.0
      :new_state: Standard
      :identifier_edit: true
    :managed_item:
      :type: http://www.assero.co.uk/BusinessDomain#Model
      :id: ''
      :namespace: ''
      :label: SDTM Implementation Guide 2017-01-01
      :extension_properties: []
      :origin: ''
      :change_description: ''
      :creation_date: '2017-01-01'
      :last_changed_date: '2017-10-19T19:08:52+01:00'
      :explanatory_comment: ''
      :registration_state:
        :namespace: http://www.assero.co.uk/MDRItems
        :id: ''
        :registration_authority:
          :id: ''
          :number: "<Not Set>"
          :scheme: DUNS
          :owner: false
          :namespace:
            :namespace: ''
            :id: ''
            :name: ''
            :shortName: ''
        :registration_status: Not_Set
        :administrative_note: ''
        :effective_date: '2016-01-01T00:00:00+00:00'
        :until_date: '2016-01-01T00:00:00+00:00'
        :current: false
        :unresolved_issue: ''
        :administrative_status: ''
        :previous_state: Not_Set
      :scoped_identifier:
        :id: ''
        :identifier: SDTM IG
        :version_label: Version Label
        :version: 0
        :semantic_version: 0.0.0
        :namespace:
          :namespace: ''
          :id: ''
          :name: ''
          :shortName: ''
      :ordinal: 1
      :rule: ''
      :children: []
      :class_refs: []
- :type: IG_DOMAIN
  :order: 2
  :instance:
    :operation:
      :action: CREATE
      :new_version: '1'
      :new_semantic_version: 0.1.0
      :new_state: Standard
      :identifier_edit: true
    :managed_item:
      :type: ''
      :id: ''
      :namespace: ''
      :label: Adverse Events
      :extension_properties: []
      :origin: ''
      :change_description: ''
      :creation_date: '2017-01-01'
      :last_changed_date: '2017-10-19T19:08:53+01:00'
      :explanatory_comment: ''
      :registration_state:
        :namespace: http://www.assero.co.uk/MDRItems
        :id: ''
        :registration_authority:
          :id: ''
          :number: "<Not Set>"
          :scheme: DUNS
          :owner: false
          :namespace:
            :namespace: ''
            :id: ''
            :name: ''
            :shortName: ''
        :registration_status: Not_Set
        :administrative_note: ''
        :effective_date: '2016-01-01T00:00:00+00:00'
        :until_date: '2016-01-01T00:00:00+00:00'
        :current: false
        :unresolved_issue: ''
        :administrative_status: ''
        :previous_state: Not_Set
      :scoped_identifier:
        :id: ''
        :identifier: SDTM IG AE
        :version_label: Version Label
        :version: 0
        :semantic_version: 0.0.0
        :namespace:
          :namespace: ''
          :id: ''
          :name: ''
          :shortName: ''
      :ordinal: 1
      :rule: ''
      :prefix: AE
      :structure: One record per adverse event per subject
      :model_ref:
        :type: http://www.assero.co.uk/BusinessOperational#Reference
        :id: ''
        :namespace: ''
        :label: ''
        :extension_properties: []
        :enabled: true
        :optional: false
        :ordinal: 0
        :local_label: ''
        :subject_ref: 'null'
      :children:
      - :type: http://www.assero.co.uk/BusinessDomain#IgVariable
        :id: ''
        :namespace: ''
        :label: Study Identifier
        :extension_properties: []
        :ordinal: '1'
        :rule: ''
        :name: STUDYID
        :notes: Unique identifier for a study.
        :controlled_term_or_format: ''
        :compliance:
          :type: http://www.assero.co.uk/BusinessDomain#VariableCompliance
          :id: ''
          :namespace: ''
          :label: Required
          :extension_properties: []
        :variable_ref:
          :type: http://www.assero.co.uk/BusinessOperational#Reference
          :id: ''
          :namespace: ''
          :label: ''
          :extension_properties: []
          :enabled: true
          :optional: false
          :ordinal: 0
          :local_label: ''
          :subject_ref: 'null'
        :variable_class: Events
        :variable_domain_prefix: AE
        :variable_name_minus: STUDYID
        :variable_type: Char
        :variable_classification: Identifier
        :variable_sub_classification: Not Applicable
        :variable_prefixed: false
      - :type: http://www.assero.co.uk/BusinessDomain#IgVariable
        :id: ''
        :namespace: ''
        :label: Domain Abbreviation
        :extension_properties: []
        :ordinal: '2'
        :rule: ''
        :name: DOMAIN
        :notes: Two-character abbreviation for the domain.
        :controlled_term_or_format: "(DOMAIN)"
        :compliance:
          :type: http://www.assero.co.uk/BusinessDomain#VariableCompliance
          :id: ''
          :namespace: ''
          :label: Required
          :extension_properties: []
        :variable_ref:
          :type: http://www.assero.co.uk/BusinessOperational#Reference
          :id: ''
          :namespace: ''
          :label: ''
          :extension_properties: []
          :enabled: true
          :optional: false
          :ordinal: 0
          :local_label: ''
          :subject_ref: 'null'
        :variable_class: Events
        :variable_domain_prefix: AE
        :variable_name_minus: DOMAIN
        :variable_type: Char
        :variable_classification: Identifier
        :variable_sub_classification: Not Applicable
        :variable_prefixed: false
      - :type: http://www.assero.co.uk/BusinessDomain#IgVariable
        :id: ''
        :namespace: ''
        :label: Unique Subject Identifier
        :extension_properties: []
        :ordinal: '3'
        :rule: ''
        :name: USUBJID
        :notes: Identifier used to uniquely identify a subject across all studies
          for all applications or submissions involving the product.
        :controlled_term_or_format: ''
        :compliance:
          :type: http://www.assero.co.uk/BusinessDomain#VariableCompliance
          :id: ''
          :namespace: ''
          :label: Required
          :extension_properties: []
        :variable_ref:
          :type: http://www.assero.co.uk/BusinessOperational#Reference
          :id: ''
          :namespace: ''
          :label: ''
          :extension_properties: []
          :enabled: true
          :optional: false
          :ordinal: 0
          :local_label: ''
          :subject_ref: 'null'
        :variable_class: Events
        :variable_domain_prefix: AE
        :variable_name_minus: USUBJID
        :variable_type: Char
        :variable_classification: Identifier
        :variable_sub_classification: Not Applicable
        :variable_prefixed: false
      - :type: http://www.assero.co.uk/BusinessDomain#IgVariable
        :id: ''
        :namespace: ''
        :label: Sequence Number
        :extension_properties: []
        :ordinal: '4'
        :rule: ''
        :name: AESEQ
        :notes: Sequence Number given to ensure uniqueness of subject records within
          a domain. May be any valid number.
        :controlled_term_or_format: ''
        :compliance:
          :type: http://www.assero.co.uk/BusinessDomain#VariableCompliance
          :id: ''
          :namespace: ''
          :label: Required
          :extension_properties: []
        :variable_ref:
          :type: http://www.assero.co.uk/BusinessOperational#Reference
          :id: ''
          :namespace: ''
          :label: ''
          :extension_properties: []
          :enabled: true
          :optional: false
          :ordinal: 0
          :local_label: ''
          :subject_ref: 'null'
        :variable_class: Events
        :variable_domain_prefix: AE
        :variable_name_minus: SEQ
        :variable_type: Num
        :variable_classification: Identifier
        :variable_sub_classification: Not Applicable
        :variable_prefixed: false
      - :type: http://www.assero.co.uk/BusinessDomain#IgVariable
        :id: ''
        :namespace: ''
        :label: Group ID
        :extension_properties: []
        :ordinal: '5'
        :rule: ''
        :name: AEGRPID
        :notes: Used to tie together a block of related records in a single domain
          for a subject.
        :controlled_term_or_format: ''
        :compliance:
          :type: http://www.assero.co.uk/BusinessDomain#VariableCompliance
          :id: ''
          :namespace: ''
          :label: Permissible
          :extension_properties: []
        :variable_ref:
          :type: http://www.assero.co.uk/BusinessOperational#Reference
          :id: ''
          :namespace: ''
          :label: ''
          :extension_properties: []
          :enabled: true
          :optional: false
          :ordinal: 0
          :local_label: ''
          :subject_ref: 'null'
        :variable_class: Events
        :variable_domain_prefix: AE
        :variable_name_minus: GRPID
        :variable_type: Char
        :variable_classification: Identifier
        :variable_sub_classification: Not Applicable
        :variable_prefixed: false
      - :type: http://www.assero.co.uk/BusinessDomain#IgVariable
        :id: ''
        :namespace: ''
        :label: Reference ID
        :extension_properties: []
        :ordinal: '6'
        :rule: ''
        :name: AEREFID
        :notes: Internal or external identifier such as a serial number on an SAE
          reporting form.
        :controlled_term_or_format: ''
        :compliance:
          :type: http://www.assero.co.uk/BusinessDomain#VariableCompliance
          :id: ''
          :namespace: ''
          :label: Permissible
          :extension_properties: []
        :variable_ref:
          :type: http://www.assero.co.uk/BusinessOperational#Reference
          :id: ''
          :namespace: ''
          :label: ''
          :extension_properties: []
          :enabled: true
          :optional: false
          :ordinal: 0
          :local_label: ''
          :subject_ref: 'null'
        :variable_class: Events
        :variable_domain_prefix: AE
        :variable_name_minus: REFID
        :variable_type: Char
        :variable_classification: Identifier
        :variable_sub_classification: Not Applicable
        :variable_prefixed: false
      - :type: http://www.assero.co.uk/BusinessDomain#IgVariable
        :id: ''
        :namespace: ''
        :label: Sponsor-Defined Identifier
        :extension_properties: []
        :ordinal: '7'
        :rule: ''
        :name: AESPID
        :notes: 'Sponsor-defined identifier. It may be pre-printed on the CRF as an
          explicit line identifier or defined in the sponsor’s operational database.
          Example: Line number on an Adverse Events page.'
        :controlled_term_or_format: ''
        :compliance:
          :type: http://www.assero.co.uk/BusinessDomain#VariableCompliance
          :id: ''
          :namespace: ''
          :label: Permissible
          :extension_properties: []
        :variable_ref:
          :type: http://www.assero.co.uk/BusinessOperational#Reference
          :id: ''
          :namespace: ''
          :label: ''
          :extension_properties: []
          :enabled: true
          :optional: false
          :ordinal: 0
          :local_label: ''
          :subject_ref: 'null'
        :variable_class: Events
        :variable_domain_prefix: AE
        :variable_name_minus: SPID
        :variable_type: Char
        :variable_classification: Identifier
        :variable_sub_classification: Not Applicable
        :variable_prefixed: false
      - :type: http://www.assero.co.uk/BusinessDomain#IgVariable
        :id: ''
        :namespace: ''
        :label: Reported Term for the Adverse Event
        :extension_properties: []
        :ordinal: '8'
        :rule: ''
        :name: AETERM
        :notes: Verbatim name of the event.
        :controlled_term_or_format: ''
        :compliance:
          :type: http://www.assero.co.uk/BusinessDomain#VariableCompliance
          :id: ''
          :namespace: ''
          :label: Required
          :extension_properties: []
        :variable_ref:
          :type: http://www.assero.co.uk/BusinessOperational#Reference
          :id: ''
          :namespace: ''
          :label: ''
          :extension_properties: []
          :enabled: true
          :optional: false
          :ordinal: 0
          :local_label: ''
          :subject_ref: 'null'
        :variable_class: Events
        :variable_domain_prefix: AE
        :variable_name_minus: TERM
        :variable_type: Char
        :variable_classification: Topic
        :variable_sub_classification: Not Applicable
        :variable_prefixed: false
      - :type: http://www.assero.co.uk/BusinessDomain#IgVariable
        :id: ''
        :namespace: ''
        :label: Modified Reported Term
        :extension_properties: []
        :ordinal: '9'
        :rule: ''
        :name: AEMODIFY
        :notes: If AETERM is modified to facilitate coding, then AEMODIFY will contain
          the modified text.
        :controlled_term_or_format: ''
        :compliance:
          :type: http://www.assero.co.uk/BusinessDomain#VariableCompliance
          :id: ''
          :namespace: ''
          :label: Permissible
          :extension_properties: []
        :variable_ref:
          :type: http://www.assero.co.uk/BusinessOperational#Reference
          :id: ''
          :namespace: ''
          :label: ''
          :extension_properties: []
          :enabled: true
          :optional: false
          :ordinal: 0
          :local_label: ''
          :subject_ref: 'null'
        :variable_class: Events
        :variable_domain_prefix: AE
        :variable_name_minus: MODIFY
        :variable_type: Char
        :variable_classification: Qualifier
        :variable_sub_classification: Synonym Qualifier
        :variable_prefixed: false
      - :type: http://www.assero.co.uk/BusinessDomain#IgVariable
        :id: ''
        :namespace: ''
        :label: Lowest Level Term
        :extension_properties: []
        :ordinal: '10'
        :rule: ''
        :name: AELLT
        :notes: Dictionary-derived text description of the Lowest Level Term.
        :controlled_term_or_format: MedDRA
        :compliance:
          :type: http://www.assero.co.uk/BusinessDomain#VariableCompliance
          :id: ''
          :namespace: ''
          :label: Expected
          :extension_properties: []
        :variable_ref:
          :type: http://www.assero.co.uk/BusinessOperational#Reference
          :id: ''
          :namespace: ''
          :label: ''
          :extension_properties: []
          :enabled: true
          :optional: false
          :ordinal: 0
          :local_label: ''
          :subject_ref: 'null'
        :variable_class: Events
        :variable_domain_prefix: AE
        :variable_name_minus: LLT
        :variable_type: Char
        :variable_classification: Qualifier
        :variable_sub_classification: Variable Qualifier
        :variable_prefixed: false
      - :type: http://www.assero.co.uk/BusinessDomain#IgVariable
        :id: ''
        :namespace: ''
        :label: Lowest Level Term Code
        :extension_properties: []
        :ordinal: '11'
        :rule: ''
        :name: AELLTCD
        :notes: Dictionary-derived code for the Lowest Level Term.
        :controlled_term_or_format: MedDRA
        :compliance:
          :type: http://www.assero.co.uk/BusinessDomain#VariableCompliance
          :id: ''
          :namespace: ''
          :label: Expected
          :extension_properties: []
        :variable_ref:
          :type: http://www.assero.co.uk/BusinessOperational#Reference
          :id: ''
          :namespace: ''
          :label: ''
          :extension_properties: []
          :enabled: true
          :optional: false
          :ordinal: 0
          :local_label: ''
          :subject_ref: 'null'
        :variable_class: Events
        :variable_domain_prefix: AE
        :variable_name_minus: LLTCD
        :variable_type: Num
        :variable_classification: Qualifier
        :variable_sub_classification: Variable Qualifier
        :variable_prefixed: false
      - :type: http://www.assero.co.uk/BusinessDomain#IgVariable
        :id: ''
        :namespace: ''
        :label: Dictionary-Derived Term
        :extension_properties: []
        :ordinal: '12'
        :rule: ''
        :name: AEDECOD
        :notes: Dictionary-derived text description of AETERM or AEMODIFY. Equivalent
          to the Preferred Term (PT in MedDRA). The sponsor is expected to provide
          the dictionary name and version used to map the terms utilizing the define.xml
          external codelist attributes.
        :controlled_term_or_format: MedDRA
        :compliance:
          :type: http://www.assero.co.uk/BusinessDomain#VariableCompliance
          :id: ''
          :namespace: ''
          :label: Required
          :extension_properties: []
        :variable_ref:
          :type: http://www.assero.co.uk/BusinessOperational#Reference
          :id: ''
          :namespace: ''
          :label: ''
          :extension_properties: []
          :enabled: true
          :optional: false
          :ordinal: 0
          :local_label: ''
          :subject_ref: 'null'
        :variable_class: Events
        :variable_domain_prefix: AE
        :variable_name_minus: DECOD
        :variable_type: Char
        :variable_classification: Qualifier
        :variable_sub_classification: Synonym Qualifier
        :variable_prefixed: false
      - :type: http://www.assero.co.uk/BusinessDomain#IgVariable
        :id: ''
        :namespace: ''
        :label: Preferred Term Code
        :extension_properties: []
        :ordinal: '13'
        :rule: ''
        :name: AEPTCD
        :notes: Dictionary-derived code for the Preferred Term.
        :controlled_term_or_format: MedDRA
        :compliance:
          :type: http://www.assero.co.uk/BusinessDomain#VariableCompliance
          :id: ''
          :namespace: ''
          :label: Expected
          :extension_properties: []
        :variable_ref:
          :type: http://www.assero.co.uk/BusinessOperational#Reference
          :id: ''
          :namespace: ''
          :label: ''
          :extension_properties: []
          :enabled: true
          :optional: false
          :ordinal: 0
          :local_label: ''
          :subject_ref: 'null'
        :variable_class: Events
        :variable_domain_prefix: AE
        :variable_name_minus: PTCD
        :variable_type: Num
        :variable_classification: Qualifier
        :variable_sub_classification: Variable Qualifier
        :variable_prefixed: false
      - :type: http://www.assero.co.uk/BusinessDomain#IgVariable
        :id: ''
        :namespace: ''
        :label: High Level Term
        :extension_properties: []
        :ordinal: '14'
        :rule: ''
        :name: AEHLT
        :notes: Dictionary-derived text description of the High Level Term for the
          primary System Organ Class.
        :controlled_term_or_format: MedDRA
        :compliance:
          :type: http://www.assero.co.uk/BusinessDomain#VariableCompliance
          :id: ''
          :namespace: ''
          :label: Expected
          :extension_properties: []
        :variable_ref:
          :type: http://www.assero.co.uk/BusinessOperational#Reference
          :id: ''
          :namespace: ''
          :label: ''
          :extension_properties: []
          :enabled: true
          :optional: false
          :ordinal: 0
          :local_label: ''
          :subject_ref: 'null'
        :variable_class: Events
        :variable_domain_prefix: AE
        :variable_name_minus: HLT
        :variable_type: Char
        :variable_classification: Qualifier
        :variable_sub_classification: Variable Qualifier
        :variable_prefixed: false
      - :type: http://www.assero.co.uk/BusinessDomain#IgVariable
        :id: ''
        :namespace: ''
        :label: High Level Term Code
        :extension_properties: []
        :ordinal: '15'
        :rule: ''
        :name: AEHLTCD
        :notes: Dictionary-derived code for the High Level Term for the primary System
          Organ Class.
        :controlled_term_or_format: MedDRA
        :compliance:
          :type: http://www.assero.co.uk/BusinessDomain#VariableCompliance
          :id: ''
          :namespace: ''
          :label: Expected
          :extension_properties: []
        :variable_ref:
          :type: http://www.assero.co.uk/BusinessOperational#Reference
          :id: ''
          :namespace: ''
          :label: ''
          :extension_properties: []
          :enabled: true
          :optional: false
          :ordinal: 0
          :local_label: ''
          :subject_ref: 'null'
        :variable_class: Events
        :variable_domain_prefix: AE
        :variable_name_minus: HLTCD
        :variable_type: Num
        :variable_classification: Qualifier
        :variable_sub_classification: Variable Qualifier
        :variable_prefixed: false
      - :type: http://www.assero.co.uk/BusinessDomain#IgVariable
        :id: ''
        :namespace: ''
        :label: High Level Group Term
        :extension_properties: []
        :ordinal: '16'
        :rule: ''
        :name: AEHLGT
        :notes: Dictionary-derived text description of the High Level Group Term for
          the primary System Organ Class.
        :controlled_term_or_format: MedDRA
        :compliance:
          :type: http://www.assero.co.uk/BusinessDomain#VariableCompliance
          :id: ''
          :namespace: ''
          :label: Expected
          :extension_properties: []
        :variable_ref:
          :type: http://www.assero.co.uk/BusinessOperational#Reference
          :id: ''
          :namespace: ''
          :label: ''
          :extension_properties: []
          :enabled: true
          :optional: false
          :ordinal: 0
          :local_label: ''
          :subject_ref: 'null'
        :variable_class: Events
        :variable_domain_prefix: AE
        :variable_name_minus: HLGT
        :variable_type: Char
        :variable_classification: Qualifier
        :variable_sub_classification: Variable Qualifier
        :variable_prefixed: false
      - :type: http://www.assero.co.uk/BusinessDomain#IgVariable
        :id: ''
        :namespace: ''
        :label: High Level Group Term Code
        :extension_properties: []
        :ordinal: '17'
        :rule: ''
        :name: AEHLGTCD
        :notes: Dictionary-derived code for the High Level Group Term for the primary
          System Organ Class.
        :controlled_term_or_format: MedDRA
        :compliance:
          :type: http://www.assero.co.uk/BusinessDomain#VariableCompliance
          :id: ''
          :namespace: ''
          :label: Expected
          :extension_properties: []
        :variable_ref:
          :type: http://www.assero.co.uk/BusinessOperational#Reference
          :id: ''
          :namespace: ''
          :label: ''
          :extension_properties: []
          :enabled: true
          :optional: false
          :ordinal: 0
          :local_label: ''
          :subject_ref: 'null'
        :variable_class: Events
        :variable_domain_prefix: AE
        :variable_name_minus: HLGTCD
        :variable_type: Num
        :variable_classification: Qualifier
        :variable_sub_classification: Variable Qualifier
        :variable_prefixed: false
      - :type: http://www.assero.co.uk/BusinessDomain#IgVariable
        :id: ''
        :namespace: ''
        :label: Category for Adverse Event
        :extension_properties: []
        :ordinal: '18'
        :rule: ''
        :name: AECAT
        :notes: 'Used to define a category of related records. Example: BLEEDING,
          NEUROPSYCHIATRIC.'
        :controlled_term_or_format: ''
        :compliance:
          :type: http://www.assero.co.uk/BusinessDomain#VariableCompliance
          :id: ''
          :namespace: ''
          :label: Permissible
          :extension_properties: []
        :variable_ref:
          :type: http://www.assero.co.uk/BusinessOperational#Reference
          :id: ''
          :namespace: ''
          :label: ''
          :extension_properties: []
          :enabled: true
          :optional: false
          :ordinal: 0
          :local_label: ''
          :subject_ref: 'null'
        :variable_class: Events
        :variable_domain_prefix: AE
        :variable_name_minus: CAT
        :variable_type: Char
        :variable_classification: Qualifier
        :variable_sub_classification: Grouping Qualifier
        :variable_prefixed: false
      - :type: http://www.assero.co.uk/BusinessDomain#IgVariable
        :id: ''
        :namespace: ''
        :label: Subcategory for Adverse Event
        :extension_properties: []
        :ordinal: '19'
        :rule: ''
        :name: AESCAT
        :notes: 'A further categorization of adverse event. Example: NEUROLOGIC.'
        :controlled_term_or_format: ''
        :compliance:
          :type: http://www.assero.co.uk/BusinessDomain#VariableCompliance
          :id: ''
          :namespace: ''
          :label: Permissible
          :extension_properties: []
        :variable_ref:
          :type: http://www.assero.co.uk/BusinessOperational#Reference
          :id: ''
          :namespace: ''
          :label: ''
          :extension_properties: []
          :enabled: true
          :optional: false
          :ordinal: 0
          :local_label: ''
          :subject_ref: 'null'
        :variable_class: Events
        :variable_domain_prefix: AE
        :variable_name_minus: SCAT
        :variable_type: Char
        :variable_classification: Qualifier
        :variable_sub_classification: Grouping Qualifier
        :variable_prefixed: false
      - :type: http://www.assero.co.uk/BusinessDomain#IgVariable
        :id: ''
        :namespace: ''
        :label: Pre-Specified Adverse Event
        :extension_properties: []
        :ordinal: '20'
        :rule: ''
        :name: AEPRESP
        :notes: A value of “Y” indicates that this adverse event was pre-specified
          on the CRF. Values are null for spontaneously reported events (i.e., those
          collected as free-text verbatim terms)
        :controlled_term_or_format: "(NY)"
        :compliance:
          :type: http://www.assero.co.uk/BusinessDomain#VariableCompliance
          :id: ''
          :namespace: ''
          :label: Permissible
          :extension_properties: []
        :variable_ref:
          :type: http://www.assero.co.uk/BusinessOperational#Reference
          :id: ''
          :namespace: ''
          :label: ''
          :extension_properties: []
          :enabled: true
          :optional: false
          :ordinal: 0
          :local_label: ''
          :subject_ref: 'null'
        :variable_class: Events
        :variable_domain_prefix: AE
        :variable_name_minus: PRESP
        :variable_type: Char
        :variable_classification: Qualifier
        :variable_sub_classification: Variable Qualifier
        :variable_prefixed: false
      - :type: http://www.assero.co.uk/BusinessDomain#IgVariable
        :id: ''
        :namespace: ''
        :label: Body System or Organ Class
        :extension_properties: []
        :ordinal: '21'
        :rule: ''
        :name: AEBODSYS
        :notes: Dictionary derived. Body system or organ class used by the sponsor
          from the coding dictionary (e.g., MedDRA). When using a multi-axial dictionary
          such as MedDRA, this should contain the SOC used for the sponsor’s analyses
          and summary tables which may not necessarily be the primary SOC.
        :controlled_term_or_format: ''
        :compliance:
          :type: http://www.assero.co.uk/BusinessDomain#VariableCompliance
          :id: ''
          :namespace: ''
          :label: Expected
          :extension_properties: []
        :variable_ref:
          :type: http://www.assero.co.uk/BusinessOperational#Reference
          :id: ''
          :namespace: ''
          :label: ''
          :extension_properties: []
          :enabled: true
          :optional: false
          :ordinal: 0
          :local_label: ''
          :subject_ref: 'null'
        :variable_class: Events
        :variable_domain_prefix: AE
        :variable_name_minus: BODSYS
        :variable_type: Char
        :variable_classification: Qualifier
        :variable_sub_classification: Record Qualifier
        :variable_prefixed: false
      - :type: http://www.assero.co.uk/BusinessDomain#IgVariable
        :id: ''
        :namespace: ''
        :label: Body System or Organ Class Code
        :extension_properties: []
        :ordinal: '22'
        :rule: ''
        :name: AEBDSYCD
        :notes: Dictionary derived. Code for the body system or organ class used by
          the sponsor. When using a multi-axial dictionary such as MedDRA, this should
          contain the SOC used for the sponsor’s analyses and summary tables, which
          may not necessarily be the primary SOC.
        :controlled_term_or_format: MedDRA
        :compliance:
          :type: http://www.assero.co.uk/BusinessDomain#VariableCompliance
          :id: ''
          :namespace: ''
          :label: Expected
          :extension_properties: []
        :variable_ref:
          :type: http://www.assero.co.uk/BusinessOperational#Reference
          :id: ''
          :namespace: ''
          :label: ''
          :extension_properties: []
          :enabled: true
          :optional: false
          :ordinal: 0
          :local_label: ''
          :subject_ref: 'null'
        :variable_class: Events
        :variable_domain_prefix: AE
        :variable_name_minus: BDSYCD
        :variable_type: Num
        :variable_classification: Qualifier
        :variable_sub_classification: Variable Qualifier
        :variable_prefixed: false
      - :type: http://www.assero.co.uk/BusinessDomain#IgVariable
        :id: ''
        :namespace: ''
        :label: Primary System Organ Class
        :extension_properties: []
        :ordinal: '23'
        :rule: ''
        :name: AESOC
        :notes: Dictionary-derived text description of the primary System Organ Class.
          Will be the same as AEBODSYS if the primary SOC was used for analysis.
        :controlled_term_or_format: MedDRA
        :compliance:
          :type: http://www.assero.co.uk/BusinessDomain#VariableCompliance
          :id: ''
          :namespace: ''
          :label: Expected
          :extension_properties: []
        :variable_ref:
          :type: http://www.assero.co.uk/BusinessOperational#Reference
          :id: ''
          :namespace: ''
          :label: ''
          :extension_properties: []
          :enabled: true
          :optional: false
          :ordinal: 0
          :local_label: ''
          :subject_ref: 'null'
        :variable_class: Events
        :variable_domain_prefix: AE
        :variable_name_minus: SOC
        :variable_type: Char
        :variable_classification: Qualifier
        :variable_sub_classification: Variable Qualifier
        :variable_prefixed: false
      - :type: http://www.assero.co.uk/BusinessDomain#IgVariable
        :id: ''
        :namespace: ''
        :label: Primary System Organ Class Code
        :extension_properties: []
        :ordinal: '24'
        :rule: ''
        :name: AESOCCD
        :notes: Dictionary-derived code for the primary System Organ Class. Will be
          the same as AEBDSYCD if the primary SOC was used for analysis.
        :controlled_term_or_format: MedDRA
        :compliance:
          :type: http://www.assero.co.uk/BusinessDomain#VariableCompliance
          :id: ''
          :namespace: ''
          :label: Expected
          :extension_properties: []
        :variable_ref:
          :type: http://www.assero.co.uk/BusinessOperational#Reference
          :id: ''
          :namespace: ''
          :label: ''
          :extension_properties: []
          :enabled: true
          :optional: false
          :ordinal: 0
          :local_label: ''
          :subject_ref: 'null'
        :variable_class: Events
        :variable_domain_prefix: AE
        :variable_name_minus: SOCCD
        :variable_type: Num
        :variable_classification: Qualifier
        :variable_sub_classification: Variable Qualifier
        :variable_prefixed: false
      - :type: http://www.assero.co.uk/BusinessDomain#IgVariable
        :id: ''
        :namespace: ''
        :label: Location of Event
        :extension_properties: []
        :ordinal: '25'
        :rule: ''
        :name: AELOC
        :notes: Describes anatomical location relevant for the event (e.g., ARM for
          skin rash).
        :controlled_term_or_format: "(LOC)"
        :compliance:
          :type: http://www.assero.co.uk/BusinessDomain#VariableCompliance
          :id: ''
          :namespace: ''
          :label: Permissible
          :extension_properties: []
        :variable_ref:
          :type: http://www.assero.co.uk/BusinessOperational#Reference
          :id: ''
          :namespace: ''
          :label: ''
          :extension_properties: []
          :enabled: true
          :optional: false
          :ordinal: 0
          :local_label: ''
          :subject_ref: 'null'
        :variable_class: Events
        :variable_domain_prefix: AE
        :variable_name_minus: LOC
        :variable_type: Char
        :variable_classification: Qualifier
        :variable_sub_classification: Record Qualifier
        :variable_prefixed: false
      - :type: http://www.assero.co.uk/BusinessDomain#IgVariable
        :id: ''
        :namespace: ''
        :label: Severity/Intensity
        :extension_properties: []
        :ordinal: '26'
        :rule: ''
        :name: AESEV
        :notes: 'The severity or intensity of the event. Examples: MILD, MODERATE,
          SEVERE.'
        :controlled_term_or_format: "(AESEV)"
        :compliance:
          :type: http://www.assero.co.uk/BusinessDomain#VariableCompliance
          :id: ''
          :namespace: ''
          :label: Permissible
          :extension_properties: []
        :variable_ref:
          :type: http://www.assero.co.uk/BusinessOperational#Reference
          :id: ''
          :namespace: ''
          :label: ''
          :extension_properties: []
          :enabled: true
          :optional: false
          :ordinal: 0
          :local_label: ''
          :subject_ref: 'null'
        :variable_class: Events
        :variable_domain_prefix: AE
        :variable_name_minus: SEV
        :variable_type: Char
        :variable_classification: Qualifier
        :variable_sub_classification: Record Qualifier
        :variable_prefixed: false
      - :type: http://www.assero.co.uk/BusinessDomain#IgVariable
        :id: ''
        :namespace: ''
        :label: Serious Event
        :extension_properties: []
        :ordinal: '27'
        :rule: ''
        :name: AESER
        :notes: Is this a serious event?
        :controlled_term_or_format: "(NY)"
        :compliance:
          :type: http://www.assero.co.uk/BusinessDomain#VariableCompliance
          :id: ''
          :namespace: ''
          :label: Expected
          :extension_properties: []
        :variable_ref:
          :type: http://www.assero.co.uk/BusinessOperational#Reference
          :id: ''
          :namespace: ''
          :label: ''
          :extension_properties: []
          :enabled: true
          :optional: false
          :ordinal: 0
          :local_label: ''
          :subject_ref: 'null'
        :variable_class: Events
        :variable_domain_prefix: AE
        :variable_name_minus: SER
        :variable_type: Char
        :variable_classification: Qualifier
        :variable_sub_classification: Record Qualifier
        :variable_prefixed: false
      - :type: http://www.assero.co.uk/BusinessDomain#IgVariable
        :id: ''
        :namespace: ''
        :label: Action Taken with Study Treatment
        :extension_properties: []
        :ordinal: '28'
        :rule: ''
        :name: AEACN
        :notes: 'Describes changes to the study treatment as a result of the event.
          AEACN is specifically for the relationship to study treatment. AEACNOTH
          is for actions unrelated to dose adjustments of study treatment. Examples
          of AEACN values include ICH E2B values: DRUG WITHDRAWN, DOSE REDUCED, DOSE
          INCREASED, DOSE NOT CHANGED, UNKNOWN or NOT APPLICABLE.'
        :controlled_term_or_format: "(ACN)"
        :compliance:
          :type: http://www.assero.co.uk/BusinessDomain#VariableCompliance
          :id: ''
          :namespace: ''
          :label: Expected
          :extension_properties: []
        :variable_ref:
          :type: http://www.assero.co.uk/BusinessOperational#Reference
          :id: ''
          :namespace: ''
          :label: ''
          :extension_properties: []
          :enabled: true
          :optional: false
          :ordinal: 0
          :local_label: ''
          :subject_ref: 'null'
        :variable_class: Events
        :variable_domain_prefix: AE
        :variable_name_minus: ACN
        :variable_type: Char
        :variable_classification: Qualifier
        :variable_sub_classification: Record Qualifier
        :variable_prefixed: false
      - :type: http://www.assero.co.uk/BusinessDomain#IgVariable
        :id: ''
        :namespace: ''
        :label: Other Action Taken
        :extension_properties: []
        :ordinal: '29'
        :rule: ''
        :name: AEACNOTH
        :notes: 'Describes other actions taken as a result of the event that are unrelated
          to dose adjustments of study treatment. Usually reported as free text. Example:
          “TREATMENT UNBLINDED. PRIMARY CARE PHYSICIAN NOTIFIED.”'
        :controlled_term_or_format: ''
        :compliance:
          :type: http://www.assero.co.uk/BusinessDomain#VariableCompliance
          :id: ''
          :namespace: ''
          :label: Permissible
          :extension_properties: []
        :variable_ref:
          :type: http://www.assero.co.uk/BusinessOperational#Reference
          :id: ''
          :namespace: ''
          :label: ''
          :extension_properties: []
          :enabled: true
          :optional: false
          :ordinal: 0
          :local_label: ''
          :subject_ref: 'null'
        :variable_class: Events
        :variable_domain_prefix: AE
        :variable_name_minus: ACNOTH
        :variable_type: Char
        :variable_classification: Qualifier
        :variable_sub_classification: Record Qualifier
        :variable_prefixed: false
      - :type: http://www.assero.co.uk/BusinessDomain#IgVariable
        :id: ''
        :namespace: ''
        :label: Causality
        :extension_properties: []
        :ordinal: '30'
        :rule: ''
        :name: AEREL
        :notes: Records the investigator's opinion as to the causality of the event
          to the treatment. ICH E2A and E2B examples include NOT RELATED, UNLIKELY
          RELATED, POSSIBLY RELATED, RELATED. Controlled Terminology may be defined
          in the future. Check with regulatory authority for population of this variable.
        :controlled_term_or_format: ''
        :compliance:
          :type: http://www.assero.co.uk/BusinessDomain#VariableCompliance
          :id: ''
          :namespace: ''
          :label: Expected
          :extension_properties: []
        :variable_ref:
          :type: http://www.assero.co.uk/BusinessOperational#Reference
          :id: ''
          :namespace: ''
          :label: ''
          :extension_properties: []
          :enabled: true
          :optional: false
          :ordinal: 0
          :local_label: ''
          :subject_ref: 'null'
        :variable_class: Events
        :variable_domain_prefix: AE
        :variable_name_minus: REL
        :variable_type: Char
        :variable_classification: Qualifier
        :variable_sub_classification: Record Qualifier
        :variable_prefixed: false
      - :type: http://www.assero.co.uk/BusinessDomain#IgVariable
        :id: ''
        :namespace: ''
        :label: Relationship to Non-Study Treatment
        :extension_properties: []
        :ordinal: '31'
        :rule: ''
        :name: AERELNST
        :notes: 'Records the investigator''s opinion as to whether the event may have
          been due to a treatment other than study drug. May be reported as free text.
          Example: "MORE LIKELY RELATED TO ASPIRIN USE.”.'
        :controlled_term_or_format: ''
        :compliance:
          :type: http://www.assero.co.uk/BusinessDomain#VariableCompliance
          :id: ''
          :namespace: ''
          :label: Permissible
          :extension_properties: []
        :variable_ref:
          :type: http://www.assero.co.uk/BusinessOperational#Reference
          :id: ''
          :namespace: ''
          :label: ''
          :extension_properties: []
          :enabled: true
          :optional: false
          :ordinal: 0
          :local_label: ''
          :subject_ref: 'null'
        :variable_class: Events
        :variable_domain_prefix: AE
        :variable_name_minus: RELNST
        :variable_type: Char
        :variable_classification: Qualifier
        :variable_sub_classification: Record Qualifier
        :variable_prefixed: false
      - :type: http://www.assero.co.uk/BusinessDomain#IgVariable
        :id: ''
        :namespace: ''
        :label: Pattern of Adverse Event
        :extension_properties: []
        :ordinal: '32'
        :rule: ''
        :name: AEPATT
        :notes: 'Used to indicate the pattern of the event over time. Examples: INTERMITTENT,
          CONTINUOUS, SINGLE EVENT.'
        :controlled_term_or_format: ''
        :compliance:
          :type: http://www.assero.co.uk/BusinessDomain#VariableCompliance
          :id: ''
          :namespace: ''
          :label: Permissible
          :extension_properties: []
        :variable_ref:
          :type: http://www.assero.co.uk/BusinessOperational#Reference
          :id: ''
          :namespace: ''
          :label: ''
          :extension_properties: []
          :enabled: true
          :optional: false
          :ordinal: 0
          :local_label: ''
          :subject_ref: 'null'
        :variable_class: Events
        :variable_domain_prefix: AE
        :variable_name_minus: PATT
        :variable_type: Char
        :variable_classification: Qualifier
        :variable_sub_classification: Record Qualifier
        :variable_prefixed: false
      - :type: http://www.assero.co.uk/BusinessDomain#IgVariable
        :id: ''
        :namespace: ''
        :label: Outcome of Adverse Event
        :extension_properties: []
        :ordinal: '33'
        :rule: ''
        :name: AEOUT
        :notes: Description of the outcome of an event.
        :controlled_term_or_format: "(OUT)"
        :compliance:
          :type: http://www.assero.co.uk/BusinessDomain#VariableCompliance
          :id: ''
          :namespace: ''
          :label: Permissible
          :extension_properties: []
        :variable_ref:
          :type: http://www.assero.co.uk/BusinessOperational#Reference
          :id: ''
          :namespace: ''
          :label: ''
          :extension_properties: []
          :enabled: true
          :optional: false
          :ordinal: 0
          :local_label: ''
          :subject_ref: 'null'
        :variable_class: Events
        :variable_domain_prefix: AE
        :variable_name_minus: OUT
        :variable_type: Char
        :variable_classification: Qualifier
        :variable_sub_classification: Record Qualifier
        :variable_prefixed: false
      - :type: http://www.assero.co.uk/BusinessDomain#IgVariable
        :id: ''
        :namespace: ''
        :label: Involves Cancer
        :extension_properties: []
        :ordinal: '34'
        :rule: ''
        :name: AESCAN
        :notes: Was the serious event associated with the development of cancer?
        :controlled_term_or_format: "(NY)"
        :compliance:
          :type: http://www.assero.co.uk/BusinessDomain#VariableCompliance
          :id: ''
          :namespace: ''
          :label: Permissible
          :extension_properties: []
        :variable_ref:
          :type: http://www.assero.co.uk/BusinessOperational#Reference
          :id: ''
          :namespace: ''
          :label: ''
          :extension_properties: []
          :enabled: true
          :optional: false
          :ordinal: 0
          :local_label: ''
          :subject_ref: 'null'
        :variable_class: Events
        :variable_domain_prefix: AE
        :variable_name_minus: SCAN
        :variable_type: Char
        :variable_classification: Qualifier
        :variable_sub_classification: Record Qualifier
        :variable_prefixed: false
      - :type: http://www.assero.co.uk/BusinessDomain#IgVariable
        :id: ''
        :namespace: ''
        :label: Congenital Anomaly or Birth Defect
        :extension_properties: []
        :ordinal: '35'
        :rule: ''
        :name: AESCONG
        :notes: Was the serious event associated with congenital anomaly or birth
          defect?
        :controlled_term_or_format: "(NY)"
        :compliance:
          :type: http://www.assero.co.uk/BusinessDomain#VariableCompliance
          :id: ''
          :namespace: ''
          :label: Permissible
          :extension_properties: []
        :variable_ref:
          :type: http://www.assero.co.uk/BusinessOperational#Reference
          :id: ''
          :namespace: ''
          :label: ''
          :extension_properties: []
          :enabled: true
          :optional: false
          :ordinal: 0
          :local_label: ''
          :subject_ref: 'null'
        :variable_class: Events
        :variable_domain_prefix: AE
        :variable_name_minus: SCONG
        :variable_type: Char
        :variable_classification: Qualifier
        :variable_sub_classification: Record Qualifier
        :variable_prefixed: false
      - :type: http://www.assero.co.uk/BusinessDomain#IgVariable
        :id: ''
        :namespace: ''
        :label: Persist or Signif Disability/Incapacity
        :extension_properties: []
        :ordinal: '36'
        :rule: ''
        :name: AESDISAB
        :notes: Did the serious event result in persistent or significant disability/incapacity?
        :controlled_term_or_format: "(NY)"
        :compliance:
          :type: http://www.assero.co.uk/BusinessDomain#VariableCompliance
          :id: ''
          :namespace: ''
          :label: Permissible
          :extension_properties: []
        :variable_ref:
          :type: http://www.assero.co.uk/BusinessOperational#Reference
          :id: ''
          :namespace: ''
          :label: ''
          :extension_properties: []
          :enabled: true
          :optional: false
          :ordinal: 0
          :local_label: ''
          :subject_ref: 'null'
        :variable_class: Events
        :variable_domain_prefix: AE
        :variable_name_minus: SDISAB
        :variable_type: Char
        :variable_classification: Qualifier
        :variable_sub_classification: Record Qualifier
        :variable_prefixed: false
      - :type: http://www.assero.co.uk/BusinessDomain#IgVariable
        :id: ''
        :namespace: ''
        :label: Results in Death
        :extension_properties: []
        :ordinal: '37'
        :rule: ''
        :name: AESDTH
        :notes: Did the serious event result in death?
        :controlled_term_or_format: "(NY)"
        :compliance:
          :type: http://www.assero.co.uk/BusinessDomain#VariableCompliance
          :id: ''
          :namespace: ''
          :label: Permissible
          :extension_properties: []
        :variable_ref:
          :type: http://www.assero.co.uk/BusinessOperational#Reference
          :id: ''
          :namespace: ''
          :label: ''
          :extension_properties: []
          :enabled: true
          :optional: false
          :ordinal: 0
          :local_label: ''
          :subject_ref: 'null'
        :variable_class: Events
        :variable_domain_prefix: AE
        :variable_name_minus: SDTH
        :variable_type: Char
        :variable_classification: Qualifier
        :variable_sub_classification: Record Qualifier
        :variable_prefixed: false
      - :type: http://www.assero.co.uk/BusinessDomain#IgVariable
        :id: ''
        :namespace: ''
        :label: Requires or Prolongs Hospitalization
        :extension_properties: []
        :ordinal: '38'
        :rule: ''
        :name: AESHOSP
        :notes: Did the serious event require or prolong hospitalization?
        :controlled_term_or_format: "(NY)"
        :compliance:
          :type: http://www.assero.co.uk/BusinessDomain#VariableCompliance
          :id: ''
          :namespace: ''
          :label: Permissible
          :extension_properties: []
        :variable_ref:
          :type: http://www.assero.co.uk/BusinessOperational#Reference
          :id: ''
          :namespace: ''
          :label: ''
          :extension_properties: []
          :enabled: true
          :optional: false
          :ordinal: 0
          :local_label: ''
          :subject_ref: 'null'
        :variable_class: Events
        :variable_domain_prefix: AE
        :variable_name_minus: SHOSP
        :variable_type: Char
        :variable_classification: Qualifier
        :variable_sub_classification: Record Qualifier
        :variable_prefixed: false
      - :type: http://www.assero.co.uk/BusinessDomain#IgVariable
        :id: ''
        :namespace: ''
        :label: Is Life Threatening
        :extension_properties: []
        :ordinal: '39'
        :rule: ''
        :name: AESLIFE
        :notes: Was the serious event life threatening?
        :controlled_term_or_format: "(NY)"
        :compliance:
          :type: http://www.assero.co.uk/BusinessDomain#VariableCompliance
          :id: ''
          :namespace: ''
          :label: Permissible
          :extension_properties: []
        :variable_ref:
          :type: http://www.assero.co.uk/BusinessOperational#Reference
          :id: ''
          :namespace: ''
          :label: ''
          :extension_properties: []
          :enabled: true
          :optional: false
          :ordinal: 0
          :local_label: ''
          :subject_ref: 'null'
        :variable_class: Events
        :variable_domain_prefix: AE
        :variable_name_minus: SLIFE
        :variable_type: Char
        :variable_classification: Qualifier
        :variable_sub_classification: Record Qualifier
        :variable_prefixed: false
      - :type: http://www.assero.co.uk/BusinessDomain#IgVariable
        :id: ''
        :namespace: ''
        :label: Occurred with Overdose
        :extension_properties: []
        :ordinal: '40'
        :rule: ''
        :name: AESOD
        :notes: Did the serious event occur with an overdose?
        :controlled_term_or_format: "(NY)"
        :compliance:
          :type: http://www.assero.co.uk/BusinessDomain#VariableCompliance
          :id: ''
          :namespace: ''
          :label: Permissible
          :extension_properties: []
        :variable_ref:
          :type: http://www.assero.co.uk/BusinessOperational#Reference
          :id: ''
          :namespace: ''
          :label: ''
          :extension_properties: []
          :enabled: true
          :optional: false
          :ordinal: 0
          :local_label: ''
          :subject_ref: 'null'
        :variable_class: Events
        :variable_domain_prefix: AE
        :variable_name_minus: SOD
        :variable_type: Char
        :variable_classification: Qualifier
        :variable_sub_classification: Record Qualifier
        :variable_prefixed: false
      - :type: http://www.assero.co.uk/BusinessDomain#IgVariable
        :id: ''
        :namespace: ''
        :label: Other Medically Important Serious Event
        :extension_properties: []
        :ordinal: '41'
        :rule: ''
        :name: AESMIE
        :notes: Do additional categories for seriousness apply?
        :controlled_term_or_format: "(NY)"
        :compliance:
          :type: http://www.assero.co.uk/BusinessDomain#VariableCompliance
          :id: ''
          :namespace: ''
          :label: Permissible
          :extension_properties: []
        :variable_ref:
          :type: http://www.assero.co.uk/BusinessOperational#Reference
          :id: ''
          :namespace: ''
          :label: ''
          :extension_properties: []
          :enabled: true
          :optional: false
          :ordinal: 0
          :local_label: ''
          :subject_ref: 'null'
        :variable_class: Events
        :variable_domain_prefix: AE
        :variable_name_minus: SMIE
        :variable_type: Char
        :variable_classification: Qualifier
        :variable_sub_classification: Record Qualifier
        :variable_prefixed: false
      - :type: http://www.assero.co.uk/BusinessDomain#IgVariable
        :id: ''
        :namespace: ''
        :label: Concomitant or Additional Trtmnt Given
        :extension_properties: []
        :ordinal: '42'
        :rule: ''
        :name: AECONTRT
        :notes: Was another treatment given because of the occurrence of the event?
        :controlled_term_or_format: "(NY)"
        :compliance:
          :type: http://www.assero.co.uk/BusinessDomain#VariableCompliance
          :id: ''
          :namespace: ''
          :label: Permissible
          :extension_properties: []
        :variable_ref:
          :type: http://www.assero.co.uk/BusinessOperational#Reference
          :id: ''
          :namespace: ''
          :label: ''
          :extension_properties: []
          :enabled: true
          :optional: false
          :ordinal: 0
          :local_label: ''
          :subject_ref: 'null'
        :variable_class: Events
        :variable_domain_prefix: AE
        :variable_name_minus: CONTRT
        :variable_type: Char
        :variable_classification: Qualifier
        :variable_sub_classification: Record Qualifier
        :variable_prefixed: false
      - :type: http://www.assero.co.uk/BusinessDomain#IgVariable
        :id: ''
        :namespace: ''
        :label: Standard Toxicity Grade
        :extension_properties: []
        :ordinal: '43'
        :rule: ''
        :name: AETOXGR
        :notes: Toxicity grade according to a standard toxicity scale such as Common
          Terminology Criteria for Adverse Events v3.0 (CTCAE). Sponsor should specify
          name of the scale and version used in the metadata (see Assumption 6d).
          If value is from a numeric scale, represent only the number (e.g., “2” and
          not “Grade 2”).
        :controlled_term_or_format: ''
        :compliance:
          :type: http://www.assero.co.uk/BusinessDomain#VariableCompliance
          :id: ''
          :namespace: ''
          :label: Permissible
          :extension_properties: []
        :variable_ref:
          :type: http://www.assero.co.uk/BusinessOperational#Reference
          :id: ''
          :namespace: ''
          :label: ''
          :extension_properties: []
          :enabled: true
          :optional: false
          :ordinal: 0
          :local_label: ''
          :subject_ref: 'null'
        :variable_class: Events
        :variable_domain_prefix: AE
        :variable_name_minus: TOXGR
        :variable_type: Char
        :variable_classification: Qualifier
        :variable_sub_classification: Record Qualifier
        :variable_prefixed: false
      - :type: http://www.assero.co.uk/BusinessDomain#IgVariable
        :id: ''
        :namespace: ''
        :label: Start Date/Time of Adverse Event
        :extension_properties: []
        :ordinal: '44'
        :rule: ''
        :name: AESTDTC
        :notes: ''
        :controlled_term_or_format: ISO 8601
        :compliance:
          :type: http://www.assero.co.uk/BusinessDomain#VariableCompliance
          :id: ''
          :namespace: ''
          :label: Expected
          :extension_properties: []
        :variable_ref:
          :type: http://www.assero.co.uk/BusinessOperational#Reference
          :id: ''
          :namespace: ''
          :label: ''
          :extension_properties: []
          :enabled: true
          :optional: false
          :ordinal: 0
          :local_label: ''
          :subject_ref: 'null'
        :variable_class: Events
        :variable_domain_prefix: AE
        :variable_name_minus: STDTC
        :variable_type: Char
        :variable_classification: Timing
        :variable_sub_classification: Not Applicable
        :variable_prefixed: false
      - :type: http://www.assero.co.uk/BusinessDomain#IgVariable
        :id: ''
        :namespace: ''
        :label: End Date/Time of Adverse Event
        :extension_properties: []
        :ordinal: '45'
        :rule: ''
        :name: AEENDTC
        :notes: ''
        :controlled_term_or_format: ISO 8601
        :compliance:
          :type: http://www.assero.co.uk/BusinessDomain#VariableCompliance
          :id: ''
          :namespace: ''
          :label: Expected
          :extension_properties: []
        :variable_ref:
          :type: http://www.assero.co.uk/BusinessOperational#Reference
          :id: ''
          :namespace: ''
          :label: ''
          :extension_properties: []
          :enabled: true
          :optional: false
          :ordinal: 0
          :local_label: ''
          :subject_ref: 'null'
        :variable_class: Events
        :variable_domain_prefix: AE
        :variable_name_minus: ENDTC
        :variable_type: Char
        :variable_classification: Timing
        :variable_sub_classification: Not Applicable
        :variable_prefixed: false
      - :type: http://www.assero.co.uk/BusinessDomain#IgVariable
        :id: ''
        :namespace: ''
        :label: Study Day of Start of Adverse Event
        :extension_properties: []
        :ordinal: '46'
        :rule: ''
        :name: AESTDY
        :notes: Study day of start of adverse event relative to the sponsor-defined
          RFSTDTC.
        :controlled_term_or_format: ''
        :compliance:
          :type: http://www.assero.co.uk/BusinessDomain#VariableCompliance
          :id: ''
          :namespace: ''
          :label: Permissible
          :extension_properties: []
        :variable_ref:
          :type: http://www.assero.co.uk/BusinessOperational#Reference
          :id: ''
          :namespace: ''
          :label: ''
          :extension_properties: []
          :enabled: true
          :optional: false
          :ordinal: 0
          :local_label: ''
          :subject_ref: 'null'
        :variable_class: Events
        :variable_domain_prefix: AE
        :variable_name_minus: STDY
        :variable_type: Num
        :variable_classification: Timing
        :variable_sub_classification: Not Applicable
        :variable_prefixed: false
      - :type: http://www.assero.co.uk/BusinessDomain#IgVariable
        :id: ''
        :namespace: ''
        :label: Study Day of End of Adverse Event
        :extension_properties: []
        :ordinal: '47'
        :rule: ''
        :name: AEENDY
        :notes: Study day of end of event relative to the sponsor-defined RFSTDTC.
        :controlled_term_or_format: ''
        :compliance:
          :type: http://www.assero.co.uk/BusinessDomain#VariableCompliance
          :id: ''
          :namespace: ''
          :label: Permissible
          :extension_properties: []
        :variable_ref:
          :type: http://www.assero.co.uk/BusinessOperational#Reference
          :id: ''
          :namespace: ''
          :label: ''
          :extension_properties: []
          :enabled: true
          :optional: false
          :ordinal: 0
          :local_label: ''
          :subject_ref: 'null'
        :variable_class: Events
        :variable_domain_prefix: AE
        :variable_name_minus: ENDY
        :variable_type: Num
        :variable_classification: Timing
        :variable_sub_classification: Not Applicable
        :variable_prefixed: false
      - :type: http://www.assero.co.uk/BusinessDomain#IgVariable
        :id: ''
        :namespace: ''
        :label: Duration of Adverse Event
        :extension_properties: []
        :ordinal: '48'
        :rule: ''
        :name: AEDUR
        :notes: 'Collected duration and unit of an adverse event. Used only if collected
          on the CRF and not derived from start and end date/times. Example: P1DT2H
          (for 1 day, 2 hours).'
        :controlled_term_or_format: ISO 8601
        :compliance:
          :type: http://www.assero.co.uk/BusinessDomain#VariableCompliance
          :id: ''
          :namespace: ''
          :label: Permissible
          :extension_properties: []
        :variable_ref:
          :type: http://www.assero.co.uk/BusinessOperational#Reference
          :id: ''
          :namespace: ''
          :label: ''
          :extension_properties: []
          :enabled: true
          :optional: false
          :ordinal: 0
          :local_label: ''
          :subject_ref: 'null'
        :variable_class: Events
        :variable_domain_prefix: AE
        :variable_name_minus: DUR
        :variable_type: Char
        :variable_classification: Timing
        :variable_sub_classification: Not Applicable
        :variable_prefixed: false
      - :type: http://www.assero.co.uk/BusinessDomain#IgVariable
        :id: ''
        :namespace: ''
        :label: End Relative to Reference Period
        :extension_properties: []
        :ordinal: '49'
        :rule: ''
        :name: AEENRF
        :notes: Describes the end of the event relative to the sponsor-defined reference
          period. The sponsor-defined reference period is a continuous period of time
          defined by a discrete starting point (RFSTDTC) and a discrete ending point
          (RFENDTC) of the trial.
        :controlled_term_or_format: "(STENRF)"
        :compliance:
          :type: http://www.assero.co.uk/BusinessDomain#VariableCompliance
          :id: ''
          :namespace: ''
          :label: Permissible
          :extension_properties: []
        :variable_ref:
          :type: http://www.assero.co.uk/BusinessOperational#Reference
          :id: ''
          :namespace: ''
          :label: ''
          :extension_properties: []
          :enabled: true
          :optional: false
          :ordinal: 0
          :local_label: ''
          :subject_ref: 'null'
        :variable_class: Events
        :variable_domain_prefix: AE
        :variable_name_minus: ENRF
        :variable_type: Char
        :variable_classification: Timing
        :variable_sub_classification: Not Applicable
        :variable_prefixed: false
      - :type: http://www.assero.co.uk/BusinessDomain#IgVariable
        :id: ''
        :namespace: ''
        :label: End Relative to Reference Time Point
        :extension_properties: []
        :ordinal: '50'
        :rule: ''
        :name: AEENRTPT
        :notes: Identifies the end of the event as being before or after the reference
          time point defined by variable AEENTPT.
        :controlled_term_or_format: "(STENRF)"
        :compliance:
          :type: http://www.assero.co.uk/BusinessDomain#VariableCompliance
          :id: ''
          :namespace: ''
          :label: Permissible
          :extension_properties: []
        :variable_ref:
          :type: http://www.assero.co.uk/BusinessOperational#Reference
          :id: ''
          :namespace: ''
          :label: ''
          :extension_properties: []
          :enabled: true
          :optional: false
          :ordinal: 0
          :local_label: ''
          :subject_ref: 'null'
        :variable_class: Events
        :variable_domain_prefix: AE
        :variable_name_minus: ENRTPT
        :variable_type: Char
        :variable_classification: Timing
        :variable_sub_classification: Not Applicable
        :variable_prefixed: false
      - :type: http://www.assero.co.uk/BusinessDomain#IgVariable
        :id: ''
        :namespace: ''
        :label: End Reference Time Point
        :extension_properties: []
        :ordinal: '51'
        :rule: ''
        :name: AEENTPT
        :notes: 'Description of date/time in ISO 8601 character format of the reference
          point referred to by AEENRTPT. Examples: "2003-12-25" or "VISIT 2".'
        :controlled_term_or_format: ''
        :compliance:
          :type: http://www.assero.co.uk/BusinessDomain#VariableCompliance
          :id: ''
          :namespace: ''
          :label: Permissible
          :extension_properties: []
        :variable_ref:
          :type: http://www.assero.co.uk/BusinessOperational#Reference
          :id: ''
          :namespace: ''
          :label: ''
          :extension_properties: []
          :enabled: true
          :optional: false
          :ordinal: 0
          :local_label: ''
          :subject_ref: 'null'
        :variable_class: Events
        :variable_domain_prefix: AE
        :variable_name_minus: ENTPT
        :variable_type: Char
        :variable_classification: Timing
        :variable_sub_classification: Not Applicable
        :variable_prefixed: false
      :domain_class: Events
- :type: IG_DOMAIN
  :order: 2
  :instance:
    :operation:
      :action: CREATE
      :new_version: '1'
      :new_semantic_version: 0.1.0
      :new_state: Standard
      :identifier_edit: true
    :managed_item:
      :type: ''
      :id: ''
      :namespace: ''
      :label: Clinical Events
      :extension_properties: []
      :origin: ''
      :change_description: ''
      :creation_date: '2017-01-01'
      :last_changed_date: '2017-10-19T19:08:53+01:00'
      :explanatory_comment: ''
      :registration_state:
        :namespace: http://www.assero.co.uk/MDRItems
        :id: ''
        :registration_authority:
          :id: ''
          :number: "<Not Set>"
          :scheme: DUNS
          :owner: false
          :namespace:
            :namespace: ''
            :id: ''
            :name: ''
            :shortName: ''
        :registration_status: Not_Set
        :administrative_note: ''
        :effective_date: '2016-01-01T00:00:00+00:00'
        :until_date: '2016-01-01T00:00:00+00:00'
        :current: false
        :unresolved_issue: ''
        :administrative_status: ''
        :previous_state: Not_Set
      :scoped_identifier:
        :id: ''
        :identifier: SDTM IG CE
        :version_label: Version Label
        :version: 0
        :semantic_version: 0.0.0
        :namespace:
          :namespace: ''
          :id: ''
          :name: ''
          :shortName: ''
      :ordinal: 1
      :rule: ''
      :prefix: CE
      :structure: One record per event per subject
      :model_ref:
        :type: http://www.assero.co.uk/BusinessOperational#Reference
        :id: ''
        :namespace: ''
        :label: ''
        :extension_properties: []
        :enabled: true
        :optional: false
        :ordinal: 0
        :local_label: ''
        :subject_ref: 'null'
      :children:
      - :type: http://www.assero.co.uk/BusinessDomain#IgVariable
        :id: ''
        :namespace: ''
        :label: Study Identifier
        :extension_properties: []
        :ordinal: '1'
        :rule: ''
        :name: STUDYID
        :notes: Unique identifier for a study.
        :controlled_term_or_format: ''
        :compliance:
          :type: http://www.assero.co.uk/BusinessDomain#VariableCompliance
          :id: ''
          :namespace: ''
          :label: Required
          :extension_properties: []
        :variable_ref:
          :type: http://www.assero.co.uk/BusinessOperational#Reference
          :id: ''
          :namespace: ''
          :label: ''
          :extension_properties: []
          :enabled: true
          :optional: false
          :ordinal: 0
          :local_label: ''
          :subject_ref: 'null'
        :variable_class: Events
        :variable_domain_prefix: CE
        :variable_name_minus: STUDYID
        :variable_type: Char
        :variable_classification: Identifier
        :variable_sub_classification: Not Applicable
        :variable_prefixed: false
      - :type: http://www.assero.co.uk/BusinessDomain#IgVariable
        :id: ''
        :namespace: ''
        :label: Domain Abbreviation
        :extension_properties: []
        :ordinal: '2'
        :rule: ''
        :name: DOMAIN
        :notes: Two-character abbreviation for the domain.
        :controlled_term_or_format: "(DOMAIN)"
        :compliance:
          :type: http://www.assero.co.uk/BusinessDomain#VariableCompliance
          :id: ''
          :namespace: ''
          :label: Required
          :extension_properties: []
        :variable_ref:
          :type: http://www.assero.co.uk/BusinessOperational#Reference
          :id: ''
          :namespace: ''
          :label: ''
          :extension_properties: []
          :enabled: true
          :optional: false
          :ordinal: 0
          :local_label: ''
          :subject_ref: 'null'
        :variable_class: Events
        :variable_domain_prefix: CE
        :variable_name_minus: DOMAIN
        :variable_type: Char
        :variable_classification: Identifier
        :variable_sub_classification: Not Applicable
        :variable_prefixed: false
      - :type: http://www.assero.co.uk/BusinessDomain#IgVariable
        :id: ''
        :namespace: ''
        :label: Unique Subject Identifier
        :extension_properties: []
        :ordinal: '3'
        :rule: ''
        :name: USUBJID
        :notes: Identifier used to uniquely identify a subject across all studies
          for all applications or submissions involving the product.
        :controlled_term_or_format: ''
        :compliance:
          :type: http://www.assero.co.uk/BusinessDomain#VariableCompliance
          :id: ''
          :namespace: ''
          :label: Required
          :extension_properties: []
        :variable_ref:
          :type: http://www.assero.co.uk/BusinessOperational#Reference
          :id: ''
          :namespace: ''
          :label: ''
          :extension_properties: []
          :enabled: true
          :optional: false
          :ordinal: 0
          :local_label: ''
          :subject_ref: 'null'
        :variable_class: Events
        :variable_domain_prefix: CE
        :variable_name_minus: USUBJID
        :variable_type: Char
        :variable_classification: Identifier
        :variable_sub_classification: Not Applicable
        :variable_prefixed: false
      - :type: http://www.assero.co.uk/BusinessDomain#IgVariable
        :id: ''
        :namespace: ''
        :label: Sequence Number
        :extension_properties: []
        :ordinal: '4'
        :rule: ''
        :name: CESEQ
        :notes: Sequence Number given to ensure uniqueness of subject records within
          a domain. May be any valid number.
        :controlled_term_or_format: ''
        :compliance:
          :type: http://www.assero.co.uk/BusinessDomain#VariableCompliance
          :id: ''
          :namespace: ''
          :label: Required
          :extension_properties: []
        :variable_ref:
          :type: http://www.assero.co.uk/BusinessOperational#Reference
          :id: ''
          :namespace: ''
          :label: ''
          :extension_properties: []
          :enabled: true
          :optional: false
          :ordinal: 0
          :local_label: ''
          :subject_ref: 'null'
        :variable_class: Events
        :variable_domain_prefix: CE
        :variable_name_minus: SEQ
        :variable_type: Num
        :variable_classification: Identifier
        :variable_sub_classification: Not Applicable
        :variable_prefixed: false
      - :type: http://www.assero.co.uk/BusinessDomain#IgVariable
        :id: ''
        :namespace: ''
        :label: Group ID
        :extension_properties: []
        :ordinal: '5'
        :rule: ''
        :name: CEGRPID
        :notes: Used to tie together a block of related records for a subject within
          a domain.
        :controlled_term_or_format: ''
        :compliance:
          :type: http://www.assero.co.uk/BusinessDomain#VariableCompliance
          :id: ''
          :namespace: ''
          :label: Permissible
          :extension_properties: []
        :variable_ref:
          :type: http://www.assero.co.uk/BusinessOperational#Reference
          :id: ''
          :namespace: ''
          :label: ''
          :extension_properties: []
          :enabled: true
          :optional: false
          :ordinal: 0
          :local_label: ''
          :subject_ref: 'null'
        :variable_class: Events
        :variable_domain_prefix: CE
        :variable_name_minus: GRPID
        :variable_type: Char
        :variable_classification: Identifier
        :variable_sub_classification: Not Applicable
        :variable_prefixed: false
      - :type: http://www.assero.co.uk/BusinessDomain#IgVariable
        :id: ''
        :namespace: ''
        :label: Reference ID
        :extension_properties: []
        :ordinal: '6'
        :rule: ''
        :name: CEREFID
        :notes: Internal or external identifier.
        :controlled_term_or_format: ''
        :compliance:
          :type: http://www.assero.co.uk/BusinessDomain#VariableCompliance
          :id: ''
          :namespace: ''
          :label: Permissible
          :extension_properties: []
        :variable_ref:
          :type: http://www.assero.co.uk/BusinessOperational#Reference
          :id: ''
          :namespace: ''
          :label: ''
          :extension_properties: []
          :enabled: true
          :optional: false
          :ordinal: 0
          :local_label: ''
          :subject_ref: 'null'
        :variable_class: Events
        :variable_domain_prefix: CE
        :variable_name_minus: REFID
        :variable_type: Char
        :variable_classification: Identifier
        :variable_sub_classification: Not Applicable
        :variable_prefixed: false
      - :type: http://www.assero.co.uk/BusinessDomain#IgVariable
        :id: ''
        :namespace: ''
        :label: Sponsor-Defined Identifier
        :extension_properties: []
        :ordinal: '7'
        :rule: ''
        :name: CESPID
        :notes: 'Sponsor-defined reference number. Perhaps pre-printed on the CRF
          as an explicit line identifier or defined in the sponsor’s operational database.
          Example: Line number on a CRF page.'
        :controlled_term_or_format: ''
        :compliance:
          :type: http://www.assero.co.uk/BusinessDomain#VariableCompliance
          :id: ''
          :namespace: ''
          :label: Permissible
          :extension_properties: []
        :variable_ref:
          :type: http://www.assero.co.uk/BusinessOperational#Reference
          :id: ''
          :namespace: ''
          :label: ''
          :extension_properties: []
          :enabled: true
          :optional: false
          :ordinal: 0
          :local_label: ''
          :subject_ref: 'null'
        :variable_class: Events
        :variable_domain_prefix: CE
        :variable_name_minus: SPID
        :variable_type: Char
        :variable_classification: Identifier
        :variable_sub_classification: Not Applicable
        :variable_prefixed: false
      - :type: http://www.assero.co.uk/BusinessDomain#IgVariable
        :id: ''
        :namespace: ''
        :label: Reported Term for the Clinical Event
        :extension_properties: []
        :ordinal: '8'
        :rule: ''
        :name: CETERM
        :notes: Term for the medical condition or event. Most likely pre-printed on
          CRF.
        :controlled_term_or_format: ''
        :compliance:
          :type: http://www.assero.co.uk/BusinessDomain#VariableCompliance
          :id: ''
          :namespace: ''
          :label: Required
          :extension_properties: []
        :variable_ref:
          :type: http://www.assero.co.uk/BusinessOperational#Reference
          :id: ''
          :namespace: ''
          :label: ''
          :extension_properties: []
          :enabled: true
          :optional: false
          :ordinal: 0
          :local_label: ''
          :subject_ref: 'null'
        :variable_class: Events
        :variable_domain_prefix: CE
        :variable_name_minus: TERM
        :variable_type: Char
        :variable_classification: Topic
        :variable_sub_classification: Not Applicable
        :variable_prefixed: false
      - :type: http://www.assero.co.uk/BusinessDomain#IgVariable
        :id: ''
        :namespace: ''
        :label: Dictionary-Derived Term
        :extension_properties: []
        :ordinal: '9'
        :rule: ''
        :name: CEDECOD
        :notes: Controlled terminology for the name of the clinical event. The sponsor
          is expected to provide the dictionary name and version used to map the terms
          utilizing the define.xml external codelist attributes
        :controlled_term_or_format: ''
        :compliance:
          :type: http://www.assero.co.uk/BusinessDomain#VariableCompliance
          :id: ''
          :namespace: ''
          :label: Permissible
          :extension_properties: []
        :variable_ref:
          :type: http://www.assero.co.uk/BusinessOperational#Reference
          :id: ''
          :namespace: ''
          :label: ''
          :extension_properties: []
          :enabled: true
          :optional: false
          :ordinal: 0
          :local_label: ''
          :subject_ref: 'null'
        :variable_class: Events
        :variable_domain_prefix: CE
        :variable_name_minus: DECOD
        :variable_type: Char
        :variable_classification: Qualifier
        :variable_sub_classification: Synonym Qualifier
        :variable_prefixed: false
      - :type: http://www.assero.co.uk/BusinessDomain#IgVariable
        :id: ''
        :namespace: ''
        :label: Category for Clinical Event
        :extension_properties: []
        :ordinal: '10'
        :rule: ''
        :name: CECAT
        :notes: Used to define a category of related records.
        :controlled_term_or_format: ''
        :compliance:
          :type: http://www.assero.co.uk/BusinessDomain#VariableCompliance
          :id: ''
          :namespace: ''
          :label: Permissible
          :extension_properties: []
        :variable_ref:
          :type: http://www.assero.co.uk/BusinessOperational#Reference
          :id: ''
          :namespace: ''
          :label: ''
          :extension_properties: []
          :enabled: true
          :optional: false
          :ordinal: 0
          :local_label: ''
          :subject_ref: 'null'
        :variable_class: Events
        :variable_domain_prefix: CE
        :variable_name_minus: CAT
        :variable_type: Char
        :variable_classification: Qualifier
        :variable_sub_classification: Grouping Qualifier
        :variable_prefixed: false
      - :type: http://www.assero.co.uk/BusinessDomain#IgVariable
        :id: ''
        :namespace: ''
        :label: Subcategory for Clinical Event
        :extension_properties: []
        :ordinal: '11'
        :rule: ''
        :name: CESCAT
        :notes: A further categorization of the condition or event.
        :controlled_term_or_format: ''
        :compliance:
          :type: http://www.assero.co.uk/BusinessDomain#VariableCompliance
          :id: ''
          :namespace: ''
          :label: Permissible
          :extension_properties: []
        :variable_ref:
          :type: http://www.assero.co.uk/BusinessOperational#Reference
          :id: ''
          :namespace: ''
          :label: ''
          :extension_properties: []
          :enabled: true
          :optional: false
          :ordinal: 0
          :local_label: ''
          :subject_ref: 'null'
        :variable_class: Events
        :variable_domain_prefix: CE
        :variable_name_minus: SCAT
        :variable_type: Char
        :variable_classification: Qualifier
        :variable_sub_classification: Grouping Qualifier
        :variable_prefixed: false
      - :type: http://www.assero.co.uk/BusinessDomain#IgVariable
        :id: ''
        :namespace: ''
        :label: Clinical Event Pre-Specified
        :extension_properties: []
        :ordinal: '12'
        :rule: ''
        :name: CEPRESP
        :notes: Used to indicate whether the Event in CETERM was pre-specified. Value
          is Y for pre-specified events, null for spontaneously reported events.
        :controlled_term_or_format: "(NY)"
        :compliance:
          :type: http://www.assero.co.uk/BusinessDomain#VariableCompliance
          :id: ''
          :namespace: ''
          :label: Permissible
          :extension_properties: []
        :variable_ref:
          :type: http://www.assero.co.uk/BusinessOperational#Reference
          :id: ''
          :namespace: ''
          :label: ''
          :extension_properties: []
          :enabled: true
          :optional: false
          :ordinal: 0
          :local_label: ''
          :subject_ref: 'null'
        :variable_class: Events
        :variable_domain_prefix: CE
        :variable_name_minus: PRESP
        :variable_type: Char
        :variable_classification: Qualifier
        :variable_sub_classification: Variable Qualifier
        :variable_prefixed: false
      - :type: http://www.assero.co.uk/BusinessDomain#IgVariable
        :id: ''
        :namespace: ''
        :label: Clinical Event Occurrence
        :extension_properties: []
        :ordinal: '13'
        :rule: ''
        :name: CEOCCUR
        :notes: Used when the occurrence of specific events is solicited to indicate
          whether or not a clinical event occurred. Values are null for spontaneously
          reported events.
        :controlled_term_or_format: "(NY)"
        :compliance:
          :type: http://www.assero.co.uk/BusinessDomain#VariableCompliance
          :id: ''
          :namespace: ''
          :label: Permissible
          :extension_properties: []
        :variable_ref:
          :type: http://www.assero.co.uk/BusinessOperational#Reference
          :id: ''
          :namespace: ''
          :label: ''
          :extension_properties: []
          :enabled: true
          :optional: false
          :ordinal: 0
          :local_label: ''
          :subject_ref: 'null'
        :variable_class: Events
        :variable_domain_prefix: CE
        :variable_name_minus: OCCUR
        :variable_type: Char
        :variable_classification: Qualifier
        :variable_sub_classification: Record Qualifier
        :variable_prefixed: false
      - :type: http://www.assero.co.uk/BusinessDomain#IgVariable
        :id: ''
        :namespace: ''
        :label: Completion Status
        :extension_properties: []
        :ordinal: '14'
        :rule: ''
        :name: CESTAT
        :notes: The status indicates that a question from a pre-specified list was
          not answered.
        :controlled_term_or_format: "(ND)"
        :compliance:
          :type: http://www.assero.co.uk/BusinessDomain#VariableCompliance
          :id: ''
          :namespace: ''
          :label: Permissible
          :extension_properties: []
        :variable_ref:
          :type: http://www.assero.co.uk/BusinessOperational#Reference
          :id: ''
          :namespace: ''
          :label: ''
          :extension_properties: []
          :enabled: true
          :optional: false
          :ordinal: 0
          :local_label: ''
          :subject_ref: 'null'
        :variable_class: Events
        :variable_domain_prefix: CE
        :variable_name_minus: STAT
        :variable_type: Char
        :variable_classification: Qualifier
        :variable_sub_classification: Record Qualifier
        :variable_prefixed: false
      - :type: http://www.assero.co.uk/BusinessDomain#IgVariable
        :id: ''
        :namespace: ''
        :label: Reason Clinical Event Not Collected
        :extension_properties: []
        :ordinal: '15'
        :rule: ''
        :name: CEREASND
        :notes: Describes the reason clinical event data was not collected. Used in
          conjunction with CESTAT when value is NOT DONE.
        :controlled_term_or_format: ''
        :compliance:
          :type: http://www.assero.co.uk/BusinessDomain#VariableCompliance
          :id: ''
          :namespace: ''
          :label: Permissible
          :extension_properties: []
        :variable_ref:
          :type: http://www.assero.co.uk/BusinessOperational#Reference
          :id: ''
          :namespace: ''
          :label: ''
          :extension_properties: []
          :enabled: true
          :optional: false
          :ordinal: 0
          :local_label: ''
          :subject_ref: 'null'
        :variable_class: Events
        :variable_domain_prefix: CE
        :variable_name_minus: REASND
        :variable_type: Char
        :variable_classification: Qualifier
        :variable_sub_classification: Record Qualifier
        :variable_prefixed: false
      - :type: http://www.assero.co.uk/BusinessDomain#IgVariable
        :id: ''
        :namespace: ''
        :label: Body System or Organ Class
        :extension_properties: []
        :ordinal: '16'
        :rule: ''
        :name: CEBODSYS
        :notes: Dictionary-derived. Body system or organ class that is involved in
          an event or measurement from a standard hierarchy (e.g., MedDRA). When using
          a multi-axial dictionary such as MedDRA, this should contain the SOC used
          for the sponsor’s analyses and summary tables which may not necessarily
          be the primary SOC.
        :controlled_term_or_format: ''
        :compliance:
          :type: http://www.assero.co.uk/BusinessDomain#VariableCompliance
          :id: ''
          :namespace: ''
          :label: Permissible
          :extension_properties: []
        :variable_ref:
          :type: http://www.assero.co.uk/BusinessOperational#Reference
          :id: ''
          :namespace: ''
          :label: ''
          :extension_properties: []
          :enabled: true
          :optional: false
          :ordinal: 0
          :local_label: ''
          :subject_ref: 'null'
        :variable_class: Events
        :variable_domain_prefix: CE
        :variable_name_minus: BODSYS
        :variable_type: Char
        :variable_classification: Qualifier
        :variable_sub_classification: Record Qualifier
        :variable_prefixed: false
      - :type: http://www.assero.co.uk/BusinessDomain#IgVariable
        :id: ''
        :namespace: ''
        :label: Severity/Intensity
        :extension_properties: []
        :ordinal: '17'
        :rule: ''
        :name: CESEV
        :notes: 'The severity or intensity of the event. Examples: MILD, MODERATE,
          SEVERE'
        :controlled_term_or_format: ''
        :compliance:
          :type: http://www.assero.co.uk/BusinessDomain#VariableCompliance
          :id: ''
          :namespace: ''
          :label: Permissible
          :extension_properties: []
        :variable_ref:
          :type: http://www.assero.co.uk/BusinessOperational#Reference
          :id: ''
          :namespace: ''
          :label: ''
          :extension_properties: []
          :enabled: true
          :optional: false
          :ordinal: 0
          :local_label: ''
          :subject_ref: 'null'
        :variable_class: Events
        :variable_domain_prefix: CE
        :variable_name_minus: SEV
        :variable_type: Char
        :variable_classification: Qualifier
        :variable_sub_classification: Record Qualifier
        :variable_prefixed: false
      - :type: http://www.assero.co.uk/BusinessDomain#IgVariable
        :id: ''
        :namespace: ''
        :label: Date/Time of Event Collection
        :extension_properties: []
        :ordinal: '18'
        :rule: ''
        :name: CEDTC
        :notes: ''
        :controlled_term_or_format: ISO 8601
        :compliance:
          :type: http://www.assero.co.uk/BusinessDomain#VariableCompliance
          :id: ''
          :namespace: ''
          :label: Permissible
          :extension_properties: []
        :variable_ref:
          :type: http://www.assero.co.uk/BusinessOperational#Reference
          :id: ''
          :namespace: ''
          :label: ''
          :extension_properties: []
          :enabled: true
          :optional: false
          :ordinal: 0
          :local_label: ''
          :subject_ref: 'null'
        :variable_class: Events
        :variable_domain_prefix: CE
        :variable_name_minus: DTC
        :variable_type: Char
        :variable_classification: Timing
        :variable_sub_classification: Not Applicable
        :variable_prefixed: false
      - :type: http://www.assero.co.uk/BusinessDomain#IgVariable
        :id: ''
        :namespace: ''
        :label: Start Date/Time of Clinical Event
        :extension_properties: []
        :ordinal: '19'
        :rule: ''
        :name: CESTDTC
        :notes: ''
        :controlled_term_or_format: ISO 8601
        :compliance:
          :type: http://www.assero.co.uk/BusinessDomain#VariableCompliance
          :id: ''
          :namespace: ''
          :label: Permissible
          :extension_properties: []
        :variable_ref:
          :type: http://www.assero.co.uk/BusinessOperational#Reference
          :id: ''
          :namespace: ''
          :label: ''
          :extension_properties: []
          :enabled: true
          :optional: false
          :ordinal: 0
          :local_label: ''
          :subject_ref: 'null'
        :variable_class: Events
        :variable_domain_prefix: CE
        :variable_name_minus: STDTC
        :variable_type: Char
        :variable_classification: Timing
        :variable_sub_classification: Not Applicable
        :variable_prefixed: false
      - :type: http://www.assero.co.uk/BusinessDomain#IgVariable
        :id: ''
        :namespace: ''
        :label: End Date/Time of Clinical Event
        :extension_properties: []
        :ordinal: '20'
        :rule: ''
        :name: CEENDTC
        :notes: ''
        :controlled_term_or_format: ISO 8601
        :compliance:
          :type: http://www.assero.co.uk/BusinessDomain#VariableCompliance
          :id: ''
          :namespace: ''
          :label: Permissible
          :extension_properties: []
        :variable_ref:
          :type: http://www.assero.co.uk/BusinessOperational#Reference
          :id: ''
          :namespace: ''
          :label: ''
          :extension_properties: []
          :enabled: true
          :optional: false
          :ordinal: 0
          :local_label: ''
          :subject_ref: 'null'
        :variable_class: Events
        :variable_domain_prefix: CE
        :variable_name_minus: ENDTC
        :variable_type: Char
        :variable_classification: Timing
        :variable_sub_classification: Not Applicable
        :variable_prefixed: false
      - :type: http://www.assero.co.uk/BusinessDomain#IgVariable
        :id: ''
        :namespace: ''
        :label: Study Day of Event Collection
        :extension_properties: []
        :ordinal: '21'
        :rule: ''
        :name: CEDY
        :notes: |-
          1. Study day of clinical event collection, measured as integer days.
          2. Algorithm for calculations must be relative to the sponsor-defined RFSTDTC variable in Demographics. This formula should be consistent across the submission.
        :controlled_term_or_format: ''
        :compliance:
          :type: http://www.assero.co.uk/BusinessDomain#VariableCompliance
          :id: ''
          :namespace: ''
          :label: Permissible
          :extension_properties: []
        :variable_ref:
          :type: http://www.assero.co.uk/BusinessOperational#Reference
          :id: ''
          :namespace: ''
          :label: ''
          :extension_properties: []
          :enabled: true
          :optional: false
          :ordinal: 0
          :local_label: ''
          :subject_ref: 'null'
        :variable_class: Events
        :variable_domain_prefix: CE
        :variable_name_minus: DY
        :variable_type: Num
        :variable_classification: Timing
        :variable_sub_classification: Not Applicable
        :variable_prefixed: false
      - :type: http://www.assero.co.uk/BusinessDomain#IgVariable
        :id: ''
        :namespace: ''
        :label: Start Relative to Reference Period
        :extension_properties: []
        :ordinal: '22'
        :rule: ''
        :name: CESTRF
        :notes: Describes the start of the clinical event relative to the sponsor-defined
          reference period. The sponsor-defined reference period is a continuous period
          of time defined by a discrete starting point and a discrete ending point
          (represented by RFSTDTC and RFENDTC in Demographics).
        :controlled_term_or_format: "(STENRF)"
        :compliance:
          :type: http://www.assero.co.uk/BusinessDomain#VariableCompliance
          :id: ''
          :namespace: ''
          :label: Permissible
          :extension_properties: []
        :variable_ref:
          :type: http://www.assero.co.uk/BusinessOperational#Reference
          :id: ''
          :namespace: ''
          :label: ''
          :extension_properties: []
          :enabled: true
          :optional: false
          :ordinal: 0
          :local_label: ''
          :subject_ref: 'null'
        :variable_class: Events
        :variable_domain_prefix: CE
        :variable_name_minus: STRF
        :variable_type: Char
        :variable_classification: Timing
        :variable_sub_classification: Not Applicable
        :variable_prefixed: false
      - :type: http://www.assero.co.uk/BusinessDomain#IgVariable
        :id: ''
        :namespace: ''
        :label: End Relative to Reference Period
        :extension_properties: []
        :ordinal: '23'
        :rule: ''
        :name: CEENRF
        :notes: Describes the end of the event relative to the sponsor-defined reference
          period. The sponsor-defined reference period is a continuous period of time
          defined by a discrete starting point and a discrete ending point (represented
          by RFSTDTC and RFENDTC in Demographics).
        :controlled_term_or_format: "(STENRF)"
        :compliance:
          :type: http://www.assero.co.uk/BusinessDomain#VariableCompliance
          :id: ''
          :namespace: ''
          :label: Permissible
          :extension_properties: []
        :variable_ref:
          :type: http://www.assero.co.uk/BusinessOperational#Reference
          :id: ''
          :namespace: ''
          :label: ''
          :extension_properties: []
          :enabled: true
          :optional: false
          :ordinal: 0
          :local_label: ''
          :subject_ref: 'null'
        :variable_class: Events
        :variable_domain_prefix: CE
        :variable_name_minus: ENRF
        :variable_type: Char
        :variable_classification: Timing
        :variable_sub_classification: Not Applicable
        :variable_prefixed: false
      - :type: http://www.assero.co.uk/BusinessDomain#IgVariable
        :id: ''
        :namespace: ''
        :label: Start Relative to Reference Time Point
        :extension_properties: []
        :ordinal: '24'
        :rule: ''
        :name: CESTRTPT
        :notes: Identifies the start of the observation as being before or after the
          reference time point defined by variable CESTTPT.
        :controlled_term_or_format: "(STENRF)"
        :compliance:
          :type: http://www.assero.co.uk/BusinessDomain#VariableCompliance
          :id: ''
          :namespace: ''
          :label: Permissible
          :extension_properties: []
        :variable_ref:
          :type: http://www.assero.co.uk/BusinessOperational#Reference
          :id: ''
          :namespace: ''
          :label: ''
          :extension_properties: []
          :enabled: true
          :optional: false
          :ordinal: 0
          :local_label: ''
          :subject_ref: 'null'
        :variable_class: Events
        :variable_domain_prefix: CE
        :variable_name_minus: STRTPT
        :variable_type: Char
        :variable_classification: Timing
        :variable_sub_classification: Not Applicable
        :variable_prefixed: false
      - :type: http://www.assero.co.uk/BusinessDomain#IgVariable
        :id: ''
        :namespace: ''
        :label: Start Reference Time Point
        :extension_properties: []
        :ordinal: '25'
        :rule: ''
        :name: CESTTPT
        :notes: 'Description or date/time in ISO 8601 character format of the sponsor-defined
          reference point referred to by --STRTPT. Examples: "2003‑12‑15" or "VISIT
          1".'
        :controlled_term_or_format: ''
        :compliance:
          :type: http://www.assero.co.uk/BusinessDomain#VariableCompliance
          :id: ''
          :namespace: ''
          :label: Permissible
          :extension_properties: []
        :variable_ref:
          :type: http://www.assero.co.uk/BusinessOperational#Reference
          :id: ''
          :namespace: ''
          :label: ''
          :extension_properties: []
          :enabled: true
          :optional: false
          :ordinal: 0
          :local_label: ''
          :subject_ref: 'null'
        :variable_class: Events
        :variable_domain_prefix: CE
        :variable_name_minus: STTPT
        :variable_type: Char
        :variable_classification: Timing
        :variable_sub_classification: Not Applicable
        :variable_prefixed: false
      - :type: http://www.assero.co.uk/BusinessDomain#IgVariable
        :id: ''
        :namespace: ''
        :label: End Relative to Reference Time Point
        :extension_properties: []
        :ordinal: '26'
        :rule: ''
        :name: CEENRTPT
        :notes: Identifies the end of the event as being before or after the reference
          time point defined by variable CEENTPT.
        :controlled_term_or_format: "(STENRF)"
        :compliance:
          :type: http://www.assero.co.uk/BusinessDomain#VariableCompliance
          :id: ''
          :namespace: ''
          :label: Permissible
          :extension_properties: []
        :variable_ref:
          :type: http://www.assero.co.uk/BusinessOperational#Reference
          :id: ''
          :namespace: ''
          :label: ''
          :extension_properties: []
          :enabled: true
          :optional: false
          :ordinal: 0
          :local_label: ''
          :subject_ref: 'null'
        :variable_class: Events
        :variable_domain_prefix: CE
        :variable_name_minus: ENRTPT
        :variable_type: Char
        :variable_classification: Timing
        :variable_sub_classification: Not Applicable
        :variable_prefixed: false
      - :type: http://www.assero.co.uk/BusinessDomain#IgVariable
        :id: ''
        :namespace: ''
        :label: End Reference Time Point
        :extension_properties: []
        :ordinal: '27'
        :rule: ''
        :name: CEENTPT
        :notes: 'Description or date/time in ISO 8601 character format of the reference
          point referred to by CEENRTPT. Examples: "2003-12-25" or "VISIT 2".'
        :controlled_term_or_format: ''
        :compliance:
          :type: http://www.assero.co.uk/BusinessDomain#VariableCompliance
          :id: ''
          :namespace: ''
          :label: Permissible
          :extension_properties: []
        :variable_ref:
          :type: http://www.assero.co.uk/BusinessOperational#Reference
          :id: ''
          :namespace: ''
          :label: ''
          :extension_properties: []
          :enabled: true
          :optional: false
          :ordinal: 0
          :local_label: ''
          :subject_ref: 'null'
        :variable_class: Events
        :variable_domain_prefix: CE
        :variable_name_minus: ENTPT
        :variable_type: Char
        :variable_classification: Timing
        :variable_sub_classification: Not Applicable
        :variable_prefixed: false
      :domain_class: Events
- :type: IG_DOMAIN
  :order: 2
  :instance:
    :operation:
      :action: CREATE
      :new_version: '1'
      :new_semantic_version: 0.1.0
      :new_state: Standard
      :identifier_edit: true
    :managed_item:
      :type: ''
      :id: ''
      :namespace: ''
      :label: Concomitant Meds
      :extension_properties: []
      :origin: ''
      :change_description: ''
      :creation_date: '2017-01-01'
      :last_changed_date: '2017-10-19T19:08:53+01:00'
      :explanatory_comment: ''
      :registration_state:
        :namespace: http://www.assero.co.uk/MDRItems
        :id: ''
        :registration_authority:
          :id: ''
          :number: "<Not Set>"
          :scheme: DUNS
          :owner: false
          :namespace:
            :namespace: ''
            :id: ''
            :name: ''
            :shortName: ''
        :registration_status: Not_Set
        :administrative_note: ''
        :effective_date: '2016-01-01T00:00:00+00:00'
        :until_date: '2016-01-01T00:00:00+00:00'
        :current: false
        :unresolved_issue: ''
        :administrative_status: ''
        :previous_state: Not_Set
      :scoped_identifier:
        :id: ''
        :identifier: SDTM IG CM
        :version_label: Version Label
        :version: 0
        :semantic_version: 0.0.0
        :namespace:
          :namespace: ''
          :id: ''
          :name: ''
          :shortName: ''
      :ordinal: 1
      :rule: ''
      :prefix: CM
      :structure: 
      :model_ref:
        :type: http://www.assero.co.uk/BusinessOperational#Reference
        :id: ''
        :namespace: ''
        :label: ''
        :extension_properties: []
        :enabled: true
        :optional: false
        :ordinal: 0
        :local_label: ''
        :subject_ref: 'null'
      :children:
      - :type: http://www.assero.co.uk/BusinessDomain#IgVariable
        :id: ''
        :namespace: ''
        :label: Study Identifier
        :extension_properties: []
        :ordinal: '1'
        :rule: ''
        :name: STUDYID
        :notes: Unique identifier for a study.
        :controlled_term_or_format: ''
        :compliance:
          :type: http://www.assero.co.uk/BusinessDomain#VariableCompliance
          :id: ''
          :namespace: ''
          :label: Required
          :extension_properties: []
        :variable_ref:
          :type: http://www.assero.co.uk/BusinessOperational#Reference
          :id: ''
          :namespace: ''
          :label: ''
          :extension_properties: []
          :enabled: true
          :optional: false
          :ordinal: 0
          :local_label: ''
          :subject_ref: 'null'
        :variable_class: Interventions
        :variable_domain_prefix: CM
        :variable_name_minus: STUDYID
        :variable_type: Char
        :variable_classification: Identifier
        :variable_sub_classification: Not Applicable
        :variable_prefixed: false
      - :type: http://www.assero.co.uk/BusinessDomain#IgVariable
        :id: ''
        :namespace: ''
        :label: Domain Abbreviation
        :extension_properties: []
        :ordinal: '2'
        :rule: ''
        :name: DOMAIN
        :notes: Two-character abbreviation for the domain.
        :controlled_term_or_format: "(DOMAIN)"
        :compliance:
          :type: http://www.assero.co.uk/BusinessDomain#VariableCompliance
          :id: ''
          :namespace: ''
          :label: Required
          :extension_properties: []
        :variable_ref:
          :type: http://www.assero.co.uk/BusinessOperational#Reference
          :id: ''
          :namespace: ''
          :label: ''
          :extension_properties: []
          :enabled: true
          :optional: false
          :ordinal: 0
          :local_label: ''
          :subject_ref: 'null'
        :variable_class: Interventions
        :variable_domain_prefix: CM
        :variable_name_minus: DOMAIN
        :variable_type: Char
        :variable_classification: Identifier
        :variable_sub_classification: Not Applicable
        :variable_prefixed: false
      - :type: http://www.assero.co.uk/BusinessDomain#IgVariable
        :id: ''
        :namespace: ''
        :label: Unique Subject Identifier
        :extension_properties: []
        :ordinal: '3'
        :rule: ''
        :name: USUBJID
        :notes: Identifier used to uniquely identify a subject across all studies
          for all applications or submissions involving the product.
        :controlled_term_or_format: ''
        :compliance:
          :type: http://www.assero.co.uk/BusinessDomain#VariableCompliance
          :id: ''
          :namespace: ''
          :label: Required
          :extension_properties: []
        :variable_ref:
          :type: http://www.assero.co.uk/BusinessOperational#Reference
          :id: ''
          :namespace: ''
          :label: ''
          :extension_properties: []
          :enabled: true
          :optional: false
          :ordinal: 0
          :local_label: ''
          :subject_ref: 'null'
        :variable_class: Interventions
        :variable_domain_prefix: CM
        :variable_name_minus: USUBJID
        :variable_type: Char
        :variable_classification: Identifier
        :variable_sub_classification: Not Applicable
        :variable_prefixed: false
      - :type: http://www.assero.co.uk/BusinessDomain#IgVariable
        :id: ''
        :namespace: ''
        :label: Sequence Number
        :extension_properties: []
        :ordinal: '4'
        :rule: ''
        :name: CMSEQ
        :notes: Sequence Number given to ensure uniqueness of subject records within
          a domain. May be any valid number.
        :controlled_term_or_format: ''
        :compliance:
          :type: http://www.assero.co.uk/BusinessDomain#VariableCompliance
          :id: ''
          :namespace: ''
          :label: Required
          :extension_properties: []
        :variable_ref:
          :type: http://www.assero.co.uk/BusinessOperational#Reference
          :id: ''
          :namespace: ''
          :label: ''
          :extension_properties: []
          :enabled: true
          :optional: false
          :ordinal: 0
          :local_label: ''
          :subject_ref: 'null'
        :variable_class: Interventions
        :variable_domain_prefix: CM
        :variable_name_minus: SEQ
        :variable_type: Num
        :variable_classification: Identifier
        :variable_sub_classification: Not Applicable
        :variable_prefixed: false
      - :type: http://www.assero.co.uk/BusinessDomain#IgVariable
        :id: ''
        :namespace: ''
        :label: Group ID
        :extension_properties: []
        :ordinal: '5'
        :rule: ''
        :name: CMGRPID
        :notes: Used to tie together a block of related records in a single domain
          for a subject.
        :controlled_term_or_format: ''
        :compliance:
          :type: http://www.assero.co.uk/BusinessDomain#VariableCompliance
          :id: ''
          :namespace: ''
          :label: Permissible
          :extension_properties: []
        :variable_ref:
          :type: http://www.assero.co.uk/BusinessOperational#Reference
          :id: ''
          :namespace: ''
          :label: ''
          :extension_properties: []
          :enabled: true
          :optional: false
          :ordinal: 0
          :local_label: ''
          :subject_ref: 'null'
        :variable_class: Interventions
        :variable_domain_prefix: CM
        :variable_name_minus: GRPID
        :variable_type: Char
        :variable_classification: Identifier
        :variable_sub_classification: Not Applicable
        :variable_prefixed: false
      - :type: http://www.assero.co.uk/BusinessDomain#IgVariable
        :id: ''
        :namespace: ''
        :label: Sponsor-Defined Identifier
        :extension_properties: []
        :ordinal: '6'
        :rule: ''
        :name: CMSPID
        :notes: 'Sponsor-defined reference number. Examples: a number pre-printed
          on the CRF as an explicit line identifier or record identifier defined in
          the sponsor’s operational database. Example: line number on a concomitant
          medication page.'
        :controlled_term_or_format: ''
        :compliance:
          :type: http://www.assero.co.uk/BusinessDomain#VariableCompliance
          :id: ''
          :namespace: ''
          :label: Permissible
          :extension_properties: []
        :variable_ref:
          :type: http://www.assero.co.uk/BusinessOperational#Reference
          :id: ''
          :namespace: ''
          :label: ''
          :extension_properties: []
          :enabled: true
          :optional: false
          :ordinal: 0
          :local_label: ''
          :subject_ref: 'null'
        :variable_class: Interventions
        :variable_domain_prefix: CM
        :variable_name_minus: SPID
        :variable_type: Char
        :variable_classification: Identifier
        :variable_sub_classification: Not Applicable
        :variable_prefixed: false
      - :type: http://www.assero.co.uk/BusinessDomain#IgVariable
        :id: ''
        :namespace: ''
        :label: Reported Name of Drug, Med, or Therapy
        :extension_properties: []
        :ordinal: '7'
        :rule: ''
        :name: CMTRT
        :notes: Verbatim medication name that is either pre-printed or collected on
          a CRF.
        :controlled_term_or_format: ''
        :compliance:
          :type: http://www.assero.co.uk/BusinessDomain#VariableCompliance
          :id: ''
          :namespace: ''
          :label: Required
          :extension_properties: []
        :variable_ref:
          :type: http://www.assero.co.uk/BusinessOperational#Reference
          :id: ''
          :namespace: ''
          :label: ''
          :extension_properties: []
          :enabled: true
          :optional: false
          :ordinal: 0
          :local_label: ''
          :subject_ref: 'null'
        :variable_class: Interventions
        :variable_domain_prefix: CM
        :variable_name_minus: TRT
        :variable_type: Char
        :variable_classification: Topic
        :variable_sub_classification: Not Applicable
        :variable_prefixed: false
      - :type: http://www.assero.co.uk/BusinessDomain#IgVariable
        :id: ''
        :namespace: ''
        :label: Modified Reported Name
        :extension_properties: []
        :ordinal: '8'
        :rule: ''
        :name: CMMODIFY
        :notes: If CMTRT is modified to facilitate coding, then CMMODIFY will contain
          the modified text.
        :controlled_term_or_format: ''
        :compliance:
          :type: http://www.assero.co.uk/BusinessDomain#VariableCompliance
          :id: ''
          :namespace: ''
          :label: Permissible
          :extension_properties: []
        :variable_ref:
          :type: http://www.assero.co.uk/BusinessOperational#Reference
          :id: ''
          :namespace: ''
          :label: ''
          :extension_properties: []
          :enabled: true
          :optional: false
          :ordinal: 0
          :local_label: ''
          :subject_ref: 'null'
        :variable_class: Interventions
        :variable_domain_prefix: CM
        :variable_name_minus: MODIFY
        :variable_type: Char
        :variable_classification: Qualifier
        :variable_sub_classification: Synonym Qualifier
        :variable_prefixed: false
      - :type: http://www.assero.co.uk/BusinessDomain#IgVariable
        :id: ''
        :namespace: ''
        :label: Standardized Medication Name
        :extension_properties: []
        :ordinal: '9'
        :rule: ''
        :name: CMDECOD
        :notes: Standardized or dictionary-derived text description of CMTRT or CMMODIFY.
          Equivalent to the generic medication name in WHO Drug. The sponsor is expected
          to provide the dictionary name and version used to map the terms utilizing
          the define.xml external codelist attributes. If an intervention term does
          not have a decode value in the dictionary then CMDECOD will be left blank.
        :controlled_term_or_format: ''
        :compliance:
          :type: http://www.assero.co.uk/BusinessDomain#VariableCompliance
          :id: ''
          :namespace: ''
          :label: Permissible
          :extension_properties: []
        :variable_ref:
          :type: http://www.assero.co.uk/BusinessOperational#Reference
          :id: ''
          :namespace: ''
          :label: ''
          :extension_properties: []
          :enabled: true
          :optional: false
          :ordinal: 0
          :local_label: ''
          :subject_ref: 'null'
        :variable_class: Interventions
        :variable_domain_prefix: CM
        :variable_name_minus: DECOD
        :variable_type: Char
        :variable_classification: Qualifier
        :variable_sub_classification: Synonym Qualifier
        :variable_prefixed: false
      - :type: http://www.assero.co.uk/BusinessDomain#IgVariable
        :id: ''
        :namespace: ''
        :label: Category for Medication
        :extension_properties: []
        :ordinal: '10'
        :rule: ''
        :name: CMCAT
        :notes: 'Used to define a category of medications/treatments. Examples: PRIOR,
          CONCOMITANT, ANTI-CANCER MEDICATION, or GENERAL CONMED.'
        :controlled_term_or_format: ''
        :compliance:
          :type: http://www.assero.co.uk/BusinessDomain#VariableCompliance
          :id: ''
          :namespace: ''
          :label: Permissible
          :extension_properties: []
        :variable_ref:
          :type: http://www.assero.co.uk/BusinessOperational#Reference
          :id: ''
          :namespace: ''
          :label: ''
          :extension_properties: []
          :enabled: true
          :optional: false
          :ordinal: 0
          :local_label: ''
          :subject_ref: 'null'
        :variable_class: Interventions
        :variable_domain_prefix: CM
        :variable_name_minus: CAT
        :variable_type: Char
        :variable_classification: Qualifier
        :variable_sub_classification: Grouping Qualifier
        :variable_prefixed: false
      - :type: http://www.assero.co.uk/BusinessDomain#IgVariable
        :id: ''
        :namespace: ''
        :label: Subcategory for Medication
        :extension_properties: []
        :ordinal: '11'
        :rule: ''
        :name: CMSCAT
        :notes: 'A further categorization of medications/ treatment. Examples: CHEMOTHERAPY,
          HORMONAL THERAPY, ALTERNATIVE THERAPY.'
        :controlled_term_or_format: ''
        :compliance:
          :type: http://www.assero.co.uk/BusinessDomain#VariableCompliance
          :id: ''
          :namespace: ''
          :label: Permissible
          :extension_properties: []
        :variable_ref:
          :type: http://www.assero.co.uk/BusinessOperational#Reference
          :id: ''
          :namespace: ''
          :label: ''
          :extension_properties: []
          :enabled: true
          :optional: false
          :ordinal: 0
          :local_label: ''
          :subject_ref: 'null'
        :variable_class: Interventions
        :variable_domain_prefix: CM
        :variable_name_minus: SCAT
        :variable_type: Char
        :variable_classification: Qualifier
        :variable_sub_classification: Grouping Qualifier
        :variable_prefixed: false
      - :type: http://www.assero.co.uk/BusinessDomain#IgVariable
        :id: ''
        :namespace: ''
        :label: CM Pre-Specified
        :extension_properties: []
        :ordinal: '12'
        :rule: ''
        :name: CMPRESP
        :notes: Used to indicate whether (Y/null) information about the use of a specific
          medication was solicited on the CRF.
        :controlled_term_or_format: "(NY)"
        :compliance:
          :type: http://www.assero.co.uk/BusinessDomain#VariableCompliance
          :id: ''
          :namespace: ''
          :label: Permissible
          :extension_properties: []
        :variable_ref:
          :type: http://www.assero.co.uk/BusinessOperational#Reference
          :id: ''
          :namespace: ''
          :label: ''
          :extension_properties: []
          :enabled: true
          :optional: false
          :ordinal: 0
          :local_label: ''
          :subject_ref: 'null'
        :variable_class: Interventions
        :variable_domain_prefix: CM
        :variable_name_minus: PRESP
        :variable_type: Char
        :variable_classification: Qualifier
        :variable_sub_classification: Variable Qualifier
        :variable_prefixed: false
      - :type: http://www.assero.co.uk/BusinessDomain#IgVariable
        :id: ''
        :namespace: ''
        :label: CM Occurrence
        :extension_properties: []
        :ordinal: '13'
        :rule: ''
        :name: CMOCCUR
        :notes: When the use of specific medications is solicited, CMOCCUR is used
          to indicate whether or not (Y/N) use of the medication occurred. Values
          are null for medications not specifically solicited.
        :controlled_term_or_format: "(NY)"
        :compliance:
          :type: http://www.assero.co.uk/BusinessDomain#VariableCompliance
          :id: ''
          :namespace: ''
          :label: Permissible
          :extension_properties: []
        :variable_ref:
          :type: http://www.assero.co.uk/BusinessOperational#Reference
          :id: ''
          :namespace: ''
          :label: ''
          :extension_properties: []
          :enabled: true
          :optional: false
          :ordinal: 0
          :local_label: ''
          :subject_ref: 'null'
        :variable_class: Interventions
        :variable_domain_prefix: CM
        :variable_name_minus: OCCUR
        :variable_type: Char
        :variable_classification: Qualifier
        :variable_sub_classification: Record Qualifier
        :variable_prefixed: false
      - :type: http://www.assero.co.uk/BusinessDomain#IgVariable
        :id: ''
        :namespace: ''
        :label: Completion Status
        :extension_properties: []
        :ordinal: '14'
        :rule: ''
        :name: CMSTAT
        :notes: Used to indicate that a question about a pre-specified medication
          was not answered. Should be null or have a value of NOT DONE.
        :controlled_term_or_format: "(ND)"
        :compliance:
          :type: http://www.assero.co.uk/BusinessDomain#VariableCompliance
          :id: ''
          :namespace: ''
          :label: Permissible
          :extension_properties: []
        :variable_ref:
          :type: http://www.assero.co.uk/BusinessOperational#Reference
          :id: ''
          :namespace: ''
          :label: ''
          :extension_properties: []
          :enabled: true
          :optional: false
          :ordinal: 0
          :local_label: ''
          :subject_ref: 'null'
        :variable_class: Interventions
        :variable_domain_prefix: CM
        :variable_name_minus: STAT
        :variable_type: Char
        :variable_classification: Qualifier
        :variable_sub_classification: Record Qualifier
        :variable_prefixed: false
      - :type: http://www.assero.co.uk/BusinessDomain#IgVariable
        :id: ''
        :namespace: ''
        :label: Reason Medication Not Collected
        :extension_properties: []
        :ordinal: '15'
        :rule: ''
        :name: CMREASND
        :notes: Describes the reason concomitant medication was not collected. Used
          in conjunction with CMSTAT when value is NOT DONE.
        :controlled_term_or_format: ''
        :compliance:
          :type: http://www.assero.co.uk/BusinessDomain#VariableCompliance
          :id: ''
          :namespace: ''
          :label: Permissible
          :extension_properties: []
        :variable_ref:
          :type: http://www.assero.co.uk/BusinessOperational#Reference
          :id: ''
          :namespace: ''
          :label: ''
          :extension_properties: []
          :enabled: true
          :optional: false
          :ordinal: 0
          :local_label: ''
          :subject_ref: 'null'
        :variable_class: Interventions
        :variable_domain_prefix: CM
        :variable_name_minus: REASND
        :variable_type: Char
        :variable_classification: Qualifier
        :variable_sub_classification: Record Qualifier
        :variable_prefixed: false
      - :type: http://www.assero.co.uk/BusinessDomain#IgVariable
        :id: ''
        :namespace: ''
        :label: Indication
        :extension_properties: []
        :ordinal: '16'
        :rule: ''
        :name: CMINDC
        :notes: 'Denotes why a medication was taken or administered. Examples: NAUSEA,
          HYPERTENSION.'
        :controlled_term_or_format: ''
        :compliance:
          :type: http://www.assero.co.uk/BusinessDomain#VariableCompliance
          :id: ''
          :namespace: ''
          :label: Permissible
          :extension_properties: []
        :variable_ref:
          :type: http://www.assero.co.uk/BusinessOperational#Reference
          :id: ''
          :namespace: ''
          :label: ''
          :extension_properties: []
          :enabled: true
          :optional: false
          :ordinal: 0
          :local_label: ''
          :subject_ref: 'null'
        :variable_class: Interventions
        :variable_domain_prefix: CM
        :variable_name_minus: INDC
        :variable_type: Char
        :variable_classification: Qualifier
        :variable_sub_classification: Record Qualifier
        :variable_prefixed: false
      - :type: http://www.assero.co.uk/BusinessDomain#IgVariable
        :id: ''
        :namespace: ''
        :label: Medication Class
        :extension_properties: []
        :ordinal: '17'
        :rule: ''
        :name: CMCLAS
        :notes: 'Drug class. May be obtained from coding. When coding to a single
          class, populate with class value. If using a dictionary and coding to multiple
          classes, then follow Section 4: 4.1.2.8.3, Multiple Values For A Non-Result
          Qualifier Variable or omit CMCLAS.'
        :controlled_term_or_format: ''
        :compliance:
          :type: http://www.assero.co.uk/BusinessDomain#VariableCompliance
          :id: ''
          :namespace: ''
          :label: Permissible
          :extension_properties: []
        :variable_ref:
          :type: http://www.assero.co.uk/BusinessOperational#Reference
          :id: ''
          :namespace: ''
          :label: ''
          :extension_properties: []
          :enabled: true
          :optional: false
          :ordinal: 0
          :local_label: ''
          :subject_ref: 'null'
        :variable_class: Interventions
        :variable_domain_prefix: CM
        :variable_name_minus: CLAS
        :variable_type: Char
        :variable_classification: Qualifier
        :variable_sub_classification: Variable Qualifier
        :variable_prefixed: false
      - :type: http://www.assero.co.uk/BusinessDomain#IgVariable
        :id: ''
        :namespace: ''
        :label: Medication Class Code
        :extension_properties: []
        :ordinal: '18'
        :rule: ''
        :name: CMCLASCD
        :notes: 'Class code corresponding to CMCLAS. Drug class. May be obtained from
          coding. When coding to a single class, populate with class code. If using
          a dictionary and coding to multiple classes, then follow Section 4: 4.1.2.8.3,
          Multiple Values For A Non-Result Qualifier Variable or omit CMCLASCD.'
        :controlled_term_or_format: ''
        :compliance:
          :type: http://www.assero.co.uk/BusinessDomain#VariableCompliance
          :id: ''
          :namespace: ''
          :label: Permissible
          :extension_properties: []
        :variable_ref:
          :type: http://www.assero.co.uk/BusinessOperational#Reference
          :id: ''
          :namespace: ''
          :label: ''
          :extension_properties: []
          :enabled: true
          :optional: false
          :ordinal: 0
          :local_label: ''
          :subject_ref: 'null'
        :variable_class: Interventions
        :variable_domain_prefix: CM
        :variable_name_minus: CLASCD
        :variable_type: Char
        :variable_classification: Qualifier
        :variable_sub_classification: Variable Qualifier
        :variable_prefixed: false
      - :type: http://www.assero.co.uk/BusinessDomain#IgVariable
        :id: ''
        :namespace: ''
        :label: Dose per Administration
        :extension_properties: []
        :ordinal: '19'
        :rule: ''
        :name: CMDOSE
        :notes: Amount of CMTRT taken. Not populated when CMDOSTXT is populated.
        :controlled_term_or_format: ''
        :compliance:
          :type: http://www.assero.co.uk/BusinessDomain#VariableCompliance
          :id: ''
          :namespace: ''
          :label: Permissible
          :extension_properties: []
        :variable_ref:
          :type: http://www.assero.co.uk/BusinessOperational#Reference
          :id: ''
          :namespace: ''
          :label: ''
          :extension_properties: []
          :enabled: true
          :optional: false
          :ordinal: 0
          :local_label: ''
          :subject_ref: 'null'
        :variable_class: Interventions
        :variable_domain_prefix: CM
        :variable_name_minus: DOSE
        :variable_type: Num
        :variable_classification: Qualifier
        :variable_sub_classification: Record Qualifier
        :variable_prefixed: false
      - :type: http://www.assero.co.uk/BusinessDomain#IgVariable
        :id: ''
        :namespace: ''
        :label: Dose Description
        :extension_properties: []
        :ordinal: '20'
        :rule: ''
        :name: CMDOSTXT
        :notes: 'Dosing amounts or a range of dosing information collected in text
          form. Units may be stored in CMDOSU. Example: 200-400, 15-20. Not populated
          when CMDOSE is populated.'
        :controlled_term_or_format: ''
        :compliance:
          :type: http://www.assero.co.uk/BusinessDomain#VariableCompliance
          :id: ''
          :namespace: ''
          :label: Permissible
          :extension_properties: []
        :variable_ref:
          :type: http://www.assero.co.uk/BusinessOperational#Reference
          :id: ''
          :namespace: ''
          :label: ''
          :extension_properties: []
          :enabled: true
          :optional: false
          :ordinal: 0
          :local_label: ''
          :subject_ref: 'null'
        :variable_class: Interventions
        :variable_domain_prefix: CM
        :variable_name_minus: DOSTXT
        :variable_type: Char
        :variable_classification: Qualifier
        :variable_sub_classification: Record Qualifier
        :variable_prefixed: false
      - :type: http://www.assero.co.uk/BusinessDomain#IgVariable
        :id: ''
        :namespace: ''
        :label: Dose Units
        :extension_properties: []
        :ordinal: '21'
        :rule: ''
        :name: CMDOSU
        :notes: 'Units for CMDOSE, CMDOSTOT, and CMDOSTXT. Examples: ng, mg, or mg/kg.'
        :controlled_term_or_format: "(UNIT)"
        :compliance:
          :type: http://www.assero.co.uk/BusinessDomain#VariableCompliance
          :id: ''
          :namespace: ''
          :label: Permissible
          :extension_properties: []
        :variable_ref:
          :type: http://www.assero.co.uk/BusinessOperational#Reference
          :id: ''
          :namespace: ''
          :label: ''
          :extension_properties: []
          :enabled: true
          :optional: false
          :ordinal: 0
          :local_label: ''
          :subject_ref: 'null'
        :variable_class: Interventions
        :variable_domain_prefix: CM
        :variable_name_minus: DOSU
        :variable_type: Char
        :variable_classification: Qualifier
        :variable_sub_classification: Variable Qualifier
        :variable_prefixed: false
      - :type: http://www.assero.co.uk/BusinessDomain#IgVariable
        :id: ''
        :namespace: ''
        :label: Dose Form
        :extension_properties: []
        :ordinal: '22'
        :rule: ''
        :name: CMDOSFRM
        :notes: 'Dose form for CMTRT. Examples: TABLET, LOTION.'
        :controlled_term_or_format: "(FRM)"
        :compliance:
          :type: http://www.assero.co.uk/BusinessDomain#VariableCompliance
          :id: ''
          :namespace: ''
          :label: Permissible
          :extension_properties: []
        :variable_ref:
          :type: http://www.assero.co.uk/BusinessOperational#Reference
          :id: ''
          :namespace: ''
          :label: ''
          :extension_properties: []
          :enabled: true
          :optional: false
          :ordinal: 0
          :local_label: ''
          :subject_ref: 'null'
        :variable_class: Interventions
        :variable_domain_prefix: CM
        :variable_name_minus: DOSFRM
        :variable_type: Char
        :variable_classification: Qualifier
        :variable_sub_classification: Variable Qualifier
        :variable_prefixed: false
      - :type: http://www.assero.co.uk/BusinessDomain#IgVariable
        :id: ''
        :namespace: ''
        :label: Dosing Frequency per Interval
        :extension_properties: []
        :ordinal: '23'
        :rule: ''
        :name: CMDOSFRQ
        :notes: 'Usually expressed as the number of repeated administrations of CMDOSE
          within a specific time period. Examples: BID (twice daily), Q12H (every
          12 hours).'
        :controlled_term_or_format: "(FREQ)"
        :compliance:
          :type: http://www.assero.co.uk/BusinessDomain#VariableCompliance
          :id: ''
          :namespace: ''
          :label: Permissible
          :extension_properties: []
        :variable_ref:
          :type: http://www.assero.co.uk/BusinessOperational#Reference
          :id: ''
          :namespace: ''
          :label: ''
          :extension_properties: []
          :enabled: true
          :optional: false
          :ordinal: 0
          :local_label: ''
          :subject_ref: 'null'
        :variable_class: Interventions
        :variable_domain_prefix: CM
        :variable_name_minus: DOSFRQ
        :variable_type: Char
        :variable_classification: Qualifier
        :variable_sub_classification: Variable Qualifier
        :variable_prefixed: false
      - :type: http://www.assero.co.uk/BusinessDomain#IgVariable
        :id: ''
        :namespace: ''
        :label: Total Daily Dose
        :extension_properties: []
        :ordinal: '24'
        :rule: ''
        :name: CMDOSTOT
        :notes: Total daily dose of CMTRT using the units in CMDOSU. Used when dosing
          is collected as Total Daily Dose. Total dose over a period other than day
          could be recorded in a separate Supplemental Qualifier variable.
        :controlled_term_or_format: ''
        :compliance:
          :type: http://www.assero.co.uk/BusinessDomain#VariableCompliance
          :id: ''
          :namespace: ''
          :label: Permissible
          :extension_properties: []
        :variable_ref:
          :type: http://www.assero.co.uk/BusinessOperational#Reference
          :id: ''
          :namespace: ''
          :label: ''
          :extension_properties: []
          :enabled: true
          :optional: false
          :ordinal: 0
          :local_label: ''
          :subject_ref: 'null'
        :variable_class: Interventions
        :variable_domain_prefix: CM
        :variable_name_minus: DOSTOT
        :variable_type: Num
        :variable_classification: Qualifier
        :variable_sub_classification: Record Qualifier
        :variable_prefixed: false
      - :type: http://www.assero.co.uk/BusinessDomain#IgVariable
        :id: ''
        :namespace: ''
        :label: Intended Dose Regimen
        :extension_properties: []
        :ordinal: '25'
        :rule: ''
        :name: CMDOSRGM
        :notes: 'Text description of the (intended) schedule or regimen for the Intervention.
          Examples: TWO WEEKS ON, TWO WEEKS OFF.'
        :controlled_term_or_format: ''
        :compliance:
          :type: http://www.assero.co.uk/BusinessDomain#VariableCompliance
          :id: ''
          :namespace: ''
          :label: Permissible
          :extension_properties: []
        :variable_ref:
          :type: http://www.assero.co.uk/BusinessOperational#Reference
          :id: ''
          :namespace: ''
          :label: ''
          :extension_properties: []
          :enabled: true
          :optional: false
          :ordinal: 0
          :local_label: ''
          :subject_ref: 'null'
        :variable_class: Interventions
        :variable_domain_prefix: CM
        :variable_name_minus: DOSRGM
        :variable_type: Char
        :variable_classification: Qualifier
        :variable_sub_classification: Variable Qualifier
        :variable_prefixed: false
      - :type: http://www.assero.co.uk/BusinessDomain#IgVariable
        :id: ''
        :namespace: ''
        :label: Route of Administration
        :extension_properties: []
        :ordinal: '26'
        :rule: ''
        :name: CMROUTE
        :notes: 'Route of administration for CMTRT. Examples: ORAL, INTRAVENOUS.'
        :controlled_term_or_format: "(ROUTE)"
        :compliance:
          :type: http://www.assero.co.uk/BusinessDomain#VariableCompliance
          :id: ''
          :namespace: ''
          :label: Permissible
          :extension_properties: []
        :variable_ref:
          :type: http://www.assero.co.uk/BusinessOperational#Reference
          :id: ''
          :namespace: ''
          :label: ''
          :extension_properties: []
          :enabled: true
          :optional: false
          :ordinal: 0
          :local_label: ''
          :subject_ref: 'null'
        :variable_class: Interventions
        :variable_domain_prefix: CM
        :variable_name_minus: ROUTE
        :variable_type: Char
        :variable_classification: Qualifier
        :variable_sub_classification: Variable Qualifier
        :variable_prefixed: false
      - :type: http://www.assero.co.uk/BusinessDomain#IgVariable
        :id: ''
        :namespace: ''
        :label: Start Date/Time of Medication
        :extension_properties: []
        :ordinal: '27'
        :rule: ''
        :name: CMSTDTC
        :notes: ''
        :controlled_term_or_format: ISO 8601
        :compliance:
          :type: http://www.assero.co.uk/BusinessDomain#VariableCompliance
          :id: ''
          :namespace: ''
          :label: Permissible
          :extension_properties: []
        :variable_ref:
          :type: http://www.assero.co.uk/BusinessOperational#Reference
          :id: ''
          :namespace: ''
          :label: ''
          :extension_properties: []
          :enabled: true
          :optional: false
          :ordinal: 0
          :local_label: ''
          :subject_ref: 'null'
        :variable_class: Interventions
        :variable_domain_prefix: CM
        :variable_name_minus: STDTC
        :variable_type: Char
        :variable_classification: Timing
        :variable_sub_classification: Not Applicable
        :variable_prefixed: false
      - :type: http://www.assero.co.uk/BusinessDomain#IgVariable
        :id: ''
        :namespace: ''
        :label: End Date/Time of Medication
        :extension_properties: []
        :ordinal: '28'
        :rule: ''
        :name: CMENDTC
        :notes: ''
        :controlled_term_or_format: ISO 8601
        :compliance:
          :type: http://www.assero.co.uk/BusinessDomain#VariableCompliance
          :id: ''
          :namespace: ''
          :label: Permissible
          :extension_properties: []
        :variable_ref:
          :type: http://www.assero.co.uk/BusinessOperational#Reference
          :id: ''
          :namespace: ''
          :label: ''
          :extension_properties: []
          :enabled: true
          :optional: false
          :ordinal: 0
          :local_label: ''
          :subject_ref: 'null'
        :variable_class: Interventions
        :variable_domain_prefix: CM
        :variable_name_minus: ENDTC
        :variable_type: Char
        :variable_classification: Timing
        :variable_sub_classification: Not Applicable
        :variable_prefixed: false
      - :type: http://www.assero.co.uk/BusinessDomain#IgVariable
        :id: ''
        :namespace: ''
        :label: Study Day of Start of Medication
        :extension_properties: []
        :ordinal: '29'
        :rule: ''
        :name: CMSTDY
        :notes: Study day of start of medication relative to the sponsor-defined RFSTDTC.
        :controlled_term_or_format: ''
        :compliance:
          :type: http://www.assero.co.uk/BusinessDomain#VariableCompliance
          :id: ''
          :namespace: ''
          :label: Permissible
          :extension_properties: []
        :variable_ref:
          :type: http://www.assero.co.uk/BusinessOperational#Reference
          :id: ''
          :namespace: ''
          :label: ''
          :extension_properties: []
          :enabled: true
          :optional: false
          :ordinal: 0
          :local_label: ''
          :subject_ref: 'null'
        :variable_class: Interventions
        :variable_domain_prefix: CM
        :variable_name_minus: STDY
        :variable_type: Num
        :variable_classification: Timing
        :variable_sub_classification: Not Applicable
        :variable_prefixed: false
      - :type: http://www.assero.co.uk/BusinessDomain#IgVariable
        :id: ''
        :namespace: ''
        :label: Study Day of End of Medication
        :extension_properties: []
        :ordinal: '30'
        :rule: ''
        :name: CMENDY
        :notes: Study day of end of medication relative to the sponsor-defined RFSTDTC.
        :controlled_term_or_format: ''
        :compliance:
          :type: http://www.assero.co.uk/BusinessDomain#VariableCompliance
          :id: ''
          :namespace: ''
          :label: Permissible
          :extension_properties: []
        :variable_ref:
          :type: http://www.assero.co.uk/BusinessOperational#Reference
          :id: ''
          :namespace: ''
          :label: ''
          :extension_properties: []
          :enabled: true
          :optional: false
          :ordinal: 0
          :local_label: ''
          :subject_ref: 'null'
        :variable_class: Interventions
        :variable_domain_prefix: CM
        :variable_name_minus: ENDY
        :variable_type: Num
        :variable_classification: Timing
        :variable_sub_classification: Not Applicable
        :variable_prefixed: false
      - :type: http://www.assero.co.uk/BusinessDomain#IgVariable
        :id: ''
        :namespace: ''
        :label: Duration of Medication
        :extension_properties: []
        :ordinal: '31'
        :rule: ''
        :name: CMDUR
        :notes: Collected duration for a treatment episode. Used only if collected
          on the CRF and not derived from start and end date/times.
        :controlled_term_or_format: ISO 8601
        :compliance:
          :type: http://www.assero.co.uk/BusinessDomain#VariableCompliance
          :id: ''
          :namespace: ''
          :label: Permissible
          :extension_properties: []
        :variable_ref:
          :type: http://www.assero.co.uk/BusinessOperational#Reference
          :id: ''
          :namespace: ''
          :label: ''
          :extension_properties: []
          :enabled: true
          :optional: false
          :ordinal: 0
          :local_label: ''
          :subject_ref: 'null'
        :variable_class: Interventions
        :variable_domain_prefix: CM
        :variable_name_minus: DUR
        :variable_type: Char
        :variable_classification: Timing
        :variable_sub_classification: Not Applicable
        :variable_prefixed: false
      - :type: http://www.assero.co.uk/BusinessDomain#IgVariable
        :id: ''
        :namespace: ''
        :label: Start Relative to Reference Period
        :extension_properties: []
        :ordinal: '32'
        :rule: ''
        :name: CMSTRF
        :notes: Describes the start of the medication relative to sponsor-defined
          reference period. The sponsor-defined reference period is a continuous period
          of time defined by a discrete starting point and a discrete ending point
          (represented by RFSTDTC and RFENDTC in Demographics). If information such
          as "PRIOR", ONGOING or "CONTINUING" was collected, this information may
          be translated into CMSTRF.
        :controlled_term_or_format: "(STENRF)"
        :compliance:
          :type: http://www.assero.co.uk/BusinessDomain#VariableCompliance
          :id: ''
          :namespace: ''
          :label: Permissible
          :extension_properties: []
        :variable_ref:
          :type: http://www.assero.co.uk/BusinessOperational#Reference
          :id: ''
          :namespace: ''
          :label: ''
          :extension_properties: []
          :enabled: true
          :optional: false
          :ordinal: 0
          :local_label: ''
          :subject_ref: 'null'
        :variable_class: Interventions
        :variable_domain_prefix: CM
        :variable_name_minus: STRF
        :variable_type: Char
        :variable_classification: Timing
        :variable_sub_classification: Not Applicable
        :variable_prefixed: false
      - :type: http://www.assero.co.uk/BusinessDomain#IgVariable
        :id: ''
        :namespace: ''
        :label: End Relative to Reference Period
        :extension_properties: []
        :ordinal: '33'
        :rule: ''
        :name: CMENRF
        :notes: Describes the end of the medication relative to the sponsor-defined
          reference period. The sponsor-defined reference period is a continuous period
          of time defined by a discrete starting point and a discrete ending point
          (represented by RFSTDTC and RFENDTC in Demographics). If information such
          as "PRIOR", "ONGOING, or "CONTINUING" was collected, this information may
          be translated into CMENRF.
        :controlled_term_or_format: "(STENRF)"
        :compliance:
          :type: http://www.assero.co.uk/BusinessDomain#VariableCompliance
          :id: ''
          :namespace: ''
          :label: Permissible
          :extension_properties: []
        :variable_ref:
          :type: http://www.assero.co.uk/BusinessOperational#Reference
          :id: ''
          :namespace: ''
          :label: ''
          :extension_properties: []
          :enabled: true
          :optional: false
          :ordinal: 0
          :local_label: ''
          :subject_ref: 'null'
        :variable_class: Interventions
        :variable_domain_prefix: CM
        :variable_name_minus: ENRF
        :variable_type: Char
        :variable_classification: Timing
        :variable_sub_classification: Not Applicable
        :variable_prefixed: false
      - :type: http://www.assero.co.uk/BusinessDomain#IgVariable
        :id: ''
        :namespace: ''
        :label: Start Relative to Reference Time Point
        :extension_properties: []
        :ordinal: '34'
        :rule: ''
        :name: CMSTRTPT
        :notes: Identifies the start of the medication as being before or after the
          reference time point defined by variable CMSTTPT.
        :controlled_term_or_format: "(STENRF)"
        :compliance:
          :type: http://www.assero.co.uk/BusinessDomain#VariableCompliance
          :id: ''
          :namespace: ''
          :label: Permissible
          :extension_properties: []
        :variable_ref:
          :type: http://www.assero.co.uk/BusinessOperational#Reference
          :id: ''
          :namespace: ''
          :label: ''
          :extension_properties: []
          :enabled: true
          :optional: false
          :ordinal: 0
          :local_label: ''
          :subject_ref: 'null'
        :variable_class: Interventions
        :variable_domain_prefix: CM
        :variable_name_minus: STRTPT
        :variable_type: Char
        :variable_classification: Timing
        :variable_sub_classification: Not Applicable
        :variable_prefixed: false
      - :type: http://www.assero.co.uk/BusinessDomain#IgVariable
        :id: ''
        :namespace: ''
        :label: Start Reference Time Point
        :extension_properties: []
        :ordinal: '35'
        :rule: ''
        :name: CMSTTPT
        :notes: 'Description or date/time in ISO 8601 character format of the reference
          point referred to by CMSTRTPT. Examples: "2003-12-15" or "VISIT 1".'
        :controlled_term_or_format: ''
        :compliance:
          :type: http://www.assero.co.uk/BusinessDomain#VariableCompliance
          :id: ''
          :namespace: ''
          :label: Permissible
          :extension_properties: []
        :variable_ref:
          :type: http://www.assero.co.uk/BusinessOperational#Reference
          :id: ''
          :namespace: ''
          :label: ''
          :extension_properties: []
          :enabled: true
          :optional: false
          :ordinal: 0
          :local_label: ''
          :subject_ref: 'null'
        :variable_class: Interventions
        :variable_domain_prefix: CM
        :variable_name_minus: STTPT
        :variable_type: Char
        :variable_classification: Timing
        :variable_sub_classification: Not Applicable
        :variable_prefixed: false
      - :type: http://www.assero.co.uk/BusinessDomain#IgVariable
        :id: ''
        :namespace: ''
        :label: End Relative to Reference Time Point
        :extension_properties: []
        :ordinal: '36'
        :rule: ''
        :name: CMENRTPT
        :notes: Identifies the end of the medication as being before or after the
          reference time point defined by variable CMENTPT.
        :controlled_term_or_format: "(STENRF)"
        :compliance:
          :type: http://www.assero.co.uk/BusinessDomain#VariableCompliance
          :id: ''
          :namespace: ''
          :label: Permissible
          :extension_properties: []
        :variable_ref:
          :type: http://www.assero.co.uk/BusinessOperational#Reference
          :id: ''
          :namespace: ''
          :label: ''
          :extension_properties: []
          :enabled: true
          :optional: false
          :ordinal: 0
          :local_label: ''
          :subject_ref: 'null'
        :variable_class: Interventions
        :variable_domain_prefix: CM
        :variable_name_minus: ENRTPT
        :variable_type: Char
        :variable_classification: Timing
        :variable_sub_classification: Not Applicable
        :variable_prefixed: false
      - :type: http://www.assero.co.uk/BusinessDomain#IgVariable
        :id: ''
        :namespace: ''
        :label: End Reference Time Point
        :extension_properties: []
        :ordinal: '37'
        :rule: ''
        :name: CMENTPT
        :notes: 'Description or date/time in ISO 8601 character format of the reference
          point referred to by CMENRTPT. Examples: "2003-12-25" or "VISIT 2".'
        :controlled_term_or_format: ''
        :compliance:
          :type: http://www.assero.co.uk/BusinessDomain#VariableCompliance
          :id: ''
          :namespace: ''
          :label: Permissible
          :extension_properties: []
        :variable_ref:
          :type: http://www.assero.co.uk/BusinessOperational#Reference
          :id: ''
          :namespace: ''
          :label: ''
          :extension_properties: []
          :enabled: true
          :optional: false
          :ordinal: 0
          :local_label: ''
          :subject_ref: 'null'
        :variable_class: Interventions
        :variable_domain_prefix: CM
        :variable_name_minus: ENTPT
        :variable_type: Char
        :variable_classification: Timing
        :variable_sub_classification: Not Applicable
        :variable_prefixed: false
      :domain_class: Interventions
- :type: IG_DOMAIN
  :order: 2
  :instance:
    :operation:
      :action: CREATE
      :new_version: '1'
      :new_semantic_version: 0.1.0
      :new_state: Standard
      :identifier_edit: true
    :managed_item:
      :type: ''
      :id: ''
      :namespace: ''
      :label: Comments
      :extension_properties: []
      :origin: ''
      :change_description: ''
      :creation_date: '2017-01-01'
      :last_changed_date: '2017-10-19T19:08:53+01:00'
      :explanatory_comment: ''
      :registration_state:
        :namespace: http://www.assero.co.uk/MDRItems
        :id: ''
        :registration_authority:
          :id: ''
          :number: "<Not Set>"
          :scheme: DUNS
          :owner: false
          :namespace:
            :namespace: ''
            :id: ''
            :name: ''
            :shortName: ''
        :registration_status: Not_Set
        :administrative_note: ''
        :effective_date: '2016-01-01T00:00:00+00:00'
        :until_date: '2016-01-01T00:00:00+00:00'
        :current: false
        :unresolved_issue: ''
        :administrative_status: ''
        :previous_state: Not_Set
      :scoped_identifier:
        :id: ''
        :identifier: SDTM IG CO
        :version_label: Version Label
        :version: 0
        :semantic_version: 0.0.0
        :namespace:
          :namespace: ''
          :id: ''
          :name: ''
          :shortName: ''
      :ordinal: 1
      :rule: ''
      :prefix: CO
      :structure: 
      :model_ref:
        :type: http://www.assero.co.uk/BusinessOperational#Reference
        :id: ''
        :namespace: ''
        :label: ''
        :extension_properties: []
        :enabled: true
        :optional: false
        :ordinal: 0
        :local_label: ''
        :subject_ref: 'null'
      :children:
      - :type: http://www.assero.co.uk/BusinessDomain#IgVariable
        :id: ''
        :namespace: ''
        :label: Study Identifier
        :extension_properties: []
        :ordinal: '1'
        :rule: ''
        :name: STUDYID
        :notes: Unique identifier for a study.
        :controlled_term_or_format: ''
        :compliance:
          :type: http://www.assero.co.uk/BusinessDomain#VariableCompliance
          :id: ''
          :namespace: ''
          :label: Required
          :extension_properties: []
        :variable_ref:
          :type: http://www.assero.co.uk/BusinessOperational#Reference
          :id: ''
          :namespace: ''
          :label: ''
          :extension_properties: []
          :enabled: true
          :optional: false
          :ordinal: 0
          :local_label: ''
          :subject_ref: 'null'
        :variable_class: Special Purpose
        :variable_domain_prefix: CO
        :variable_name_minus: STUDYID
        :variable_type: Char
        :variable_classification: Identifier
        :variable_sub_classification: Not Applicable
        :variable_prefixed: false
      - :type: http://www.assero.co.uk/BusinessDomain#IgVariable
        :id: ''
        :namespace: ''
        :label: Domain Abbreviation
        :extension_properties: []
        :ordinal: '2'
        :rule: ''
        :name: DOMAIN
        :notes: Two-character abbreviation for the domain.
        :controlled_term_or_format: "(DOMAIN)"
        :compliance:
          :type: http://www.assero.co.uk/BusinessDomain#VariableCompliance
          :id: ''
          :namespace: ''
          :label: Required
          :extension_properties: []
        :variable_ref:
          :type: http://www.assero.co.uk/BusinessOperational#Reference
          :id: ''
          :namespace: ''
          :label: ''
          :extension_properties: []
          :enabled: true
          :optional: false
          :ordinal: 0
          :local_label: ''
          :subject_ref: 'null'
        :variable_class: Special Purpose
        :variable_domain_prefix: CO
        :variable_name_minus: DOMAIN
        :variable_type: Char
        :variable_classification: Identifier
        :variable_sub_classification: Not Applicable
        :variable_prefixed: false
      - :type: http://www.assero.co.uk/BusinessDomain#IgVariable
        :id: ''
        :namespace: ''
        :label: Related Domain Abbreviation
        :extension_properties: []
        :ordinal: '3'
        :rule: ''
        :name: RDOMAIN
        :notes: Two-character abbreviation for the domain of the parent record(s).
          Null for comments collected on a general comments or additional information
          CRF page.
        :controlled_term_or_format: ''
        :compliance:
          :type: http://www.assero.co.uk/BusinessDomain#VariableCompliance
          :id: ''
          :namespace: ''
          :label: Permissible
          :extension_properties: []
        :variable_ref:
          :type: http://www.assero.co.uk/BusinessOperational#Reference
          :id: ''
          :namespace: ''
          :label: ''
          :extension_properties: []
          :enabled: true
          :optional: false
          :ordinal: 0
          :local_label: ''
          :subject_ref: 'null'
        :variable_class: Special Purpose
        :variable_domain_prefix: CO
        :variable_name_minus: RDOMAIN
        :variable_type: Char
        :variable_classification: Qualifier
        :variable_sub_classification: Record Qualifier
        :variable_prefixed: false
      - :type: http://www.assero.co.uk/BusinessDomain#IgVariable
        :id: ''
        :namespace: ''
        :label: Unique Subject Identifier
        :extension_properties: []
        :ordinal: '4'
        :rule: ''
        :name: USUBJID
        :notes: Identifier used to uniquely identify a subject across all studies
          for all applications or submissions involving the product.
        :controlled_term_or_format: ''
        :compliance:
          :type: http://www.assero.co.uk/BusinessDomain#VariableCompliance
          :id: ''
          :namespace: ''
          :label: Required
          :extension_properties: []
        :variable_ref:
          :type: http://www.assero.co.uk/BusinessOperational#Reference
          :id: ''
          :namespace: ''
          :label: ''
          :extension_properties: []
          :enabled: true
          :optional: false
          :ordinal: 0
          :local_label: ''
          :subject_ref: 'null'
        :variable_class: Special Purpose
        :variable_domain_prefix: CO
        :variable_name_minus: USUBJID
        :variable_type: Char
        :variable_classification: Identifier
        :variable_sub_classification: Not Applicable
        :variable_prefixed: false
      - :type: http://www.assero.co.uk/BusinessDomain#IgVariable
        :id: ''
        :namespace: ''
        :label: Sequence Number
        :extension_properties: []
        :ordinal: '5'
        :rule: ''
        :name: COSEQ
        :notes: Sequence Number given to ensure uniqueness of subject records within
          a domain. May be any valid number.
        :controlled_term_or_format: ''
        :compliance:
          :type: http://www.assero.co.uk/BusinessDomain#VariableCompliance
          :id: ''
          :namespace: ''
          :label: Required
          :extension_properties: []
        :variable_ref:
          :type: http://www.assero.co.uk/BusinessOperational#Reference
          :id: ''
          :namespace: ''
          :label: ''
          :extension_properties: []
          :enabled: true
          :optional: false
          :ordinal: 0
          :local_label: ''
          :subject_ref: 'null'
        :variable_class: Special Purpose
        :variable_domain_prefix: CO
        :variable_name_minus: SEQ
        :variable_type: Num
        :variable_classification: Identifier
        :variable_sub_classification: Not Applicable
        :variable_prefixed: false
      - :type: http://www.assero.co.uk/BusinessDomain#IgVariable
        :id: ''
        :namespace: ''
        :label: Identifying Variable
        :extension_properties: []
        :ordinal: '6'
        :rule: ''
        :name: IDVAR
        :notes: Identifying variable in the parent dataset that identifies the record(s)
          to which the comment applies. Examples AESEQ or CMGRPID. Used only when
          individual comments are related to domain records. Null for comments collected
          on separate CRFs.
        :controlled_term_or_format: ''
        :compliance:
          :type: http://www.assero.co.uk/BusinessDomain#VariableCompliance
          :id: ''
          :namespace: ''
          :label: Permissible
          :extension_properties: []
        :variable_ref:
          :type: http://www.assero.co.uk/BusinessOperational#Reference
          :id: ''
          :namespace: ''
          :label: ''
          :extension_properties: []
          :enabled: true
          :optional: false
          :ordinal: 0
          :local_label: ''
          :subject_ref: 'null'
        :variable_class: Special Purpose
        :variable_domain_prefix: CO
        :variable_name_minus: IDVAR
        :variable_type: Char
        :variable_classification: Qualifier
        :variable_sub_classification: Record Qualifier
        :variable_prefixed: false
      - :type: http://www.assero.co.uk/BusinessDomain#IgVariable
        :id: ''
        :namespace: ''
        :label: Identifying Variable Value
        :extension_properties: []
        :ordinal: '7'
        :rule: ''
        :name: IDVARVAL
        :notes: Value of identifying variable of the parent record(s). Used only when
          individual comments are related to domain records. Null for comments collected
          on separate CRFs.
        :controlled_term_or_format: ''
        :compliance:
          :type: http://www.assero.co.uk/BusinessDomain#VariableCompliance
          :id: ''
          :namespace: ''
          :label: Permissible
          :extension_properties: []
        :variable_ref:
          :type: http://www.assero.co.uk/BusinessOperational#Reference
          :id: ''
          :namespace: ''
          :label: ''
          :extension_properties: []
          :enabled: true
          :optional: false
          :ordinal: 0
          :local_label: ''
          :subject_ref: 'null'
        :variable_class: Special Purpose
        :variable_domain_prefix: CO
        :variable_name_minus: IDVARVAL
        :variable_type: Char
        :variable_classification: Qualifier
        :variable_sub_classification: Record Qualifier
        :variable_prefixed: false
      - :type: http://www.assero.co.uk/BusinessDomain#IgVariable
        :id: ''
        :namespace: ''
        :label: Comment Reference
        :extension_properties: []
        :ordinal: '8'
        :rule: ''
        :name: COREF
        :notes: Sponsor-defined reference associated with the comment. May be the
          CRF page number (e.g. 650), or a module name (e.g. DEMOG), or a combination
          of information that identifies the reference (e.g. 650-VITALS-VISIT 2).
        :controlled_term_or_format: ''
        :compliance:
          :type: http://www.assero.co.uk/BusinessDomain#VariableCompliance
          :id: ''
          :namespace: ''
          :label: Permissible
          :extension_properties: []
        :variable_ref:
          :type: http://www.assero.co.uk/BusinessOperational#Reference
          :id: ''
          :namespace: ''
          :label: ''
          :extension_properties: []
          :enabled: true
          :optional: false
          :ordinal: 0
          :local_label: ''
          :subject_ref: 'null'
        :variable_class: Special Purpose
        :variable_domain_prefix: CO
        :variable_name_minus: REF
        :variable_type: Char
        :variable_classification: Qualifier
        :variable_sub_classification: Record Qualifier
        :variable_prefixed: false
      - :type: http://www.assero.co.uk/BusinessDomain#IgVariable
        :id: ''
        :namespace: ''
        :label: Comment
        :extension_properties: []
        :ordinal: '9'
        :rule: ''
        :name: COVAL
        :notes: The text of the comment. Text over 200 characters can be added to
          additional columns COVAL1-COVALn. See Assumption 3.
        :controlled_term_or_format: ''
        :compliance:
          :type: http://www.assero.co.uk/BusinessDomain#VariableCompliance
          :id: ''
          :namespace: ''
          :label: Required
          :extension_properties: []
        :variable_ref:
          :type: http://www.assero.co.uk/BusinessOperational#Reference
          :id: ''
          :namespace: ''
          :label: ''
          :extension_properties: []
          :enabled: true
          :optional: false
          :ordinal: 0
          :local_label: ''
          :subject_ref: 'null'
        :variable_class: Special Purpose
        :variable_domain_prefix: CO
        :variable_name_minus: VAL
        :variable_type: Char
        :variable_classification: Topic
        :variable_sub_classification: Not Applicable
        :variable_prefixed: false
      - :type: http://www.assero.co.uk/BusinessDomain#IgVariable
        :id: ''
        :namespace: ''
        :label: Evaluator
        :extension_properties: []
        :ordinal: '10'
        :rule: ''
        :name: COEVAL
        :notes: 'Used to describe the originator of the comment. Examples: CENTRAL,
          REVIEWER, ADJUDICATION COMMITTEE, PRINCIPAL INVESTIGATOR.'
        :controlled_term_or_format: ''
        :compliance:
          :type: http://www.assero.co.uk/BusinessDomain#VariableCompliance
          :id: ''
          :namespace: ''
          :label: Permissible
          :extension_properties: []
        :variable_ref:
          :type: http://www.assero.co.uk/BusinessOperational#Reference
          :id: ''
          :namespace: ''
          :label: ''
          :extension_properties: []
          :enabled: true
          :optional: false
          :ordinal: 0
          :local_label: ''
          :subject_ref: 'null'
        :variable_class: Special Purpose
        :variable_domain_prefix: CO
        :variable_name_minus: EVAL
        :variable_type: Char
        :variable_classification: Qualifier
        :variable_sub_classification: Record Qualifier
        :variable_prefixed: false
      - :type: http://www.assero.co.uk/BusinessDomain#IgVariable
        :id: ''
        :namespace: ''
        :label: Date/Time of Comment
        :extension_properties: []
        :ordinal: '11'
        :rule: ''
        :name: CODTC
        :notes: Date/time of comment on dedicated comment form. Should be null if
          this is a child record of another domain or if comment date was not collected.
        :controlled_term_or_format: ISO 8601
        :compliance:
          :type: http://www.assero.co.uk/BusinessDomain#VariableCompliance
          :id: ''
          :namespace: ''
          :label: Permissible
          :extension_properties: []
        :variable_ref:
          :type: http://www.assero.co.uk/BusinessOperational#Reference
          :id: ''
          :namespace: ''
          :label: ''
          :extension_properties: []
          :enabled: true
          :optional: false
          :ordinal: 0
          :local_label: ''
          :subject_ref: 'null'
        :variable_class: Special Purpose
        :variable_domain_prefix: CO
        :variable_name_minus: DTC
        :variable_type: Char
        :variable_classification: Timing
        :variable_sub_classification: Not Applicable
        :variable_prefixed: false
      :domain_class: Special Purpose
- :type: IG_DOMAIN
  :order: 2
  :instance:
    :operation:
      :action: CREATE
      :new_version: '1'
      :new_semantic_version: 0.1.0
      :new_state: Standard
      :identifier_edit: true
    :managed_item:
      :type: ''
      :id: ''
      :namespace: ''
      :label: Drug Accountability
      :extension_properties: []
      :origin: ''
      :change_description: ''
      :creation_date: '2017-01-01'
      :last_changed_date: '2017-10-19T19:08:53+01:00'
      :explanatory_comment: ''
      :registration_state:
        :namespace: http://www.assero.co.uk/MDRItems
        :id: ''
        :registration_authority:
          :id: ''
          :number: "<Not Set>"
          :scheme: DUNS
          :owner: false
          :namespace:
            :namespace: ''
            :id: ''
            :name: ''
            :shortName: ''
        :registration_status: Not_Set
        :administrative_note: ''
        :effective_date: '2016-01-01T00:00:00+00:00'
        :until_date: '2016-01-01T00:00:00+00:00'
        :current: false
        :unresolved_issue: ''
        :administrative_status: ''
        :previous_state: Not_Set
      :scoped_identifier:
        :id: ''
        :identifier: SDTM IG DA
        :version_label: Version Label
        :version: 0
        :semantic_version: 0.0.0
        :namespace:
          :namespace: ''
          :id: ''
          :name: ''
          :shortName: ''
      :ordinal: 1
      :rule: ''
      :prefix: DA
      :structure: 
      :model_ref:
        :type: http://www.assero.co.uk/BusinessOperational#Reference
        :id: ''
        :namespace: ''
        :label: ''
        :extension_properties: []
        :enabled: true
        :optional: false
        :ordinal: 0
        :local_label: ''
        :subject_ref: 'null'
      :children:
      - :type: http://www.assero.co.uk/BusinessDomain#IgVariable
        :id: ''
        :namespace: ''
        :label: Study Identifier
        :extension_properties: []
        :ordinal: '1'
        :rule: ''
        :name: STUDYID
        :notes: Unique identifier for a study within the submission.
        :controlled_term_or_format: ''
        :compliance:
          :type: http://www.assero.co.uk/BusinessDomain#VariableCompliance
          :id: ''
          :namespace: ''
          :label: Required
          :extension_properties: []
        :variable_ref:
          :type: http://www.assero.co.uk/BusinessOperational#Reference
          :id: ''
          :namespace: ''
          :label: ''
          :extension_properties: []
          :enabled: true
          :optional: false
          :ordinal: 0
          :local_label: ''
          :subject_ref: 'null'
        :variable_class: Findings
        :variable_domain_prefix: DA
        :variable_name_minus: STUDYID
        :variable_type: Char
        :variable_classification: Identifier
        :variable_sub_classification: Not Applicable
        :variable_prefixed: false
      - :type: http://www.assero.co.uk/BusinessDomain#IgVariable
        :id: ''
        :namespace: ''
        :label: Domain Abbreviation
        :extension_properties: []
        :ordinal: '2'
        :rule: ''
        :name: DOMAIN
        :notes: Two-character abbreviation for the domain.
        :controlled_term_or_format: "(DOMAIN)"
        :compliance:
          :type: http://www.assero.co.uk/BusinessDomain#VariableCompliance
          :id: ''
          :namespace: ''
          :label: Required
          :extension_properties: []
        :variable_ref:
          :type: http://www.assero.co.uk/BusinessOperational#Reference
          :id: ''
          :namespace: ''
          :label: ''
          :extension_properties: []
          :enabled: true
          :optional: false
          :ordinal: 0
          :local_label: ''
          :subject_ref: 'null'
        :variable_class: Findings
        :variable_domain_prefix: DA
        :variable_name_minus: DOMAIN
        :variable_type: Char
        :variable_classification: Identifier
        :variable_sub_classification: Not Applicable
        :variable_prefixed: false
      - :type: http://www.assero.co.uk/BusinessDomain#IgVariable
        :id: ''
        :namespace: ''
        :label: Unique Subject Identifier
        :extension_properties: []
        :ordinal: '3'
        :rule: ''
        :name: USUBJID
        :notes: Unique subject identifier within the submission.
        :controlled_term_or_format: ''
        :compliance:
          :type: http://www.assero.co.uk/BusinessDomain#VariableCompliance
          :id: ''
          :namespace: ''
          :label: Required
          :extension_properties: []
        :variable_ref:
          :type: http://www.assero.co.uk/BusinessOperational#Reference
          :id: ''
          :namespace: ''
          :label: ''
          :extension_properties: []
          :enabled: true
          :optional: false
          :ordinal: 0
          :local_label: ''
          :subject_ref: 'null'
        :variable_class: Findings
        :variable_domain_prefix: DA
        :variable_name_minus: USUBJID
        :variable_type: Char
        :variable_classification: Identifier
        :variable_sub_classification: Not Applicable
        :variable_prefixed: false
      - :type: http://www.assero.co.uk/BusinessDomain#IgVariable
        :id: ''
        :namespace: ''
        :label: Sequence Number
        :extension_properties: []
        :ordinal: '4'
        :rule: ''
        :name: DASEQ
        :notes: Sequence Number given to ensure uniqueness of subject records within
          a domain. May be any valid number.
        :controlled_term_or_format: ''
        :compliance:
          :type: http://www.assero.co.uk/BusinessDomain#VariableCompliance
          :id: ''
          :namespace: ''
          :label: Required
          :extension_properties: []
        :variable_ref:
          :type: http://www.assero.co.uk/BusinessOperational#Reference
          :id: ''
          :namespace: ''
          :label: ''
          :extension_properties: []
          :enabled: true
          :optional: false
          :ordinal: 0
          :local_label: ''
          :subject_ref: 'null'
        :variable_class: Findings
        :variable_domain_prefix: DA
        :variable_name_minus: SEQ
        :variable_type: Num
        :variable_classification: Identifier
        :variable_sub_classification: Not Applicable
        :variable_prefixed: false
      - :type: http://www.assero.co.uk/BusinessDomain#IgVariable
        :id: ''
        :namespace: ''
        :label: Group ID
        :extension_properties: []
        :ordinal: '5'
        :rule: ''
        :name: DAGRPID
        :notes: Used to tie together a block of related records in a single domain
          for a subject.
        :controlled_term_or_format: ''
        :compliance:
          :type: http://www.assero.co.uk/BusinessDomain#VariableCompliance
          :id: ''
          :namespace: ''
          :label: Permissible
          :extension_properties: []
        :variable_ref:
          :type: http://www.assero.co.uk/BusinessOperational#Reference
          :id: ''
          :namespace: ''
          :label: ''
          :extension_properties: []
          :enabled: true
          :optional: false
          :ordinal: 0
          :local_label: ''
          :subject_ref: 'null'
        :variable_class: Findings
        :variable_domain_prefix: DA
        :variable_name_minus: GRPID
        :variable_type: Char
        :variable_classification: Identifier
        :variable_sub_classification: Not Applicable
        :variable_prefixed: false
      - :type: http://www.assero.co.uk/BusinessDomain#IgVariable
        :id: ''
        :namespace: ''
        :label: Reference ID
        :extension_properties: []
        :ordinal: '6'
        :rule: ''
        :name: DAREFID
        :notes: Internal or external identifier such as label number.
        :controlled_term_or_format: ''
        :compliance:
          :type: http://www.assero.co.uk/BusinessDomain#VariableCompliance
          :id: ''
          :namespace: ''
          :label: Permissible
          :extension_properties: []
        :variable_ref:
          :type: http://www.assero.co.uk/BusinessOperational#Reference
          :id: ''
          :namespace: ''
          :label: ''
          :extension_properties: []
          :enabled: true
          :optional: false
          :ordinal: 0
          :local_label: ''
          :subject_ref: 'null'
        :variable_class: Findings
        :variable_domain_prefix: DA
        :variable_name_minus: REFID
        :variable_type: Char
        :variable_classification: Identifier
        :variable_sub_classification: Not Applicable
        :variable_prefixed: false
      - :type: http://www.assero.co.uk/BusinessDomain#IgVariable
        :id: ''
        :namespace: ''
        :label: Sponsor-Defined Identifier
        :extension_properties: []
        :ordinal: '7'
        :rule: ''
        :name: DASPID
        :notes: 'Sponsor-defined reference number. Perhaps pre-printed on the CRF
          as an explicit line identifier or defined in the sponsor’s operational database.
          Examples: Line number on the Drug Accountability page, drug label code.'
        :controlled_term_or_format: ''
        :compliance:
          :type: http://www.assero.co.uk/BusinessDomain#VariableCompliance
          :id: ''
          :namespace: ''
          :label: Permissible
          :extension_properties: []
        :variable_ref:
          :type: http://www.assero.co.uk/BusinessOperational#Reference
          :id: ''
          :namespace: ''
          :label: ''
          :extension_properties: []
          :enabled: true
          :optional: false
          :ordinal: 0
          :local_label: ''
          :subject_ref: 'null'
        :variable_class: Findings
        :variable_domain_prefix: DA
        :variable_name_minus: SPID
        :variable_type: Char
        :variable_classification: Identifier
        :variable_sub_classification: Not Applicable
        :variable_prefixed: false
      - :type: http://www.assero.co.uk/BusinessDomain#IgVariable
        :id: ''
        :namespace: ''
        :label: Short Name of Accountability Assessment
        :extension_properties: []
        :ordinal: '8'
        :rule: ''
        :name: DATESTCD
        :notes: 'Short character value for DATEST used as a column name when converting
          a dataset from a vertical format to a horizontal format. The short value
          can be up to 8 characters and cannot begin with a number or contain characters
          other than letters, numbers or underscores. Example: DISPAMT, RETAMT.'
        :controlled_term_or_format: ''
        :compliance:
          :type: http://www.assero.co.uk/BusinessDomain#VariableCompliance
          :id: ''
          :namespace: ''
          :label: Required
          :extension_properties: []
        :variable_ref:
          :type: http://www.assero.co.uk/BusinessOperational#Reference
          :id: ''
          :namespace: ''
          :label: ''
          :extension_properties: []
          :enabled: true
          :optional: false
          :ordinal: 0
          :local_label: ''
          :subject_ref: 'null'
        :variable_class: Findings
        :variable_domain_prefix: DA
        :variable_name_minus: TESTCD
        :variable_type: Char
        :variable_classification: Topic
        :variable_sub_classification: Not Applicable
        :variable_prefixed: false
      - :type: http://www.assero.co.uk/BusinessDomain#IgVariable
        :id: ''
        :namespace: ''
        :label: Name of Accountability Assessment
        :extension_properties: []
        :ordinal: '9'
        :rule: ''
        :name: DATEST
        :notes: 'Verbatim name, corresponding to the topic variable, of the test or
          examination used to obtain the drug accountability assessment. The value
          in DATEST cannot be longer than 40 characters. Example: Dispensed Amount,
          Returned Amount.'
        :controlled_term_or_format: ''
        :compliance:
          :type: http://www.assero.co.uk/BusinessDomain#VariableCompliance
          :id: ''
          :namespace: ''
          :label: Required
          :extension_properties: []
        :variable_ref:
          :type: http://www.assero.co.uk/BusinessOperational#Reference
          :id: ''
          :namespace: ''
          :label: ''
          :extension_properties: []
          :enabled: true
          :optional: false
          :ordinal: 0
          :local_label: ''
          :subject_ref: 'null'
        :variable_class: Findings
        :variable_domain_prefix: DA
        :variable_name_minus: TEST
        :variable_type: Char
        :variable_classification: Qualifier
        :variable_sub_classification: Synonym Qualifier
        :variable_prefixed: false
      - :type: http://www.assero.co.uk/BusinessDomain#IgVariable
        :id: ''
        :namespace: ''
        :label: Category of Assessment
        :extension_properties: []
        :ordinal: '10'
        :rule: ''
        :name: DACAT
        :notes: 'Used to define a category of related records. Examples: STUDY MEDICATION,
          RESCUE MEDICATION.'
        :controlled_term_or_format: ''
        :compliance:
          :type: http://www.assero.co.uk/BusinessDomain#VariableCompliance
          :id: ''
          :namespace: ''
          :label: Permissible
          :extension_properties: []
        :variable_ref:
          :type: http://www.assero.co.uk/BusinessOperational#Reference
          :id: ''
          :namespace: ''
          :label: ''
          :extension_properties: []
          :enabled: true
          :optional: false
          :ordinal: 0
          :local_label: ''
          :subject_ref: 'null'
        :variable_class: Findings
        :variable_domain_prefix: DA
        :variable_name_minus: CAT
        :variable_type: Char
        :variable_classification: Qualifier
        :variable_sub_classification: Grouping Qualifier
        :variable_prefixed: false
      - :type: http://www.assero.co.uk/BusinessDomain#IgVariable
        :id: ''
        :namespace: ''
        :label: Subcategory of Assessment
        :extension_properties: []
        :ordinal: '11'
        :rule: ''
        :name: DASCAT
        :notes: Used to define a further categorization level for a group of related
          records.
        :controlled_term_or_format: ''
        :compliance:
          :type: http://www.assero.co.uk/BusinessDomain#VariableCompliance
          :id: ''
          :namespace: ''
          :label: Permissible
          :extension_properties: []
        :variable_ref:
          :type: http://www.assero.co.uk/BusinessOperational#Reference
          :id: ''
          :namespace: ''
          :label: ''
          :extension_properties: []
          :enabled: true
          :optional: false
          :ordinal: 0
          :local_label: ''
          :subject_ref: 'null'
        :variable_class: Findings
        :variable_domain_prefix: DA
        :variable_name_minus: SCAT
        :variable_type: Char
        :variable_classification: Qualifier
        :variable_sub_classification: Grouping Qualifier
        :variable_prefixed: false
      - :type: http://www.assero.co.uk/BusinessDomain#IgVariable
        :id: ''
        :namespace: ''
        :label: Assessment Result in Original Units
        :extension_properties: []
        :ordinal: '12'
        :rule: ''
        :name: DAORRES
        :notes: Result of the Drug Accountability assessment as originally received
          or collected.
        :controlled_term_or_format: ''
        :compliance:
          :type: http://www.assero.co.uk/BusinessDomain#VariableCompliance
          :id: ''
          :namespace: ''
          :label: Expected
          :extension_properties: []
        :variable_ref:
          :type: http://www.assero.co.uk/BusinessOperational#Reference
          :id: ''
          :namespace: ''
          :label: ''
          :extension_properties: []
          :enabled: true
          :optional: false
          :ordinal: 0
          :local_label: ''
          :subject_ref: 'null'
        :variable_class: Findings
        :variable_domain_prefix: DA
        :variable_name_minus: ORRES
        :variable_type: Char
        :variable_classification: Qualifier
        :variable_sub_classification: Result Qualifier
        :variable_prefixed: false
      - :type: http://www.assero.co.uk/BusinessDomain#IgVariable
        :id: ''
        :namespace: ''
        :label: Original Units
        :extension_properties: []
        :ordinal: '13'
        :rule: ''
        :name: DAORRESU
        :notes: Unit for DAORRES.
        :controlled_term_or_format: "(UNIT)"
        :compliance:
          :type: http://www.assero.co.uk/BusinessDomain#VariableCompliance
          :id: ''
          :namespace: ''
          :label: Permissible
          :extension_properties: []
        :variable_ref:
          :type: http://www.assero.co.uk/BusinessOperational#Reference
          :id: ''
          :namespace: ''
          :label: ''
          :extension_properties: []
          :enabled: true
          :optional: false
          :ordinal: 0
          :local_label: ''
          :subject_ref: 'null'
        :variable_class: Findings
        :variable_domain_prefix: DA
        :variable_name_minus: ORRESU
        :variable_type: Char
        :variable_classification: Qualifier
        :variable_sub_classification: Variable Qualifier
        :variable_prefixed: false
      - :type: http://www.assero.co.uk/BusinessDomain#IgVariable
        :id: ''
        :namespace: ''
        :label: Assessment Result in Std Format
        :extension_properties: []
        :ordinal: '14'
        :rule: ''
        :name: DASTRESC
        :notes: Contains the result value for all Drug Accountability assessments,
          copied or derived from DAORRES in a standard format or in standard units.
          DASTRESC should store all results or findings in character format; if results
          are numeric, they should also be stored in numeric format in DASTRESN.
        :controlled_term_or_format: ''
        :compliance:
          :type: http://www.assero.co.uk/BusinessDomain#VariableCompliance
          :id: ''
          :namespace: ''
          :label: Expected
          :extension_properties: []
        :variable_ref:
          :type: http://www.assero.co.uk/BusinessOperational#Reference
          :id: ''
          :namespace: ''
          :label: ''
          :extension_properties: []
          :enabled: true
          :optional: false
          :ordinal: 0
          :local_label: ''
          :subject_ref: 'null'
        :variable_class: Findings
        :variable_domain_prefix: DA
        :variable_name_minus: STRESC
        :variable_type: Char
        :variable_classification: Qualifier
        :variable_sub_classification: Result Qualifier
        :variable_prefixed: false
      - :type: http://www.assero.co.uk/BusinessDomain#IgVariable
        :id: ''
        :namespace: ''
        :label: Numeric Result/Finding in Standard Units
        :extension_properties: []
        :ordinal: '15'
        :rule: ''
        :name: DASTRESN
        :notes: Used for continuous or numeric results or findings in standard format;
          copied in numeric format from DASTRESC. DASTRESN should store all numeric
          test results or findings.
        :controlled_term_or_format: ''
        :compliance:
          :type: http://www.assero.co.uk/BusinessDomain#VariableCompliance
          :id: ''
          :namespace: ''
          :label: Permissible
          :extension_properties: []
        :variable_ref:
          :type: http://www.assero.co.uk/BusinessOperational#Reference
          :id: ''
          :namespace: ''
          :label: ''
          :extension_properties: []
          :enabled: true
          :optional: false
          :ordinal: 0
          :local_label: ''
          :subject_ref: 'null'
        :variable_class: Findings
        :variable_domain_prefix: DA
        :variable_name_minus: STRESN
        :variable_type: Num
        :variable_classification: Qualifier
        :variable_sub_classification: Result Qualifier
        :variable_prefixed: false
      - :type: http://www.assero.co.uk/BusinessDomain#IgVariable
        :id: ''
        :namespace: ''
        :label: Assessment Standard Units
        :extension_properties: []
        :ordinal: '16'
        :rule: ''
        :name: DASTRESU
        :notes: Standardized units used for DASTRESC and DASTRESN.
        :controlled_term_or_format: "(UNIT)"
        :compliance:
          :type: http://www.assero.co.uk/BusinessDomain#VariableCompliance
          :id: ''
          :namespace: ''
          :label: Permissible
          :extension_properties: []
        :variable_ref:
          :type: http://www.assero.co.uk/BusinessOperational#Reference
          :id: ''
          :namespace: ''
          :label: ''
          :extension_properties: []
          :enabled: true
          :optional: false
          :ordinal: 0
          :local_label: ''
          :subject_ref: 'null'
        :variable_class: Findings
        :variable_domain_prefix: DA
        :variable_name_minus: STRESU
        :variable_type: Char
        :variable_classification: Qualifier
        :variable_sub_classification: Variable Qualifier
        :variable_prefixed: false
      - :type: http://www.assero.co.uk/BusinessDomain#IgVariable
        :id: ''
        :namespace: ''
        :label: Completion Status
        :extension_properties: []
        :ordinal: '17'
        :rule: ''
        :name: DASTAT
        :notes: Used to indicate that a drug accountability assessment was not done.
          Should be null or have a value of NOT DONE.
        :controlled_term_or_format: "(ND)"
        :compliance:
          :type: http://www.assero.co.uk/BusinessDomain#VariableCompliance
          :id: ''
          :namespace: ''
          :label: Permissible
          :extension_properties: []
        :variable_ref:
          :type: http://www.assero.co.uk/BusinessOperational#Reference
          :id: ''
          :namespace: ''
          :label: ''
          :extension_properties: []
          :enabled: true
          :optional: false
          :ordinal: 0
          :local_label: ''
          :subject_ref: 'null'
        :variable_class: Findings
        :variable_domain_prefix: DA
        :variable_name_minus: STAT
        :variable_type: Char
        :variable_classification: Qualifier
        :variable_sub_classification: Record Qualifier
        :variable_prefixed: false
      - :type: http://www.assero.co.uk/BusinessDomain#IgVariable
        :id: ''
        :namespace: ''
        :label: Reason Not Performed
        :extension_properties: []
        :ordinal: '18'
        :rule: ''
        :name: DAREASND
        :notes: Reason not done. Used in conjunction with DASTAT when value is NOT
          DONE.
        :controlled_term_or_format: ''
        :compliance:
          :type: http://www.assero.co.uk/BusinessDomain#VariableCompliance
          :id: ''
          :namespace: ''
          :label: Permissible
          :extension_properties: []
        :variable_ref:
          :type: http://www.assero.co.uk/BusinessOperational#Reference
          :id: ''
          :namespace: ''
          :label: ''
          :extension_properties: []
          :enabled: true
          :optional: false
          :ordinal: 0
          :local_label: ''
          :subject_ref: 'null'
        :variable_class: Findings
        :variable_domain_prefix: DA
        :variable_name_minus: REASND
        :variable_type: Char
        :variable_classification: Qualifier
        :variable_sub_classification: Record Qualifier
        :variable_prefixed: false
      - :type: http://www.assero.co.uk/BusinessDomain#IgVariable
        :id: ''
        :namespace: ''
        :label: Visit Number
        :extension_properties: []
        :ordinal: '19'
        :rule: ''
        :name: VISITNUM
        :notes: |-
          1. Clinical encounter number.
          2. Numeric version of VISIT, used for sorting.
        :controlled_term_or_format: ''
        :compliance:
          :type: http://www.assero.co.uk/BusinessDomain#VariableCompliance
          :id: ''
          :namespace: ''
          :label: Expected
          :extension_properties: []
        :variable_ref:
          :type: http://www.assero.co.uk/BusinessOperational#Reference
          :id: ''
          :namespace: ''
          :label: ''
          :extension_properties: []
          :enabled: true
          :optional: false
          :ordinal: 0
          :local_label: ''
          :subject_ref: 'null'
        :variable_class: Findings
        :variable_domain_prefix: DA
        :variable_name_minus: VISITNUM
        :variable_type: Num
        :variable_classification: Timing
        :variable_sub_classification: Not Applicable
        :variable_prefixed: false
      - :type: http://www.assero.co.uk/BusinessDomain#IgVariable
        :id: ''
        :namespace: ''
        :label: Visit Name
        :extension_properties: []
        :ordinal: '20'
        :rule: ''
        :name: VISIT
        :notes: |-
          1. Protocol-defined description of clinical encounter
          2. May be used in addition to VISITNUM and/or VISITDY
        :controlled_term_or_format: ''
        :compliance:
          :type: http://www.assero.co.uk/BusinessDomain#VariableCompliance
          :id: ''
          :namespace: ''
          :label: Permissible
          :extension_properties: []
        :variable_ref:
          :type: http://www.assero.co.uk/BusinessOperational#Reference
          :id: ''
          :namespace: ''
          :label: ''
          :extension_properties: []
          :enabled: true
          :optional: false
          :ordinal: 0
          :local_label: ''
          :subject_ref: 'null'
        :variable_class: Findings
        :variable_domain_prefix: DA
        :variable_name_minus: VISIT
        :variable_type: Char
        :variable_classification: Timing
        :variable_sub_classification: Not Applicable
        :variable_prefixed: false
      - :type: http://www.assero.co.uk/BusinessDomain#IgVariable
        :id: ''
        :namespace: ''
        :label: Planned Study Day of Visit
        :extension_properties: []
        :ordinal: '21'
        :rule: ''
        :name: VISITDY
        :notes: Planned study day of the visit based upon RFSTDTC in Demographics.
        :controlled_term_or_format: ''
        :compliance:
          :type: http://www.assero.co.uk/BusinessDomain#VariableCompliance
          :id: ''
          :namespace: ''
          :label: Permissible
          :extension_properties: []
        :variable_ref:
          :type: http://www.assero.co.uk/BusinessOperational#Reference
          :id: ''
          :namespace: ''
          :label: ''
          :extension_properties: []
          :enabled: true
          :optional: false
          :ordinal: 0
          :local_label: ''
          :subject_ref: 'null'
        :variable_class: Findings
        :variable_domain_prefix: DA
        :variable_name_minus: VISITDY
        :variable_type: Num
        :variable_classification: Timing
        :variable_sub_classification: Not Applicable
        :variable_prefixed: false
      - :type: http://www.assero.co.uk/BusinessDomain#IgVariable
        :id: ''
        :namespace: ''
        :label: Date/Time of Accountability Assessment
        :extension_properties: []
        :ordinal: '22'
        :rule: ''
        :name: DADTC
        :notes: ''
        :controlled_term_or_format: ISO 8601
        :compliance:
          :type: http://www.assero.co.uk/BusinessDomain#VariableCompliance
          :id: ''
          :namespace: ''
          :label: Expected
          :extension_properties: []
        :variable_ref:
          :type: http://www.assero.co.uk/BusinessOperational#Reference
          :id: ''
          :namespace: ''
          :label: ''
          :extension_properties: []
          :enabled: true
          :optional: false
          :ordinal: 0
          :local_label: ''
          :subject_ref: 'null'
        :variable_class: Findings
        :variable_domain_prefix: DA
        :variable_name_minus: DTC
        :variable_type: Char
        :variable_classification: Timing
        :variable_sub_classification: Not Applicable
        :variable_prefixed: false
      - :type: http://www.assero.co.uk/BusinessDomain#IgVariable
        :id: ''
        :namespace: ''
        :label: Study Day of Accountability Assessment
        :extension_properties: []
        :ordinal: '23'
        :rule: ''
        :name: DADY
        :notes: |-
          1. Study day of drug accountability assessment, measured as integer days.
          2. Algorithm for calculations must be relative to the sponsor-defined RFSTDTC variable in Demographics.
        :controlled_term_or_format: ''
        :compliance:
          :type: http://www.assero.co.uk/BusinessDomain#VariableCompliance
          :id: ''
          :namespace: ''
          :label: Permissible
          :extension_properties: []
        :variable_ref:
          :type: http://www.assero.co.uk/BusinessOperational#Reference
          :id: ''
          :namespace: ''
          :label: ''
          :extension_properties: []
          :enabled: true
          :optional: false
          :ordinal: 0
          :local_label: ''
          :subject_ref: 'null'
        :variable_class: Findings
        :variable_domain_prefix: DA
        :variable_name_minus: DY
        :variable_type: Num
        :variable_classification: Timing
        :variable_sub_classification: Not Applicable
        :variable_prefixed: false
      :domain_class: Findings
- :type: IG_DOMAIN
  :order: 2
  :instance:
    :operation:
      :action: CREATE
      :new_version: '1'
      :new_semantic_version: 0.1.0
      :new_state: Standard
      :identifier_edit: true
    :managed_item:
      :type: ''
      :id: ''
      :namespace: ''
      :label: Death Diagnosis
      :extension_properties: []
      :origin: ''
      :change_description: ''
      :creation_date: '2017-01-01'
      :last_changed_date: '2017-10-19T19:08:53+01:00'
      :explanatory_comment: ''
      :registration_state:
        :namespace: http://www.assero.co.uk/MDRItems
        :id: ''
        :registration_authority:
          :id: ''
          :number: "<Not Set>"
          :scheme: DUNS
          :owner: false
          :namespace:
            :namespace: ''
            :id: ''
            :name: ''
            :shortName: ''
        :registration_status: Not_Set
        :administrative_note: ''
        :effective_date: '2016-01-01T00:00:00+00:00'
        :until_date: '2016-01-01T00:00:00+00:00'
        :current: false
        :unresolved_issue: ''
        :administrative_status: ''
        :previous_state: Not_Set
      :scoped_identifier:
        :id: ''
        :identifier: SDTM IG DD
        :version_label: Version Label
        :version: 0
        :semantic_version: 0.0.0
        :namespace:
          :namespace: ''
          :id: ''
          :name: ''
          :shortName: ''
      :ordinal: 1
      :rule: ''
      :prefix: DD
      :structure: 
      :model_ref:
        :type: http://www.assero.co.uk/BusinessOperational#Reference
        :id: ''
        :namespace: ''
        :label: ''
        :extension_properties: []
        :enabled: true
        :optional: false
        :ordinal: 0
        :local_label: ''
        :subject_ref: 'null'
      :children:
      - :type: http://www.assero.co.uk/BusinessDomain#IgVariable
        :id: ''
        :namespace: ''
        :label: Study Identifier
        :extension_properties: []
        :ordinal: '1'
        :rule: ''
        :name: STUDYID
        :notes: Unique identifier for a study.
        :controlled_term_or_format: ''
        :compliance:
          :type: http://www.assero.co.uk/BusinessDomain#VariableCompliance
          :id: ''
          :namespace: ''
          :label: Required
          :extension_properties: []
        :variable_ref:
          :type: http://www.assero.co.uk/BusinessOperational#Reference
          :id: ''
          :namespace: ''
          :label: ''
          :extension_properties: []
          :enabled: true
          :optional: false
          :ordinal: 0
          :local_label: ''
          :subject_ref: 'null'
        :variable_class: Findings
        :variable_domain_prefix: DD
        :variable_name_minus: STUDYID
        :variable_type: Char
        :variable_classification: Identifier
        :variable_sub_classification: Not Applicable
        :variable_prefixed: false
      - :type: http://www.assero.co.uk/BusinessDomain#IgVariable
        :id: ''
        :namespace: ''
        :label: Domain Abbreviation
        :extension_properties: []
        :ordinal: '2'
        :rule: ''
        :name: DOMAIN
        :notes: Two-character abbreviation for the domain.
        :controlled_term_or_format: "(DOMAIN)"
        :compliance:
          :type: http://www.assero.co.uk/BusinessDomain#VariableCompliance
          :id: ''
          :namespace: ''
          :label: Required
          :extension_properties: []
        :variable_ref:
          :type: http://www.assero.co.uk/BusinessOperational#Reference
          :id: ''
          :namespace: ''
          :label: ''
          :extension_properties: []
          :enabled: true
          :optional: false
          :ordinal: 0
          :local_label: ''
          :subject_ref: 'null'
        :variable_class: Findings
        :variable_domain_prefix: DD
        :variable_name_minus: DOMAIN
        :variable_type: Char
        :variable_classification: Identifier
        :variable_sub_classification: Not Applicable
        :variable_prefixed: false
      - :type: http://www.assero.co.uk/BusinessDomain#IgVariable
        :id: ''
        :namespace: ''
        :label: Unique Subject Identifier
        :extension_properties: []
        :ordinal: '3'
        :rule: ''
        :name: USUBJID
        :notes: Identifier used to uniquely identify a subject across all studies
          for all applications or submissions involving the product.
        :controlled_term_or_format: ''
        :compliance:
          :type: http://www.assero.co.uk/BusinessDomain#VariableCompliance
          :id: ''
          :namespace: ''
          :label: Required
          :extension_properties: []
        :variable_ref:
          :type: http://www.assero.co.uk/BusinessOperational#Reference
          :id: ''
          :namespace: ''
          :label: ''
          :extension_properties: []
          :enabled: true
          :optional: false
          :ordinal: 0
          :local_label: ''
          :subject_ref: 'null'
        :variable_class: Findings
        :variable_domain_prefix: DD
        :variable_name_minus: USUBJID
        :variable_type: Char
        :variable_classification: Identifier
        :variable_sub_classification: Not Applicable
        :variable_prefixed: false
      - :type: http://www.assero.co.uk/BusinessDomain#IgVariable
        :id: ''
        :namespace: ''
        :label: Sequence Number
        :extension_properties: []
        :ordinal: '4'
        :rule: ''
        :name: DDSEQ
        :notes: Sequence number given to ensure uniqueness of subject records within
          a domain. May be any valid number.
        :controlled_term_or_format: ''
        :compliance:
          :type: http://www.assero.co.uk/BusinessDomain#VariableCompliance
          :id: ''
          :namespace: ''
          :label: Required
          :extension_properties: []
        :variable_ref:
          :type: http://www.assero.co.uk/BusinessOperational#Reference
          :id: ''
          :namespace: ''
          :label: ''
          :extension_properties: []
          :enabled: true
