---
:type: http://www.assero.co.uk/BusinessDomain#IgDomain
:id: IG-CDISC_SDTMIGPR
:namespace: http://www.assero.co.uk/MDRSdtmIgD/CDISC/V3
:label: Procedure
:extension_properties: []
:origin: ''
:change_description: ''
:creation_date: '2013-11-26T00:00:00+00:00'
:last_changed_date: '2016-09-02T23:34:00+01:00'
:explanatory_comment: ''
:registration_state:
  :namespace: http://www.assero.co.uk/MDRItems
  :id: RS-CDISC_SDTMIGPR-3
  :registration_authority:
    :uri: {}
    :rdf_type: http://www.assero.co.uk/ISO11179Registration#RegistrationAuthority
    :organization_identifier: "<Not Set>"
    :international_code_designator: DUNS
    :owner: false
    :ra_namespace: {}
  :registration_status: Standard
  :administrative_note: ''
  :effective_date: '2016-01-01T00:00:00Z'
  :until_date: '2016-01-01T00:00:00Z'
  :current: false
  :unresolved_issue: ''
  :administrative_status: ''
  :previous_state: Standard
:scoped_identifier:
  :id: SI-CDISC_SDTMIGPR-3
  :identifier: SDTM IG PR
  :version_label: '3.2'
  :version: 3
  :semantic_version: 0.0.0
  :namespace:
    :uri: {}
    :rdf_type: http://www.assero.co.uk/ISO11179Identification#Namespace
    :short_name: CDISC
    :name: Clinical Data Interchange Standards Consortium
    :authority: ''
:ordinal: 0
:rule: ''
:prefix: PR
:structure: ''
:model_ref:
  :type: http://www.assero.co.uk/BusinessOperational#TReference
  :id: IG-CDISC_SDTMIGPR_CLR
  :namespace: http://www.assero.co.uk/MDRSdtmIgD/CDISC/V3
  :label: ''
  :extension_properties: []
  :enabled: true
  :optional: false
  :ordinal: 1
  :local_label: ''
  :subject_ref:
    :namespace: http://www.assero.co.uk/MDRSdtmMd/CDISC/V3
    :id: M-CDISC_SDTMMODEL_INTERVENTIONS
:children:
- :type: http://www.assero.co.uk/BusinessDomain#IgVariable
  :id: IG-CDISC_SDTMIGPR_STUDYID
  :namespace: http://www.assero.co.uk/MDRSdtmIgD/CDISC/V3
  :label: Study Identifier
  :extension_properties: []
  :ordinal: 1
  :rule: ''
  :name: STUDYID
  :notes: Unique identifier for a study.
  :controlled_term_or_format: ''
  :compliance:
    :type: http://www.assero.co.uk/BusinessDomain#VariableCompliance
    :id: IG-CDISC_SDTMIGPR_C_REQUIRED
    :namespace: http://www.assero.co.uk/MDRSdtmIgD/CDISC/V3
    :label: Required
    :extension_properties: []
  :variable_ref:
    :type: http://www.assero.co.uk/BusinessOperational#CReference
    :id: IG-CDISC_SDTMIGPR_STUDYID_VR
    :namespace: http://www.assero.co.uk/MDRSdtmIgD/CDISC/V3
    :label: ''
    :extension_properties: []
    :enabled: true
    :optional: false
    :ordinal: 1
    :local_label: ''
    :subject_ref:
      :namespace: http://www.assero.co.uk/MDRSdtmMd/CDISC/V3
      :id: M-CDISC_SDTMMODEL_INTERVENTIONS_STUDYID
- :type: http://www.assero.co.uk/BusinessDomain#IgVariable
  :id: IG-CDISC_SDTMIGPR_DOMAIN
  :namespace: http://www.assero.co.uk/MDRSdtmIgD/CDISC/V3
  :label: Domain Abbreviation
  :extension_properties: []
  :ordinal: 2
  :rule: ''
  :name: DOMAIN
  :notes: Two-character abbreviation for the domain.
  :controlled_term_or_format: "(DOMAIN)"
  :compliance:
    :type: http://www.assero.co.uk/BusinessDomain#VariableCompliance
    :id: IG-CDISC_SDTMIGPR_C_REQUIRED
    :namespace: http://www.assero.co.uk/MDRSdtmIgD/CDISC/V3
    :label: Required
    :extension_properties: []
  :variable_ref:
    :type: http://www.assero.co.uk/BusinessOperational#CReference
    :id: IG-CDISC_SDTMIGPR_DOMAIN_VR
    :namespace: http://www.assero.co.uk/MDRSdtmIgD/CDISC/V3
    :label: ''
    :extension_properties: []
    :enabled: true
    :optional: false
    :ordinal: 1
    :local_label: ''
    :subject_ref:
      :namespace: http://www.assero.co.uk/MDRSdtmMd/CDISC/V3
      :id: M-CDISC_SDTMMODEL_INTERVENTIONS_DOMAIN
- :type: http://www.assero.co.uk/BusinessDomain#IgVariable
  :id: IG-CDISC_SDTMIGPR_USUBJID
  :namespace: http://www.assero.co.uk/MDRSdtmIgD/CDISC/V3
  :label: Unique Subject Identifier
  :extension_properties: []
  :ordinal: 3
  :rule: ''
  :name: USUBJID
  :notes: Identifier used to uniquely identify a subject across all studies for all
    applications or submissions involving the product.
  :controlled_term_or_format: ''
  :compliance:
    :type: http://www.assero.co.uk/BusinessDomain#VariableCompliance
    :id: IG-CDISC_SDTMIGPR_C_REQUIRED
    :namespace: http://www.assero.co.uk/MDRSdtmIgD/CDISC/V3
    :label: Required
    :extension_properties: []
  :variable_ref:
    :type: http://www.assero.co.uk/BusinessOperational#CReference
    :id: IG-CDISC_SDTMIGPR_USUBJID_VR
    :namespace: http://www.assero.co.uk/MDRSdtmIgD/CDISC/V3
    :label: ''
    :extension_properties: []
    :enabled: true
    :optional: false
    :ordinal: 1
    :local_label: ''
    :subject_ref:
      :namespace: http://www.assero.co.uk/MDRSdtmMd/CDISC/V3
      :id: M-CDISC_SDTMMODEL_INTERVENTIONS_USUBJID
- :type: http://www.assero.co.uk/BusinessDomain#IgVariable
  :id: IG-CDISC_SDTMIGPR_PRSEQ
  :namespace: http://www.assero.co.uk/MDRSdtmIgD/CDISC/V3
  :label: Sequence Number
  :extension_properties: []
  :ordinal: 4
  :rule: ''
  :name: PRSEQ
  :notes: Sequence number to ensure uniqueness of records within a dataset for a subject.
    Should be assigned to be in a consistent chronological order.
  :controlled_term_or_format: ''
  :compliance:
    :type: http://www.assero.co.uk/BusinessDomain#VariableCompliance
    :id: IG-CDISC_SDTMIGPR_C_REQUIRED
    :namespace: http://www.assero.co.uk/MDRSdtmIgD/CDISC/V3
    :label: Required
    :extension_properties: []
  :variable_ref:
    :type: http://www.assero.co.uk/BusinessOperational#CReference
    :id: IG-CDISC_SDTMIGPR_PRSEQ_VR
    :namespace: http://www.assero.co.uk/MDRSdtmIgD/CDISC/V3
    :label: ''
    :extension_properties: []
    :enabled: true
    :optional: false
    :ordinal: 1
    :local_label: ''
    :subject_ref:
      :namespace: http://www.assero.co.uk/MDRSdtmMd/CDISC/V3
      :id: M-CDISC_SDTMMODEL_INTERVENTIONS_xxSEQ
- :type: http://www.assero.co.uk/BusinessDomain#IgVariable
  :id: IG-CDISC_SDTMIGPR_PRGRPID
  :namespace: http://www.assero.co.uk/MDRSdtmIgD/CDISC/V3
  :label: Group ID
  :extension_properties: []
  :ordinal: 5
  :rule: ''
  :name: PRGRPID
  :notes: Used to link together a block of related records within a subject in a domain.
  :controlled_term_or_format: ''
  :compliance:
    :type: http://www.assero.co.uk/BusinessDomain#VariableCompliance
    :id: IG-CDISC_SDTMIGPR_C_PERMISSIBLE
    :namespace: http://www.assero.co.uk/MDRSdtmIgD/CDISC/V3
    :label: Permissible
    :extension_properties: []
  :variable_ref:
    :type: http://www.assero.co.uk/BusinessOperational#CReference
    :id: IG-CDISC_SDTMIGPR_PRGRPID_VR
    :namespace: http://www.assero.co.uk/MDRSdtmIgD/CDISC/V3
    :label: ''
    :extension_properties: []
    :enabled: true
    :optional: false
    :ordinal: 1
    :local_label: ''
    :subject_ref:
      :namespace: http://www.assero.co.uk/MDRSdtmMd/CDISC/V3
      :id: M-CDISC_SDTMMODEL_INTERVENTIONS_xxGRPID
- :type: http://www.assero.co.uk/BusinessDomain#IgVariable
  :id: IG-CDISC_SDTMIGPR_PRSPID
  :namespace: http://www.assero.co.uk/MDRSdtmIgD/CDISC/V3
  :label: Sponsor-Defined Identifier
  :extension_properties: []
  :ordinal: 6
  :rule: ''
  :name: PRSPID
  :notes: 'Sponsor-defined identifier. Example: pre-printed line identifier on a CRF
    or record identifier defined in the sponsor’s operational database.'
  :controlled_term_or_format: ''
  :compliance:
    :type: http://www.assero.co.uk/BusinessDomain#VariableCompliance
    :id: IG-CDISC_SDTMIGPR_C_PERMISSIBLE
    :namespace: http://www.assero.co.uk/MDRSdtmIgD/CDISC/V3
    :label: Permissible
    :extension_properties: []
  :variable_ref:
    :type: http://www.assero.co.uk/BusinessOperational#CReference
    :id: IG-CDISC_SDTMIGPR_PRSPID_VR
    :namespace: http://www.assero.co.uk/MDRSdtmIgD/CDISC/V3
    :label: ''
    :extension_properties: []
    :enabled: true
    :optional: false
    :ordinal: 1
    :local_label: ''
    :subject_ref:
      :namespace: http://www.assero.co.uk/MDRSdtmMd/CDISC/V3
      :id: M-CDISC_SDTMMODEL_INTERVENTIONS_xxSPID
- :type: http://www.assero.co.uk/BusinessDomain#IgVariable
  :id: IG-CDISC_SDTMIGPR_PRLNKID
  :namespace: http://www.assero.co.uk/MDRSdtmIgD/CDISC/V3
  :label: Link ID
  :extension_properties: []
  :ordinal: 7
  :rule: ''
  :name: PRLNKID
  :notes: Used to facilitate identification of relationships between records.
  :controlled_term_or_format: ''
  :compliance:
    :type: http://www.assero.co.uk/BusinessDomain#VariableCompliance
    :id: IG-CDISC_SDTMIGPR_C_PERMISSIBLE
    :namespace: http://www.assero.co.uk/MDRSdtmIgD/CDISC/V3
    :label: Permissible
    :extension_properties: []
  :variable_ref:
    :type: http://www.assero.co.uk/BusinessOperational#CReference
    :id: IG-CDISC_SDTMIGPR_PRLNKID_VR
    :namespace: http://www.assero.co.uk/MDRSdtmIgD/CDISC/V3
    :label: ''
    :extension_properties: []
    :enabled: true
    :optional: false
    :ordinal: 1
    :local_label: ''
    :subject_ref:
      :namespace: http://www.assero.co.uk/MDRSdtmMd/CDISC/V3
      :id: M-CDISC_SDTMMODEL_INTERVENTIONS_xxLNKID
- :type: http://www.assero.co.uk/BusinessDomain#IgVariable
  :id: IG-CDISC_SDTMIGPR_PRLNKGRP
  :namespace: http://www.assero.co.uk/MDRSdtmIgD/CDISC/V3
  :label: Link Group ID
  :extension_properties: []
  :ordinal: 8
  :rule: ''
  :name: PRLNKGRP
  :notes: Used to facilitate identification of relationships between records.
  :controlled_term_or_format: ''
  :compliance:
    :type: http://www.assero.co.uk/BusinessDomain#VariableCompliance
    :id: IG-CDISC_SDTMIGPR_C_PERMISSIBLE
    :namespace: http://www.assero.co.uk/MDRSdtmIgD/CDISC/V3
    :label: Permissible
    :extension_properties: []
  :variable_ref:
    :type: http://www.assero.co.uk/BusinessOperational#CReference
    :id: IG-CDISC_SDTMIGPR_PRLNKGRP_VR
    :namespace: http://www.assero.co.uk/MDRSdtmIgD/CDISC/V3
    :label: ''
    :extension_properties: []
    :enabled: true
    :optional: false
    :ordinal: 1
    :local_label: ''
    :subject_ref:
      :namespace: http://www.assero.co.uk/MDRSdtmMd/CDISC/V3
      :id: M-CDISC_SDTMMODEL_INTERVENTIONS_xxLNKGRP
- :type: http://www.assero.co.uk/BusinessDomain#IgVariable
  :id: IG-CDISC_SDTMIGPR_PRTRT
  :namespace: http://www.assero.co.uk/MDRSdtmIgD/CDISC/V3
  :label: Reported Name of Procedure
  :extension_properties: []
  :ordinal: 9
  :rule: ''
  :name: PRTRT
  :notes: Name of procedure performed, either pre-printed or collected on a CRF.
  :controlled_term_or_format: ''
  :compliance:
    :type: http://www.assero.co.uk/BusinessDomain#VariableCompliance
    :id: IG-CDISC_SDTMIGPR_C_REQUIRED
    :namespace: http://www.assero.co.uk/MDRSdtmIgD/CDISC/V3
    :label: Required
    :extension_properties: []
  :variable_ref:
    :type: http://www.assero.co.uk/BusinessOperational#CReference
    :id: IG-CDISC_SDTMIGPR_PRTRT_VR
    :namespace: http://www.assero.co.uk/MDRSdtmIgD/CDISC/V3
    :label: ''
    :extension_properties: []
    :enabled: true
    :optional: false
    :ordinal: 1
    :local_label: ''
    :subject_ref:
      :namespace: http://www.assero.co.uk/MDRSdtmMd/CDISC/V3
      :id: M-CDISC_SDTMMODEL_INTERVENTIONS_xxTRT
- :type: http://www.assero.co.uk/BusinessDomain#IgVariable
  :id: IG-CDISC_SDTMIGPR_PRDECOD
  :namespace: http://www.assero.co.uk/MDRSdtmIgD/CDISC/V3
  :label: Standardized Procedure Name
  :extension_properties: []
  :ordinal: 10
  :rule: ''
  :name: PRDECOD
  :notes: Standardized or dictionary-derived name of PRTRT. The sponsor is expected
    to provide the dictionary name and version used to map the terms in the define.xml
    external codelist attributes. If an intervention term does not have a decode value
    in the dictionary then PRDECOD will be null.
  :controlled_term_or_format: ''
  :compliance:
    :type: http://www.assero.co.uk/BusinessDomain#VariableCompliance
    :id: IG-CDISC_SDTMIGPR_C_PERMISSIBLE
    :namespace: http://www.assero.co.uk/MDRSdtmIgD/CDISC/V3
    :label: Permissible
    :extension_properties: []
  :variable_ref:
    :type: http://www.assero.co.uk/BusinessOperational#CReference
    :id: IG-CDISC_SDTMIGPR_PRDECOD_VR
    :namespace: http://www.assero.co.uk/MDRSdtmIgD/CDISC/V3
    :label: ''
    :extension_properties: []
    :enabled: true
    :optional: false
    :ordinal: 1
    :local_label: ''
    :subject_ref:
      :namespace: http://www.assero.co.uk/MDRSdtmMd/CDISC/V3
      :id: M-CDISC_SDTMMODEL_INTERVENTIONS_xxDECOD
- :type: http://www.assero.co.uk/BusinessDomain#IgVariable
  :id: IG-CDISC_SDTMIGPR_PRCAT
  :namespace: http://www.assero.co.uk/MDRSdtmIgD/CDISC/V3
  :label: Category
  :extension_properties: []
  :ordinal: 11
  :rule: ''
  :name: PRCAT
  :notes: Used to define a category of procedure values.
  :controlled_term_or_format: ''
  :compliance:
    :type: http://www.assero.co.uk/BusinessDomain#VariableCompliance
    :id: IG-CDISC_SDTMIGPR_C_PERMISSIBLE
    :namespace: http://www.assero.co.uk/MDRSdtmIgD/CDISC/V3
    :label: Permissible
    :extension_properties: []
  :variable_ref:
    :type: http://www.assero.co.uk/BusinessOperational#CReference
    :id: IG-CDISC_SDTMIGPR_PRCAT_VR
    :namespace: http://www.assero.co.uk/MDRSdtmIgD/CDISC/V3
    :label: ''
    :extension_properties: []
    :enabled: true
    :optional: false
    :ordinal: 1
    :local_label: ''
    :subject_ref:
      :namespace: http://www.assero.co.uk/MDRSdtmMd/CDISC/V3
      :id: M-CDISC_SDTMMODEL_INTERVENTIONS_xxCAT
- :type: http://www.assero.co.uk/BusinessDomain#IgVariable
  :id: IG-CDISC_SDTMIGPR_PRSCAT
  :namespace: http://www.assero.co.uk/MDRSdtmIgD/CDISC/V3
  :label: Subcategory
  :extension_properties: []
  :ordinal: 12
  :rule: ''
  :name: PRSCAT
  :notes: Used to define a further categorization of PRCAT values.
  :controlled_term_or_format: ''
  :compliance:
    :type: http://www.assero.co.uk/BusinessDomain#VariableCompliance
    :id: IG-CDISC_SDTMIGPR_C_PERMISSIBLE
    :namespace: http://www.assero.co.uk/MDRSdtmIgD/CDISC/V3
    :label: Permissible
    :extension_properties: []
  :variable_ref:
    :type: http://www.assero.co.uk/BusinessOperational#CReference
    :id: IG-CDISC_SDTMIGPR_PRSCAT_VR
    :namespace: http://www.assero.co.uk/MDRSdtmIgD/CDISC/V3
    :label: ''
    :extension_properties: []
    :enabled: true
    :optional: false
    :ordinal: 1
    :local_label: ''
    :subject_ref:
      :namespace: http://www.assero.co.uk/MDRSdtmMd/CDISC/V3
      :id: M-CDISC_SDTMMODEL_INTERVENTIONS_xxSCAT
- :type: http://www.assero.co.uk/BusinessDomain#IgVariable
  :id: IG-CDISC_SDTMIGPR_PRPRESP
  :namespace: http://www.assero.co.uk/MDRSdtmIgD/CDISC/V3
  :label: Pre-specified
  :extension_properties: []
  :ordinal: 13
  :rule: ''
  :name: PRPRESP
  :notes: Used when a specific procedure is pre-specified on a CRF. Values should
    be “Y” or null.
  :controlled_term_or_format: "(NY)"
  :compliance:
    :type: http://www.assero.co.uk/BusinessDomain#VariableCompliance
    :id: IG-CDISC_SDTMIGPR_C_PERMISSIBLE
    :namespace: http://www.assero.co.uk/MDRSdtmIgD/CDISC/V3
    :label: Permissible
    :extension_properties: []
  :variable_ref:
    :type: http://www.assero.co.uk/BusinessOperational#CReference
    :id: IG-CDISC_SDTMIGPR_PRPRESP_VR
    :namespace: http://www.assero.co.uk/MDRSdtmIgD/CDISC/V3
    :label: ''
    :extension_properties: []
    :enabled: true
    :optional: false
    :ordinal: 1
    :local_label: ''
    :subject_ref:
      :namespace: http://www.assero.co.uk/MDRSdtmMd/CDISC/V3
      :id: M-CDISC_SDTMMODEL_INTERVENTIONS_xxPRESP
- :type: http://www.assero.co.uk/BusinessDomain#IgVariable
  :id: IG-CDISC_SDTMIGPR_PROCCUR
  :namespace: http://www.assero.co.uk/MDRSdtmIgD/CDISC/V3
  :label: Occurrence
  :extension_properties: []
  :ordinal: 14
  :rule: ''
  :name: PROCCUR
  :notes: Used to record whether a pre-specified procedure occurred when information
    about the occurrence of a specific procedure is solicited.
  :controlled_term_or_format: "(NY)"
  :compliance:
    :type: http://www.assero.co.uk/BusinessDomain#VariableCompliance
    :id: IG-CDISC_SDTMIGPR_C_PERMISSIBLE
    :namespace: http://www.assero.co.uk/MDRSdtmIgD/CDISC/V3
    :label: Permissible
    :extension_properties: []
  :variable_ref:
    :type: http://www.assero.co.uk/BusinessOperational#CReference
    :id: IG-CDISC_SDTMIGPR_PROCCUR_VR
    :namespace: http://www.assero.co.uk/MDRSdtmIgD/CDISC/V3
    :label: ''
    :extension_properties: []
    :enabled: true
    :optional: false
    :ordinal: 1
    :local_label: ''
    :subject_ref:
      :namespace: http://www.assero.co.uk/MDRSdtmMd/CDISC/V3
      :id: M-CDISC_SDTMMODEL_INTERVENTIONS_xxOCCUR
- :type: http://www.assero.co.uk/BusinessDomain#IgVariable
  :id: IG-CDISC_SDTMIGPR_PRINDC
  :namespace: http://www.assero.co.uk/MDRSdtmIgD/CDISC/V3
  :label: Indication
  :extension_properties: []
  :ordinal: 15
  :rule: ''
  :name: PRINDC
  :notes: Denotes the indication for the procedure (e.g., why the procedure was performed).
  :controlled_term_or_format: ''
  :compliance:
    :type: http://www.assero.co.uk/BusinessDomain#VariableCompliance
    :id: IG-CDISC_SDTMIGPR_C_PERMISSIBLE
    :namespace: http://www.assero.co.uk/MDRSdtmIgD/CDISC/V3
    :label: Permissible
    :extension_properties: []
  :variable_ref:
    :type: http://www.assero.co.uk/BusinessOperational#CReference
    :id: IG-CDISC_SDTMIGPR_PRINDC_VR
    :namespace: http://www.assero.co.uk/MDRSdtmIgD/CDISC/V3
    :label: ''
    :extension_properties: []
    :enabled: true
    :optional: false
    :ordinal: 1
    :local_label: ''
    :subject_ref:
      :namespace: http://www.assero.co.uk/MDRSdtmMd/CDISC/V3
      :id: M-CDISC_SDTMMODEL_INTERVENTIONS_xxINDC
- :type: http://www.assero.co.uk/BusinessDomain#IgVariable
  :id: IG-CDISC_SDTMIGPR_PRDOSE
  :namespace: http://www.assero.co.uk/MDRSdtmIgD/CDISC/V3
  :label: Dose
  :extension_properties: []
  :ordinal: 16
  :rule: ''
  :name: PRDOSE
  :notes: Amount of PRTRT administered. Not populated when PRDOSTXT is populated.
  :controlled_term_or_format: ''
  :compliance:
    :type: http://www.assero.co.uk/BusinessDomain#VariableCompliance
    :id: IG-CDISC_SDTMIGPR_C_PERMISSIBLE
    :namespace: http://www.assero.co.uk/MDRSdtmIgD/CDISC/V3
    :label: Permissible
    :extension_properties: []
  :variable_ref:
    :type: http://www.assero.co.uk/BusinessOperational#CReference
    :id: IG-CDISC_SDTMIGPR_PRDOSE_VR
    :namespace: http://www.assero.co.uk/MDRSdtmIgD/CDISC/V3
    :label: ''
    :extension_properties: []
    :enabled: true
    :optional: false
    :ordinal: 1
    :local_label: ''
    :subject_ref:
      :namespace: http://www.assero.co.uk/MDRSdtmMd/CDISC/V3
      :id: M-CDISC_SDTMMODEL_INTERVENTIONS_xxDOSE
- :type: http://www.assero.co.uk/BusinessDomain#IgVariable
  :id: IG-CDISC_SDTMIGPR_PRDOSTXT
  :namespace: http://www.assero.co.uk/MDRSdtmIgD/CDISC/V3
  :label: Dose Description
  :extension_properties: []
  :ordinal: 17
  :rule: ''
  :name: PRDOSTXT
  :notes: 'Dosing information collected in text form. Examples: <1, 200-400. Not populated
    when PRDOSE is populated.'
  :controlled_term_or_format: ''
  :compliance:
    :type: http://www.assero.co.uk/BusinessDomain#VariableCompliance
    :id: IG-CDISC_SDTMIGPR_C_PERMISSIBLE
    :namespace: http://www.assero.co.uk/MDRSdtmIgD/CDISC/V3
    :label: Permissible
    :extension_properties: []
  :variable_ref:
    :type: http://www.assero.co.uk/BusinessOperational#CReference
    :id: IG-CDISC_SDTMIGPR_PRDOSTXT_VR
    :namespace: http://www.assero.co.uk/MDRSdtmIgD/CDISC/V3
    :label: ''
    :extension_properties: []
    :enabled: true
    :optional: false
    :ordinal: 1
    :local_label: ''
    :subject_ref:
      :namespace: http://www.assero.co.uk/MDRSdtmMd/CDISC/V3
      :id: M-CDISC_SDTMMODEL_INTERVENTIONS_xxDOSTXT
- :type: http://www.assero.co.uk/BusinessDomain#IgVariable
  :id: IG-CDISC_SDTMIGPR_PRDOSU
  :namespace: http://www.assero.co.uk/MDRSdtmIgD/CDISC/V3
  :label: Dose Units
  :extension_properties: []
  :ordinal: 18
  :rule: ''
  :name: PRDOSU
  :notes: Units for PRDOSE, PRDOSTOT, or PRDOSTXT.
  :controlled_term_or_format: "(UNIT)"
  :compliance:
    :type: http://www.assero.co.uk/BusinessDomain#VariableCompliance
    :id: IG-CDISC_SDTMIGPR_C_PERMISSIBLE
    :namespace: http://www.assero.co.uk/MDRSdtmIgD/CDISC/V3
    :label: Permissible
    :extension_properties: []
  :variable_ref:
    :type: http://www.assero.co.uk/BusinessOperational#CReference
    :id: IG-CDISC_SDTMIGPR_PRDOSU_VR
    :namespace: http://www.assero.co.uk/MDRSdtmIgD/CDISC/V3
    :label: ''
    :extension_properties: []
    :enabled: true
    :optional: false
    :ordinal: 1
    :local_label: ''
    :subject_ref:
      :namespace: http://www.assero.co.uk/MDRSdtmMd/CDISC/V3
      :id: M-CDISC_SDTMMODEL_INTERVENTIONS_xxDOSU
- :type: http://www.assero.co.uk/BusinessDomain#IgVariable
  :id: IG-CDISC_SDTMIGPR_PRDOSFRM
  :namespace: http://www.assero.co.uk/MDRSdtmIgD/CDISC/V3
  :label: Dose Form
  :extension_properties: []
  :ordinal: 19
  :rule: ''
  :name: PRDOSFRM
  :notes: Dose form for PRTRT.
  :controlled_term_or_format: "(FRM)"
  :compliance:
    :type: http://www.assero.co.uk/BusinessDomain#VariableCompliance
    :id: IG-CDISC_SDTMIGPR_C_PERMISSIBLE
    :namespace: http://www.assero.co.uk/MDRSdtmIgD/CDISC/V3
    :label: Permissible
    :extension_properties: []
  :variable_ref:
    :type: http://www.assero.co.uk/BusinessOperational#CReference
    :id: IG-CDISC_SDTMIGPR_PRDOSFRM_VR
    :namespace: http://www.assero.co.uk/MDRSdtmIgD/CDISC/V3
    :label: ''
    :extension_properties: []
    :enabled: true
    :optional: false
    :ordinal: 1
    :local_label: ''
    :subject_ref:
      :namespace: http://www.assero.co.uk/MDRSdtmMd/CDISC/V3
      :id: M-CDISC_SDTMMODEL_INTERVENTIONS_xxDOSFRM
- :type: http://www.assero.co.uk/BusinessDomain#IgVariable
  :id: IG-CDISC_SDTMIGPR_PRDOSFRQ
  :namespace: http://www.assero.co.uk/MDRSdtmIgD/CDISC/V3
  :label: Dosing Frequency per Interval
  :extension_properties: []
  :ordinal: 20
  :rule: ''
  :name: PRDOSFRQ
  :notes: Usually expressed as the number of doses given per a specific interval.
  :controlled_term_or_format: "(FRQ)"
  :compliance:
    :type: http://www.assero.co.uk/BusinessDomain#VariableCompliance
    :id: IG-CDISC_SDTMIGPR_C_PERMISSIBLE
    :namespace: http://www.assero.co.uk/MDRSdtmIgD/CDISC/V3
    :label: Permissible
    :extension_properties: []
  :variable_ref:
    :type: http://www.assero.co.uk/BusinessOperational#CReference
    :id: IG-CDISC_SDTMIGPR_PRDOSFRQ_VR
    :namespace: http://www.assero.co.uk/MDRSdtmIgD/CDISC/V3
    :label: ''
    :extension_properties: []
    :enabled: true
    :optional: false
    :ordinal: 1
    :local_label: ''
    :subject_ref:
      :namespace: http://www.assero.co.uk/MDRSdtmMd/CDISC/V3
      :id: M-CDISC_SDTMMODEL_INTERVENTIONS_xxDOSFRQ
- :type: http://www.assero.co.uk/BusinessDomain#IgVariable
  :id: IG-CDISC_SDTMIGPR_PRDOSRGM
  :namespace: http://www.assero.co.uk/MDRSdtmIgD/CDISC/V3
  :label: Intended Dose Regimen
  :extension_properties: []
  :ordinal: 21
  :rule: ''
  :name: PRDOSRGM
  :notes: Text description of the intended schedule or regimen for the procedure.
  :controlled_term_or_format: ''
  :compliance:
    :type: http://www.assero.co.uk/BusinessDomain#VariableCompliance
    :id: IG-CDISC_SDTMIGPR_C_PERMISSIBLE
    :namespace: http://www.assero.co.uk/MDRSdtmIgD/CDISC/V3
    :label: Permissible
    :extension_properties: []
  :variable_ref:
    :type: http://www.assero.co.uk/BusinessOperational#CReference
    :id: IG-CDISC_SDTMIGPR_PRDOSRGM_VR
    :namespace: http://www.assero.co.uk/MDRSdtmIgD/CDISC/V3
    :label: ''
    :extension_properties: []
    :enabled: true
    :optional: false
    :ordinal: 1
    :local_label: ''
    :subject_ref:
      :namespace: http://www.assero.co.uk/MDRSdtmMd/CDISC/V3
      :id: M-CDISC_SDTMMODEL_INTERVENTIONS_xxDOSRGM
- :type: http://www.assero.co.uk/BusinessDomain#IgVariable
  :id: IG-CDISC_SDTMIGPR_PRROUTE
  :namespace: http://www.assero.co.uk/MDRSdtmIgD/CDISC/V3
  :label: Route of Administration
  :extension_properties: []
  :ordinal: 22
  :rule: ''
  :name: PRROUTE
  :notes: Route of administration for PRTRT.
  :controlled_term_or_format: "(ROUTE)"
  :compliance:
    :type: http://www.assero.co.uk/BusinessDomain#VariableCompliance
    :id: IG-CDISC_SDTMIGPR_C_PERMISSIBLE
    :namespace: http://www.assero.co.uk/MDRSdtmIgD/CDISC/V3
    :label: Permissible
    :extension_properties: []
  :variable_ref:
    :type: http://www.assero.co.uk/BusinessOperational#CReference
    :id: IG-CDISC_SDTMIGPR_PRROUTE_VR
    :namespace: http://www.assero.co.uk/MDRSdtmIgD/CDISC/V3
    :label: ''
    :extension_properties: []
    :enabled: true
    :optional: false
    :ordinal: 1
    :local_label: ''
    :subject_ref:
      :namespace: http://www.assero.co.uk/MDRSdtmMd/CDISC/V3
      :id: M-CDISC_SDTMMODEL_INTERVENTIONS_xxROUTE
- :type: http://www.assero.co.uk/BusinessDomain#IgVariable
  :id: IG-CDISC_SDTMIGPR_PRLOC
  :namespace: http://www.assero.co.uk/MDRSdtmIgD/CDISC/V3
  :label: Location of Procedure
  :extension_properties: []
  :ordinal: 23
  :rule: ''
  :name: PRLOC
  :notes: Anatomical location of a procedure.
  :controlled_term_or_format: "(LOC)"
  :compliance:
    :type: http://www.assero.co.uk/BusinessDomain#VariableCompliance
    :id: IG-CDISC_SDTMIGPR_C_PERMISSIBLE
    :namespace: http://www.assero.co.uk/MDRSdtmIgD/CDISC/V3
    :label: Permissible
    :extension_properties: []
  :variable_ref:
    :type: http://www.assero.co.uk/BusinessOperational#CReference
    :id: IG-CDISC_SDTMIGPR_PRLOC_VR
    :namespace: http://www.assero.co.uk/MDRSdtmIgD/CDISC/V3
    :label: ''
    :extension_properties: []
    :enabled: true
    :optional: false
    :ordinal: 1
    :local_label: ''
    :subject_ref:
      :namespace: http://www.assero.co.uk/MDRSdtmMd/CDISC/V3
      :id: M-CDISC_SDTMMODEL_INTERVENTIONS_xxLOC
- :type: http://www.assero.co.uk/BusinessDomain#IgVariable
  :id: IG-CDISC_SDTMIGPR_PRLAT
  :namespace: http://www.assero.co.uk/MDRSdtmIgD/CDISC/V3
  :label: Laterality
  :extension_properties: []
  :ordinal: 24
  :rule: ''
  :name: PRLAT
  :notes: Qualifier for anatomical location or specimen further detailing laterality.
  :controlled_term_or_format: "(LAT)"
  :compliance:
    :type: http://www.assero.co.uk/BusinessDomain#VariableCompliance
    :id: IG-CDISC_SDTMIGPR_C_PERMISSIBLE
    :namespace: http://www.assero.co.uk/MDRSdtmIgD/CDISC/V3
    :label: Permissible
    :extension_properties: []
  :variable_ref:
    :type: http://www.assero.co.uk/BusinessOperational#CReference
    :id: IG-CDISC_SDTMIGPR_PRLAT_VR
    :namespace: http://www.assero.co.uk/MDRSdtmIgD/CDISC/V3
    :label: ''
    :extension_properties: []
    :enabled: true
    :optional: false
    :ordinal: 1
    :local_label: ''
    :subject_ref:
      :namespace: http://www.assero.co.uk/MDRSdtmMd/CDISC/V3
      :id: M-CDISC_SDTMMODEL_INTERVENTIONS_xxLAT
- :type: http://www.assero.co.uk/BusinessDomain#IgVariable
  :id: IG-CDISC_SDTMIGPR_PRDIR
  :namespace: http://www.assero.co.uk/MDRSdtmIgD/CDISC/V3
  :label: Directionality
  :extension_properties: []
  :ordinal: 25
  :rule: ''
  :name: PRDIR
  :notes: Qualifier for anatomical location or specimen further detailing directionality.
  :controlled_term_or_format: "(DIR)"
  :compliance:
    :type: http://www.assero.co.uk/BusinessDomain#VariableCompliance
    :id: IG-CDISC_SDTMIGPR_C_PERMISSIBLE
    :namespace: http://www.assero.co.uk/MDRSdtmIgD/CDISC/V3
    :label: Permissible
    :extension_properties: []
  :variable_ref:
    :type: http://www.assero.co.uk/BusinessOperational#CReference
    :id: IG-CDISC_SDTMIGPR_PRDIR_VR
    :namespace: http://www.assero.co.uk/MDRSdtmIgD/CDISC/V3
    :label: ''
    :extension_properties: []
    :enabled: true
    :optional: false
    :ordinal: 1
    :local_label: ''
    :subject_ref:
      :namespace: http://www.assero.co.uk/MDRSdtmMd/CDISC/V3
      :id: M-CDISC_SDTMMODEL_INTERVENTIONS_xxDIR
- :type: http://www.assero.co.uk/BusinessDomain#IgVariable
  :id: IG-CDISC_SDTMIGPR_PRPORTOT
  :namespace: http://www.assero.co.uk/MDRSdtmIgD/CDISC/V3
  :label: Portion or Totality
  :extension_properties: []
  :ordinal: 26
  :rule: ''
  :name: PRPORTOT
  :notes: Qualifier for anatomical location or specimen further detailing the distribution,
    which means arrangement of, apportioning of.
  :controlled_term_or_format: "(PORTOT)"
  :compliance:
    :type: http://www.assero.co.uk/BusinessDomain#VariableCompliance
    :id: IG-CDISC_SDTMIGPR_C_PERMISSIBLE
    :namespace: http://www.assero.co.uk/MDRSdtmIgD/CDISC/V3
    :label: Permissible
    :extension_properties: []
  :variable_ref:
    :type: http://www.assero.co.uk/BusinessOperational#CReference
    :id: IG-CDISC_SDTMIGPR_PRPORTOT_VR
    :namespace: http://www.assero.co.uk/MDRSdtmIgD/CDISC/V3
    :label: ''
    :extension_properties: []
    :enabled: true
    :optional: false
    :ordinal: 1
    :local_label: ''
    :subject_ref:
      :namespace: http://www.assero.co.uk/MDRSdtmMd/CDISC/V3
      :id: M-CDISC_SDTMMODEL_INTERVENTIONS_xxPORTOT
- :type: http://www.assero.co.uk/BusinessDomain#IgVariable
  :id: IG-CDISC_SDTMIGPR_VISITNUM
  :namespace: http://www.assero.co.uk/MDRSdtmIgD/CDISC/V3
  :label: Visit Number
  :extension_properties: []
  :ordinal: 27
  :rule: ''
  :name: VISITNUM
  :notes: Clinical encounter number. Numeric version of VISIT, used for sorting.
  :controlled_term_or_format: ''
  :compliance:
    :type: http://www.assero.co.uk/BusinessDomain#VariableCompliance
    :id: IG-CDISC_SDTMIGPR_C_PERMISSIBLE
    :namespace: http://www.assero.co.uk/MDRSdtmIgD/CDISC/V3
    :label: Permissible
    :extension_properties: []
  :variable_ref:
    :type: http://www.assero.co.uk/BusinessOperational#CReference
    :id: IG-CDISC_SDTMIGPR_VISITNUM_VR
    :namespace: http://www.assero.co.uk/MDRSdtmIgD/CDISC/V3
    :label: ''
    :extension_properties: []
    :enabled: true
    :optional: false
    :ordinal: 1
    :local_label: ''
    :subject_ref:
      :namespace: http://www.assero.co.uk/MDRSdtmMd/CDISC/V3
      :id: M-CDISC_SDTMMODEL_INTERVENTIONS_VISITNUM
- :type: http://www.assero.co.uk/BusinessDomain#IgVariable
  :id: IG-CDISC_SDTMIGPR_VISIT
  :namespace: http://www.assero.co.uk/MDRSdtmIgD/CDISC/V3
  :label: Visit Name
  :extension_properties: []
  :ordinal: 28
  :rule: ''
  :name: VISIT
  :notes: Protocol-defined description of a clinical encounter.
  :controlled_term_or_format: ''
  :compliance:
    :type: http://www.assero.co.uk/BusinessDomain#VariableCompliance
    :id: IG-CDISC_SDTMIGPR_C_PERMISSIBLE
    :namespace: http://www.assero.co.uk/MDRSdtmIgD/CDISC/V3
    :label: Permissible
    :extension_properties: []
  :variable_ref:
    :type: http://www.assero.co.uk/BusinessOperational#CReference
    :id: IG-CDISC_SDTMIGPR_VISIT_VR
    :namespace: http://www.assero.co.uk/MDRSdtmIgD/CDISC/V3
    :label: ''
    :extension_properties: []
    :enabled: true
    :optional: false
    :ordinal: 1
    :local_label: ''
    :subject_ref:
      :namespace: http://www.assero.co.uk/MDRSdtmMd/CDISC/V3
      :id: M-CDISC_SDTMMODEL_INTERVENTIONS_VISIT
- :type: http://www.assero.co.uk/BusinessDomain#IgVariable
  :id: IG-CDISC_SDTMIGPR_VISITDY
  :namespace: http://www.assero.co.uk/MDRSdtmIgD/CDISC/V3
  :label: Planned Study Day of Visit
  :extension_properties: []
  :ordinal: 29
  :rule: ''
  :name: VISITDY
  :notes: Planned study day of VISIT. Should be an integer.
  :controlled_term_or_format: ''
  :compliance:
    :type: http://www.assero.co.uk/BusinessDomain#VariableCompliance
    :id: IG-CDISC_SDTMIGPR_C_PERMISSIBLE
    :namespace: http://www.assero.co.uk/MDRSdtmIgD/CDISC/V3
    :label: Permissible
    :extension_properties: []
  :variable_ref:
    :type: http://www.assero.co.uk/BusinessOperational#CReference
    :id: IG-CDISC_SDTMIGPR_VISITDY_VR
    :namespace: http://www.assero.co.uk/MDRSdtmIgD/CDISC/V3
    :label: ''
    :extension_properties: []
    :enabled: true
    :optional: false
    :ordinal: 1
    :local_label: ''
    :subject_ref:
      :namespace: http://www.assero.co.uk/MDRSdtmMd/CDISC/V3
      :id: M-CDISC_SDTMMODEL_INTERVENTIONS_VISITDY
- :type: http://www.assero.co.uk/BusinessDomain#IgVariable
  :id: IG-CDISC_SDTMIGPR_PRSTDTC
  :namespace: http://www.assero.co.uk/MDRSdtmIgD/CDISC/V3
  :label: Start Date/Time of Procedure
  :extension_properties: []
  :ordinal: 30
  :rule: ''
  :name: PRSTDTC
  :notes: Start date/time of the procedure represented in ISO 8601 character format.
  :controlled_term_or_format: ISO 8601
  :compliance:
    :type: http://www.assero.co.uk/BusinessDomain#VariableCompliance
    :id: IG-CDISC_SDTMIGPR_C_EXPECTED
    :namespace: http://www.assero.co.uk/MDRSdtmIgD/CDISC/V3
    :label: Expected
    :extension_properties: []
  :variable_ref:
    :type: http://www.assero.co.uk/BusinessOperational#CReference
    :id: IG-CDISC_SDTMIGPR_PRSTDTC_VR
    :namespace: http://www.assero.co.uk/MDRSdtmIgD/CDISC/V3
    :label: ''
    :extension_properties: []
    :enabled: true
    :optional: false
    :ordinal: 1
    :local_label: ''
    :subject_ref:
      :namespace: http://www.assero.co.uk/MDRSdtmMd/CDISC/V3
      :id: M-CDISC_SDTMMODEL_INTERVENTIONS_xxSTDTC
- :type: http://www.assero.co.uk/BusinessDomain#IgVariable
  :id: IG-CDISC_SDTMIGPR_PRENDTC
  :namespace: http://www.assero.co.uk/MDRSdtmIgD/CDISC/V3
  :label: End Date/Time of Procedure
  :extension_properties: []
  :ordinal: 31
  :rule: ''
  :name: PRENDTC
  :notes: End date/time of the procedure represented in ISO 8601 character format.
  :controlled_term_or_format: ISO 8601
  :compliance:
    :type: http://www.assero.co.uk/BusinessDomain#VariableCompliance
    :id: IG-CDISC_SDTMIGPR_C_PERMISSIBLE
    :namespace: http://www.assero.co.uk/MDRSdtmIgD/CDISC/V3
    :label: Permissible
    :extension_properties: []
  :variable_ref:
    :type: http://www.assero.co.uk/BusinessOperational#CReference
    :id: IG-CDISC_SDTMIGPR_PRENDTC_VR
    :namespace: http://www.assero.co.uk/MDRSdtmIgD/CDISC/V3
    :label: ''
    :extension_properties: []
    :enabled: true
    :optional: false
    :ordinal: 1
    :local_label: ''
    :subject_ref:
      :namespace: http://www.assero.co.uk/MDRSdtmMd/CDISC/V3
      :id: M-CDISC_SDTMMODEL_INTERVENTIONS_xxENDTC
- :type: http://www.assero.co.uk/BusinessDomain#IgVariable
  :id: IG-CDISC_SDTMIGPR_PRSTDY
  :namespace: http://www.assero.co.uk/MDRSdtmIgD/CDISC/V3
  :label: Study Day of Start of Procedure
  :extension_properties: []
  :ordinal: 32
  :rule: ''
  :name: PRSTDY
  :notes: Study day of start of procedure expressed in integer days relative to the
    sponsor-defined RFSTDTC in Demographics.
  :controlled_term_or_format: ''
  :compliance:
    :type: http://www.assero.co.uk/BusinessDomain#VariableCompliance
    :id: IG-CDISC_SDTMIGPR_C_PERMISSIBLE
    :namespace: http://www.assero.co.uk/MDRSdtmIgD/CDISC/V3
    :label: Permissible
    :extension_properties: []
  :variable_ref:
    :type: http://www.assero.co.uk/BusinessOperational#CReference
    :id: IG-CDISC_SDTMIGPR_PRSTDY_VR
    :namespace: http://www.assero.co.uk/MDRSdtmIgD/CDISC/V3
    :label: ''
    :extension_properties: []
    :enabled: true
    :optional: false
    :ordinal: 1
    :local_label: ''
    :subject_ref:
      :namespace: http://www.assero.co.uk/MDRSdtmMd/CDISC/V3
      :id: M-CDISC_SDTMMODEL_INTERVENTIONS_xxSTDY
- :type: http://www.assero.co.uk/BusinessDomain#IgVariable
  :id: IG-CDISC_SDTMIGPR_PRENDY
  :namespace: http://www.assero.co.uk/MDRSdtmIgD/CDISC/V3
  :label: Study Day of End of Procedure
  :extension_properties: []
  :ordinal: 33
  :rule: ''
  :name: PRENDY
  :notes: Study day of end of procedure expressed in integer days relative to the
    sponsor-defined RFSTDTC in Demographics.
  :controlled_term_or_format: ''
  :compliance:
    :type: http://www.assero.co.uk/BusinessDomain#VariableCompliance
    :id: IG-CDISC_SDTMIGPR_C_PERMISSIBLE
    :namespace: http://www.assero.co.uk/MDRSdtmIgD/CDISC/V3
    :label: Permissible
    :extension_properties: []
  :variable_ref:
    :type: http://www.assero.co.uk/BusinessOperational#CReference
    :id: IG-CDISC_SDTMIGPR_PRENDY_VR
    :namespace: http://www.assero.co.uk/MDRSdtmIgD/CDISC/V3
    :label: ''
    :extension_properties: []
    :enabled: true
    :optional: false
    :ordinal: 1
    :local_label: ''
    :subject_ref:
      :namespace: http://www.assero.co.uk/MDRSdtmMd/CDISC/V3
      :id: M-CDISC_SDTMMODEL_INTERVENTIONS_xxENDY
- :type: http://www.assero.co.uk/BusinessDomain#IgVariable
  :id: IG-CDISC_SDTMIGPR_PRDUR
  :namespace: http://www.assero.co.uk/MDRSdtmIgD/CDISC/V3
  :label: Duration of Procedure
  :extension_properties: []
  :ordinal: 34
  :rule: ''
  :name: PRDUR
  :notes: Collected duration of a procedure represented in ISO 8601 character format.
    Used only if collected on the CRF and not derived from start and end date/times.
  :controlled_term_or_format: ISO 8601
  :compliance:
    :type: http://www.assero.co.uk/BusinessDomain#VariableCompliance
    :id: IG-CDISC_SDTMIGPR_C_PERMISSIBLE
    :namespace: http://www.assero.co.uk/MDRSdtmIgD/CDISC/V3
    :label: Permissible
    :extension_properties: []
  :variable_ref:
    :type: http://www.assero.co.uk/BusinessOperational#CReference
    :id: IG-CDISC_SDTMIGPR_PRDUR_VR
    :namespace: http://www.assero.co.uk/MDRSdtmIgD/CDISC/V3
    :label: ''
    :extension_properties: []
    :enabled: true
    :optional: false
    :ordinal: 1
    :local_label: ''
    :subject_ref:
      :namespace: http://www.assero.co.uk/MDRSdtmMd/CDISC/V3
      :id: M-CDISC_SDTMMODEL_INTERVENTIONS_xxDUR
- :type: http://www.assero.co.uk/BusinessDomain#IgVariable
  :id: IG-CDISC_SDTMIGPR_PRTPT
  :namespace: http://www.assero.co.uk/MDRSdtmIgD/CDISC/V3
  :label: Planned Time Point Name
  :extension_properties: []
  :ordinal: 35
  :rule: ''
  :name: PRTPT
  :notes: Text description of time when a procedure should be performed. This may
    be represented as an elapsed time relative to a fixed reference point, such as
    time of last dose. See PRTPTNUM and PRTPTREF.
  :controlled_term_or_format: ''
  :compliance:
    :type: http://www.assero.co.uk/BusinessDomain#VariableCompliance
    :id: IG-CDISC_SDTMIGPR_C_PERMISSIBLE
    :namespace: http://www.assero.co.uk/MDRSdtmIgD/CDISC/V3
    :label: Permissible
    :extension_properties: []
  :variable_ref:
    :type: http://www.assero.co.uk/BusinessOperational#CReference
    :id: IG-CDISC_SDTMIGPR_PRTPT_VR
    :namespace: http://www.assero.co.uk/MDRSdtmIgD/CDISC/V3
    :label: ''
    :extension_properties: []
    :enabled: true
    :optional: false
    :ordinal: 1
    :local_label: ''
    :subject_ref:
      :namespace: http://www.assero.co.uk/MDRSdtmMd/CDISC/V3
      :id: M-CDISC_SDTMMODEL_INTERVENTIONS_xxTPT
- :type: http://www.assero.co.uk/BusinessDomain#IgVariable
  :id: IG-CDISC_SDTMIGPR_PRTPTNUM
  :namespace: http://www.assero.co.uk/MDRSdtmIgD/CDISC/V3
  :label: Planned Time Point Number
  :extension_properties: []
  :ordinal: 36
  :rule: ''
  :name: PRTPTNUM
  :notes: Numerical version of planned time point used in sorting.
  :controlled_term_or_format: ''
  :compliance:
    :type: http://www.assero.co.uk/BusinessDomain#VariableCompliance
    :id: IG-CDISC_SDTMIGPR_C_PERMISSIBLE
    :namespace: http://www.assero.co.uk/MDRSdtmIgD/CDISC/V3
    :label: Permissible
    :extension_properties: []
  :variable_ref:
    :type: http://www.assero.co.uk/BusinessOperational#CReference
    :id: IG-CDISC_SDTMIGPR_PRTPTNUM_VR
    :namespace: http://www.assero.co.uk/MDRSdtmIgD/CDISC/V3
    :label: ''
    :extension_properties: []
    :enabled: true
    :optional: false
    :ordinal: 1
    :local_label: ''
    :subject_ref:
      :namespace: http://www.assero.co.uk/MDRSdtmMd/CDISC/V3
      :id: M-CDISC_SDTMMODEL_INTERVENTIONS_xxTPTNUM
- :type: http://www.assero.co.uk/BusinessDomain#IgVariable
  :id: IG-CDISC_SDTMIGPR_PRELTM
  :namespace: http://www.assero.co.uk/MDRSdtmIgD/CDISC/V3
  :label: Planned Elapsed Time from Time Point Ref
  :extension_properties: []
  :ordinal: 37
  :rule: ''
  :name: PRELTM
  :notes: Planned elapsed time in ISO 8601 format relative to a planned fixed reference
    (PRTPTREF). This variable is useful where there are repetitive measures. Not a
    clock time or a date/time variable, but an interval, represented as ISO duration.
  :controlled_term_or_format: ISO 8601
  :compliance:
    :type: http://www.assero.co.uk/BusinessDomain#VariableCompliance
    :id: IG-CDISC_SDTMIGPR_C_PERMISSIBLE
    :namespace: http://www.assero.co.uk/MDRSdtmIgD/CDISC/V3
    :label: Permissible
    :extension_properties: []
  :variable_ref:
    :type: http://www.assero.co.uk/BusinessOperational#CReference
    :id: IG-CDISC_SDTMIGPR_PRELTM_VR
    :namespace: http://www.assero.co.uk/MDRSdtmIgD/CDISC/V3
    :label: ''
    :extension_properties: []
    :enabled: true
    :optional: false
    :ordinal: 1
    :local_label: ''
    :subject_ref:
      :namespace: http://www.assero.co.uk/MDRSdtmMd/CDISC/V3
      :id: M-CDISC_SDTMMODEL_INTERVENTIONS_xxELTM
- :type: http://www.assero.co.uk/BusinessDomain#IgVariable
  :id: IG-CDISC_SDTMIGPR_PRTPTREF
  :namespace: http://www.assero.co.uk/MDRSdtmIgD/CDISC/V3
  :label: Time Point Reference
  :extension_properties: []
  :ordinal: 38
  :rule: ''
  :name: PRTPTREF
  :notes: Description of the fixed reference point referred to by PRELTM, PRTPTNUM,
    and PRTPT.
  :controlled_term_or_format: ''
  :compliance:
    :type: http://www.assero.co.uk/BusinessDomain#VariableCompliance
    :id: IG-CDISC_SDTMIGPR_C_PERMISSIBLE
    :namespace: http://www.assero.co.uk/MDRSdtmIgD/CDISC/V3
    :label: Permissible
    :extension_properties: []
  :variable_ref:
    :type: http://www.assero.co.uk/BusinessOperational#CReference
    :id: IG-CDISC_SDTMIGPR_PRTPTREF_VR
    :namespace: http://www.assero.co.uk/MDRSdtmIgD/CDISC/V3
    :label: ''
    :extension_properties: []
    :enabled: true
    :optional: false
    :ordinal: 1
    :local_label: ''
    :subject_ref:
      :namespace: http://www.assero.co.uk/MDRSdtmMd/CDISC/V3
      :id: M-CDISC_SDTMMODEL_INTERVENTIONS_xxTPTREF
- :type: http://www.assero.co.uk/BusinessDomain#IgVariable
  :id: IG-CDISC_SDTMIGPR_PRRFTDTC
  :namespace: http://www.assero.co.uk/MDRSdtmIgD/CDISC/V3
  :label: Date/Time of Reference Time Point
  :extension_properties: []
  :ordinal: 39
  :rule: ''
  :name: PRRFTDTC
  :notes: Date/time for a fixed reference time point defined by PRTRTREF in ISO 8601
    character format.
  :controlled_term_or_format: ISO 8601
  :compliance:
    :type: http://www.assero.co.uk/BusinessDomain#VariableCompliance
    :id: IG-CDISC_SDTMIGPR_C_PERMISSIBLE
    :namespace: http://www.assero.co.uk/MDRSdtmIgD/CDISC/V3
    :label: Permissible
    :extension_properties: []
  :variable_ref:
    :type: http://www.assero.co.uk/BusinessOperational#CReference
    :id: IG-CDISC_SDTMIGPR_PRRFTDTC_VR
    :namespace: http://www.assero.co.uk/MDRSdtmIgD/CDISC/V3
    :label: ''
    :extension_properties: []
    :enabled: true
    :optional: false
    :ordinal: 1
    :local_label: ''
    :subject_ref:
      :namespace: http://www.assero.co.uk/MDRSdtmMd/CDISC/V3
      :id: M-CDISC_SDTMMODEL_INTERVENTIONS_xxRFTDTC
- :type: http://www.assero.co.uk/BusinessDomain#IgVariable
  :id: IG-CDISC_SDTMIGPR_PRSTRTPT
  :namespace: http://www.assero.co.uk/MDRSdtmIgD/CDISC/V3
  :label: Start Relative to Reference Time Point
  :extension_properties: []
  :ordinal: 40
  :rule: ''
  :name: PRSTRTPT
  :notes: Identifies the start of the observation as being before or after the sponsor-defined
    reference time point defined by variable PRSTTPT.
  :controlled_term_or_format: "(STRTPT)"
  :compliance:
    :type: http://www.assero.co.uk/BusinessDomain#VariableCompliance
    :id: IG-CDISC_SDTMIGPR_C_PERMISSIBLE
    :namespace: http://www.assero.co.uk/MDRSdtmIgD/CDISC/V3
    :label: Permissible
    :extension_properties: []
  :variable_ref:
    :type: http://www.assero.co.uk/BusinessOperational#CReference
    :id: IG-CDISC_SDTMIGPR_PRSTRTPT_VR
    :namespace: http://www.assero.co.uk/MDRSdtmIgD/CDISC/V3
    :label: ''
    :extension_properties: []
    :enabled: true
    :optional: false
    :ordinal: 1
    :local_label: ''
    :subject_ref:
      :namespace: http://www.assero.co.uk/MDRSdtmMd/CDISC/V3
      :id: M-CDISC_SDTMMODEL_INTERVENTIONS_xxSTRTPT
- :type: http://www.assero.co.uk/BusinessDomain#IgVariable
  :id: IG-CDISC_SDTMIGPR_PRSTTPT
  :namespace: http://www.assero.co.uk/MDRSdtmIgD/CDISC/V3
  :label: Start Reference Time Point
  :extension_properties: []
  :ordinal: 41
  :rule: ''
  :name: PRSTTPT
  :notes: 'Description or date/time in ISO 8601 character format of the sponsor-defined
    reference point referred to by PRSTRTPT. Examples: “2003-12-15” or “VISIT 1”.'
  :controlled_term_or_format: ''
  :compliance:
    :type: http://www.assero.co.uk/BusinessDomain#VariableCompliance
    :id: IG-CDISC_SDTMIGPR_C_PERMISSIBLE
    :namespace: http://www.assero.co.uk/MDRSdtmIgD/CDISC/V3
    :label: Permissible
    :extension_properties: []
  :variable_ref:
    :type: http://www.assero.co.uk/BusinessOperational#CReference
    :id: IG-CDISC_SDTMIGPR_PRSTTPT_VR
    :namespace: http://www.assero.co.uk/MDRSdtmIgD/CDISC/V3
    :label: ''
    :extension_properties: []
    :enabled: true
    :optional: false
    :ordinal: 1
    :local_label: ''
    :subject_ref:
      :namespace: http://www.assero.co.uk/MDRSdtmMd/CDISC/V3
      :id: M-CDISC_SDTMMODEL_INTERVENTIONS_xxSTTPT
- :type: http://www.assero.co.uk/BusinessDomain#IgVariable
  :id: IG-CDISC_SDTMIGPR_PRENRTPT
  :namespace: http://www.assero.co.uk/MDRSdtmIgD/CDISC/V3
  :label: End Relative to Reference Time Point
  :extension_properties: []
  :ordinal: 42
  :rule: ''
  :name: PRENRTPT
  :notes: Identifies the end of the observation as being before or after the sponsor-defined
    reference time point defined by variable PRENTPT.
  :controlled_term_or_format: "(ENRTPT)"
  :compliance:
    :type: http://www.assero.co.uk/BusinessDomain#VariableCompliance
    :id: IG-CDISC_SDTMIGPR_C_PERMISSIBLE
    :namespace: http://www.assero.co.uk/MDRSdtmIgD/CDISC/V3
    :label: Permissible
    :extension_properties: []
  :variable_ref:
    :type: http://www.assero.co.uk/BusinessOperational#CReference
    :id: IG-CDISC_SDTMIGPR_PRENRTPT_VR
    :namespace: http://www.assero.co.uk/MDRSdtmIgD/CDISC/V3
    :label: ''
    :extension_properties: []
    :enabled: true
    :optional: false
    :ordinal: 1
    :local_label: ''
    :subject_ref:
      :namespace: http://www.assero.co.uk/MDRSdtmMd/CDISC/V3
      :id: M-CDISC_SDTMMODEL_INTERVENTIONS_xxENRTPT
- :type: http://www.assero.co.uk/BusinessDomain#IgVariable
  :id: IG-CDISC_SDTMIGPR_PRENTPT
  :namespace: http://www.assero.co.uk/MDRSdtmIgD/CDISC/V3
  :label: End Reference Time Point
  :extension_properties: []
  :ordinal: 43
  :rule: ''
  :name: PRENTPT
  :notes: 'Description or date/time in ISO 8601 character format of the sponsor-defined
    reference point referred to by PRENRTPT. Examples: “2003-12-25” or “VISIT 2”.'
  :controlled_term_or_format: ''
  :compliance:
    :type: http://www.assero.co.uk/BusinessDomain#VariableCompliance
    :id: IG-CDISC_SDTMIGPR_C_PERMISSIBLE
    :namespace: http://www.assero.co.uk/MDRSdtmIgD/CDISC/V3
    :label: Permissible
    :extension_properties: []
  :variable_ref:
    :type: http://www.assero.co.uk/BusinessOperational#CReference
    :id: IG-CDISC_SDTMIGPR_PRENTPT_VR
    :namespace: http://www.assero.co.uk/MDRSdtmIgD/CDISC/V3
    :label: ''
    :extension_properties: []
    :enabled: true
    :optional: false
    :ordinal: 1
    :local_label: ''
    :subject_ref:
      :namespace: http://www.assero.co.uk/MDRSdtmMd/CDISC/V3
      :id: M-CDISC_SDTMMODEL_INTERVENTIONS_xxENTPT
