PREFIX : <http://www.assero.co.uk/MDRSdtmMd/CDISC/V1#>
PREFIX isoR: <http://www.assero.co.uk/ISO11179Registration#>
PREFIX mdrItems: <http://www.assero.co.uk/MDRItems#>
PREFIX isoI: <http://www.assero.co.uk/ISO11179Identification#>
PREFIX isoT: <http://www.assero.co.uk/ISO11179Types#>
PREFIX bd: <http://www.assero.co.uk/BusinessDomain#>
PREFIX bo: <http://www.assero.co.uk/BusinessOperational#>
PREFIX rdf: <http://www.w3.org/1999/02/22-rdf-syntax-ns#>
PREFIX rdfs: <http://www.w3.org/2000/01/rdf-schema#>
PREFIX xsd: <http://www.w3.org/2001/XMLSchema#>
PREFIX skos: <http://www.w3.org/2004/02/skos/core#>
INSERT DATA 
{ 
<http://www.assero.co.uk/MDRSdtmM/CDISC/V1#M-CDISC_SDTMMODEL> rdf:type <http://www.assero.co.uk/BusinessDomain#Model> . 
<http://www.assero.co.uk/MDRSdtmM/CDISC/V1#M-CDISC_SDTMMODEL> rdfs:label "SDTM Model 2008-11-12"^^xsd:string . 
<http://www.assero.co.uk/MDRItems#RS-CDISC_SDTMMODEL-1> rdf:type isoR:RegistrationState . 
<http://www.assero.co.uk/MDRItems#RS-CDISC_SDTMMODEL-1> isoR:byAuthority mdrItems:RA-084433759 . 
<http://www.assero.co.uk/MDRItems#RS-CDISC_SDTMMODEL-1> isoR:registrationStatus "Standard"^^xsd:string . 
<http://www.assero.co.uk/MDRItems#RS-CDISC_SDTMMODEL-1> isoR:administrativeNote ""^^xsd:string . 
<http://www.assero.co.uk/MDRItems#RS-CDISC_SDTMMODEL-1> isoR:effectiveDate "2016-01-01T00:00:00%2B00:00"^^xsd:dateTime . 
<http://www.assero.co.uk/MDRItems#RS-CDISC_SDTMMODEL-1> isoR:untilDate "2016-01-01T00:00:00%2B00:00"^^xsd:dateTime . 
<http://www.assero.co.uk/MDRItems#RS-CDISC_SDTMMODEL-1> isoR:unresolvedIssue ""^^xsd:string . 
<http://www.assero.co.uk/MDRItems#RS-CDISC_SDTMMODEL-1> isoR:administrativeStatus ""^^xsd:string . 
<http://www.assero.co.uk/MDRItems#RS-CDISC_SDTMMODEL-1> isoR:previousState "Incomplete"^^xsd:string . 
<http://www.assero.co.uk/MDRItems#SI-CDISC_SDTMMODEL-1> isoI:identifier "SDTM MODEL"^^xsd:string . 
<http://www.assero.co.uk/MDRItems#SI-CDISC_SDTMMODEL-1> rdf:type isoI:ScopedIdentifier . 
<http://www.assero.co.uk/MDRItems#SI-CDISC_SDTMMODEL-1> isoI:version "1"^^xsd:positiveInteger . 
<http://www.assero.co.uk/MDRItems#SI-CDISC_SDTMMODEL-1> isoI:versionLabel "1.2"^^xsd:string . 
<http://www.assero.co.uk/MDRItems#SI-CDISC_SDTMMODEL-1> isoI:semantic_version "1.2.0"^^xsd:string . 
<http://www.assero.co.uk/MDRItems#SI-CDISC_SDTMMODEL-1> isoI:hasScope mdrItems:NS-CDISC . 
<http://www.assero.co.uk/MDRSdtmM/CDISC/V1#M-CDISC_SDTMMODEL> isoI:hasIdentifier <http://www.assero.co.uk/MDRItems#SI-CDISC_SDTMMODEL-1> . 
<http://www.assero.co.uk/MDRSdtmM/CDISC/V1#M-CDISC_SDTMMODEL> isoR:hasState <http://www.assero.co.uk/MDRItems#RS-CDISC_SDTMMODEL-1> . 
<http://www.assero.co.uk/MDRSdtmM/CDISC/V1#M-CDISC_SDTMMODEL> isoT:creationDate "2008-11-12T00:00:00%2B00:00"^^xsd:dateTime . 
<http://www.assero.co.uk/MDRSdtmM/CDISC/V1#M-CDISC_SDTMMODEL> isoT:lastChangeDate "2008-11-12T00:00:00%2B00:00"^^xsd:dateTime . 
<http://www.assero.co.uk/MDRSdtmM/CDISC/V1#M-CDISC_SDTMMODEL> isoT:changeDescription ""^^xsd:string . 
<http://www.assero.co.uk/MDRSdtmM/CDISC/V1#M-CDISC_SDTMMODEL> isoT:explanatoryComment ""^^xsd:string . 
<http://www.assero.co.uk/MDRSdtmM/CDISC/V1#M-CDISC_SDTMMODEL> isoT:origin ""^^xsd:string . 
<http://www.assero.co.uk/MDRSdtmM/CDISC/V1#M-CDISC_SDTMMODEL> bd:ordinal "1"^^xsd:positiveInteger . 
<http://www.assero.co.uk/MDRSdtmM/CDISC/V1#M-CDISC_SDTMMODEL> bd:rule ""^^xsd:string . 
<http://www.assero.co.uk/MDRSdtmM/CDISC/V1#M-CDISC_SDTMMODEL_DT_CHAR> rdf:type <http://www.assero.co.uk/BusinessDomain#VariableType> . 
<http://www.assero.co.uk/MDRSdtmM/CDISC/V1#M-CDISC_SDTMMODEL_DT_CHAR> rdfs:label "Char"^^xsd:string . 
<http://www.assero.co.uk/MDRSdtmM/CDISC/V1#M-CDISC_SDTMMODEL_DT_NUM> rdf:type <http://www.assero.co.uk/BusinessDomain#VariableType> . 
<http://www.assero.co.uk/MDRSdtmM/CDISC/V1#M-CDISC_SDTMMODEL_DT_NUM> rdfs:label "Num"^^xsd:string . 
<http://www.assero.co.uk/MDRSdtmM/CDISC/V1#M-CDISC_SDTMMODEL_C_NONE> rdf:type <http://www.assero.co.uk/BusinessDomain#VariableClassification> . 
<http://www.assero.co.uk/MDRSdtmM/CDISC/V1#M-CDISC_SDTMMODEL_C_NONE> rdfs:label "None"^^xsd:string . 
<http://www.assero.co.uk/MDRSdtmM/CDISC/V1#M-CDISC_SDTMMODEL_C_IDENTIFIER> rdf:type <http://www.assero.co.uk/BusinessDomain#VariableClassification> . 
<http://www.assero.co.uk/MDRSdtmM/CDISC/V1#M-CDISC_SDTMMODEL_C_IDENTIFIER> rdfs:label "Identifier"^^xsd:string . 
<http://www.assero.co.uk/MDRSdtmM/CDISC/V1#M-CDISC_SDTMMODEL_C_TIMING> rdf:type <http://www.assero.co.uk/BusinessDomain#VariableClassification> . 
<http://www.assero.co.uk/MDRSdtmM/CDISC/V1#M-CDISC_SDTMMODEL_C_TIMING> rdfs:label "Timing"^^xsd:string . 
<http://www.assero.co.uk/MDRSdtmM/CDISC/V1#M-CDISC_SDTMMODEL_C_TOPIC> rdf:type <http://www.assero.co.uk/BusinessDomain#VariableClassification> . 
<http://www.assero.co.uk/MDRSdtmM/CDISC/V1#M-CDISC_SDTMMODEL_C_TOPIC> rdfs:label "Topic"^^xsd:string . 
<http://www.assero.co.uk/MDRSdtmM/CDISC/V1#M-CDISC_SDTMMODEL_C_QUALIFIER> rdf:type <http://www.assero.co.uk/BusinessDomain#VariableClassification> . 
<http://www.assero.co.uk/MDRSdtmM/CDISC/V1#M-CDISC_SDTMMODEL_C_QUALIFIER> rdfs:label "Qualifier"^^xsd:string . 
<http://www.assero.co.uk/MDRSdtmM/CDISC/V1#M-CDISC_SDTMMODEL_C_QUALIFIER_SC_SYNONYMQUALIFIER> rdf:type <http://www.assero.co.uk/BusinessDomain#VariableClassification> . 
<http://www.assero.co.uk/MDRSdtmM/CDISC/V1#M-CDISC_SDTMMODEL_C_QUALIFIER_SC_SYNONYMQUALIFIER> rdfs:label "Synonym Qualifier"^^xsd:string . 
<http://www.assero.co.uk/MDRSdtmM/CDISC/V1#M-CDISC_SDTMMODEL_C_QUALIFIER_SC_SYNONYMQUALIFIER> bd:parentClassification  <http://www.assero.co.uk/MDRSdtmM/CDISC/V1#M-CDISC_SDTMMODEL_C_QUALIFIER> . 
<http://www.assero.co.uk/MDRSdtmM/CDISC/V1#M-CDISC_SDTMMODEL_C_QUALIFIER> bd:childClassification  <http://www.assero.co.uk/MDRSdtmM/CDISC/V1#M-CDISC_SDTMMODEL_C_QUALIFIER_SC_SYNONYMQUALIFIER> . 
<http://www.assero.co.uk/MDRSdtmM/CDISC/V1#M-CDISC_SDTMMODEL_C_QUALIFIER_SC_GROUPINGQUALIFIER> rdf:type <http://www.assero.co.uk/BusinessDomain#VariableClassification> . 
<http://www.assero.co.uk/MDRSdtmM/CDISC/V1#M-CDISC_SDTMMODEL_C_QUALIFIER_SC_GROUPINGQUALIFIER> rdfs:label "Grouping Qualifier"^^xsd:string . 
<http://www.assero.co.uk/MDRSdtmM/CDISC/V1#M-CDISC_SDTMMODEL_C_QUALIFIER_SC_GROUPINGQUALIFIER> bd:parentClassification  <http://www.assero.co.uk/MDRSdtmM/CDISC/V1#M-CDISC_SDTMMODEL_C_QUALIFIER> . 
<http://www.assero.co.uk/MDRSdtmM/CDISC/V1#M-CDISC_SDTMMODEL_C_QUALIFIER> bd:childClassification  <http://www.assero.co.uk/MDRSdtmM/CDISC/V1#M-CDISC_SDTMMODEL_C_QUALIFIER_SC_GROUPINGQUALIFIER> . 
<http://www.assero.co.uk/MDRSdtmM/CDISC/V1#M-CDISC_SDTMMODEL_C_QUALIFIER_SC_RECORDQUALIFIER> rdf:type <http://www.assero.co.uk/BusinessDomain#VariableClassification> . 
<http://www.assero.co.uk/MDRSdtmM/CDISC/V1#M-CDISC_SDTMMODEL_C_QUALIFIER_SC_RECORDQUALIFIER> rdfs:label "Record Qualifier"^^xsd:string . 
<http://www.assero.co.uk/MDRSdtmM/CDISC/V1#M-CDISC_SDTMMODEL_C_QUALIFIER_SC_RECORDQUALIFIER> bd:parentClassification  <http://www.assero.co.uk/MDRSdtmM/CDISC/V1#M-CDISC_SDTMMODEL_C_QUALIFIER> . 
<http://www.assero.co.uk/MDRSdtmM/CDISC/V1#M-CDISC_SDTMMODEL_C_QUALIFIER> bd:childClassification  <http://www.assero.co.uk/MDRSdtmM/CDISC/V1#M-CDISC_SDTMMODEL_C_QUALIFIER_SC_RECORDQUALIFIER> . 
<http://www.assero.co.uk/MDRSdtmM/CDISC/V1#M-CDISC_SDTMMODEL_C_QUALIFIER_SC_VARIABLEQUALIFIER> rdf:type <http://www.assero.co.uk/BusinessDomain#VariableClassification> . 
<http://www.assero.co.uk/MDRSdtmM/CDISC/V1#M-CDISC_SDTMMODEL_C_QUALIFIER_SC_VARIABLEQUALIFIER> rdfs:label "Variable Qualifier"^^xsd:string . 
<http://www.assero.co.uk/MDRSdtmM/CDISC/V1#M-CDISC_SDTMMODEL_C_QUALIFIER_SC_VARIABLEQUALIFIER> bd:parentClassification  <http://www.assero.co.uk/MDRSdtmM/CDISC/V1#M-CDISC_SDTMMODEL_C_QUALIFIER> . 
<http://www.assero.co.uk/MDRSdtmM/CDISC/V1#M-CDISC_SDTMMODEL_C_QUALIFIER> bd:childClassification  <http://www.assero.co.uk/MDRSdtmM/CDISC/V1#M-CDISC_SDTMMODEL_C_QUALIFIER_SC_VARIABLEQUALIFIER> . 
<http://www.assero.co.uk/MDRSdtmM/CDISC/V1#M-CDISC_SDTMMODEL_C_QUALIFIER_SC_RESULTQUALIFIER> rdf:type <http://www.assero.co.uk/BusinessDomain#VariableClassification> . 
<http://www.assero.co.uk/MDRSdtmM/CDISC/V1#M-CDISC_SDTMMODEL_C_QUALIFIER_SC_RESULTQUALIFIER> rdfs:label "Result Qualifier"^^xsd:string . 
<http://www.assero.co.uk/MDRSdtmM/CDISC/V1#M-CDISC_SDTMMODEL_C_QUALIFIER_SC_RESULTQUALIFIER> bd:parentClassification  <http://www.assero.co.uk/MDRSdtmM/CDISC/V1#M-CDISC_SDTMMODEL_C_QUALIFIER> . 
<http://www.assero.co.uk/MDRSdtmM/CDISC/V1#M-CDISC_SDTMMODEL_C_QUALIFIER> bd:childClassification  <http://www.assero.co.uk/MDRSdtmM/CDISC/V1#M-CDISC_SDTMMODEL_C_QUALIFIER_SC_RESULTQUALIFIER> . 
<http://www.assero.co.uk/MDRSdtmM/CDISC/V1#M-CDISC_SDTMMODEL_C_RULE> rdf:type <http://www.assero.co.uk/BusinessDomain#VariableClassification> . 
<http://www.assero.co.uk/MDRSdtmM/CDISC/V1#M-CDISC_SDTMMODEL_C_RULE> rdfs:label "Rule"^^xsd:string . 
<http://www.assero.co.uk/MDRSdtmM/CDISC/V1#M-CDISC_SDTMMODEL_STUDYID> rdf:type <http://www.assero.co.uk/BusinessDomain#ModelVariable> . 
<http://www.assero.co.uk/MDRSdtmM/CDISC/V1#M-CDISC_SDTMMODEL_STUDYID> rdfs:label "Study Identifier"^^xsd:string . 
<http://www.assero.co.uk/MDRSdtmM/CDISC/V1#M-CDISC_SDTMMODEL_STUDYID> bd:ordinal "1"^^xsd:positiveInteger . 
<http://www.assero.co.uk/MDRSdtmM/CDISC/V1#M-CDISC_SDTMMODEL_STUDYID> bd:rule ""^^xsd:string . 
<http://www.assero.co.uk/MDRSdtmM/CDISC/V1#M-CDISC_SDTMMODEL_STUDYID> bd:name "STUDYID"^^xsd:string . 
<http://www.assero.co.uk/MDRSdtmM/CDISC/V1#M-CDISC_SDTMMODEL_STUDYID> bd:prefixed "false"^^xsd:boolean . 
<http://www.assero.co.uk/MDRSdtmM/CDISC/V1#M-CDISC_SDTMMODEL_STUDYID> bd:description "Unique identifier for a study."^^xsd:string . 
<http://www.assero.co.uk/MDRSdtmM/CDISC/V1#M-CDISC_SDTMMODEL_STUDYID> bd:typedAs <http://www.assero.co.uk/MDRSdtmM/CDISC/V1#M-CDISC_SDTMMODEL_DT_CHAR> . 
<http://www.assero.co.uk/MDRSdtmM/CDISC/V1#M-CDISC_SDTMMODEL_STUDYID> bd:classifiedAs <http://www.assero.co.uk/MDRSdtmM/CDISC/V1#M-CDISC_SDTMMODEL_C_IDENTIFIER> . 
<http://www.assero.co.uk/MDRSdtmM/CDISC/V1#M-CDISC_SDTMMODEL> bd:includesVariable <http://www.assero.co.uk/MDRSdtmM/CDISC/V1#M-CDISC_SDTMMODEL_STUDYID> . 
<http://www.assero.co.uk/MDRSdtmM/CDISC/V1#M-CDISC_SDTMMODEL_DOMAIN> rdf:type <http://www.assero.co.uk/BusinessDomain#ModelVariable> . 
<http://www.assero.co.uk/MDRSdtmM/CDISC/V1#M-CDISC_SDTMMODEL_DOMAIN> rdfs:label "Domain Abbreviation"^^xsd:string . 
<http://www.assero.co.uk/MDRSdtmM/CDISC/V1#M-CDISC_SDTMMODEL_DOMAIN> bd:ordinal "2"^^xsd:positiveInteger . 
<http://www.assero.co.uk/MDRSdtmM/CDISC/V1#M-CDISC_SDTMMODEL_DOMAIN> bd:rule ""^^xsd:string . 
<http://www.assero.co.uk/MDRSdtmM/CDISC/V1#M-CDISC_SDTMMODEL_DOMAIN> bd:name "DOMAIN"^^xsd:string . 
<http://www.assero.co.uk/MDRSdtmM/CDISC/V1#M-CDISC_SDTMMODEL_DOMAIN> bd:prefixed "false"^^xsd:boolean . 
<http://www.assero.co.uk/MDRSdtmM/CDISC/V1#M-CDISC_SDTMMODEL_DOMAIN> bd:description "Two-character abbreviation for the domain."^^xsd:string . 
<http://www.assero.co.uk/MDRSdtmM/CDISC/V1#M-CDISC_SDTMMODEL_DOMAIN> bd:typedAs <http://www.assero.co.uk/MDRSdtmM/CDISC/V1#M-CDISC_SDTMMODEL_DT_CHAR> . 
<http://www.assero.co.uk/MDRSdtmM/CDISC/V1#M-CDISC_SDTMMODEL_DOMAIN> bd:classifiedAs <http://www.assero.co.uk/MDRSdtmM/CDISC/V1#M-CDISC_SDTMMODEL_C_IDENTIFIER> . 
<http://www.assero.co.uk/MDRSdtmM/CDISC/V1#M-CDISC_SDTMMODEL> bd:includesVariable <http://www.assero.co.uk/MDRSdtmM/CDISC/V1#M-CDISC_SDTMMODEL_DOMAIN> . 
<http://www.assero.co.uk/MDRSdtmM/CDISC/V1#M-CDISC_SDTMMODEL_USUBJID> rdf:type <http://www.assero.co.uk/BusinessDomain#ModelVariable> . 
<http://www.assero.co.uk/MDRSdtmM/CDISC/V1#M-CDISC_SDTMMODEL_USUBJID> rdfs:label "Unique Subject Identifier"^^xsd:string . 
<http://www.assero.co.uk/MDRSdtmM/CDISC/V1#M-CDISC_SDTMMODEL_USUBJID> bd:ordinal "3"^^xsd:positiveInteger . 
<http://www.assero.co.uk/MDRSdtmM/CDISC/V1#M-CDISC_SDTMMODEL_USUBJID> bd:rule ""^^xsd:string . 
<http://www.assero.co.uk/MDRSdtmM/CDISC/V1#M-CDISC_SDTMMODEL_USUBJID> bd:name "USUBJID"^^xsd:string . 
<http://www.assero.co.uk/MDRSdtmM/CDISC/V1#M-CDISC_SDTMMODEL_USUBJID> bd:prefixed "false"^^xsd:boolean . 
<http://www.assero.co.uk/MDRSdtmM/CDISC/V1#M-CDISC_SDTMMODEL_USUBJID> bd:description "Identifier used to uniquely identify a subject across all studies for all applications or submissions involving the product."^^xsd:string . 
<http://www.assero.co.uk/MDRSdtmM/CDISC/V1#M-CDISC_SDTMMODEL_USUBJID> bd:typedAs <http://www.assero.co.uk/MDRSdtmM/CDISC/V1#M-CDISC_SDTMMODEL_DT_CHAR> . 
<http://www.assero.co.uk/MDRSdtmM/CDISC/V1#M-CDISC_SDTMMODEL_USUBJID> bd:classifiedAs <http://www.assero.co.uk/MDRSdtmM/CDISC/V1#M-CDISC_SDTMMODEL_C_IDENTIFIER> . 
<http://www.assero.co.uk/MDRSdtmM/CDISC/V1#M-CDISC_SDTMMODEL> bd:includesVariable <http://www.assero.co.uk/MDRSdtmM/CDISC/V1#M-CDISC_SDTMMODEL_USUBJID> . 
<http://www.assero.co.uk/MDRSdtmM/CDISC/V1#M-CDISC_SDTMMODEL_xxSEQ> rdf:type <http://www.assero.co.uk/BusinessDomain#ModelVariable> . 
<http://www.assero.co.uk/MDRSdtmM/CDISC/V1#M-CDISC_SDTMMODEL_xxSEQ> rdfs:label "Sequence Number"^^xsd:string . 
<http://www.assero.co.uk/MDRSdtmM/CDISC/V1#M-CDISC_SDTMMODEL_xxSEQ> bd:ordinal "4"^^xsd:positiveInteger . 
<http://www.assero.co.uk/MDRSdtmM/CDISC/V1#M-CDISC_SDTMMODEL_xxSEQ> bd:rule ""^^xsd:string . 
<http://www.assero.co.uk/MDRSdtmM/CDISC/V1#M-CDISC_SDTMMODEL_xxSEQ> bd:name "--SEQ"^^xsd:string . 
<http://www.assero.co.uk/MDRSdtmM/CDISC/V1#M-CDISC_SDTMMODEL_xxSEQ> bd:prefixed "true"^^xsd:boolean . 
<http://www.assero.co.uk/MDRSdtmM/CDISC/V1#M-CDISC_SDTMMODEL_xxSEQ> bd:description "Sequence number to ensure uniqueness of records within a dataset for a subject (or within a parameter, in the case of the Trial Summary domain). May be any valid number (including decimals) and does not have to start at 1. Should be assigned to be in a consistent chronological order."^^xsd:string . 
<http://www.assero.co.uk/MDRSdtmM/CDISC/V1#M-CDISC_SDTMMODEL_xxSEQ> bd:typedAs <http://www.assero.co.uk/MDRSdtmM/CDISC/V1#M-CDISC_SDTMMODEL_DT_NUM> . 
<http://www.assero.co.uk/MDRSdtmM/CDISC/V1#M-CDISC_SDTMMODEL_xxSEQ> bd:classifiedAs <http://www.assero.co.uk/MDRSdtmM/CDISC/V1#M-CDISC_SDTMMODEL_C_IDENTIFIER> . 
<http://www.assero.co.uk/MDRSdtmM/CDISC/V1#M-CDISC_SDTMMODEL> bd:includesVariable <http://www.assero.co.uk/MDRSdtmM/CDISC/V1#M-CDISC_SDTMMODEL_xxSEQ> . 
<http://www.assero.co.uk/MDRSdtmM/CDISC/V1#M-CDISC_SDTMMODEL_xxGRPID> rdf:type <http://www.assero.co.uk/BusinessDomain#ModelVariable> . 
<http://www.assero.co.uk/MDRSdtmM/CDISC/V1#M-CDISC_SDTMMODEL_xxGRPID> rdfs:label "Group ID"^^xsd:string . 
<http://www.assero.co.uk/MDRSdtmM/CDISC/V1#M-CDISC_SDTMMODEL_xxGRPID> bd:ordinal "5"^^xsd:positiveInteger . 
<http://www.assero.co.uk/MDRSdtmM/CDISC/V1#M-CDISC_SDTMMODEL_xxGRPID> bd:rule ""^^xsd:string . 
<http://www.assero.co.uk/MDRSdtmM/CDISC/V1#M-CDISC_SDTMMODEL_xxGRPID> bd:name "--GRPID"^^xsd:string . 
<http://www.assero.co.uk/MDRSdtmM/CDISC/V1#M-CDISC_SDTMMODEL_xxGRPID> bd:prefixed "true"^^xsd:boolean . 
<http://www.assero.co.uk/MDRSdtmM/CDISC/V1#M-CDISC_SDTMMODEL_xxGRPID> bd:description "Optional group identifier, used to link together a block of related records within a subject in a domain. Also used to link together a block of related records in the Trial Summary dataset (Section 3.4)."^^xsd:string . 
<http://www.assero.co.uk/MDRSdtmM/CDISC/V1#M-CDISC_SDTMMODEL_xxGRPID> bd:typedAs <http://www.assero.co.uk/MDRSdtmM/CDISC/V1#M-CDISC_SDTMMODEL_DT_CHAR> . 
<http://www.assero.co.uk/MDRSdtmM/CDISC/V1#M-CDISC_SDTMMODEL_xxGRPID> bd:classifiedAs <http://www.assero.co.uk/MDRSdtmM/CDISC/V1#M-CDISC_SDTMMODEL_C_IDENTIFIER> . 
<http://www.assero.co.uk/MDRSdtmM/CDISC/V1#M-CDISC_SDTMMODEL> bd:includesVariable <http://www.assero.co.uk/MDRSdtmM/CDISC/V1#M-CDISC_SDTMMODEL_xxGRPID> . 
<http://www.assero.co.uk/MDRSdtmM/CDISC/V1#M-CDISC_SDTMMODEL_xxREFID> rdf:type <http://www.assero.co.uk/BusinessDomain#ModelVariable> . 
<http://www.assero.co.uk/MDRSdtmM/CDISC/V1#M-CDISC_SDTMMODEL_xxREFID> rdfs:label "Reference ID"^^xsd:string . 
<http://www.assero.co.uk/MDRSdtmM/CDISC/V1#M-CDISC_SDTMMODEL_xxREFID> bd:ordinal "6"^^xsd:positiveInteger . 
<http://www.assero.co.uk/MDRSdtmM/CDISC/V1#M-CDISC_SDTMMODEL_xxREFID> bd:rule ""^^xsd:string . 
<http://www.assero.co.uk/MDRSdtmM/CDISC/V1#M-CDISC_SDTMMODEL_xxREFID> bd:name "--REFID"^^xsd:string . 
<http://www.assero.co.uk/MDRSdtmM/CDISC/V1#M-CDISC_SDTMMODEL_xxREFID> bd:prefixed "true"^^xsd:boolean . 
<http://www.assero.co.uk/MDRSdtmM/CDISC/V1#M-CDISC_SDTMMODEL_xxREFID> bd:description "Optional internal or external identifier such as lab specimen ID, or UUID for an ECG waveform or a medical image."^^xsd:string . 
<http://www.assero.co.uk/MDRSdtmM/CDISC/V1#M-CDISC_SDTMMODEL_xxREFID> bd:typedAs <http://www.assero.co.uk/MDRSdtmM/CDISC/V1#M-CDISC_SDTMMODEL_DT_CHAR> . 
<http://www.assero.co.uk/MDRSdtmM/CDISC/V1#M-CDISC_SDTMMODEL_xxREFID> bd:classifiedAs <http://www.assero.co.uk/MDRSdtmM/CDISC/V1#M-CDISC_SDTMMODEL_C_IDENTIFIER> . 
<http://www.assero.co.uk/MDRSdtmM/CDISC/V1#M-CDISC_SDTMMODEL> bd:includesVariable <http://www.assero.co.uk/MDRSdtmM/CDISC/V1#M-CDISC_SDTMMODEL_xxREFID> . 
<http://www.assero.co.uk/MDRSdtmM/CDISC/V1#M-CDISC_SDTMMODEL_xxSPID> rdf:type <http://www.assero.co.uk/BusinessDomain#ModelVariable> . 
<http://www.assero.co.uk/MDRSdtmM/CDISC/V1#M-CDISC_SDTMMODEL_xxSPID> rdfs:label "Sponsor ID"^^xsd:string . 
<http://www.assero.co.uk/MDRSdtmM/CDISC/V1#M-CDISC_SDTMMODEL_xxSPID> bd:ordinal "7"^^xsd:positiveInteger . 
<http://www.assero.co.uk/MDRSdtmM/CDISC/V1#M-CDISC_SDTMMODEL_xxSPID> bd:rule ""^^xsd:string . 
<http://www.assero.co.uk/MDRSdtmM/CDISC/V1#M-CDISC_SDTMMODEL_xxSPID> bd:name "--SPID"^^xsd:string . 
<http://www.assero.co.uk/MDRSdtmM/CDISC/V1#M-CDISC_SDTMMODEL_xxSPID> bd:prefixed "true"^^xsd:boolean . 
<http://www.assero.co.uk/MDRSdtmM/CDISC/V1#M-CDISC_SDTMMODEL_xxSPID> bd:description "Sponsor-defined identifier. Example: pre-printed line identifier on a Concomitant Medications page."^^xsd:string . 
<http://www.assero.co.uk/MDRSdtmM/CDISC/V1#M-CDISC_SDTMMODEL_xxSPID> bd:typedAs <http://www.assero.co.uk/MDRSdtmM/CDISC/V1#M-CDISC_SDTMMODEL_DT_CHAR> . 
<http://www.assero.co.uk/MDRSdtmM/CDISC/V1#M-CDISC_SDTMMODEL_xxSPID> bd:classifiedAs <http://www.assero.co.uk/MDRSdtmM/CDISC/V1#M-CDISC_SDTMMODEL_C_IDENTIFIER> . 
<http://www.assero.co.uk/MDRSdtmM/CDISC/V1#M-CDISC_SDTMMODEL> bd:includesVariable <http://www.assero.co.uk/MDRSdtmM/CDISC/V1#M-CDISC_SDTMMODEL_xxSPID> . 
<http://www.assero.co.uk/MDRSdtmM/CDISC/V1#M-CDISC_SDTMMODEL_VISITNUM> rdf:type <http://www.assero.co.uk/BusinessDomain#ModelVariable> . 
<http://www.assero.co.uk/MDRSdtmM/CDISC/V1#M-CDISC_SDTMMODEL_VISITNUM> rdfs:label "Visit Number"^^xsd:string . 
<http://www.assero.co.uk/MDRSdtmM/CDISC/V1#M-CDISC_SDTMMODEL_VISITNUM> bd:ordinal "8"^^xsd:positiveInteger . 
<http://www.assero.co.uk/MDRSdtmM/CDISC/V1#M-CDISC_SDTMMODEL_VISITNUM> bd:rule ""^^xsd:string . 
<http://www.assero.co.uk/MDRSdtmM/CDISC/V1#M-CDISC_SDTMMODEL_VISITNUM> bd:name "VISITNUM"^^xsd:string . 
<http://www.assero.co.uk/MDRSdtmM/CDISC/V1#M-CDISC_SDTMMODEL_VISITNUM> bd:prefixed "false"^^xsd:boolean . 
<http://www.assero.co.uk/MDRSdtmM/CDISC/V1#M-CDISC_SDTMMODEL_VISITNUM> bd:description "Clinical encounter number. Numeric version of VISIT, used for sorting."^^xsd:string . 
<http://www.assero.co.uk/MDRSdtmM/CDISC/V1#M-CDISC_SDTMMODEL_VISITNUM> bd:typedAs <http://www.assero.co.uk/MDRSdtmM/CDISC/V1#M-CDISC_SDTMMODEL_DT_NUM> . 
<http://www.assero.co.uk/MDRSdtmM/CDISC/V1#M-CDISC_SDTMMODEL_VISITNUM> bd:classifiedAs <http://www.assero.co.uk/MDRSdtmM/CDISC/V1#M-CDISC_SDTMMODEL_C_TIMING> . 
<http://www.assero.co.uk/MDRSdtmM/CDISC/V1#M-CDISC_SDTMMODEL> bd:includesVariable <http://www.assero.co.uk/MDRSdtmM/CDISC/V1#M-CDISC_SDTMMODEL_VISITNUM> . 
<http://www.assero.co.uk/MDRSdtmM/CDISC/V1#M-CDISC_SDTMMODEL_VISIT> rdf:type <http://www.assero.co.uk/BusinessDomain#ModelVariable> . 
<http://www.assero.co.uk/MDRSdtmM/CDISC/V1#M-CDISC_SDTMMODEL_VISIT> rdfs:label "Visit Name"^^xsd:string . 
<http://www.assero.co.uk/MDRSdtmM/CDISC/V1#M-CDISC_SDTMMODEL_VISIT> bd:ordinal "9"^^xsd:positiveInteger . 
<http://www.assero.co.uk/MDRSdtmM/CDISC/V1#M-CDISC_SDTMMODEL_VISIT> bd:rule ""^^xsd:string . 
<http://www.assero.co.uk/MDRSdtmM/CDISC/V1#M-CDISC_SDTMMODEL_VISIT> bd:name "VISIT"^^xsd:string . 
<http://www.assero.co.uk/MDRSdtmM/CDISC/V1#M-CDISC_SDTMMODEL_VISIT> bd:prefixed "false"^^xsd:boolean . 
<http://www.assero.co.uk/MDRSdtmM/CDISC/V1#M-CDISC_SDTMMODEL_VISIT> bd:description "1. Protocol-defined description of clinical encounter. 2. May be used in addition to VISITNUM and/or VISITDY."^^xsd:string . 
<http://www.assero.co.uk/MDRSdtmM/CDISC/V1#M-CDISC_SDTMMODEL_VISIT> bd:typedAs <http://www.assero.co.uk/MDRSdtmM/CDISC/V1#M-CDISC_SDTMMODEL_DT_CHAR> . 
<http://www.assero.co.uk/MDRSdtmM/CDISC/V1#M-CDISC_SDTMMODEL_VISIT> bd:classifiedAs <http://www.assero.co.uk/MDRSdtmM/CDISC/V1#M-CDISC_SDTMMODEL_C_TIMING> . 
<http://www.assero.co.uk/MDRSdtmM/CDISC/V1#M-CDISC_SDTMMODEL> bd:includesVariable <http://www.assero.co.uk/MDRSdtmM/CDISC/V1#M-CDISC_SDTMMODEL_VISIT> . 
<http://www.assero.co.uk/MDRSdtmM/CDISC/V1#M-CDISC_SDTMMODEL_VISITDY> rdf:type <http://www.assero.co.uk/BusinessDomain#ModelVariable> . 
<http://www.assero.co.uk/MDRSdtmM/CDISC/V1#M-CDISC_SDTMMODEL_VISITDY> rdfs:label "Planned Study Day of Visit"^^xsd:string . 
<http://www.assero.co.uk/MDRSdtmM/CDISC/V1#M-CDISC_SDTMMODEL_VISITDY> bd:ordinal "10"^^xsd:positiveInteger . 
<http://www.assero.co.uk/MDRSdtmM/CDISC/V1#M-CDISC_SDTMMODEL_VISITDY> bd:rule ""^^xsd:string . 
<http://www.assero.co.uk/MDRSdtmM/CDISC/V1#M-CDISC_SDTMMODEL_VISITDY> bd:name "VISITDY"^^xsd:string . 
<http://www.assero.co.uk/MDRSdtmM/CDISC/V1#M-CDISC_SDTMMODEL_VISITDY> bd:prefixed "false"^^xsd:boolean . 
<http://www.assero.co.uk/MDRSdtmM/CDISC/V1#M-CDISC_SDTMMODEL_VISITDY> bd:description "Planned study day of the visit based upon RFSTDTC in Demographics."^^xsd:string . 
<http://www.assero.co.uk/MDRSdtmM/CDISC/V1#M-CDISC_SDTMMODEL_VISITDY> bd:typedAs <http://www.assero.co.uk/MDRSdtmM/CDISC/V1#M-CDISC_SDTMMODEL_DT_NUM> . 
<http://www.assero.co.uk/MDRSdtmM/CDISC/V1#M-CDISC_SDTMMODEL_VISITDY> bd:classifiedAs <http://www.assero.co.uk/MDRSdtmM/CDISC/V1#M-CDISC_SDTMMODEL_C_TIMING> . 
<http://www.assero.co.uk/MDRSdtmM/CDISC/V1#M-CDISC_SDTMMODEL> bd:includesVariable <http://www.assero.co.uk/MDRSdtmM/CDISC/V1#M-CDISC_SDTMMODEL_VISITDY> . 
<http://www.assero.co.uk/MDRSdtmM/CDISC/V1#M-CDISC_SDTMMODEL_TAETORD> rdf:type <http://www.assero.co.uk/BusinessDomain#ModelVariable> . 
<http://www.assero.co.uk/MDRSdtmM/CDISC/V1#M-CDISC_SDTMMODEL_TAETORD> rdfs:label "Planned Order of Elements within Arm"^^xsd:string . 
<http://www.assero.co.uk/MDRSdtmM/CDISC/V1#M-CDISC_SDTMMODEL_TAETORD> bd:ordinal "11"^^xsd:positiveInteger . 
<http://www.assero.co.uk/MDRSdtmM/CDISC/V1#M-CDISC_SDTMMODEL_TAETORD> bd:rule ""^^xsd:string . 
<http://www.assero.co.uk/MDRSdtmM/CDISC/V1#M-CDISC_SDTMMODEL_TAETORD> bd:name "TAETORD"^^xsd:string . 
<http://www.assero.co.uk/MDRSdtmM/CDISC/V1#M-CDISC_SDTMMODEL_TAETORD> bd:prefixed "false"^^xsd:boolean . 
<http://www.assero.co.uk/MDRSdtmM/CDISC/V1#M-CDISC_SDTMMODEL_TAETORD> bd:description "Number that gives the order of the Element within the Arm."^^xsd:string . 
<http://www.assero.co.uk/MDRSdtmM/CDISC/V1#M-CDISC_SDTMMODEL_TAETORD> bd:typedAs <http://www.assero.co.uk/MDRSdtmM/CDISC/V1#M-CDISC_SDTMMODEL_DT_NUM> . 
<http://www.assero.co.uk/MDRSdtmM/CDISC/V1#M-CDISC_SDTMMODEL_TAETORD> bd:classifiedAs <http://www.assero.co.uk/MDRSdtmM/CDISC/V1#M-CDISC_SDTMMODEL_C_TIMING> . 
<http://www.assero.co.uk/MDRSdtmM/CDISC/V1#M-CDISC_SDTMMODEL> bd:includesVariable <http://www.assero.co.uk/MDRSdtmM/CDISC/V1#M-CDISC_SDTMMODEL_TAETORD> . 
<http://www.assero.co.uk/MDRSdtmM/CDISC/V1#M-CDISC_SDTMMODEL_EPOCH> rdf:type <http://www.assero.co.uk/BusinessDomain#ModelVariable> . 
<http://www.assero.co.uk/MDRSdtmM/CDISC/V1#M-CDISC_SDTMMODEL_EPOCH> rdfs:label "Epoch"^^xsd:string . 
<http://www.assero.co.uk/MDRSdtmM/CDISC/V1#M-CDISC_SDTMMODEL_EPOCH> bd:ordinal "12"^^xsd:positiveInteger . 
<http://www.assero.co.uk/MDRSdtmM/CDISC/V1#M-CDISC_SDTMMODEL_EPOCH> bd:rule ""^^xsd:string . 
<http://www.assero.co.uk/MDRSdtmM/CDISC/V1#M-CDISC_SDTMMODEL_EPOCH> bd:name "EPOCH"^^xsd:string . 
<http://www.assero.co.uk/MDRSdtmM/CDISC/V1#M-CDISC_SDTMMODEL_EPOCH> bd:prefixed "false"^^xsd:boolean . 
<http://www.assero.co.uk/MDRSdtmM/CDISC/V1#M-CDISC_SDTMMODEL_EPOCH> bd:description "Epoch associated with the Element in the planned sequence of Elements for the ARM to which the subject was assigned"^^xsd:string . 
<http://www.assero.co.uk/MDRSdtmM/CDISC/V1#M-CDISC_SDTMMODEL_EPOCH> bd:typedAs <http://www.assero.co.uk/MDRSdtmM/CDISC/V1#M-CDISC_SDTMMODEL_DT_CHAR> . 
<http://www.assero.co.uk/MDRSdtmM/CDISC/V1#M-CDISC_SDTMMODEL_EPOCH> bd:classifiedAs <http://www.assero.co.uk/MDRSdtmM/CDISC/V1#M-CDISC_SDTMMODEL_C_TIMING> . 
<http://www.assero.co.uk/MDRSdtmM/CDISC/V1#M-CDISC_SDTMMODEL> bd:includesVariable <http://www.assero.co.uk/MDRSdtmM/CDISC/V1#M-CDISC_SDTMMODEL_EPOCH> . 
<http://www.assero.co.uk/MDRSdtmM/CDISC/V1#M-CDISC_SDTMMODEL_xxDTC> rdf:type <http://www.assero.co.uk/BusinessDomain#ModelVariable> . 
<http://www.assero.co.uk/MDRSdtmM/CDISC/V1#M-CDISC_SDTMMODEL_xxDTC> rdfs:label "Date/Time of Collection"^^xsd:string . 
<http://www.assero.co.uk/MDRSdtmM/CDISC/V1#M-CDISC_SDTMMODEL_xxDTC> bd:ordinal "13"^^xsd:positiveInteger . 
<http://www.assero.co.uk/MDRSdtmM/CDISC/V1#M-CDISC_SDTMMODEL_xxDTC> bd:rule ""^^xsd:string . 
<http://www.assero.co.uk/MDRSdtmM/CDISC/V1#M-CDISC_SDTMMODEL_xxDTC> bd:name "--DTC"^^xsd:string . 
<http://www.assero.co.uk/MDRSdtmM/CDISC/V1#M-CDISC_SDTMMODEL_xxDTC> bd:prefixed "true"^^xsd:boolean . 
<http://www.assero.co.uk/MDRSdtmM/CDISC/V1#M-CDISC_SDTMMODEL_xxDTC> bd:description "Collection date and time of an observation represented in IS0 8601 character format."^^xsd:string . 
<http://www.assero.co.uk/MDRSdtmM/CDISC/V1#M-CDISC_SDTMMODEL_xxDTC> bd:typedAs <http://www.assero.co.uk/MDRSdtmM/CDISC/V1#M-CDISC_SDTMMODEL_DT_CHAR> . 
<http://www.assero.co.uk/MDRSdtmM/CDISC/V1#M-CDISC_SDTMMODEL_xxDTC> bd:classifiedAs <http://www.assero.co.uk/MDRSdtmM/CDISC/V1#M-CDISC_SDTMMODEL_C_TIMING> . 
<http://www.assero.co.uk/MDRSdtmM/CDISC/V1#M-CDISC_SDTMMODEL> bd:includesVariable <http://www.assero.co.uk/MDRSdtmM/CDISC/V1#M-CDISC_SDTMMODEL_xxDTC> . 
<http://www.assero.co.uk/MDRSdtmM/CDISC/V1#M-CDISC_SDTMMODEL_xxSTDTC> rdf:type <http://www.assero.co.uk/BusinessDomain#ModelVariable> . 
<http://www.assero.co.uk/MDRSdtmM/CDISC/V1#M-CDISC_SDTMMODEL_xxSTDTC> rdfs:label "Start Date/Time of Observation"^^xsd:string . 
<http://www.assero.co.uk/MDRSdtmM/CDISC/V1#M-CDISC_SDTMMODEL_xxSTDTC> bd:ordinal "14"^^xsd:positiveInteger . 
<http://www.assero.co.uk/MDRSdtmM/CDISC/V1#M-CDISC_SDTMMODEL_xxSTDTC> bd:rule ""^^xsd:string . 
<http://www.assero.co.uk/MDRSdtmM/CDISC/V1#M-CDISC_SDTMMODEL_xxSTDTC> bd:name "--STDTC"^^xsd:string . 
<http://www.assero.co.uk/MDRSdtmM/CDISC/V1#M-CDISC_SDTMMODEL_xxSTDTC> bd:prefixed "true"^^xsd:boolean . 
<http://www.assero.co.uk/MDRSdtmM/CDISC/V1#M-CDISC_SDTMMODEL_xxSTDTC> bd:description "Start date/time of an observation represented in IS0 8601 character format."^^xsd:string . 
<http://www.assero.co.uk/MDRSdtmM/CDISC/V1#M-CDISC_SDTMMODEL_xxSTDTC> bd:typedAs <http://www.assero.co.uk/MDRSdtmM/CDISC/V1#M-CDISC_SDTMMODEL_DT_CHAR> . 
<http://www.assero.co.uk/MDRSdtmM/CDISC/V1#M-CDISC_SDTMMODEL_xxSTDTC> bd:classifiedAs <http://www.assero.co.uk/MDRSdtmM/CDISC/V1#M-CDISC_SDTMMODEL_C_TIMING> . 
<http://www.assero.co.uk/MDRSdtmM/CDISC/V1#M-CDISC_SDTMMODEL> bd:includesVariable <http://www.assero.co.uk/MDRSdtmM/CDISC/V1#M-CDISC_SDTMMODEL_xxSTDTC> . 
<http://www.assero.co.uk/MDRSdtmM/CDISC/V1#M-CDISC_SDTMMODEL_xxENDTC> rdf:type <http://www.assero.co.uk/BusinessDomain#ModelVariable> . 
<http://www.assero.co.uk/MDRSdtmM/CDISC/V1#M-CDISC_SDTMMODEL_xxENDTC> rdfs:label "End Date/Time of Observation"^^xsd:string . 
<http://www.assero.co.uk/MDRSdtmM/CDISC/V1#M-CDISC_SDTMMODEL_xxENDTC> bd:ordinal "15"^^xsd:positiveInteger . 
<http://www.assero.co.uk/MDRSdtmM/CDISC/V1#M-CDISC_SDTMMODEL_xxENDTC> bd:rule ""^^xsd:string . 
<http://www.assero.co.uk/MDRSdtmM/CDISC/V1#M-CDISC_SDTMMODEL_xxENDTC> bd:name "--ENDTC"^^xsd:string . 
<http://www.assero.co.uk/MDRSdtmM/CDISC/V1#M-CDISC_SDTMMODEL_xxENDTC> bd:prefixed "true"^^xsd:boolean . 
<http://www.assero.co.uk/MDRSdtmM/CDISC/V1#M-CDISC_SDTMMODEL_xxENDTC> bd:description "End date/time of the observation represented in IS0 8601 character format."^^xsd:string . 
<http://www.assero.co.uk/MDRSdtmM/CDISC/V1#M-CDISC_SDTMMODEL_xxENDTC> bd:typedAs <http://www.assero.co.uk/MDRSdtmM/CDISC/V1#M-CDISC_SDTMMODEL_DT_CHAR> . 
<http://www.assero.co.uk/MDRSdtmM/CDISC/V1#M-CDISC_SDTMMODEL_xxENDTC> bd:classifiedAs <http://www.assero.co.uk/MDRSdtmM/CDISC/V1#M-CDISC_SDTMMODEL_C_TIMING> . 
<http://www.assero.co.uk/MDRSdtmM/CDISC/V1#M-CDISC_SDTMMODEL> bd:includesVariable <http://www.assero.co.uk/MDRSdtmM/CDISC/V1#M-CDISC_SDTMMODEL_xxENDTC> . 
<http://www.assero.co.uk/MDRSdtmM/CDISC/V1#M-CDISC_SDTMMODEL_xxDY> rdf:type <http://www.assero.co.uk/BusinessDomain#ModelVariable> . 
<http://www.assero.co.uk/MDRSdtmM/CDISC/V1#M-CDISC_SDTMMODEL_xxDY> rdfs:label "Study Day of Visit/Collection/Exam"^^xsd:string . 
<http://www.assero.co.uk/MDRSdtmM/CDISC/V1#M-CDISC_SDTMMODEL_xxDY> bd:ordinal "16"^^xsd:positiveInteger . 
<http://www.assero.co.uk/MDRSdtmM/CDISC/V1#M-CDISC_SDTMMODEL_xxDY> bd:rule ""^^xsd:string . 
<http://www.assero.co.uk/MDRSdtmM/CDISC/V1#M-CDISC_SDTMMODEL_xxDY> bd:name "--DY"^^xsd:string . 
<http://www.assero.co.uk/MDRSdtmM/CDISC/V1#M-CDISC_SDTMMODEL_xxDY> bd:prefixed "true"^^xsd:boolean . 
<http://www.assero.co.uk/MDRSdtmM/CDISC/V1#M-CDISC_SDTMMODEL_xxDY> bd:description "Actual study day of visit/collection/exam expressed in integer days relative to the sponsor-defined RFSTDTC in Demographics."^^xsd:string . 
<http://www.assero.co.uk/MDRSdtmM/CDISC/V1#M-CDISC_SDTMMODEL_xxDY> bd:typedAs <http://www.assero.co.uk/MDRSdtmM/CDISC/V1#M-CDISC_SDTMMODEL_DT_NUM> . 
<http://www.assero.co.uk/MDRSdtmM/CDISC/V1#M-CDISC_SDTMMODEL_xxDY> bd:classifiedAs <http://www.assero.co.uk/MDRSdtmM/CDISC/V1#M-CDISC_SDTMMODEL_C_TIMING> . 
<http://www.assero.co.uk/MDRSdtmM/CDISC/V1#M-CDISC_SDTMMODEL> bd:includesVariable <http://www.assero.co.uk/MDRSdtmM/CDISC/V1#M-CDISC_SDTMMODEL_xxDY> . 
<http://www.assero.co.uk/MDRSdtmM/CDISC/V1#M-CDISC_SDTMMODEL_xxSTDY> rdf:type <http://www.assero.co.uk/BusinessDomain#ModelVariable> . 
<http://www.assero.co.uk/MDRSdtmM/CDISC/V1#M-CDISC_SDTMMODEL_xxSTDY> rdfs:label "Study Day of Start of Observation"^^xsd:string . 
<http://www.assero.co.uk/MDRSdtmM/CDISC/V1#M-CDISC_SDTMMODEL_xxSTDY> bd:ordinal "17"^^xsd:positiveInteger . 
<http://www.assero.co.uk/MDRSdtmM/CDISC/V1#M-CDISC_SDTMMODEL_xxSTDY> bd:rule ""^^xsd:string . 
<http://www.assero.co.uk/MDRSdtmM/CDISC/V1#M-CDISC_SDTMMODEL_xxSTDY> bd:name "--STDY"^^xsd:string . 
<http://www.assero.co.uk/MDRSdtmM/CDISC/V1#M-CDISC_SDTMMODEL_xxSTDY> bd:prefixed "true"^^xsd:boolean . 
<http://www.assero.co.uk/MDRSdtmM/CDISC/V1#M-CDISC_SDTMMODEL_xxSTDY> bd:description "Actual study day of start of observation expressed in integer days relative to the sponsor-defined RFSTDTC in Demographics."^^xsd:string . 
<http://www.assero.co.uk/MDRSdtmM/CDISC/V1#M-CDISC_SDTMMODEL_xxSTDY> bd:typedAs <http://www.assero.co.uk/MDRSdtmM/CDISC/V1#M-CDISC_SDTMMODEL_DT_NUM> . 
<http://www.assero.co.uk/MDRSdtmM/CDISC/V1#M-CDISC_SDTMMODEL_xxSTDY> bd:classifiedAs <http://www.assero.co.uk/MDRSdtmM/CDISC/V1#M-CDISC_SDTMMODEL_C_TIMING> . 
<http://www.assero.co.uk/MDRSdtmM/CDISC/V1#M-CDISC_SDTMMODEL> bd:includesVariable <http://www.assero.co.uk/MDRSdtmM/CDISC/V1#M-CDISC_SDTMMODEL_xxSTDY> . 
<http://www.assero.co.uk/MDRSdtmM/CDISC/V1#M-CDISC_SDTMMODEL_xxENDY> rdf:type <http://www.assero.co.uk/BusinessDomain#ModelVariable> . 
<http://www.assero.co.uk/MDRSdtmM/CDISC/V1#M-CDISC_SDTMMODEL_xxENDY> rdfs:label "Study Day of End of Observation"^^xsd:string . 
<http://www.assero.co.uk/MDRSdtmM/CDISC/V1#M-CDISC_SDTMMODEL_xxENDY> bd:ordinal "18"^^xsd:positiveInteger . 
<http://www.assero.co.uk/MDRSdtmM/CDISC/V1#M-CDISC_SDTMMODEL_xxENDY> bd:rule ""^^xsd:string . 
<http://www.assero.co.uk/MDRSdtmM/CDISC/V1#M-CDISC_SDTMMODEL_xxENDY> bd:name "--ENDY"^^xsd:string . 
<http://www.assero.co.uk/MDRSdtmM/CDISC/V1#M-CDISC_SDTMMODEL_xxENDY> bd:prefixed "true"^^xsd:boolean . 
<http://www.assero.co.uk/MDRSdtmM/CDISC/V1#M-CDISC_SDTMMODEL_xxENDY> bd:description "Actual study day of end of observation expressed in integer days relative to the sponsor-defined RFSTDTC in Demographics."^^xsd:string . 
<http://www.assero.co.uk/MDRSdtmM/CDISC/V1#M-CDISC_SDTMMODEL_xxENDY> bd:typedAs <http://www.assero.co.uk/MDRSdtmM/CDISC/V1#M-CDISC_SDTMMODEL_DT_NUM> . 
<http://www.assero.co.uk/MDRSdtmM/CDISC/V1#M-CDISC_SDTMMODEL_xxENDY> bd:classifiedAs <http://www.assero.co.uk/MDRSdtmM/CDISC/V1#M-CDISC_SDTMMODEL_C_TIMING> . 
<http://www.assero.co.uk/MDRSdtmM/CDISC/V1#M-CDISC_SDTMMODEL> bd:includesVariable <http://www.assero.co.uk/MDRSdtmM/CDISC/V1#M-CDISC_SDTMMODEL_xxENDY> . 
<http://www.assero.co.uk/MDRSdtmM/CDISC/V1#M-CDISC_SDTMMODEL_xxDUR> rdf:type <http://www.assero.co.uk/BusinessDomain#ModelVariable> . 
<http://www.assero.co.uk/MDRSdtmM/CDISC/V1#M-CDISC_SDTMMODEL_xxDUR> rdfs:label "Duration"^^xsd:string . 
<http://www.assero.co.uk/MDRSdtmM/CDISC/V1#M-CDISC_SDTMMODEL_xxDUR> bd:ordinal "19"^^xsd:positiveInteger . 
<http://www.assero.co.uk/MDRSdtmM/CDISC/V1#M-CDISC_SDTMMODEL_xxDUR> bd:rule ""^^xsd:string . 
<http://www.assero.co.uk/MDRSdtmM/CDISC/V1#M-CDISC_SDTMMODEL_xxDUR> bd:name "--DUR"^^xsd:string . 
<http://www.assero.co.uk/MDRSdtmM/CDISC/V1#M-CDISC_SDTMMODEL_xxDUR> bd:prefixed "true"^^xsd:boolean . 
<http://www.assero.co.uk/MDRSdtmM/CDISC/V1#M-CDISC_SDTMMODEL_xxDUR> bd:description "Collected duration of an event, intervention, or finding represented in ISO 8601 character format. Used only if collected on the CRF and not derived."^^xsd:string . 
<http://www.assero.co.uk/MDRSdtmM/CDISC/V1#M-CDISC_SDTMMODEL_xxDUR> bd:typedAs <http://www.assero.co.uk/MDRSdtmM/CDISC/V1#M-CDISC_SDTMMODEL_DT_CHAR> . 
<http://www.assero.co.uk/MDRSdtmM/CDISC/V1#M-CDISC_SDTMMODEL_xxDUR> bd:classifiedAs <http://www.assero.co.uk/MDRSdtmM/CDISC/V1#M-CDISC_SDTMMODEL_C_TIMING> . 
<http://www.assero.co.uk/MDRSdtmM/CDISC/V1#M-CDISC_SDTMMODEL> bd:includesVariable <http://www.assero.co.uk/MDRSdtmM/CDISC/V1#M-CDISC_SDTMMODEL_xxDUR> . 
<http://www.assero.co.uk/MDRSdtmM/CDISC/V1#M-CDISC_SDTMMODEL_xxTPT> rdf:type <http://www.assero.co.uk/BusinessDomain#ModelVariable> . 
<http://www.assero.co.uk/MDRSdtmM/CDISC/V1#M-CDISC_SDTMMODEL_xxTPT> rdfs:label "Planned Time Point Name"^^xsd:string . 
<http://www.assero.co.uk/MDRSdtmM/CDISC/V1#M-CDISC_SDTMMODEL_xxTPT> bd:ordinal "20"^^xsd:positiveInteger . 
<http://www.assero.co.uk/MDRSdtmM/CDISC/V1#M-CDISC_SDTMMODEL_xxTPT> bd:rule ""^^xsd:string . 
<http://www.assero.co.uk/MDRSdtmM/CDISC/V1#M-CDISC_SDTMMODEL_xxTPT> bd:name "--TPT"^^xsd:string . 
<http://www.assero.co.uk/MDRSdtmM/CDISC/V1#M-CDISC_SDTMMODEL_xxTPT> bd:prefixed "true"^^xsd:boolean . 
<http://www.assero.co.uk/MDRSdtmM/CDISC/V1#M-CDISC_SDTMMODEL_xxTPT> bd:description "Text description of time when a measurement or observation should be taken as defined in the protocol. This may be represented as an elapsed time relative to a fixed reference point, such as time of last dose. See --TPTNUM and --TPTREF."^^xsd:string . 
<http://www.assero.co.uk/MDRSdtmM/CDISC/V1#M-CDISC_SDTMMODEL_xxTPT> bd:typedAs <http://www.assero.co.uk/MDRSdtmM/CDISC/V1#M-CDISC_SDTMMODEL_DT_CHAR> . 
<http://www.assero.co.uk/MDRSdtmM/CDISC/V1#M-CDISC_SDTMMODEL_xxTPT> bd:classifiedAs <http://www.assero.co.uk/MDRSdtmM/CDISC/V1#M-CDISC_SDTMMODEL_C_TIMING> . 
<http://www.assero.co.uk/MDRSdtmM/CDISC/V1#M-CDISC_SDTMMODEL> bd:includesVariable <http://www.assero.co.uk/MDRSdtmM/CDISC/V1#M-CDISC_SDTMMODEL_xxTPT> . 
<http://www.assero.co.uk/MDRSdtmM/CDISC/V1#M-CDISC_SDTMMODEL_xxTPTNUM> rdf:type <http://www.assero.co.uk/BusinessDomain#ModelVariable> . 
<http://www.assero.co.uk/MDRSdtmM/CDISC/V1#M-CDISC_SDTMMODEL_xxTPTNUM> rdfs:label "Planned Time Point Number"^^xsd:string . 
<http://www.assero.co.uk/MDRSdtmM/CDISC/V1#M-CDISC_SDTMMODEL_xxTPTNUM> bd:ordinal "21"^^xsd:positiveInteger . 
<http://www.assero.co.uk/MDRSdtmM/CDISC/V1#M-CDISC_SDTMMODEL_xxTPTNUM> bd:rule ""^^xsd:string . 
<http://www.assero.co.uk/MDRSdtmM/CDISC/V1#M-CDISC_SDTMMODEL_xxTPTNUM> bd:name "--TPTNUM"^^xsd:string . 
<http://www.assero.co.uk/MDRSdtmM/CDISC/V1#M-CDISC_SDTMMODEL_xxTPTNUM> bd:prefixed "true"^^xsd:boolean . 
<http://www.assero.co.uk/MDRSdtmM/CDISC/V1#M-CDISC_SDTMMODEL_xxTPTNUM> bd:description "Numeric version of planned time point used in sorting."^^xsd:string . 
<http://www.assero.co.uk/MDRSdtmM/CDISC/V1#M-CDISC_SDTMMODEL_xxTPTNUM> bd:typedAs <http://www.assero.co.uk/MDRSdtmM/CDISC/V1#M-CDISC_SDTMMODEL_DT_NUM> . 
<http://www.assero.co.uk/MDRSdtmM/CDISC/V1#M-CDISC_SDTMMODEL_xxTPTNUM> bd:classifiedAs <http://www.assero.co.uk/MDRSdtmM/CDISC/V1#M-CDISC_SDTMMODEL_C_TIMING> . 
<http://www.assero.co.uk/MDRSdtmM/CDISC/V1#M-CDISC_SDTMMODEL> bd:includesVariable <http://www.assero.co.uk/MDRSdtmM/CDISC/V1#M-CDISC_SDTMMODEL_xxTPTNUM> . 
<http://www.assero.co.uk/MDRSdtmM/CDISC/V1#M-CDISC_SDTMMODEL_xxELTM> rdf:type <http://www.assero.co.uk/BusinessDomain#ModelVariable> . 
<http://www.assero.co.uk/MDRSdtmM/CDISC/V1#M-CDISC_SDTMMODEL_xxELTM> rdfs:label "Planned Elapsed Time from Time Point Ref"^^xsd:string . 
<http://www.assero.co.uk/MDRSdtmM/CDISC/V1#M-CDISC_SDTMMODEL_xxELTM> bd:ordinal "22"^^xsd:positiveInteger . 
<http://www.assero.co.uk/MDRSdtmM/CDISC/V1#M-CDISC_SDTMMODEL_xxELTM> bd:rule ""^^xsd:string . 
<http://www.assero.co.uk/MDRSdtmM/CDISC/V1#M-CDISC_SDTMMODEL_xxELTM> bd:name "--ELTM"^^xsd:string . 
<http://www.assero.co.uk/MDRSdtmM/CDISC/V1#M-CDISC_SDTMMODEL_xxELTM> bd:prefixed "true"^^xsd:boolean . 
<http://www.assero.co.uk/MDRSdtmM/CDISC/V1#M-CDISC_SDTMMODEL_xxELTM> bd:description "Planned Elapsed time in ISO 8601 character format relative to a planned fixed reference (--TPTREF) such as 'Previous Dose' or 'Previous Meal'. This variable is useful where there are repetitive measures. Not a clock time or a date/time variable, but an interval, represented as ISO duration."^^xsd:string . 
<http://www.assero.co.uk/MDRSdtmM/CDISC/V1#M-CDISC_SDTMMODEL_xxELTM> bd:typedAs <http://www.assero.co.uk/MDRSdtmM/CDISC/V1#M-CDISC_SDTMMODEL_DT_CHAR> . 
<http://www.assero.co.uk/MDRSdtmM/CDISC/V1#M-CDISC_SDTMMODEL_xxELTM> bd:classifiedAs <http://www.assero.co.uk/MDRSdtmM/CDISC/V1#M-CDISC_SDTMMODEL_C_TIMING> . 
<http://www.assero.co.uk/MDRSdtmM/CDISC/V1#M-CDISC_SDTMMODEL> bd:includesVariable <http://www.assero.co.uk/MDRSdtmM/CDISC/V1#M-CDISC_SDTMMODEL_xxELTM> . 
<http://www.assero.co.uk/MDRSdtmM/CDISC/V1#M-CDISC_SDTMMODEL_xxTPTREF> rdf:type <http://www.assero.co.uk/BusinessDomain#ModelVariable> . 
<http://www.assero.co.uk/MDRSdtmM/CDISC/V1#M-CDISC_SDTMMODEL_xxTPTREF> rdfs:label "Time Point Reference"^^xsd:string . 
<http://www.assero.co.uk/MDRSdtmM/CDISC/V1#M-CDISC_SDTMMODEL_xxTPTREF> bd:ordinal "23"^^xsd:positiveInteger . 
<http://www.assero.co.uk/MDRSdtmM/CDISC/V1#M-CDISC_SDTMMODEL_xxTPTREF> bd:rule ""^^xsd:string . 
<http://www.assero.co.uk/MDRSdtmM/CDISC/V1#M-CDISC_SDTMMODEL_xxTPTREF> bd:name "--TPTREF"^^xsd:string . 
<http://www.assero.co.uk/MDRSdtmM/CDISC/V1#M-CDISC_SDTMMODEL_xxTPTREF> bd:prefixed "true"^^xsd:boolean . 
<http://www.assero.co.uk/MDRSdtmM/CDISC/V1#M-CDISC_SDTMMODEL_xxTPTREF> bd:description "Description of the fixed reference point referred to by --ELTM, --TPTNUM, and --TPT. Examples: PREVIOUS DOSE, PREVIOUS MEAL."^^xsd:string . 
<http://www.assero.co.uk/MDRSdtmM/CDISC/V1#M-CDISC_SDTMMODEL_xxTPTREF> bd:typedAs <http://www.assero.co.uk/MDRSdtmM/CDISC/V1#M-CDISC_SDTMMODEL_DT_CHAR> . 
<http://www.assero.co.uk/MDRSdtmM/CDISC/V1#M-CDISC_SDTMMODEL_xxTPTREF> bd:classifiedAs <http://www.assero.co.uk/MDRSdtmM/CDISC/V1#M-CDISC_SDTMMODEL_C_TIMING> . 
<http://www.assero.co.uk/MDRSdtmM/CDISC/V1#M-CDISC_SDTMMODEL> bd:includesVariable <http://www.assero.co.uk/MDRSdtmM/CDISC/V1#M-CDISC_SDTMMODEL_xxTPTREF> . 
<http://www.assero.co.uk/MDRSdtmM/CDISC/V1#M-CDISC_SDTMMODEL_xxRFTDTC> rdf:type <http://www.assero.co.uk/BusinessDomain#ModelVariable> . 
<http://www.assero.co.uk/MDRSdtmM/CDISC/V1#M-CDISC_SDTMMODEL_xxRFTDTC> rdfs:label "Date/Time of Reference Time Point"^^xsd:string . 
<http://www.assero.co.uk/MDRSdtmM/CDISC/V1#M-CDISC_SDTMMODEL_xxRFTDTC> bd:ordinal "24"^^xsd:positiveInteger . 
<http://www.assero.co.uk/MDRSdtmM/CDISC/V1#M-CDISC_SDTMMODEL_xxRFTDTC> bd:rule ""^^xsd:string . 
<http://www.assero.co.uk/MDRSdtmM/CDISC/V1#M-CDISC_SDTMMODEL_xxRFTDTC> bd:name "--RFTDTC"^^xsd:string . 
<http://www.assero.co.uk/MDRSdtmM/CDISC/V1#M-CDISC_SDTMMODEL_xxRFTDTC> bd:prefixed "true"^^xsd:boolean . 
<http://www.assero.co.uk/MDRSdtmM/CDISC/V1#M-CDISC_SDTMMODEL_xxRFTDTC> bd:description "Date/time for a fixed reference time point defined by --TPTREF in ISO 8601 character format."^^xsd:string . 
<http://www.assero.co.uk/MDRSdtmM/CDISC/V1#M-CDISC_SDTMMODEL_xxRFTDTC> bd:typedAs <http://www.assero.co.uk/MDRSdtmM/CDISC/V1#M-CDISC_SDTMMODEL_DT_CHAR> . 
<http://www.assero.co.uk/MDRSdtmM/CDISC/V1#M-CDISC_SDTMMODEL_xxRFTDTC> bd:classifiedAs <http://www.assero.co.uk/MDRSdtmM/CDISC/V1#M-CDISC_SDTMMODEL_C_TIMING> . 
<http://www.assero.co.uk/MDRSdtmM/CDISC/V1#M-CDISC_SDTMMODEL> bd:includesVariable <http://www.assero.co.uk/MDRSdtmM/CDISC/V1#M-CDISC_SDTMMODEL_xxRFTDTC> . 
<http://www.assero.co.uk/MDRSdtmM/CDISC/V1#M-CDISC_SDTMMODEL_xxSTRF> rdf:type <http://www.assero.co.uk/BusinessDomain#ModelVariable> . 
<http://www.assero.co.uk/MDRSdtmM/CDISC/V1#M-CDISC_SDTMMODEL_xxSTRF> rdfs:label "Start Relative to Reference Period"^^xsd:string . 
<http://www.assero.co.uk/MDRSdtmM/CDISC/V1#M-CDISC_SDTMMODEL_xxSTRF> bd:ordinal "25"^^xsd:positiveInteger . 
<http://www.assero.co.uk/MDRSdtmM/CDISC/V1#M-CDISC_SDTMMODEL_xxSTRF> bd:rule ""^^xsd:string . 
<http://www.assero.co.uk/MDRSdtmM/CDISC/V1#M-CDISC_SDTMMODEL_xxSTRF> bd:name "--STRF"^^xsd:string . 
<http://www.assero.co.uk/MDRSdtmM/CDISC/V1#M-CDISC_SDTMMODEL_xxSTRF> bd:prefixed "true"^^xsd:boolean . 
<http://www.assero.co.uk/MDRSdtmM/CDISC/V1#M-CDISC_SDTMMODEL_xxSTRF> bd:description "Identifies the start of the observation as being before, during, or after the sponsor-defined reference period. The sponsor-defined reference period is a continuous period of time defined by a discrete starting point and a discrete ending point represented by RFSTDTC and RFENDTC in Demographics."^^xsd:string . 
<http://www.assero.co.uk/MDRSdtmM/CDISC/V1#M-CDISC_SDTMMODEL_xxSTRF> bd:typedAs <http://www.assero.co.uk/MDRSdtmM/CDISC/V1#M-CDISC_SDTMMODEL_DT_CHAR> . 
<http://www.assero.co.uk/MDRSdtmM/CDISC/V1#M-CDISC_SDTMMODEL_xxSTRF> bd:classifiedAs <http://www.assero.co.uk/MDRSdtmM/CDISC/V1#M-CDISC_SDTMMODEL_C_TIMING> . 
<http://www.assero.co.uk/MDRSdtmM/CDISC/V1#M-CDISC_SDTMMODEL> bd:includesVariable <http://www.assero.co.uk/MDRSdtmM/CDISC/V1#M-CDISC_SDTMMODEL_xxSTRF> . 
<http://www.assero.co.uk/MDRSdtmM/CDISC/V1#M-CDISC_SDTMMODEL_xxENRF> rdf:type <http://www.assero.co.uk/BusinessDomain#ModelVariable> . 
<http://www.assero.co.uk/MDRSdtmM/CDISC/V1#M-CDISC_SDTMMODEL_xxENRF> rdfs:label "End Relative to Reference Period"^^xsd:string . 
<http://www.assero.co.uk/MDRSdtmM/CDISC/V1#M-CDISC_SDTMMODEL_xxENRF> bd:ordinal "26"^^xsd:positiveInteger . 
<http://www.assero.co.uk/MDRSdtmM/CDISC/V1#M-CDISC_SDTMMODEL_xxENRF> bd:rule ""^^xsd:string . 
<http://www.assero.co.uk/MDRSdtmM/CDISC/V1#M-CDISC_SDTMMODEL_xxENRF> bd:name "--ENRF"^^xsd:string . 
<http://www.assero.co.uk/MDRSdtmM/CDISC/V1#M-CDISC_SDTMMODEL_xxENRF> bd:prefixed "true"^^xsd:boolean . 
<http://www.assero.co.uk/MDRSdtmM/CDISC/V1#M-CDISC_SDTMMODEL_xxENRF> bd:description "Identifies the end of the observation as being before, during or after the sponsor-defined reference period. The sponsor-defined reference period is a continuous period of time defined by a discrete starting point and a discrete ending point represented by RFSTDTC and RFENDTC in Demographics."^^xsd:string . 
<http://www.assero.co.uk/MDRSdtmM/CDISC/V1#M-CDISC_SDTMMODEL_xxENRF> bd:typedAs <http://www.assero.co.uk/MDRSdtmM/CDISC/V1#M-CDISC_SDTMMODEL_DT_CHAR> . 
<http://www.assero.co.uk/MDRSdtmM/CDISC/V1#M-CDISC_SDTMMODEL_xxENRF> bd:classifiedAs <http://www.assero.co.uk/MDRSdtmM/CDISC/V1#M-CDISC_SDTMMODEL_C_TIMING> . 
<http://www.assero.co.uk/MDRSdtmM/CDISC/V1#M-CDISC_SDTMMODEL> bd:includesVariable <http://www.assero.co.uk/MDRSdtmM/CDISC/V1#M-CDISC_SDTMMODEL_xxENRF> . 
<http://www.assero.co.uk/MDRSdtmM/CDISC/V1#M-CDISC_SDTMMODEL_xxEVLINT> rdf:type <http://www.assero.co.uk/BusinessDomain#ModelVariable> . 
<http://www.assero.co.uk/MDRSdtmM/CDISC/V1#M-CDISC_SDTMMODEL_xxEVLINT> rdfs:label "Evaluation Interval"^^xsd:string . 
<http://www.assero.co.uk/MDRSdtmM/CDISC/V1#M-CDISC_SDTMMODEL_xxEVLINT> bd:ordinal "27"^^xsd:positiveInteger . 
<http://www.assero.co.uk/MDRSdtmM/CDISC/V1#M-CDISC_SDTMMODEL_xxEVLINT> bd:rule ""^^xsd:string . 
<http://www.assero.co.uk/MDRSdtmM/CDISC/V1#M-CDISC_SDTMMODEL_xxEVLINT> bd:name "--EVLINT"^^xsd:string . 
<http://www.assero.co.uk/MDRSdtmM/CDISC/V1#M-CDISC_SDTMMODEL_xxEVLINT> bd:prefixed "true"^^xsd:boolean . 
<http://www.assero.co.uk/MDRSdtmM/CDISC/V1#M-CDISC_SDTMMODEL_xxEVLINT> bd:description "Evaluation interval associated with an observation such as a finding --TESTCD, represented in ISO 8601 character format. Example: -P2M to represent a period of the past 2 months as the evaluation interval for a question from a questionnaire such as SF-36."^^xsd:string . 
<http://www.assero.co.uk/MDRSdtmM/CDISC/V1#M-CDISC_SDTMMODEL_xxEVLINT> bd:typedAs <http://www.assero.co.uk/MDRSdtmM/CDISC/V1#M-CDISC_SDTMMODEL_DT_CHAR> . 
<http://www.assero.co.uk/MDRSdtmM/CDISC/V1#M-CDISC_SDTMMODEL_xxEVLINT> bd:classifiedAs <http://www.assero.co.uk/MDRSdtmM/CDISC/V1#M-CDISC_SDTMMODEL_C_TIMING> . 
<http://www.assero.co.uk/MDRSdtmM/CDISC/V1#M-CDISC_SDTMMODEL> bd:includesVariable <http://www.assero.co.uk/MDRSdtmM/CDISC/V1#M-CDISC_SDTMMODEL_xxEVLINT> . 
<http://www.assero.co.uk/MDRSdtmM/CDISC/V1#M-CDISC_SDTMMODEL_xxSTRTPT> rdf:type <http://www.assero.co.uk/BusinessDomain#ModelVariable> . 
<http://www.assero.co.uk/MDRSdtmM/CDISC/V1#M-CDISC_SDTMMODEL_xxSTRTPT> rdfs:label "Start Relative to Reference Time Point"^^xsd:string . 
<http://www.assero.co.uk/MDRSdtmM/CDISC/V1#M-CDISC_SDTMMODEL_xxSTRTPT> bd:ordinal "28"^^xsd:positiveInteger . 
<http://www.assero.co.uk/MDRSdtmM/CDISC/V1#M-CDISC_SDTMMODEL_xxSTRTPT> bd:rule ""^^xsd:string . 
<http://www.assero.co.uk/MDRSdtmM/CDISC/V1#M-CDISC_SDTMMODEL_xxSTRTPT> bd:name "--STRTPT"^^xsd:string . 
<http://www.assero.co.uk/MDRSdtmM/CDISC/V1#M-CDISC_SDTMMODEL_xxSTRTPT> bd:prefixed "true"^^xsd:boolean . 
<http://www.assero.co.uk/MDRSdtmM/CDISC/V1#M-CDISC_SDTMMODEL_xxSTRTPT> bd:description "Identifies the start of the observation as being before or after the sponsor-defined reference time point defined by variable --STTPT."^^xsd:string . 
<http://www.assero.co.uk/MDRSdtmM/CDISC/V1#M-CDISC_SDTMMODEL_xxSTRTPT> bd:typedAs <http://www.assero.co.uk/MDRSdtmM/CDISC/V1#M-CDISC_SDTMMODEL_DT_CHAR> . 
<http://www.assero.co.uk/MDRSdtmM/CDISC/V1#M-CDISC_SDTMMODEL_xxSTRTPT> bd:classifiedAs <http://www.assero.co.uk/MDRSdtmM/CDISC/V1#M-CDISC_SDTMMODEL_C_TIMING> . 
<http://www.assero.co.uk/MDRSdtmM/CDISC/V1#M-CDISC_SDTMMODEL> bd:includesVariable <http://www.assero.co.uk/MDRSdtmM/CDISC/V1#M-CDISC_SDTMMODEL_xxSTRTPT> . 
<http://www.assero.co.uk/MDRSdtmM/CDISC/V1#M-CDISC_SDTMMODEL_xxSTTPT> rdf:type <http://www.assero.co.uk/BusinessDomain#ModelVariable> . 
<http://www.assero.co.uk/MDRSdtmM/CDISC/V1#M-CDISC_SDTMMODEL_xxSTTPT> rdfs:label "Start Reference Time Point"^^xsd:string . 
<http://www.assero.co.uk/MDRSdtmM/CDISC/V1#M-CDISC_SDTMMODEL_xxSTTPT> bd:ordinal "29"^^xsd:positiveInteger . 
<http://www.assero.co.uk/MDRSdtmM/CDISC/V1#M-CDISC_SDTMMODEL_xxSTTPT> bd:rule ""^^xsd:string . 
<http://www.assero.co.uk/MDRSdtmM/CDISC/V1#M-CDISC_SDTMMODEL_xxSTTPT> bd:name "--STTPT"^^xsd:string . 
<http://www.assero.co.uk/MDRSdtmM/CDISC/V1#M-CDISC_SDTMMODEL_xxSTTPT> bd:prefixed "true"^^xsd:boolean . 
<http://www.assero.co.uk/MDRSdtmM/CDISC/V1#M-CDISC_SDTMMODEL_xxSTTPT> bd:description "Description or date/time in ISO 8601 character format of the sponsor-defined reference point referred to by --STRTPT. Examples: '2003-12-15' or 'VISIT 1'."^^xsd:string . 
<http://www.assero.co.uk/MDRSdtmM/CDISC/V1#M-CDISC_SDTMMODEL_xxSTTPT> bd:typedAs <http://www.assero.co.uk/MDRSdtmM/CDISC/V1#M-CDISC_SDTMMODEL_DT_CHAR> . 
<http://www.assero.co.uk/MDRSdtmM/CDISC/V1#M-CDISC_SDTMMODEL_xxSTTPT> bd:classifiedAs <http://www.assero.co.uk/MDRSdtmM/CDISC/V1#M-CDISC_SDTMMODEL_C_TIMING> . 
<http://www.assero.co.uk/MDRSdtmM/CDISC/V1#M-CDISC_SDTMMODEL> bd:includesVariable <http://www.assero.co.uk/MDRSdtmM/CDISC/V1#M-CDISC_SDTMMODEL_xxSTTPT> . 
<http://www.assero.co.uk/MDRSdtmM/CDISC/V1#M-CDISC_SDTMMODEL_xxENRTPT> rdf:type <http://www.assero.co.uk/BusinessDomain#ModelVariable> . 
<http://www.assero.co.uk/MDRSdtmM/CDISC/V1#M-CDISC_SDTMMODEL_xxENRTPT> rdfs:label "End Relative to Reference Time Point"^^xsd:string . 
<http://www.assero.co.uk/MDRSdtmM/CDISC/V1#M-CDISC_SDTMMODEL_xxENRTPT> bd:ordinal "30"^^xsd:positiveInteger . 
<http://www.assero.co.uk/MDRSdtmM/CDISC/V1#M-CDISC_SDTMMODEL_xxENRTPT> bd:rule ""^^xsd:string . 
<http://www.assero.co.uk/MDRSdtmM/CDISC/V1#M-CDISC_SDTMMODEL_xxENRTPT> bd:name "--ENRTPT"^^xsd:string . 
<http://www.assero.co.uk/MDRSdtmM/CDISC/V1#M-CDISC_SDTMMODEL_xxENRTPT> bd:prefixed "true"^^xsd:boolean . 
<http://www.assero.co.uk/MDRSdtmM/CDISC/V1#M-CDISC_SDTMMODEL_xxENRTPT> bd:description "Identifies the end of the observation as being before or after the sponsor-defined reference time point defined by variable --ENTPT."^^xsd:string . 
<http://www.assero.co.uk/MDRSdtmM/CDISC/V1#M-CDISC_SDTMMODEL_xxENRTPT> bd:typedAs <http://www.assero.co.uk/MDRSdtmM/CDISC/V1#M-CDISC_SDTMMODEL_DT_CHAR> . 
<http://www.assero.co.uk/MDRSdtmM/CDISC/V1#M-CDISC_SDTMMODEL_xxENRTPT> bd:classifiedAs <http://www.assero.co.uk/MDRSdtmM/CDISC/V1#M-CDISC_SDTMMODEL_C_TIMING> . 
<http://www.assero.co.uk/MDRSdtmM/CDISC/V1#M-CDISC_SDTMMODEL> bd:includesVariable <http://www.assero.co.uk/MDRSdtmM/CDISC/V1#M-CDISC_SDTMMODEL_xxENRTPT> . 
<http://www.assero.co.uk/MDRSdtmM/CDISC/V1#M-CDISC_SDTMMODEL_xxENTPT> rdf:type <http://www.assero.co.uk/BusinessDomain#ModelVariable> . 
<http://www.assero.co.uk/MDRSdtmM/CDISC/V1#M-CDISC_SDTMMODEL_xxENTPT> rdfs:label "End Reference Time Point"^^xsd:string . 
<http://www.assero.co.uk/MDRSdtmM/CDISC/V1#M-CDISC_SDTMMODEL_xxENTPT> bd:ordinal "31"^^xsd:positiveInteger . 
<http://www.assero.co.uk/MDRSdtmM/CDISC/V1#M-CDISC_SDTMMODEL_xxENTPT> bd:rule ""^^xsd:string . 
<http://www.assero.co.uk/MDRSdtmM/CDISC/V1#M-CDISC_SDTMMODEL_xxENTPT> bd:name "--ENTPT"^^xsd:string . 
<http://www.assero.co.uk/MDRSdtmM/CDISC/V1#M-CDISC_SDTMMODEL_xxENTPT> bd:prefixed "true"^^xsd:boolean . 
<http://www.assero.co.uk/MDRSdtmM/CDISC/V1#M-CDISC_SDTMMODEL_xxENTPT> bd:description "Description or date/time in ISO 8601 character format of the sponsor-defined reference point referred to by --ENRTPT. Examples: '2003-12-25' or 'VISIT 2'."^^xsd:string . 
<http://www.assero.co.uk/MDRSdtmM/CDISC/V1#M-CDISC_SDTMMODEL_xxENTPT> bd:typedAs <http://www.assero.co.uk/MDRSdtmM/CDISC/V1#M-CDISC_SDTMMODEL_DT_CHAR> . 
<http://www.assero.co.uk/MDRSdtmM/CDISC/V1#M-CDISC_SDTMMODEL_xxENTPT> bd:classifiedAs <http://www.assero.co.uk/MDRSdtmM/CDISC/V1#M-CDISC_SDTMMODEL_C_TIMING> . 
<http://www.assero.co.uk/MDRSdtmM/CDISC/V1#M-CDISC_SDTMMODEL> bd:includesVariable <http://www.assero.co.uk/MDRSdtmM/CDISC/V1#M-CDISC_SDTMMODEL_xxENTPT> . 
<http://www.assero.co.uk/MDRSdtmM/CDISC/V1#M-CDISC_SDTMMODEL_xxTERM> rdf:type <http://www.assero.co.uk/BusinessDomain#ModelVariable> . 
<http://www.assero.co.uk/MDRSdtmM/CDISC/V1#M-CDISC_SDTMMODEL_xxTERM> rdfs:label "Reported Term"^^xsd:string . 
<http://www.assero.co.uk/MDRSdtmM/CDISC/V1#M-CDISC_SDTMMODEL_xxTERM> bd:ordinal "1"^^xsd:positiveInteger . 
<http://www.assero.co.uk/MDRSdtmM/CDISC/V1#M-CDISC_SDTMMODEL_xxTERM> bd:rule ""^^xsd:string . 
<http://www.assero.co.uk/MDRSdtmM/CDISC/V1#M-CDISC_SDTMMODEL_xxTERM> bd:name "--TERM"^^xsd:string . 
<http://www.assero.co.uk/MDRSdtmM/CDISC/V1#M-CDISC_SDTMMODEL_xxTERM> bd:prefixed "true"^^xsd:boolean . 
<http://www.assero.co.uk/MDRSdtmM/CDISC/V1#M-CDISC_SDTMMODEL_xxTERM> bd:description "Topic variable for an event observation, which is the verbatim or pre-specified name of the event."^^xsd:string . 
<http://www.assero.co.uk/MDRSdtmM/CDISC/V1#M-CDISC_SDTMMODEL_xxTERM> bd:typedAs <http://www.assero.co.uk/MDRSdtmM/CDISC/V1#M-CDISC_SDTMMODEL_DT_CHAR> . 
<http://www.assero.co.uk/MDRSdtmM/CDISC/V1#M-CDISC_SDTMMODEL_xxTERM> bd:classifiedAs <http://www.assero.co.uk/MDRSdtmM/CDISC/V1#M-CDISC_SDTMMODEL_C_TOPIC> . 
<http://www.assero.co.uk/MDRSdtmM/CDISC/V1#M-CDISC_SDTMMODEL> bd:includesVariable <http://www.assero.co.uk/MDRSdtmM/CDISC/V1#M-CDISC_SDTMMODEL_xxTERM> . 
<http://www.assero.co.uk/MDRSdtmM/CDISC/V1#M-CDISC_SDTMMODEL_xxMODIFY> rdf:type <http://www.assero.co.uk/BusinessDomain#ModelVariable> . 
<http://www.assero.co.uk/MDRSdtmM/CDISC/V1#M-CDISC_SDTMMODEL_xxMODIFY> rdfs:label "Modified Reported Term"^^xsd:string . 
<http://www.assero.co.uk/MDRSdtmM/CDISC/V1#M-CDISC_SDTMMODEL_xxMODIFY> bd:ordinal "2"^^xsd:positiveInteger . 
<http://www.assero.co.uk/MDRSdtmM/CDISC/V1#M-CDISC_SDTMMODEL_xxMODIFY> bd:rule ""^^xsd:string . 
<http://www.assero.co.uk/MDRSdtmM/CDISC/V1#M-CDISC_SDTMMODEL_xxMODIFY> bd:name "--MODIFY"^^xsd:string . 
<http://www.assero.co.uk/MDRSdtmM/CDISC/V1#M-CDISC_SDTMMODEL_xxMODIFY> bd:prefixed "true"^^xsd:boolean . 
<http://www.assero.co.uk/MDRSdtmM/CDISC/V1#M-CDISC_SDTMMODEL_xxMODIFY> bd:description "If the value for --TRT is modified for coding purposes, then the modified text is placed here."^^xsd:string . 
<http://www.assero.co.uk/MDRSdtmM/CDISC/V1#M-CDISC_SDTMMODEL_xxMODIFY> bd:typedAs <http://www.assero.co.uk/MDRSdtmM/CDISC/V1#M-CDISC_SDTMMODEL_DT_CHAR> . 
<http://www.assero.co.uk/MDRSdtmM/CDISC/V1#M-CDISC_SDTMMODEL_xxMODIFY> bd:classifiedAs <http://www.assero.co.uk/MDRSdtmM/CDISC/V1#M-CDISC_SDTMMODEL_C_QUALIFIER_SC_SYNONYMQUALIFIER> . 
<http://www.assero.co.uk/MDRSdtmM/CDISC/V1#M-CDISC_SDTMMODEL> bd:includesVariable <http://www.assero.co.uk/MDRSdtmM/CDISC/V1#M-CDISC_SDTMMODEL_xxMODIFY> . 
<http://www.assero.co.uk/MDRSdtmM/CDISC/V1#M-CDISC_SDTMMODEL_xxDECOD> rdf:type <http://www.assero.co.uk/BusinessDomain#ModelVariable> . 
<http://www.assero.co.uk/MDRSdtmM/CDISC/V1#M-CDISC_SDTMMODEL_xxDECOD> rdfs:label "Dictionary-Derived Term"^^xsd:string . 
<http://www.assero.co.uk/MDRSdtmM/CDISC/V1#M-CDISC_SDTMMODEL_xxDECOD> bd:ordinal "3"^^xsd:positiveInteger . 
<http://www.assero.co.uk/MDRSdtmM/CDISC/V1#M-CDISC_SDTMMODEL_xxDECOD> bd:rule ""^^xsd:string . 
<http://www.assero.co.uk/MDRSdtmM/CDISC/V1#M-CDISC_SDTMMODEL_xxDECOD> bd:name "--DECOD"^^xsd:string . 
<http://www.assero.co.uk/MDRSdtmM/CDISC/V1#M-CDISC_SDTMMODEL_xxDECOD> bd:prefixed "true"^^xsd:boolean . 
<http://www.assero.co.uk/MDRSdtmM/CDISC/V1#M-CDISC_SDTMMODEL_xxDECOD> bd:description "Standardized or dictionary-derived name of the topic variable, --TRT, or the modified topic variable (--MODIFY), if applicable. Equivalent to the generic drug name in WHO Drug, or a term in SNOMED, ICD9, or other published or sponsor-defined dictionaries."^^xsd:string . 
<http://www.assero.co.uk/MDRSdtmM/CDISC/V1#M-CDISC_SDTMMODEL_xxDECOD> bd:typedAs <http://www.assero.co.uk/MDRSdtmM/CDISC/V1#M-CDISC_SDTMMODEL_DT_CHAR> . 
<http://www.assero.co.uk/MDRSdtmM/CDISC/V1#M-CDISC_SDTMMODEL_xxDECOD> bd:classifiedAs <http://www.assero.co.uk/MDRSdtmM/CDISC/V1#M-CDISC_SDTMMODEL_C_QUALIFIER_SC_SYNONYMQUALIFIER> . 
<http://www.assero.co.uk/MDRSdtmM/CDISC/V1#M-CDISC_SDTMMODEL> bd:includesVariable <http://www.assero.co.uk/MDRSdtmM/CDISC/V1#M-CDISC_SDTMMODEL_xxDECOD> . 
<http://www.assero.co.uk/MDRSdtmM/CDISC/V1#M-CDISC_SDTMMODEL_xxCAT> rdf:type <http://www.assero.co.uk/BusinessDomain#ModelVariable> . 
<http://www.assero.co.uk/MDRSdtmM/CDISC/V1#M-CDISC_SDTMMODEL_xxCAT> rdfs:label "Category"^^xsd:string . 
<http://www.assero.co.uk/MDRSdtmM/CDISC/V1#M-CDISC_SDTMMODEL_xxCAT> bd:ordinal "4"^^xsd:positiveInteger . 
<http://www.assero.co.uk/MDRSdtmM/CDISC/V1#M-CDISC_SDTMMODEL_xxCAT> bd:rule ""^^xsd:string . 
<http://www.assero.co.uk/MDRSdtmM/CDISC/V1#M-CDISC_SDTMMODEL_xxCAT> bd:name "--CAT"^^xsd:string . 
<http://www.assero.co.uk/MDRSdtmM/CDISC/V1#M-CDISC_SDTMMODEL_xxCAT> bd:prefixed "true"^^xsd:boolean . 
<http://www.assero.co.uk/MDRSdtmM/CDISC/V1#M-CDISC_SDTMMODEL_xxCAT> bd:description "Used to define a category of topic-variable values. Examples: HEMATOLOGY, URINALYSIS, CHEMISTRY, HAMILTON DEPRESSION SCALE, SF36."^^xsd:string . 
<http://www.assero.co.uk/MDRSdtmM/CDISC/V1#M-CDISC_SDTMMODEL_xxCAT> bd:typedAs <http://www.assero.co.uk/MDRSdtmM/CDISC/V1#M-CDISC_SDTMMODEL_DT_CHAR> . 
<http://www.assero.co.uk/MDRSdtmM/CDISC/V1#M-CDISC_SDTMMODEL_xxCAT> bd:classifiedAs <http://www.assero.co.uk/MDRSdtmM/CDISC/V1#M-CDISC_SDTMMODEL_C_QUALIFIER_SC_GROUPINGQUALIFIER> . 
<http://www.assero.co.uk/MDRSdtmM/CDISC/V1#M-CDISC_SDTMMODEL> bd:includesVariable <http://www.assero.co.uk/MDRSdtmM/CDISC/V1#M-CDISC_SDTMMODEL_xxCAT> . 
<http://www.assero.co.uk/MDRSdtmM/CDISC/V1#M-CDISC_SDTMMODEL_xxSCAT> rdf:type <http://www.assero.co.uk/BusinessDomain#ModelVariable> . 
<http://www.assero.co.uk/MDRSdtmM/CDISC/V1#M-CDISC_SDTMMODEL_xxSCAT> rdfs:label "Subcategory"^^xsd:string . 
<http://www.assero.co.uk/MDRSdtmM/CDISC/V1#M-CDISC_SDTMMODEL_xxSCAT> bd:ordinal "5"^^xsd:positiveInteger . 
<http://www.assero.co.uk/MDRSdtmM/CDISC/V1#M-CDISC_SDTMMODEL_xxSCAT> bd:rule ""^^xsd:string . 
<http://www.assero.co.uk/MDRSdtmM/CDISC/V1#M-CDISC_SDTMMODEL_xxSCAT> bd:name "--SCAT"^^xsd:string . 
<http://www.assero.co.uk/MDRSdtmM/CDISC/V1#M-CDISC_SDTMMODEL_xxSCAT> bd:prefixed "true"^^xsd:boolean . 
<http://www.assero.co.uk/MDRSdtmM/CDISC/V1#M-CDISC_SDTMMODEL_xxSCAT> bd:description "Used to define a further categorization of --CAT values."^^xsd:string . 
<http://www.assero.co.uk/MDRSdtmM/CDISC/V1#M-CDISC_SDTMMODEL_xxSCAT> bd:typedAs <http://www.assero.co.uk/MDRSdtmM/CDISC/V1#M-CDISC_SDTMMODEL_DT_CHAR> . 
<http://www.assero.co.uk/MDRSdtmM/CDISC/V1#M-CDISC_SDTMMODEL_xxSCAT> bd:classifiedAs <http://www.assero.co.uk/MDRSdtmM/CDISC/V1#M-CDISC_SDTMMODEL_C_QUALIFIER_SC_GROUPINGQUALIFIER> . 
<http://www.assero.co.uk/MDRSdtmM/CDISC/V1#M-CDISC_SDTMMODEL> bd:includesVariable <http://www.assero.co.uk/MDRSdtmM/CDISC/V1#M-CDISC_SDTMMODEL_xxSCAT> . 
<http://www.assero.co.uk/MDRSdtmM/CDISC/V1#M-CDISC_SDTMMODEL_xxPRESP> rdf:type <http://www.assero.co.uk/BusinessDomain#ModelVariable> . 
<http://www.assero.co.uk/MDRSdtmM/CDISC/V1#M-CDISC_SDTMMODEL_xxPRESP> rdfs:label "Pre-specified"^^xsd:string . 
<http://www.assero.co.uk/MDRSdtmM/CDISC/V1#M-CDISC_SDTMMODEL_xxPRESP> bd:ordinal "6"^^xsd:positiveInteger . 
<http://www.assero.co.uk/MDRSdtmM/CDISC/V1#M-CDISC_SDTMMODEL_xxPRESP> bd:rule ""^^xsd:string . 
<http://www.assero.co.uk/MDRSdtmM/CDISC/V1#M-CDISC_SDTMMODEL_xxPRESP> bd:name "--PRESP"^^xsd:string . 
<http://www.assero.co.uk/MDRSdtmM/CDISC/V1#M-CDISC_SDTMMODEL_xxPRESP> bd:prefixed "true"^^xsd:boolean . 
<http://www.assero.co.uk/MDRSdtmM/CDISC/V1#M-CDISC_SDTMMODEL_xxPRESP> bd:description "Used when a specific intervention is pre-specified on a CRF. Values should be 'Y' or null."^^xsd:string . 
<http://www.assero.co.uk/MDRSdtmM/CDISC/V1#M-CDISC_SDTMMODEL_xxPRESP> bd:typedAs <http://www.assero.co.uk/MDRSdtmM/CDISC/V1#M-CDISC_SDTMMODEL_DT_CHAR> . 
<http://www.assero.co.uk/MDRSdtmM/CDISC/V1#M-CDISC_SDTMMODEL_xxPRESP> bd:classifiedAs <http://www.assero.co.uk/MDRSdtmM/CDISC/V1#M-CDISC_SDTMMODEL_C_QUALIFIER_SC_RECORDQUALIFIER> . 
<http://www.assero.co.uk/MDRSdtmM/CDISC/V1#M-CDISC_SDTMMODEL> bd:includesVariable <http://www.assero.co.uk/MDRSdtmM/CDISC/V1#M-CDISC_SDTMMODEL_xxPRESP> . 
<http://www.assero.co.uk/MDRSdtmM/CDISC/V1#M-CDISC_SDTMMODEL_xxOCCUR> rdf:type <http://www.assero.co.uk/BusinessDomain#ModelVariable> . 
<http://www.assero.co.uk/MDRSdtmM/CDISC/V1#M-CDISC_SDTMMODEL_xxOCCUR> rdfs:label "Occurrence"^^xsd:string . 
<http://www.assero.co.uk/MDRSdtmM/CDISC/V1#M-CDISC_SDTMMODEL_xxOCCUR> bd:ordinal "7"^^xsd:positiveInteger . 
<http://www.assero.co.uk/MDRSdtmM/CDISC/V1#M-CDISC_SDTMMODEL_xxOCCUR> bd:rule ""^^xsd:string . 
<http://www.assero.co.uk/MDRSdtmM/CDISC/V1#M-CDISC_SDTMMODEL_xxOCCUR> bd:name "--OCCUR"^^xsd:string . 
<http://www.assero.co.uk/MDRSdtmM/CDISC/V1#M-CDISC_SDTMMODEL_xxOCCUR> bd:prefixed "true"^^xsd:boolean . 
<http://www.assero.co.uk/MDRSdtmM/CDISC/V1#M-CDISC_SDTMMODEL_xxOCCUR> bd:description "Used to record whether a pre-specified event occurred when information about the occurrence of a specific event is solicited."^^xsd:string . 
<http://www.assero.co.uk/MDRSdtmM/CDISC/V1#M-CDISC_SDTMMODEL_xxOCCUR> bd:typedAs <http://www.assero.co.uk/MDRSdtmM/CDISC/V1#M-CDISC_SDTMMODEL_DT_CHAR> . 
<http://www.assero.co.uk/MDRSdtmM/CDISC/V1#M-CDISC_SDTMMODEL_xxOCCUR> bd:classifiedAs <http://www.assero.co.uk/MDRSdtmM/CDISC/V1#M-CDISC_SDTMMODEL_C_QUALIFIER_SC_RECORDQUALIFIER> . 
<http://www.assero.co.uk/MDRSdtmM/CDISC/V1#M-CDISC_SDTMMODEL> bd:includesVariable <http://www.assero.co.uk/MDRSdtmM/CDISC/V1#M-CDISC_SDTMMODEL_xxOCCUR> . 
<http://www.assero.co.uk/MDRSdtmM/CDISC/V1#M-CDISC_SDTMMODEL_xxSTAT> rdf:type <http://www.assero.co.uk/BusinessDomain#ModelVariable> . 
<http://www.assero.co.uk/MDRSdtmM/CDISC/V1#M-CDISC_SDTMMODEL_xxSTAT> rdfs:label "Completion Status"^^xsd:string . 
<http://www.assero.co.uk/MDRSdtmM/CDISC/V1#M-CDISC_SDTMMODEL_xxSTAT> bd:ordinal "8"^^xsd:positiveInteger . 
<http://www.assero.co.uk/MDRSdtmM/CDISC/V1#M-CDISC_SDTMMODEL_xxSTAT> bd:rule ""^^xsd:string . 
<http://www.assero.co.uk/MDRSdtmM/CDISC/V1#M-CDISC_SDTMMODEL_xxSTAT> bd:name "--STAT"^^xsd:string . 
<http://www.assero.co.uk/MDRSdtmM/CDISC/V1#M-CDISC_SDTMMODEL_xxSTAT> bd:prefixed "true"^^xsd:boolean . 
<http://www.assero.co.uk/MDRSdtmM/CDISC/V1#M-CDISC_SDTMMODEL_xxSTAT> bd:description "Used to indicate when a question about the occurrence of a pre-specified event was not answered. Should be null or have a value of NOT DONE."^^xsd:string . 
<http://www.assero.co.uk/MDRSdtmM/CDISC/V1#M-CDISC_SDTMMODEL_xxSTAT> bd:typedAs <http://www.assero.co.uk/MDRSdtmM/CDISC/V1#M-CDISC_SDTMMODEL_DT_CHAR> . 
<http://www.assero.co.uk/MDRSdtmM/CDISC/V1#M-CDISC_SDTMMODEL_xxSTAT> bd:classifiedAs <http://www.assero.co.uk/MDRSdtmM/CDISC/V1#M-CDISC_SDTMMODEL_C_QUALIFIER_SC_RECORDQUALIFIER> . 
<http://www.assero.co.uk/MDRSdtmM/CDISC/V1#M-CDISC_SDTMMODEL> bd:includesVariable <http://www.assero.co.uk/MDRSdtmM/CDISC/V1#M-CDISC_SDTMMODEL_xxSTAT> . 
<http://www.assero.co.uk/MDRSdtmM/CDISC/V1#M-CDISC_SDTMMODEL_xxREASND> rdf:type <http://www.assero.co.uk/BusinessDomain#ModelVariable> . 
<http://www.assero.co.uk/MDRSdtmM/CDISC/V1#M-CDISC_SDTMMODEL_xxREASND> rdfs:label "Reason Not Done"^^xsd:string . 
<http://www.assero.co.uk/MDRSdtmM/CDISC/V1#M-CDISC_SDTMMODEL_xxREASND> bd:ordinal "9"^^xsd:positiveInteger . 
<http://www.assero.co.uk/MDRSdtmM/CDISC/V1#M-CDISC_SDTMMODEL_xxREASND> bd:rule ""^^xsd:string . 
<http://www.assero.co.uk/MDRSdtmM/CDISC/V1#M-CDISC_SDTMMODEL_xxREASND> bd:name "--REASND"^^xsd:string . 
<http://www.assero.co.uk/MDRSdtmM/CDISC/V1#M-CDISC_SDTMMODEL_xxREASND> bd:prefixed "true"^^xsd:boolean . 
<http://www.assero.co.uk/MDRSdtmM/CDISC/V1#M-CDISC_SDTMMODEL_xxREASND> bd:description "Reason not done. Used in conjunction with --STAT when value is NOT DONE."^^xsd:string . 
<http://www.assero.co.uk/MDRSdtmM/CDISC/V1#M-CDISC_SDTMMODEL_xxREASND> bd:typedAs <http://www.assero.co.uk/MDRSdtmM/CDISC/V1#M-CDISC_SDTMMODEL_DT_CHAR> . 
<http://www.assero.co.uk/MDRSdtmM/CDISC/V1#M-CDISC_SDTMMODEL_xxREASND> bd:classifiedAs <http://www.assero.co.uk/MDRSdtmM/CDISC/V1#M-CDISC_SDTMMODEL_C_QUALIFIER_SC_RECORDQUALIFIER> . 
<http://www.assero.co.uk/MDRSdtmM/CDISC/V1#M-CDISC_SDTMMODEL> bd:includesVariable <http://www.assero.co.uk/MDRSdtmM/CDISC/V1#M-CDISC_SDTMMODEL_xxREASND> . 
<http://www.assero.co.uk/MDRSdtmM/CDISC/V1#M-CDISC_SDTMMODEL_xxBODSYS> rdf:type <http://www.assero.co.uk/BusinessDomain#ModelVariable> . 
<http://www.assero.co.uk/MDRSdtmM/CDISC/V1#M-CDISC_SDTMMODEL_xxBODSYS> rdfs:label "Body System or Organ Class"^^xsd:string . 
<http://www.assero.co.uk/MDRSdtmM/CDISC/V1#M-CDISC_SDTMMODEL_xxBODSYS> bd:ordinal "10"^^xsd:positiveInteger . 
<http://www.assero.co.uk/MDRSdtmM/CDISC/V1#M-CDISC_SDTMMODEL_xxBODSYS> bd:rule ""^^xsd:string . 
<http://www.assero.co.uk/MDRSdtmM/CDISC/V1#M-CDISC_SDTMMODEL_xxBODSYS> bd:name "--BODSYS"^^xsd:string . 
<http://www.assero.co.uk/MDRSdtmM/CDISC/V1#M-CDISC_SDTMMODEL_xxBODSYS> bd:prefixed "true"^^xsd:boolean . 
<http://www.assero.co.uk/MDRSdtmM/CDISC/V1#M-CDISC_SDTMMODEL_xxBODSYS> bd:description "Body System or Organ Class that is involved for a finding from the standard hierarchy for dictionary-coded results. Example: MedDRA SOC."^^xsd:string . 
<http://www.assero.co.uk/MDRSdtmM/CDISC/V1#M-CDISC_SDTMMODEL_xxBODSYS> bd:typedAs <http://www.assero.co.uk/MDRSdtmM/CDISC/V1#M-CDISC_SDTMMODEL_DT_CHAR> . 
<http://www.assero.co.uk/MDRSdtmM/CDISC/V1#M-CDISC_SDTMMODEL_xxBODSYS> bd:classifiedAs <http://www.assero.co.uk/MDRSdtmM/CDISC/V1#M-CDISC_SDTMMODEL_C_QUALIFIER_SC_RECORDQUALIFIER> . 
<http://www.assero.co.uk/MDRSdtmM/CDISC/V1#M-CDISC_SDTMMODEL> bd:includesVariable <http://www.assero.co.uk/MDRSdtmM/CDISC/V1#M-CDISC_SDTMMODEL_xxBODSYS> . 
<http://www.assero.co.uk/MDRSdtmM/CDISC/V1#M-CDISC_SDTMMODEL_xxLOC> rdf:type <http://www.assero.co.uk/BusinessDomain#ModelVariable> . 
<http://www.assero.co.uk/MDRSdtmM/CDISC/V1#M-CDISC_SDTMMODEL_xxLOC> rdfs:label "Location of Event"^^xsd:string . 
<http://www.assero.co.uk/MDRSdtmM/CDISC/V1#M-CDISC_SDTMMODEL_xxLOC> bd:ordinal "11"^^xsd:positiveInteger . 
<http://www.assero.co.uk/MDRSdtmM/CDISC/V1#M-CDISC_SDTMMODEL_xxLOC> bd:rule ""^^xsd:string . 
<http://www.assero.co.uk/MDRSdtmM/CDISC/V1#M-CDISC_SDTMMODEL_xxLOC> bd:name "--LOC"^^xsd:string . 
<http://www.assero.co.uk/MDRSdtmM/CDISC/V1#M-CDISC_SDTMMODEL_xxLOC> bd:prefixed "true"^^xsd:boolean . 
<http://www.assero.co.uk/MDRSdtmM/CDISC/V1#M-CDISC_SDTMMODEL_xxLOC> bd:description "Anatomical location of an intervention, such as an injection site. Example: RIGHT ARM for an injection."^^xsd:string . 
<http://www.assero.co.uk/MDRSdtmM/CDISC/V1#M-CDISC_SDTMMODEL_xxLOC> bd:typedAs <http://www.assero.co.uk/MDRSdtmM/CDISC/V1#M-CDISC_SDTMMODEL_DT_CHAR> . 
<http://www.assero.co.uk/MDRSdtmM/CDISC/V1#M-CDISC_SDTMMODEL_xxLOC> bd:classifiedAs <http://www.assero.co.uk/MDRSdtmM/CDISC/V1#M-CDISC_SDTMMODEL_C_QUALIFIER_SC_RECORDQUALIFIER> . 
<http://www.assero.co.uk/MDRSdtmM/CDISC/V1#M-CDISC_SDTMMODEL> bd:includesVariable <http://www.assero.co.uk/MDRSdtmM/CDISC/V1#M-CDISC_SDTMMODEL_xxLOC> . 
<http://www.assero.co.uk/MDRSdtmM/CDISC/V1#M-CDISC_SDTMMODEL_xxSEV> rdf:type <http://www.assero.co.uk/BusinessDomain#ModelVariable> . 
<http://www.assero.co.uk/MDRSdtmM/CDISC/V1#M-CDISC_SDTMMODEL_xxSEV> rdfs:label "Severity/Intensity"^^xsd:string . 
<http://www.assero.co.uk/MDRSdtmM/CDISC/V1#M-CDISC_SDTMMODEL_xxSEV> bd:ordinal "12"^^xsd:positiveInteger . 
<http://www.assero.co.uk/MDRSdtmM/CDISC/V1#M-CDISC_SDTMMODEL_xxSEV> bd:rule ""^^xsd:string . 
<http://www.assero.co.uk/MDRSdtmM/CDISC/V1#M-CDISC_SDTMMODEL_xxSEV> bd:name "--SEV"^^xsd:string . 
<http://www.assero.co.uk/MDRSdtmM/CDISC/V1#M-CDISC_SDTMMODEL_xxSEV> bd:prefixed "true"^^xsd:boolean . 
<http://www.assero.co.uk/MDRSdtmM/CDISC/V1#M-CDISC_SDTMMODEL_xxSEV> bd:description "Describes the severity or intensity of a particular finding. Examples: MILD, MODERATE, SEVERE."^^xsd:string . 
<http://www.assero.co.uk/MDRSdtmM/CDISC/V1#M-CDISC_SDTMMODEL_xxSEV> bd:typedAs <http://www.assero.co.uk/MDRSdtmM/CDISC/V1#M-CDISC_SDTMMODEL_DT_CHAR> . 
<http://www.assero.co.uk/MDRSdtmM/CDISC/V1#M-CDISC_SDTMMODEL_xxSEV> bd:classifiedAs <http://www.assero.co.uk/MDRSdtmM/CDISC/V1#M-CDISC_SDTMMODEL_C_QUALIFIER_SC_RECORDQUALIFIER> . 
<http://www.assero.co.uk/MDRSdtmM/CDISC/V1#M-CDISC_SDTMMODEL> bd:includesVariable <http://www.assero.co.uk/MDRSdtmM/CDISC/V1#M-CDISC_SDTMMODEL_xxSEV> . 
<http://www.assero.co.uk/MDRSdtmM/CDISC/V1#M-CDISC_SDTMMODEL_xxSER> rdf:type <http://www.assero.co.uk/BusinessDomain#ModelVariable> . 
<http://www.assero.co.uk/MDRSdtmM/CDISC/V1#M-CDISC_SDTMMODEL_xxSER> rdfs:label "Serious Event"^^xsd:string . 
<http://www.assero.co.uk/MDRSdtmM/CDISC/V1#M-CDISC_SDTMMODEL_xxSER> bd:ordinal "13"^^xsd:positiveInteger . 
<http://www.assero.co.uk/MDRSdtmM/CDISC/V1#M-CDISC_SDTMMODEL_xxSER> bd:rule ""^^xsd:string . 
<http://www.assero.co.uk/MDRSdtmM/CDISC/V1#M-CDISC_SDTMMODEL_xxSER> bd:name "--SER"^^xsd:string . 
<http://www.assero.co.uk/MDRSdtmM/CDISC/V1#M-CDISC_SDTMMODEL_xxSER> bd:prefixed "true"^^xsd:boolean . 
<http://www.assero.co.uk/MDRSdtmM/CDISC/V1#M-CDISC_SDTMMODEL_xxSER> bd:description "Is this is a serious event? Valid values are 'Y' and 'N'."^^xsd:string . 
<http://www.assero.co.uk/MDRSdtmM/CDISC/V1#M-CDISC_SDTMMODEL_xxSER> bd:typedAs <http://www.assero.co.uk/MDRSdtmM/CDISC/V1#M-CDISC_SDTMMODEL_DT_CHAR> . 
<http://www.assero.co.uk/MDRSdtmM/CDISC/V1#M-CDISC_SDTMMODEL_xxSER> bd:classifiedAs <http://www.assero.co.uk/MDRSdtmM/CDISC/V1#M-CDISC_SDTMMODEL_C_QUALIFIER_SC_RECORDQUALIFIER> . 
<http://www.assero.co.uk/MDRSdtmM/CDISC/V1#M-CDISC_SDTMMODEL> bd:includesVariable <http://www.assero.co.uk/MDRSdtmM/CDISC/V1#M-CDISC_SDTMMODEL_xxSER> . 
<http://www.assero.co.uk/MDRSdtmM/CDISC/V1#M-CDISC_SDTMMODEL_xxACN> rdf:type <http://www.assero.co.uk/BusinessDomain#ModelVariable> . 
<http://www.assero.co.uk/MDRSdtmM/CDISC/V1#M-CDISC_SDTMMODEL_xxACN> rdfs:label "Action Taken with Study Treatment"^^xsd:string . 
<http://www.assero.co.uk/MDRSdtmM/CDISC/V1#M-CDISC_SDTMMODEL_xxACN> bd:ordinal "14"^^xsd:positiveInteger . 
<http://www.assero.co.uk/MDRSdtmM/CDISC/V1#M-CDISC_SDTMMODEL_xxACN> bd:rule ""^^xsd:string . 
<http://www.assero.co.uk/MDRSdtmM/CDISC/V1#M-CDISC_SDTMMODEL_xxACN> bd:name "--ACN"^^xsd:string . 
<http://www.assero.co.uk/MDRSdtmM/CDISC/V1#M-CDISC_SDTMMODEL_xxACN> bd:prefixed "true"^^xsd:boolean . 
<http://www.assero.co.uk/MDRSdtmM/CDISC/V1#M-CDISC_SDTMMODEL_xxACN> bd:description "Describes changes made to the study treatment as a result of the event. Examples: DOSE INCREASED, DOSE NOT CHANGED."^^xsd:string . 
<http://www.assero.co.uk/MDRSdtmM/CDISC/V1#M-CDISC_SDTMMODEL_xxACN> bd:typedAs <http://www.assero.co.uk/MDRSdtmM/CDISC/V1#M-CDISC_SDTMMODEL_DT_CHAR> . 
<http://www.assero.co.uk/MDRSdtmM/CDISC/V1#M-CDISC_SDTMMODEL_xxACN> bd:classifiedAs <http://www.assero.co.uk/MDRSdtmM/CDISC/V1#M-CDISC_SDTMMODEL_C_QUALIFIER_SC_RECORDQUALIFIER> . 
<http://www.assero.co.uk/MDRSdtmM/CDISC/V1#M-CDISC_SDTMMODEL> bd:includesVariable <http://www.assero.co.uk/MDRSdtmM/CDISC/V1#M-CDISC_SDTMMODEL_xxACN> . 
<http://www.assero.co.uk/MDRSdtmM/CDISC/V1#M-CDISC_SDTMMODEL_xxACNOTH> rdf:type <http://www.assero.co.uk/BusinessDomain#ModelVariable> . 
<http://www.assero.co.uk/MDRSdtmM/CDISC/V1#M-CDISC_SDTMMODEL_xxACNOTH> rdfs:label "Other Action Taken"^^xsd:string . 
<http://www.assero.co.uk/MDRSdtmM/CDISC/V1#M-CDISC_SDTMMODEL_xxACNOTH> bd:ordinal "15"^^xsd:positiveInteger . 
<http://www.assero.co.uk/MDRSdtmM/CDISC/V1#M-CDISC_SDTMMODEL_xxACNOTH> bd:rule ""^^xsd:string . 
<http://www.assero.co.uk/MDRSdtmM/CDISC/V1#M-CDISC_SDTMMODEL_xxACNOTH> bd:name "--ACNOTH"^^xsd:string . 
<http://www.assero.co.uk/MDRSdtmM/CDISC/V1#M-CDISC_SDTMMODEL_xxACNOTH> bd:prefixed "true"^^xsd:boolean . 
<http://www.assero.co.uk/MDRSdtmM/CDISC/V1#M-CDISC_SDTMMODEL_xxACNOTH> bd:description "Describes other actions taken as a result of the event that are unrelated to dose adjustments of study treatment."^^xsd:string . 
<http://www.assero.co.uk/MDRSdtmM/CDISC/V1#M-CDISC_SDTMMODEL_xxACNOTH> bd:typedAs <http://www.assero.co.uk/MDRSdtmM/CDISC/V1#M-CDISC_SDTMMODEL_DT_CHAR> . 
<http://www.assero.co.uk/MDRSdtmM/CDISC/V1#M-CDISC_SDTMMODEL_xxACNOTH> bd:classifiedAs <http://www.assero.co.uk/MDRSdtmM/CDISC/V1#M-CDISC_SDTMMODEL_C_QUALIFIER_SC_RECORDQUALIFIER> . 
<http://www.assero.co.uk/MDRSdtmM/CDISC/V1#M-CDISC_SDTMMODEL> bd:includesVariable <http://www.assero.co.uk/MDRSdtmM/CDISC/V1#M-CDISC_SDTMMODEL_xxACNOTH> . 
<http://www.assero.co.uk/MDRSdtmM/CDISC/V1#M-CDISC_SDTMMODEL_xxREL> rdf:type <http://www.assero.co.uk/BusinessDomain#ModelVariable> . 
<http://www.assero.co.uk/MDRSdtmM/CDISC/V1#M-CDISC_SDTMMODEL_xxREL> rdfs:label "Causality"^^xsd:string . 
<http://www.assero.co.uk/MDRSdtmM/CDISC/V1#M-CDISC_SDTMMODEL_xxREL> bd:ordinal "16"^^xsd:positiveInteger . 
<http://www.assero.co.uk/MDRSdtmM/CDISC/V1#M-CDISC_SDTMMODEL_xxREL> bd:rule ""^^xsd:string . 
<http://www.assero.co.uk/MDRSdtmM/CDISC/V1#M-CDISC_SDTMMODEL_xxREL> bd:name "--REL"^^xsd:string . 
<http://www.assero.co.uk/MDRSdtmM/CDISC/V1#M-CDISC_SDTMMODEL_xxREL> bd:prefixed "true"^^xsd:boolean . 
<http://www.assero.co.uk/MDRSdtmM/CDISC/V1#M-CDISC_SDTMMODEL_xxREL> bd:description "Records the investigator's opinion as to the causality of the event to the treatment. ICH E2A and E2B examples include NOT RELATED, UNLIKELY RELATED, POSSIBLY RELATED, RELATED."^^xsd:string . 
<http://www.assero.co.uk/MDRSdtmM/CDISC/V1#M-CDISC_SDTMMODEL_xxREL> bd:typedAs <http://www.assero.co.uk/MDRSdtmM/CDISC/V1#M-CDISC_SDTMMODEL_DT_CHAR> . 
<http://www.assero.co.uk/MDRSdtmM/CDISC/V1#M-CDISC_SDTMMODEL_xxREL> bd:classifiedAs <http://www.assero.co.uk/MDRSdtmM/CDISC/V1#M-CDISC_SDTMMODEL_C_QUALIFIER_SC_RECORDQUALIFIER> . 
<http://www.assero.co.uk/MDRSdtmM/CDISC/V1#M-CDISC_SDTMMODEL> bd:includesVariable <http://www.assero.co.uk/MDRSdtmM/CDISC/V1#M-CDISC_SDTMMODEL_xxREL> . 
<http://www.assero.co.uk/MDRSdtmM/CDISC/V1#M-CDISC_SDTMMODEL_xxRELNST> rdf:type <http://www.assero.co.uk/BusinessDomain#ModelVariable> . 
<http://www.assero.co.uk/MDRSdtmM/CDISC/V1#M-CDISC_SDTMMODEL_xxRELNST> rdfs:label "Relationship to Non-Study Treatment"^^xsd:string . 
<http://www.assero.co.uk/MDRSdtmM/CDISC/V1#M-CDISC_SDTMMODEL_xxRELNST> bd:ordinal "17"^^xsd:positiveInteger . 
<http://www.assero.co.uk/MDRSdtmM/CDISC/V1#M-CDISC_SDTMMODEL_xxRELNST> bd:rule ""^^xsd:string . 
<http://www.assero.co.uk/MDRSdtmM/CDISC/V1#M-CDISC_SDTMMODEL_xxRELNST> bd:name "--RELNST"^^xsd:string . 
<http://www.assero.co.uk/MDRSdtmM/CDISC/V1#M-CDISC_SDTMMODEL_xxRELNST> bd:prefixed "true"^^xsd:boolean . 
<http://www.assero.co.uk/MDRSdtmM/CDISC/V1#M-CDISC_SDTMMODEL_xxRELNST> bd:description "An opinion as to whether the event may have been due to a treatment other than study drug. Example: 'MORE LIKELY RELATED TO ASPIRIN USE.'"^^xsd:string . 
<http://www.assero.co.uk/MDRSdtmM/CDISC/V1#M-CDISC_SDTMMODEL_xxRELNST> bd:typedAs <http://www.assero.co.uk/MDRSdtmM/CDISC/V1#M-CDISC_SDTMMODEL_DT_CHAR> . 
<http://www.assero.co.uk/MDRSdtmM/CDISC/V1#M-CDISC_SDTMMODEL_xxRELNST> bd:classifiedAs <http://www.assero.co.uk/MDRSdtmM/CDISC/V1#M-CDISC_SDTMMODEL_C_QUALIFIER_SC_RECORDQUALIFIER> . 
<http://www.assero.co.uk/MDRSdtmM/CDISC/V1#M-CDISC_SDTMMODEL> bd:includesVariable <http://www.assero.co.uk/MDRSdtmM/CDISC/V1#M-CDISC_SDTMMODEL_xxRELNST> . 
<http://www.assero.co.uk/MDRSdtmM/CDISC/V1#M-CDISC_SDTMMODEL_xxPATT> rdf:type <http://www.assero.co.uk/BusinessDomain#ModelVariable> . 
<http://www.assero.co.uk/MDRSdtmM/CDISC/V1#M-CDISC_SDTMMODEL_xxPATT> rdfs:label "Pattern of Event"^^xsd:string . 
<http://www.assero.co.uk/MDRSdtmM/CDISC/V1#M-CDISC_SDTMMODEL_xxPATT> bd:ordinal "18"^^xsd:positiveInteger . 
<http://www.assero.co.uk/MDRSdtmM/CDISC/V1#M-CDISC_SDTMMODEL_xxPATT> bd:rule ""^^xsd:string . 
<http://www.assero.co.uk/MDRSdtmM/CDISC/V1#M-CDISC_SDTMMODEL_xxPATT> bd:name "--PATT"^^xsd:string . 
<http://www.assero.co.uk/MDRSdtmM/CDISC/V1#M-CDISC_SDTMMODEL_xxPATT> bd:prefixed "true"^^xsd:boolean . 
<http://www.assero.co.uk/MDRSdtmM/CDISC/V1#M-CDISC_SDTMMODEL_xxPATT> bd:description "Used to indicate the pattern of the event over time. Examples: INTERMITTENT, CONTINUOUS, SINGLE EVENT."^^xsd:string . 
<http://www.assero.co.uk/MDRSdtmM/CDISC/V1#M-CDISC_SDTMMODEL_xxPATT> bd:typedAs <http://www.assero.co.uk/MDRSdtmM/CDISC/V1#M-CDISC_SDTMMODEL_DT_CHAR> . 
<http://www.assero.co.uk/MDRSdtmM/CDISC/V1#M-CDISC_SDTMMODEL_xxPATT> bd:classifiedAs <http://www.assero.co.uk/MDRSdtmM/CDISC/V1#M-CDISC_SDTMMODEL_C_QUALIFIER_SC_RECORDQUALIFIER> . 
<http://www.assero.co.uk/MDRSdtmM/CDISC/V1#M-CDISC_SDTMMODEL> bd:includesVariable <http://www.assero.co.uk/MDRSdtmM/CDISC/V1#M-CDISC_SDTMMODEL_xxPATT> . 
<http://www.assero.co.uk/MDRSdtmM/CDISC/V1#M-CDISC_SDTMMODEL_xxOUT> rdf:type <http://www.assero.co.uk/BusinessDomain#ModelVariable> . 
<http://www.assero.co.uk/MDRSdtmM/CDISC/V1#M-CDISC_SDTMMODEL_xxOUT> rdfs:label "Outcome of Event"^^xsd:string . 
<http://www.assero.co.uk/MDRSdtmM/CDISC/V1#M-CDISC_SDTMMODEL_xxOUT> bd:ordinal "19"^^xsd:positiveInteger . 
<http://www.assero.co.uk/MDRSdtmM/CDISC/V1#M-CDISC_SDTMMODEL_xxOUT> bd:rule ""^^xsd:string . 
<http://www.assero.co.uk/MDRSdtmM/CDISC/V1#M-CDISC_SDTMMODEL_xxOUT> bd:name "--OUT"^^xsd:string . 
<http://www.assero.co.uk/MDRSdtmM/CDISC/V1#M-CDISC_SDTMMODEL_xxOUT> bd:prefixed "true"^^xsd:boolean . 
<http://www.assero.co.uk/MDRSdtmM/CDISC/V1#M-CDISC_SDTMMODEL_xxOUT> bd:description "Description of the outcome of an event. Examples: RECOVERED/RESOLVED, FATAL."^^xsd:string . 
<http://www.assero.co.uk/MDRSdtmM/CDISC/V1#M-CDISC_SDTMMODEL_xxOUT> bd:typedAs <http://www.assero.co.uk/MDRSdtmM/CDISC/V1#M-CDISC_SDTMMODEL_DT_CHAR> . 
<http://www.assero.co.uk/MDRSdtmM/CDISC/V1#M-CDISC_SDTMMODEL_xxOUT> bd:classifiedAs <http://www.assero.co.uk/MDRSdtmM/CDISC/V1#M-CDISC_SDTMMODEL_C_QUALIFIER_SC_RECORDQUALIFIER> . 
<http://www.assero.co.uk/MDRSdtmM/CDISC/V1#M-CDISC_SDTMMODEL> bd:includesVariable <http://www.assero.co.uk/MDRSdtmM/CDISC/V1#M-CDISC_SDTMMODEL_xxOUT> . 
<http://www.assero.co.uk/MDRSdtmM/CDISC/V1#M-CDISC_SDTMMODEL_xxSCAN> rdf:type <http://www.assero.co.uk/BusinessDomain#ModelVariable> . 
<http://www.assero.co.uk/MDRSdtmM/CDISC/V1#M-CDISC_SDTMMODEL_xxSCAN> rdfs:label "Involves Cancer"^^xsd:string . 
<http://www.assero.co.uk/MDRSdtmM/CDISC/V1#M-CDISC_SDTMMODEL_xxSCAN> bd:ordinal "20"^^xsd:positiveInteger . 
<http://www.assero.co.uk/MDRSdtmM/CDISC/V1#M-CDISC_SDTMMODEL_xxSCAN> bd:rule ""^^xsd:string . 
<http://www.assero.co.uk/MDRSdtmM/CDISC/V1#M-CDISC_SDTMMODEL_xxSCAN> bd:name "--SCAN"^^xsd:string . 
<http://www.assero.co.uk/MDRSdtmM/CDISC/V1#M-CDISC_SDTMMODEL_xxSCAN> bd:prefixed "true"^^xsd:boolean . 
<http://www.assero.co.uk/MDRSdtmM/CDISC/V1#M-CDISC_SDTMMODEL_xxSCAN> bd:description "Was the event associated with the development of cancer? Valid values are 'Y' and 'N'."^^xsd:string . 
<http://www.assero.co.uk/MDRSdtmM/CDISC/V1#M-CDISC_SDTMMODEL_xxSCAN> bd:typedAs <http://www.assero.co.uk/MDRSdtmM/CDISC/V1#M-CDISC_SDTMMODEL_DT_CHAR> . 
<http://www.assero.co.uk/MDRSdtmM/CDISC/V1#M-CDISC_SDTMMODEL_xxSCAN> bd:classifiedAs <http://www.assero.co.uk/MDRSdtmM/CDISC/V1#M-CDISC_SDTMMODEL_C_QUALIFIER_SC_RECORDQUALIFIER> . 
<http://www.assero.co.uk/MDRSdtmM/CDISC/V1#M-CDISC_SDTMMODEL> bd:includesVariable <http://www.assero.co.uk/MDRSdtmM/CDISC/V1#M-CDISC_SDTMMODEL_xxSCAN> . 
<http://www.assero.co.uk/MDRSdtmM/CDISC/V1#M-CDISC_SDTMMODEL_xxSCONG> rdf:type <http://www.assero.co.uk/BusinessDomain#ModelVariable> . 
<http://www.assero.co.uk/MDRSdtmM/CDISC/V1#M-CDISC_SDTMMODEL_xxSCONG> rdfs:label "Congenital Anomaly or Birth Defect"^^xsd:string . 
<http://www.assero.co.uk/MDRSdtmM/CDISC/V1#M-CDISC_SDTMMODEL_xxSCONG> bd:ordinal "21"^^xsd:positiveInteger . 
<http://www.assero.co.uk/MDRSdtmM/CDISC/V1#M-CDISC_SDTMMODEL_xxSCONG> bd:rule ""^^xsd:string . 
<http://www.assero.co.uk/MDRSdtmM/CDISC/V1#M-CDISC_SDTMMODEL_xxSCONG> bd:name "--SCONG"^^xsd:string . 
<http://www.assero.co.uk/MDRSdtmM/CDISC/V1#M-CDISC_SDTMMODEL_xxSCONG> bd:prefixed "true"^^xsd:boolean . 
<http://www.assero.co.uk/MDRSdtmM/CDISC/V1#M-CDISC_SDTMMODEL_xxSCONG> bd:description "Was the event associated with congenital anomaly or birth defect? Valid values are 'Y' and 'N'."^^xsd:string . 
<http://www.assero.co.uk/MDRSdtmM/CDISC/V1#M-CDISC_SDTMMODEL_xxSCONG> bd:typedAs <http://www.assero.co.uk/MDRSdtmM/CDISC/V1#M-CDISC_SDTMMODEL_DT_CHAR> . 
<http://www.assero.co.uk/MDRSdtmM/CDISC/V1#M-CDISC_SDTMMODEL_xxSCONG> bd:classifiedAs <http://www.assero.co.uk/MDRSdtmM/CDISC/V1#M-CDISC_SDTMMODEL_C_QUALIFIER_SC_RECORDQUALIFIER> . 
<http://www.assero.co.uk/MDRSdtmM/CDISC/V1#M-CDISC_SDTMMODEL> bd:includesVariable <http://www.assero.co.uk/MDRSdtmM/CDISC/V1#M-CDISC_SDTMMODEL_xxSCONG> . 
<http://www.assero.co.uk/MDRSdtmM/CDISC/V1#M-CDISC_SDTMMODEL_xxSDISAB> rdf:type <http://www.assero.co.uk/BusinessDomain#ModelVariable> . 
<http://www.assero.co.uk/MDRSdtmM/CDISC/V1#M-CDISC_SDTMMODEL_xxSDISAB> rdfs:label "Persist or Signif Disability/Incapacity"^^xsd:string . 
<http://www.assero.co.uk/MDRSdtmM/CDISC/V1#M-CDISC_SDTMMODEL_xxSDISAB> bd:ordinal "22"^^xsd:positiveInteger . 
<http://www.assero.co.uk/MDRSdtmM/CDISC/V1#M-CDISC_SDTMMODEL_xxSDISAB> bd:rule ""^^xsd:string . 
<http://www.assero.co.uk/MDRSdtmM/CDISC/V1#M-CDISC_SDTMMODEL_xxSDISAB> bd:name "--SDISAB"^^xsd:string . 
<http://www.assero.co.uk/MDRSdtmM/CDISC/V1#M-CDISC_SDTMMODEL_xxSDISAB> bd:prefixed "true"^^xsd:boolean . 
<http://www.assero.co.uk/MDRSdtmM/CDISC/V1#M-CDISC_SDTMMODEL_xxSDISAB> bd:description "Did the event result in persistent or significant disability/incapacity? Valid values are 'Y' and 'N'."^^xsd:string . 
<http://www.assero.co.uk/MDRSdtmM/CDISC/V1#M-CDISC_SDTMMODEL_xxSDISAB> bd:typedAs <http://www.assero.co.uk/MDRSdtmM/CDISC/V1#M-CDISC_SDTMMODEL_DT_CHAR> . 
<http://www.assero.co.uk/MDRSdtmM/CDISC/V1#M-CDISC_SDTMMODEL_xxSDISAB> bd:classifiedAs <http://www.assero.co.uk/MDRSdtmM/CDISC/V1#M-CDISC_SDTMMODEL_C_QUALIFIER_SC_RECORDQUALIFIER> . 
<http://www.assero.co.uk/MDRSdtmM/CDISC/V1#M-CDISC_SDTMMODEL> bd:includesVariable <http://www.assero.co.uk/MDRSdtmM/CDISC/V1#M-CDISC_SDTMMODEL_xxSDISAB> . 
<http://www.assero.co.uk/MDRSdtmM/CDISC/V1#M-CDISC_SDTMMODEL_xxSDTH> rdf:type <http://www.assero.co.uk/BusinessDomain#ModelVariable> . 
<http://www.assero.co.uk/MDRSdtmM/CDISC/V1#M-CDISC_SDTMMODEL_xxSDTH> rdfs:label "Results in Death"^^xsd:string . 
<http://www.assero.co.uk/MDRSdtmM/CDISC/V1#M-CDISC_SDTMMODEL_xxSDTH> bd:ordinal "23"^^xsd:positiveInteger . 
<http://www.assero.co.uk/MDRSdtmM/CDISC/V1#M-CDISC_SDTMMODEL_xxSDTH> bd:rule ""^^xsd:string . 
<http://www.assero.co.uk/MDRSdtmM/CDISC/V1#M-CDISC_SDTMMODEL_xxSDTH> bd:name "--SDTH"^^xsd:string . 
<http://www.assero.co.uk/MDRSdtmM/CDISC/V1#M-CDISC_SDTMMODEL_xxSDTH> bd:prefixed "true"^^xsd:boolean . 
<http://www.assero.co.uk/MDRSdtmM/CDISC/V1#M-CDISC_SDTMMODEL_xxSDTH> bd:description "Did the event result in death? Valid values are 'Y' and 'N'."^^xsd:string . 
<http://www.assero.co.uk/MDRSdtmM/CDISC/V1#M-CDISC_SDTMMODEL_xxSDTH> bd:typedAs <http://www.assero.co.uk/MDRSdtmM/CDISC/V1#M-CDISC_SDTMMODEL_DT_CHAR> . 
<http://www.assero.co.uk/MDRSdtmM/CDISC/V1#M-CDISC_SDTMMODEL_xxSDTH> bd:classifiedAs <http://www.assero.co.uk/MDRSdtmM/CDISC/V1#M-CDISC_SDTMMODEL_C_QUALIFIER_SC_RECORDQUALIFIER> . 
<http://www.assero.co.uk/MDRSdtmM/CDISC/V1#M-CDISC_SDTMMODEL> bd:includesVariable <http://www.assero.co.uk/MDRSdtmM/CDISC/V1#M-CDISC_SDTMMODEL_xxSDTH> . 
<http://www.assero.co.uk/MDRSdtmM/CDISC/V1#M-CDISC_SDTMMODEL_xxSHOSP> rdf:type <http://www.assero.co.uk/BusinessDomain#ModelVariable> . 
<http://www.assero.co.uk/MDRSdtmM/CDISC/V1#M-CDISC_SDTMMODEL_xxSHOSP> rdfs:label "Requires or Prolongs Hospitalization"^^xsd:string . 
<http://www.assero.co.uk/MDRSdtmM/CDISC/V1#M-CDISC_SDTMMODEL_xxSHOSP> bd:ordinal "24"^^xsd:positiveInteger . 
<http://www.assero.co.uk/MDRSdtmM/CDISC/V1#M-CDISC_SDTMMODEL_xxSHOSP> bd:rule ""^^xsd:string . 
<http://www.assero.co.uk/MDRSdtmM/CDISC/V1#M-CDISC_SDTMMODEL_xxSHOSP> bd:name "--SHOSP"^^xsd:string . 
<http://www.assero.co.uk/MDRSdtmM/CDISC/V1#M-CDISC_SDTMMODEL_xxSHOSP> bd:prefixed "true"^^xsd:boolean . 
<http://www.assero.co.uk/MDRSdtmM/CDISC/V1#M-CDISC_SDTMMODEL_xxSHOSP> bd:description "Did the event require or prolong hospitalization? Valid values are 'Y' and 'N'."^^xsd:string . 
<http://www.assero.co.uk/MDRSdtmM/CDISC/V1#M-CDISC_SDTMMODEL_xxSHOSP> bd:typedAs <http://www.assero.co.uk/MDRSdtmM/CDISC/V1#M-CDISC_SDTMMODEL_DT_CHAR> . 
<http://www.assero.co.uk/MDRSdtmM/CDISC/V1#M-CDISC_SDTMMODEL_xxSHOSP> bd:classifiedAs <http://www.assero.co.uk/MDRSdtmM/CDISC/V1#M-CDISC_SDTMMODEL_C_QUALIFIER_SC_RECORDQUALIFIER> . 
<http://www.assero.co.uk/MDRSdtmM/CDISC/V1#M-CDISC_SDTMMODEL> bd:includesVariable <http://www.assero.co.uk/MDRSdtmM/CDISC/V1#M-CDISC_SDTMMODEL_xxSHOSP> . 
<http://www.assero.co.uk/MDRSdtmM/CDISC/V1#M-CDISC_SDTMMODEL_xxSLIFE> rdf:type <http://www.assero.co.uk/BusinessDomain#ModelVariable> . 
<http://www.assero.co.uk/MDRSdtmM/CDISC/V1#M-CDISC_SDTMMODEL_xxSLIFE> rdfs:label "Is Life Threatening"^^xsd:string . 
<http://www.assero.co.uk/MDRSdtmM/CDISC/V1#M-CDISC_SDTMMODEL_xxSLIFE> bd:ordinal "25"^^xsd:positiveInteger . 
<http://www.assero.co.uk/MDRSdtmM/CDISC/V1#M-CDISC_SDTMMODEL_xxSLIFE> bd:rule ""^^xsd:string . 
<http://www.assero.co.uk/MDRSdtmM/CDISC/V1#M-CDISC_SDTMMODEL_xxSLIFE> bd:name "--SLIFE"^^xsd:string . 
<http://www.assero.co.uk/MDRSdtmM/CDISC/V1#M-CDISC_SDTMMODEL_xxSLIFE> bd:prefixed "true"^^xsd:boolean . 
<http://www.assero.co.uk/MDRSdtmM/CDISC/V1#M-CDISC_SDTMMODEL_xxSLIFE> bd:description "Was the event life threatening? Valid values are 'Y' and 'N'."^^xsd:string . 
<http://www.assero.co.uk/MDRSdtmM/CDISC/V1#M-CDISC_SDTMMODEL_xxSLIFE> bd:typedAs <http://www.assero.co.uk/MDRSdtmM/CDISC/V1#M-CDISC_SDTMMODEL_DT_CHAR> . 
<http://www.assero.co.uk/MDRSdtmM/CDISC/V1#M-CDISC_SDTMMODEL_xxSLIFE> bd:classifiedAs <http://www.assero.co.uk/MDRSdtmM/CDISC/V1#M-CDISC_SDTMMODEL_C_QUALIFIER_SC_RECORDQUALIFIER> . 
<http://www.assero.co.uk/MDRSdtmM/CDISC/V1#M-CDISC_SDTMMODEL> bd:includesVariable <http://www.assero.co.uk/MDRSdtmM/CDISC/V1#M-CDISC_SDTMMODEL_xxSLIFE> . 
<http://www.assero.co.uk/MDRSdtmM/CDISC/V1#M-CDISC_SDTMMODEL_xxSOD> rdf:type <http://www.assero.co.uk/BusinessDomain#ModelVariable> . 
<http://www.assero.co.uk/MDRSdtmM/CDISC/V1#M-CDISC_SDTMMODEL_xxSOD> rdfs:label "Occurred with Overdose"^^xsd:string . 
<http://www.assero.co.uk/MDRSdtmM/CDISC/V1#M-CDISC_SDTMMODEL_xxSOD> bd:ordinal "26"^^xsd:positiveInteger . 
<http://www.assero.co.uk/MDRSdtmM/CDISC/V1#M-CDISC_SDTMMODEL_xxSOD> bd:rule ""^^xsd:string . 
<http://www.assero.co.uk/MDRSdtmM/CDISC/V1#M-CDISC_SDTMMODEL_xxSOD> bd:name "--SOD"^^xsd:string . 
<http://www.assero.co.uk/MDRSdtmM/CDISC/V1#M-CDISC_SDTMMODEL_xxSOD> bd:prefixed "true"^^xsd:boolean . 
<http://www.assero.co.uk/MDRSdtmM/CDISC/V1#M-CDISC_SDTMMODEL_xxSOD> bd:description "Did the event occur with an overdose? Valid values are 'Y' and 'N'."^^xsd:string . 
<http://www.assero.co.uk/MDRSdtmM/CDISC/V1#M-CDISC_SDTMMODEL_xxSOD> bd:typedAs <http://www.assero.co.uk/MDRSdtmM/CDISC/V1#M-CDISC_SDTMMODEL_DT_CHAR> . 
<http://www.assero.co.uk/MDRSdtmM/CDISC/V1#M-CDISC_SDTMMODEL_xxSOD> bd:classifiedAs <http://www.assero.co.uk/MDRSdtmM/CDISC/V1#M-CDISC_SDTMMODEL_C_QUALIFIER_SC_RECORDQUALIFIER> . 
<http://www.assero.co.uk/MDRSdtmM/CDISC/V1#M-CDISC_SDTMMODEL> bd:includesVariable <http://www.assero.co.uk/MDRSdtmM/CDISC/V1#M-CDISC_SDTMMODEL_xxSOD> . 
<http://www.assero.co.uk/MDRSdtmM/CDISC/V1#M-CDISC_SDTMMODEL_xxSMIE> rdf:type <http://www.assero.co.uk/BusinessDomain#ModelVariable> . 
<http://www.assero.co.uk/MDRSdtmM/CDISC/V1#M-CDISC_SDTMMODEL_xxSMIE> rdfs:label "Other Medically Important Serious Event"^^xsd:string . 
<http://www.assero.co.uk/MDRSdtmM/CDISC/V1#M-CDISC_SDTMMODEL_xxSMIE> bd:ordinal "27"^^xsd:positiveInteger . 
<http://www.assero.co.uk/MDRSdtmM/CDISC/V1#M-CDISC_SDTMMODEL_xxSMIE> bd:rule ""^^xsd:string . 
<http://www.assero.co.uk/MDRSdtmM/CDISC/V1#M-CDISC_SDTMMODEL_xxSMIE> bd:name "--SMIE"^^xsd:string . 
<http://www.assero.co.uk/MDRSdtmM/CDISC/V1#M-CDISC_SDTMMODEL_xxSMIE> bd:prefixed "true"^^xsd:boolean . 
<http://www.assero.co.uk/MDRSdtmM/CDISC/V1#M-CDISC_SDTMMODEL_xxSMIE> bd:description "Do additional categories for seriousness apply? Valid values are 'Y' and 'N'."^^xsd:string . 
<http://www.assero.co.uk/MDRSdtmM/CDISC/V1#M-CDISC_SDTMMODEL_xxSMIE> bd:typedAs <http://www.assero.co.uk/MDRSdtmM/CDISC/V1#M-CDISC_SDTMMODEL_DT_CHAR> . 
<http://www.assero.co.uk/MDRSdtmM/CDISC/V1#M-CDISC_SDTMMODEL_xxSMIE> bd:classifiedAs <http://www.assero.co.uk/MDRSdtmM/CDISC/V1#M-CDISC_SDTMMODEL_C_QUALIFIER_SC_RECORDQUALIFIER> . 
<http://www.assero.co.uk/MDRSdtmM/CDISC/V1#M-CDISC_SDTMMODEL> bd:includesVariable <http://www.assero.co.uk/MDRSdtmM/CDISC/V1#M-CDISC_SDTMMODEL_xxSMIE> . 
<http://www.assero.co.uk/MDRSdtmM/CDISC/V1#M-CDISC_SDTMMODEL_xxCONTRT> rdf:type <http://www.assero.co.uk/BusinessDomain#ModelVariable> . 
<http://www.assero.co.uk/MDRSdtmM/CDISC/V1#M-CDISC_SDTMMODEL_xxCONTRT> rdfs:label "Concomitant or Additional Trtmnt Given"^^xsd:string . 
<http://www.assero.co.uk/MDRSdtmM/CDISC/V1#M-CDISC_SDTMMODEL_xxCONTRT> bd:ordinal "28"^^xsd:positiveInteger . 
<http://www.assero.co.uk/MDRSdtmM/CDISC/V1#M-CDISC_SDTMMODEL_xxCONTRT> bd:rule ""^^xsd:string . 
<http://www.assero.co.uk/MDRSdtmM/CDISC/V1#M-CDISC_SDTMMODEL_xxCONTRT> bd:name "--CONTRT"^^xsd:string . 
<http://www.assero.co.uk/MDRSdtmM/CDISC/V1#M-CDISC_SDTMMODEL_xxCONTRT> bd:prefixed "true"^^xsd:boolean . 
<http://www.assero.co.uk/MDRSdtmM/CDISC/V1#M-CDISC_SDTMMODEL_xxCONTRT> bd:description "Was another treatment given because of the occurrence of the event? Valid values are 'Y' and 'N'."^^xsd:string . 
<http://www.assero.co.uk/MDRSdtmM/CDISC/V1#M-CDISC_SDTMMODEL_xxCONTRT> bd:typedAs <http://www.assero.co.uk/MDRSdtmM/CDISC/V1#M-CDISC_SDTMMODEL_DT_CHAR> . 
<http://www.assero.co.uk/MDRSdtmM/CDISC/V1#M-CDISC_SDTMMODEL_xxCONTRT> bd:classifiedAs <http://www.assero.co.uk/MDRSdtmM/CDISC/V1#M-CDISC_SDTMMODEL_C_QUALIFIER_SC_RECORDQUALIFIER> . 
<http://www.assero.co.uk/MDRSdtmM/CDISC/V1#M-CDISC_SDTMMODEL> bd:includesVariable <http://www.assero.co.uk/MDRSdtmM/CDISC/V1#M-CDISC_SDTMMODEL_xxCONTRT> . 
<http://www.assero.co.uk/MDRSdtmM/CDISC/V1#M-CDISC_SDTMMODEL_xxTOX> rdf:type <http://www.assero.co.uk/BusinessDomain#ModelVariable> . 
<http://www.assero.co.uk/MDRSdtmM/CDISC/V1#M-CDISC_SDTMMODEL_xxTOX> rdfs:label "Toxicity"^^xsd:string . 
<http://www.assero.co.uk/MDRSdtmM/CDISC/V1#M-CDISC_SDTMMODEL_xxTOX> bd:ordinal "29"^^xsd:positiveInteger . 
<http://www.assero.co.uk/MDRSdtmM/CDISC/V1#M-CDISC_SDTMMODEL_xxTOX> bd:rule ""^^xsd:string . 
<http://www.assero.co.uk/MDRSdtmM/CDISC/V1#M-CDISC_SDTMMODEL_xxTOX> bd:name "--TOX"^^xsd:string . 
<http://www.assero.co.uk/MDRSdtmM/CDISC/V1#M-CDISC_SDTMMODEL_xxTOX> bd:prefixed "true"^^xsd:boolean . 
<http://www.assero.co.uk/MDRSdtmM/CDISC/V1#M-CDISC_SDTMMODEL_xxTOX> bd:description "Description of toxicity quantified by --TOXGR such as NCI CTCAE Short Name. Examples: HYPERCALCEMIA, HYPOCALCEMIA. Sponsor should specify which scale and version is used in the Sponsor Comments column of the Define.xml document."^^xsd:string . 
<http://www.assero.co.uk/MDRSdtmM/CDISC/V1#M-CDISC_SDTMMODEL_xxTOX> bd:typedAs <http://www.assero.co.uk/MDRSdtmM/CDISC/V1#M-CDISC_SDTMMODEL_DT_CHAR> . 
<http://www.assero.co.uk/MDRSdtmM/CDISC/V1#M-CDISC_SDTMMODEL_xxTOX> bd:classifiedAs <http://www.assero.co.uk/MDRSdtmM/CDISC/V1#M-CDISC_SDTMMODEL_C_QUALIFIER_SC_VARIABLEQUALIFIER> . 
<http://www.assero.co.uk/MDRSdtmM/CDISC/V1#M-CDISC_SDTMMODEL> bd:includesVariable <http://www.assero.co.uk/MDRSdtmM/CDISC/V1#M-CDISC_SDTMMODEL_xxTOX> . 
<http://www.assero.co.uk/MDRSdtmM/CDISC/V1#M-CDISC_SDTMMODEL_xxTOXGR> rdf:type <http://www.assero.co.uk/BusinessDomain#ModelVariable> . 
<http://www.assero.co.uk/MDRSdtmM/CDISC/V1#M-CDISC_SDTMMODEL_xxTOXGR> rdfs:label "Toxicity Grade"^^xsd:string . 
<http://www.assero.co.uk/MDRSdtmM/CDISC/V1#M-CDISC_SDTMMODEL_xxTOXGR> bd:ordinal "30"^^xsd:positiveInteger . 
<http://www.assero.co.uk/MDRSdtmM/CDISC/V1#M-CDISC_SDTMMODEL_xxTOXGR> bd:rule ""^^xsd:string . 
<http://www.assero.co.uk/MDRSdtmM/CDISC/V1#M-CDISC_SDTMMODEL_xxTOXGR> bd:name "--TOXGR"^^xsd:string . 
<http://www.assero.co.uk/MDRSdtmM/CDISC/V1#M-CDISC_SDTMMODEL_xxTOXGR> bd:prefixed "true"^^xsd:boolean . 
<http://www.assero.co.uk/MDRSdtmM/CDISC/V1#M-CDISC_SDTMMODEL_xxTOXGR> bd:description "Records toxicity grade using a standard toxicity scale (such as the NCI CTCAE). Sponsor should specify which scale and version is used in the Sponsor Comments column of the Define.xml document."^^xsd:string . 
<http://www.assero.co.uk/MDRSdtmM/CDISC/V1#M-CDISC_SDTMMODEL_xxTOXGR> bd:typedAs <http://www.assero.co.uk/MDRSdtmM/CDISC/V1#M-CDISC_SDTMMODEL_DT_CHAR> . 
<http://www.assero.co.uk/MDRSdtmM/CDISC/V1#M-CDISC_SDTMMODEL_xxTOXGR> bd:classifiedAs <http://www.assero.co.uk/MDRSdtmM/CDISC/V1#M-CDISC_SDTMMODEL_C_QUALIFIER_SC_RECORDQUALIFIER> . 
<http://www.assero.co.uk/MDRSdtmM/CDISC/V1#M-CDISC_SDTMMODEL> bd:includesVariable <http://www.assero.co.uk/MDRSdtmM/CDISC/V1#M-CDISC_SDTMMODEL_xxTOXGR> . 
<http://www.assero.co.uk/MDRSdtmM/CDISC/V1#M-CDISC_SDTMMODEL_xxTESTCD> rdf:type <http://www.assero.co.uk/BusinessDomain#ModelVariable> . 
<http://www.assero.co.uk/MDRSdtmM/CDISC/V1#M-CDISC_SDTMMODEL_xxTESTCD> rdfs:label "Short Name of Measurement, Test or Examination"^^xsd:string . 
<http://www.assero.co.uk/MDRSdtmM/CDISC/V1#M-CDISC_SDTMMODEL_xxTESTCD> bd:ordinal "1"^^xsd:positiveInteger . 
<http://www.assero.co.uk/MDRSdtmM/CDISC/V1#M-CDISC_SDTMMODEL_xxTESTCD> bd:rule ""^^xsd:string . 
<http://www.assero.co.uk/MDRSdtmM/CDISC/V1#M-CDISC_SDTMMODEL_xxTESTCD> bd:name "--TESTCD"^^xsd:string . 
<http://www.assero.co.uk/MDRSdtmM/CDISC/V1#M-CDISC_SDTMMODEL_xxTESTCD> bd:prefixed "true"^^xsd:boolean . 
<http://www.assero.co.uk/MDRSdtmM/CDISC/V1#M-CDISC_SDTMMODEL_xxTESTCD> bd:description "Short character value for --TEST used as a column name when converting a dataset from a vertical format to a horizontal format. The short value can be up to 8 characters. Examples: PLAT, SYSBP, RRMIN, EYEEXAM."^^xsd:string . 
<http://www.assero.co.uk/MDRSdtmM/CDISC/V1#M-CDISC_SDTMMODEL_xxTESTCD> bd:typedAs <http://www.assero.co.uk/MDRSdtmM/CDISC/V1#M-CDISC_SDTMMODEL_DT_CHAR> . 
<http://www.assero.co.uk/MDRSdtmM/CDISC/V1#M-CDISC_SDTMMODEL_xxTESTCD> bd:classifiedAs <http://www.assero.co.uk/MDRSdtmM/CDISC/V1#M-CDISC_SDTMMODEL_C_TOPIC> . 
<http://www.assero.co.uk/MDRSdtmM/CDISC/V1#M-CDISC_SDTMMODEL> bd:includesVariable <http://www.assero.co.uk/MDRSdtmM/CDISC/V1#M-CDISC_SDTMMODEL_xxTESTCD> . 
<http://www.assero.co.uk/MDRSdtmM/CDISC/V1#M-CDISC_SDTMMODEL_xxTEST> rdf:type <http://www.assero.co.uk/BusinessDomain#ModelVariable> . 
<http://www.assero.co.uk/MDRSdtmM/CDISC/V1#M-CDISC_SDTMMODEL_xxTEST> rdfs:label "Name of Measurement, Test or Examination"^^xsd:string . 
<http://www.assero.co.uk/MDRSdtmM/CDISC/V1#M-CDISC_SDTMMODEL_xxTEST> bd:ordinal "2"^^xsd:positiveInteger . 
<http://www.assero.co.uk/MDRSdtmM/CDISC/V1#M-CDISC_SDTMMODEL_xxTEST> bd:rule ""^^xsd:string . 
<http://www.assero.co.uk/MDRSdtmM/CDISC/V1#M-CDISC_SDTMMODEL_xxTEST> bd:name "--TEST"^^xsd:string . 
<http://www.assero.co.uk/MDRSdtmM/CDISC/V1#M-CDISC_SDTMMODEL_xxTEST> bd:prefixed "true"^^xsd:boolean . 
<http://www.assero.co.uk/MDRSdtmM/CDISC/V1#M-CDISC_SDTMMODEL_xxTEST> bd:description "Long name For --TESTCD. Examples: Platelet, Systolic Blood Pressure, Summary (Min) RR Duration, Eye Examination."^^xsd:string . 
<http://www.assero.co.uk/MDRSdtmM/CDISC/V1#M-CDISC_SDTMMODEL_xxTEST> bd:typedAs <http://www.assero.co.uk/MDRSdtmM/CDISC/V1#M-CDISC_SDTMMODEL_DT_CHAR> . 
<http://www.assero.co.uk/MDRSdtmM/CDISC/V1#M-CDISC_SDTMMODEL_xxTEST> bd:classifiedAs <http://www.assero.co.uk/MDRSdtmM/CDISC/V1#M-CDISC_SDTMMODEL_C_QUALIFIER_SC_SYNONYMQUALIFIER> . 
<http://www.assero.co.uk/MDRSdtmM/CDISC/V1#M-CDISC_SDTMMODEL> bd:includesVariable <http://www.assero.co.uk/MDRSdtmM/CDISC/V1#M-CDISC_SDTMMODEL_xxTEST> . 
<http://www.assero.co.uk/MDRSdtmM/CDISC/V1#M-CDISC_SDTMMODEL_xxPOS> rdf:type <http://www.assero.co.uk/BusinessDomain#ModelVariable> . 
<http://www.assero.co.uk/MDRSdtmM/CDISC/V1#M-CDISC_SDTMMODEL_xxPOS> rdfs:label "Position of Subject During Observation"^^xsd:string . 
<http://www.assero.co.uk/MDRSdtmM/CDISC/V1#M-CDISC_SDTMMODEL_xxPOS> bd:ordinal "6"^^xsd:positiveInteger . 
<http://www.assero.co.uk/MDRSdtmM/CDISC/V1#M-CDISC_SDTMMODEL_xxPOS> bd:rule ""^^xsd:string . 
<http://www.assero.co.uk/MDRSdtmM/CDISC/V1#M-CDISC_SDTMMODEL_xxPOS> bd:name "--POS"^^xsd:string . 
<http://www.assero.co.uk/MDRSdtmM/CDISC/V1#M-CDISC_SDTMMODEL_xxPOS> bd:prefixed "true"^^xsd:boolean . 
<http://www.assero.co.uk/MDRSdtmM/CDISC/V1#M-CDISC_SDTMMODEL_xxPOS> bd:description "Position of the subject during a measurement or examination. Examples: SUPINE, STANDING, SITTING."^^xsd:string . 
<http://www.assero.co.uk/MDRSdtmM/CDISC/V1#M-CDISC_SDTMMODEL_xxPOS> bd:typedAs <http://www.assero.co.uk/MDRSdtmM/CDISC/V1#M-CDISC_SDTMMODEL_DT_CHAR> . 
<http://www.assero.co.uk/MDRSdtmM/CDISC/V1#M-CDISC_SDTMMODEL_xxPOS> bd:classifiedAs <http://www.assero.co.uk/MDRSdtmM/CDISC/V1#M-CDISC_SDTMMODEL_C_QUALIFIER_SC_RECORDQUALIFIER> . 
<http://www.assero.co.uk/MDRSdtmM/CDISC/V1#M-CDISC_SDTMMODEL> bd:includesVariable <http://www.assero.co.uk/MDRSdtmM/CDISC/V1#M-CDISC_SDTMMODEL_xxPOS> . 
<http://www.assero.co.uk/MDRSdtmM/CDISC/V1#M-CDISC_SDTMMODEL_xxORRES> rdf:type <http://www.assero.co.uk/BusinessDomain#ModelVariable> . 
<http://www.assero.co.uk/MDRSdtmM/CDISC/V1#M-CDISC_SDTMMODEL_xxORRES> rdfs:label "Result or Finding in Original Units"^^xsd:string . 
<http://www.assero.co.uk/MDRSdtmM/CDISC/V1#M-CDISC_SDTMMODEL_xxORRES> bd:ordinal "8"^^xsd:positiveInteger . 
<http://www.assero.co.uk/MDRSdtmM/CDISC/V1#M-CDISC_SDTMMODEL_xxORRES> bd:rule ""^^xsd:string . 
<http://www.assero.co.uk/MDRSdtmM/CDISC/V1#M-CDISC_SDTMMODEL_xxORRES> bd:name "--ORRES"^^xsd:string . 
<http://www.assero.co.uk/MDRSdtmM/CDISC/V1#M-CDISC_SDTMMODEL_xxORRES> bd:prefixed "true"^^xsd:boolean . 
<http://www.assero.co.uk/MDRSdtmM/CDISC/V1#M-CDISC_SDTMMODEL_xxORRES> bd:description "Result of the measurement or finding as originally received or collected. Examples: 120, <1, POS."^^xsd:string . 
<http://www.assero.co.uk/MDRSdtmM/CDISC/V1#M-CDISC_SDTMMODEL_xxORRES> bd:typedAs <http://www.assero.co.uk/MDRSdtmM/CDISC/V1#M-CDISC_SDTMMODEL_DT_CHAR> . 
<http://www.assero.co.uk/MDRSdtmM/CDISC/V1#M-CDISC_SDTMMODEL_xxORRES> bd:classifiedAs <http://www.assero.co.uk/MDRSdtmM/CDISC/V1#M-CDISC_SDTMMODEL_C_QUALIFIER_SC_RESULTQUALIFIER> . 
<http://www.assero.co.uk/MDRSdtmM/CDISC/V1#M-CDISC_SDTMMODEL> bd:includesVariable <http://www.assero.co.uk/MDRSdtmM/CDISC/V1#M-CDISC_SDTMMODEL_xxORRES> . 
<http://www.assero.co.uk/MDRSdtmM/CDISC/V1#M-CDISC_SDTMMODEL_xxORRESU> rdf:type <http://www.assero.co.uk/BusinessDomain#ModelVariable> . 
<http://www.assero.co.uk/MDRSdtmM/CDISC/V1#M-CDISC_SDTMMODEL_xxORRESU> rdfs:label "Original Units"^^xsd:string . 
<http://www.assero.co.uk/MDRSdtmM/CDISC/V1#M-CDISC_SDTMMODEL_xxORRESU> bd:ordinal "9"^^xsd:positiveInteger . 
<http://www.assero.co.uk/MDRSdtmM/CDISC/V1#M-CDISC_SDTMMODEL_xxORRESU> bd:rule ""^^xsd:string . 
<http://www.assero.co.uk/MDRSdtmM/CDISC/V1#M-CDISC_SDTMMODEL_xxORRESU> bd:name "--ORRESU"^^xsd:string . 
<http://www.assero.co.uk/MDRSdtmM/CDISC/V1#M-CDISC_SDTMMODEL_xxORRESU> bd:prefixed "true"^^xsd:boolean . 
<http://www.assero.co.uk/MDRSdtmM/CDISC/V1#M-CDISC_SDTMMODEL_xxORRESU> bd:description "Unit for --ORRES. Examples: IN, LB, kg/L."^^xsd:string . 
<http://www.assero.co.uk/MDRSdtmM/CDISC/V1#M-CDISC_SDTMMODEL_xxORRESU> bd:typedAs <http://www.assero.co.uk/MDRSdtmM/CDISC/V1#M-CDISC_SDTMMODEL_DT_CHAR> . 
<http://www.assero.co.uk/MDRSdtmM/CDISC/V1#M-CDISC_SDTMMODEL_xxORRESU> bd:classifiedAs <http://www.assero.co.uk/MDRSdtmM/CDISC/V1#M-CDISC_SDTMMODEL_C_QUALIFIER_SC_VARIABLEQUALIFIER> . 
<http://www.assero.co.uk/MDRSdtmM/CDISC/V1#M-CDISC_SDTMMODEL> bd:includesVariable <http://www.assero.co.uk/MDRSdtmM/CDISC/V1#M-CDISC_SDTMMODEL_xxORRESU> . 
<http://www.assero.co.uk/MDRSdtmM/CDISC/V1#M-CDISC_SDTMMODEL_xxORNRLO> rdf:type <http://www.assero.co.uk/BusinessDomain#ModelVariable> . 
<http://www.assero.co.uk/MDRSdtmM/CDISC/V1#M-CDISC_SDTMMODEL_xxORNRLO> rdfs:label "Normal Range Lower Limit-Original Units"^^xsd:string . 
<http://www.assero.co.uk/MDRSdtmM/CDISC/V1#M-CDISC_SDTMMODEL_xxORNRLO> bd:ordinal "10"^^xsd:positiveInteger . 
<http://www.assero.co.uk/MDRSdtmM/CDISC/V1#M-CDISC_SDTMMODEL_xxORNRLO> bd:rule ""^^xsd:string . 
<http://www.assero.co.uk/MDRSdtmM/CDISC/V1#M-CDISC_SDTMMODEL_xxORNRLO> bd:name "--ORNRLO"^^xsd:string . 
<http://www.assero.co.uk/MDRSdtmM/CDISC/V1#M-CDISC_SDTMMODEL_xxORNRLO> bd:prefixed "true"^^xsd:boolean . 
<http://www.assero.co.uk/MDRSdtmM/CDISC/V1#M-CDISC_SDTMMODEL_xxORNRLO> bd:description "Lower end of normal range or reference range for results stored in --ORRES."^^xsd:string . 
<http://www.assero.co.uk/MDRSdtmM/CDISC/V1#M-CDISC_SDTMMODEL_xxORNRLO> bd:typedAs <http://www.assero.co.uk/MDRSdtmM/CDISC/V1#M-CDISC_SDTMMODEL_DT_CHAR> . 
<http://www.assero.co.uk/MDRSdtmM/CDISC/V1#M-CDISC_SDTMMODEL_xxORNRLO> bd:classifiedAs <http://www.assero.co.uk/MDRSdtmM/CDISC/V1#M-CDISC_SDTMMODEL_C_QUALIFIER_SC_VARIABLEQUALIFIER> . 
<http://www.assero.co.uk/MDRSdtmM/CDISC/V1#M-CDISC_SDTMMODEL> bd:includesVariable <http://www.assero.co.uk/MDRSdtmM/CDISC/V1#M-CDISC_SDTMMODEL_xxORNRLO> . 
<http://www.assero.co.uk/MDRSdtmM/CDISC/V1#M-CDISC_SDTMMODEL_xxORNRHI> rdf:type <http://www.assero.co.uk/BusinessDomain#ModelVariable> . 
<http://www.assero.co.uk/MDRSdtmM/CDISC/V1#M-CDISC_SDTMMODEL_xxORNRHI> rdfs:label "Normal Range Upper Limit-Original Units"^^xsd:string . 
<http://www.assero.co.uk/MDRSdtmM/CDISC/V1#M-CDISC_SDTMMODEL_xxORNRHI> bd:ordinal "11"^^xsd:positiveInteger . 
<http://www.assero.co.uk/MDRSdtmM/CDISC/V1#M-CDISC_SDTMMODEL_xxORNRHI> bd:rule ""^^xsd:string . 
<http://www.assero.co.uk/MDRSdtmM/CDISC/V1#M-CDISC_SDTMMODEL_xxORNRHI> bd:name "--ORNRHI"^^xsd:string . 
<http://www.assero.co.uk/MDRSdtmM/CDISC/V1#M-CDISC_SDTMMODEL_xxORNRHI> bd:prefixed "true"^^xsd:boolean . 
<http://www.assero.co.uk/MDRSdtmM/CDISC/V1#M-CDISC_SDTMMODEL_xxORNRHI> bd:description "Upper end of normal range or reference range for results stored in --ORRES."^^xsd:string . 
<http://www.assero.co.uk/MDRSdtmM/CDISC/V1#M-CDISC_SDTMMODEL_xxORNRHI> bd:typedAs <http://www.assero.co.uk/MDRSdtmM/CDISC/V1#M-CDISC_SDTMMODEL_DT_CHAR> . 
<http://www.assero.co.uk/MDRSdtmM/CDISC/V1#M-CDISC_SDTMMODEL_xxORNRHI> bd:classifiedAs <http://www.assero.co.uk/MDRSdtmM/CDISC/V1#M-CDISC_SDTMMODEL_C_QUALIFIER_SC_VARIABLEQUALIFIER> . 
<http://www.assero.co.uk/MDRSdtmM/CDISC/V1#M-CDISC_SDTMMODEL> bd:includesVariable <http://www.assero.co.uk/MDRSdtmM/CDISC/V1#M-CDISC_SDTMMODEL_xxORNRHI> . 
<http://www.assero.co.uk/MDRSdtmM/CDISC/V1#M-CDISC_SDTMMODEL_xxSTRESC> rdf:type <http://www.assero.co.uk/BusinessDomain#ModelVariable> . 
<http://www.assero.co.uk/MDRSdtmM/CDISC/V1#M-CDISC_SDTMMODEL_xxSTRESC> rdfs:label "Result or Finding in Standard Format"^^xsd:string . 
<http://www.assero.co.uk/MDRSdtmM/CDISC/V1#M-CDISC_SDTMMODEL_xxSTRESC> bd:ordinal "12"^^xsd:positiveInteger . 
<http://www.assero.co.uk/MDRSdtmM/CDISC/V1#M-CDISC_SDTMMODEL_xxSTRESC> bd:rule ""^^xsd:string . 
<http://www.assero.co.uk/MDRSdtmM/CDISC/V1#M-CDISC_SDTMMODEL_xxSTRESC> bd:name "--STRESC"^^xsd:string . 
<http://www.assero.co.uk/MDRSdtmM/CDISC/V1#M-CDISC_SDTMMODEL_xxSTRESC> bd:prefixed "true"^^xsd:boolean . 
<http://www.assero.co.uk/MDRSdtmM/CDISC/V1#M-CDISC_SDTMMODEL_xxSTRESC> bd:description "Contains the result value for all findings, copied or derived from --ORRES in a standard format or in standard units. --STRESC should store all results or findings in character format; if results are numeric, they should also be stored in numeric format in --STRESN. For example, if various tests have results 'NONE', 'NEG', and 'NEGATIVE' in --ORRES and these results effectively have the same meaning, they could be represented in standard format in --STRESC as 'NEGATIVE'."^^xsd:string . 
<http://www.assero.co.uk/MDRSdtmM/CDISC/V1#M-CDISC_SDTMMODEL_xxSTRESC> bd:typedAs <http://www.assero.co.uk/MDRSdtmM/CDISC/V1#M-CDISC_SDTMMODEL_DT_CHAR> . 
<http://www.assero.co.uk/MDRSdtmM/CDISC/V1#M-CDISC_SDTMMODEL_xxSTRESC> bd:classifiedAs <http://www.assero.co.uk/MDRSdtmM/CDISC/V1#M-CDISC_SDTMMODEL_C_QUALIFIER_SC_RESULTQUALIFIER> . 
<http://www.assero.co.uk/MDRSdtmM/CDISC/V1#M-CDISC_SDTMMODEL> bd:includesVariable <http://www.assero.co.uk/MDRSdtmM/CDISC/V1#M-CDISC_SDTMMODEL_xxSTRESC> . 
<http://www.assero.co.uk/MDRSdtmM/CDISC/V1#M-CDISC_SDTMMODEL_xxSTRESN> rdf:type <http://www.assero.co.uk/BusinessDomain#ModelVariable> . 
<http://www.assero.co.uk/MDRSdtmM/CDISC/V1#M-CDISC_SDTMMODEL_xxSTRESN> rdfs:label "Numeric Result/Finding in Standard Units"^^xsd:string . 
<http://www.assero.co.uk/MDRSdtmM/CDISC/V1#M-CDISC_SDTMMODEL_xxSTRESN> bd:ordinal "13"^^xsd:positiveInteger . 
<http://www.assero.co.uk/MDRSdtmM/CDISC/V1#M-CDISC_SDTMMODEL_xxSTRESN> bd:rule ""^^xsd:string . 
<http://www.assero.co.uk/MDRSdtmM/CDISC/V1#M-CDISC_SDTMMODEL_xxSTRESN> bd:name "--STRESN"^^xsd:string . 
<http://www.assero.co.uk/MDRSdtmM/CDISC/V1#M-CDISC_SDTMMODEL_xxSTRESN> bd:prefixed "true"^^xsd:boolean . 
<http://www.assero.co.uk/MDRSdtmM/CDISC/V1#M-CDISC_SDTMMODEL_xxSTRESN> bd:description "Used for continuous or numeric results or findings in standard format; copied in numeric format from --STRESC. --STRESN should store all numeric test results or findings."^^xsd:string . 
<http://www.assero.co.uk/MDRSdtmM/CDISC/V1#M-CDISC_SDTMMODEL_xxSTRESN> bd:typedAs <http://www.assero.co.uk/MDRSdtmM/CDISC/V1#M-CDISC_SDTMMODEL_DT_NUM> . 
<http://www.assero.co.uk/MDRSdtmM/CDISC/V1#M-CDISC_SDTMMODEL_xxSTRESN> bd:classifiedAs <http://www.assero.co.uk/MDRSdtmM/CDISC/V1#M-CDISC_SDTMMODEL_C_QUALIFIER_SC_RESULTQUALIFIER> . 
<http://www.assero.co.uk/MDRSdtmM/CDISC/V1#M-CDISC_SDTMMODEL> bd:includesVariable <http://www.assero.co.uk/MDRSdtmM/CDISC/V1#M-CDISC_SDTMMODEL_xxSTRESN> . 
<http://www.assero.co.uk/MDRSdtmM/CDISC/V1#M-CDISC_SDTMMODEL_xxSTRESU> rdf:type <http://www.assero.co.uk/BusinessDomain#ModelVariable> . 
<http://www.assero.co.uk/MDRSdtmM/CDISC/V1#M-CDISC_SDTMMODEL_xxSTRESU> rdfs:label "Standard Units"^^xsd:string . 
<http://www.assero.co.uk/MDRSdtmM/CDISC/V1#M-CDISC_SDTMMODEL_xxSTRESU> bd:ordinal "14"^^xsd:positiveInteger . 
<http://www.assero.co.uk/MDRSdtmM/CDISC/V1#M-CDISC_SDTMMODEL_xxSTRESU> bd:rule ""^^xsd:string . 
<http://www.assero.co.uk/MDRSdtmM/CDISC/V1#M-CDISC_SDTMMODEL_xxSTRESU> bd:name "--STRESU"^^xsd:string . 
<http://www.assero.co.uk/MDRSdtmM/CDISC/V1#M-CDISC_SDTMMODEL_xxSTRESU> bd:prefixed "true"^^xsd:boolean . 
<http://www.assero.co.uk/MDRSdtmM/CDISC/V1#M-CDISC_SDTMMODEL_xxSTRESU> bd:description "Standardized units used for --STRESC and --STRESN. Example: mol/L."^^xsd:string . 
<http://www.assero.co.uk/MDRSdtmM/CDISC/V1#M-CDISC_SDTMMODEL_xxSTRESU> bd:typedAs <http://www.assero.co.uk/MDRSdtmM/CDISC/V1#M-CDISC_SDTMMODEL_DT_CHAR> . 
<http://www.assero.co.uk/MDRSdtmM/CDISC/V1#M-CDISC_SDTMMODEL_xxSTRESU> bd:classifiedAs <http://www.assero.co.uk/MDRSdtmM/CDISC/V1#M-CDISC_SDTMMODEL_C_QUALIFIER_SC_VARIABLEQUALIFIER> . 
<http://www.assero.co.uk/MDRSdtmM/CDISC/V1#M-CDISC_SDTMMODEL> bd:includesVariable <http://www.assero.co.uk/MDRSdtmM/CDISC/V1#M-CDISC_SDTMMODEL_xxSTRESU> . 
<http://www.assero.co.uk/MDRSdtmM/CDISC/V1#M-CDISC_SDTMMODEL_xxSTNRLO> rdf:type <http://www.assero.co.uk/BusinessDomain#ModelVariable> . 
<http://www.assero.co.uk/MDRSdtmM/CDISC/V1#M-CDISC_SDTMMODEL_xxSTNRLO> rdfs:label "Normal Range Lower Limit-Standard Units"^^xsd:string . 
<http://www.assero.co.uk/MDRSdtmM/CDISC/V1#M-CDISC_SDTMMODEL_xxSTNRLO> bd:ordinal "15"^^xsd:positiveInteger . 
<http://www.assero.co.uk/MDRSdtmM/CDISC/V1#M-CDISC_SDTMMODEL_xxSTNRLO> bd:rule ""^^xsd:string . 
<http://www.assero.co.uk/MDRSdtmM/CDISC/V1#M-CDISC_SDTMMODEL_xxSTNRLO> bd:name "--STNRLO"^^xsd:string . 
<http://www.assero.co.uk/MDRSdtmM/CDISC/V1#M-CDISC_SDTMMODEL_xxSTNRLO> bd:prefixed "true"^^xsd:boolean . 
<http://www.assero.co.uk/MDRSdtmM/CDISC/V1#M-CDISC_SDTMMODEL_xxSTNRLO> bd:description "Lower end of normal range or reference range for standardized results (e.g., --STRESC, --STRESN) represented in standardized units (--STRESU)."^^xsd:string . 
<http://www.assero.co.uk/MDRSdtmM/CDISC/V1#M-CDISC_SDTMMODEL_xxSTNRLO> bd:typedAs <http://www.assero.co.uk/MDRSdtmM/CDISC/V1#M-CDISC_SDTMMODEL_DT_NUM> . 
<http://www.assero.co.uk/MDRSdtmM/CDISC/V1#M-CDISC_SDTMMODEL_xxSTNRLO> bd:classifiedAs <http://www.assero.co.uk/MDRSdtmM/CDISC/V1#M-CDISC_SDTMMODEL_C_QUALIFIER_SC_VARIABLEQUALIFIER> . 
<http://www.assero.co.uk/MDRSdtmM/CDISC/V1#M-CDISC_SDTMMODEL> bd:includesVariable <http://www.assero.co.uk/MDRSdtmM/CDISC/V1#M-CDISC_SDTMMODEL_xxSTNRLO> . 
<http://www.assero.co.uk/MDRSdtmM/CDISC/V1#M-CDISC_SDTMMODEL_xxSTNRHI> rdf:type <http://www.assero.co.uk/BusinessDomain#ModelVariable> . 
<http://www.assero.co.uk/MDRSdtmM/CDISC/V1#M-CDISC_SDTMMODEL_xxSTNRHI> rdfs:label "Normal Range Upper Limit-Standard Units"^^xsd:string . 
<http://www.assero.co.uk/MDRSdtmM/CDISC/V1#M-CDISC_SDTMMODEL_xxSTNRHI> bd:ordinal "16"^^xsd:positiveInteger . 
<http://www.assero.co.uk/MDRSdtmM/CDISC/V1#M-CDISC_SDTMMODEL_xxSTNRHI> bd:rule ""^^xsd:string . 
<http://www.assero.co.uk/MDRSdtmM/CDISC/V1#M-CDISC_SDTMMODEL_xxSTNRHI> bd:name "--STNRHI"^^xsd:string . 
<http://www.assero.co.uk/MDRSdtmM/CDISC/V1#M-CDISC_SDTMMODEL_xxSTNRHI> bd:prefixed "true"^^xsd:boolean . 
<http://www.assero.co.uk/MDRSdtmM/CDISC/V1#M-CDISC_SDTMMODEL_xxSTNRHI> bd:description "Upper end of normal range or reference range for standardized results (e.g., --STRESC, --STRESN) represented in standardized units (--STRESU)."^^xsd:string . 
<http://www.assero.co.uk/MDRSdtmM/CDISC/V1#M-CDISC_SDTMMODEL_xxSTNRHI> bd:typedAs <http://www.assero.co.uk/MDRSdtmM/CDISC/V1#M-CDISC_SDTMMODEL_DT_NUM> . 
<http://www.assero.co.uk/MDRSdtmM/CDISC/V1#M-CDISC_SDTMMODEL_xxSTNRHI> bd:classifiedAs <http://www.assero.co.uk/MDRSdtmM/CDISC/V1#M-CDISC_SDTMMODEL_C_QUALIFIER_SC_VARIABLEQUALIFIER> . 
<http://www.assero.co.uk/MDRSdtmM/CDISC/V1#M-CDISC_SDTMMODEL> bd:includesVariable <http://www.assero.co.uk/MDRSdtmM/CDISC/V1#M-CDISC_SDTMMODEL_xxSTNRHI> . 
<http://www.assero.co.uk/MDRSdtmM/CDISC/V1#M-CDISC_SDTMMODEL_xxSTNRC> rdf:type <http://www.assero.co.uk/BusinessDomain#ModelVariable> . 
<http://www.assero.co.uk/MDRSdtmM/CDISC/V1#M-CDISC_SDTMMODEL_xxSTNRC> rdfs:label "Normal Range for Character Results"^^xsd:string . 
<http://www.assero.co.uk/MDRSdtmM/CDISC/V1#M-CDISC_SDTMMODEL_xxSTNRC> bd:ordinal "17"^^xsd:positiveInteger . 
<http://www.assero.co.uk/MDRSdtmM/CDISC/V1#M-CDISC_SDTMMODEL_xxSTNRC> bd:rule ""^^xsd:string . 
<http://www.assero.co.uk/MDRSdtmM/CDISC/V1#M-CDISC_SDTMMODEL_xxSTNRC> bd:name "--STNRC"^^xsd:string . 
<http://www.assero.co.uk/MDRSdtmM/CDISC/V1#M-CDISC_SDTMMODEL_xxSTNRC> bd:prefixed "true"^^xsd:boolean . 
<http://www.assero.co.uk/MDRSdtmM/CDISC/V1#M-CDISC_SDTMMODEL_xxSTNRC> bd:description "Normal range or reference range for results stored in --STRESC that are character in ordinal or categorical scale. Example: Negative to Trace."^^xsd:string . 
<http://www.assero.co.uk/MDRSdtmM/CDISC/V1#M-CDISC_SDTMMODEL_xxSTNRC> bd:typedAs <http://www.assero.co.uk/MDRSdtmM/CDISC/V1#M-CDISC_SDTMMODEL_DT_CHAR> . 
<http://www.assero.co.uk/MDRSdtmM/CDISC/V1#M-CDISC_SDTMMODEL_xxSTNRC> bd:classifiedAs <http://www.assero.co.uk/MDRSdtmM/CDISC/V1#M-CDISC_SDTMMODEL_C_QUALIFIER_SC_VARIABLEQUALIFIER> . 
<http://www.assero.co.uk/MDRSdtmM/CDISC/V1#M-CDISC_SDTMMODEL> bd:includesVariable <http://www.assero.co.uk/MDRSdtmM/CDISC/V1#M-CDISC_SDTMMODEL_xxSTNRC> . 
<http://www.assero.co.uk/MDRSdtmM/CDISC/V1#M-CDISC_SDTMMODEL_xxNRIND> rdf:type <http://www.assero.co.uk/BusinessDomain#ModelVariable> . 
<http://www.assero.co.uk/MDRSdtmM/CDISC/V1#M-CDISC_SDTMMODEL_xxNRIND> rdfs:label "Normal/Reference Range Indicator"^^xsd:string . 
<http://www.assero.co.uk/MDRSdtmM/CDISC/V1#M-CDISC_SDTMMODEL_xxNRIND> bd:ordinal "18"^^xsd:positiveInteger . 
<http://www.assero.co.uk/MDRSdtmM/CDISC/V1#M-CDISC_SDTMMODEL_xxNRIND> bd:rule ""^^xsd:string . 
<http://www.assero.co.uk/MDRSdtmM/CDISC/V1#M-CDISC_SDTMMODEL_xxNRIND> bd:name "--NRIND"^^xsd:string . 
<http://www.assero.co.uk/MDRSdtmM/CDISC/V1#M-CDISC_SDTMMODEL_xxNRIND> bd:prefixed "true"^^xsd:boolean . 
<http://www.assero.co.uk/MDRSdtmM/CDISC/V1#M-CDISC_SDTMMODEL_xxNRIND> bd:description "Used to indicate the value is outside the normal range or reference range. May be defined by --ORNRLO and --ORNRHI or other objective criteria. Examples: Y, N; HIGH, LOW; NORMAL; ABNORMAL."^^xsd:string . 
<http://www.assero.co.uk/MDRSdtmM/CDISC/V1#M-CDISC_SDTMMODEL_xxNRIND> bd:typedAs <http://www.assero.co.uk/MDRSdtmM/CDISC/V1#M-CDISC_SDTMMODEL_DT_CHAR> . 
<http://www.assero.co.uk/MDRSdtmM/CDISC/V1#M-CDISC_SDTMMODEL_xxNRIND> bd:classifiedAs <http://www.assero.co.uk/MDRSdtmM/CDISC/V1#M-CDISC_SDTMMODEL_C_QUALIFIER_SC_VARIABLEQUALIFIER> . 
<http://www.assero.co.uk/MDRSdtmM/CDISC/V1#M-CDISC_SDTMMODEL> bd:includesVariable <http://www.assero.co.uk/MDRSdtmM/CDISC/V1#M-CDISC_SDTMMODEL_xxNRIND> . 
<http://www.assero.co.uk/MDRSdtmM/CDISC/V1#M-CDISC_SDTMMODEL_xxRESCAT> rdf:type <http://www.assero.co.uk/BusinessDomain#ModelVariable> . 
<http://www.assero.co.uk/MDRSdtmM/CDISC/V1#M-CDISC_SDTMMODEL_xxRESCAT> rdfs:label "Result Category"^^xsd:string . 
<http://www.assero.co.uk/MDRSdtmM/CDISC/V1#M-CDISC_SDTMMODEL_xxRESCAT> bd:ordinal "19"^^xsd:positiveInteger . 
<http://www.assero.co.uk/MDRSdtmM/CDISC/V1#M-CDISC_SDTMMODEL_xxRESCAT> bd:rule ""^^xsd:string . 
<http://www.assero.co.uk/MDRSdtmM/CDISC/V1#M-CDISC_SDTMMODEL_xxRESCAT> bd:name "--RESCAT"^^xsd:string . 
<http://www.assero.co.uk/MDRSdtmM/CDISC/V1#M-CDISC_SDTMMODEL_xxRESCAT> bd:prefixed "true"^^xsd:boolean . 
<http://www.assero.co.uk/MDRSdtmM/CDISC/V1#M-CDISC_SDTMMODEL_xxRESCAT> bd:description "Used to categorize the result of a finding. Example: MALIGNANT or BENIGN for tumor findings."^^xsd:string . 
<http://www.assero.co.uk/MDRSdtmM/CDISC/V1#M-CDISC_SDTMMODEL_xxRESCAT> bd:typedAs <http://www.assero.co.uk/MDRSdtmM/CDISC/V1#M-CDISC_SDTMMODEL_DT_CHAR> . 
<http://www.assero.co.uk/MDRSdtmM/CDISC/V1#M-CDISC_SDTMMODEL_xxRESCAT> bd:classifiedAs <http://www.assero.co.uk/MDRSdtmM/CDISC/V1#M-CDISC_SDTMMODEL_C_QUALIFIER_SC_VARIABLEQUALIFIER> . 
<http://www.assero.co.uk/MDRSdtmM/CDISC/V1#M-CDISC_SDTMMODEL> bd:includesVariable <http://www.assero.co.uk/MDRSdtmM/CDISC/V1#M-CDISC_SDTMMODEL_xxRESCAT> . 
<http://www.assero.co.uk/MDRSdtmM/CDISC/V1#M-CDISC_SDTMMODEL_xxXFN> rdf:type <http://www.assero.co.uk/BusinessDomain#ModelVariable> . 
<http://www.assero.co.uk/MDRSdtmM/CDISC/V1#M-CDISC_SDTMMODEL_xxXFN> rdfs:label "External Filename"^^xsd:string . 
<http://www.assero.co.uk/MDRSdtmM/CDISC/V1#M-CDISC_SDTMMODEL_xxXFN> bd:ordinal "22"^^xsd:positiveInteger . 
<http://www.assero.co.uk/MDRSdtmM/CDISC/V1#M-CDISC_SDTMMODEL_xxXFN> bd:rule ""^^xsd:string . 
<http://www.assero.co.uk/MDRSdtmM/CDISC/V1#M-CDISC_SDTMMODEL_xxXFN> bd:name "--XFN"^^xsd:string . 
<http://www.assero.co.uk/MDRSdtmM/CDISC/V1#M-CDISC_SDTMMODEL_xxXFN> bd:prefixed "true"^^xsd:boolean . 
<http://www.assero.co.uk/MDRSdtmM/CDISC/V1#M-CDISC_SDTMMODEL_xxXFN> bd:description "Filename for an external file, such as one for an ECG waveform or a medical image."^^xsd:string . 
<http://www.assero.co.uk/MDRSdtmM/CDISC/V1#M-CDISC_SDTMMODEL_xxXFN> bd:typedAs <http://www.assero.co.uk/MDRSdtmM/CDISC/V1#M-CDISC_SDTMMODEL_DT_CHAR> . 
<http://www.assero.co.uk/MDRSdtmM/CDISC/V1#M-CDISC_SDTMMODEL_xxXFN> bd:classifiedAs <http://www.assero.co.uk/MDRSdtmM/CDISC/V1#M-CDISC_SDTMMODEL_C_QUALIFIER_SC_RECORDQUALIFIER> . 
<http://www.assero.co.uk/MDRSdtmM/CDISC/V1#M-CDISC_SDTMMODEL> bd:includesVariable <http://www.assero.co.uk/MDRSdtmM/CDISC/V1#M-CDISC_SDTMMODEL_xxXFN> . 
<http://www.assero.co.uk/MDRSdtmM/CDISC/V1#M-CDISC_SDTMMODEL_xxNAM> rdf:type <http://www.assero.co.uk/BusinessDomain#ModelVariable> . 
<http://www.assero.co.uk/MDRSdtmM/CDISC/V1#M-CDISC_SDTMMODEL_xxNAM> rdfs:label "Laboratory/Vendor Name"^^xsd:string . 
<http://www.assero.co.uk/MDRSdtmM/CDISC/V1#M-CDISC_SDTMMODEL_xxNAM> bd:ordinal "23"^^xsd:positiveInteger . 
<http://www.assero.co.uk/MDRSdtmM/CDISC/V1#M-CDISC_SDTMMODEL_xxNAM> bd:rule ""^^xsd:string . 
<http://www.assero.co.uk/MDRSdtmM/CDISC/V1#M-CDISC_SDTMMODEL_xxNAM> bd:name "--NAM"^^xsd:string . 
<http://www.assero.co.uk/MDRSdtmM/CDISC/V1#M-CDISC_SDTMMODEL_xxNAM> bd:prefixed "true"^^xsd:boolean . 
<http://www.assero.co.uk/MDRSdtmM/CDISC/V1#M-CDISC_SDTMMODEL_xxNAM> bd:description "Name or identifier of the vendor (e.g., laboratory) that provided the test results."^^xsd:string . 
<http://www.assero.co.uk/MDRSdtmM/CDISC/V1#M-CDISC_SDTMMODEL_xxNAM> bd:typedAs <http://www.assero.co.uk/MDRSdtmM/CDISC/V1#M-CDISC_SDTMMODEL_DT_CHAR> . 
<http://www.assero.co.uk/MDRSdtmM/CDISC/V1#M-CDISC_SDTMMODEL_xxNAM> bd:classifiedAs <http://www.assero.co.uk/MDRSdtmM/CDISC/V1#M-CDISC_SDTMMODEL_C_QUALIFIER_SC_RECORDQUALIFIER> . 
<http://www.assero.co.uk/MDRSdtmM/CDISC/V1#M-CDISC_SDTMMODEL> bd:includesVariable <http://www.assero.co.uk/MDRSdtmM/CDISC/V1#M-CDISC_SDTMMODEL_xxNAM> . 
<http://www.assero.co.uk/MDRSdtmM/CDISC/V1#M-CDISC_SDTMMODEL_xxLOINC> rdf:type <http://www.assero.co.uk/BusinessDomain#ModelVariable> . 
<http://www.assero.co.uk/MDRSdtmM/CDISC/V1#M-CDISC_SDTMMODEL_xxLOINC> rdfs:label "LOINC Code"^^xsd:string . 
<http://www.assero.co.uk/MDRSdtmM/CDISC/V1#M-CDISC_SDTMMODEL_xxLOINC> bd:ordinal "24"^^xsd:positiveInteger . 
<http://www.assero.co.uk/MDRSdtmM/CDISC/V1#M-CDISC_SDTMMODEL_xxLOINC> bd:rule ""^^xsd:string . 
<http://www.assero.co.uk/MDRSdtmM/CDISC/V1#M-CDISC_SDTMMODEL_xxLOINC> bd:name "--LOINC"^^xsd:string . 
<http://www.assero.co.uk/MDRSdtmM/CDISC/V1#M-CDISC_SDTMMODEL_xxLOINC> bd:prefixed "true"^^xsd:boolean . 
<http://www.assero.co.uk/MDRSdtmM/CDISC/V1#M-CDISC_SDTMMODEL_xxLOINC> bd:description "Logical Observation Identifiers Names and Codes (LOINC) code for the topic variable such as a lab test."^^xsd:string . 
<http://www.assero.co.uk/MDRSdtmM/CDISC/V1#M-CDISC_SDTMMODEL_xxLOINC> bd:typedAs <http://www.assero.co.uk/MDRSdtmM/CDISC/V1#M-CDISC_SDTMMODEL_DT_CHAR> . 
<http://www.assero.co.uk/MDRSdtmM/CDISC/V1#M-CDISC_SDTMMODEL_xxLOINC> bd:classifiedAs <http://www.assero.co.uk/MDRSdtmM/CDISC/V1#M-CDISC_SDTMMODEL_C_QUALIFIER_SC_SYNONYMQUALIFIER> . 
<http://www.assero.co.uk/MDRSdtmM/CDISC/V1#M-CDISC_SDTMMODEL> bd:includesVariable <http://www.assero.co.uk/MDRSdtmM/CDISC/V1#M-CDISC_SDTMMODEL_xxLOINC> . 
<http://www.assero.co.uk/MDRSdtmM/CDISC/V1#M-CDISC_SDTMMODEL_xxSPEC> rdf:type <http://www.assero.co.uk/BusinessDomain#ModelVariable> . 
<http://www.assero.co.uk/MDRSdtmM/CDISC/V1#M-CDISC_SDTMMODEL_xxSPEC> rdfs:label "Specimen Material Type"^^xsd:string . 
<http://www.assero.co.uk/MDRSdtmM/CDISC/V1#M-CDISC_SDTMMODEL_xxSPEC> bd:ordinal "25"^^xsd:positiveInteger . 
<http://www.assero.co.uk/MDRSdtmM/CDISC/V1#M-CDISC_SDTMMODEL_xxSPEC> bd:rule ""^^xsd:string . 
<http://www.assero.co.uk/MDRSdtmM/CDISC/V1#M-CDISC_SDTMMODEL_xxSPEC> bd:name "--SPEC"^^xsd:string . 
<http://www.assero.co.uk/MDRSdtmM/CDISC/V1#M-CDISC_SDTMMODEL_xxSPEC> bd:prefixed "true"^^xsd:boolean . 
<http://www.assero.co.uk/MDRSdtmM/CDISC/V1#M-CDISC_SDTMMODEL_xxSPEC> bd:description "Defines the type of specimen used for a measurement. Examples: SERUM, PLASMA, URINE."^^xsd:string . 
<http://www.assero.co.uk/MDRSdtmM/CDISC/V1#M-CDISC_SDTMMODEL_xxSPEC> bd:typedAs <http://www.assero.co.uk/MDRSdtmM/CDISC/V1#M-CDISC_SDTMMODEL_DT_CHAR> . 
<http://www.assero.co.uk/MDRSdtmM/CDISC/V1#M-CDISC_SDTMMODEL_xxSPEC> bd:classifiedAs <http://www.assero.co.uk/MDRSdtmM/CDISC/V1#M-CDISC_SDTMMODEL_C_QUALIFIER_SC_RECORDQUALIFIER> . 
<http://www.assero.co.uk/MDRSdtmM/CDISC/V1#M-CDISC_SDTMMODEL> bd:includesVariable <http://www.assero.co.uk/MDRSdtmM/CDISC/V1#M-CDISC_SDTMMODEL_xxSPEC> . 
<http://www.assero.co.uk/MDRSdtmM/CDISC/V1#M-CDISC_SDTMMODEL_xxSPCCND> rdf:type <http://www.assero.co.uk/BusinessDomain#ModelVariable> . 
<http://www.assero.co.uk/MDRSdtmM/CDISC/V1#M-CDISC_SDTMMODEL_xxSPCCND> rdfs:label "Specimen Condition"^^xsd:string . 
<http://www.assero.co.uk/MDRSdtmM/CDISC/V1#M-CDISC_SDTMMODEL_xxSPCCND> bd:ordinal "26"^^xsd:positiveInteger . 
<http://www.assero.co.uk/MDRSdtmM/CDISC/V1#M-CDISC_SDTMMODEL_xxSPCCND> bd:rule ""^^xsd:string . 
<http://www.assero.co.uk/MDRSdtmM/CDISC/V1#M-CDISC_SDTMMODEL_xxSPCCND> bd:name "--SPCCND"^^xsd:string . 
<http://www.assero.co.uk/MDRSdtmM/CDISC/V1#M-CDISC_SDTMMODEL_xxSPCCND> bd:prefixed "true"^^xsd:boolean . 
<http://www.assero.co.uk/MDRSdtmM/CDISC/V1#M-CDISC_SDTMMODEL_xxSPCCND> bd:description "Defines the condition of the specimen. Example: CLOUDY."^^xsd:string . 
<http://www.assero.co.uk/MDRSdtmM/CDISC/V1#M-CDISC_SDTMMODEL_xxSPCCND> bd:typedAs <http://www.assero.co.uk/MDRSdtmM/CDISC/V1#M-CDISC_SDTMMODEL_DT_CHAR> . 
<http://www.assero.co.uk/MDRSdtmM/CDISC/V1#M-CDISC_SDTMMODEL_xxSPCCND> bd:classifiedAs <http://www.assero.co.uk/MDRSdtmM/CDISC/V1#M-CDISC_SDTMMODEL_C_QUALIFIER_SC_RECORDQUALIFIER> . 
<http://www.assero.co.uk/MDRSdtmM/CDISC/V1#M-CDISC_SDTMMODEL> bd:includesVariable <http://www.assero.co.uk/MDRSdtmM/CDISC/V1#M-CDISC_SDTMMODEL_xxSPCCND> . 
<http://www.assero.co.uk/MDRSdtmM/CDISC/V1#M-CDISC_SDTMMODEL_xxMETHOD> rdf:type <http://www.assero.co.uk/BusinessDomain#ModelVariable> . 
<http://www.assero.co.uk/MDRSdtmM/CDISC/V1#M-CDISC_SDTMMODEL_xxMETHOD> rdfs:label "Method of Test or Examination"^^xsd:string . 
<http://www.assero.co.uk/MDRSdtmM/CDISC/V1#M-CDISC_SDTMMODEL_xxMETHOD> bd:ordinal "28"^^xsd:positiveInteger . 
<http://www.assero.co.uk/MDRSdtmM/CDISC/V1#M-CDISC_SDTMMODEL_xxMETHOD> bd:rule ""^^xsd:string . 
<http://www.assero.co.uk/MDRSdtmM/CDISC/V1#M-CDISC_SDTMMODEL_xxMETHOD> bd:name "--METHOD"^^xsd:string . 
<http://www.assero.co.uk/MDRSdtmM/CDISC/V1#M-CDISC_SDTMMODEL_xxMETHOD> bd:prefixed "true"^^xsd:boolean . 
<http://www.assero.co.uk/MDRSdtmM/CDISC/V1#M-CDISC_SDTMMODEL_xxMETHOD> bd:description "Method of the test or examination. Examples: EIA (Enzyme Immunoassay), ELECTROPHORESIS, DIPSTICK."^^xsd:string . 
<http://www.assero.co.uk/MDRSdtmM/CDISC/V1#M-CDISC_SDTMMODEL_xxMETHOD> bd:typedAs <http://www.assero.co.uk/MDRSdtmM/CDISC/V1#M-CDISC_SDTMMODEL_DT_CHAR> . 
<http://www.assero.co.uk/MDRSdtmM/CDISC/V1#M-CDISC_SDTMMODEL_xxMETHOD> bd:classifiedAs <http://www.assero.co.uk/MDRSdtmM/CDISC/V1#M-CDISC_SDTMMODEL_C_QUALIFIER_SC_RECORDQUALIFIER> . 
<http://www.assero.co.uk/MDRSdtmM/CDISC/V1#M-CDISC_SDTMMODEL> bd:includesVariable <http://www.assero.co.uk/MDRSdtmM/CDISC/V1#M-CDISC_SDTMMODEL_xxMETHOD> . 
<http://www.assero.co.uk/MDRSdtmM/CDISC/V1#M-CDISC_SDTMMODEL_xxBLFL> rdf:type <http://www.assero.co.uk/BusinessDomain#ModelVariable> . 
<http://www.assero.co.uk/MDRSdtmM/CDISC/V1#M-CDISC_SDTMMODEL_xxBLFL> rdfs:label "Baseline Flag"^^xsd:string . 
<http://www.assero.co.uk/MDRSdtmM/CDISC/V1#M-CDISC_SDTMMODEL_xxBLFL> bd:ordinal "29"^^xsd:positiveInteger . 
<http://www.assero.co.uk/MDRSdtmM/CDISC/V1#M-CDISC_SDTMMODEL_xxBLFL> bd:rule ""^^xsd:string . 
<http://www.assero.co.uk/MDRSdtmM/CDISC/V1#M-CDISC_SDTMMODEL_xxBLFL> bd:name "--BLFL"^^xsd:string . 
<http://www.assero.co.uk/MDRSdtmM/CDISC/V1#M-CDISC_SDTMMODEL_xxBLFL> bd:prefixed "true"^^xsd:boolean . 
<http://www.assero.co.uk/MDRSdtmM/CDISC/V1#M-CDISC_SDTMMODEL_xxBLFL> bd:description "Indicator used to identify a baseline value. Should be Y or null."^^xsd:string . 
<http://www.assero.co.uk/MDRSdtmM/CDISC/V1#M-CDISC_SDTMMODEL_xxBLFL> bd:typedAs <http://www.assero.co.uk/MDRSdtmM/CDISC/V1#M-CDISC_SDTMMODEL_DT_CHAR> . 
<http://www.assero.co.uk/MDRSdtmM/CDISC/V1#M-CDISC_SDTMMODEL_xxBLFL> bd:classifiedAs <http://www.assero.co.uk/MDRSdtmM/CDISC/V1#M-CDISC_SDTMMODEL_C_QUALIFIER_SC_RECORDQUALIFIER> . 
<http://www.assero.co.uk/MDRSdtmM/CDISC/V1#M-CDISC_SDTMMODEL> bd:includesVariable <http://www.assero.co.uk/MDRSdtmM/CDISC/V1#M-CDISC_SDTMMODEL_xxBLFL> . 
<http://www.assero.co.uk/MDRSdtmM/CDISC/V1#M-CDISC_SDTMMODEL_xxFAST> rdf:type <http://www.assero.co.uk/BusinessDomain#ModelVariable> . 
<http://www.assero.co.uk/MDRSdtmM/CDISC/V1#M-CDISC_SDTMMODEL_xxFAST> rdfs:label "Fasting Status"^^xsd:string . 
<http://www.assero.co.uk/MDRSdtmM/CDISC/V1#M-CDISC_SDTMMODEL_xxFAST> bd:ordinal "30"^^xsd:positiveInteger . 
<http://www.assero.co.uk/MDRSdtmM/CDISC/V1#M-CDISC_SDTMMODEL_xxFAST> bd:rule ""^^xsd:string . 
<http://www.assero.co.uk/MDRSdtmM/CDISC/V1#M-CDISC_SDTMMODEL_xxFAST> bd:name "--FAST"^^xsd:string . 
<http://www.assero.co.uk/MDRSdtmM/CDISC/V1#M-CDISC_SDTMMODEL_xxFAST> bd:prefixed "true"^^xsd:boolean . 
<http://www.assero.co.uk/MDRSdtmM/CDISC/V1#M-CDISC_SDTMMODEL_xxFAST> bd:description "Indicator used to identify fasting status. Valid values include Y, N, U or null if not relevant."^^xsd:string . 
<http://www.assero.co.uk/MDRSdtmM/CDISC/V1#M-CDISC_SDTMMODEL_xxFAST> bd:typedAs <http://www.assero.co.uk/MDRSdtmM/CDISC/V1#M-CDISC_SDTMMODEL_DT_CHAR> . 
<http://www.assero.co.uk/MDRSdtmM/CDISC/V1#M-CDISC_SDTMMODEL_xxFAST> bd:classifiedAs <http://www.assero.co.uk/MDRSdtmM/CDISC/V1#M-CDISC_SDTMMODEL_C_QUALIFIER_SC_RECORDQUALIFIER> . 
<http://www.assero.co.uk/MDRSdtmM/CDISC/V1#M-CDISC_SDTMMODEL> bd:includesVariable <http://www.assero.co.uk/MDRSdtmM/CDISC/V1#M-CDISC_SDTMMODEL_xxFAST> . 
<http://www.assero.co.uk/MDRSdtmM/CDISC/V1#M-CDISC_SDTMMODEL_xxDRVFL> rdf:type <http://www.assero.co.uk/BusinessDomain#ModelVariable> . 
<http://www.assero.co.uk/MDRSdtmM/CDISC/V1#M-CDISC_SDTMMODEL_xxDRVFL> rdfs:label "Derived Flag"^^xsd:string . 
<http://www.assero.co.uk/MDRSdtmM/CDISC/V1#M-CDISC_SDTMMODEL_xxDRVFL> bd:ordinal "31"^^xsd:positiveInteger . 
<http://www.assero.co.uk/MDRSdtmM/CDISC/V1#M-CDISC_SDTMMODEL_xxDRVFL> bd:rule ""^^xsd:string . 
<http://www.assero.co.uk/MDRSdtmM/CDISC/V1#M-CDISC_SDTMMODEL_xxDRVFL> bd:name "--DRVFL"^^xsd:string . 
<http://www.assero.co.uk/MDRSdtmM/CDISC/V1#M-CDISC_SDTMMODEL_xxDRVFL> bd:prefixed "true"^^xsd:boolean . 
<http://www.assero.co.uk/MDRSdtmM/CDISC/V1#M-CDISC_SDTMMODEL_xxDRVFL> bd:description "Used to indicate a derived record (e.g., a record that represents the average of other records such as a computed baseline). Should be Y or null."^^xsd:string . 
<http://www.assero.co.uk/MDRSdtmM/CDISC/V1#M-CDISC_SDTMMODEL_xxDRVFL> bd:typedAs <http://www.assero.co.uk/MDRSdtmM/CDISC/V1#M-CDISC_SDTMMODEL_DT_CHAR> . 
<http://www.assero.co.uk/MDRSdtmM/CDISC/V1#M-CDISC_SDTMMODEL_xxDRVFL> bd:classifiedAs <http://www.assero.co.uk/MDRSdtmM/CDISC/V1#M-CDISC_SDTMMODEL_C_QUALIFIER_SC_RECORDQUALIFIER> . 
<http://www.assero.co.uk/MDRSdtmM/CDISC/V1#M-CDISC_SDTMMODEL> bd:includesVariable <http://www.assero.co.uk/MDRSdtmM/CDISC/V1#M-CDISC_SDTMMODEL_xxDRVFL> . 
<http://www.assero.co.uk/MDRSdtmM/CDISC/V1#M-CDISC_SDTMMODEL_xxEVAL> rdf:type <http://www.assero.co.uk/BusinessDomain#ModelVariable> . 
<http://www.assero.co.uk/MDRSdtmM/CDISC/V1#M-CDISC_SDTMMODEL_xxEVAL> rdfs:label "Evaluator"^^xsd:string . 
<http://www.assero.co.uk/MDRSdtmM/CDISC/V1#M-CDISC_SDTMMODEL_xxEVAL> bd:ordinal "32"^^xsd:positiveInteger . 
<http://www.assero.co.uk/MDRSdtmM/CDISC/V1#M-CDISC_SDTMMODEL_xxEVAL> bd:rule ""^^xsd:string . 
<http://www.assero.co.uk/MDRSdtmM/CDISC/V1#M-CDISC_SDTMMODEL_xxEVAL> bd:name "--EVAL"^^xsd:string . 
<http://www.assero.co.uk/MDRSdtmM/CDISC/V1#M-CDISC_SDTMMODEL_xxEVAL> bd:prefixed "true"^^xsd:boolean . 
<http://www.assero.co.uk/MDRSdtmM/CDISC/V1#M-CDISC_SDTMMODEL_xxEVAL> bd:description "Role of the person who provided the evaluation. Used only for results that are subjective (e.g., assigned by a person or a group). Examples: ADJUDICATION COMMITTEE, VENDOR."^^xsd:string . 
<http://www.assero.co.uk/MDRSdtmM/CDISC/V1#M-CDISC_SDTMMODEL_xxEVAL> bd:typedAs <http://www.assero.co.uk/MDRSdtmM/CDISC/V1#M-CDISC_SDTMMODEL_DT_CHAR> . 
<http://www.assero.co.uk/MDRSdtmM/CDISC/V1#M-CDISC_SDTMMODEL_xxEVAL> bd:classifiedAs <http://www.assero.co.uk/MDRSdtmM/CDISC/V1#M-CDISC_SDTMMODEL_C_QUALIFIER_SC_RECORDQUALIFIER> . 
<http://www.assero.co.uk/MDRSdtmM/CDISC/V1#M-CDISC_SDTMMODEL> bd:includesVariable <http://www.assero.co.uk/MDRSdtmM/CDISC/V1#M-CDISC_SDTMMODEL_xxEVAL> . 
<http://www.assero.co.uk/MDRSdtmM/CDISC/V1#M-CDISC_SDTMMODEL_xxDTHREL> rdf:type <http://www.assero.co.uk/BusinessDomain#ModelVariable> . 
<http://www.assero.co.uk/MDRSdtmM/CDISC/V1#M-CDISC_SDTMMODEL_xxDTHREL> rdfs:label "Relationship to Death"^^xsd:string . 
<http://www.assero.co.uk/MDRSdtmM/CDISC/V1#M-CDISC_SDTMMODEL_xxDTHREL> bd:ordinal "36"^^xsd:positiveInteger . 
<http://www.assero.co.uk/MDRSdtmM/CDISC/V1#M-CDISC_SDTMMODEL_xxDTHREL> bd:rule ""^^xsd:string . 
<http://www.assero.co.uk/MDRSdtmM/CDISC/V1#M-CDISC_SDTMMODEL_xxDTHREL> bd:name "--DTHREL"^^xsd:string . 
<http://www.assero.co.uk/MDRSdtmM/CDISC/V1#M-CDISC_SDTMMODEL_xxDTHREL> bd:prefixed "true"^^xsd:boolean . 
<http://www.assero.co.uk/MDRSdtmM/CDISC/V1#M-CDISC_SDTMMODEL_xxDTHREL> bd:description "Describes the relationship of a particular finding to the death of a subject."^^xsd:string . 
<http://www.assero.co.uk/MDRSdtmM/CDISC/V1#M-CDISC_SDTMMODEL_xxDTHREL> bd:typedAs <http://www.assero.co.uk/MDRSdtmM/CDISC/V1#M-CDISC_SDTMMODEL_DT_CHAR> . 
<http://www.assero.co.uk/MDRSdtmM/CDISC/V1#M-CDISC_SDTMMODEL_xxDTHREL> bd:classifiedAs <http://www.assero.co.uk/MDRSdtmM/CDISC/V1#M-CDISC_SDTMMODEL_C_QUALIFIER_SC_RECORDQUALIFIER> . 
<http://www.assero.co.uk/MDRSdtmM/CDISC/V1#M-CDISC_SDTMMODEL> bd:includesVariable <http://www.assero.co.uk/MDRSdtmM/CDISC/V1#M-CDISC_SDTMMODEL_xxDTHREL> . 
<http://www.assero.co.uk/MDRSdtmM/CDISC/V1#M-CDISC_SDTMMODEL_xxLLOQ> rdf:type <http://www.assero.co.uk/BusinessDomain#ModelVariable> . 
<http://www.assero.co.uk/MDRSdtmM/CDISC/V1#M-CDISC_SDTMMODEL_xxLLOQ> rdfs:label "Lower Limit of Quantitation"^^xsd:string . 
<http://www.assero.co.uk/MDRSdtmM/CDISC/V1#M-CDISC_SDTMMODEL_xxLLOQ> bd:ordinal "37"^^xsd:positiveInteger . 
<http://www.assero.co.uk/MDRSdtmM/CDISC/V1#M-CDISC_SDTMMODEL_xxLLOQ> bd:rule ""^^xsd:string . 
<http://www.assero.co.uk/MDRSdtmM/CDISC/V1#M-CDISC_SDTMMODEL_xxLLOQ> bd:name "--LLOQ"^^xsd:string . 
<http://www.assero.co.uk/MDRSdtmM/CDISC/V1#M-CDISC_SDTMMODEL_xxLLOQ> bd:prefixed "true"^^xsd:boolean . 
<http://www.assero.co.uk/MDRSdtmM/CDISC/V1#M-CDISC_SDTMMODEL_xxLLOQ> bd:description "Indicates the lower limit of quantitation for an assay. Units will be those used for --STRESU."^^xsd:string . 
<http://www.assero.co.uk/MDRSdtmM/CDISC/V1#M-CDISC_SDTMMODEL_xxLLOQ> bd:typedAs <http://www.assero.co.uk/MDRSdtmM/CDISC/V1#M-CDISC_SDTMMODEL_DT_NUM> . 
<http://www.assero.co.uk/MDRSdtmM/CDISC/V1#M-CDISC_SDTMMODEL_xxLLOQ> bd:classifiedAs <http://www.assero.co.uk/MDRSdtmM/CDISC/V1#M-CDISC_SDTMMODEL_C_QUALIFIER_SC_VARIABLEQUALIFIER> . 
<http://www.assero.co.uk/MDRSdtmM/CDISC/V1#M-CDISC_SDTMMODEL> bd:includesVariable <http://www.assero.co.uk/MDRSdtmM/CDISC/V1#M-CDISC_SDTMMODEL_xxLLOQ> . 
<http://www.assero.co.uk/MDRSdtmM/CDISC/V1#M-CDISC_SDTMMODEL_xxOBJ> rdf:type <http://www.assero.co.uk/BusinessDomain#ModelVariable> . 
<http://www.assero.co.uk/MDRSdtmM/CDISC/V1#M-CDISC_SDTMMODEL_xxOBJ> rdfs:label "Object of the Observation"^^xsd:string . 
<http://www.assero.co.uk/MDRSdtmM/CDISC/V1#M-CDISC_SDTMMODEL_xxOBJ> bd:ordinal "1"^^xsd:positiveInteger . 
<http://www.assero.co.uk/MDRSdtmM/CDISC/V1#M-CDISC_SDTMMODEL_xxOBJ> bd:rule ""^^xsd:string . 
<http://www.assero.co.uk/MDRSdtmM/CDISC/V1#M-CDISC_SDTMMODEL_xxOBJ> bd:name "--OBJ"^^xsd:string . 
<http://www.assero.co.uk/MDRSdtmM/CDISC/V1#M-CDISC_SDTMMODEL_xxOBJ> bd:prefixed "true"^^xsd:boolean . 
<http://www.assero.co.uk/MDRSdtmM/CDISC/V1#M-CDISC_SDTMMODEL_xxOBJ> bd:description "Used in domains modeled as Findings About Events or Findings About Interventions. Describes the event or intervention whose property is being measured in --TESTCD/--TEST. Example: an event of vomiting which has findings, where --OBJ = 'VOMIT' and the volume of VOMIT is being measured where --TESTCD = 'VOLUME'."^^xsd:string . 
<http://www.assero.co.uk/MDRSdtmM/CDISC/V1#M-CDISC_SDTMMODEL_xxOBJ> bd:typedAs <http://www.assero.co.uk/MDRSdtmM/CDISC/V1#M-CDISC_SDTMMODEL_DT_CHAR> . 
<http://www.assero.co.uk/MDRSdtmM/CDISC/V1#M-CDISC_SDTMMODEL_xxOBJ> bd:classifiedAs <http://www.assero.co.uk/MDRSdtmM/CDISC/V1#M-CDISC_SDTMMODEL_C_QUALIFIER_SC_RECORDQUALIFIER> . 
<http://www.assero.co.uk/MDRSdtmM/CDISC/V1#M-CDISC_SDTMMODEL> bd:includesVariable <http://www.assero.co.uk/MDRSdtmM/CDISC/V1#M-CDISC_SDTMMODEL_xxOBJ> . 
<http://www.assero.co.uk/MDRSdtmM/CDISC/V1#M-CDISC_SDTMMODEL_xxTRT> rdf:type <http://www.assero.co.uk/BusinessDomain#ModelVariable> . 
<http://www.assero.co.uk/MDRSdtmM/CDISC/V1#M-CDISC_SDTMMODEL_xxTRT> rdfs:label "Name of Treatment"^^xsd:string . 
<http://www.assero.co.uk/MDRSdtmM/CDISC/V1#M-CDISC_SDTMMODEL_xxTRT> bd:ordinal "1"^^xsd:positiveInteger . 
<http://www.assero.co.uk/MDRSdtmM/CDISC/V1#M-CDISC_SDTMMODEL_xxTRT> bd:rule ""^^xsd:string . 
<http://www.assero.co.uk/MDRSdtmM/CDISC/V1#M-CDISC_SDTMMODEL_xxTRT> bd:name "--TRT"^^xsd:string . 
<http://www.assero.co.uk/MDRSdtmM/CDISC/V1#M-CDISC_SDTMMODEL_xxTRT> bd:prefixed "true"^^xsd:boolean . 
<http://www.assero.co.uk/MDRSdtmM/CDISC/V1#M-CDISC_SDTMMODEL_xxTRT> bd:description "The topic for the intervention observation, usually the verbatim name of the treatment, drug, medicine, or therapy given during the dosing interval for the observation."^^xsd:string . 
<http://www.assero.co.uk/MDRSdtmM/CDISC/V1#M-CDISC_SDTMMODEL_xxTRT> bd:typedAs <http://www.assero.co.uk/MDRSdtmM/CDISC/V1#M-CDISC_SDTMMODEL_DT_CHAR> . 
<http://www.assero.co.uk/MDRSdtmM/CDISC/V1#M-CDISC_SDTMMODEL_xxTRT> bd:classifiedAs <http://www.assero.co.uk/MDRSdtmM/CDISC/V1#M-CDISC_SDTMMODEL_C_TOPIC> . 
<http://www.assero.co.uk/MDRSdtmM/CDISC/V1#M-CDISC_SDTMMODEL> bd:includesVariable <http://www.assero.co.uk/MDRSdtmM/CDISC/V1#M-CDISC_SDTMMODEL_xxTRT> . 
<http://www.assero.co.uk/MDRSdtmM/CDISC/V1#M-CDISC_SDTMMODEL_xxINDC> rdf:type <http://www.assero.co.uk/BusinessDomain#ModelVariable> . 
<http://www.assero.co.uk/MDRSdtmM/CDISC/V1#M-CDISC_SDTMMODEL_xxINDC> rdfs:label "Indication"^^xsd:string . 
<http://www.assero.co.uk/MDRSdtmM/CDISC/V1#M-CDISC_SDTMMODEL_xxINDC> bd:ordinal "10"^^xsd:positiveInteger . 
<http://www.assero.co.uk/MDRSdtmM/CDISC/V1#M-CDISC_SDTMMODEL_xxINDC> bd:rule ""^^xsd:string . 
<http://www.assero.co.uk/MDRSdtmM/CDISC/V1#M-CDISC_SDTMMODEL_xxINDC> bd:name "--INDC"^^xsd:string . 
<http://www.assero.co.uk/MDRSdtmM/CDISC/V1#M-CDISC_SDTMMODEL_xxINDC> bd:prefixed "true"^^xsd:boolean . 
<http://www.assero.co.uk/MDRSdtmM/CDISC/V1#M-CDISC_SDTMMODEL_xxINDC> bd:description "Denotes the indication for the intervention (e.g., why the therapy was taken or administered)."^^xsd:string . 
<http://www.assero.co.uk/MDRSdtmM/CDISC/V1#M-CDISC_SDTMMODEL_xxINDC> bd:typedAs <http://www.assero.co.uk/MDRSdtmM/CDISC/V1#M-CDISC_SDTMMODEL_DT_CHAR> . 
<http://www.assero.co.uk/MDRSdtmM/CDISC/V1#M-CDISC_SDTMMODEL_xxINDC> bd:classifiedAs <http://www.assero.co.uk/MDRSdtmM/CDISC/V1#M-CDISC_SDTMMODEL_C_QUALIFIER_SC_RECORDQUALIFIER> . 
<http://www.assero.co.uk/MDRSdtmM/CDISC/V1#M-CDISC_SDTMMODEL> bd:includesVariable <http://www.assero.co.uk/MDRSdtmM/CDISC/V1#M-CDISC_SDTMMODEL_xxINDC> . 
<http://www.assero.co.uk/MDRSdtmM/CDISC/V1#M-CDISC_SDTMMODEL_xxCLAS> rdf:type <http://www.assero.co.uk/BusinessDomain#ModelVariable> . 
<http://www.assero.co.uk/MDRSdtmM/CDISC/V1#M-CDISC_SDTMMODEL_xxCLAS> rdfs:label "Class"^^xsd:string . 
<http://www.assero.co.uk/MDRSdtmM/CDISC/V1#M-CDISC_SDTMMODEL_xxCLAS> bd:ordinal "11"^^xsd:positiveInteger . 
<http://www.assero.co.uk/MDRSdtmM/CDISC/V1#M-CDISC_SDTMMODEL_xxCLAS> bd:rule ""^^xsd:string . 
<http://www.assero.co.uk/MDRSdtmM/CDISC/V1#M-CDISC_SDTMMODEL_xxCLAS> bd:name "--CLAS"^^xsd:string . 
<http://www.assero.co.uk/MDRSdtmM/CDISC/V1#M-CDISC_SDTMMODEL_xxCLAS> bd:prefixed "true"^^xsd:boolean . 
<http://www.assero.co.uk/MDRSdtmM/CDISC/V1#M-CDISC_SDTMMODEL_xxCLAS> bd:description "Class for a medication or treatment, often obtained from a coding dictionary."^^xsd:string . 
<http://www.assero.co.uk/MDRSdtmM/CDISC/V1#M-CDISC_SDTMMODEL_xxCLAS> bd:typedAs <http://www.assero.co.uk/MDRSdtmM/CDISC/V1#M-CDISC_SDTMMODEL_DT_CHAR> . 
<http://www.assero.co.uk/MDRSdtmM/CDISC/V1#M-CDISC_SDTMMODEL_xxCLAS> bd:classifiedAs <http://www.assero.co.uk/MDRSdtmM/CDISC/V1#M-CDISC_SDTMMODEL_C_QUALIFIER_SC_VARIABLEQUALIFIER> . 
<http://www.assero.co.uk/MDRSdtmM/CDISC/V1#M-CDISC_SDTMMODEL> bd:includesVariable <http://www.assero.co.uk/MDRSdtmM/CDISC/V1#M-CDISC_SDTMMODEL_xxCLAS> . 
<http://www.assero.co.uk/MDRSdtmM/CDISC/V1#M-CDISC_SDTMMODEL_xxCLASCD> rdf:type <http://www.assero.co.uk/BusinessDomain#ModelVariable> . 
<http://www.assero.co.uk/MDRSdtmM/CDISC/V1#M-CDISC_SDTMMODEL_xxCLASCD> rdfs:label "Class Code"^^xsd:string . 
<http://www.assero.co.uk/MDRSdtmM/CDISC/V1#M-CDISC_SDTMMODEL_xxCLASCD> bd:ordinal "12"^^xsd:positiveInteger . 
<http://www.assero.co.uk/MDRSdtmM/CDISC/V1#M-CDISC_SDTMMODEL_xxCLASCD> bd:rule ""^^xsd:string . 
<http://www.assero.co.uk/MDRSdtmM/CDISC/V1#M-CDISC_SDTMMODEL_xxCLASCD> bd:name "--CLASCD"^^xsd:string . 
<http://www.assero.co.uk/MDRSdtmM/CDISC/V1#M-CDISC_SDTMMODEL_xxCLASCD> bd:prefixed "true"^^xsd:boolean . 
<http://www.assero.co.uk/MDRSdtmM/CDISC/V1#M-CDISC_SDTMMODEL_xxCLASCD> bd:description "Used to represent code for --CLAS."^^xsd:string . 
<http://www.assero.co.uk/MDRSdtmM/CDISC/V1#M-CDISC_SDTMMODEL_xxCLASCD> bd:typedAs <http://www.assero.co.uk/MDRSdtmM/CDISC/V1#M-CDISC_SDTMMODEL_DT_CHAR> . 
<http://www.assero.co.uk/MDRSdtmM/CDISC/V1#M-CDISC_SDTMMODEL_xxCLASCD> bd:classifiedAs <http://www.assero.co.uk/MDRSdtmM/CDISC/V1#M-CDISC_SDTMMODEL_C_QUALIFIER_SC_VARIABLEQUALIFIER> . 
<http://www.assero.co.uk/MDRSdtmM/CDISC/V1#M-CDISC_SDTMMODEL> bd:includesVariable <http://www.assero.co.uk/MDRSdtmM/CDISC/V1#M-CDISC_SDTMMODEL_xxCLASCD> . 
<http://www.assero.co.uk/MDRSdtmM/CDISC/V1#M-CDISC_SDTMMODEL_xxDOSE> rdf:type <http://www.assero.co.uk/BusinessDomain#ModelVariable> . 
<http://www.assero.co.uk/MDRSdtmM/CDISC/V1#M-CDISC_SDTMMODEL_xxDOSE> rdfs:label "Dose"^^xsd:string . 
<http://www.assero.co.uk/MDRSdtmM/CDISC/V1#M-CDISC_SDTMMODEL_xxDOSE> bd:ordinal "13"^^xsd:positiveInteger . 
<http://www.assero.co.uk/MDRSdtmM/CDISC/V1#M-CDISC_SDTMMODEL_xxDOSE> bd:rule ""^^xsd:string . 
<http://www.assero.co.uk/MDRSdtmM/CDISC/V1#M-CDISC_SDTMMODEL_xxDOSE> bd:name "--DOSE"^^xsd:string . 
<http://www.assero.co.uk/MDRSdtmM/CDISC/V1#M-CDISC_SDTMMODEL_xxDOSE> bd:prefixed "true"^^xsd:boolean . 
<http://www.assero.co.uk/MDRSdtmM/CDISC/V1#M-CDISC_SDTMMODEL_xxDOSE> bd:description "Amount of --TRT given. Not populated when --DOSTXT is populated."^^xsd:string . 
<http://www.assero.co.uk/MDRSdtmM/CDISC/V1#M-CDISC_SDTMMODEL_xxDOSE> bd:typedAs <http://www.assero.co.uk/MDRSdtmM/CDISC/V1#M-CDISC_SDTMMODEL_DT_NUM> . 
<http://www.assero.co.uk/MDRSdtmM/CDISC/V1#M-CDISC_SDTMMODEL_xxDOSE> bd:classifiedAs <http://www.assero.co.uk/MDRSdtmM/CDISC/V1#M-CDISC_SDTMMODEL_C_QUALIFIER_SC_RECORDQUALIFIER> . 
<http://www.assero.co.uk/MDRSdtmM/CDISC/V1#M-CDISC_SDTMMODEL> bd:includesVariable <http://www.assero.co.uk/MDRSdtmM/CDISC/V1#M-CDISC_SDTMMODEL_xxDOSE> . 
<http://www.assero.co.uk/MDRSdtmM/CDISC/V1#M-CDISC_SDTMMODEL_xxDOSTXT> rdf:type <http://www.assero.co.uk/BusinessDomain#ModelVariable> . 
<http://www.assero.co.uk/MDRSdtmM/CDISC/V1#M-CDISC_SDTMMODEL_xxDOSTXT> rdfs:label "Dose Description"^^xsd:string . 
<http://www.assero.co.uk/MDRSdtmM/CDISC/V1#M-CDISC_SDTMMODEL_xxDOSTXT> bd:ordinal "14"^^xsd:positiveInteger . 
<http://www.assero.co.uk/MDRSdtmM/CDISC/V1#M-CDISC_SDTMMODEL_xxDOSTXT> bd:rule ""^^xsd:string . 
<http://www.assero.co.uk/MDRSdtmM/CDISC/V1#M-CDISC_SDTMMODEL_xxDOSTXT> bd:name "--DOSTXT"^^xsd:string . 
<http://www.assero.co.uk/MDRSdtmM/CDISC/V1#M-CDISC_SDTMMODEL_xxDOSTXT> bd:prefixed "true"^^xsd:boolean . 
<http://www.assero.co.uk/MDRSdtmM/CDISC/V1#M-CDISC_SDTMMODEL_xxDOSTXT> bd:description "Dosing information collected in text form. Examples: <1 per day, 200-400. Not populated when --DOSE is populated."^^xsd:string . 
<http://www.assero.co.uk/MDRSdtmM/CDISC/V1#M-CDISC_SDTMMODEL_xxDOSTXT> bd:typedAs <http://www.assero.co.uk/MDRSdtmM/CDISC/V1#M-CDISC_SDTMMODEL_DT_CHAR> . 
<http://www.assero.co.uk/MDRSdtmM/CDISC/V1#M-CDISC_SDTMMODEL_xxDOSTXT> bd:classifiedAs <http://www.assero.co.uk/MDRSdtmM/CDISC/V1#M-CDISC_SDTMMODEL_C_QUALIFIER_SC_RECORDQUALIFIER> . 
<http://www.assero.co.uk/MDRSdtmM/CDISC/V1#M-CDISC_SDTMMODEL> bd:includesVariable <http://www.assero.co.uk/MDRSdtmM/CDISC/V1#M-CDISC_SDTMMODEL_xxDOSTXT> . 
<http://www.assero.co.uk/MDRSdtmM/CDISC/V1#M-CDISC_SDTMMODEL_xxDOSU> rdf:type <http://www.assero.co.uk/BusinessDomain#ModelVariable> . 
<http://www.assero.co.uk/MDRSdtmM/CDISC/V1#M-CDISC_SDTMMODEL_xxDOSU> rdfs:label "Dose Units"^^xsd:string . 
<http://www.assero.co.uk/MDRSdtmM/CDISC/V1#M-CDISC_SDTMMODEL_xxDOSU> bd:ordinal "15"^^xsd:positiveInteger . 
<http://www.assero.co.uk/MDRSdtmM/CDISC/V1#M-CDISC_SDTMMODEL_xxDOSU> bd:rule ""^^xsd:string . 
<http://www.assero.co.uk/MDRSdtmM/CDISC/V1#M-CDISC_SDTMMODEL_xxDOSU> bd:name "--DOSU"^^xsd:string . 
<http://www.assero.co.uk/MDRSdtmM/CDISC/V1#M-CDISC_SDTMMODEL_xxDOSU> bd:prefixed "true"^^xsd:boolean . 
<http://www.assero.co.uk/MDRSdtmM/CDISC/V1#M-CDISC_SDTMMODEL_xxDOSU> bd:description "Units for --DOSE, --DOSTOT, or --DOSTXT (Examples: ng, mg, mg/kg)."^^xsd:string . 
<http://www.assero.co.uk/MDRSdtmM/CDISC/V1#M-CDISC_SDTMMODEL_xxDOSU> bd:typedAs <http://www.assero.co.uk/MDRSdtmM/CDISC/V1#M-CDISC_SDTMMODEL_DT_CHAR> . 
<http://www.assero.co.uk/MDRSdtmM/CDISC/V1#M-CDISC_SDTMMODEL_xxDOSU> bd:classifiedAs <http://www.assero.co.uk/MDRSdtmM/CDISC/V1#M-CDISC_SDTMMODEL_C_QUALIFIER_SC_VARIABLEQUALIFIER> . 
<http://www.assero.co.uk/MDRSdtmM/CDISC/V1#M-CDISC_SDTMMODEL> bd:includesVariable <http://www.assero.co.uk/MDRSdtmM/CDISC/V1#M-CDISC_SDTMMODEL_xxDOSU> . 
<http://www.assero.co.uk/MDRSdtmM/CDISC/V1#M-CDISC_SDTMMODEL_xxDOSFRM> rdf:type <http://www.assero.co.uk/BusinessDomain#ModelVariable> . 
<http://www.assero.co.uk/MDRSdtmM/CDISC/V1#M-CDISC_SDTMMODEL_xxDOSFRM> rdfs:label "Dose Form"^^xsd:string . 
<http://www.assero.co.uk/MDRSdtmM/CDISC/V1#M-CDISC_SDTMMODEL_xxDOSFRM> bd:ordinal "16"^^xsd:positiveInteger . 
<http://www.assero.co.uk/MDRSdtmM/CDISC/V1#M-CDISC_SDTMMODEL_xxDOSFRM> bd:rule ""^^xsd:string . 
<http://www.assero.co.uk/MDRSdtmM/CDISC/V1#M-CDISC_SDTMMODEL_xxDOSFRM> bd:name "--DOSFRM"^^xsd:string . 
<http://www.assero.co.uk/MDRSdtmM/CDISC/V1#M-CDISC_SDTMMODEL_xxDOSFRM> bd:prefixed "true"^^xsd:boolean . 
<http://www.assero.co.uk/MDRSdtmM/CDISC/V1#M-CDISC_SDTMMODEL_xxDOSFRM> bd:description "Dose form for the treatment. Examples: TABLET, CAPSULE."^^xsd:string . 
<http://www.assero.co.uk/MDRSdtmM/CDISC/V1#M-CDISC_SDTMMODEL_xxDOSFRM> bd:typedAs <http://www.assero.co.uk/MDRSdtmM/CDISC/V1#M-CDISC_SDTMMODEL_DT_CHAR> . 
<http://www.assero.co.uk/MDRSdtmM/CDISC/V1#M-CDISC_SDTMMODEL_xxDOSFRM> bd:classifiedAs <http://www.assero.co.uk/MDRSdtmM/CDISC/V1#M-CDISC_SDTMMODEL_C_QUALIFIER_SC_VARIABLEQUALIFIER> . 
<http://www.assero.co.uk/MDRSdtmM/CDISC/V1#M-CDISC_SDTMMODEL> bd:includesVariable <http://www.assero.co.uk/MDRSdtmM/CDISC/V1#M-CDISC_SDTMMODEL_xxDOSFRM> . 
<http://www.assero.co.uk/MDRSdtmM/CDISC/V1#M-CDISC_SDTMMODEL_xxDOSFRQ> rdf:type <http://www.assero.co.uk/BusinessDomain#ModelVariable> . 
<http://www.assero.co.uk/MDRSdtmM/CDISC/V1#M-CDISC_SDTMMODEL_xxDOSFRQ> rdfs:label "Dosing Frequency per Interval"^^xsd:string . 
<http://www.assero.co.uk/MDRSdtmM/CDISC/V1#M-CDISC_SDTMMODEL_xxDOSFRQ> bd:ordinal "17"^^xsd:positiveInteger . 
<http://www.assero.co.uk/MDRSdtmM/CDISC/V1#M-CDISC_SDTMMODEL_xxDOSFRQ> bd:rule ""^^xsd:string . 
<http://www.assero.co.uk/MDRSdtmM/CDISC/V1#M-CDISC_SDTMMODEL_xxDOSFRQ> bd:name "--DOSFRQ"^^xsd:string . 
<http://www.assero.co.uk/MDRSdtmM/CDISC/V1#M-CDISC_SDTMMODEL_xxDOSFRQ> bd:prefixed "true"^^xsd:boolean . 
<http://www.assero.co.uk/MDRSdtmM/CDISC/V1#M-CDISC_SDTMMODEL_xxDOSFRQ> bd:description "Usually expressed as the number of doses given per a specific interval. Examples: QD, BID, TID, QID."^^xsd:string . 
<http://www.assero.co.uk/MDRSdtmM/CDISC/V1#M-CDISC_SDTMMODEL_xxDOSFRQ> bd:typedAs <http://www.assero.co.uk/MDRSdtmM/CDISC/V1#M-CDISC_SDTMMODEL_DT_CHAR> . 
<http://www.assero.co.uk/MDRSdtmM/CDISC/V1#M-CDISC_SDTMMODEL_xxDOSFRQ> bd:classifiedAs <http://www.assero.co.uk/MDRSdtmM/CDISC/V1#M-CDISC_SDTMMODEL_C_QUALIFIER_SC_VARIABLEQUALIFIER> . 
<http://www.assero.co.uk/MDRSdtmM/CDISC/V1#M-CDISC_SDTMMODEL> bd:includesVariable <http://www.assero.co.uk/MDRSdtmM/CDISC/V1#M-CDISC_SDTMMODEL_xxDOSFRQ> . 
<http://www.assero.co.uk/MDRSdtmM/CDISC/V1#M-CDISC_SDTMMODEL_xxDOSTOT> rdf:type <http://www.assero.co.uk/BusinessDomain#ModelVariable> . 
<http://www.assero.co.uk/MDRSdtmM/CDISC/V1#M-CDISC_SDTMMODEL_xxDOSTOT> rdfs:label "Total Daily Dose"^^xsd:string . 
<http://www.assero.co.uk/MDRSdtmM/CDISC/V1#M-CDISC_SDTMMODEL_xxDOSTOT> bd:ordinal "18"^^xsd:positiveInteger . 
<http://www.assero.co.uk/MDRSdtmM/CDISC/V1#M-CDISC_SDTMMODEL_xxDOSTOT> bd:rule ""^^xsd:string . 
<http://www.assero.co.uk/MDRSdtmM/CDISC/V1#M-CDISC_SDTMMODEL_xxDOSTOT> bd:name "--DOSTOT"^^xsd:string . 
<http://www.assero.co.uk/MDRSdtmM/CDISC/V1#M-CDISC_SDTMMODEL_xxDOSTOT> bd:prefixed "true"^^xsd:boolean . 
<http://www.assero.co.uk/MDRSdtmM/CDISC/V1#M-CDISC_SDTMMODEL_xxDOSTOT> bd:description "Total daily dose of --TRT using the units in --DOSU. Used when dosing is collected as Total Daily Dose."^^xsd:string . 
<http://www.assero.co.uk/MDRSdtmM/CDISC/V1#M-CDISC_SDTMMODEL_xxDOSTOT> bd:typedAs <http://www.assero.co.uk/MDRSdtmM/CDISC/V1#M-CDISC_SDTMMODEL_DT_NUM> . 
<http://www.assero.co.uk/MDRSdtmM/CDISC/V1#M-CDISC_SDTMMODEL_xxDOSTOT> bd:classifiedAs <http://www.assero.co.uk/MDRSdtmM/CDISC/V1#M-CDISC_SDTMMODEL_C_QUALIFIER_SC_RECORDQUALIFIER> . 
<http://www.assero.co.uk/MDRSdtmM/CDISC/V1#M-CDISC_SDTMMODEL> bd:includesVariable <http://www.assero.co.uk/MDRSdtmM/CDISC/V1#M-CDISC_SDTMMODEL_xxDOSTOT> . 
<http://www.assero.co.uk/MDRSdtmM/CDISC/V1#M-CDISC_SDTMMODEL_xxDOSRGM> rdf:type <http://www.assero.co.uk/BusinessDomain#ModelVariable> . 
<http://www.assero.co.uk/MDRSdtmM/CDISC/V1#M-CDISC_SDTMMODEL_xxDOSRGM> rdfs:label "Intended Dose Regimen"^^xsd:string . 
<http://www.assero.co.uk/MDRSdtmM/CDISC/V1#M-CDISC_SDTMMODEL_xxDOSRGM> bd:ordinal "19"^^xsd:positiveInteger . 
<http://www.assero.co.uk/MDRSdtmM/CDISC/V1#M-CDISC_SDTMMODEL_xxDOSRGM> bd:rule ""^^xsd:string . 
<http://www.assero.co.uk/MDRSdtmM/CDISC/V1#M-CDISC_SDTMMODEL_xxDOSRGM> bd:name "--DOSRGM"^^xsd:string . 
<http://www.assero.co.uk/MDRSdtmM/CDISC/V1#M-CDISC_SDTMMODEL_xxDOSRGM> bd:prefixed "true"^^xsd:boolean . 
<http://www.assero.co.uk/MDRSdtmM/CDISC/V1#M-CDISC_SDTMMODEL_xxDOSRGM> bd:description "Text description of the (intended) schedule or regimen for the Intervention. Examples: TWO WEEKS ON, TWO WEEKS OFF."^^xsd:string . 
<http://www.assero.co.uk/MDRSdtmM/CDISC/V1#M-CDISC_SDTMMODEL_xxDOSRGM> bd:typedAs <http://www.assero.co.uk/MDRSdtmM/CDISC/V1#M-CDISC_SDTMMODEL_DT_CHAR> . 
<http://www.assero.co.uk/MDRSdtmM/CDISC/V1#M-CDISC_SDTMMODEL_xxDOSRGM> bd:classifiedAs <http://www.assero.co.uk/MDRSdtmM/CDISC/V1#M-CDISC_SDTMMODEL_C_QUALIFIER_SC_VARIABLEQUALIFIER> . 
<http://www.assero.co.uk/MDRSdtmM/CDISC/V1#M-CDISC_SDTMMODEL> bd:includesVariable <http://www.assero.co.uk/MDRSdtmM/CDISC/V1#M-CDISC_SDTMMODEL_xxDOSRGM> . 
<http://www.assero.co.uk/MDRSdtmM/CDISC/V1#M-CDISC_SDTMMODEL_xxROUTE> rdf:type <http://www.assero.co.uk/BusinessDomain#ModelVariable> . 
<http://www.assero.co.uk/MDRSdtmM/CDISC/V1#M-CDISC_SDTMMODEL_xxROUTE> rdfs:label "Route of Administration"^^xsd:string . 
<http://www.assero.co.uk/MDRSdtmM/CDISC/V1#M-CDISC_SDTMMODEL_xxROUTE> bd:ordinal "20"^^xsd:positiveInteger . 
<http://www.assero.co.uk/MDRSdtmM/CDISC/V1#M-CDISC_SDTMMODEL_xxROUTE> bd:rule ""^^xsd:string . 
<http://www.assero.co.uk/MDRSdtmM/CDISC/V1#M-CDISC_SDTMMODEL_xxROUTE> bd:name "--ROUTE"^^xsd:string . 
<http://www.assero.co.uk/MDRSdtmM/CDISC/V1#M-CDISC_SDTMMODEL_xxROUTE> bd:prefixed "true"^^xsd:boolean . 
<http://www.assero.co.uk/MDRSdtmM/CDISC/V1#M-CDISC_SDTMMODEL_xxROUTE> bd:description "Route of administration for the intervention. Examples: ORAL, INTRAVENOUS."^^xsd:string . 
<http://www.assero.co.uk/MDRSdtmM/CDISC/V1#M-CDISC_SDTMMODEL_xxROUTE> bd:typedAs <http://www.assero.co.uk/MDRSdtmM/CDISC/V1#M-CDISC_SDTMMODEL_DT_CHAR> . 
<http://www.assero.co.uk/MDRSdtmM/CDISC/V1#M-CDISC_SDTMMODEL_xxROUTE> bd:classifiedAs <http://www.assero.co.uk/MDRSdtmM/CDISC/V1#M-CDISC_SDTMMODEL_C_QUALIFIER_SC_VARIABLEQUALIFIER> . 
<http://www.assero.co.uk/MDRSdtmM/CDISC/V1#M-CDISC_SDTMMODEL> bd:includesVariable <http://www.assero.co.uk/MDRSdtmM/CDISC/V1#M-CDISC_SDTMMODEL_xxROUTE> . 
<http://www.assero.co.uk/MDRSdtmM/CDISC/V1#M-CDISC_SDTMMODEL_xxLOT> rdf:type <http://www.assero.co.uk/BusinessDomain#ModelVariable> . 
<http://www.assero.co.uk/MDRSdtmM/CDISC/V1#M-CDISC_SDTMMODEL_xxLOT> rdfs:label "Lot Number"^^xsd:string . 
<http://www.assero.co.uk/MDRSdtmM/CDISC/V1#M-CDISC_SDTMMODEL_xxLOT> bd:ordinal "21"^^xsd:positiveInteger . 
<http://www.assero.co.uk/MDRSdtmM/CDISC/V1#M-CDISC_SDTMMODEL_xxLOT> bd:rule ""^^xsd:string . 
<http://www.assero.co.uk/MDRSdtmM/CDISC/V1#M-CDISC_SDTMMODEL_xxLOT> bd:name "--LOT"^^xsd:string . 
<http://www.assero.co.uk/MDRSdtmM/CDISC/V1#M-CDISC_SDTMMODEL_xxLOT> bd:prefixed "true"^^xsd:boolean . 
<http://www.assero.co.uk/MDRSdtmM/CDISC/V1#M-CDISC_SDTMMODEL_xxLOT> bd:description "Lot number for the intervention described in --TRT."^^xsd:string . 
<http://www.assero.co.uk/MDRSdtmM/CDISC/V1#M-CDISC_SDTMMODEL_xxLOT> bd:typedAs <http://www.assero.co.uk/MDRSdtmM/CDISC/V1#M-CDISC_SDTMMODEL_DT_CHAR> . 
<http://www.assero.co.uk/MDRSdtmM/CDISC/V1#M-CDISC_SDTMMODEL_xxLOT> bd:classifiedAs <http://www.assero.co.uk/MDRSdtmM/CDISC/V1#M-CDISC_SDTMMODEL_C_QUALIFIER_SC_RECORDQUALIFIER> . 
<http://www.assero.co.uk/MDRSdtmM/CDISC/V1#M-CDISC_SDTMMODEL> bd:includesVariable <http://www.assero.co.uk/MDRSdtmM/CDISC/V1#M-CDISC_SDTMMODEL_xxLOT> . 
<http://www.assero.co.uk/MDRSdtmM/CDISC/V1#M-CDISC_SDTMMODEL_xxTRTV> rdf:type <http://www.assero.co.uk/BusinessDomain#ModelVariable> . 
<http://www.assero.co.uk/MDRSdtmM/CDISC/V1#M-CDISC_SDTMMODEL_xxTRTV> rdfs:label "Treatment Vehicle"^^xsd:string . 
<http://www.assero.co.uk/MDRSdtmM/CDISC/V1#M-CDISC_SDTMMODEL_xxTRTV> bd:ordinal "23"^^xsd:positiveInteger . 
<http://www.assero.co.uk/MDRSdtmM/CDISC/V1#M-CDISC_SDTMMODEL_xxTRTV> bd:rule ""^^xsd:string . 
<http://www.assero.co.uk/MDRSdtmM/CDISC/V1#M-CDISC_SDTMMODEL_xxTRTV> bd:name "--TRTV"^^xsd:string . 
<http://www.assero.co.uk/MDRSdtmM/CDISC/V1#M-CDISC_SDTMMODEL_xxTRTV> bd:prefixed "true"^^xsd:boolean . 
<http://www.assero.co.uk/MDRSdtmM/CDISC/V1#M-CDISC_SDTMMODEL_xxTRTV> bd:description "Vehicle for administration of treatment, such as a liquid in which the treatment drug is dissolved. Example: SALINE."^^xsd:string . 
<http://www.assero.co.uk/MDRSdtmM/CDISC/V1#M-CDISC_SDTMMODEL_xxTRTV> bd:typedAs <http://www.assero.co.uk/MDRSdtmM/CDISC/V1#M-CDISC_SDTMMODEL_DT_CHAR> . 
<http://www.assero.co.uk/MDRSdtmM/CDISC/V1#M-CDISC_SDTMMODEL_xxTRTV> bd:classifiedAs <http://www.assero.co.uk/MDRSdtmM/CDISC/V1#M-CDISC_SDTMMODEL_C_QUALIFIER_SC_RECORDQUALIFIER> . 
<http://www.assero.co.uk/MDRSdtmM/CDISC/V1#M-CDISC_SDTMMODEL> bd:includesVariable <http://www.assero.co.uk/MDRSdtmM/CDISC/V1#M-CDISC_SDTMMODEL_xxTRTV> . 
<http://www.assero.co.uk/MDRSdtmM/CDISC/V1#M-CDISC_SDTMMODEL_xxVAMT> rdf:type <http://www.assero.co.uk/BusinessDomain#ModelVariable> . 
<http://www.assero.co.uk/MDRSdtmM/CDISC/V1#M-CDISC_SDTMMODEL_xxVAMT> rdfs:label "Treatment Vehicle Amount"^^xsd:string . 
<http://www.assero.co.uk/MDRSdtmM/CDISC/V1#M-CDISC_SDTMMODEL_xxVAMT> bd:ordinal "24"^^xsd:positiveInteger . 
<http://www.assero.co.uk/MDRSdtmM/CDISC/V1#M-CDISC_SDTMMODEL_xxVAMT> bd:rule ""^^xsd:string . 
<http://www.assero.co.uk/MDRSdtmM/CDISC/V1#M-CDISC_SDTMMODEL_xxVAMT> bd:name "--VAMT"^^xsd:string . 
<http://www.assero.co.uk/MDRSdtmM/CDISC/V1#M-CDISC_SDTMMODEL_xxVAMT> bd:prefixed "true"^^xsd:boolean . 
<http://www.assero.co.uk/MDRSdtmM/CDISC/V1#M-CDISC_SDTMMODEL_xxVAMT> bd:description "Amount of the treatment vehicle administered or given."^^xsd:string . 
<http://www.assero.co.uk/MDRSdtmM/CDISC/V1#M-CDISC_SDTMMODEL_xxVAMT> bd:typedAs <http://www.assero.co.uk/MDRSdtmM/CDISC/V1#M-CDISC_SDTMMODEL_DT_NUM> . 
<http://www.assero.co.uk/MDRSdtmM/CDISC/V1#M-CDISC_SDTMMODEL_xxVAMT> bd:classifiedAs <http://www.assero.co.uk/MDRSdtmM/CDISC/V1#M-CDISC_SDTMMODEL_C_QUALIFIER_SC_RECORDQUALIFIER> . 
<http://www.assero.co.uk/MDRSdtmM/CDISC/V1#M-CDISC_SDTMMODEL> bd:includesVariable <http://www.assero.co.uk/MDRSdtmM/CDISC/V1#M-CDISC_SDTMMODEL_xxVAMT> . 
<http://www.assero.co.uk/MDRSdtmM/CDISC/V1#M-CDISC_SDTMMODEL_xxVAMTU> rdf:type <http://www.assero.co.uk/BusinessDomain#ModelVariable> . 
<http://www.assero.co.uk/MDRSdtmM/CDISC/V1#M-CDISC_SDTMMODEL_xxVAMTU> rdfs:label "Treatment Vehicle Amount Units"^^xsd:string . 
<http://www.assero.co.uk/MDRSdtmM/CDISC/V1#M-CDISC_SDTMMODEL_xxVAMTU> bd:ordinal "25"^^xsd:positiveInteger . 
<http://www.assero.co.uk/MDRSdtmM/CDISC/V1#M-CDISC_SDTMMODEL_xxVAMTU> bd:rule ""^^xsd:string . 
<http://www.assero.co.uk/MDRSdtmM/CDISC/V1#M-CDISC_SDTMMODEL_xxVAMTU> bd:name "--VAMTU"^^xsd:string . 
<http://www.assero.co.uk/MDRSdtmM/CDISC/V1#M-CDISC_SDTMMODEL_xxVAMTU> bd:prefixed "true"^^xsd:boolean . 
<http://www.assero.co.uk/MDRSdtmM/CDISC/V1#M-CDISC_SDTMMODEL_xxVAMTU> bd:description "Units for the treatment vehicle. Examples: mL, mg."^^xsd:string . 
<http://www.assero.co.uk/MDRSdtmM/CDISC/V1#M-CDISC_SDTMMODEL_xxVAMTU> bd:typedAs <http://www.assero.co.uk/MDRSdtmM/CDISC/V1#M-CDISC_SDTMMODEL_DT_CHAR> . 
<http://www.assero.co.uk/MDRSdtmM/CDISC/V1#M-CDISC_SDTMMODEL_xxVAMTU> bd:classifiedAs <http://www.assero.co.uk/MDRSdtmM/CDISC/V1#M-CDISC_SDTMMODEL_C_QUALIFIER_SC_VARIABLEQUALIFIER> . 
<http://www.assero.co.uk/MDRSdtmM/CDISC/V1#M-CDISC_SDTMMODEL> bd:includesVariable <http://www.assero.co.uk/MDRSdtmM/CDISC/V1#M-CDISC_SDTMMODEL_xxVAMTU> . 
<http://www.assero.co.uk/MDRSdtmM/CDISC/V1#M-CDISC_SDTMMODEL_xxADJ> rdf:type <http://www.assero.co.uk/BusinessDomain#ModelVariable> . 
<http://www.assero.co.uk/MDRSdtmM/CDISC/V1#M-CDISC_SDTMMODEL_xxADJ> rdfs:label "Reason for Dose Adjustment"^^xsd:string . 
<http://www.assero.co.uk/MDRSdtmM/CDISC/V1#M-CDISC_SDTMMODEL_xxADJ> bd:ordinal "26"^^xsd:positiveInteger . 
<http://www.assero.co.uk/MDRSdtmM/CDISC/V1#M-CDISC_SDTMMODEL_xxADJ> bd:rule ""^^xsd:string . 
<http://www.assero.co.uk/MDRSdtmM/CDISC/V1#M-CDISC_SDTMMODEL_xxADJ> bd:name "--ADJ"^^xsd:string . 
<http://www.assero.co.uk/MDRSdtmM/CDISC/V1#M-CDISC_SDTMMODEL_xxADJ> bd:prefixed "true"^^xsd:boolean . 
<http://www.assero.co.uk/MDRSdtmM/CDISC/V1#M-CDISC_SDTMMODEL_xxADJ> bd:description "Describes reason or explanation of why a dose is adjusted. Examples ADVERSE EVENT, INSUFFICIENT RESPONSE, NON-MEDICAL REASON."^^xsd:string . 
<http://www.assero.co.uk/MDRSdtmM/CDISC/V1#M-CDISC_SDTMMODEL_xxADJ> bd:typedAs <http://www.assero.co.uk/MDRSdtmM/CDISC/V1#M-CDISC_SDTMMODEL_DT_CHAR> . 
<http://www.assero.co.uk/MDRSdtmM/CDISC/V1#M-CDISC_SDTMMODEL_xxADJ> bd:classifiedAs <http://www.assero.co.uk/MDRSdtmM/CDISC/V1#M-CDISC_SDTMMODEL_C_QUALIFIER_SC_RECORDQUALIFIER> . 
<http://www.assero.co.uk/MDRSdtmM/CDISC/V1#M-CDISC_SDTMMODEL> bd:includesVariable <http://www.assero.co.uk/MDRSdtmM/CDISC/V1#M-CDISC_SDTMMODEL_xxADJ> . 
<http://www.assero.co.uk/MDRSdtmM/CDISC/V1#M-CDISC_SDTMMODEL_SUBJID> rdf:type <http://www.assero.co.uk/BusinessDomain#ModelVariable> . 
<http://www.assero.co.uk/MDRSdtmM/CDISC/V1#M-CDISC_SDTMMODEL_SUBJID> rdfs:label "Subject Identifier for the Study"^^xsd:string . 
<http://www.assero.co.uk/MDRSdtmM/CDISC/V1#M-CDISC_SDTMMODEL_SUBJID> bd:ordinal "1"^^xsd:positiveInteger . 
<http://www.assero.co.uk/MDRSdtmM/CDISC/V1#M-CDISC_SDTMMODEL_SUBJID> bd:rule ""^^xsd:string . 
<http://www.assero.co.uk/MDRSdtmM/CDISC/V1#M-CDISC_SDTMMODEL_SUBJID> bd:name "SUBJID"^^xsd:string . 
<http://www.assero.co.uk/MDRSdtmM/CDISC/V1#M-CDISC_SDTMMODEL_SUBJID> bd:prefixed "false"^^xsd:boolean . 
<http://www.assero.co.uk/MDRSdtmM/CDISC/V1#M-CDISC_SDTMMODEL_SUBJID> bd:description "Subject identifier, which must be unique within the study. Often the ID of the subject as recorded on a CRF."^^xsd:string . 
<http://www.assero.co.uk/MDRSdtmM/CDISC/V1#M-CDISC_SDTMMODEL_SUBJID> bd:typedAs <http://www.assero.co.uk/MDRSdtmM/CDISC/V1#M-CDISC_SDTMMODEL_DT_CHAR> . 
<http://www.assero.co.uk/MDRSdtmM/CDISC/V1#M-CDISC_SDTMMODEL_SUBJID> bd:classifiedAs <http://www.assero.co.uk/MDRSdtmM/CDISC/V1#M-CDISC_SDTMMODEL_C_TOPIC> . 
<http://www.assero.co.uk/MDRSdtmM/CDISC/V1#M-CDISC_SDTMMODEL> bd:includesVariable <http://www.assero.co.uk/MDRSdtmM/CDISC/V1#M-CDISC_SDTMMODEL_SUBJID> . 
<http://www.assero.co.uk/MDRSdtmM/CDISC/V1#M-CDISC_SDTMMODEL_RFSTDTC> rdf:type <http://www.assero.co.uk/BusinessDomain#ModelVariable> . 
<http://www.assero.co.uk/MDRSdtmM/CDISC/V1#M-CDISC_SDTMMODEL_RFSTDTC> rdfs:label "Subject Reference Start Date/Time"^^xsd:string . 
<http://www.assero.co.uk/MDRSdtmM/CDISC/V1#M-CDISC_SDTMMODEL_RFSTDTC> bd:ordinal "2"^^xsd:positiveInteger . 
<http://www.assero.co.uk/MDRSdtmM/CDISC/V1#M-CDISC_SDTMMODEL_RFSTDTC> bd:rule ""^^xsd:string . 
<http://www.assero.co.uk/MDRSdtmM/CDISC/V1#M-CDISC_SDTMMODEL_RFSTDTC> bd:name "RFSTDTC"^^xsd:string . 
<http://www.assero.co.uk/MDRSdtmM/CDISC/V1#M-CDISC_SDTMMODEL_RFSTDTC> bd:prefixed "false"^^xsd:boolean . 
<http://www.assero.co.uk/MDRSdtmM/CDISC/V1#M-CDISC_SDTMMODEL_RFSTDTC> bd:description "Reference Start Date/time for the subject in ISO 8601 character format. Usually equivalent to date/time when subject was first exposed to study treatment. Required for all randomized subjects; will be null for all subjects who did not meet the milestone the date requires, such as screen failures or unassigned subjects."^^xsd:string . 
<http://www.assero.co.uk/MDRSdtmM/CDISC/V1#M-CDISC_SDTMMODEL_RFSTDTC> bd:typedAs <http://www.assero.co.uk/MDRSdtmM/CDISC/V1#M-CDISC_SDTMMODEL_DT_CHAR> . 
<http://www.assero.co.uk/MDRSdtmM/CDISC/V1#M-CDISC_SDTMMODEL_RFSTDTC> bd:classifiedAs <http://www.assero.co.uk/MDRSdtmM/CDISC/V1#M-CDISC_SDTMMODEL_C_QUALIFIER_SC_RECORDQUALIFIER> . 
<http://www.assero.co.uk/MDRSdtmM/CDISC/V1#M-CDISC_SDTMMODEL> bd:includesVariable <http://www.assero.co.uk/MDRSdtmM/CDISC/V1#M-CDISC_SDTMMODEL_RFSTDTC> . 
<http://www.assero.co.uk/MDRSdtmM/CDISC/V1#M-CDISC_SDTMMODEL_RFENDTC> rdf:type <http://www.assero.co.uk/BusinessDomain#ModelVariable> . 
<http://www.assero.co.uk/MDRSdtmM/CDISC/V1#M-CDISC_SDTMMODEL_RFENDTC> rdfs:label "Subject Reference End Date/Time"^^xsd:string . 
<http://www.assero.co.uk/MDRSdtmM/CDISC/V1#M-CDISC_SDTMMODEL_RFENDTC> bd:ordinal "3"^^xsd:positiveInteger . 
<http://www.assero.co.uk/MDRSdtmM/CDISC/V1#M-CDISC_SDTMMODEL_RFENDTC> bd:rule ""^^xsd:string . 
<http://www.assero.co.uk/MDRSdtmM/CDISC/V1#M-CDISC_SDTMMODEL_RFENDTC> bd:name "RFENDTC"^^xsd:string . 
<http://www.assero.co.uk/MDRSdtmM/CDISC/V1#M-CDISC_SDTMMODEL_RFENDTC> bd:prefixed "false"^^xsd:boolean . 
<http://www.assero.co.uk/MDRSdtmM/CDISC/V1#M-CDISC_SDTMMODEL_RFENDTC> bd:description "Reference End Date/time for the subject in ISO 8601 character format. Usually equivalent to the date/time when subject was determined to have ended the trial, and often equivalent to date/time of last exposure to study treatment. Required for all randomized subjects; null for screen failures or unassigned subjects."^^xsd:string . 
<http://www.assero.co.uk/MDRSdtmM/CDISC/V1#M-CDISC_SDTMMODEL_RFENDTC> bd:typedAs <http://www.assero.co.uk/MDRSdtmM/CDISC/V1#M-CDISC_SDTMMODEL_DT_CHAR> . 
<http://www.assero.co.uk/MDRSdtmM/CDISC/V1#M-CDISC_SDTMMODEL_RFENDTC> bd:classifiedAs <http://www.assero.co.uk/MDRSdtmM/CDISC/V1#M-CDISC_SDTMMODEL_C_QUALIFIER_SC_RECORDQUALIFIER> . 
<http://www.assero.co.uk/MDRSdtmM/CDISC/V1#M-CDISC_SDTMMODEL> bd:includesVariable <http://www.assero.co.uk/MDRSdtmM/CDISC/V1#M-CDISC_SDTMMODEL_RFENDTC> . 
<http://www.assero.co.uk/MDRSdtmM/CDISC/V1#M-CDISC_SDTMMODEL_SITEID> rdf:type <http://www.assero.co.uk/BusinessDomain#ModelVariable> . 
<http://www.assero.co.uk/MDRSdtmM/CDISC/V1#M-CDISC_SDTMMODEL_SITEID> rdfs:label "Study Site Identifier"^^xsd:string . 
<http://www.assero.co.uk/MDRSdtmM/CDISC/V1#M-CDISC_SDTMMODEL_SITEID> bd:ordinal "4"^^xsd:positiveInteger . 
<http://www.assero.co.uk/MDRSdtmM/CDISC/V1#M-CDISC_SDTMMODEL_SITEID> bd:rule ""^^xsd:string . 
<http://www.assero.co.uk/MDRSdtmM/CDISC/V1#M-CDISC_SDTMMODEL_SITEID> bd:name "SITEID"^^xsd:string . 
<http://www.assero.co.uk/MDRSdtmM/CDISC/V1#M-CDISC_SDTMMODEL_SITEID> bd:prefixed "false"^^xsd:boolean . 
<http://www.assero.co.uk/MDRSdtmM/CDISC/V1#M-CDISC_SDTMMODEL_SITEID> bd:description "Unique identifier for a site within a study."^^xsd:string . 
<http://www.assero.co.uk/MDRSdtmM/CDISC/V1#M-CDISC_SDTMMODEL_SITEID> bd:typedAs <http://www.assero.co.uk/MDRSdtmM/CDISC/V1#M-CDISC_SDTMMODEL_DT_CHAR> . 
<http://www.assero.co.uk/MDRSdtmM/CDISC/V1#M-CDISC_SDTMMODEL_SITEID> bd:classifiedAs <http://www.assero.co.uk/MDRSdtmM/CDISC/V1#M-CDISC_SDTMMODEL_C_QUALIFIER_SC_RECORDQUALIFIER> . 
<http://www.assero.co.uk/MDRSdtmM/CDISC/V1#M-CDISC_SDTMMODEL> bd:includesVariable <http://www.assero.co.uk/MDRSdtmM/CDISC/V1#M-CDISC_SDTMMODEL_SITEID> . 
<http://www.assero.co.uk/MDRSdtmM/CDISC/V1#M-CDISC_SDTMMODEL_INVID> rdf:type <http://www.assero.co.uk/BusinessDomain#ModelVariable> . 
<http://www.assero.co.uk/MDRSdtmM/CDISC/V1#M-CDISC_SDTMMODEL_INVID> rdfs:label "Investigator Identifier"^^xsd:string . 
<http://www.assero.co.uk/MDRSdtmM/CDISC/V1#M-CDISC_SDTMMODEL_INVID> bd:ordinal "5"^^xsd:positiveInteger . 
<http://www.assero.co.uk/MDRSdtmM/CDISC/V1#M-CDISC_SDTMMODEL_INVID> bd:rule ""^^xsd:string . 
<http://www.assero.co.uk/MDRSdtmM/CDISC/V1#M-CDISC_SDTMMODEL_INVID> bd:name "INVID"^^xsd:string . 
<http://www.assero.co.uk/MDRSdtmM/CDISC/V1#M-CDISC_SDTMMODEL_INVID> bd:prefixed "false"^^xsd:boolean . 
<http://www.assero.co.uk/MDRSdtmM/CDISC/V1#M-CDISC_SDTMMODEL_INVID> bd:description "An identifier to describe the Investigator for the study. May be used in addition to the SITEID. Not needed if SITEID is equivalent to INVID."^^xsd:string . 
<http://www.assero.co.uk/MDRSdtmM/CDISC/V1#M-CDISC_SDTMMODEL_INVID> bd:typedAs <http://www.assero.co.uk/MDRSdtmM/CDISC/V1#M-CDISC_SDTMMODEL_DT_CHAR> . 
<http://www.assero.co.uk/MDRSdtmM/CDISC/V1#M-CDISC_SDTMMODEL_INVID> bd:classifiedAs <http://www.assero.co.uk/MDRSdtmM/CDISC/V1#M-CDISC_SDTMMODEL_C_QUALIFIER_SC_RECORDQUALIFIER> . 
<http://www.assero.co.uk/MDRSdtmM/CDISC/V1#M-CDISC_SDTMMODEL> bd:includesVariable <http://www.assero.co.uk/MDRSdtmM/CDISC/V1#M-CDISC_SDTMMODEL_INVID> . 
<http://www.assero.co.uk/MDRSdtmM/CDISC/V1#M-CDISC_SDTMMODEL_INVNAM> rdf:type <http://www.assero.co.uk/BusinessDomain#ModelVariable> . 
<http://www.assero.co.uk/MDRSdtmM/CDISC/V1#M-CDISC_SDTMMODEL_INVNAM> rdfs:label "Investigator Name"^^xsd:string . 
<http://www.assero.co.uk/MDRSdtmM/CDISC/V1#M-CDISC_SDTMMODEL_INVNAM> bd:ordinal "6"^^xsd:positiveInteger . 
<http://www.assero.co.uk/MDRSdtmM/CDISC/V1#M-CDISC_SDTMMODEL_INVNAM> bd:rule ""^^xsd:string . 
<http://www.assero.co.uk/MDRSdtmM/CDISC/V1#M-CDISC_SDTMMODEL_INVNAM> bd:name "INVNAM"^^xsd:string . 
<http://www.assero.co.uk/MDRSdtmM/CDISC/V1#M-CDISC_SDTMMODEL_INVNAM> bd:prefixed "false"^^xsd:boolean . 
<http://www.assero.co.uk/MDRSdtmM/CDISC/V1#M-CDISC_SDTMMODEL_INVNAM> bd:description "Name of the investigator for a site."^^xsd:string . 
<http://www.assero.co.uk/MDRSdtmM/CDISC/V1#M-CDISC_SDTMMODEL_INVNAM> bd:typedAs <http://www.assero.co.uk/MDRSdtmM/CDISC/V1#M-CDISC_SDTMMODEL_DT_CHAR> . 
<http://www.assero.co.uk/MDRSdtmM/CDISC/V1#M-CDISC_SDTMMODEL_INVNAM> bd:classifiedAs <http://www.assero.co.uk/MDRSdtmM/CDISC/V1#M-CDISC_SDTMMODEL_C_QUALIFIER_SC_RECORDQUALIFIER> . 
<http://www.assero.co.uk/MDRSdtmM/CDISC/V1#M-CDISC_SDTMMODEL> bd:includesVariable <http://www.assero.co.uk/MDRSdtmM/CDISC/V1#M-CDISC_SDTMMODEL_INVNAM> . 
<http://www.assero.co.uk/MDRSdtmM/CDISC/V1#M-CDISC_SDTMMODEL_BRTHDTC> rdf:type <http://www.assero.co.uk/BusinessDomain#ModelVariable> . 
<http://www.assero.co.uk/MDRSdtmM/CDISC/V1#M-CDISC_SDTMMODEL_BRTHDTC> rdfs:label "Date/Time of Birth"^^xsd:string . 
<http://www.assero.co.uk/MDRSdtmM/CDISC/V1#M-CDISC_SDTMMODEL_BRTHDTC> bd:ordinal "7"^^xsd:positiveInteger . 
<http://www.assero.co.uk/MDRSdtmM/CDISC/V1#M-CDISC_SDTMMODEL_BRTHDTC> bd:rule ""^^xsd:string . 
<http://www.assero.co.uk/MDRSdtmM/CDISC/V1#M-CDISC_SDTMMODEL_BRTHDTC> bd:name "BRTHDTC"^^xsd:string . 
<http://www.assero.co.uk/MDRSdtmM/CDISC/V1#M-CDISC_SDTMMODEL_BRTHDTC> bd:prefixed "false"^^xsd:boolean . 
<http://www.assero.co.uk/MDRSdtmM/CDISC/V1#M-CDISC_SDTMMODEL_BRTHDTC> bd:description "Date/time of birth of the subject in ISO 8601 character format."^^xsd:string . 
<http://www.assero.co.uk/MDRSdtmM/CDISC/V1#M-CDISC_SDTMMODEL_BRTHDTC> bd:typedAs <http://www.assero.co.uk/MDRSdtmM/CDISC/V1#M-CDISC_SDTMMODEL_DT_CHAR> . 
<http://www.assero.co.uk/MDRSdtmM/CDISC/V1#M-CDISC_SDTMMODEL_BRTHDTC> bd:classifiedAs <http://www.assero.co.uk/MDRSdtmM/CDISC/V1#M-CDISC_SDTMMODEL_C_QUALIFIER_SC_RECORDQUALIFIER> . 
<http://www.assero.co.uk/MDRSdtmM/CDISC/V1#M-CDISC_SDTMMODEL> bd:includesVariable <http://www.assero.co.uk/MDRSdtmM/CDISC/V1#M-CDISC_SDTMMODEL_BRTHDTC> . 
<http://www.assero.co.uk/MDRSdtmM/CDISC/V1#M-CDISC_SDTMMODEL_AGE> rdf:type <http://www.assero.co.uk/BusinessDomain#ModelVariable> . 
<http://www.assero.co.uk/MDRSdtmM/CDISC/V1#M-CDISC_SDTMMODEL_AGE> rdfs:label "Age"^^xsd:string . 
<http://www.assero.co.uk/MDRSdtmM/CDISC/V1#M-CDISC_SDTMMODEL_AGE> bd:ordinal "8"^^xsd:positiveInteger . 
<http://www.assero.co.uk/MDRSdtmM/CDISC/V1#M-CDISC_SDTMMODEL_AGE> bd:rule ""^^xsd:string . 
<http://www.assero.co.uk/MDRSdtmM/CDISC/V1#M-CDISC_SDTMMODEL_AGE> bd:name "AGE"^^xsd:string . 
<http://www.assero.co.uk/MDRSdtmM/CDISC/V1#M-CDISC_SDTMMODEL_AGE> bd:prefixed "false"^^xsd:boolean . 
<http://www.assero.co.uk/MDRSdtmM/CDISC/V1#M-CDISC_SDTMMODEL_AGE> bd:description "Age expressed in AGEU"^^xsd:string . 
<http://www.assero.co.uk/MDRSdtmM/CDISC/V1#M-CDISC_SDTMMODEL_AGE> bd:typedAs <http://www.assero.co.uk/MDRSdtmM/CDISC/V1#M-CDISC_SDTMMODEL_DT_NUM> . 
<http://www.assero.co.uk/MDRSdtmM/CDISC/V1#M-CDISC_SDTMMODEL_AGE> bd:classifiedAs <http://www.assero.co.uk/MDRSdtmM/CDISC/V1#M-CDISC_SDTMMODEL_C_QUALIFIER_SC_RECORDQUALIFIER> . 
<http://www.assero.co.uk/MDRSdtmM/CDISC/V1#M-CDISC_SDTMMODEL> bd:includesVariable <http://www.assero.co.uk/MDRSdtmM/CDISC/V1#M-CDISC_SDTMMODEL_AGE> . 
<http://www.assero.co.uk/MDRSdtmM/CDISC/V1#M-CDISC_SDTMMODEL_AGEU> rdf:type <http://www.assero.co.uk/BusinessDomain#ModelVariable> . 
<http://www.assero.co.uk/MDRSdtmM/CDISC/V1#M-CDISC_SDTMMODEL_AGEU> rdfs:label "Age Units"^^xsd:string . 
<http://www.assero.co.uk/MDRSdtmM/CDISC/V1#M-CDISC_SDTMMODEL_AGEU> bd:ordinal "9"^^xsd:positiveInteger . 
<http://www.assero.co.uk/MDRSdtmM/CDISC/V1#M-CDISC_SDTMMODEL_AGEU> bd:rule ""^^xsd:string . 
<http://www.assero.co.uk/MDRSdtmM/CDISC/V1#M-CDISC_SDTMMODEL_AGEU> bd:name "AGEU"^^xsd:string . 
<http://www.assero.co.uk/MDRSdtmM/CDISC/V1#M-CDISC_SDTMMODEL_AGEU> bd:prefixed "false"^^xsd:boolean . 
<http://www.assero.co.uk/MDRSdtmM/CDISC/V1#M-CDISC_SDTMMODEL_AGEU> bd:description "Units associated with AGE."^^xsd:string . 
<http://www.assero.co.uk/MDRSdtmM/CDISC/V1#M-CDISC_SDTMMODEL_AGEU> bd:typedAs <http://www.assero.co.uk/MDRSdtmM/CDISC/V1#M-CDISC_SDTMMODEL_DT_CHAR> . 
<http://www.assero.co.uk/MDRSdtmM/CDISC/V1#M-CDISC_SDTMMODEL_AGEU> bd:classifiedAs <http://www.assero.co.uk/MDRSdtmM/CDISC/V1#M-CDISC_SDTMMODEL_C_QUALIFIER_SC_RECORDQUALIFIER> . 
<http://www.assero.co.uk/MDRSdtmM/CDISC/V1#M-CDISC_SDTMMODEL> bd:includesVariable <http://www.assero.co.uk/MDRSdtmM/CDISC/V1#M-CDISC_SDTMMODEL_AGEU> . 
<http://www.assero.co.uk/MDRSdtmM/CDISC/V1#M-CDISC_SDTMMODEL_SEX> rdf:type <http://www.assero.co.uk/BusinessDomain#ModelVariable> . 
<http://www.assero.co.uk/MDRSdtmM/CDISC/V1#M-CDISC_SDTMMODEL_SEX> rdfs:label "Sex"^^xsd:string . 
<http://www.assero.co.uk/MDRSdtmM/CDISC/V1#M-CDISC_SDTMMODEL_SEX> bd:ordinal "10"^^xsd:positiveInteger . 
<http://www.assero.co.uk/MDRSdtmM/CDISC/V1#M-CDISC_SDTMMODEL_SEX> bd:rule ""^^xsd:string . 
<http://www.assero.co.uk/MDRSdtmM/CDISC/V1#M-CDISC_SDTMMODEL_SEX> bd:name "SEX"^^xsd:string . 
<http://www.assero.co.uk/MDRSdtmM/CDISC/V1#M-CDISC_SDTMMODEL_SEX> bd:prefixed "false"^^xsd:boolean . 
<http://www.assero.co.uk/MDRSdtmM/CDISC/V1#M-CDISC_SDTMMODEL_SEX> bd:description "Sex of the subject."^^xsd:string . 
<http://www.assero.co.uk/MDRSdtmM/CDISC/V1#M-CDISC_SDTMMODEL_SEX> bd:typedAs <http://www.assero.co.uk/MDRSdtmM/CDISC/V1#M-CDISC_SDTMMODEL_DT_CHAR> . 
<http://www.assero.co.uk/MDRSdtmM/CDISC/V1#M-CDISC_SDTMMODEL_SEX> bd:classifiedAs <http://www.assero.co.uk/MDRSdtmM/CDISC/V1#M-CDISC_SDTMMODEL_C_QUALIFIER_SC_RECORDQUALIFIER> . 
<http://www.assero.co.uk/MDRSdtmM/CDISC/V1#M-CDISC_SDTMMODEL> bd:includesVariable <http://www.assero.co.uk/MDRSdtmM/CDISC/V1#M-CDISC_SDTMMODEL_SEX> . 
<http://www.assero.co.uk/MDRSdtmM/CDISC/V1#M-CDISC_SDTMMODEL_RACE> rdf:type <http://www.assero.co.uk/BusinessDomain#ModelVariable> . 
<http://www.assero.co.uk/MDRSdtmM/CDISC/V1#M-CDISC_SDTMMODEL_RACE> rdfs:label "Race"^^xsd:string . 
<http://www.assero.co.uk/MDRSdtmM/CDISC/V1#M-CDISC_SDTMMODEL_RACE> bd:ordinal "11"^^xsd:positiveInteger . 
<http://www.assero.co.uk/MDRSdtmM/CDISC/V1#M-CDISC_SDTMMODEL_RACE> bd:rule ""^^xsd:string . 
<http://www.assero.co.uk/MDRSdtmM/CDISC/V1#M-CDISC_SDTMMODEL_RACE> bd:name "RACE"^^xsd:string . 
<http://www.assero.co.uk/MDRSdtmM/CDISC/V1#M-CDISC_SDTMMODEL_RACE> bd:prefixed "false"^^xsd:boolean . 
<http://www.assero.co.uk/MDRSdtmM/CDISC/V1#M-CDISC_SDTMMODEL_RACE> bd:description "Race of the subject. Sponsors should refer to “Collection of Race and Ethnicity Data in Clinical Trials” (FDA, September 2005) for guidance regarding the collection of race (http://www.fda.gov/cder/guidance/5656fnl.htm)"^^xsd:string . 
<http://www.assero.co.uk/MDRSdtmM/CDISC/V1#M-CDISC_SDTMMODEL_RACE> bd:typedAs <http://www.assero.co.uk/MDRSdtmM/CDISC/V1#M-CDISC_SDTMMODEL_DT_CHAR> . 
<http://www.assero.co.uk/MDRSdtmM/CDISC/V1#M-CDISC_SDTMMODEL_RACE> bd:classifiedAs <http://www.assero.co.uk/MDRSdtmM/CDISC/V1#M-CDISC_SDTMMODEL_C_QUALIFIER_SC_RECORDQUALIFIER> . 
<http://www.assero.co.uk/MDRSdtmM/CDISC/V1#M-CDISC_SDTMMODEL> bd:includesVariable <http://www.assero.co.uk/MDRSdtmM/CDISC/V1#M-CDISC_SDTMMODEL_RACE> . 
<http://www.assero.co.uk/MDRSdtmM/CDISC/V1#M-CDISC_SDTMMODEL_ETHNIC> rdf:type <http://www.assero.co.uk/BusinessDomain#ModelVariable> . 
<http://www.assero.co.uk/MDRSdtmM/CDISC/V1#M-CDISC_SDTMMODEL_ETHNIC> rdfs:label "Ethnicity"^^xsd:string . 
<http://www.assero.co.uk/MDRSdtmM/CDISC/V1#M-CDISC_SDTMMODEL_ETHNIC> bd:ordinal "12"^^xsd:positiveInteger . 
<http://www.assero.co.uk/MDRSdtmM/CDISC/V1#M-CDISC_SDTMMODEL_ETHNIC> bd:rule ""^^xsd:string . 
<http://www.assero.co.uk/MDRSdtmM/CDISC/V1#M-CDISC_SDTMMODEL_ETHNIC> bd:name "ETHNIC"^^xsd:string . 
<http://www.assero.co.uk/MDRSdtmM/CDISC/V1#M-CDISC_SDTMMODEL_ETHNIC> bd:prefixed "false"^^xsd:boolean . 
<http://www.assero.co.uk/MDRSdtmM/CDISC/V1#M-CDISC_SDTMMODEL_ETHNIC> bd:description "The ethnicity of the subject. Sponsors should refer to “Collection of Race and Ethnicity Data in Clinical Trials” (FDA, September 2005) for guidance regarding the collection of ethnicity (http://www.fda.gov/cder/guidance/5656fnl.htm)."^^xsd:string . 
<http://www.assero.co.uk/MDRSdtmM/CDISC/V1#M-CDISC_SDTMMODEL_ETHNIC> bd:typedAs <http://www.assero.co.uk/MDRSdtmM/CDISC/V1#M-CDISC_SDTMMODEL_DT_CHAR> . 
<http://www.assero.co.uk/MDRSdtmM/CDISC/V1#M-CDISC_SDTMMODEL_ETHNIC> bd:classifiedAs <http://www.assero.co.uk/MDRSdtmM/CDISC/V1#M-CDISC_SDTMMODEL_C_QUALIFIER_SC_RECORDQUALIFIER> . 
<http://www.assero.co.uk/MDRSdtmM/CDISC/V1#M-CDISC_SDTMMODEL> bd:includesVariable <http://www.assero.co.uk/MDRSdtmM/CDISC/V1#M-CDISC_SDTMMODEL_ETHNIC> . 
<http://www.assero.co.uk/MDRSdtmM/CDISC/V1#M-CDISC_SDTMMODEL_ARMCD> rdf:type <http://www.assero.co.uk/BusinessDomain#ModelVariable> . 
<http://www.assero.co.uk/MDRSdtmM/CDISC/V1#M-CDISC_SDTMMODEL_ARMCD> rdfs:label "Planned Arm Code"^^xsd:string . 
<http://www.assero.co.uk/MDRSdtmM/CDISC/V1#M-CDISC_SDTMMODEL_ARMCD> bd:ordinal "13"^^xsd:positiveInteger . 
<http://www.assero.co.uk/MDRSdtmM/CDISC/V1#M-CDISC_SDTMMODEL_ARMCD> bd:rule ""^^xsd:string . 
<http://www.assero.co.uk/MDRSdtmM/CDISC/V1#M-CDISC_SDTMMODEL_ARMCD> bd:name "ARMCD"^^xsd:string . 
<http://www.assero.co.uk/MDRSdtmM/CDISC/V1#M-CDISC_SDTMMODEL_ARMCD> bd:prefixed "false"^^xsd:boolean . 
<http://www.assero.co.uk/MDRSdtmM/CDISC/V1#M-CDISC_SDTMMODEL_ARMCD> bd:description "ARMCD is limited to 20 characters and does not have special character restrictions."^^xsd:string . 
<http://www.assero.co.uk/MDRSdtmM/CDISC/V1#M-CDISC_SDTMMODEL_ARMCD> bd:typedAs <http://www.assero.co.uk/MDRSdtmM/CDISC/V1#M-CDISC_SDTMMODEL_DT_CHAR> . 
<http://www.assero.co.uk/MDRSdtmM/CDISC/V1#M-CDISC_SDTMMODEL_ARMCD> bd:classifiedAs <http://www.assero.co.uk/MDRSdtmM/CDISC/V1#M-CDISC_SDTMMODEL_C_QUALIFIER_SC_RECORDQUALIFIER> . 
<http://www.assero.co.uk/MDRSdtmM/CDISC/V1#M-CDISC_SDTMMODEL> bd:includesVariable <http://www.assero.co.uk/MDRSdtmM/CDISC/V1#M-CDISC_SDTMMODEL_ARMCD> . 
<http://www.assero.co.uk/MDRSdtmM/CDISC/V1#M-CDISC_SDTMMODEL_ARM> rdf:type <http://www.assero.co.uk/BusinessDomain#ModelVariable> . 
<http://www.assero.co.uk/MDRSdtmM/CDISC/V1#M-CDISC_SDTMMODEL_ARM> rdfs:label "Description of Planned Arm"^^xsd:string . 
<http://www.assero.co.uk/MDRSdtmM/CDISC/V1#M-CDISC_SDTMMODEL_ARM> bd:ordinal "14"^^xsd:positiveInteger . 
<http://www.assero.co.uk/MDRSdtmM/CDISC/V1#M-CDISC_SDTMMODEL_ARM> bd:rule ""^^xsd:string . 
<http://www.assero.co.uk/MDRSdtmM/CDISC/V1#M-CDISC_SDTMMODEL_ARM> bd:name "ARM"^^xsd:string . 
<http://www.assero.co.uk/MDRSdtmM/CDISC/V1#M-CDISC_SDTMMODEL_ARM> bd:prefixed "false"^^xsd:boolean . 
<http://www.assero.co.uk/MDRSdtmM/CDISC/V1#M-CDISC_SDTMMODEL_ARM> bd:description "Name of the Arm to which the subject was assigned."^^xsd:string . 
<http://www.assero.co.uk/MDRSdtmM/CDISC/V1#M-CDISC_SDTMMODEL_ARM> bd:typedAs <http://www.assero.co.uk/MDRSdtmM/CDISC/V1#M-CDISC_SDTMMODEL_DT_CHAR> . 
<http://www.assero.co.uk/MDRSdtmM/CDISC/V1#M-CDISC_SDTMMODEL_ARM> bd:classifiedAs <http://www.assero.co.uk/MDRSdtmM/CDISC/V1#M-CDISC_SDTMMODEL_C_QUALIFIER_SC_RECORDQUALIFIER> . 
<http://www.assero.co.uk/MDRSdtmM/CDISC/V1#M-CDISC_SDTMMODEL> bd:includesVariable <http://www.assero.co.uk/MDRSdtmM/CDISC/V1#M-CDISC_SDTMMODEL_ARM> . 
<http://www.assero.co.uk/MDRSdtmM/CDISC/V1#M-CDISC_SDTMMODEL_COUNTRY> rdf:type <http://www.assero.co.uk/BusinessDomain#ModelVariable> . 
<http://www.assero.co.uk/MDRSdtmM/CDISC/V1#M-CDISC_SDTMMODEL_COUNTRY> rdfs:label "Country"^^xsd:string . 
<http://www.assero.co.uk/MDRSdtmM/CDISC/V1#M-CDISC_SDTMMODEL_COUNTRY> bd:ordinal "15"^^xsd:positiveInteger . 
<http://www.assero.co.uk/MDRSdtmM/CDISC/V1#M-CDISC_SDTMMODEL_COUNTRY> bd:rule ""^^xsd:string . 
<http://www.assero.co.uk/MDRSdtmM/CDISC/V1#M-CDISC_SDTMMODEL_COUNTRY> bd:name "COUNTRY"^^xsd:string . 
<http://www.assero.co.uk/MDRSdtmM/CDISC/V1#M-CDISC_SDTMMODEL_COUNTRY> bd:prefixed "false"^^xsd:boolean . 
<http://www.assero.co.uk/MDRSdtmM/CDISC/V1#M-CDISC_SDTMMODEL_COUNTRY> bd:description "Country of the investigational site at which the subject participated in the trial in ISO 3166 three-character format."^^xsd:string . 
<http://www.assero.co.uk/MDRSdtmM/CDISC/V1#M-CDISC_SDTMMODEL_COUNTRY> bd:typedAs <http://www.assero.co.uk/MDRSdtmM/CDISC/V1#M-CDISC_SDTMMODEL_DT_CHAR> . 
<http://www.assero.co.uk/MDRSdtmM/CDISC/V1#M-CDISC_SDTMMODEL_COUNTRY> bd:classifiedAs <http://www.assero.co.uk/MDRSdtmM/CDISC/V1#M-CDISC_SDTMMODEL_C_QUALIFIER_SC_RECORDQUALIFIER> . 
<http://www.assero.co.uk/MDRSdtmM/CDISC/V1#M-CDISC_SDTMMODEL> bd:includesVariable <http://www.assero.co.uk/MDRSdtmM/CDISC/V1#M-CDISC_SDTMMODEL_COUNTRY> . 
<http://www.assero.co.uk/MDRSdtmM/CDISC/V1#M-CDISC_SDTMMODEL_RDOMAIN> rdf:type <http://www.assero.co.uk/BusinessDomain#ModelVariable> . 
<http://www.assero.co.uk/MDRSdtmM/CDISC/V1#M-CDISC_SDTMMODEL_RDOMAIN> rdfs:label "Related Domain Abbreviation"^^xsd:string . 
<http://www.assero.co.uk/MDRSdtmM/CDISC/V1#M-CDISC_SDTMMODEL_RDOMAIN> bd:ordinal "16"^^xsd:positiveInteger . 
<http://www.assero.co.uk/MDRSdtmM/CDISC/V1#M-CDISC_SDTMMODEL_RDOMAIN> bd:rule ""^^xsd:string . 
<http://www.assero.co.uk/MDRSdtmM/CDISC/V1#M-CDISC_SDTMMODEL_RDOMAIN> bd:name "RDOMAIN"^^xsd:string . 
<http://www.assero.co.uk/MDRSdtmM/CDISC/V1#M-CDISC_SDTMMODEL_RDOMAIN> bd:prefixed "false"^^xsd:boolean . 
<http://www.assero.co.uk/MDRSdtmM/CDISC/V1#M-CDISC_SDTMMODEL_RDOMAIN> bd:description "Domain Abbreviation of the parent record(s). Null for records collected on general comments or additional information CRF page."^^xsd:string . 
<http://www.assero.co.uk/MDRSdtmM/CDISC/V1#M-CDISC_SDTMMODEL_RDOMAIN> bd:typedAs <http://www.assero.co.uk/MDRSdtmM/CDISC/V1#M-CDISC_SDTMMODEL_DT_CHAR> . 
<http://www.assero.co.uk/MDRSdtmM/CDISC/V1#M-CDISC_SDTMMODEL_RDOMAIN> bd:classifiedAs <http://www.assero.co.uk/MDRSdtmM/CDISC/V1#M-CDISC_SDTMMODEL_C_QUALIFIER_SC_RECORDQUALIFIER> . 
<http://www.assero.co.uk/MDRSdtmM/CDISC/V1#M-CDISC_SDTMMODEL> bd:includesVariable <http://www.assero.co.uk/MDRSdtmM/CDISC/V1#M-CDISC_SDTMMODEL_RDOMAIN> . 
<http://www.assero.co.uk/MDRSdtmM/CDISC/V1#M-CDISC_SDTMMODEL_IDVAR> rdf:type <http://www.assero.co.uk/BusinessDomain#ModelVariable> . 
<http://www.assero.co.uk/MDRSdtmM/CDISC/V1#M-CDISC_SDTMMODEL_IDVAR> rdfs:label "Identifying Variable"^^xsd:string . 
<http://www.assero.co.uk/MDRSdtmM/CDISC/V1#M-CDISC_SDTMMODEL_IDVAR> bd:ordinal "17"^^xsd:positiveInteger . 
<http://www.assero.co.uk/MDRSdtmM/CDISC/V1#M-CDISC_SDTMMODEL_IDVAR> bd:rule ""^^xsd:string . 
<http://www.assero.co.uk/MDRSdtmM/CDISC/V1#M-CDISC_SDTMMODEL_IDVAR> bd:name "IDVAR"^^xsd:string . 
<http://www.assero.co.uk/MDRSdtmM/CDISC/V1#M-CDISC_SDTMMODEL_IDVAR> bd:prefixed "false"^^xsd:boolean . 
<http://www.assero.co.uk/MDRSdtmM/CDISC/V1#M-CDISC_SDTMMODEL_IDVAR> bd:description "Identifying variable in the parent dataset that identifies the record(s) to which the comment applies. Examples AESEQ or CMGRPID. Used only when individual comments are related to domain records. Null for comments collected on separate CRFs."^^xsd:string . 
<http://www.assero.co.uk/MDRSdtmM/CDISC/V1#M-CDISC_SDTMMODEL_IDVAR> bd:typedAs <http://www.assero.co.uk/MDRSdtmM/CDISC/V1#M-CDISC_SDTMMODEL_DT_CHAR> . 
<http://www.assero.co.uk/MDRSdtmM/CDISC/V1#M-CDISC_SDTMMODEL_IDVAR> bd:classifiedAs <http://www.assero.co.uk/MDRSdtmM/CDISC/V1#M-CDISC_SDTMMODEL_C_QUALIFIER_SC_RECORDQUALIFIER> . 
<http://www.assero.co.uk/MDRSdtmM/CDISC/V1#M-CDISC_SDTMMODEL> bd:includesVariable <http://www.assero.co.uk/MDRSdtmM/CDISC/V1#M-CDISC_SDTMMODEL_IDVAR> . 
<http://www.assero.co.uk/MDRSdtmM/CDISC/V1#M-CDISC_SDTMMODEL_IDVARVAL> rdf:type <http://www.assero.co.uk/BusinessDomain#ModelVariable> . 
<http://www.assero.co.uk/MDRSdtmM/CDISC/V1#M-CDISC_SDTMMODEL_IDVARVAL> rdfs:label "Identifying Variable Value"^^xsd:string . 
<http://www.assero.co.uk/MDRSdtmM/CDISC/V1#M-CDISC_SDTMMODEL_IDVARVAL> bd:ordinal "18"^^xsd:positiveInteger . 
<http://www.assero.co.uk/MDRSdtmM/CDISC/V1#M-CDISC_SDTMMODEL_IDVARVAL> bd:rule ""^^xsd:string . 
<http://www.assero.co.uk/MDRSdtmM/CDISC/V1#M-CDISC_SDTMMODEL_IDVARVAL> bd:name "IDVARVAL"^^xsd:string . 
<http://www.assero.co.uk/MDRSdtmM/CDISC/V1#M-CDISC_SDTMMODEL_IDVARVAL> bd:prefixed "false"^^xsd:boolean . 
<http://www.assero.co.uk/MDRSdtmM/CDISC/V1#M-CDISC_SDTMMODEL_IDVARVAL> bd:description "Value of identifying variable of the parent record(s). Null for comments collected on separate CRFs."^^xsd:string . 
<http://www.assero.co.uk/MDRSdtmM/CDISC/V1#M-CDISC_SDTMMODEL_IDVARVAL> bd:typedAs <http://www.assero.co.uk/MDRSdtmM/CDISC/V1#M-CDISC_SDTMMODEL_DT_CHAR> . 
<http://www.assero.co.uk/MDRSdtmM/CDISC/V1#M-CDISC_SDTMMODEL_IDVARVAL> bd:classifiedAs <http://www.assero.co.uk/MDRSdtmM/CDISC/V1#M-CDISC_SDTMMODEL_C_QUALIFIER_SC_RECORDQUALIFIER> . 
<http://www.assero.co.uk/MDRSdtmM/CDISC/V1#M-CDISC_SDTMMODEL> bd:includesVariable <http://www.assero.co.uk/MDRSdtmM/CDISC/V1#M-CDISC_SDTMMODEL_IDVARVAL> . 
<http://www.assero.co.uk/MDRSdtmM/CDISC/V1#M-CDISC_SDTMMODEL_xxREF> rdf:type <http://www.assero.co.uk/BusinessDomain#ModelVariable> . 
<http://www.assero.co.uk/MDRSdtmM/CDISC/V1#M-CDISC_SDTMMODEL_xxREF> rdfs:label "Comment Reference"^^xsd:string . 
<http://www.assero.co.uk/MDRSdtmM/CDISC/V1#M-CDISC_SDTMMODEL_xxREF> bd:ordinal "19"^^xsd:positiveInteger . 
<http://www.assero.co.uk/MDRSdtmM/CDISC/V1#M-CDISC_SDTMMODEL_xxREF> bd:rule ""^^xsd:string . 
<http://www.assero.co.uk/MDRSdtmM/CDISC/V1#M-CDISC_SDTMMODEL_xxREF> bd:name "--REF"^^xsd:string . 
<http://www.assero.co.uk/MDRSdtmM/CDISC/V1#M-CDISC_SDTMMODEL_xxREF> bd:prefixed "true"^^xsd:boolean . 
<http://www.assero.co.uk/MDRSdtmM/CDISC/V1#M-CDISC_SDTMMODEL_xxREF> bd:description "Sponsor-defined reference associated with the comment. May be the CRF page number (e.g. 650), or a module name (e.g. DEMOG), or a combination of information that identifies the reference (e.g. 650-VITALS-VISIT 2)."^^xsd:string . 
<http://www.assero.co.uk/MDRSdtmM/CDISC/V1#M-CDISC_SDTMMODEL_xxREF> bd:typedAs <http://www.assero.co.uk/MDRSdtmM/CDISC/V1#M-CDISC_SDTMMODEL_DT_CHAR> . 
<http://www.assero.co.uk/MDRSdtmM/CDISC/V1#M-CDISC_SDTMMODEL_xxREF> bd:classifiedAs <http://www.assero.co.uk/MDRSdtmM/CDISC/V1#M-CDISC_SDTMMODEL_C_QUALIFIER_SC_RECORDQUALIFIER> . 
<http://www.assero.co.uk/MDRSdtmM/CDISC/V1#M-CDISC_SDTMMODEL> bd:includesVariable <http://www.assero.co.uk/MDRSdtmM/CDISC/V1#M-CDISC_SDTMMODEL_xxREF> . 
<http://www.assero.co.uk/MDRSdtmM/CDISC/V1#M-CDISC_SDTMMODEL_xxVAL> rdf:type <http://www.assero.co.uk/BusinessDomain#ModelVariable> . 
<http://www.assero.co.uk/MDRSdtmM/CDISC/V1#M-CDISC_SDTMMODEL_xxVAL> rdfs:label "Comment"^^xsd:string . 
<http://www.assero.co.uk/MDRSdtmM/CDISC/V1#M-CDISC_SDTMMODEL_xxVAL> bd:ordinal "20"^^xsd:positiveInteger . 
<http://www.assero.co.uk/MDRSdtmM/CDISC/V1#M-CDISC_SDTMMODEL_xxVAL> bd:rule ""^^xsd:string . 
<http://www.assero.co.uk/MDRSdtmM/CDISC/V1#M-CDISC_SDTMMODEL_xxVAL> bd:name "--VAL"^^xsd:string . 
<http://www.assero.co.uk/MDRSdtmM/CDISC/V1#M-CDISC_SDTMMODEL_xxVAL> bd:prefixed "true"^^xsd:boolean . 
<http://www.assero.co.uk/MDRSdtmM/CDISC/V1#M-CDISC_SDTMMODEL_xxVAL> bd:description "The text of the comment. Text over 200 characters can be added to additional columns COVAL1-COVALn."^^xsd:string . 
<http://www.assero.co.uk/MDRSdtmM/CDISC/V1#M-CDISC_SDTMMODEL_xxVAL> bd:typedAs <http://www.assero.co.uk/MDRSdtmM/CDISC/V1#M-CDISC_SDTMMODEL_DT_CHAR> . 
<http://www.assero.co.uk/MDRSdtmM/CDISC/V1#M-CDISC_SDTMMODEL_xxVAL> bd:classifiedAs <http://www.assero.co.uk/MDRSdtmM/CDISC/V1#M-CDISC_SDTMMODEL_C_TOPIC> . 
<http://www.assero.co.uk/MDRSdtmM/CDISC/V1#M-CDISC_SDTMMODEL> bd:includesVariable <http://www.assero.co.uk/MDRSdtmM/CDISC/V1#M-CDISC_SDTMMODEL_xxVAL> . 
<http://www.assero.co.uk/MDRSdtmM/CDISC/V1#M-CDISC_SDTMMODEL_ETCD> rdf:type <http://www.assero.co.uk/BusinessDomain#ModelVariable> . 
<http://www.assero.co.uk/MDRSdtmM/CDISC/V1#M-CDISC_SDTMMODEL_ETCD> rdfs:label "Subject Element Code"^^xsd:string . 
<http://www.assero.co.uk/MDRSdtmM/CDISC/V1#M-CDISC_SDTMMODEL_ETCD> bd:ordinal "22"^^xsd:positiveInteger . 
<http://www.assero.co.uk/MDRSdtmM/CDISC/V1#M-CDISC_SDTMMODEL_ETCD> bd:rule ""^^xsd:string . 
<http://www.assero.co.uk/MDRSdtmM/CDISC/V1#M-CDISC_SDTMMODEL_ETCD> bd:name "ETCD"^^xsd:string . 
<http://www.assero.co.uk/MDRSdtmM/CDISC/V1#M-CDISC_SDTMMODEL_ETCD> bd:prefixed "false"^^xsd:boolean . 
<http://www.assero.co.uk/MDRSdtmM/CDISC/V1#M-CDISC_SDTMMODEL_ETCD> bd:description "ETCD (the companion to ELEMENT) is limited to 8 characters and does not have special character restrictions. These values should be short for ease of use in programming, but it is not expected that ETCD will need to serve as a variable name."^^xsd:string . 
<http://www.assero.co.uk/MDRSdtmM/CDISC/V1#M-CDISC_SDTMMODEL_ETCD> bd:typedAs <http://www.assero.co.uk/MDRSdtmM/CDISC/V1#M-CDISC_SDTMMODEL_DT_CHAR> . 
<http://www.assero.co.uk/MDRSdtmM/CDISC/V1#M-CDISC_SDTMMODEL_ETCD> bd:classifiedAs <http://www.assero.co.uk/MDRSdtmM/CDISC/V1#M-CDISC_SDTMMODEL_C_TOPIC> . 
<http://www.assero.co.uk/MDRSdtmM/CDISC/V1#M-CDISC_SDTMMODEL> bd:includesVariable <http://www.assero.co.uk/MDRSdtmM/CDISC/V1#M-CDISC_SDTMMODEL_ETCD> . 
<http://www.assero.co.uk/MDRSdtmM/CDISC/V1#M-CDISC_SDTMMODEL_ELEMENT> rdf:type <http://www.assero.co.uk/BusinessDomain#ModelVariable> . 
<http://www.assero.co.uk/MDRSdtmM/CDISC/V1#M-CDISC_SDTMMODEL_ELEMENT> rdfs:label "Description of Subject Element"^^xsd:string . 
<http://www.assero.co.uk/MDRSdtmM/CDISC/V1#M-CDISC_SDTMMODEL_ELEMENT> bd:ordinal "23"^^xsd:positiveInteger . 
<http://www.assero.co.uk/MDRSdtmM/CDISC/V1#M-CDISC_SDTMMODEL_ELEMENT> bd:rule ""^^xsd:string . 
<http://www.assero.co.uk/MDRSdtmM/CDISC/V1#M-CDISC_SDTMMODEL_ELEMENT> bd:name "ELEMENT"^^xsd:string . 
<http://www.assero.co.uk/MDRSdtmM/CDISC/V1#M-CDISC_SDTMMODEL_ELEMENT> bd:prefixed "false"^^xsd:boolean . 
<http://www.assero.co.uk/MDRSdtmM/CDISC/V1#M-CDISC_SDTMMODEL_ELEMENT> bd:description "The name of the Element. If ETCD has a value of “UNPLAN” then ELEMENT should be Null."^^xsd:string . 
<http://www.assero.co.uk/MDRSdtmM/CDISC/V1#M-CDISC_SDTMMODEL_ELEMENT> bd:typedAs <http://www.assero.co.uk/MDRSdtmM/CDISC/V1#M-CDISC_SDTMMODEL_DT_CHAR> . 
<http://www.assero.co.uk/MDRSdtmM/CDISC/V1#M-CDISC_SDTMMODEL_ELEMENT> bd:classifiedAs <http://www.assero.co.uk/MDRSdtmM/CDISC/V1#M-CDISC_SDTMMODEL_C_QUALIFIER_SC_RECORDQUALIFIER> . 
<http://www.assero.co.uk/MDRSdtmM/CDISC/V1#M-CDISC_SDTMMODEL> bd:includesVariable <http://www.assero.co.uk/MDRSdtmM/CDISC/V1#M-CDISC_SDTMMODEL_ELEMENT> . 
<http://www.assero.co.uk/MDRSdtmM/CDISC/V1#M-CDISC_SDTMMODEL_xxUPDES> rdf:type <http://www.assero.co.uk/BusinessDomain#ModelVariable> . 
<http://www.assero.co.uk/MDRSdtmM/CDISC/V1#M-CDISC_SDTMMODEL_xxUPDES> rdfs:label "Description of Unplanned Element"^^xsd:string . 
<http://www.assero.co.uk/MDRSdtmM/CDISC/V1#M-CDISC_SDTMMODEL_xxUPDES> bd:ordinal "24"^^xsd:positiveInteger . 
<http://www.assero.co.uk/MDRSdtmM/CDISC/V1#M-CDISC_SDTMMODEL_xxUPDES> bd:rule ""^^xsd:string . 
<http://www.assero.co.uk/MDRSdtmM/CDISC/V1#M-CDISC_SDTMMODEL_xxUPDES> bd:name "--UPDES"^^xsd:string . 
<http://www.assero.co.uk/MDRSdtmM/CDISC/V1#M-CDISC_SDTMMODEL_xxUPDES> bd:prefixed "true"^^xsd:boolean . 
<http://www.assero.co.uk/MDRSdtmM/CDISC/V1#M-CDISC_SDTMMODEL_xxUPDES> bd:description "Description of what happened to the subject during an unplanned Element. Used only if ETCD has the value of “UNPLAN”."^^xsd:string . 
<http://www.assero.co.uk/MDRSdtmM/CDISC/V1#M-CDISC_SDTMMODEL_xxUPDES> bd:typedAs <http://www.assero.co.uk/MDRSdtmM/CDISC/V1#M-CDISC_SDTMMODEL_DT_CHAR> . 
<http://www.assero.co.uk/MDRSdtmM/CDISC/V1#M-CDISC_SDTMMODEL_xxUPDES> bd:classifiedAs <http://www.assero.co.uk/MDRSdtmM/CDISC/V1#M-CDISC_SDTMMODEL_C_QUALIFIER_SC_RECORDQUALIFIER> . 
<http://www.assero.co.uk/MDRSdtmM/CDISC/V1#M-CDISC_SDTMMODEL> bd:includesVariable <http://www.assero.co.uk/MDRSdtmM/CDISC/V1#M-CDISC_SDTMMODEL_xxUPDES> . 
<http://www.assero.co.uk/MDRSdtmM/CDISC/V1#M-CDISC_SDTMMODEL_QNAM> rdf:type <http://www.assero.co.uk/BusinessDomain#ModelVariable> . 
<http://www.assero.co.uk/MDRSdtmM/CDISC/V1#M-CDISC_SDTMMODEL_QNAM> rdfs:label "Qualifier Variable Name"^^xsd:string . 
<http://www.assero.co.uk/MDRSdtmM/CDISC/V1#M-CDISC_SDTMMODEL_QNAM> bd:ordinal "26"^^xsd:positiveInteger . 
<http://www.assero.co.uk/MDRSdtmM/CDISC/V1#M-CDISC_SDTMMODEL_QNAM> bd:rule ""^^xsd:string . 
<http://www.assero.co.uk/MDRSdtmM/CDISC/V1#M-CDISC_SDTMMODEL_QNAM> bd:name "QNAM"^^xsd:string . 
<http://www.assero.co.uk/MDRSdtmM/CDISC/V1#M-CDISC_SDTMMODEL_QNAM> bd:prefixed "false"^^xsd:boolean . 
<http://www.assero.co.uk/MDRSdtmM/CDISC/V1#M-CDISC_SDTMMODEL_QNAM> bd:description "The short name of the Qualifier variable, which is used as a column name in a domain view with data from the parent domain. The value in QNAM cannot be longer than 8 characters, nor can it start with a number (e.g., “1TEST”). QNAM cannot contain characters other than letters, numbers, or underscores. This will often be the column name in the sponsor’s operational dataset."^^xsd:string . 
<http://www.assero.co.uk/MDRSdtmM/CDISC/V1#M-CDISC_SDTMMODEL_QNAM> bd:typedAs <http://www.assero.co.uk/MDRSdtmM/CDISC/V1#M-CDISC_SDTMMODEL_DT_CHAR> . 
<http://www.assero.co.uk/MDRSdtmM/CDISC/V1#M-CDISC_SDTMMODEL_QNAM> bd:classifiedAs <http://www.assero.co.uk/MDRSdtmM/CDISC/V1#M-CDISC_SDTMMODEL_C_QUALIFIER_SC_RECORDQUALIFIER> . 
<http://www.assero.co.uk/MDRSdtmM/CDISC/V1#M-CDISC_SDTMMODEL> bd:includesVariable <http://www.assero.co.uk/MDRSdtmM/CDISC/V1#M-CDISC_SDTMMODEL_QNAM> . 
<http://www.assero.co.uk/MDRSdtmM/CDISC/V1#M-CDISC_SDTMMODEL_QLABEL> rdf:type <http://www.assero.co.uk/BusinessDomain#ModelVariable> . 
<http://www.assero.co.uk/MDRSdtmM/CDISC/V1#M-CDISC_SDTMMODEL_QLABEL> rdfs:label "Qualifier Variable Label"^^xsd:string . 
<http://www.assero.co.uk/MDRSdtmM/CDISC/V1#M-CDISC_SDTMMODEL_QLABEL> bd:ordinal "27"^^xsd:positiveInteger . 
<http://www.assero.co.uk/MDRSdtmM/CDISC/V1#M-CDISC_SDTMMODEL_QLABEL> bd:rule ""^^xsd:string . 
<http://www.assero.co.uk/MDRSdtmM/CDISC/V1#M-CDISC_SDTMMODEL_QLABEL> bd:name "QLABEL"^^xsd:string . 
<http://www.assero.co.uk/MDRSdtmM/CDISC/V1#M-CDISC_SDTMMODEL_QLABEL> bd:prefixed "false"^^xsd:boolean . 
<http://www.assero.co.uk/MDRSdtmM/CDISC/V1#M-CDISC_SDTMMODEL_QLABEL> bd:description "This is the long name or label associated with QNAM. The value in QLABEL cannot be longer than 40 characters. This will often be the column label in the sponsor’s original dataset."^^xsd:string . 
<http://www.assero.co.uk/MDRSdtmM/CDISC/V1#M-CDISC_SDTMMODEL_QLABEL> bd:typedAs <http://www.assero.co.uk/MDRSdtmM/CDISC/V1#M-CDISC_SDTMMODEL_DT_CHAR> . 
<http://www.assero.co.uk/MDRSdtmM/CDISC/V1#M-CDISC_SDTMMODEL_QLABEL> bd:classifiedAs <http://www.assero.co.uk/MDRSdtmM/CDISC/V1#M-CDISC_SDTMMODEL_C_QUALIFIER_SC_RECORDQUALIFIER> . 
<http://www.assero.co.uk/MDRSdtmM/CDISC/V1#M-CDISC_SDTMMODEL> bd:includesVariable <http://www.assero.co.uk/MDRSdtmM/CDISC/V1#M-CDISC_SDTMMODEL_QLABEL> . 
<http://www.assero.co.uk/MDRSdtmM/CDISC/V1#M-CDISC_SDTMMODEL_QVAL> rdf:type <http://www.assero.co.uk/BusinessDomain#ModelVariable> . 
<http://www.assero.co.uk/MDRSdtmM/CDISC/V1#M-CDISC_SDTMMODEL_QVAL> rdfs:label "Data Value"^^xsd:string . 
<http://www.assero.co.uk/MDRSdtmM/CDISC/V1#M-CDISC_SDTMMODEL_QVAL> bd:ordinal "28"^^xsd:positiveInteger . 
<http://www.assero.co.uk/MDRSdtmM/CDISC/V1#M-CDISC_SDTMMODEL_QVAL> bd:rule ""^^xsd:string . 
<http://www.assero.co.uk/MDRSdtmM/CDISC/V1#M-CDISC_SDTMMODEL_QVAL> bd:name "QVAL"^^xsd:string . 
<http://www.assero.co.uk/MDRSdtmM/CDISC/V1#M-CDISC_SDTMMODEL_QVAL> bd:prefixed "false"^^xsd:boolean . 
<http://www.assero.co.uk/MDRSdtmM/CDISC/V1#M-CDISC_SDTMMODEL_QVAL> bd:description "Result of, response to, or value associated with QNAM. A value for this column is required; no records can be in SUPP-- with a null value for QVAL"^^xsd:string . 
<http://www.assero.co.uk/MDRSdtmM/CDISC/V1#M-CDISC_SDTMMODEL_QVAL> bd:typedAs <http://www.assero.co.uk/MDRSdtmM/CDISC/V1#M-CDISC_SDTMMODEL_DT_CHAR> . 
<http://www.assero.co.uk/MDRSdtmM/CDISC/V1#M-CDISC_SDTMMODEL_QVAL> bd:classifiedAs <http://www.assero.co.uk/MDRSdtmM/CDISC/V1#M-CDISC_SDTMMODEL_C_QUALIFIER_SC_RECORDQUALIFIER> . 
<http://www.assero.co.uk/MDRSdtmM/CDISC/V1#M-CDISC_SDTMMODEL> bd:includesVariable <http://www.assero.co.uk/MDRSdtmM/CDISC/V1#M-CDISC_SDTMMODEL_QVAL> . 
<http://www.assero.co.uk/MDRSdtmM/CDISC/V1#M-CDISC_SDTMMODEL_QORIG> rdf:type <http://www.assero.co.uk/BusinessDomain#ModelVariable> . 
<http://www.assero.co.uk/MDRSdtmM/CDISC/V1#M-CDISC_SDTMMODEL_QORIG> rdfs:label "Origin"^^xsd:string . 
<http://www.assero.co.uk/MDRSdtmM/CDISC/V1#M-CDISC_SDTMMODEL_QORIG> bd:ordinal "29"^^xsd:positiveInteger . 
<http://www.assero.co.uk/MDRSdtmM/CDISC/V1#M-CDISC_SDTMMODEL_QORIG> bd:rule ""^^xsd:string . 
<http://www.assero.co.uk/MDRSdtmM/CDISC/V1#M-CDISC_SDTMMODEL_QORIG> bd:name "QORIG"^^xsd:string . 
<http://www.assero.co.uk/MDRSdtmM/CDISC/V1#M-CDISC_SDTMMODEL_QORIG> bd:prefixed "false"^^xsd:boolean . 
<http://www.assero.co.uk/MDRSdtmM/CDISC/V1#M-CDISC_SDTMMODEL_QORIG> bd:description "Since QVAL can represent a mixture of collected (on a CRF), derived, or assigned items, QORIG is used to indicate the origin of this data. Examples include CRF, ASSIGNED, or DERIVED."^^xsd:string . 
<http://www.assero.co.uk/MDRSdtmM/CDISC/V1#M-CDISC_SDTMMODEL_QORIG> bd:typedAs <http://www.assero.co.uk/MDRSdtmM/CDISC/V1#M-CDISC_SDTMMODEL_DT_CHAR> . 
<http://www.assero.co.uk/MDRSdtmM/CDISC/V1#M-CDISC_SDTMMODEL_QORIG> bd:classifiedAs <http://www.assero.co.uk/MDRSdtmM/CDISC/V1#M-CDISC_SDTMMODEL_C_QUALIFIER_SC_RECORDQUALIFIER> . 
<http://www.assero.co.uk/MDRSdtmM/CDISC/V1#M-CDISC_SDTMMODEL> bd:includesVariable <http://www.assero.co.uk/MDRSdtmM/CDISC/V1#M-CDISC_SDTMMODEL_QORIG> . 
<http://www.assero.co.uk/MDRSdtmM/CDISC/V1#M-CDISC_SDTMMODEL_QEVAL> rdf:type <http://www.assero.co.uk/BusinessDomain#ModelVariable> . 
<http://www.assero.co.uk/MDRSdtmM/CDISC/V1#M-CDISC_SDTMMODEL_QEVAL> rdfs:label "Evaluator"^^xsd:string . 
<http://www.assero.co.uk/MDRSdtmM/CDISC/V1#M-CDISC_SDTMMODEL_QEVAL> bd:ordinal "30"^^xsd:positiveInteger . 
<http://www.assero.co.uk/MDRSdtmM/CDISC/V1#M-CDISC_SDTMMODEL_QEVAL> bd:rule ""^^xsd:string . 
<http://www.assero.co.uk/MDRSdtmM/CDISC/V1#M-CDISC_SDTMMODEL_QEVAL> bd:name "QEVAL"^^xsd:string . 
<http://www.assero.co.uk/MDRSdtmM/CDISC/V1#M-CDISC_SDTMMODEL_QEVAL> bd:prefixed "false"^^xsd:boolean . 
<http://www.assero.co.uk/MDRSdtmM/CDISC/V1#M-CDISC_SDTMMODEL_QEVAL> bd:description "Used only for results that are subjective (e.g., assigned by a person or a group). Should be null for records that contain objectively collected or derived data. Some examples include ADJUDICATION COMMITTEE, STATISTICIAN, DATABASE ADMINISTRATOR, CLINICAL COORDINATOR, etc."^^xsd:string . 
<http://www.assero.co.uk/MDRSdtmM/CDISC/V1#M-CDISC_SDTMMODEL_QEVAL> bd:typedAs <http://www.assero.co.uk/MDRSdtmM/CDISC/V1#M-CDISC_SDTMMODEL_DT_CHAR> . 
<http://www.assero.co.uk/MDRSdtmM/CDISC/V1#M-CDISC_SDTMMODEL_QEVAL> bd:classifiedAs <http://www.assero.co.uk/MDRSdtmM/CDISC/V1#M-CDISC_SDTMMODEL_C_QUALIFIER_SC_RECORDQUALIFIER> . 
<http://www.assero.co.uk/MDRSdtmM/CDISC/V1#M-CDISC_SDTMMODEL> bd:includesVariable <http://www.assero.co.uk/MDRSdtmM/CDISC/V1#M-CDISC_SDTMMODEL_QEVAL> . 
<http://www.assero.co.uk/MDRSdtmM/CDISC/V1#M-CDISC_SDTMMODEL_xxSTRL> rdf:type <http://www.assero.co.uk/BusinessDomain#ModelVariable> . 
<http://www.assero.co.uk/MDRSdtmM/CDISC/V1#M-CDISC_SDTMMODEL_xxSTRL> rdfs:label "Rule for Start of Element"^^xsd:string . 
<http://www.assero.co.uk/MDRSdtmM/CDISC/V1#M-CDISC_SDTMMODEL_xxSTRL> bd:ordinal "3"^^xsd:positiveInteger . 
<http://www.assero.co.uk/MDRSdtmM/CDISC/V1#M-CDISC_SDTMMODEL_xxSTRL> bd:rule ""^^xsd:string . 
<http://www.assero.co.uk/MDRSdtmM/CDISC/V1#M-CDISC_SDTMMODEL_xxSTRL> bd:name "--STRL"^^xsd:string . 
<http://www.assero.co.uk/MDRSdtmM/CDISC/V1#M-CDISC_SDTMMODEL_xxSTRL> bd:prefixed "true"^^xsd:boolean . 
<http://www.assero.co.uk/MDRSdtmM/CDISC/V1#M-CDISC_SDTMMODEL_xxSTRL> bd:description "Expresses rule for beginning the Element."^^xsd:string . 
<http://www.assero.co.uk/MDRSdtmM/CDISC/V1#M-CDISC_SDTMMODEL_xxSTRL> bd:typedAs <http://www.assero.co.uk/MDRSdtmM/CDISC/V1#M-CDISC_SDTMMODEL_DT_CHAR> . 
<http://www.assero.co.uk/MDRSdtmM/CDISC/V1#M-CDISC_SDTMMODEL_xxSTRL> bd:classifiedAs <http://www.assero.co.uk/MDRSdtmM/CDISC/V1#M-CDISC_SDTMMODEL_C_RULE> . 
<http://www.assero.co.uk/MDRSdtmM/CDISC/V1#M-CDISC_SDTMMODEL> bd:includesVariable <http://www.assero.co.uk/MDRSdtmM/CDISC/V1#M-CDISC_SDTMMODEL_xxSTRL> . 
<http://www.assero.co.uk/MDRSdtmM/CDISC/V1#M-CDISC_SDTMMODEL_xxENRL> rdf:type <http://www.assero.co.uk/BusinessDomain#ModelVariable> . 
<http://www.assero.co.uk/MDRSdtmM/CDISC/V1#M-CDISC_SDTMMODEL_xxENRL> rdfs:label "Rule for End of Element"^^xsd:string . 
<http://www.assero.co.uk/MDRSdtmM/CDISC/V1#M-CDISC_SDTMMODEL_xxENRL> bd:ordinal "4"^^xsd:positiveInteger . 
<http://www.assero.co.uk/MDRSdtmM/CDISC/V1#M-CDISC_SDTMMODEL_xxENRL> bd:rule ""^^xsd:string . 
<http://www.assero.co.uk/MDRSdtmM/CDISC/V1#M-CDISC_SDTMMODEL_xxENRL> bd:name "--ENRL"^^xsd:string . 
<http://www.assero.co.uk/MDRSdtmM/CDISC/V1#M-CDISC_SDTMMODEL_xxENRL> bd:prefixed "true"^^xsd:boolean . 
<http://www.assero.co.uk/MDRSdtmM/CDISC/V1#M-CDISC_SDTMMODEL_xxENRL> bd:description "Expresses rule for ending the Element. Either TEENRL or TEDUR must be present for each Element."^^xsd:string . 
<http://www.assero.co.uk/MDRSdtmM/CDISC/V1#M-CDISC_SDTMMODEL_xxENRL> bd:typedAs <http://www.assero.co.uk/MDRSdtmM/CDISC/V1#M-CDISC_SDTMMODEL_DT_CHAR> . 
<http://www.assero.co.uk/MDRSdtmM/CDISC/V1#M-CDISC_SDTMMODEL_xxENRL> bd:classifiedAs <http://www.assero.co.uk/MDRSdtmM/CDISC/V1#M-CDISC_SDTMMODEL_C_RULE> . 
<http://www.assero.co.uk/MDRSdtmM/CDISC/V1#M-CDISC_SDTMMODEL> bd:includesVariable <http://www.assero.co.uk/MDRSdtmM/CDISC/V1#M-CDISC_SDTMMODEL_xxENRL> . 
<http://www.assero.co.uk/MDRSdtmM/CDISC/V1#M-CDISC_SDTMMODEL_xxBRANCH> rdf:type <http://www.assero.co.uk/BusinessDomain#ModelVariable> . 
<http://www.assero.co.uk/MDRSdtmM/CDISC/V1#M-CDISC_SDTMMODEL_xxBRANCH> rdfs:label "Branch"^^xsd:string . 
<http://www.assero.co.uk/MDRSdtmM/CDISC/V1#M-CDISC_SDTMMODEL_xxBRANCH> bd:ordinal "7"^^xsd:positiveInteger . 
<http://www.assero.co.uk/MDRSdtmM/CDISC/V1#M-CDISC_SDTMMODEL_xxBRANCH> bd:rule ""^^xsd:string . 
<http://www.assero.co.uk/MDRSdtmM/CDISC/V1#M-CDISC_SDTMMODEL_xxBRANCH> bd:name "--BRANCH"^^xsd:string . 
<http://www.assero.co.uk/MDRSdtmM/CDISC/V1#M-CDISC_SDTMMODEL_xxBRANCH> bd:prefixed "true"^^xsd:boolean . 
<http://www.assero.co.uk/MDRSdtmM/CDISC/V1#M-CDISC_SDTMMODEL_xxBRANCH> bd:description "Condition subjects meet, at a “branch” in the Trial Design at the end of this Element, to be included in this Arm. Example: Randomization to DRUG X."^^xsd:string . 
<http://www.assero.co.uk/MDRSdtmM/CDISC/V1#M-CDISC_SDTMMODEL_xxBRANCH> bd:typedAs <http://www.assero.co.uk/MDRSdtmM/CDISC/V1#M-CDISC_SDTMMODEL_DT_CHAR> . 
<http://www.assero.co.uk/MDRSdtmM/CDISC/V1#M-CDISC_SDTMMODEL_xxBRANCH> bd:classifiedAs <http://www.assero.co.uk/MDRSdtmM/CDISC/V1#M-CDISC_SDTMMODEL_C_RULE> . 
<http://www.assero.co.uk/MDRSdtmM/CDISC/V1#M-CDISC_SDTMMODEL> bd:includesVariable <http://www.assero.co.uk/MDRSdtmM/CDISC/V1#M-CDISC_SDTMMODEL_xxBRANCH> . 
<http://www.assero.co.uk/MDRSdtmM/CDISC/V1#M-CDISC_SDTMMODEL_xxTRANS> rdf:type <http://www.assero.co.uk/BusinessDomain#ModelVariable> . 
<http://www.assero.co.uk/MDRSdtmM/CDISC/V1#M-CDISC_SDTMMODEL_xxTRANS> rdfs:label "Transition Rule"^^xsd:string . 
<http://www.assero.co.uk/MDRSdtmM/CDISC/V1#M-CDISC_SDTMMODEL_xxTRANS> bd:ordinal "8"^^xsd:positiveInteger . 
<http://www.assero.co.uk/MDRSdtmM/CDISC/V1#M-CDISC_SDTMMODEL_xxTRANS> bd:rule ""^^xsd:string . 
<http://www.assero.co.uk/MDRSdtmM/CDISC/V1#M-CDISC_SDTMMODEL_xxTRANS> bd:name "--TRANS"^^xsd:string . 
<http://www.assero.co.uk/MDRSdtmM/CDISC/V1#M-CDISC_SDTMMODEL_xxTRANS> bd:prefixed "true"^^xsd:boolean . 
<http://www.assero.co.uk/MDRSdtmM/CDISC/V1#M-CDISC_SDTMMODEL_xxTRANS> bd:description "If the trial design allows a subject to transition to an Element other than the next Element in sequence, then the conditions for transitioning to those other Elements, and the alternative Element sequences, are specified in this rule (e.g., Responders go to washout)."^^xsd:string . 
<http://www.assero.co.uk/MDRSdtmM/CDISC/V1#M-CDISC_SDTMMODEL_xxTRANS> bd:typedAs <http://www.assero.co.uk/MDRSdtmM/CDISC/V1#M-CDISC_SDTMMODEL_DT_CHAR> . 
<http://www.assero.co.uk/MDRSdtmM/CDISC/V1#M-CDISC_SDTMMODEL_xxTRANS> bd:classifiedAs <http://www.assero.co.uk/MDRSdtmM/CDISC/V1#M-CDISC_SDTMMODEL_C_RULE> . 
<http://www.assero.co.uk/MDRSdtmM/CDISC/V1#M-CDISC_SDTMMODEL> bd:includesVariable <http://www.assero.co.uk/MDRSdtmM/CDISC/V1#M-CDISC_SDTMMODEL_xxTRANS> . 
<http://www.assero.co.uk/MDRSdtmM/CDISC/V1#M-CDISC_SDTMMODEL_IETESTCD> rdf:type <http://www.assero.co.uk/BusinessDomain#ModelVariable> . 
<http://www.assero.co.uk/MDRSdtmM/CDISC/V1#M-CDISC_SDTMMODEL_IETESTCD> rdfs:label "Inclusion/Exclusion Criterion Short Name"^^xsd:string . 
<http://www.assero.co.uk/MDRSdtmM/CDISC/V1#M-CDISC_SDTMMODEL_IETESTCD> bd:ordinal "11"^^xsd:positiveInteger . 
<http://www.assero.co.uk/MDRSdtmM/CDISC/V1#M-CDISC_SDTMMODEL_IETESTCD> bd:rule ""^^xsd:string . 
<http://www.assero.co.uk/MDRSdtmM/CDISC/V1#M-CDISC_SDTMMODEL_IETESTCD> bd:name "IETESTCD"^^xsd:string . 
<http://www.assero.co.uk/MDRSdtmM/CDISC/V1#M-CDISC_SDTMMODEL_IETESTCD> bd:prefixed "false"^^xsd:boolean . 
