---
- :uri: http://www.cdisc.org/SDTM_MODEL_AC/V7#CL_ACGRPID
  :name: ACGRPID
  :classified_as: Identifier
- :uri: http://www.cdisc.org/SDTM_MODEL_AC/V7#CL_ACPARM
  :name: ACPARM
  :classified_as: Synonym
- :uri: http://www.cdisc.org/SDTM_MODEL_AC/V7#CL_ACPARMCD
  :name: ACPARMCD
  :classified_as: Topic
- :uri: http://www.cdisc.org/SDTM_MODEL_AC/V7#CL_ACSEQ
  :name: ACSEQ
  :classified_as: Identifier
- :uri: http://www.cdisc.org/SDTM_MODEL_AC/V7#CL_ACVAL
  :name: ACVAL
  :classified_as: Result
- :uri: http://www.cdisc.org/SDTM_MODEL_AC/V7#CL_ACVALCD
  :name: ACVALCD
  :classified_as: Result
- :uri: http://www.cdisc.org/SDTM_MODEL_AC/V7#CL_ACVALNF
  :name: ACVALNF
  :classified_as: Result
- :uri: http://www.cdisc.org/SDTM_MODEL_AC/V7#CL_ACVALU
  :name: ACVALU
  :classified_as: Variable
- :uri: http://www.cdisc.org/SDTM_MODEL_AC/V7#CL_ACVCDREF
  :name: ACVCDREF
  :classified_as: Result
- :uri: http://www.cdisc.org/SDTM_MODEL_AC/V7#CL_ACVCDVER
  :name: ACVCDVER
  :classified_as: Result
- :uri: http://www.cdisc.org/SDTM_MODEL_AC/V7#CL_DOMAIN
  :name: DOMAIN
  :classified_as: Identifier
- :uri: http://www.cdisc.org/SDTM_MODEL_AC/V7#CL_STUDYID
  :name: STUDYID
  :classified_as: Identifier
- :uri: http://www.cdisc.org/SDTM_MODEL_ALL/V1#CL_--DTC
  :name: "--DTC"
  :classified_as: Timing
- :uri: http://www.cdisc.org/SDTM_MODEL_ALL/V1#CL_--DUR
  :name: "--DUR"
  :classified_as: Timing
- :uri: http://www.cdisc.org/SDTM_MODEL_ALL/V1#CL_--DY
  :name: "--DY"
  :classified_as: Timing
- :uri: http://www.cdisc.org/SDTM_MODEL_ALL/V1#CL_--ELTM
  :name: "--ELTM"
  :classified_as: Timing
- :uri: http://www.cdisc.org/SDTM_MODEL_ALL/V1#CL_--ENDTC
  :name: "--ENDTC"
  :classified_as: Timing
- :uri: http://www.cdisc.org/SDTM_MODEL_ALL/V1#CL_--ENDY
  :name: "--ENDY"
  :classified_as: Timing
- :uri: http://www.cdisc.org/SDTM_MODEL_ALL/V1#CL_--ENRF
  :name: "--ENRF"
  :classified_as: Timing
- :uri: http://www.cdisc.org/SDTM_MODEL_ALL/V1#CL_--ENRTPT
  :name: "--ENRTPT"
  :classified_as: Timing
- :uri: http://www.cdisc.org/SDTM_MODEL_ALL/V1#CL_--ENTPT
  :name: "--ENTPT"
  :classified_as: Timing
- :uri: http://www.cdisc.org/SDTM_MODEL_ALL/V1#CL_--EVLINT
  :name: "--EVLINT"
  :classified_as: Timing
- :uri: http://www.cdisc.org/SDTM_MODEL_ALL/V1#CL_--GRPID
  :name: "--GRPID"
  :classified_as: Identifier
- :uri: http://www.cdisc.org/SDTM_MODEL_ALL/V1#CL_--REFID
  :name: "--REFID"
  :classified_as: Identifier
- :uri: http://www.cdisc.org/SDTM_MODEL_ALL/V1#CL_--RFTDTC
  :name: "--RFTDTC"
  :classified_as: Timing
- :uri: http://www.cdisc.org/SDTM_MODEL_ALL/V1#CL_--SEQ
  :name: "--SEQ"
  :classified_as: Identifier
- :uri: http://www.cdisc.org/SDTM_MODEL_ALL/V1#CL_--SPID
  :name: "--SPID"
  :classified_as: Identifier
- :uri: http://www.cdisc.org/SDTM_MODEL_ALL/V1#CL_--STDTC
  :name: "--STDTC"
  :classified_as: Timing
- :uri: http://www.cdisc.org/SDTM_MODEL_ALL/V1#CL_--STDY
  :name: "--STDY"
  :classified_as: Timing
- :uri: http://www.cdisc.org/SDTM_MODEL_ALL/V1#CL_--STRF
  :name: "--STRF"
  :classified_as: Timing
- :uri: http://www.cdisc.org/SDTM_MODEL_ALL/V1#CL_--STRTPT
  :name: "--STRTPT"
  :classified_as: Timing
- :uri: http://www.cdisc.org/SDTM_MODEL_ALL/V1#CL_--STTPT
  :name: "--STTPT"
  :classified_as: Timing
- :uri: http://www.cdisc.org/SDTM_MODEL_ALL/V1#CL_--TPT
  :name: "--TPT"
  :classified_as: Timing
- :uri: http://www.cdisc.org/SDTM_MODEL_ALL/V1#CL_--TPTNUM
  :name: "--TPTNUM"
  :classified_as: Timing
- :uri: http://www.cdisc.org/SDTM_MODEL_ALL/V1#CL_--TPTREF
  :name: "--TPTREF"
  :classified_as: Timing
- :uri: http://www.cdisc.org/SDTM_MODEL_ALL/V1#CL_DOMAIN
  :name: DOMAIN
  :classified_as: Identifier
- :uri: http://www.cdisc.org/SDTM_MODEL_ALL/V1#CL_EPOCH
  :name: EPOCH
  :classified_as: Timing
- :uri: http://www.cdisc.org/SDTM_MODEL_ALL/V1#CL_STUDYID
  :name: STUDYID
  :classified_as: Identifier
- :uri: http://www.cdisc.org/SDTM_MODEL_ALL/V1#CL_TAETORD
  :name: TAETORD
  :classified_as: Timing
- :uri: http://www.cdisc.org/SDTM_MODEL_ALL/V1#CL_USUBJID
  :name: USUBJID
  :classified_as: Identifier
- :uri: http://www.cdisc.org/SDTM_MODEL_ALL/V1#CL_VISIT
  :name: VISIT
  :classified_as: Timing
- :uri: http://www.cdisc.org/SDTM_MODEL_ALL/V1#CL_VISITDY
  :name: VISITDY
  :classified_as: Timing
- :uri: http://www.cdisc.org/SDTM_MODEL_ALL/V1#CL_VISITNUM
  :name: VISITNUM
  :classified_as: Timing
- :uri: http://www.cdisc.org/SDTM_MODEL_ALL/V2#CL_--DETECT
  :name: "--DETECT"
  :classified_as: Timing
- :uri: http://www.cdisc.org/SDTM_MODEL_ALL/V2#CL_--DTC
  :name: "--DTC"
  :classified_as: Timing
- :uri: http://www.cdisc.org/SDTM_MODEL_ALL/V2#CL_--DUR
  :name: "--DUR"
  :classified_as: Timing
- :uri: http://www.cdisc.org/SDTM_MODEL_ALL/V2#CL_--DY
  :name: "--DY"
  :classified_as: Timing
- :uri: http://www.cdisc.org/SDTM_MODEL_ALL/V2#CL_--ELTM
  :name: "--ELTM"
  :classified_as: Timing
- :uri: http://www.cdisc.org/SDTM_MODEL_ALL/V2#CL_--ENDTC
  :name: "--ENDTC"
  :classified_as: Timing
- :uri: http://www.cdisc.org/SDTM_MODEL_ALL/V2#CL_--ENDY
  :name: "--ENDY"
  :classified_as: Timing
- :uri: http://www.cdisc.org/SDTM_MODEL_ALL/V2#CL_--ENRF
  :name: "--ENRF"
  :classified_as: Timing
- :uri: http://www.cdisc.org/SDTM_MODEL_ALL/V2#CL_--ENRTPT
  :name: "--ENRTPT"
  :classified_as: Timing
- :uri: http://www.cdisc.org/SDTM_MODEL_ALL/V2#CL_--ENTPT
  :name: "--ENTPT"
  :classified_as: Timing
- :uri: http://www.cdisc.org/SDTM_MODEL_ALL/V2#CL_--EVLINT
  :name: "--EVLINT"
  :classified_as: Timing
- :uri: http://www.cdisc.org/SDTM_MODEL_ALL/V2#CL_--GRPID
  :name: "--GRPID"
  :classified_as: Identifier
- :uri: http://www.cdisc.org/SDTM_MODEL_ALL/V2#CL_--LNKGRP
  :name: "--LNKGRP"
  :classified_as: Identifier
- :uri: http://www.cdisc.org/SDTM_MODEL_ALL/V2#CL_--LNKID
  :name: "--LNKID"
  :classified_as: Identifier
- :uri: http://www.cdisc.org/SDTM_MODEL_ALL/V2#CL_--REFID
  :name: "--REFID"
  :classified_as: Identifier
- :uri: http://www.cdisc.org/SDTM_MODEL_ALL/V2#CL_--RFTDTC
  :name: "--RFTDTC"
  :classified_as: Timing
- :uri: http://www.cdisc.org/SDTM_MODEL_ALL/V2#CL_--SEQ
  :name: "--SEQ"
  :classified_as: Identifier
- :uri: http://www.cdisc.org/SDTM_MODEL_ALL/V2#CL_--SPID
  :name: "--SPID"
  :classified_as: Identifier
- :uri: http://www.cdisc.org/SDTM_MODEL_ALL/V2#CL_--STDTC
  :name: "--STDTC"
  :classified_as: Timing
- :uri: http://www.cdisc.org/SDTM_MODEL_ALL/V2#CL_--STDY
  :name: "--STDY"
  :classified_as: Timing
- :uri: http://www.cdisc.org/SDTM_MODEL_ALL/V2#CL_--STRF
  :name: "--STRF"
  :classified_as: Timing
- :uri: http://www.cdisc.org/SDTM_MODEL_ALL/V2#CL_--STRTPT
  :name: "--STRTPT"
  :classified_as: Timing
- :uri: http://www.cdisc.org/SDTM_MODEL_ALL/V2#CL_--STTPT
  :name: "--STTPT"
  :classified_as: Timing
- :uri: http://www.cdisc.org/SDTM_MODEL_ALL/V2#CL_--TPT
  :name: "--TPT"
  :classified_as: Timing
- :uri: http://www.cdisc.org/SDTM_MODEL_ALL/V2#CL_--TPTNUM
  :name: "--TPTNUM"
  :classified_as: Timing
- :uri: http://www.cdisc.org/SDTM_MODEL_ALL/V2#CL_--TPTREF
  :name: "--TPTREF"
  :classified_as: Timing
- :uri: http://www.cdisc.org/SDTM_MODEL_ALL/V2#CL_DOMAIN
  :name: DOMAIN
  :classified_as: Identifier
- :uri: http://www.cdisc.org/SDTM_MODEL_ALL/V2#CL_EPOCH
  :name: EPOCH
  :classified_as: Timing
- :uri: http://www.cdisc.org/SDTM_MODEL_ALL/V2#CL_POOLID
  :name: POOLID
  :classified_as: Identifier
- :uri: http://www.cdisc.org/SDTM_MODEL_ALL/V2#CL_TAETORD
  :name: TAETORD
  :classified_as: Timing
- :uri: http://www.cdisc.org/SDTM_MODEL_ALL/V2#CL_VISIT
  :name: VISIT
  :classified_as: Timing
- :uri: http://www.cdisc.org/SDTM_MODEL_ALL/V2#CL_VISITDY
  :name: VISITDY
  :classified_as: Timing
- :uri: http://www.cdisc.org/SDTM_MODEL_ALL/V2#CL_VISITNUM
  :name: VISITNUM
  :classified_as: Timing
- :uri: http://www.cdisc.org/SDTM_MODEL_ALL/V3#CL_--DETECT
  :name: "--DETECT"
  :classified_as: Timing
- :uri: http://www.cdisc.org/SDTM_MODEL_ALL/V3#CL_--DTC
  :name: "--DTC"
  :classified_as: Timing
- :uri: http://www.cdisc.org/SDTM_MODEL_ALL/V3#CL_--DUR
  :name: "--DUR"
  :classified_as: Timing
- :uri: http://www.cdisc.org/SDTM_MODEL_ALL/V3#CL_--DY
  :name: "--DY"
  :classified_as: Timing
- :uri: http://www.cdisc.org/SDTM_MODEL_ALL/V3#CL_--ELTM
  :name: "--ELTM"
  :classified_as: Timing
- :uri: http://www.cdisc.org/SDTM_MODEL_ALL/V3#CL_--ENDTC
  :name: "--ENDTC"
  :classified_as: Timing
- :uri: http://www.cdisc.org/SDTM_MODEL_ALL/V3#CL_--ENDY
  :name: "--ENDY"
  :classified_as: Timing
- :uri: http://www.cdisc.org/SDTM_MODEL_ALL/V3#CL_--ENINT
  :name: "--ENINT"
  :classified_as: Timing
- :uri: http://www.cdisc.org/SDTM_MODEL_ALL/V3#CL_--ENRF
  :name: "--ENRF"
  :classified_as: Timing
- :uri: http://www.cdisc.org/SDTM_MODEL_ALL/V3#CL_--ENRTPT
  :name: "--ENRTPT"
  :classified_as: Timing
- :uri: http://www.cdisc.org/SDTM_MODEL_ALL/V3#CL_--ENTPT
  :name: "--ENTPT"
  :classified_as: Timing
- :uri: http://www.cdisc.org/SDTM_MODEL_ALL/V3#CL_--EVINTX
  :name: "--EVINTX"
  :classified_as: Timing
- :uri: http://www.cdisc.org/SDTM_MODEL_ALL/V3#CL_--EVLINT
  :name: "--EVLINT"
  :classified_as: Timing
- :uri: http://www.cdisc.org/SDTM_MODEL_ALL/V3#CL_--GRPID
  :name: "--GRPID"
  :classified_as: Identifier
- :uri: http://www.cdisc.org/SDTM_MODEL_ALL/V3#CL_--LNKGRP
  :name: "--LNKGRP"
  :classified_as: Identifier
- :uri: http://www.cdisc.org/SDTM_MODEL_ALL/V3#CL_--LNKID
  :name: "--LNKID"
  :classified_as: Identifier
- :uri: http://www.cdisc.org/SDTM_MODEL_ALL/V3#CL_--REFID
  :name: "--REFID"
  :classified_as: Identifier
- :uri: http://www.cdisc.org/SDTM_MODEL_ALL/V3#CL_--RFTDTC
  :name: "--RFTDTC"
  :classified_as: Timing
- :uri: http://www.cdisc.org/SDTM_MODEL_ALL/V3#CL_--SEQ
  :name: "--SEQ"
  :classified_as: Identifier
- :uri: http://www.cdisc.org/SDTM_MODEL_ALL/V3#CL_--SPID
  :name: "--SPID"
  :classified_as: Identifier
- :uri: http://www.cdisc.org/SDTM_MODEL_ALL/V3#CL_--STDTC
  :name: "--STDTC"
  :classified_as: Timing
- :uri: http://www.cdisc.org/SDTM_MODEL_ALL/V3#CL_--STDY
  :name: "--STDY"
  :classified_as: Timing
- :uri: http://www.cdisc.org/SDTM_MODEL_ALL/V3#CL_--STINT
  :name: "--STINT"
  :classified_as: Timing
- :uri: http://www.cdisc.org/SDTM_MODEL_ALL/V3#CL_--STRF
  :name: "--STRF"
  :classified_as: Timing
- :uri: http://www.cdisc.org/SDTM_MODEL_ALL/V3#CL_--STRTPT
  :name: "--STRTPT"
  :classified_as: Timing
- :uri: http://www.cdisc.org/SDTM_MODEL_ALL/V3#CL_--STTPT
  :name: "--STTPT"
  :classified_as: Timing
- :uri: http://www.cdisc.org/SDTM_MODEL_ALL/V3#CL_--TPT
  :name: "--TPT"
  :classified_as: Timing
- :uri: http://www.cdisc.org/SDTM_MODEL_ALL/V3#CL_--TPTNUM
  :name: "--TPTNUM"
  :classified_as: Timing
- :uri: http://www.cdisc.org/SDTM_MODEL_ALL/V3#CL_--TPTREF
  :name: "--TPTREF"
  :classified_as: Timing
- :uri: http://www.cdisc.org/SDTM_MODEL_ALL/V3#CL_EPOCH
  :name: EPOCH
  :classified_as: Timing
- :uri: http://www.cdisc.org/SDTM_MODEL_ALL/V3#CL_SPDEVID
  :name: SPDEVID
  :classified_as: Identifier
- :uri: http://www.cdisc.org/SDTM_MODEL_ALL/V3#CL_TAETORD
  :name: TAETORD
  :classified_as: Timing
- :uri: http://www.cdisc.org/SDTM_MODEL_ALL/V3#CL_VISIT
  :name: VISIT
  :classified_as: Timing
- :uri: http://www.cdisc.org/SDTM_MODEL_ALL/V3#CL_VISITDY
  :name: VISITDY
  :classified_as: Timing
- :uri: http://www.cdisc.org/SDTM_MODEL_ALL/V3#CL_VISITNUM
  :name: VISITNUM
  :classified_as: Timing
- :uri: http://www.cdisc.org/SDTM_MODEL_ALL/V4#CL_--DETECT
  :name: "--DETECT"
  :classified_as: Timing
- :uri: http://www.cdisc.org/SDTM_MODEL_ALL/V4#CL_--DTC
  :name: "--DTC"
  :classified_as: Timing
- :uri: http://www.cdisc.org/SDTM_MODEL_ALL/V4#CL_--DUR
  :name: "--DUR"
  :classified_as: Timing
- :uri: http://www.cdisc.org/SDTM_MODEL_ALL/V4#CL_--DY
  :name: "--DY"
  :classified_as: Timing
- :uri: http://www.cdisc.org/SDTM_MODEL_ALL/V4#CL_--ELTM
  :name: "--ELTM"
  :classified_as: Timing
- :uri: http://www.cdisc.org/SDTM_MODEL_ALL/V4#CL_--ENDTC
  :name: "--ENDTC"
  :classified_as: Timing
- :uri: http://www.cdisc.org/SDTM_MODEL_ALL/V4#CL_--ENDY
  :name: "--ENDY"
  :classified_as: Timing
- :uri: http://www.cdisc.org/SDTM_MODEL_ALL/V4#CL_--ENINT
  :name: "--ENINT"
  :classified_as: Timing
- :uri: http://www.cdisc.org/SDTM_MODEL_ALL/V4#CL_--ENRF
  :name: "--ENRF"
  :classified_as: Timing
- :uri: http://www.cdisc.org/SDTM_MODEL_ALL/V4#CL_--ENRTPT
  :name: "--ENRTPT"
  :classified_as: Timing
- :uri: http://www.cdisc.org/SDTM_MODEL_ALL/V4#CL_--ENTPT
  :name: "--ENTPT"
  :classified_as: Timing
- :uri: http://www.cdisc.org/SDTM_MODEL_ALL/V4#CL_--EVINTX
  :name: "--EVINTX"
  :classified_as: Timing
- :uri: http://www.cdisc.org/SDTM_MODEL_ALL/V4#CL_--EVLINT
  :name: "--EVLINT"
  :classified_as: Timing
- :uri: http://www.cdisc.org/SDTM_MODEL_ALL/V4#CL_--GRPID
  :name: "--GRPID"
  :classified_as: Identifier
- :uri: http://www.cdisc.org/SDTM_MODEL_ALL/V4#CL_--LNKGRP
  :name: "--LNKGRP"
  :classified_as: Identifier
- :uri: http://www.cdisc.org/SDTM_MODEL_ALL/V4#CL_--LNKID
  :name: "--LNKID"
  :classified_as: Identifier
- :uri: http://www.cdisc.org/SDTM_MODEL_ALL/V4#CL_--NOMDY
  :name: "--NOMDY"
  :classified_as: Timing
- :uri: http://www.cdisc.org/SDTM_MODEL_ALL/V4#CL_--NOMLBL
  :name: "--NOMLBL"
  :classified_as: Timing
- :uri: http://www.cdisc.org/SDTM_MODEL_ALL/V4#CL_--RECID
  :name: "--RECID"
  :classified_as: Identifier
- :uri: http://www.cdisc.org/SDTM_MODEL_ALL/V4#CL_--REFID
  :name: "--REFID"
  :classified_as: Identifier
- :uri: http://www.cdisc.org/SDTM_MODEL_ALL/V4#CL_--RFTDTC
  :name: "--RFTDTC"
  :classified_as: Timing
- :uri: http://www.cdisc.org/SDTM_MODEL_ALL/V4#CL_--SEQ
  :name: "--SEQ"
  :classified_as: Identifier
- :uri: http://www.cdisc.org/SDTM_MODEL_ALL/V4#CL_--SPID
  :name: "--SPID"
  :classified_as: Identifier
- :uri: http://www.cdisc.org/SDTM_MODEL_ALL/V4#CL_--STDTC
  :name: "--STDTC"
  :classified_as: Timing
- :uri: http://www.cdisc.org/SDTM_MODEL_ALL/V4#CL_--STDY
  :name: "--STDY"
  :classified_as: Timing
- :uri: http://www.cdisc.org/SDTM_MODEL_ALL/V4#CL_--STINT
  :name: "--STINT"
  :classified_as: Timing
- :uri: http://www.cdisc.org/SDTM_MODEL_ALL/V4#CL_--STRF
  :name: "--STRF"
  :classified_as: Timing
- :uri: http://www.cdisc.org/SDTM_MODEL_ALL/V4#CL_--STRTPT
  :name: "--STRTPT"
  :classified_as: Timing
- :uri: http://www.cdisc.org/SDTM_MODEL_ALL/V4#CL_--STTPT
  :name: "--STTPT"
  :classified_as: Timing
- :uri: http://www.cdisc.org/SDTM_MODEL_ALL/V4#CL_--TPT
  :name: "--TPT"
  :classified_as: Timing
- :uri: http://www.cdisc.org/SDTM_MODEL_ALL/V4#CL_--TPTNUM
  :name: "--TPTNUM"
  :classified_as: Timing
- :uri: http://www.cdisc.org/SDTM_MODEL_ALL/V4#CL_--TPTREF
  :name: "--TPTREF"
  :classified_as: Timing
- :uri: http://www.cdisc.org/SDTM_MODEL_ALL/V4#CL_APID
  :name: APID
  :classified_as: Identifier
- :uri: http://www.cdisc.org/SDTM_MODEL_ALL/V4#CL_EPOCH
  :name: EPOCH
  :classified_as: Timing
- :uri: http://www.cdisc.org/SDTM_MODEL_ALL/V4#CL_FETUSID
  :name: FETUSID
  :classified_as: Identifier
- :uri: http://www.cdisc.org/SDTM_MODEL_ALL/V4#CL_FOCID
  :name: FOCID
  :classified_as: Identifier
- :uri: http://www.cdisc.org/SDTM_MODEL_ALL/V4#CL_MIDS
  :name: MIDS
  :classified_as: Timing
- :uri: http://www.cdisc.org/SDTM_MODEL_ALL/V4#CL_MIDSDTC
  :name: MIDSDTC
  :classified_as: Timing
- :uri: http://www.cdisc.org/SDTM_MODEL_ALL/V4#CL_POOLID
  :name: POOLID
  :classified_as: Identifier
- :uri: http://www.cdisc.org/SDTM_MODEL_ALL/V4#CL_RELMIDS
  :name: RELMIDS
  :classified_as: Timing
- :uri: http://www.cdisc.org/SDTM_MODEL_ALL/V4#CL_SPDEVID
  :name: SPDEVID
  :classified_as: Identifier
- :uri: http://www.cdisc.org/SDTM_MODEL_ALL/V4#CL_TAETORD
  :name: TAETORD
  :classified_as: Timing
- :uri: http://www.cdisc.org/SDTM_MODEL_ALL/V4#CL_VISIT
  :name: VISIT
  :classified_as: Timing
- :uri: http://www.cdisc.org/SDTM_MODEL_ALL/V4#CL_VISITDY
  :name: VISITDY
  :classified_as: Timing
- :uri: http://www.cdisc.org/SDTM_MODEL_ALL/V4#CL_VISITNUM
  :name: VISITNUM
  :classified_as: Timing
- :uri: http://www.cdisc.org/SDTM_MODEL_ALL/V5#CL_--DETECT
  :name: "--DETECT"
  :classified_as: Timing
- :uri: http://www.cdisc.org/SDTM_MODEL_ALL/V5#CL_--DTC
  :name: "--DTC"
  :classified_as: Timing
- :uri: http://www.cdisc.org/SDTM_MODEL_ALL/V5#CL_--DUR
  :name: "--DUR"
  :classified_as: Timing
- :uri: http://www.cdisc.org/SDTM_MODEL_ALL/V5#CL_--DY
  :name: "--DY"
  :classified_as: Timing
- :uri: http://www.cdisc.org/SDTM_MODEL_ALL/V5#CL_--ELTM
  :name: "--ELTM"
  :classified_as: Timing
- :uri: http://www.cdisc.org/SDTM_MODEL_ALL/V5#CL_--ENDTC
  :name: "--ENDTC"
  :classified_as: Timing
- :uri: http://www.cdisc.org/SDTM_MODEL_ALL/V5#CL_--ENDY
  :name: "--ENDY"
  :classified_as: Timing
- :uri: http://www.cdisc.org/SDTM_MODEL_ALL/V5#CL_--ENINT
  :name: "--ENINT"
  :classified_as: Timing
- :uri: http://www.cdisc.org/SDTM_MODEL_ALL/V5#CL_--ENRF
  :name: "--ENRF"
  :classified_as: Timing
- :uri: http://www.cdisc.org/SDTM_MODEL_ALL/V5#CL_--ENRTPT
  :name: "--ENRTPT"
  :classified_as: Timing
- :uri: http://www.cdisc.org/SDTM_MODEL_ALL/V5#CL_--ENTPT
  :name: "--ENTPT"
  :classified_as: Timing
- :uri: http://www.cdisc.org/SDTM_MODEL_ALL/V5#CL_--EVINTX
  :name: "--EVINTX"
  :classified_as: Timing
- :uri: http://www.cdisc.org/SDTM_MODEL_ALL/V5#CL_--EVLINT
  :name: "--EVLINT"
  :classified_as: Timing
- :uri: http://www.cdisc.org/SDTM_MODEL_ALL/V5#CL_--GRPID
  :name: "--GRPID"
  :classified_as: Identifier
- :uri: http://www.cdisc.org/SDTM_MODEL_ALL/V5#CL_--LNKGRP
  :name: "--LNKGRP"
  :classified_as: None
- :uri: http://www.cdisc.org/SDTM_MODEL_ALL/V5#CL_--LNKID
  :name: "--LNKID"
  :classified_as: Identifier
- :uri: http://www.cdisc.org/SDTM_MODEL_ALL/V5#CL_--NOMDY
  :name: "--NOMDY"
  :classified_as: Timing
- :uri: http://www.cdisc.org/SDTM_MODEL_ALL/V5#CL_--NOMLBL
  :name: "--NOMLBL"
  :classified_as: Timing
- :uri: http://www.cdisc.org/SDTM_MODEL_ALL/V5#CL_--RECID
  :name: "--RECID"
  :classified_as: Identifier
- :uri: http://www.cdisc.org/SDTM_MODEL_ALL/V5#CL_--REFID
  :name: "--REFID"
  :classified_as: Identifier
- :uri: http://www.cdisc.org/SDTM_MODEL_ALL/V5#CL_--RFTDTC
  :name: "--RFTDTC"
  :classified_as: Timing
- :uri: http://www.cdisc.org/SDTM_MODEL_ALL/V5#CL_--RPDY
  :name: "--RPDY"
  :classified_as: Timing
- :uri: http://www.cdisc.org/SDTM_MODEL_ALL/V5#CL_--RPENDY
  :name: "--RPENDY"
  :classified_as: Timing
- :uri: http://www.cdisc.org/SDTM_MODEL_ALL/V5#CL_--RPSTDY
  :name: "--RPSTDY"
  :classified_as: Timing
- :uri: http://www.cdisc.org/SDTM_MODEL_ALL/V5#CL_--SEQ
  :name: "--SEQ"
  :classified_as: Identifier
- :uri: http://www.cdisc.org/SDTM_MODEL_ALL/V5#CL_--SPID
  :name: "--SPID"
  :classified_as: Identifier
- :uri: http://www.cdisc.org/SDTM_MODEL_ALL/V5#CL_--STDTC
  :name: "--STDTC"
  :classified_as: Timing
- :uri: http://www.cdisc.org/SDTM_MODEL_ALL/V5#CL_--STDY
  :name: "--STDY"
  :classified_as: Timing
- :uri: http://www.cdisc.org/SDTM_MODEL_ALL/V5#CL_--STINT
  :name: "--STINT"
  :classified_as: Timing
- :uri: http://www.cdisc.org/SDTM_MODEL_ALL/V5#CL_--STRF
  :name: "--STRF"
  :classified_as: Timing
- :uri: http://www.cdisc.org/SDTM_MODEL_ALL/V5#CL_--STRTPT
  :name: "--STRTPT"
  :classified_as: Timing
- :uri: http://www.cdisc.org/SDTM_MODEL_ALL/V5#CL_--STTPT
  :name: "--STTPT"
  :classified_as: Timing
- :uri: http://www.cdisc.org/SDTM_MODEL_ALL/V5#CL_--TPT
  :name: "--TPT"
  :classified_as: Timing
- :uri: http://www.cdisc.org/SDTM_MODEL_ALL/V5#CL_--TPTNUM
  :name: "--TPTNUM"
  :classified_as: Timing
- :uri: http://www.cdisc.org/SDTM_MODEL_ALL/V5#CL_--TPTREF
  :name: "--TPTREF"
  :classified_as: Timing
- :uri: http://www.cdisc.org/SDTM_MODEL_ALL/V5#CL_APID
  :name: APID
  :classified_as: Identifier
- :uri: http://www.cdisc.org/SDTM_MODEL_ALL/V5#CL_EPOCH
  :name: EPOCH
  :classified_as: Timing
- :uri: http://www.cdisc.org/SDTM_MODEL_ALL/V5#CL_FETUSID
  :name: FETUSID
  :classified_as: Identifier
- :uri: http://www.cdisc.org/SDTM_MODEL_ALL/V5#CL_FOCID
  :name: FOCID
  :classified_as: Identifier
- :uri: http://www.cdisc.org/SDTM_MODEL_ALL/V5#CL_MIDS
  :name: MIDS
  :classified_as: Timing
- :uri: http://www.cdisc.org/SDTM_MODEL_ALL/V5#CL_MIDSDTC
  :name: MIDSDTC
  :classified_as: Timing
- :uri: http://www.cdisc.org/SDTM_MODEL_ALL/V5#CL_NHOID
  :name: NHOID
  :classified_as: Identifier
- :uri: http://www.cdisc.org/SDTM_MODEL_ALL/V5#CL_RELMIDS
  :name: RELMIDS
  :classified_as: Timing
- :uri: http://www.cdisc.org/SDTM_MODEL_ALL/V5#CL_RPHASE
  :name: RPHASE
  :classified_as: Timing
- :uri: http://www.cdisc.org/SDTM_MODEL_ALL/V5#CL_RPPLDY
  :name: RPPLDY
  :classified_as: Timing
- :uri: http://www.cdisc.org/SDTM_MODEL_ALL/V5#CL_RPPLENDY
  :name: RPPLENDY
  :classified_as: Timing
- :uri: http://www.cdisc.org/SDTM_MODEL_ALL/V5#CL_RPPLSTDY
  :name: RPPLSTDY
  :classified_as: Timing
- :uri: http://www.cdisc.org/SDTM_MODEL_ALL/V5#CL_TAETORD
  :name: TAETORD
  :classified_as: Timing
- :uri: http://www.cdisc.org/SDTM_MODEL_ALL/V5#CL_VISIT
  :name: VISIT
  :classified_as: Timing
- :uri: http://www.cdisc.org/SDTM_MODEL_ALL/V5#CL_VISITDY
  :name: VISITDY
  :classified_as: Timing
- :uri: http://www.cdisc.org/SDTM_MODEL_ALL/V5#CL_VISITNUM
  :name: VISITNUM
  :classified_as: Timing
- :uri: http://www.cdisc.org/SDTM_MODEL_ALL/V6#CL_--EVINTX
  :name: "--EVINTX"
  :classified_as: Timing
- :uri: http://www.cdisc.org/SDTM_MODEL_ALL/V6#CL_--EVLINT
  :name: "--EVLINT"
  :classified_as: Timing
- :uri: http://www.cdisc.org/SDTM_MODEL_ALL/V6#CL_--GRPID
  :name: "--GRPID"
  :classified_as: Identifier
- :uri: http://www.cdisc.org/SDTM_MODEL_ALL/V6#CL_--LNKGRP
  :name: "--LNKGRP"
  :classified_as: Identifier
- :uri: http://www.cdisc.org/SDTM_MODEL_ALL/V6#CL_--LNKID
  :name: "--LNKID"
  :classified_as: Identifier
- :uri: http://www.cdisc.org/SDTM_MODEL_ALL/V6#CL_--NOMDY
  :name: "--NOMDY"
  :classified_as: Timing
- :uri: http://www.cdisc.org/SDTM_MODEL_ALL/V6#CL_--TPTREF
  :name: "--TPTREF"
  :classified_as: Timing
- :uri: http://www.cdisc.org/SDTM_MODEL_ALL/V6#CL_APID
  :name: APID
  :classified_as: Identifier
- :uri: http://www.cdisc.org/SDTM_MODEL_ALL/V6#CL_DOMAIN
  :name: DOMAIN
  :classified_as: Identifier
- :uri: http://www.cdisc.org/SDTM_MODEL_ALL/V6#CL_EPOCH
  :name: EPOCH
  :classified_as: Timing
- :uri: http://www.cdisc.org/SDTM_MODEL_ALL/V6#CL_FOCID
  :name: FOCID
  :classified_as: Identifier
- :uri: http://www.cdisc.org/SDTM_MODEL_ALL/V6#CL_RELMIDS
  :name: RELMIDS
  :classified_as: Timing
- :uri: http://www.cdisc.org/SDTM_MODEL_ALL/V6#CL_TAETORD
  :name: TAETORD
  :classified_as: Timing
- :uri: http://www.cdisc.org/SDTM_MODEL_ALL/V7#CL_--CHDY
  :name: "--CHDY"
  :classified_as: Timing
- :uri: http://www.cdisc.org/SDTM_MODEL_ALL/V7#CL_--CHENDY
  :name: "--CHENDY"
  :classified_as: Timing
- :uri: http://www.cdisc.org/SDTM_MODEL_ALL/V7#CL_--CHSTDY
  :name: "--CHSTDY"
  :classified_as: Timing
- :uri: http://www.cdisc.org/SDTM_MODEL_ALL/V7#CL_--DETECT
  :name: "--DETECT"
  :classified_as: Timing
- :uri: http://www.cdisc.org/SDTM_MODEL_ALL/V7#CL_--DUR
  :name: "--DUR"
  :classified_as: Timing
- :uri: http://www.cdisc.org/SDTM_MODEL_ALL/V7#CL_--ELTM
  :name: "--ELTM"
  :classified_as: Timing
- :uri: http://www.cdisc.org/SDTM_MODEL_ALL/V7#CL_--ENINT
  :name: "--ENINT"
  :classified_as: Timing
- :uri: http://www.cdisc.org/SDTM_MODEL_ALL/V7#CL_--ENRF
  :name: "--ENRF"
  :classified_as: Timing
- :uri: http://www.cdisc.org/SDTM_MODEL_ALL/V7#CL_--ENRTPT
  :name: "--ENRTPT"
  :classified_as: Timing
- :uri: http://www.cdisc.org/SDTM_MODEL_ALL/V7#CL_--ENTPT
  :name: "--ENTPT"
  :classified_as: Timing
- :uri: http://www.cdisc.org/SDTM_MODEL_ALL/V7#CL_--EVINTX
  :name: "--EVINTX"
  :classified_as: Timing
- :uri: http://www.cdisc.org/SDTM_MODEL_ALL/V7#CL_--EVLINT
  :name: "--EVLINT"
  :classified_as: Timing
- :uri: http://www.cdisc.org/SDTM_MODEL_ALL/V7#CL_--RFTDTC
  :name: "--RFTDTC"
  :classified_as: Timing
- :uri: http://www.cdisc.org/SDTM_MODEL_ALL/V7#CL_--SPID
  :name: "--SPID"
  :classified_as: Identifier
- :uri: http://www.cdisc.org/SDTM_MODEL_ALL/V7#CL_--STINT
  :name: "--STINT"
  :classified_as: Timing
- :uri: http://www.cdisc.org/SDTM_MODEL_ALL/V7#CL_--STRF
  :name: "--STRF"
  :classified_as: Timing
- :uri: http://www.cdisc.org/SDTM_MODEL_ALL/V7#CL_--STRTPT
  :name: "--STRTPT"
  :classified_as: Timing
- :uri: http://www.cdisc.org/SDTM_MODEL_ALL/V7#CL_--STTPT
  :name: "--STTPT"
  :classified_as: Timing
- :uri: http://www.cdisc.org/SDTM_MODEL_ALL/V7#CL_--TPT
  :name: "--TPT"
  :classified_as: Timing
- :uri: http://www.cdisc.org/SDTM_MODEL_ALL/V7#CL_--TPTNUM
  :name: "--TPTNUM"
  :classified_as: Timing
- :uri: http://www.cdisc.org/SDTM_MODEL_ALL/V7#CL_--TPTREF
  :name: "--TPTREF"
  :classified_as: Timing
- :uri: http://www.cdisc.org/SDTM_MODEL_ALL/V7#CL_--XDY
  :name: "--XDY"
  :classified_as: Timing
- :uri: http://www.cdisc.org/SDTM_MODEL_ALL/V7#CL_--XENDY
  :name: "--XENDY"
  :classified_as: Timing
- :uri: http://www.cdisc.org/SDTM_MODEL_ALL/V7#CL_--XSTDY
  :name: "--XSTDY"
  :classified_as: Timing
- :uri: http://www.cdisc.org/SDTM_MODEL_ALL/V7#CL_APID
  :name: APID
  :classified_as: Identifier
- :uri: http://www.cdisc.org/SDTM_MODEL_ALL/V7#CL_FOCID
  :name: FOCID
  :classified_as: Identifier
- :uri: http://www.cdisc.org/SDTM_MODEL_ALL/V7#CL_MIDS
  :name: MIDS
  :classified_as: Timing
- :uri: http://www.cdisc.org/SDTM_MODEL_ALL/V7#CL_MIDSDTC
  :name: MIDSDTC
  :classified_as: Timing
- :uri: http://www.cdisc.org/SDTM_MODEL_ALL/V7#CL_RELMIDS
  :name: RELMIDS
  :classified_as: Timing
- :uri: http://www.cdisc.org/SDTM_MODEL_CO/V1#CL_CODTC
  :name: CODTC
  :classified_as: Timing
- :uri: http://www.cdisc.org/SDTM_MODEL_CO/V1#CL_COEVAL
  :name: COEVAL
  :classified_as: Record
- :uri: http://www.cdisc.org/SDTM_MODEL_CO/V1#CL_COREF
  :name: COREF
  :classified_as: Record
- :uri: http://www.cdisc.org/SDTM_MODEL_CO/V1#CL_COSEQ
  :name: COSEQ
  :classified_as: Identifier
- :uri: http://www.cdisc.org/SDTM_MODEL_CO/V1#CL_COVAL
  :name: COVAL
  :classified_as: Topic
- :uri: http://www.cdisc.org/SDTM_MODEL_CO/V1#CL_DOMAIN
  :name: DOMAIN
  :classified_as: Identifier
- :uri: http://www.cdisc.org/SDTM_MODEL_CO/V1#CL_IDVAR
  :name: IDVAR
  :classified_as: Record
- :uri: http://www.cdisc.org/SDTM_MODEL_CO/V1#CL_IDVARVAL
  :name: IDVARVAL
  :classified_as: Record
- :uri: http://www.cdisc.org/SDTM_MODEL_CO/V1#CL_RDOMAIN
  :name: RDOMAIN
  :classified_as: Record
- :uri: http://www.cdisc.org/SDTM_MODEL_CO/V1#CL_STUDYID
  :name: STUDYID
  :classified_as: Identifier
- :uri: http://www.cdisc.org/SDTM_MODEL_CO/V1#CL_USUBJID
  :name: USUBJID
  :classified_as: Identifier
- :uri: http://www.cdisc.org/SDTM_MODEL_CO/V2#CL_IDVAR
  :name: IDVAR
  :classified_as: Record
- :uri: http://www.cdisc.org/SDTM_MODEL_CO/V2#CL_IDVARVAL
  :name: IDVARVAL
  :classified_as: Record
- :uri: http://www.cdisc.org/SDTM_MODEL_CO/V2#CL_RDOMAIN
  :name: RDOMAIN
  :classified_as: Record
- :uri: http://www.cdisc.org/SDTM_MODEL_CO/V3#CL_COVAL
  :name: COVAL
  :classified_as: Topic
- :uri: http://www.cdisc.org/SDTM_MODEL_CO/V4#CL_CODTC
  :name: CODTC
  :classified_as: Timing
- :uri: http://www.cdisc.org/SDTM_MODEL_CO/V4#CL_CODY
  :name: CODY
  :classified_as: Timing
- :uri: http://www.cdisc.org/SDTM_MODEL_CO/V4#CL_COEVAL
  :name: COEVAL
  :classified_as: Record
- :uri: http://www.cdisc.org/SDTM_MODEL_CO/V4#CL_COREF
  :name: COREF
  :classified_as: Record
- :uri: http://www.cdisc.org/SDTM_MODEL_CO/V4#CL_COSEQ
  :name: COSEQ
  :classified_as: Identifier
- :uri: http://www.cdisc.org/SDTM_MODEL_CO/V4#CL_COVAL
  :name: COVAL
  :classified_as: Topic
- :uri: http://www.cdisc.org/SDTM_MODEL_CO/V4#CL_IDVAR
  :name: IDVAR
  :classified_as: Record
- :uri: http://www.cdisc.org/SDTM_MODEL_CO/V4#CL_IDVARVAL
  :name: IDVARVAL
  :classified_as: Record
- :uri: http://www.cdisc.org/SDTM_MODEL_CO/V4#CL_POOLID
  :name: POOLID
  :classified_as: Identifier
- :uri: http://www.cdisc.org/SDTM_MODEL_CO/V4#CL_RDOMAIN
  :name: RDOMAIN
  :classified_as: Record
- :uri: http://www.cdisc.org/SDTM_MODEL_CO/V4#CL_USUBJID
  :name: USUBJID
  :classified_as: Identifier
- :uri: http://www.cdisc.org/SDTM_MODEL_CO/V6#CL_CODTC
  :name: CODTC
  :classified_as: Timing
- :uri: http://www.cdisc.org/SDTM_MODEL_CO/V6#CL_CODY
  :name: CODY
  :classified_as: Timing
- :uri: http://www.cdisc.org/SDTM_MODEL_CO/V6#CL_COEVAL
  :name: COEVAL
  :classified_as: Record
- :uri: http://www.cdisc.org/SDTM_MODEL_CO/V6#CL_COEVALID
  :name: COEVALID
  :classified_as: None
- :uri: http://www.cdisc.org/SDTM_MODEL_CO/V6#CL_COREF
  :name: COREF
  :classified_as: Record
- :uri: http://www.cdisc.org/SDTM_MODEL_CO/V6#CL_COSEQ
  :name: COSEQ
  :classified_as: Identifier
- :uri: http://www.cdisc.org/SDTM_MODEL_CO/V6#CL_COVAL
  :name: COVAL
  :classified_as: Topic
- :uri: http://www.cdisc.org/SDTM_MODEL_CO/V6#CL_DOMAIN
  :name: DOMAIN
  :classified_as: Identifier
- :uri: http://www.cdisc.org/SDTM_MODEL_CO/V6#CL_IDVAR
  :name: IDVAR
  :classified_as: Record
- :uri: http://www.cdisc.org/SDTM_MODEL_CO/V6#CL_IDVARVAL
  :name: IDVARVAL
  :classified_as: Record
- :uri: http://www.cdisc.org/SDTM_MODEL_CO/V6#CL_POOLID
  :name: POOLID
  :classified_as: Identifier
- :uri: http://www.cdisc.org/SDTM_MODEL_CO/V6#CL_RDOMAIN
  :name: RDOMAIN
  :classified_as: Record
- :uri: http://www.cdisc.org/SDTM_MODEL_CO/V6#CL_USUBJID
  :name: USUBJID
  :classified_as: Identifier
- :uri: http://www.cdisc.org/SDTM_MODEL_CO/V7#CL_COEVALID
  :name: COEVALID
  :classified_as: Variable
- :uri: http://www.cdisc.org/SDTM_MODEL_DM/V1#CL_AGE
  :name: AGE
  :classified_as: Record
- :uri: http://www.cdisc.org/SDTM_MODEL_DM/V1#CL_AGEU
  :name: AGEU
  :classified_as: Variable
- :uri: http://www.cdisc.org/SDTM_MODEL_DM/V1#CL_ARM
  :name: ARM
  :classified_as: Synonym
- :uri: http://www.cdisc.org/SDTM_MODEL_DM/V1#CL_ARMCD
  :name: ARMCD
  :classified_as: Record
- :uri: http://www.cdisc.org/SDTM_MODEL_DM/V1#CL_BRTHDTC
  :name: BRTHDTC
  :classified_as: Record
- :uri: http://www.cdisc.org/SDTM_MODEL_DM/V1#CL_COUNTRY
  :name: COUNTRY
  :classified_as: Record
- :uri: http://www.cdisc.org/SDTM_MODEL_DM/V1#CL_DMDTC
  :name: DMDTC
  :classified_as: Timing
- :uri: http://www.cdisc.org/SDTM_MODEL_DM/V1#CL_DMDY
  :name: DMDY
  :classified_as: Timing
- :uri: http://www.cdisc.org/SDTM_MODEL_DM/V1#CL_DOMAIN
  :name: DOMAIN
  :classified_as: Identifier
- :uri: http://www.cdisc.org/SDTM_MODEL_DM/V1#CL_ETHNIC
  :name: ETHNIC
  :classified_as: Record
- :uri: http://www.cdisc.org/SDTM_MODEL_DM/V1#CL_INVID
  :name: INVID
  :classified_as: Record
- :uri: http://www.cdisc.org/SDTM_MODEL_DM/V1#CL_INVNAM
  :name: INVNAM
  :classified_as: Synonym
- :uri: http://www.cdisc.org/SDTM_MODEL_DM/V1#CL_RACE
  :name: RACE
  :classified_as: Record
- :uri: http://www.cdisc.org/SDTM_MODEL_DM/V1#CL_RFENDTC
  :name: RFENDTC
  :classified_as: Record
- :uri: http://www.cdisc.org/SDTM_MODEL_DM/V1#CL_RFSTDTC
  :name: RFSTDTC
  :classified_as: Record
- :uri: http://www.cdisc.org/SDTM_MODEL_DM/V1#CL_SEX
  :name: SEX
  :classified_as: Record
- :uri: http://www.cdisc.org/SDTM_MODEL_DM/V1#CL_SITEID
  :name: SITEID
  :classified_as: Record
- :uri: http://www.cdisc.org/SDTM_MODEL_DM/V1#CL_STUDYID
  :name: STUDYID
  :classified_as: Identifier
- :uri: http://www.cdisc.org/SDTM_MODEL_DM/V1#CL_SUBJID
  :name: SUBJID
  :classified_as: Topic
- :uri: http://www.cdisc.org/SDTM_MODEL_DM/V1#CL_USUBJID
  :name: USUBJID
  :classified_as: Identifier
- :uri: http://www.cdisc.org/SDTM_MODEL_DM/V2#CL_ACTARM
  :name: ACTARM
  :classified_as: Synonym
- :uri: http://www.cdisc.org/SDTM_MODEL_DM/V2#CL_ACTARMCD
  :name: ACTARMCD
  :classified_as: Record
- :uri: http://www.cdisc.org/SDTM_MODEL_DM/V2#CL_AGE
  :name: AGE
  :classified_as: Record
- :uri: http://www.cdisc.org/SDTM_MODEL_DM/V2#CL_AGEU
  :name: AGEU
  :classified_as: Variable
- :uri: http://www.cdisc.org/SDTM_MODEL_DM/V2#CL_ARM
  :name: ARM
  :classified_as: Synonym
- :uri: http://www.cdisc.org/SDTM_MODEL_DM/V2#CL_ARMCD
  :name: ARMCD
  :classified_as: Record
- :uri: http://www.cdisc.org/SDTM_MODEL_DM/V2#CL_BRTHDTC
  :name: BRTHDTC
  :classified_as: Record
- :uri: http://www.cdisc.org/SDTM_MODEL_DM/V2#CL_COUNTRY
  :name: COUNTRY
  :classified_as: Record
- :uri: http://www.cdisc.org/SDTM_MODEL_DM/V2#CL_DMDTC
  :name: DMDTC
  :classified_as: Timing
- :uri: http://www.cdisc.org/SDTM_MODEL_DM/V2#CL_DMDY
  :name: DMDY
  :classified_as: Timing
- :uri: http://www.cdisc.org/SDTM_MODEL_DM/V2#CL_DTHDTC
  :name: DTHDTC
  :classified_as: Record
- :uri: http://www.cdisc.org/SDTM_MODEL_DM/V2#CL_DTHFL
  :name: DTHFL
  :classified_as: Record
- :uri: http://www.cdisc.org/SDTM_MODEL_DM/V2#CL_ETHNIC
  :name: ETHNIC
  :classified_as: Record
- :uri: http://www.cdisc.org/SDTM_MODEL_DM/V2#CL_INVID
  :name: INVID
  :classified_as: Record
- :uri: http://www.cdisc.org/SDTM_MODEL_DM/V2#CL_INVNAM
  :name: INVNAM
  :classified_as: Synonym
- :uri: http://www.cdisc.org/SDTM_MODEL_DM/V2#CL_RACE
  :name: RACE
  :classified_as: Record
- :uri: http://www.cdisc.org/SDTM_MODEL_DM/V2#CL_RFICDTC
  :name: RFICDTC
  :classified_as: Record
- :uri: http://www.cdisc.org/SDTM_MODEL_DM/V2#CL_RFPENDTC
  :name: RFPENDTC
  :classified_as: Record
- :uri: http://www.cdisc.org/SDTM_MODEL_DM/V2#CL_RFXENDTC
  :name: RFXENDTC
  :classified_as: Record
- :uri: http://www.cdisc.org/SDTM_MODEL_DM/V2#CL_RFXSTDTC
  :name: RFXSTDTC
  :classified_as: Record
- :uri: http://www.cdisc.org/SDTM_MODEL_DM/V2#CL_SEX
  :name: SEX
  :classified_as: Record
- :uri: http://www.cdisc.org/SDTM_MODEL_DM/V2#CL_SITEID
  :name: SITEID
  :classified_as: Record
- :uri: http://www.cdisc.org/SDTM_MODEL_DM/V2#CL_USUBJID
  :name: USUBJID
  :classified_as: Identifier
- :uri: http://www.cdisc.org/SDTM_MODEL_DM/V3#CL_ACTARMCD
  :name: ACTARMCD
  :classified_as: Record
- :uri: http://www.cdisc.org/SDTM_MODEL_DM/V3#CL_ETHNIC
  :name: ETHNIC
  :classified_as: Record
- :uri: http://www.cdisc.org/SDTM_MODEL_DM/V3#CL_RACE
  :name: RACE
  :classified_as: Record
- :uri: http://www.cdisc.org/SDTM_MODEL_DM/V4#CL_AGE
  :name: AGE
  :classified_as: Record
- :uri: http://www.cdisc.org/SDTM_MODEL_DM/V4#CL_AGETXT
  :name: AGETXT
  :classified_as: Record
- :uri: http://www.cdisc.org/SDTM_MODEL_DM/V4#CL_AGEU
  :name: AGEU
  :classified_as: Variable
- :uri: http://www.cdisc.org/SDTM_MODEL_DM/V4#CL_ARM
  :name: ARM
  :classified_as: Synonym
- :uri: http://www.cdisc.org/SDTM_MODEL_DM/V4#CL_ARMCD
  :name: ARMCD
  :classified_as: Record
- :uri: http://www.cdisc.org/SDTM_MODEL_DM/V4#CL_BRTHDTC
  :name: BRTHDTC
  :classified_as: Record
- :uri: http://www.cdisc.org/SDTM_MODEL_DM/V4#CL_RFENDTC
  :name: RFENDTC
  :classified_as: Record
- :uri: http://www.cdisc.org/SDTM_MODEL_DM/V4#CL_RFSTDTC
  :name: RFSTDTC
  :classified_as: Record
- :uri: http://www.cdisc.org/SDTM_MODEL_DM/V4#CL_RFXENDTC
  :name: RFXENDTC
  :classified_as: Record
- :uri: http://www.cdisc.org/SDTM_MODEL_DM/V4#CL_RFXSTDTC
  :name: RFXSTDTC
  :classified_as: Record
- :uri: http://www.cdisc.org/SDTM_MODEL_DM/V4#CL_SBSTRAIN
  :name: SBSTRAIN
  :classified_as: Record
- :uri: http://www.cdisc.org/SDTM_MODEL_DM/V4#CL_SETCD
  :name: SETCD
  :classified_as: Record
- :uri: http://www.cdisc.org/SDTM_MODEL_DM/V4#CL_SEX
  :name: SEX
  :classified_as: Record
- :uri: http://www.cdisc.org/SDTM_MODEL_DM/V4#CL_SITEID
  :name: SITEID
  :classified_as: Record
- :uri: http://www.cdisc.org/SDTM_MODEL_DM/V4#CL_SPECIES
  :name: SPECIES
  :classified_as: Record
- :uri: http://www.cdisc.org/SDTM_MODEL_DM/V4#CL_STRAIN
  :name: STRAIN
  :classified_as: Record
- :uri: http://www.cdisc.org/SDTM_MODEL_DM/V4#CL_SUBJID
  :name: SUBJID
  :classified_as: Topic
- :uri: http://www.cdisc.org/SDTM_MODEL_DM/V4#CL_USUBJID
  :name: USUBJID
  :classified_as: Identifier
- :uri: http://www.cdisc.org/SDTM_MODEL_DM/V6#CL_ACTARM
  :name: ACTARM
  :classified_as: None
- :uri: http://www.cdisc.org/SDTM_MODEL_DM/V6#CL_ACTARMCD
  :name: ACTARMCD
  :classified_as: Record
- :uri: http://www.cdisc.org/SDTM_MODEL_DM/V6#CL_ACTARMUD
  :name: ACTARMUD
  :classified_as: Record
- :uri: http://www.cdisc.org/SDTM_MODEL_DM/V6#CL_AGE
  :name: AGE
  :classified_as: Record
- :uri: http://www.cdisc.org/SDTM_MODEL_DM/V6#CL_AGETXT
  :name: AGETXT
  :classified_as: Record
- :uri: http://www.cdisc.org/SDTM_MODEL_DM/V6#CL_AGEU
  :name: AGEU
  :classified_as: None
- :uri: http://www.cdisc.org/SDTM_MODEL_DM/V6#CL_ARM
  :name: ARM
  :classified_as: None
- :uri: http://www.cdisc.org/SDTM_MODEL_DM/V6#CL_ARMCD
  :name: ARMCD
  :classified_as: Record
- :uri: http://www.cdisc.org/SDTM_MODEL_DM/V6#CL_ARMNRS
  :name: ARMNRS
  :classified_as: Record
- :uri: http://www.cdisc.org/SDTM_MODEL_DM/V6#CL_BRTHDTC
  :name: BRTHDTC
  :classified_as: Record
- :uri: http://www.cdisc.org/SDTM_MODEL_DM/V6#CL_COUNTRY
  :name: COUNTRY
  :classified_as: Record
- :uri: http://www.cdisc.org/SDTM_MODEL_DM/V6#CL_DMDTC
  :name: DMDTC
  :classified_as: Timing
- :uri: http://www.cdisc.org/SDTM_MODEL_DM/V6#CL_DMDY
  :name: DMDY
  :classified_as: Timing
- :uri: http://www.cdisc.org/SDTM_MODEL_DM/V6#CL_DOMAIN
  :name: DOMAIN
  :classified_as: Identifier
- :uri: http://www.cdisc.org/SDTM_MODEL_DM/V6#CL_DTHDTC
  :name: DTHDTC
  :classified_as: Record
- :uri: http://www.cdisc.org/SDTM_MODEL_DM/V6#CL_DTHFL
  :name: DTHFL
  :classified_as: Record
- :uri: http://www.cdisc.org/SDTM_MODEL_DM/V6#CL_ETHNIC
  :name: ETHNIC
  :classified_as: Record
- :uri: http://www.cdisc.org/SDTM_MODEL_DM/V6#CL_INVID
  :name: INVID
  :classified_as: Record
- :uri: http://www.cdisc.org/SDTM_MODEL_DM/V6#CL_INVNAM
  :name: INVNAM
  :classified_as: None
- :uri: http://www.cdisc.org/SDTM_MODEL_DM/V6#CL_RACE
  :name: RACE
  :classified_as: Record
- :uri: http://www.cdisc.org/SDTM_MODEL_DM/V6#CL_RFENDTC
  :name: RFENDTC
  :classified_as: Record
- :uri: http://www.cdisc.org/SDTM_MODEL_DM/V6#CL_RFICDTC
  :name: RFICDTC
  :classified_as: Record
- :uri: http://www.cdisc.org/SDTM_MODEL_DM/V6#CL_RFPENDTC
  :name: RFPENDTC
  :classified_as: Record
- :uri: http://www.cdisc.org/SDTM_MODEL_DM/V6#CL_RFSTDTC
  :name: RFSTDTC
  :classified_as: Record
- :uri: http://www.cdisc.org/SDTM_MODEL_DM/V6#CL_RFXENDTC
  :name: RFXENDTC
  :classified_as: Record
- :uri: http://www.cdisc.org/SDTM_MODEL_DM/V6#CL_RFXSTDTC
  :name: RFXSTDTC
  :classified_as: Record
- :uri: http://www.cdisc.org/SDTM_MODEL_DM/V6#CL_RPATHCD
  :name: RPATHCD
  :classified_as: Record
- :uri: http://www.cdisc.org/SDTM_MODEL_DM/V6#CL_SBSTRAIN
  :name: SBSTRAIN
  :classified_as: None
- :uri: http://www.cdisc.org/SDTM_MODEL_DM/V6#CL_SETCD
  :name: SETCD
  :classified_as: Record
- :uri: http://www.cdisc.org/SDTM_MODEL_DM/V6#CL_SEX
  :name: SEX
  :classified_as: Record
- :uri: http://www.cdisc.org/SDTM_MODEL_DM/V6#CL_SITEID
  :name: SITEID
  :classified_as: Record
- :uri: http://www.cdisc.org/SDTM_MODEL_DM/V6#CL_SPECIES
  :name: SPECIES
  :classified_as: Record
- :uri: http://www.cdisc.org/SDTM_MODEL_DM/V6#CL_STRAIN
  :name: STRAIN
  :classified_as: Record
- :uri: http://www.cdisc.org/SDTM_MODEL_DM/V6#CL_SUBJID
  :name: SUBJID
  :classified_as: Topic
- :uri: http://www.cdisc.org/SDTM_MODEL_DM/V7#CL_ACTARM
  :name: ACTARM
  :classified_as: Synonym
- :uri: http://www.cdisc.org/SDTM_MODEL_DM/V7#CL_ACTARMCD
  :name: ACTARMCD
  :classified_as: Record
- :uri: http://www.cdisc.org/SDTM_MODEL_DM/V7#CL_ACTARMUD
  :name: ACTARMUD
  :classified_as: Record
- :uri: http://www.cdisc.org/SDTM_MODEL_DM/V7#CL_AGE
  :name: AGE
  :classified_as: Record
- :uri: http://www.cdisc.org/SDTM_MODEL_DM/V7#CL_AGETXT
  :name: AGETXT
  :classified_as: Record
- :uri: http://www.cdisc.org/SDTM_MODEL_DM/V7#CL_AGEU
  :name: AGEU
  :classified_as: Variable
- :uri: http://www.cdisc.org/SDTM_MODEL_DM/V7#CL_ARM
  :name: ARM
  :classified_as: Synonym
- :uri: http://www.cdisc.org/SDTM_MODEL_DM/V7#CL_ARMCD
  :name: ARMCD
  :classified_as: Record
- :uri: http://www.cdisc.org/SDTM_MODEL_DM/V7#CL_ARMNRS
  :name: ARMNRS
  :classified_as: Record
- :uri: http://www.cdisc.org/SDTM_MODEL_DM/V7#CL_BRTHDTC
  :name: BRTHDTC
  :classified_as: Record
- :uri: http://www.cdisc.org/SDTM_MODEL_DM/V7#CL_COUNTRY
  :name: COUNTRY
  :classified_as: Record
- :uri: http://www.cdisc.org/SDTM_MODEL_DM/V7#CL_DMDTC
  :name: DMDTC
  :classified_as: Timing
- :uri: http://www.cdisc.org/SDTM_MODEL_DM/V7#CL_DMDY
  :name: DMDY
  :classified_as: Timing
- :uri: http://www.cdisc.org/SDTM_MODEL_DM/V7#CL_DTHDTC
  :name: DTHDTC
  :classified_as: Record
- :uri: http://www.cdisc.org/SDTM_MODEL_DM/V7#CL_DTHFL
  :name: DTHFL
  :classified_as: Record
- :uri: http://www.cdisc.org/SDTM_MODEL_DM/V7#CL_ETHNIC
  :name: ETHNIC
  :classified_as: Record
- :uri: http://www.cdisc.org/SDTM_MODEL_DM/V7#CL_INVID
  :name: INVID
  :classified_as: Record
- :uri: http://www.cdisc.org/SDTM_MODEL_DM/V7#CL_INVNAM
  :name: INVNAM
  :classified_as: Synonym
- :uri: http://www.cdisc.org/SDTM_MODEL_DM/V7#CL_RACE
  :name: RACE
  :classified_as: Record
- :uri: http://www.cdisc.org/SDTM_MODEL_DM/V7#CL_RFCENDTC
  :name: RFCENDTC
  :classified_as: Record
- :uri: http://www.cdisc.org/SDTM_MODEL_DM/V7#CL_RFCSTDTC
  :name: RFCSTDTC
  :classified_as: Record
- :uri: http://www.cdisc.org/SDTM_MODEL_DM/V7#CL_RFICDTC
  :name: RFICDTC
  :classified_as: Record
- :uri: http://www.cdisc.org/SDTM_MODEL_DM/V7#CL_RFPENDTC
  :name: RFPENDTC
  :classified_as: Record
- :uri: http://www.cdisc.org/SDTM_MODEL_DM/V7#CL_RPATHCD
  :name: RPATHCD
  :classified_as: Record
- :uri: http://www.cdisc.org/SDTM_MODEL_DM/V7#CL_SBSTRAIN
  :name: SBSTRAIN
  :classified_as: Variable
- :uri: http://www.cdisc.org/SDTM_MODEL_DM/V7#CL_SETCD
  :name: SETCD
  :classified_as: Record
- :uri: http://www.cdisc.org/SDTM_MODEL_DM/V7#CL_SEX
  :name: SEX
  :classified_as: Record
- :uri: http://www.cdisc.org/SDTM_MODEL_DM/V7#CL_SITEID
  :name: SITEID
  :classified_as: Record
- :uri: http://www.cdisc.org/SDTM_MODEL_DM/V7#CL_SPECIES
  :name: SPECIES
  :classified_as: Record
- :uri: http://www.cdisc.org/SDTM_MODEL_DM/V7#CL_STRAIN
  :name: STRAIN
  :classified_as: Record
- :uri: http://www.cdisc.org/SDTM_MODEL_DR/V6#CL_DOMAIN
  :name: DOMAIN
  :classified_as: Identifier
- :uri: http://www.cdisc.org/SDTM_MODEL_DR/V6#CL_SPDEVID
  :name: SPDEVID
  :classified_as: Identifier
- :uri: http://www.cdisc.org/SDTM_MODEL_DR/V6#CL_STUDYID
  :name: STUDYID
  :classified_as: Identifier
- :uri: http://www.cdisc.org/SDTM_MODEL_DR/V6#CL_USUBJID
  :name: USUBJID
  :classified_as: Identifier
- :uri: http://www.cdisc.org/SDTM_MODEL_EVENTS/V1#CL_--ACN
  :name: "--ACN"
  :classified_as: Record
- :uri: http://www.cdisc.org/SDTM_MODEL_EVENTS/V1#CL_--ACNOTH
  :name: "--ACNOTH"
  :classified_as: Record
- :uri: http://www.cdisc.org/SDTM_MODEL_EVENTS/V1#CL_--BODSYS
  :name: "--BODSYS"
  :classified_as: Record
- :uri: http://www.cdisc.org/SDTM_MODEL_EVENTS/V1#CL_--CAT
  :name: "--CAT"
  :classified_as: Grouping
- :uri: http://www.cdisc.org/SDTM_MODEL_EVENTS/V1#CL_--CONTRT
  :name: "--CONTRT"
  :classified_as: Record
- :uri: http://www.cdisc.org/SDTM_MODEL_EVENTS/V1#CL_--DECOD
  :name: "--DECOD"
  :classified_as: None
- :uri: http://www.cdisc.org/SDTM_MODEL_EVENTS/V1#CL_--LOC
  :name: "--LOC"
  :classified_as: Record
- :uri: http://www.cdisc.org/SDTM_MODEL_EVENTS/V1#CL_--MODIFY
  :name: "--MODIFY"
  :classified_as: None
- :uri: http://www.cdisc.org/SDTM_MODEL_EVENTS/V1#CL_--OCCUR
  :name: "--OCCUR"
  :classified_as: Record
- :uri: http://www.cdisc.org/SDTM_MODEL_EVENTS/V1#CL_--OUT
  :name: "--OUT"
  :classified_as: Record
- :uri: http://www.cdisc.org/SDTM_MODEL_EVENTS/V1#CL_--PATT
  :name: "--PATT"
  :classified_as: Record
- :uri: http://www.cdisc.org/SDTM_MODEL_EVENTS/V1#CL_--PRESP
  :name: "--PRESP"
  :classified_as: Record
- :uri: http://www.cdisc.org/SDTM_MODEL_EVENTS/V1#CL_--REASND
  :name: "--REASND"
  :classified_as: Record
- :uri: http://www.cdisc.org/SDTM_MODEL_EVENTS/V1#CL_--REL
  :name: "--REL"
  :classified_as: Record
- :uri: http://www.cdisc.org/SDTM_MODEL_EVENTS/V1#CL_--RELNST
  :name: "--RELNST"
  :classified_as: Record
- :uri: http://www.cdisc.org/SDTM_MODEL_EVENTS/V1#CL_--SCAN
  :name: "--SCAN"
  :classified_as: Record
- :uri: http://www.cdisc.org/SDTM_MODEL_EVENTS/V1#CL_--SCAT
  :name: "--SCAT"
  :classified_as: Grouping
- :uri: http://www.cdisc.org/SDTM_MODEL_EVENTS/V1#CL_--SCONG
  :name: "--SCONG"
  :classified_as: Record
- :uri: http://www.cdisc.org/SDTM_MODEL_EVENTS/V1#CL_--SDISAB
  :name: "--SDISAB"
  :classified_as: Record
- :uri: http://www.cdisc.org/SDTM_MODEL_EVENTS/V1#CL_--SDTH
  :name: "--SDTH"
  :classified_as: Record
- :uri: http://www.cdisc.org/SDTM_MODEL_EVENTS/V1#CL_--SER
  :name: "--SER"
  :classified_as: Record
- :uri: http://www.cdisc.org/SDTM_MODEL_EVENTS/V1#CL_--SEV
  :name: "--SEV"
  :classified_as: Record
- :uri: http://www.cdisc.org/SDTM_MODEL_EVENTS/V1#CL_--SHOSP
  :name: "--SHOSP"
  :classified_as: Record
- :uri: http://www.cdisc.org/SDTM_MODEL_EVENTS/V1#CL_--SLIFE
  :name: "--SLIFE"
  :classified_as: Record
- :uri: http://www.cdisc.org/SDTM_MODEL_EVENTS/V1#CL_--SMIE
  :name: "--SMIE"
  :classified_as: Record
- :uri: http://www.cdisc.org/SDTM_MODEL_EVENTS/V1#CL_--SOD
  :name: "--SOD"
  :classified_as: Record
- :uri: http://www.cdisc.org/SDTM_MODEL_EVENTS/V1#CL_--STAT
  :name: "--STAT"
  :classified_as: Record
- :uri: http://www.cdisc.org/SDTM_MODEL_EVENTS/V1#CL_--TERM
  :name: "--TERM"
  :classified_as: Topic
- :uri: http://www.cdisc.org/SDTM_MODEL_EVENTS/V1#CL_--TOX
  :name: "--TOX"
  :classified_as: None
- :uri: http://www.cdisc.org/SDTM_MODEL_EVENTS/V1#CL_--TOXGR
  :name: "--TOXGR"
  :classified_as: Record
- :uri: http://www.cdisc.org/SDTM_MODEL_EVENTS/V2#CL_--ACN
  :name: "--ACN"
  :classified_as: Record
- :uri: http://www.cdisc.org/SDTM_MODEL_EVENTS/V2#CL_--ACNOTH
  :name: "--ACNOTH"
  :classified_as: Record
- :uri: http://www.cdisc.org/SDTM_MODEL_EVENTS/V2#CL_--BDSYCD
  :name: "--BDSYCD"
  :classified_as: None
- :uri: http://www.cdisc.org/SDTM_MODEL_EVENTS/V2#CL_--BODSYS
  :name: "--BODSYS"
  :classified_as: Record
- :uri: http://www.cdisc.org/SDTM_MODEL_EVENTS/V2#CL_--CAT
  :name: "--CAT"
  :classified_as: Grouping
- :uri: http://www.cdisc.org/SDTM_MODEL_EVENTS/V2#CL_--CONTRT
  :name: "--CONTRT"
  :classified_as: Record
- :uri: http://www.cdisc.org/SDTM_MODEL_EVENTS/V2#CL_--DECOD
  :name: "--DECOD"
  :classified_as: None
- :uri: http://www.cdisc.org/SDTM_MODEL_EVENTS/V2#CL_--HLGT
  :name: "--HLGT"
  :classified_as: None
- :uri: http://www.cdisc.org/SDTM_MODEL_EVENTS/V2#CL_--HLGTCD
  :name: "--HLGTCD"
  :classified_as: None
- :uri: http://www.cdisc.org/SDTM_MODEL_EVENTS/V2#CL_--HLT
  :name: "--HLT"
  :classified_as: None
- :uri: http://www.cdisc.org/SDTM_MODEL_EVENTS/V2#CL_--HLTCD
  :name: "--HLTCD"
  :classified_as: None
- :uri: http://www.cdisc.org/SDTM_MODEL_EVENTS/V2#CL_--LLT
  :name: "--LLT"
  :classified_as: None
- :uri: http://www.cdisc.org/SDTM_MODEL_EVENTS/V2#CL_--LLTCD
  :name: "--LLTCD"
  :classified_as: None
- :uri: http://www.cdisc.org/SDTM_MODEL_EVENTS/V2#CL_--LOC
  :name: "--LOC"
  :classified_as: Record
- :uri: http://www.cdisc.org/SDTM_MODEL_EVENTS/V2#CL_--MODIFY
  :name: "--MODIFY"
  :classified_as: None
- :uri: http://www.cdisc.org/SDTM_MODEL_EVENTS/V2#CL_--OCCUR
  :name: "--OCCUR"
  :classified_as: Record
- :uri: http://www.cdisc.org/SDTM_MODEL_EVENTS/V2#CL_--OUT
  :name: "--OUT"
  :classified_as: Record
- :uri: http://www.cdisc.org/SDTM_MODEL_EVENTS/V2#CL_--PATT
  :name: "--PATT"
  :classified_as: Record
- :uri: http://www.cdisc.org/SDTM_MODEL_EVENTS/V2#CL_--PRESP
  :name: "--PRESP"
  :classified_as: None
- :uri: http://www.cdisc.org/SDTM_MODEL_EVENTS/V2#CL_--PTCD
  :name: "--PTCD"
  :classified_as: None
- :uri: http://www.cdisc.org/SDTM_MODEL_EVENTS/V2#CL_--REASND
  :name: "--REASND"
  :classified_as: Record
- :uri: http://www.cdisc.org/SDTM_MODEL_EVENTS/V2#CL_--REL
  :name: "--REL"
  :classified_as: Record
- :uri: http://www.cdisc.org/SDTM_MODEL_EVENTS/V2#CL_--RELNST
  :name: "--RELNST"
  :classified_as: Record
- :uri: http://www.cdisc.org/SDTM_MODEL_EVENTS/V2#CL_--SCAN
  :name: "--SCAN"
  :classified_as: Record
- :uri: http://www.cdisc.org/SDTM_MODEL_EVENTS/V2#CL_--SCAT
  :name: "--SCAT"
  :classified_as: Grouping
- :uri: http://www.cdisc.org/SDTM_MODEL_EVENTS/V2#CL_--SCONG
  :name: "--SCONG"
  :classified_as: Record
- :uri: http://www.cdisc.org/SDTM_MODEL_EVENTS/V2#CL_--SDISAB
  :name: "--SDISAB"
  :classified_as: Record
- :uri: http://www.cdisc.org/SDTM_MODEL_EVENTS/V2#CL_--SDTH
  :name: "--SDTH"
  :classified_as: Record
- :uri: http://www.cdisc.org/SDTM_MODEL_EVENTS/V2#CL_--SER
  :name: "--SER"
  :classified_as: Record
- :uri: http://www.cdisc.org/SDTM_MODEL_EVENTS/V2#CL_--SEV
  :name: "--SEV"
  :classified_as: Record
- :uri: http://www.cdisc.org/SDTM_MODEL_EVENTS/V2#CL_--SHOSP
  :name: "--SHOSP"
  :classified_as: Record
- :uri: http://www.cdisc.org/SDTM_MODEL_EVENTS/V2#CL_--SLIFE
  :name: "--SLIFE"
  :classified_as: Record
- :uri: http://www.cdisc.org/SDTM_MODEL_EVENTS/V2#CL_--SMIE
  :name: "--SMIE"
  :classified_as: Record
- :uri: http://www.cdisc.org/SDTM_MODEL_EVENTS/V2#CL_--SOC
  :name: "--SOC"
  :classified_as: None
- :uri: http://www.cdisc.org/SDTM_MODEL_EVENTS/V2#CL_--SOCCD
  :name: "--SOCCD"
  :classified_as: None
- :uri: http://www.cdisc.org/SDTM_MODEL_EVENTS/V2#CL_--SOD
  :name: "--SOD"
  :classified_as: Record
- :uri: http://www.cdisc.org/SDTM_MODEL_EVENTS/V2#CL_--STAT
  :name: "--STAT"
  :classified_as: Record
- :uri: http://www.cdisc.org/SDTM_MODEL_EVENTS/V2#CL_--TERM
  :name: "--TERM"
  :classified_as: Topic
- :uri: http://www.cdisc.org/SDTM_MODEL_EVENTS/V2#CL_--TOX
  :name: "--TOX"
  :classified_as: None
- :uri: http://www.cdisc.org/SDTM_MODEL_EVENTS/V2#CL_--TOXGR
  :name: "--TOXGR"
  :classified_as: Record
- :uri: http://www.cdisc.org/SDTM_MODEL_EVENTS/V3#CL_--ACN
  :name: "--ACN"
  :classified_as: Record
- :uri: http://www.cdisc.org/SDTM_MODEL_EVENTS/V3#CL_--ACNDEV
  :name: "--ACNDEV"
  :classified_as: Record
- :uri: http://www.cdisc.org/SDTM_MODEL_EVENTS/V3#CL_--ACNOTH
  :name: "--ACNOTH"
  :classified_as: Record
- :uri: http://www.cdisc.org/SDTM_MODEL_EVENTS/V3#CL_--BDSYCD
  :name: "--BDSYCD"
  :classified_as: None
- :uri: http://www.cdisc.org/SDTM_MODEL_EVENTS/V3#CL_--BODSYS
  :name: "--BODSYS"
  :classified_as: Record
- :uri: http://www.cdisc.org/SDTM_MODEL_EVENTS/V3#CL_--CAT
  :name: "--CAT"
  :classified_as: Grouping
- :uri: http://www.cdisc.org/SDTM_MODEL_EVENTS/V3#CL_--CONTRT
  :name: "--CONTRT"
  :classified_as: Record
- :uri: http://www.cdisc.org/SDTM_MODEL_EVENTS/V3#CL_--DECOD
  :name: "--DECOD"
  :classified_as: None
- :uri: http://www.cdisc.org/SDTM_MODEL_EVENTS/V3#CL_--DIR
  :name: "--DIR"
  :classified_as: None
- :uri: http://www.cdisc.org/SDTM_MODEL_EVENTS/V3#CL_--HLGT
  :name: "--HLGT"
  :classified_as: None
- :uri: http://www.cdisc.org/SDTM_MODEL_EVENTS/V3#CL_--HLGTCD
  :name: "--HLGTCD"
  :classified_as: None
- :uri: http://www.cdisc.org/SDTM_MODEL_EVENTS/V3#CL_--HLT
  :name: "--HLT"
  :classified_as: None
- :uri: http://www.cdisc.org/SDTM_MODEL_EVENTS/V3#CL_--HLTCD
  :name: "--HLTCD"
  :classified_as: None
- :uri: http://www.cdisc.org/SDTM_MODEL_EVENTS/V3#CL_--LAT
  :name: "--LAT"
  :classified_as: None
- :uri: http://www.cdisc.org/SDTM_MODEL_EVENTS/V3#CL_--LLT
  :name: "--LLT"
  :classified_as: None
- :uri: http://www.cdisc.org/SDTM_MODEL_EVENTS/V3#CL_--LLTCD
  :name: "--LLTCD"
  :classified_as: None
- :uri: http://www.cdisc.org/SDTM_MODEL_EVENTS/V3#CL_--LOC
  :name: "--LOC"
  :classified_as: Record
- :uri: http://www.cdisc.org/SDTM_MODEL_EVENTS/V3#CL_--MODIFY
  :name: "--MODIFY"
  :classified_as: None
- :uri: http://www.cdisc.org/SDTM_MODEL_EVENTS/V3#CL_--OCCUR
  :name: "--OCCUR"
  :classified_as: Record
- :uri: http://www.cdisc.org/SDTM_MODEL_EVENTS/V3#CL_--OUT
  :name: "--OUT"
  :classified_as: Record
- :uri: http://www.cdisc.org/SDTM_MODEL_EVENTS/V3#CL_--PARTY
  :name: "--PARTY"
  :classified_as: Record
- :uri: http://www.cdisc.org/SDTM_MODEL_EVENTS/V3#CL_--PATT
  :name: "--PATT"
  :classified_as: Record
- :uri: http://www.cdisc.org/SDTM_MODEL_EVENTS/V3#CL_--PORTOT
  :name: "--PORTOT"
  :classified_as: None
- :uri: http://www.cdisc.org/SDTM_MODEL_EVENTS/V3#CL_--PRESP
  :name: "--PRESP"
  :classified_as: None
- :uri: http://www.cdisc.org/SDTM_MODEL_EVENTS/V3#CL_--PRTYID
  :name: "--PRTYID"
  :classified_as: Record
- :uri: http://www.cdisc.org/SDTM_MODEL_EVENTS/V3#CL_--PTCD
  :name: "--PTCD"
  :classified_as: None
- :uri: http://www.cdisc.org/SDTM_MODEL_EVENTS/V3#CL_--REASND
  :name: "--REASND"
  :classified_as: Record
- :uri: http://www.cdisc.org/SDTM_MODEL_EVENTS/V3#CL_--REL
  :name: "--REL"
  :classified_as: Record
- :uri: http://www.cdisc.org/SDTM_MODEL_EVENTS/V3#CL_--RELNST
  :name: "--RELNST"
  :classified_as: Record
- :uri: http://www.cdisc.org/SDTM_MODEL_EVENTS/V3#CL_--SCAN
  :name: "--SCAN"
  :classified_as: Record
- :uri: http://www.cdisc.org/SDTM_MODEL_EVENTS/V3#CL_--SCAT
  :name: "--SCAT"
  :classified_as: Grouping
- :uri: http://www.cdisc.org/SDTM_MODEL_EVENTS/V3#CL_--SCONG
  :name: "--SCONG"
  :classified_as: Record
- :uri: http://www.cdisc.org/SDTM_MODEL_EVENTS/V3#CL_--SDISAB
  :name: "--SDISAB"
  :classified_as: Record
- :uri: http://www.cdisc.org/SDTM_MODEL_EVENTS/V3#CL_--SDTH
  :name: "--SDTH"
  :classified_as: Record
- :uri: http://www.cdisc.org/SDTM_MODEL_EVENTS/V3#CL_--SER
  :name: "--SER"
  :classified_as: Record
- :uri: http://www.cdisc.org/SDTM_MODEL_EVENTS/V3#CL_--SEV
  :name: "--SEV"
  :classified_as: Record
- :uri: http://www.cdisc.org/SDTM_MODEL_EVENTS/V3#CL_--SHOSP
  :name: "--SHOSP"
  :classified_as: Record
- :uri: http://www.cdisc.org/SDTM_MODEL_EVENTS/V3#CL_--SLIFE
  :name: "--SLIFE"
  :classified_as: Record
- :uri: http://www.cdisc.org/SDTM_MODEL_EVENTS/V3#CL_--SMIE
  :name: "--SMIE"
  :classified_as: Record
- :uri: http://www.cdisc.org/SDTM_MODEL_EVENTS/V3#CL_--SOC
  :name: "--SOC"
  :classified_as: None
- :uri: http://www.cdisc.org/SDTM_MODEL_EVENTS/V3#CL_--SOCCD
  :name: "--SOCCD"
  :classified_as: None
- :uri: http://www.cdisc.org/SDTM_MODEL_EVENTS/V3#CL_--SOD
  :name: "--SOD"
  :classified_as: Record
- :uri: http://www.cdisc.org/SDTM_MODEL_EVENTS/V3#CL_--STAT
  :name: "--STAT"
  :classified_as: Record
- :uri: http://www.cdisc.org/SDTM_MODEL_EVENTS/V3#CL_--TERM
  :name: "--TERM"
  :classified_as: Topic
- :uri: http://www.cdisc.org/SDTM_MODEL_EVENTS/V3#CL_--TOX
  :name: "--TOX"
  :classified_as: None
- :uri: http://www.cdisc.org/SDTM_MODEL_EVENTS/V3#CL_--TOXGR
  :name: "--TOXGR"
  :classified_as: Record
- :uri: http://www.cdisc.org/SDTM_MODEL_EVENTS/V4#CL_--ACN
  :name: "--ACN"
  :classified_as: Record
- :uri: http://www.cdisc.org/SDTM_MODEL_EVENTS/V4#CL_--ACNDEV
  :name: "--ACNDEV"
  :classified_as: Record
- :uri: http://www.cdisc.org/SDTM_MODEL_EVENTS/V4#CL_--ACNOTH
  :name: "--ACNOTH"
  :classified_as: Record
- :uri: http://www.cdisc.org/SDTM_MODEL_EVENTS/V4#CL_--BDSYCD
  :name: "--BDSYCD"
  :classified_as: None
- :uri: http://www.cdisc.org/SDTM_MODEL_EVENTS/V4#CL_--BODSYS
  :name: "--BODSYS"
  :classified_as: Record
- :uri: http://www.cdisc.org/SDTM_MODEL_EVENTS/V4#CL_--CAT
  :name: "--CAT"
  :classified_as: Grouping
- :uri: http://www.cdisc.org/SDTM_MODEL_EVENTS/V4#CL_--CONTRT
  :name: "--CONTRT"
  :classified_as: Record
- :uri: http://www.cdisc.org/SDTM_MODEL_EVENTS/V4#CL_--DECOD
  :name: "--DECOD"
  :classified_as: None
- :uri: http://www.cdisc.org/SDTM_MODEL_EVENTS/V4#CL_--DIR
  :name: "--DIR"
  :classified_as: None
- :uri: http://www.cdisc.org/SDTM_MODEL_EVENTS/V4#CL_--HLGT
  :name: "--HLGT"
  :classified_as: None
- :uri: http://www.cdisc.org/SDTM_MODEL_EVENTS/V4#CL_--HLGTCD
  :name: "--HLGTCD"
  :classified_as: None
- :uri: http://www.cdisc.org/SDTM_MODEL_EVENTS/V4#CL_--HLT
  :name: "--HLT"
  :classified_as: None
- :uri: http://www.cdisc.org/SDTM_MODEL_EVENTS/V4#CL_--HLTCD
  :name: "--HLTCD"
  :classified_as: None
- :uri: http://www.cdisc.org/SDTM_MODEL_EVENTS/V4#CL_--LAT
  :name: "--LAT"
  :classified_as: None
- :uri: http://www.cdisc.org/SDTM_MODEL_EVENTS/V4#CL_--LLT
  :name: "--LLT"
  :classified_as: None
- :uri: http://www.cdisc.org/SDTM_MODEL_EVENTS/V4#CL_--LLTCD
  :name: "--LLTCD"
  :classified_as: None
- :uri: http://www.cdisc.org/SDTM_MODEL_EVENTS/V4#CL_--LOC
  :name: "--LOC"
  :classified_as: Record
- :uri: http://www.cdisc.org/SDTM_MODEL_EVENTS/V4#CL_--MODIFY
  :name: "--MODIFY"
  :classified_as: None
- :uri: http://www.cdisc.org/SDTM_MODEL_EVENTS/V4#CL_--OCCUR
  :name: "--OCCUR"
  :classified_as: Record
- :uri: http://www.cdisc.org/SDTM_MODEL_EVENTS/V4#CL_--OUT
  :name: "--OUT"
  :classified_as: Record
- :uri: http://www.cdisc.org/SDTM_MODEL_EVENTS/V4#CL_--PARTY
  :name: "--PARTY"
  :classified_as: Record
- :uri: http://www.cdisc.org/SDTM_MODEL_EVENTS/V4#CL_--PATT
  :name: "--PATT"
  :classified_as: Record
- :uri: http://www.cdisc.org/SDTM_MODEL_EVENTS/V4#CL_--PORTOT
  :name: "--PORTOT"
  :classified_as: None
- :uri: http://www.cdisc.org/SDTM_MODEL_EVENTS/V4#CL_--PRESP
  :name: "--PRESP"
  :classified_as: None
- :uri: http://www.cdisc.org/SDTM_MODEL_EVENTS/V4#CL_--PRTYID
  :name: "--PRTYID"
  :classified_as: Record
- :uri: http://www.cdisc.org/SDTM_MODEL_EVENTS/V4#CL_--PTCD
  :name: "--PTCD"
  :classified_as: None
- :uri: http://www.cdisc.org/SDTM_MODEL_EVENTS/V4#CL_--REASND
  :name: "--REASND"
  :classified_as: Record
- :uri: http://www.cdisc.org/SDTM_MODEL_EVENTS/V4#CL_--REL
  :name: "--REL"
  :classified_as: Record
- :uri: http://www.cdisc.org/SDTM_MODEL_EVENTS/V4#CL_--RELNST
  :name: "--RELNST"
  :classified_as: Record
- :uri: http://www.cdisc.org/SDTM_MODEL_EVENTS/V4#CL_--SCAN
  :name: "--SCAN"
  :classified_as: Record
- :uri: http://www.cdisc.org/SDTM_MODEL_EVENTS/V4#CL_--SCAT
  :name: "--SCAT"
  :classified_as: Grouping
- :uri: http://www.cdisc.org/SDTM_MODEL_EVENTS/V4#CL_--SCONG
  :name: "--SCONG"
  :classified_as: Record
- :uri: http://www.cdisc.org/SDTM_MODEL_EVENTS/V4#CL_--SDISAB
  :name: "--SDISAB"
  :classified_as: Record
- :uri: http://www.cdisc.org/SDTM_MODEL_EVENTS/V4#CL_--SDTH
  :name: "--SDTH"
  :classified_as: Record
- :uri: http://www.cdisc.org/SDTM_MODEL_EVENTS/V4#CL_--SER
  :name: "--SER"
  :classified_as: Record
- :uri: http://www.cdisc.org/SDTM_MODEL_EVENTS/V4#CL_--SEV
  :name: "--SEV"
  :classified_as: Record
- :uri: http://www.cdisc.org/SDTM_MODEL_EVENTS/V4#CL_--SHOSP
  :name: "--SHOSP"
  :classified_as: Record
- :uri: http://www.cdisc.org/SDTM_MODEL_EVENTS/V4#CL_--SLIFE
  :name: "--SLIFE"
  :classified_as: Record
- :uri: http://www.cdisc.org/SDTM_MODEL_EVENTS/V4#CL_--SMIE
  :name: "--SMIE"
  :classified_as: Record
- :uri: http://www.cdisc.org/SDTM_MODEL_EVENTS/V4#CL_--SOC
  :name: "--SOC"
  :classified_as: None
- :uri: http://www.cdisc.org/SDTM_MODEL_EVENTS/V4#CL_--SOCCD
  :name: "--SOCCD"
  :classified_as: None
- :uri: http://www.cdisc.org/SDTM_MODEL_EVENTS/V4#CL_--SOD
  :name: "--SOD"
  :classified_as: Record
- :uri: http://www.cdisc.org/SDTM_MODEL_EVENTS/V4#CL_--STAT
  :name: "--STAT"
  :classified_as: Record
- :uri: http://www.cdisc.org/SDTM_MODEL_EVENTS/V4#CL_--TERM
  :name: "--TERM"
  :classified_as: Topic
- :uri: http://www.cdisc.org/SDTM_MODEL_EVENTS/V4#CL_--TOX
  :name: "--TOX"
  :classified_as: None
- :uri: http://www.cdisc.org/SDTM_MODEL_EVENTS/V4#CL_--TOXGR
  :name: "--TOXGR"
  :classified_as: Record
- :uri: http://www.cdisc.org/SDTM_MODEL_EVENTS/V4#CL_--USCHFL
  :name: "--USCHFL"
  :classified_as: Record
- :uri: http://www.cdisc.org/SDTM_MODEL_EVENTS/V5#CL_--ACN
  :name: "--ACN"
  :classified_as: Record
- :uri: http://www.cdisc.org/SDTM_MODEL_EVENTS/V5#CL_--ACNDEV
  :name: "--ACNDEV"
  :classified_as: Record
- :uri: http://www.cdisc.org/SDTM_MODEL_EVENTS/V5#CL_--ACNOTH
  :name: "--ACNOTH"
  :classified_as: Record
- :uri: http://www.cdisc.org/SDTM_MODEL_EVENTS/V5#CL_--BDSYCD
  :name: "--BDSYCD"
  :classified_as: None
- :uri: http://www.cdisc.org/SDTM_MODEL_EVENTS/V5#CL_--BODSYS
  :name: "--BODSYS"
  :classified_as: Record
- :uri: http://www.cdisc.org/SDTM_MODEL_EVENTS/V5#CL_--CAT
  :name: "--CAT"
  :classified_as: Grouping
- :uri: http://www.cdisc.org/SDTM_MODEL_EVENTS/V5#CL_--CONTRT
  :name: "--CONTRT"
  :classified_as: Record
- :uri: http://www.cdisc.org/SDTM_MODEL_EVENTS/V5#CL_--DECOD
  :name: "--DECOD"
  :classified_as: None
- :uri: http://www.cdisc.org/SDTM_MODEL_EVENTS/V5#CL_--DIR
  :name: "--DIR"
  :classified_as: None
- :uri: http://www.cdisc.org/SDTM_MODEL_EVENTS/V5#CL_--HLGT
  :name: "--HLGT"
  :classified_as: None
- :uri: http://www.cdisc.org/SDTM_MODEL_EVENTS/V5#CL_--HLGTCD
  :name: "--HLGTCD"
  :classified_as: None
- :uri: http://www.cdisc.org/SDTM_MODEL_EVENTS/V5#CL_--HLT
  :name: "--HLT"
  :classified_as: None
- :uri: http://www.cdisc.org/SDTM_MODEL_EVENTS/V5#CL_--HLTCD
  :name: "--HLTCD"
  :classified_as: None
- :uri: http://www.cdisc.org/SDTM_MODEL_EVENTS/V5#CL_--LAT
  :name: "--LAT"
  :classified_as: None
- :uri: http://www.cdisc.org/SDTM_MODEL_EVENTS/V5#CL_--LLT
  :name: "--LLT"
  :classified_as: None
- :uri: http://www.cdisc.org/SDTM_MODEL_EVENTS/V5#CL_--LLTCD
  :name: "--LLTCD"
  :classified_as: None
- :uri: http://www.cdisc.org/SDTM_MODEL_EVENTS/V5#CL_--LOC
  :name: "--LOC"
  :classified_as: Record
- :uri: http://www.cdisc.org/SDTM_MODEL_EVENTS/V5#CL_--MODIFY
  :name: "--MODIFY"
  :classified_as: None
- :uri: http://www.cdisc.org/SDTM_MODEL_EVENTS/V5#CL_--OCCUR
  :name: "--OCCUR"
  :classified_as: Record
- :uri: http://www.cdisc.org/SDTM_MODEL_EVENTS/V5#CL_--OUT
  :name: "--OUT"
  :classified_as: Record
- :uri: http://www.cdisc.org/SDTM_MODEL_EVENTS/V5#CL_--PARTY
  :name: "--PARTY"
  :classified_as: Record
- :uri: http://www.cdisc.org/SDTM_MODEL_EVENTS/V5#CL_--PATT
  :name: "--PATT"
  :classified_as: Record
- :uri: http://www.cdisc.org/SDTM_MODEL_EVENTS/V5#CL_--PORTOT
  :name: "--PORTOT"
  :classified_as: None
- :uri: http://www.cdisc.org/SDTM_MODEL_EVENTS/V5#CL_--PRESP
  :name: "--PRESP"
  :classified_as: None
- :uri: http://www.cdisc.org/SDTM_MODEL_EVENTS/V5#CL_--PRTYID
  :name: "--PRTYID"
  :classified_as: Record
- :uri: http://www.cdisc.org/SDTM_MODEL_EVENTS/V5#CL_--PTCD
  :name: "--PTCD"
  :classified_as: None
- :uri: http://www.cdisc.org/SDTM_MODEL_EVENTS/V5#CL_--REASND
  :name: "--REASND"
  :classified_as: Record
- :uri: http://www.cdisc.org/SDTM_MODEL_EVENTS/V5#CL_--REL
  :name: "--REL"
  :classified_as: Record
- :uri: http://www.cdisc.org/SDTM_MODEL_EVENTS/V5#CL_--RELNST
  :name: "--RELNST"
  :classified_as: Record
- :uri: http://www.cdisc.org/SDTM_MODEL_EVENTS/V5#CL_--SCAN
  :name: "--SCAN"
  :classified_as: Record
- :uri: http://www.cdisc.org/SDTM_MODEL_EVENTS/V5#CL_--SCAT
  :name: "--SCAT"
  :classified_as: Grouping
- :uri: http://www.cdisc.org/SDTM_MODEL_EVENTS/V5#CL_--SCONG
  :name: "--SCONG"
  :classified_as: Record
- :uri: http://www.cdisc.org/SDTM_MODEL_EVENTS/V5#CL_--SDISAB
  :name: "--SDISAB"
  :classified_as: Record
- :uri: http://www.cdisc.org/SDTM_MODEL_EVENTS/V5#CL_--SDTH
  :name: "--SDTH"
  :classified_as: Record
- :uri: http://www.cdisc.org/SDTM_MODEL_EVENTS/V5#CL_--SER
  :name: "--SER"
  :classified_as: Record
- :uri: http://www.cdisc.org/SDTM_MODEL_EVENTS/V5#CL_--SEV
  :name: "--SEV"
  :classified_as: Record
- :uri: http://www.cdisc.org/SDTM_MODEL_EVENTS/V5#CL_--SHOSP
  :name: "--SHOSP"
  :classified_as: Record
- :uri: http://www.cdisc.org/SDTM_MODEL_EVENTS/V5#CL_--SLIFE
  :name: "--SLIFE"
  :classified_as: Record
- :uri: http://www.cdisc.org/SDTM_MODEL_EVENTS/V5#CL_--SMIE
  :name: "--SMIE"
  :classified_as: Record
- :uri: http://www.cdisc.org/SDTM_MODEL_EVENTS/V5#CL_--SOC
  :name: "--SOC"
  :classified_as: None
- :uri: http://www.cdisc.org/SDTM_MODEL_EVENTS/V5#CL_--SOCCD
  :name: "--SOCCD"
  :classified_as: None
- :uri: http://www.cdisc.org/SDTM_MODEL_EVENTS/V5#CL_--SOD
  :name: "--SOD"
  :classified_as: Record
- :uri: http://www.cdisc.org/SDTM_MODEL_EVENTS/V5#CL_--STAT
  :name: "--STAT"
  :classified_as: Record
- :uri: http://www.cdisc.org/SDTM_MODEL_EVENTS/V5#CL_--TERM
  :name: "--TERM"
  :classified_as: Topic
- :uri: http://www.cdisc.org/SDTM_MODEL_EVENTS/V5#CL_--TOX
  :name: "--TOX"
  :classified_as: None
- :uri: http://www.cdisc.org/SDTM_MODEL_EVENTS/V5#CL_--TOXGR
  :name: "--TOXGR"
  :classified_as: Record
- :uri: http://www.cdisc.org/SDTM_MODEL_EVENTS/V5#CL_--USCHFL
  :name: "--USCHFL"
  :classified_as: Record
- :uri: http://www.cdisc.org/SDTM_MODEL_EVENTS/V6#CL_--ACN
  :name: "--ACN"
  :classified_as: Record
- :uri: http://www.cdisc.org/SDTM_MODEL_EVENTS/V6#CL_--ACNDEV
  :name: "--ACNDEV"
  :classified_as: Record
- :uri: http://www.cdisc.org/SDTM_MODEL_EVENTS/V6#CL_--BODSYS
  :name: "--BODSYS"
  :classified_as: Record
- :uri: http://www.cdisc.org/SDTM_MODEL_EVENTS/V6#CL_--CONTRT
  :name: "--CONTRT"
  :classified_as: Record
- :uri: http://www.cdisc.org/SDTM_MODEL_EVENTS/V6#CL_--DIR
  :name: "--DIR"
  :classified_as: None
- :uri: http://www.cdisc.org/SDTM_MODEL_EVENTS/V6#CL_--LAT
  :name: "--LAT"
  :classified_as: None
- :uri: http://www.cdisc.org/SDTM_MODEL_EVENTS/V6#CL_--LOC
  :name: "--LOC"
  :classified_as: Record
- :uri: http://www.cdisc.org/SDTM_MODEL_EVENTS/V6#CL_--OCCUR
  :name: "--OCCUR"
  :classified_as: Record
- :uri: http://www.cdisc.org/SDTM_MODEL_EVENTS/V6#CL_--OUT
  :name: "--OUT"
  :classified_as: Record
- :uri: http://www.cdisc.org/SDTM_MODEL_EVENTS/V6#CL_--PARTY
  :name: "--PARTY"
  :classified_as: Record
- :uri: http://www.cdisc.org/SDTM_MODEL_EVENTS/V6#CL_--PATT
  :name: "--PATT"
  :classified_as: Record
- :uri: http://www.cdisc.org/SDTM_MODEL_EVENTS/V6#CL_--PORTOT
  :name: "--PORTOT"
  :classified_as: None
- :uri: http://www.cdisc.org/SDTM_MODEL_EVENTS/V6#CL_--PRESP
  :name: "--PRESP"
  :classified_as: None
- :uri: http://www.cdisc.org/SDTM_MODEL_EVENTS/V6#CL_--PRTYID
  :name: "--PRTYID"
  :classified_as: Record
- :uri: http://www.cdisc.org/SDTM_MODEL_EVENTS/V6#CL_--REASND
  :name: "--REASND"
  :classified_as: Record
- :uri: http://www.cdisc.org/SDTM_MODEL_EVENTS/V6#CL_--REL
  :name: "--REL"
  :classified_as: Record
- :uri: http://www.cdisc.org/SDTM_MODEL_EVENTS/V6#CL_--RELNST
  :name: "--RELNST"
  :classified_as: Record
- :uri: http://www.cdisc.org/SDTM_MODEL_EVENTS/V6#CL_--SCAN
  :name: "--SCAN"
  :classified_as: Record
- :uri: http://www.cdisc.org/SDTM_MODEL_EVENTS/V6#CL_--SCONG
  :name: "--SCONG"
  :classified_as: Record
- :uri: http://www.cdisc.org/SDTM_MODEL_EVENTS/V6#CL_--SDISAB
  :name: "--SDISAB"
  :classified_as: Record
- :uri: http://www.cdisc.org/SDTM_MODEL_EVENTS/V6#CL_--SDTH
  :name: "--SDTH"
  :classified_as: Record
- :uri: http://www.cdisc.org/SDTM_MODEL_EVENTS/V6#CL_--SEV
  :name: "--SEV"
  :classified_as: Record
- :uri: http://www.cdisc.org/SDTM_MODEL_EVENTS/V6#CL_--SHOSP
  :name: "--SHOSP"
  :classified_as: Record
- :uri: http://www.cdisc.org/SDTM_MODEL_EVENTS/V6#CL_--SLIFE
  :name: "--SLIFE"
  :classified_as: Record
- :uri: http://www.cdisc.org/SDTM_MODEL_EVENTS/V6#CL_--SMIE
  :name: "--SMIE"
  :classified_as: Record
- :uri: http://www.cdisc.org/SDTM_MODEL_EVENTS/V6#CL_--SOD
  :name: "--SOD"
  :classified_as: Record
- :uri: http://www.cdisc.org/SDTM_MODEL_EVENTS/V6#CL_--TOX
  :name: "--TOX"
  :classified_as: None
- :uri: http://www.cdisc.org/SDTM_MODEL_EVENTS/V6#CL_--TOXGR
  :name: "--TOXGR"
  :classified_as: Record
- :uri: http://www.cdisc.org/SDTM_MODEL_EVENTS/V7#CL_--ACN
  :name: "--ACN"
  :classified_as: Record
- :uri: http://www.cdisc.org/SDTM_MODEL_EVENTS/V7#CL_--ACNDEV
  :name: "--ACNDEV"
  :classified_as: Record
- :uri: http://www.cdisc.org/SDTM_MODEL_EVENTS/V7#CL_--ACNOTH
  :name: "--ACNOTH"
  :classified_as: Record
- :uri: http://www.cdisc.org/SDTM_MODEL_EVENTS/V7#CL_--BDSYCD
  :name: "--BDSYCD"
  :classified_as: Variable
- :uri: http://www.cdisc.org/SDTM_MODEL_EVENTS/V7#CL_--BODSYS
  :name: "--BODSYS"
  :classified_as: Record
- :uri: http://www.cdisc.org/SDTM_MODEL_EVENTS/V7#CL_--CAT
  :name: "--CAT"
  :classified_as: Grouping
- :uri: http://www.cdisc.org/SDTM_MODEL_EVENTS/V7#CL_--CONTRT
  :name: "--CONTRT"
  :classified_as: Record
- :uri: http://www.cdisc.org/SDTM_MODEL_EVENTS/V7#CL_--DECOD
  :name: "--DECOD"
  :classified_as: Synonym
- :uri: http://www.cdisc.org/SDTM_MODEL_EVENTS/V7#CL_--DIR
  :name: "--DIR"
  :classified_as: Variable
- :uri: http://www.cdisc.org/SDTM_MODEL_EVENTS/V7#CL_--HLGT
  :name: "--HLGT"
  :classified_as: Variable
- :uri: http://www.cdisc.org/SDTM_MODEL_EVENTS/V7#CL_--HLGTCD
  :name: "--HLGTCD"
  :classified_as: Variable
- :uri: http://www.cdisc.org/SDTM_MODEL_EVENTS/V7#CL_--HLT
  :name: "--HLT"
  :classified_as: Variable
- :uri: http://www.cdisc.org/SDTM_MODEL_EVENTS/V7#CL_--HLTCD
  :name: "--HLTCD"
  :classified_as: Variable
- :uri: http://www.cdisc.org/SDTM_MODEL_EVENTS/V7#CL_--LAT
  :name: "--LAT"
  :classified_as: Variable
- :uri: http://www.cdisc.org/SDTM_MODEL_EVENTS/V7#CL_--LLT
  :name: "--LLT"
  :classified_as: Variable
- :uri: http://www.cdisc.org/SDTM_MODEL_EVENTS/V7#CL_--LLTCD
  :name: "--LLTCD"
  :classified_as: Variable
- :uri: http://www.cdisc.org/SDTM_MODEL_EVENTS/V7#CL_--LOC
  :name: "--LOC"
  :classified_as: Record
- :uri: http://www.cdisc.org/SDTM_MODEL_EVENTS/V7#CL_--MODIFY
  :name: "--MODIFY"
  :classified_as: Synonym
- :uri: http://www.cdisc.org/SDTM_MODEL_EVENTS/V7#CL_--OCCUR
  :name: "--OCCUR"
  :classified_as: Record
- :uri: http://www.cdisc.org/SDTM_MODEL_EVENTS/V7#CL_--OUT
  :name: "--OUT"
  :classified_as: Record
- :uri: http://www.cdisc.org/SDTM_MODEL_EVENTS/V7#CL_--PARTY
  :name: "--PARTY"
  :classified_as: Record
- :uri: http://www.cdisc.org/SDTM_MODEL_EVENTS/V7#CL_--PATT
  :name: "--PATT"
  :classified_as: Record
- :uri: http://www.cdisc.org/SDTM_MODEL_EVENTS/V7#CL_--PORTOT
  :name: "--PORTOT"
  :classified_as: Variable
- :uri: http://www.cdisc.org/SDTM_MODEL_EVENTS/V7#CL_--PRESP
  :name: "--PRESP"
  :classified_as: Variable
- :uri: http://www.cdisc.org/SDTM_MODEL_EVENTS/V7#CL_--PRTYID
  :name: "--PRTYID"
  :classified_as: Record
- :uri: http://www.cdisc.org/SDTM_MODEL_EVENTS/V7#CL_--PTCD
  :name: "--PTCD"
  :classified_as: Variable
- :uri: http://www.cdisc.org/SDTM_MODEL_EVENTS/V7#CL_--REASND
  :name: "--REASND"
  :classified_as: Record
- :uri: http://www.cdisc.org/SDTM_MODEL_EVENTS/V7#CL_--REL
  :name: "--REL"
  :classified_as: Record
- :uri: http://www.cdisc.org/SDTM_MODEL_EVENTS/V7#CL_--RELNST
  :name: "--RELNST"
  :classified_as: Record
- :uri: http://www.cdisc.org/SDTM_MODEL_EVENTS/V7#CL_--SCAN
  :name: "--SCAN"
  :classified_as: Record
- :uri: http://www.cdisc.org/SDTM_MODEL_EVENTS/V7#CL_--SCAT
  :name: "--SCAT"
  :classified_as: Grouping
- :uri: http://www.cdisc.org/SDTM_MODEL_EVENTS/V7#CL_--SCONG
  :name: "--SCONG"
  :classified_as: Record
- :uri: http://www.cdisc.org/SDTM_MODEL_EVENTS/V7#CL_--SDISAB
  :name: "--SDISAB"
  :classified_as: Record
- :uri: http://www.cdisc.org/SDTM_MODEL_EVENTS/V7#CL_--SDTH
  :name: "--SDTH"
  :classified_as: Record
- :uri: http://www.cdisc.org/SDTM_MODEL_EVENTS/V7#CL_--SER
  :name: "--SER"
  :classified_as: Record
- :uri: http://www.cdisc.org/SDTM_MODEL_EVENTS/V7#CL_--SEV
  :name: "--SEV"
  :classified_as: Record
- :uri: http://www.cdisc.org/SDTM_MODEL_EVENTS/V7#CL_--SHOSP
  :name: "--SHOSP"
  :classified_as: Record
- :uri: http://www.cdisc.org/SDTM_MODEL_EVENTS/V7#CL_--SLIFE
  :name: "--SLIFE"
  :classified_as: Record
- :uri: http://www.cdisc.org/SDTM_MODEL_EVENTS/V7#CL_--SMIE
  :name: "--SMIE"
  :classified_as: Record
- :uri: http://www.cdisc.org/SDTM_MODEL_EVENTS/V7#CL_--SOC
  :name: "--SOC"
  :classified_as: Variable
- :uri: http://www.cdisc.org/SDTM_MODEL_EVENTS/V7#CL_--SOCCD
  :name: "--SOCCD"
  :classified_as: Variable
- :uri: http://www.cdisc.org/SDTM_MODEL_EVENTS/V7#CL_--SOD
  :name: "--SOD"
  :classified_as: Record
- :uri: http://www.cdisc.org/SDTM_MODEL_EVENTS/V7#CL_--STAT
  :name: "--STAT"
  :classified_as: Record
- :uri: http://www.cdisc.org/SDTM_MODEL_EVENTS/V7#CL_--TERM
  :name: "--TERM"
  :classified_as: Topic
- :uri: http://www.cdisc.org/SDTM_MODEL_EVENTS/V7#CL_--TOX
  :name: "--TOX"
  :classified_as: Variable
- :uri: http://www.cdisc.org/SDTM_MODEL_EVENTS/V7#CL_--TOXGR
  :name: "--TOXGR"
  :classified_as: Record
- :uri: http://www.cdisc.org/SDTM_MODEL_EVENTS/V7#CL_--USCHFL
  :name: "--USCHFL"
  :classified_as: Record
- :uri: http://www.cdisc.org/SDTM_MODEL_FINDINGS/V1#CL_--BLFL
  :name: "--BLFL"
  :classified_as: Record
- :uri: http://www.cdisc.org/SDTM_MODEL_FINDINGS/V1#CL_--BODSYS
  :name: "--BODSYS"
  :classified_as: Record
- :uri: http://www.cdisc.org/SDTM_MODEL_FINDINGS/V1#CL_--CAT
  :name: "--CAT"
  :classified_as: Grouping
- :uri: http://www.cdisc.org/SDTM_MODEL_FINDINGS/V1#CL_--DRVFL
  :name: "--DRVFL"
  :classified_as: Record
- :uri: http://www.cdisc.org/SDTM_MODEL_FINDINGS/V1#CL_--DTHREL
  :name: "--DTHREL"
  :classified_as: Record
- :uri: http://www.cdisc.org/SDTM_MODEL_FINDINGS/V1#CL_--EVAL
  :name: "--EVAL"
  :classified_as: Record
- :uri: http://www.cdisc.org/SDTM_MODEL_FINDINGS/V1#CL_--FAST
  :name: "--FAST"
  :classified_as: Record
- :uri: http://www.cdisc.org/SDTM_MODEL_FINDINGS/V1#CL_--LLOQ
  :name: "--LLOQ"
  :classified_as: None
- :uri: http://www.cdisc.org/SDTM_MODEL_FINDINGS/V1#CL_--LOC
  :name: "--LOC"
  :classified_as: Record
- :uri: http://www.cdisc.org/SDTM_MODEL_FINDINGS/V1#CL_--LOINC
  :name: "--LOINC"
  :classified_as: None
- :uri: http://www.cdisc.org/SDTM_MODEL_FINDINGS/V1#CL_--METHOD
  :name: "--METHOD"
  :classified_as: Record
- :uri: http://www.cdisc.org/SDTM_MODEL_FINDINGS/V1#CL_--MODIFY
  :name: "--MODIFY"
  :classified_as: None
- :uri: http://www.cdisc.org/SDTM_MODEL_FINDINGS/V1#CL_--NAM
  :name: "--NAM"
  :classified_as: Record
- :uri: http://www.cdisc.org/SDTM_MODEL_FINDINGS/V1#CL_--NRIND
  :name: "--NRIND"
  :classified_as: None
- :uri: http://www.cdisc.org/SDTM_MODEL_FINDINGS/V1#CL_--OBJ
  :name: "--OBJ"
  :classified_as: Record
- :uri: http://www.cdisc.org/SDTM_MODEL_FINDINGS/V1#CL_--ORNRHI
  :name: "--ORNRHI"
  :classified_as: None
- :uri: http://www.cdisc.org/SDTM_MODEL_FINDINGS/V1#CL_--ORNRLO
  :name: "--ORNRLO"
  :classified_as: None
- :uri: http://www.cdisc.org/SDTM_MODEL_FINDINGS/V1#CL_--ORRES
  :name: "--ORRES"
  :classified_as: Result
- :uri: http://www.cdisc.org/SDTM_MODEL_FINDINGS/V1#CL_--ORRESU
  :name: "--ORRESU"
  :classified_as: None
- :uri: http://www.cdisc.org/SDTM_MODEL_FINDINGS/V1#CL_--POS
  :name: "--POS"
  :classified_as: Record
- :uri: http://www.cdisc.org/SDTM_MODEL_FINDINGS/V1#CL_--REASND
  :name: "--REASND"
  :classified_as: Record
- :uri: http://www.cdisc.org/SDTM_MODEL_FINDINGS/V1#CL_--RESCAT
  :name: "--RESCAT"
  :classified_as: None
- :uri: http://www.cdisc.org/SDTM_MODEL_FINDINGS/V1#CL_--SCAT
  :name: "--SCAT"
  :classified_as: Grouping
- :uri: http://www.cdisc.org/SDTM_MODEL_FINDINGS/V1#CL_--SEV
  :name: "--SEV"
  :classified_as: Record
- :uri: http://www.cdisc.org/SDTM_MODEL_FINDINGS/V1#CL_--SPCCND
  :name: "--SPCCND"
  :classified_as: Record
- :uri: http://www.cdisc.org/SDTM_MODEL_FINDINGS/V1#CL_--SPEC
  :name: "--SPEC"
  :classified_as: Record
- :uri: http://www.cdisc.org/SDTM_MODEL_FINDINGS/V1#CL_--STAT
  :name: "--STAT"
  :classified_as: Record
- :uri: http://www.cdisc.org/SDTM_MODEL_FINDINGS/V1#CL_--STNRC
  :name: "--STNRC"
  :classified_as: None
- :uri: http://www.cdisc.org/SDTM_MODEL_FINDINGS/V1#CL_--STNRHI
  :name: "--STNRHI"
  :classified_as: None
- :uri: http://www.cdisc.org/SDTM_MODEL_FINDINGS/V1#CL_--STNRLO
  :name: "--STNRLO"
  :classified_as: None
- :uri: http://www.cdisc.org/SDTM_MODEL_FINDINGS/V1#CL_--STRESC
  :name: "--STRESC"
  :classified_as: Result
- :uri: http://www.cdisc.org/SDTM_MODEL_FINDINGS/V1#CL_--STRESN
  :name: "--STRESN"
  :classified_as: Result
- :uri: http://www.cdisc.org/SDTM_MODEL_FINDINGS/V1#CL_--STRESU
  :name: "--STRESU"
  :classified_as: None
- :uri: http://www.cdisc.org/SDTM_MODEL_FINDINGS/V1#CL_--TEST
  :name: "--TEST"
  :classified_as: None
- :uri: http://www.cdisc.org/SDTM_MODEL_FINDINGS/V1#CL_--TESTCD
  :name: "--TESTCD"
  :classified_as: Topic
- :uri: http://www.cdisc.org/SDTM_MODEL_FINDINGS/V1#CL_--TOX
  :name: "--TOX"
  :classified_as: None
- :uri: http://www.cdisc.org/SDTM_MODEL_FINDINGS/V1#CL_--TOXGR
  :name: "--TOXGR"
  :classified_as: None
- :uri: http://www.cdisc.org/SDTM_MODEL_FINDINGS/V1#CL_--XFN
  :name: "--XFN"
  :classified_as: Record
- :uri: http://www.cdisc.org/SDTM_MODEL_FINDINGS/V2#CL_--ACPTFL
  :name: "--ACPTFL"
  :classified_as: Record
- :uri: http://www.cdisc.org/SDTM_MODEL_FINDINGS/V2#CL_--ANTREG
  :name: "--ANTREG"
  :classified_as: None
- :uri: http://www.cdisc.org/SDTM_MODEL_FINDINGS/V2#CL_--BLFL
  :name: "--BLFL"
  :classified_as: Record
- :uri: http://www.cdisc.org/SDTM_MODEL_FINDINGS/V2#CL_--BODSYS
  :name: "--BODSYS"
  :classified_as: Record
- :uri: http://www.cdisc.org/SDTM_MODEL_FINDINGS/V2#CL_--CAT
  :name: "--CAT"
  :classified_as: Grouping
- :uri: http://www.cdisc.org/SDTM_MODEL_FINDINGS/V2#CL_--CSTATE
  :name: "--CSTATE"
  :classified_as: Record
- :uri: http://www.cdisc.org/SDTM_MODEL_FINDINGS/V2#CL_--DIR
  :name: "--DIR"
  :classified_as: None
- :uri: http://www.cdisc.org/SDTM_MODEL_FINDINGS/V2#CL_--DRVFL
  :name: "--DRVFL"
  :classified_as: Record
- :uri: http://www.cdisc.org/SDTM_MODEL_FINDINGS/V2#CL_--DTHREL
  :name: "--DTHREL"
  :classified_as: Record
- :uri: http://www.cdisc.org/SDTM_MODEL_FINDINGS/V2#CL_--EVAL
  :name: "--EVAL"
  :classified_as: Record
- :uri: http://www.cdisc.org/SDTM_MODEL_FINDINGS/V2#CL_--EVALID
  :name: "--EVALID"
  :classified_as: None
- :uri: http://www.cdisc.org/SDTM_MODEL_FINDINGS/V2#CL_--EXCLFL
  :name: "--EXCLFL"
  :classified_as: Record
- :uri: http://www.cdisc.org/SDTM_MODEL_FINDINGS/V2#CL_--FAST
  :name: "--FAST"
  :classified_as: Record
- :uri: http://www.cdisc.org/SDTM_MODEL_FINDINGS/V2#CL_--LAT
  :name: "--LAT"
  :classified_as: None
- :uri: http://www.cdisc.org/SDTM_MODEL_FINDINGS/V2#CL_--LEAD
  :name: "--LEAD"
  :classified_as: Record
- :uri: http://www.cdisc.org/SDTM_MODEL_FINDINGS/V2#CL_--LLOQ
  :name: "--LLOQ"
  :classified_as: None
- :uri: http://www.cdisc.org/SDTM_MODEL_FINDINGS/V2#CL_--LOC
  :name: "--LOC"
  :classified_as: Record
- :uri: http://www.cdisc.org/SDTM_MODEL_FINDINGS/V2#CL_--LOINC
  :name: "--LOINC"
  :classified_as: None
- :uri: http://www.cdisc.org/SDTM_MODEL_FINDINGS/V2#CL_--METHOD
  :name: "--METHOD"
  :classified_as: Record
- :uri: http://www.cdisc.org/SDTM_MODEL_FINDINGS/V2#CL_--MODIFY
  :name: "--MODIFY"
  :classified_as: None
- :uri: http://www.cdisc.org/SDTM_MODEL_FINDINGS/V2#CL_--NAM
  :name: "--NAM"
  :classified_as: Record
- :uri: http://www.cdisc.org/SDTM_MODEL_FINDINGS/V2#CL_--NRIND
  :name: "--NRIND"
  :classified_as: None
- :uri: http://www.cdisc.org/SDTM_MODEL_FINDINGS/V2#CL_--ORNRHI
  :name: "--ORNRHI"
  :classified_as: None
- :uri: http://www.cdisc.org/SDTM_MODEL_FINDINGS/V2#CL_--ORNRLO
  :name: "--ORNRLO"
  :classified_as: None
- :uri: http://www.cdisc.org/SDTM_MODEL_FINDINGS/V2#CL_--ORRES
  :name: "--ORRES"
  :classified_as: Result
- :uri: http://www.cdisc.org/SDTM_MODEL_FINDINGS/V2#CL_--ORRESU
  :name: "--ORRESU"
  :classified_as: None
- :uri: http://www.cdisc.org/SDTM_MODEL_FINDINGS/V2#CL_--PORTOT
  :name: "--PORTOT"
  :classified_as: None
- :uri: http://www.cdisc.org/SDTM_MODEL_FINDINGS/V2#CL_--POS
  :name: "--POS"
  :classified_as: Record
- :uri: http://www.cdisc.org/SDTM_MODEL_FINDINGS/V2#CL_--REASEX
  :name: "--REASEX"
  :classified_as: Record
- :uri: http://www.cdisc.org/SDTM_MODEL_FINDINGS/V2#CL_--REASND
  :name: "--REASND"
  :classified_as: Record
- :uri: http://www.cdisc.org/SDTM_MODEL_FINDINGS/V2#CL_--RESCAT
  :name: "--RESCAT"
  :classified_as: None
- :uri: http://www.cdisc.org/SDTM_MODEL_FINDINGS/V2#CL_--SCAT
  :name: "--SCAT"
  :classified_as: Grouping
- :uri: http://www.cdisc.org/SDTM_MODEL_FINDINGS/V2#CL_--SEV
  :name: "--SEV"
  :classified_as: Record
- :uri: http://www.cdisc.org/SDTM_MODEL_FINDINGS/V2#CL_--SPCCND
  :name: "--SPCCND"
  :classified_as: Record
- :uri: http://www.cdisc.org/SDTM_MODEL_FINDINGS/V2#CL_--SPCUFL
  :name: "--SPCUFL"
  :classified_as: Record
- :uri: http://www.cdisc.org/SDTM_MODEL_FINDINGS/V2#CL_--SPEC
  :name: "--SPEC"
  :classified_as: Record
- :uri: http://www.cdisc.org/SDTM_MODEL_FINDINGS/V2#CL_--STAT
  :name: "--STAT"
  :classified_as: Record
- :uri: http://www.cdisc.org/SDTM_MODEL_FINDINGS/V2#CL_--STNRC
  :name: "--STNRC"
  :classified_as: None
- :uri: http://www.cdisc.org/SDTM_MODEL_FINDINGS/V2#CL_--STNRHI
  :name: "--STNRHI"
  :classified_as: None
- :uri: http://www.cdisc.org/SDTM_MODEL_FINDINGS/V2#CL_--STNRLO
  :name: "--STNRLO"
  :classified_as: None
- :uri: http://www.cdisc.org/SDTM_MODEL_FINDINGS/V2#CL_--STRESC
  :name: "--STRESC"
  :classified_as: Result
- :uri: http://www.cdisc.org/SDTM_MODEL_FINDINGS/V2#CL_--STRESN
  :name: "--STRESN"
  :classified_as: Result
- :uri: http://www.cdisc.org/SDTM_MODEL_FINDINGS/V2#CL_--STRESU
  :name: "--STRESU"
  :classified_as: None
- :uri: http://www.cdisc.org/SDTM_MODEL_FINDINGS/V2#CL_--TEST
  :name: "--TEST"
  :classified_as: None
- :uri: http://www.cdisc.org/SDTM_MODEL_FINDINGS/V2#CL_--TESTCD
  :name: "--TESTCD"
  :classified_as: Topic
- :uri: http://www.cdisc.org/SDTM_MODEL_FINDINGS/V2#CL_--TOX
  :name: "--TOX"
  :classified_as: None
- :uri: http://www.cdisc.org/SDTM_MODEL_FINDINGS/V2#CL_--TOXGR
  :name: "--TOXGR"
  :classified_as: Record
- :uri: http://www.cdisc.org/SDTM_MODEL_FINDINGS/V2#CL_--XFN
  :name: "--XFN"
  :classified_as: Record
- :uri: http://www.cdisc.org/SDTM_MODEL_FINDINGS/V3#CL_--ACPTFL
  :name: "--ACPTFL"
  :classified_as: Record
- :uri: http://www.cdisc.org/SDTM_MODEL_FINDINGS/V3#CL_--ANMETH
  :name: "--ANMETH"
  :classified_as: Record
- :uri: http://www.cdisc.org/SDTM_MODEL_FINDINGS/V3#CL_--ANTREG
  :name: "--ANTREG"
  :classified_as: None
- :uri: http://www.cdisc.org/SDTM_MODEL_FINDINGS/V3#CL_--BLFL
  :name: "--BLFL"
  :classified_as: Record
- :uri: http://www.cdisc.org/SDTM_MODEL_FINDINGS/V3#CL_--BODSYS
  :name: "--BODSYS"
  :classified_as: Record
- :uri: http://www.cdisc.org/SDTM_MODEL_FINDINGS/V3#CL_--CAT
  :name: "--CAT"
  :classified_as: Grouping
- :uri: http://www.cdisc.org/SDTM_MODEL_FINDINGS/V3#CL_--CSTATE
  :name: "--CSTATE"
  :classified_as: Record
- :uri: http://www.cdisc.org/SDTM_MODEL_FINDINGS/V3#CL_--DIR
  :name: "--DIR"
  :classified_as: None
- :uri: http://www.cdisc.org/SDTM_MODEL_FINDINGS/V3#CL_--DRVFL
  :name: "--DRVFL"
  :classified_as: Record
- :uri: http://www.cdisc.org/SDTM_MODEL_FINDINGS/V3#CL_--DTHREL
  :name: "--DTHREL"
  :classified_as: Record
- :uri: http://www.cdisc.org/SDTM_MODEL_FINDINGS/V3#CL_--EVAL
  :name: "--EVAL"
  :classified_as: Record
- :uri: http://www.cdisc.org/SDTM_MODEL_FINDINGS/V3#CL_--EVALID
  :name: "--EVALID"
  :classified_as: None
- :uri: http://www.cdisc.org/SDTM_MODEL_FINDINGS/V3#CL_--EXCLFL
  :name: "--EXCLFL"
  :classified_as: Record
- :uri: http://www.cdisc.org/SDTM_MODEL_FINDINGS/V3#CL_--FAST
  :name: "--FAST"
  :classified_as: Record
- :uri: http://www.cdisc.org/SDTM_MODEL_FINDINGS/V3#CL_--LAT
  :name: "--LAT"
  :classified_as: None
- :uri: http://www.cdisc.org/SDTM_MODEL_FINDINGS/V3#CL_--LEAD
  :name: "--LEAD"
  :classified_as: Record
- :uri: http://www.cdisc.org/SDTM_MODEL_FINDINGS/V3#CL_--LLOQ
  :name: "--LLOQ"
  :classified_as: None
- :uri: http://www.cdisc.org/SDTM_MODEL_FINDINGS/V3#CL_--LOC
  :name: "--LOC"
  :classified_as: Record
- :uri: http://www.cdisc.org/SDTM_MODEL_FINDINGS/V3#CL_--LOINC
  :name: "--LOINC"
  :classified_as: None
- :uri: http://www.cdisc.org/SDTM_MODEL_FINDINGS/V3#CL_--METHOD
  :name: "--METHOD"
  :classified_as: Record
- :uri: http://www.cdisc.org/SDTM_MODEL_FINDINGS/V3#CL_--MODIFY
  :name: "--MODIFY"
  :classified_as: None
- :uri: http://www.cdisc.org/SDTM_MODEL_FINDINGS/V3#CL_--NAM
  :name: "--NAM"
  :classified_as: Record
- :uri: http://www.cdisc.org/SDTM_MODEL_FINDINGS/V3#CL_--NRIND
  :name: "--NRIND"
  :classified_as: None
- :uri: http://www.cdisc.org/SDTM_MODEL_FINDINGS/V3#CL_--ORNRHI
  :name: "--ORNRHI"
  :classified_as: None
- :uri: http://www.cdisc.org/SDTM_MODEL_FINDINGS/V3#CL_--ORNRLO
  :name: "--ORNRLO"
  :classified_as: None
- :uri: http://www.cdisc.org/SDTM_MODEL_FINDINGS/V3#CL_--ORRES
  :name: "--ORRES"
  :classified_as: Result
- :uri: http://www.cdisc.org/SDTM_MODEL_FINDINGS/V3#CL_--ORRESU
  :name: "--ORRESU"
  :classified_as: None
- :uri: http://www.cdisc.org/SDTM_MODEL_FINDINGS/V3#CL_--PORTOT
  :name: "--PORTOT"
  :classified_as: None
- :uri: http://www.cdisc.org/SDTM_MODEL_FINDINGS/V3#CL_--POS
  :name: "--POS"
  :classified_as: Record
- :uri: http://www.cdisc.org/SDTM_MODEL_FINDINGS/V3#CL_--REASEX
  :name: "--REASEX"
  :classified_as: Record
- :uri: http://www.cdisc.org/SDTM_MODEL_FINDINGS/V3#CL_--REASND
  :name: "--REASND"
  :classified_as: Record
- :uri: http://www.cdisc.org/SDTM_MODEL_FINDINGS/V3#CL_--RESCAT
  :name: "--RESCAT"
  :classified_as: None
- :uri: http://www.cdisc.org/SDTM_MODEL_FINDINGS/V3#CL_--RUNID
  :name: "--RUNID"
  :classified_as: Record
- :uri: http://www.cdisc.org/SDTM_MODEL_FINDINGS/V3#CL_--SCAT
  :name: "--SCAT"
  :classified_as: Grouping
- :uri: http://www.cdisc.org/SDTM_MODEL_FINDINGS/V3#CL_--SEV
  :name: "--SEV"
  :classified_as: Record
- :uri: http://www.cdisc.org/SDTM_MODEL_FINDINGS/V3#CL_--SPCCND
  :name: "--SPCCND"
  :classified_as: Record
- :uri: http://www.cdisc.org/SDTM_MODEL_FINDINGS/V3#CL_--SPCUFL
  :name: "--SPCUFL"
  :classified_as: Record
- :uri: http://www.cdisc.org/SDTM_MODEL_FINDINGS/V3#CL_--SPEC
  :name: "--SPEC"
  :classified_as: Record
- :uri: http://www.cdisc.org/SDTM_MODEL_FINDINGS/V3#CL_--STAT
  :name: "--STAT"
  :classified_as: Record
- :uri: http://www.cdisc.org/SDTM_MODEL_FINDINGS/V3#CL_--STNRC
  :name: "--STNRC"
  :classified_as: None
- :uri: http://www.cdisc.org/SDTM_MODEL_FINDINGS/V3#CL_--STNRHI
  :name: "--STNRHI"
  :classified_as: None
- :uri: http://www.cdisc.org/SDTM_MODEL_FINDINGS/V3#CL_--STNRLO
  :name: "--STNRLO"
  :classified_as: None
- :uri: http://www.cdisc.org/SDTM_MODEL_FINDINGS/V3#CL_--STRESC
  :name: "--STRESC"
  :classified_as: Result
- :uri: http://www.cdisc.org/SDTM_MODEL_FINDINGS/V3#CL_--STRESN
  :name: "--STRESN"
  :classified_as: Result
- :uri: http://www.cdisc.org/SDTM_MODEL_FINDINGS/V3#CL_--STRESU
  :name: "--STRESU"
  :classified_as: None
- :uri: http://www.cdisc.org/SDTM_MODEL_FINDINGS/V3#CL_--TEST
  :name: "--TEST"
  :classified_as: None
- :uri: http://www.cdisc.org/SDTM_MODEL_FINDINGS/V3#CL_--TESTCD
  :name: "--TESTCD"
  :classified_as: Topic
- :uri: http://www.cdisc.org/SDTM_MODEL_FINDINGS/V3#CL_--TOX
  :name: "--TOX"
  :classified_as: None
- :uri: http://www.cdisc.org/SDTM_MODEL_FINDINGS/V3#CL_--TOXGR
  :name: "--TOXGR"
  :classified_as: Record
- :uri: http://www.cdisc.org/SDTM_MODEL_FINDINGS/V3#CL_--TSTDTL
  :name: "--TSTDTL"
  :classified_as: None
- :uri: http://www.cdisc.org/SDTM_MODEL_FINDINGS/V3#CL_--ULOQ
  :name: "--ULOQ"
  :classified_as: None
- :uri: http://www.cdisc.org/SDTM_MODEL_FINDINGS/V3#CL_--XFN
  :name: "--XFN"
  :classified_as: Record
- :uri: http://www.cdisc.org/SDTM_MODEL_FINDINGS/V4#CL_--ACPTFL
  :name: "--ACPTFL"
  :classified_as: Record
- :uri: http://www.cdisc.org/SDTM_MODEL_FINDINGS/V4#CL_--ANMETH
  :name: "--ANMETH"
  :classified_as: Record
- :uri: http://www.cdisc.org/SDTM_MODEL_FINDINGS/V4#CL_--ANTREG
  :name: "--ANTREG"
  :classified_as: None
- :uri: http://www.cdisc.org/SDTM_MODEL_FINDINGS/V4#CL_--BLFL
  :name: "--BLFL"
  :classified_as: Record
- :uri: http://www.cdisc.org/SDTM_MODEL_FINDINGS/V4#CL_--BODSYS
  :name: "--BODSYS"
  :classified_as: Record
- :uri: http://www.cdisc.org/SDTM_MODEL_FINDINGS/V4#CL_--CAT
  :name: "--CAT"
  :classified_as: Grouping
- :uri: http://www.cdisc.org/SDTM_MODEL_FINDINGS/V4#CL_--CHRON
  :name: "--CHRON"
  :classified_as: None
- :uri: http://www.cdisc.org/SDTM_MODEL_FINDINGS/V4#CL_--CSTATE
  :name: "--CSTATE"
  :classified_as: Record
- :uri: http://www.cdisc.org/SDTM_MODEL_FINDINGS/V4#CL_--DIR
  :name: "--DIR"
  :classified_as: None
- :uri: http://www.cdisc.org/SDTM_MODEL_FINDINGS/V4#CL_--DISTR
  :name: "--DISTR"
  :classified_as: None
- :uri: http://www.cdisc.org/SDTM_MODEL_FINDINGS/V4#CL_--DRVFL
  :name: "--DRVFL"
  :classified_as: Record
- :uri: http://www.cdisc.org/SDTM_MODEL_FINDINGS/V4#CL_--DTHREL
  :name: "--DTHREL"
  :classified_as: Record
- :uri: http://www.cdisc.org/SDTM_MODEL_FINDINGS/V4#CL_--EVAL
  :name: "--EVAL"
  :classified_as: Record
- :uri: http://www.cdisc.org/SDTM_MODEL_FINDINGS/V4#CL_--EVALID
  :name: "--EVALID"
  :classified_as: None
- :uri: http://www.cdisc.org/SDTM_MODEL_FINDINGS/V4#CL_--EXCLFL
  :name: "--EXCLFL"
  :classified_as: Record
- :uri: http://www.cdisc.org/SDTM_MODEL_FINDINGS/V4#CL_--FAST
  :name: "--FAST"
  :classified_as: Record
- :uri: http://www.cdisc.org/SDTM_MODEL_FINDINGS/V4#CL_--LAT
  :name: "--LAT"
  :classified_as: None
- :uri: http://www.cdisc.org/SDTM_MODEL_FINDINGS/V4#CL_--LEAD
  :name: "--LEAD"
  :classified_as: Record
- :uri: http://www.cdisc.org/SDTM_MODEL_FINDINGS/V4#CL_--LLOQ
  :name: "--LLOQ"
  :classified_as: None
- :uri: http://www.cdisc.org/SDTM_MODEL_FINDINGS/V4#CL_--LOBXFL
  :name: "--LOBXFL"
  :classified_as: Record
- :uri: http://www.cdisc.org/SDTM_MODEL_FINDINGS/V4#CL_--LOC
  :name: "--LOC"
  :classified_as: Record
- :uri: http://www.cdisc.org/SDTM_MODEL_FINDINGS/V4#CL_--LOINC
  :name: "--LOINC"
  :classified_as: None
- :uri: http://www.cdisc.org/SDTM_MODEL_FINDINGS/V4#CL_--METHOD
  :name: "--METHOD"
  :classified_as: Record
- :uri: http://www.cdisc.org/SDTM_MODEL_FINDINGS/V4#CL_--MODIFY
  :name: "--MODIFY"
  :classified_as: None
- :uri: http://www.cdisc.org/SDTM_MODEL_FINDINGS/V4#CL_--NAM
  :name: "--NAM"
  :classified_as: Record
- :uri: http://www.cdisc.org/SDTM_MODEL_FINDINGS/V4#CL_--NRIND
  :name: "--NRIND"
  :classified_as: None
- :uri: http://www.cdisc.org/SDTM_MODEL_FINDINGS/V4#CL_--ORNRHI
  :name: "--ORNRHI"
  :classified_as: None
- :uri: http://www.cdisc.org/SDTM_MODEL_FINDINGS/V4#CL_--ORNRLO
  :name: "--ORNRLO"
  :classified_as: None
- :uri: http://www.cdisc.org/SDTM_MODEL_FINDINGS/V4#CL_--ORREF
  :name: "--ORREF"
  :classified_as: None
- :uri: http://www.cdisc.org/SDTM_MODEL_FINDINGS/V4#CL_--ORRES
  :name: "--ORRES"
  :classified_as: Result
- :uri: http://www.cdisc.org/SDTM_MODEL_FINDINGS/V4#CL_--ORRESU
  :name: "--ORRESU"
  :classified_as: None
- :uri: http://www.cdisc.org/SDTM_MODEL_FINDINGS/V4#CL_--PORTOT
  :name: "--PORTOT"
  :classified_as: None
- :uri: http://www.cdisc.org/SDTM_MODEL_FINDINGS/V4#CL_--POS
  :name: "--POS"
  :classified_as: Record
- :uri: http://www.cdisc.org/SDTM_MODEL_FINDINGS/V4#CL_--REASEX
  :name: "--REASEX"
  :classified_as: Record
- :uri: http://www.cdisc.org/SDTM_MODEL_FINDINGS/V4#CL_--REASND
  :name: "--REASND"
  :classified_as: Record
- :uri: http://www.cdisc.org/SDTM_MODEL_FINDINGS/V4#CL_--REPNUM
  :name: "--REPNUM"
  :classified_as: Record
- :uri: http://www.cdisc.org/SDTM_MODEL_FINDINGS/V4#CL_--RESCAT
  :name: "--RESCAT"
  :classified_as: None
- :uri: http://www.cdisc.org/SDTM_MODEL_FINDINGS/V4#CL_--RUNID
  :name: "--RUNID"
  :classified_as: Record
- :uri: http://www.cdisc.org/SDTM_MODEL_FINDINGS/V4#CL_--SCAT
  :name: "--SCAT"
  :classified_as: Grouping
- :uri: http://www.cdisc.org/SDTM_MODEL_FINDINGS/V4#CL_--SEV
  :name: "--SEV"
  :classified_as: Record
- :uri: http://www.cdisc.org/SDTM_MODEL_FINDINGS/V4#CL_--SPCCND
  :name: "--SPCCND"
  :classified_as: Record
- :uri: http://www.cdisc.org/SDTM_MODEL_FINDINGS/V4#CL_--SPCUFL
  :name: "--SPCUFL"
  :classified_as: Record
- :uri: http://www.cdisc.org/SDTM_MODEL_FINDINGS/V4#CL_--SPEC
  :name: "--SPEC"
  :classified_as: Record
- :uri: http://www.cdisc.org/SDTM_MODEL_FINDINGS/V4#CL_--STAT
  :name: "--STAT"
  :classified_as: Record
- :uri: http://www.cdisc.org/SDTM_MODEL_FINDINGS/V4#CL_--STNRC
  :name: "--STNRC"
  :classified_as: None
- :uri: http://www.cdisc.org/SDTM_MODEL_FINDINGS/V4#CL_--STNRHI
  :name: "--STNRHI"
  :classified_as: None
- :uri: http://www.cdisc.org/SDTM_MODEL_FINDINGS/V4#CL_--STNRLO
  :name: "--STNRLO"
  :classified_as: None
- :uri: http://www.cdisc.org/SDTM_MODEL_FINDINGS/V4#CL_--STREFC
  :name: "--STREFC"
  :classified_as: None
- :uri: http://www.cdisc.org/SDTM_MODEL_FINDINGS/V4#CL_--STREFN
  :name: "--STREFN"
  :classified_as: None
- :uri: http://www.cdisc.org/SDTM_MODEL_FINDINGS/V4#CL_--STRESC
  :name: "--STRESC"
  :classified_as: Result
- :uri: http://www.cdisc.org/SDTM_MODEL_FINDINGS/V4#CL_--STRESN
  :name: "--STRESN"
  :classified_as: Result
- :uri: http://www.cdisc.org/SDTM_MODEL_FINDINGS/V4#CL_--STRESU
  :name: "--STRESU"
  :classified_as: None
- :uri: http://www.cdisc.org/SDTM_MODEL_FINDINGS/V4#CL_--TEST
  :name: "--TEST"
  :classified_as: None
- :uri: http://www.cdisc.org/SDTM_MODEL_FINDINGS/V4#CL_--TESTCD
  :name: "--TESTCD"
  :classified_as: Topic
- :uri: http://www.cdisc.org/SDTM_MODEL_FINDINGS/V4#CL_--TOX
  :name: "--TOX"
  :classified_as: None
- :uri: http://www.cdisc.org/SDTM_MODEL_FINDINGS/V4#CL_--TOXGR
  :name: "--TOXGR"
  :classified_as: Record
- :uri: http://www.cdisc.org/SDTM_MODEL_FINDINGS/V4#CL_--TSTDTL
  :name: "--TSTDTL"
  :classified_as: None
- :uri: http://www.cdisc.org/SDTM_MODEL_FINDINGS/V4#CL_--ULOQ
  :name: "--ULOQ"
  :classified_as: None
- :uri: http://www.cdisc.org/SDTM_MODEL_FINDINGS/V4#CL_--USCHFL
  :name: "--USCHFL"
  :classified_as: Record
- :uri: http://www.cdisc.org/SDTM_MODEL_FINDINGS/V4#CL_--XFN
  :name: "--XFN"
  :classified_as: Record
- :uri: http://www.cdisc.org/SDTM_MODEL_FINDINGS/V5#CL_--ACPTFL
  :name: "--ACPTFL"
  :classified_as: Record
- :uri: http://www.cdisc.org/SDTM_MODEL_FINDINGS/V5#CL_--ANMETH
  :name: "--ANMETH"
  :classified_as: Record
- :uri: http://www.cdisc.org/SDTM_MODEL_FINDINGS/V5#CL_--ANTREG
  :name: "--ANTREG"
  :classified_as: None
- :uri: http://www.cdisc.org/SDTM_MODEL_FINDINGS/V5#CL_--BLFL
  :name: "--BLFL"
  :classified_as: Record
- :uri: http://www.cdisc.org/SDTM_MODEL_FINDINGS/V5#CL_--BODSYS
  :name: "--BODSYS"
  :classified_as: Record
- :uri: http://www.cdisc.org/SDTM_MODEL_FINDINGS/V5#CL_--CAT
  :name: "--CAT"
  :classified_as: Grouping
- :uri: http://www.cdisc.org/SDTM_MODEL_FINDINGS/V5#CL_--CHRON
  :name: "--CHRON"
  :classified_as: None
- :uri: http://www.cdisc.org/SDTM_MODEL_FINDINGS/V5#CL_--CSTATE
  :name: "--CSTATE"
  :classified_as: Record
- :uri: http://www.cdisc.org/SDTM_MODEL_FINDINGS/V5#CL_--DIR
  :name: "--DIR"
  :classified_as: None
- :uri: http://www.cdisc.org/SDTM_MODEL_FINDINGS/V5#CL_--DISTR
  :name: "--DISTR"
  :classified_as: None
- :uri: http://www.cdisc.org/SDTM_MODEL_FINDINGS/V5#CL_--DRVFL
  :name: "--DRVFL"
  :classified_as: Record
- :uri: http://www.cdisc.org/SDTM_MODEL_FINDINGS/V5#CL_--DTHREL
  :name: "--DTHREL"
  :classified_as: Record
- :uri: http://www.cdisc.org/SDTM_MODEL_FINDINGS/V5#CL_--EVAL
  :name: "--EVAL"
  :classified_as: Record
- :uri: http://www.cdisc.org/SDTM_MODEL_FINDINGS/V5#CL_--EVALID
  :name: "--EVALID"
  :classified_as: None
- :uri: http://www.cdisc.org/SDTM_MODEL_FINDINGS/V5#CL_--EXCLFL
  :name: "--EXCLFL"
  :classified_as: Record
- :uri: http://www.cdisc.org/SDTM_MODEL_FINDINGS/V5#CL_--FAST
  :name: "--FAST"
  :classified_as: Record
- :uri: http://www.cdisc.org/SDTM_MODEL_FINDINGS/V5#CL_--LAT
  :name: "--LAT"
  :classified_as: None
- :uri: http://www.cdisc.org/SDTM_MODEL_FINDINGS/V5#CL_--LEAD
  :name: "--LEAD"
  :classified_as: Record
- :uri: http://www.cdisc.org/SDTM_MODEL_FINDINGS/V5#CL_--LLOQ
  :name: "--LLOQ"
  :classified_as: None
- :uri: http://www.cdisc.org/SDTM_MODEL_FINDINGS/V5#CL_--LOBXFL
  :name: "--LOBXFL"
  :classified_as: Record
- :uri: http://www.cdisc.org/SDTM_MODEL_FINDINGS/V5#CL_--LOC
  :name: "--LOC"
  :classified_as: Record
- :uri: http://www.cdisc.org/SDTM_MODEL_FINDINGS/V5#CL_--LOINC
  :name: "--LOINC"
  :classified_as: None
- :uri: http://www.cdisc.org/SDTM_MODEL_FINDINGS/V5#CL_--METHOD
  :name: "--METHOD"
  :classified_as: Record
- :uri: http://www.cdisc.org/SDTM_MODEL_FINDINGS/V5#CL_--MODIFY
  :name: "--MODIFY"
  :classified_as: None
- :uri: http://www.cdisc.org/SDTM_MODEL_FINDINGS/V5#CL_--NAM
  :name: "--NAM"
  :classified_as: Record
- :uri: http://www.cdisc.org/SDTM_MODEL_FINDINGS/V5#CL_--NRIND
  :name: "--NRIND"
  :classified_as: None
- :uri: http://www.cdisc.org/SDTM_MODEL_FINDINGS/V5#CL_--ORNRHI
  :name: "--ORNRHI"
  :classified_as: None
- :uri: http://www.cdisc.org/SDTM_MODEL_FINDINGS/V5#CL_--ORNRLO
  :name: "--ORNRLO"
  :classified_as: None
- :uri: http://www.cdisc.org/SDTM_MODEL_FINDINGS/V5#CL_--ORREF
  :name: "--ORREF"
  :classified_as: None
- :uri: http://www.cdisc.org/SDTM_MODEL_FINDINGS/V5#CL_--ORRES
  :name: "--ORRES"
  :classified_as: Result
- :uri: http://www.cdisc.org/SDTM_MODEL_FINDINGS/V5#CL_--ORRESU
  :name: "--ORRESU"
  :classified_as: None
- :uri: http://www.cdisc.org/SDTM_MODEL_FINDINGS/V5#CL_--PORTOT
  :name: "--PORTOT"
  :classified_as: None
- :uri: http://www.cdisc.org/SDTM_MODEL_FINDINGS/V5#CL_--POS
  :name: "--POS"
  :classified_as: Record
- :uri: http://www.cdisc.org/SDTM_MODEL_FINDINGS/V5#CL_--REASEX
  :name: "--REASEX"
  :classified_as: Record
- :uri: http://www.cdisc.org/SDTM_MODEL_FINDINGS/V5#CL_--REASND
  :name: "--REASND"
  :classified_as: Record
- :uri: http://www.cdisc.org/SDTM_MODEL_FINDINGS/V5#CL_--REPNUM
  :name: "--REPNUM"
  :classified_as: Record
- :uri: http://www.cdisc.org/SDTM_MODEL_FINDINGS/V5#CL_--RESCAT
  :name: "--RESCAT"
  :classified_as: None
- :uri: http://www.cdisc.org/SDTM_MODEL_FINDINGS/V5#CL_--RESLOC
  :name: "--RESLOC"
  :classified_as: Result
- :uri: http://www.cdisc.org/SDTM_MODEL_FINDINGS/V5#CL_--RUNID
  :name: "--RUNID"
  :classified_as: Record
- :uri: http://www.cdisc.org/SDTM_MODEL_FINDINGS/V5#CL_--SCAT
  :name: "--SCAT"
  :classified_as: Grouping
- :uri: http://www.cdisc.org/SDTM_MODEL_FINDINGS/V5#CL_--SEV
  :name: "--SEV"
  :classified_as: Record
- :uri: http://www.cdisc.org/SDTM_MODEL_FINDINGS/V5#CL_--SPCCND
  :name: "--SPCCND"
  :classified_as: Record
- :uri: http://www.cdisc.org/SDTM_MODEL_FINDINGS/V5#CL_--SPCUFL
  :name: "--SPCUFL"
  :classified_as: Record
- :uri: http://www.cdisc.org/SDTM_MODEL_FINDINGS/V5#CL_--SPEC
  :name: "--SPEC"
  :classified_as: Record
- :uri: http://www.cdisc.org/SDTM_MODEL_FINDINGS/V5#CL_--STAT
  :name: "--STAT"
  :classified_as: Record
- :uri: http://www.cdisc.org/SDTM_MODEL_FINDINGS/V5#CL_--STNRC
  :name: "--STNRC"
  :classified_as: None
- :uri: http://www.cdisc.org/SDTM_MODEL_FINDINGS/V5#CL_--STNRHI
  :name: "--STNRHI"
  :classified_as: None
- :uri: http://www.cdisc.org/SDTM_MODEL_FINDINGS/V5#CL_--STNRLO
  :name: "--STNRLO"
  :classified_as: None
- :uri: http://www.cdisc.org/SDTM_MODEL_FINDINGS/V5#CL_--STREFC
  :name: "--STREFC"
  :classified_as: None
- :uri: http://www.cdisc.org/SDTM_MODEL_FINDINGS/V5#CL_--STREFN
  :name: "--STREFN"
  :classified_as: None
- :uri: http://www.cdisc.org/SDTM_MODEL_FINDINGS/V5#CL_--STRESC
  :name: "--STRESC"
  :classified_as: Result
- :uri: http://www.cdisc.org/SDTM_MODEL_FINDINGS/V5#CL_--STRESN
  :name: "--STRESN"
  :classified_as: Result
- :uri: http://www.cdisc.org/SDTM_MODEL_FINDINGS/V5#CL_--STRESU
  :name: "--STRESU"
  :classified_as: None
- :uri: http://www.cdisc.org/SDTM_MODEL_FINDINGS/V5#CL_--TEST
  :name: "--TEST"
  :classified_as: None
- :uri: http://www.cdisc.org/SDTM_MODEL_FINDINGS/V5#CL_--TESTCD
  :name: "--TESTCD"
  :classified_as: Topic
- :uri: http://www.cdisc.org/SDTM_MODEL_FINDINGS/V5#CL_--TOX
  :name: "--TOX"
  :classified_as: None
- :uri: http://www.cdisc.org/SDTM_MODEL_FINDINGS/V5#CL_--TOXGR
  :name: "--TOXGR"
  :classified_as: Record
- :uri: http://www.cdisc.org/SDTM_MODEL_FINDINGS/V5#CL_--TSTDTL
  :name: "--TSTDTL"
  :classified_as: None
- :uri: http://www.cdisc.org/SDTM_MODEL_FINDINGS/V5#CL_--ULOQ
  :name: "--ULOQ"
  :classified_as: None
- :uri: http://www.cdisc.org/SDTM_MODEL_FINDINGS/V5#CL_--USCHFL
  :name: "--USCHFL"
  :classified_as: Record
- :uri: http://www.cdisc.org/SDTM_MODEL_FINDINGS/V5#CL_--XFN
  :name: "--XFN"
  :classified_as: Record
- :uri: http://www.cdisc.org/SDTM_MODEL_FINDINGS/V6#CL_--ACPTFL
  :name: "--ACPTFL"
  :classified_as: Record
- :uri: http://www.cdisc.org/SDTM_MODEL_FINDINGS/V6#CL_--ANMETH
  :name: "--ANMETH"
  :classified_as: Record
- :uri: http://www.cdisc.org/SDTM_MODEL_FINDINGS/V6#CL_--ANTREG
  :name: "--ANTREG"
  :classified_as: None
- :uri: http://www.cdisc.org/SDTM_MODEL_FINDINGS/V6#CL_--BLFL
  :name: "--BLFL"
  :classified_as: Record
- :uri: http://www.cdisc.org/SDTM_MODEL_FINDINGS/V6#CL_--CAT
  :name: "--CAT"
  :classified_as: Grouping
- :uri: http://www.cdisc.org/SDTM_MODEL_FINDINGS/V6#CL_--CHRON
  :name: "--CHRON"
  :classified_as: None
- :uri: http://www.cdisc.org/SDTM_MODEL_FINDINGS/V6#CL_--CSTATE
  :name: "--CSTATE"
  :classified_as: Record
- :uri: http://www.cdisc.org/SDTM_MODEL_FINDINGS/V6#CL_--DIR
  :name: "--DIR"
  :classified_as: None
- :uri: http://www.cdisc.org/SDTM_MODEL_FINDINGS/V6#CL_--DISTR
  :name: "--DISTR"
  :classified_as: None
- :uri: http://www.cdisc.org/SDTM_MODEL_FINDINGS/V6#CL_--DRVFL
  :name: "--DRVFL"
  :classified_as: Record
- :uri: http://www.cdisc.org/SDTM_MODEL_FINDINGS/V6#CL_--DTHREL
  :name: "--DTHREL"
  :classified_as: Record
- :uri: http://www.cdisc.org/SDTM_MODEL_FINDINGS/V6#CL_--EVAL
  :name: "--EVAL"
  :classified_as: Record
- :uri: http://www.cdisc.org/SDTM_MODEL_FINDINGS/V6#CL_--EVALID
  :name: "--EVALID"
  :classified_as: None
- :uri: http://www.cdisc.org/SDTM_MODEL_FINDINGS/V6#CL_--EXCLFL
  :name: "--EXCLFL"
  :classified_as: Record
- :uri: http://www.cdisc.org/SDTM_MODEL_FINDINGS/V6#CL_--FAST
  :name: "--FAST"
  :classified_as: Record
- :uri: http://www.cdisc.org/SDTM_MODEL_FINDINGS/V6#CL_--LAT
  :name: "--LAT"
  :classified_as: None
- :uri: http://www.cdisc.org/SDTM_MODEL_FINDINGS/V6#CL_--LEAD
  :name: "--LEAD"
  :classified_as: Record
- :uri: http://www.cdisc.org/SDTM_MODEL_FINDINGS/V6#CL_--LOBXFL
  :name: "--LOBXFL"
  :classified_as: Record
- :uri: http://www.cdisc.org/SDTM_MODEL_FINDINGS/V6#CL_--LOC
  :name: "--LOC"
  :classified_as: Record
- :uri: http://www.cdisc.org/SDTM_MODEL_FINDINGS/V6#CL_--METHOD
  :name: "--METHOD"
  :classified_as: Record
- :uri: http://www.cdisc.org/SDTM_MODEL_FINDINGS/V6#CL_--NRIND
  :name: "--NRIND"
  :classified_as: None
- :uri: http://www.cdisc.org/SDTM_MODEL_FINDINGS/V6#CL_--ORRES
  :name: "--ORRES"
  :classified_as: Result
- :uri: http://www.cdisc.org/SDTM_MODEL_FINDINGS/V6#CL_--ORRESU
  :name: "--ORRESU"
  :classified_as: None
- :uri: http://www.cdisc.org/SDTM_MODEL_FINDINGS/V6#CL_--PORTOT
  :name: "--PORTOT"
  :classified_as: None
- :uri: http://www.cdisc.org/SDTM_MODEL_FINDINGS/V6#CL_--POS
  :name: "--POS"
  :classified_as: Record
- :uri: http://www.cdisc.org/SDTM_MODEL_FINDINGS/V6#CL_--REASEX
  :name: "--REASEX"
  :classified_as: Record
- :uri: http://www.cdisc.org/SDTM_MODEL_FINDINGS/V6#CL_--REASND
  :name: "--REASND"
  :classified_as: Record
- :uri: http://www.cdisc.org/SDTM_MODEL_FINDINGS/V6#CL_--REPNUM
  :name: "--REPNUM"
  :classified_as: Record
- :uri: http://www.cdisc.org/SDTM_MODEL_FINDINGS/V6#CL_--RESCAT
  :name: "--RESCAT"
  :classified_as: None
- :uri: http://www.cdisc.org/SDTM_MODEL_FINDINGS/V6#CL_--SCAT
  :name: "--SCAT"
  :classified_as: Grouping
- :uri: http://www.cdisc.org/SDTM_MODEL_FINDINGS/V6#CL_--SEV
  :name: "--SEV"
  :classified_as: Record
- :uri: http://www.cdisc.org/SDTM_MODEL_FINDINGS/V6#CL_--SPCCND
  :name: "--SPCCND"
  :classified_as: Record
- :uri: http://www.cdisc.org/SDTM_MODEL_FINDINGS/V6#CL_--SPCUFL
  :name: "--SPCUFL"
  :classified_as: Record
- :uri: http://www.cdisc.org/SDTM_MODEL_FINDINGS/V6#CL_--SPEC
  :name: "--SPEC"
  :classified_as: Record
- :uri: http://www.cdisc.org/SDTM_MODEL_FINDINGS/V6#CL_--STAT
  :name: "--STAT"
  :classified_as: Record
- :uri: http://www.cdisc.org/SDTM_MODEL_FINDINGS/V6#CL_--STNRC
  :name: "--STNRC"
  :classified_as: None
- :uri: http://www.cdisc.org/SDTM_MODEL_FINDINGS/V6#CL_--STRESU
  :name: "--STRESU"
  :classified_as: None
- :uri: http://www.cdisc.org/SDTM_MODEL_FINDINGS/V6#CL_--TEST
  :name: "--TEST"
  :classified_as: None
- :uri: http://www.cdisc.org/SDTM_MODEL_FINDINGS/V6#CL_--TESTCD
  :name: "--TESTCD"
  :classified_as: Topic
- :uri: http://www.cdisc.org/SDTM_MODEL_FINDINGS/V6#CL_--TOX
  :name: "--TOX"
  :classified_as: None
- :uri: http://www.cdisc.org/SDTM_MODEL_FINDINGS/V6#CL_--TSTDTL
  :name: "--TSTDTL"
  :classified_as: None
- :uri: http://www.cdisc.org/SDTM_MODEL_FINDINGS/V6#CL_--USCHFL
  :name: "--USCHFL"
  :classified_as: Record
- :uri: http://www.cdisc.org/SDTM_MODEL_FINDINGS/V7#CL_--ACPTFL
  :name: "--ACPTFL"
  :classified_as: Record
- :uri: http://www.cdisc.org/SDTM_MODEL_FINDINGS/V7#CL_--ANMETH
  :name: "--ANMETH"
  :classified_as: Record
- :uri: http://www.cdisc.org/SDTM_MODEL_FINDINGS/V7#CL_--ANTREG
  :name: "--ANTREG"
  :classified_as: Variable
- :uri: http://www.cdisc.org/SDTM_MODEL_FINDINGS/V7#CL_--BLFL
  :name: "--BLFL"
  :classified_as: Record
- :uri: http://www.cdisc.org/SDTM_MODEL_FINDINGS/V7#CL_--BODSYS
  :name: "--BODSYS"
  :classified_as: Record
- :uri: http://www.cdisc.org/SDTM_MODEL_FINDINGS/V7#CL_--CAT
  :name: "--CAT"
  :classified_as: Grouping
- :uri: http://www.cdisc.org/SDTM_MODEL_FINDINGS/V7#CL_--CHRON
  :name: "--CHRON"
  :classified_as: Variable
- :uri: http://www.cdisc.org/SDTM_MODEL_FINDINGS/V7#CL_--CSTATE
  :name: "--CSTATE"
  :classified_as: Record
- :uri: http://www.cdisc.org/SDTM_MODEL_FINDINGS/V7#CL_--DIR
  :name: "--DIR"
  :classified_as: Variable
- :uri: http://www.cdisc.org/SDTM_MODEL_FINDINGS/V7#CL_--DISTR
  :name: "--DISTR"
  :classified_as: Variable
- :uri: http://www.cdisc.org/SDTM_MODEL_FINDINGS/V7#CL_--DRVFL
  :name: "--DRVFL"
  :classified_as: Record
- :uri: http://www.cdisc.org/SDTM_MODEL_FINDINGS/V7#CL_--DTHREL
  :name: "--DTHREL"
  :classified_as: Record
- :uri: http://www.cdisc.org/SDTM_MODEL_FINDINGS/V7#CL_--EVAL
  :name: "--EVAL"
  :classified_as: Record
- :uri: http://www.cdisc.org/SDTM_MODEL_FINDINGS/V7#CL_--EVALID
  :name: "--EVALID"
  :classified_as: Variable
- :uri: http://www.cdisc.org/SDTM_MODEL_FINDINGS/V7#CL_--EXCLFL
  :name: "--EXCLFL"
  :classified_as: Record
- :uri: http://www.cdisc.org/SDTM_MODEL_FINDINGS/V7#CL_--FAST
  :name: "--FAST"
  :classified_as: Record
- :uri: http://www.cdisc.org/SDTM_MODEL_FINDINGS/V7#CL_--LAT
  :name: "--LAT"
  :classified_as: Variable
- :uri: http://www.cdisc.org/SDTM_MODEL_FINDINGS/V7#CL_--LEAD
  :name: "--LEAD"
  :classified_as: Record
- :uri: http://www.cdisc.org/SDTM_MODEL_FINDINGS/V7#CL_--LLOQ
  :name: "--LLOQ"
  :classified_as: Variable
- :uri: http://www.cdisc.org/SDTM_MODEL_FINDINGS/V7#CL_--LOBXFL
  :name: "--LOBXFL"
  :classified_as: Record
- :uri: http://www.cdisc.org/SDTM_MODEL_FINDINGS/V7#CL_--LOC
  :name: "--LOC"
  :classified_as: Record
- :uri: http://www.cdisc.org/SDTM_MODEL_FINDINGS/V7#CL_--LOINC
  :name: "--LOINC"
  :classified_as: Synonym
- :uri: http://www.cdisc.org/SDTM_MODEL_FINDINGS/V7#CL_--METHOD
  :name: "--METHOD"
  :classified_as: Record
- :uri: http://www.cdisc.org/SDTM_MODEL_FINDINGS/V7#CL_--MODIFY
  :name: "--MODIFY"
  :classified_as: Synonym
- :uri: http://www.cdisc.org/SDTM_MODEL_FINDINGS/V7#CL_--NAM
  :name: "--NAM"
  :classified_as: Record
- :uri: http://www.cdisc.org/SDTM_MODEL_FINDINGS/V7#CL_--NRIND
  :name: "--NRIND"
  :classified_as: Variable
- :uri: http://www.cdisc.org/SDTM_MODEL_FINDINGS/V7#CL_--ORNRHI
  :name: "--ORNRHI"
  :classified_as: Variable
- :uri: http://www.cdisc.org/SDTM_MODEL_FINDINGS/V7#CL_--ORNRLO
  :name: "--ORNRLO"
  :classified_as: Variable
- :uri: http://www.cdisc.org/SDTM_MODEL_FINDINGS/V7#CL_--ORREF
  :name: "--ORREF"
  :classified_as: Variable
- :uri: http://www.cdisc.org/SDTM_MODEL_FINDINGS/V7#CL_--ORRES
  :name: "--ORRES"
  :classified_as: Result
- :uri: http://www.cdisc.org/SDTM_MODEL_FINDINGS/V7#CL_--ORRESU
  :name: "--ORRESU"
  :classified_as: Variable
- :uri: http://www.cdisc.org/SDTM_MODEL_FINDINGS/V7#CL_--PORTOT
  :name: "--PORTOT"
  :classified_as: Variable
- :uri: http://www.cdisc.org/SDTM_MODEL_FINDINGS/V7#CL_--POS
  :name: "--POS"
  :classified_as: Record
- :uri: http://www.cdisc.org/SDTM_MODEL_FINDINGS/V7#CL_--REASEX
  :name: "--REASEX"
  :classified_as: Record
- :uri: http://www.cdisc.org/SDTM_MODEL_FINDINGS/V7#CL_--REASND
  :name: "--REASND"
  :classified_as: Record
- :uri: http://www.cdisc.org/SDTM_MODEL_FINDINGS/V7#CL_--REPNUM
  :name: "--REPNUM"
  :classified_as: Record
- :uri: http://www.cdisc.org/SDTM_MODEL_FINDINGS/V7#CL_--RESCAT
  :name: "--RESCAT"
  :classified_as: Variable
- :uri: http://www.cdisc.org/SDTM_MODEL_FINDINGS/V7#CL_--RESLOC
  :name: "--RESLOC"
  :classified_as: Result
- :uri: http://www.cdisc.org/SDTM_MODEL_FINDINGS/V7#CL_--RSTIND
  :name: "--RSTIND"
  :classified_as: Record
- :uri: http://www.cdisc.org/SDTM_MODEL_FINDINGS/V7#CL_--RSTMOD
  :name: "--RSTMOD"
  :classified_as: Record
- :uri: http://www.cdisc.org/SDTM_MODEL_FINDINGS/V7#CL_--RUNID
  :name: "--RUNID"
  :classified_as: Record
- :uri: http://www.cdisc.org/SDTM_MODEL_FINDINGS/V7#CL_--SCAT
  :name: "--SCAT"
  :classified_as: Grouping
- :uri: http://www.cdisc.org/SDTM_MODEL_FINDINGS/V7#CL_--SEV
  :name: "--SEV"
  :classified_as: Record
- :uri: http://www.cdisc.org/SDTM_MODEL_FINDINGS/V7#CL_--SPCCND
  :name: "--SPCCND"
  :classified_as: Record
- :uri: http://www.cdisc.org/SDTM_MODEL_FINDINGS/V7#CL_--SPCUFL
  :name: "--SPCUFL"
  :classified_as: Record
- :uri: http://www.cdisc.org/SDTM_MODEL_FINDINGS/V7#CL_--SPEC
  :name: "--SPEC"
  :classified_as: Record
- :uri: http://www.cdisc.org/SDTM_MODEL_FINDINGS/V7#CL_--STAT
  :name: "--STAT"
  :classified_as: Record
- :uri: http://www.cdisc.org/SDTM_MODEL_FINDINGS/V7#CL_--STNRC
  :name: "--STNRC"
  :classified_as: Variable
- :uri: http://www.cdisc.org/SDTM_MODEL_FINDINGS/V7#CL_--STNRHI
  :name: "--STNRHI"
  :classified_as: Variable
- :uri: http://www.cdisc.org/SDTM_MODEL_FINDINGS/V7#CL_--STNRLO
  :name: "--STNRLO"
  :classified_as: Variable
- :uri: http://www.cdisc.org/SDTM_MODEL_FINDINGS/V7#CL_--STREFC
  :name: "--STREFC"
  :classified_as: Variable
- :uri: http://www.cdisc.org/SDTM_MODEL_FINDINGS/V7#CL_--STREFN
  :name: "--STREFN"
  :classified_as: Variable
- :uri: http://www.cdisc.org/SDTM_MODEL_FINDINGS/V7#CL_--STRESC
  :name: "--STRESC"
  :classified_as: Result
- :uri: http://www.cdisc.org/SDTM_MODEL_FINDINGS/V7#CL_--STRESN
  :name: "--STRESN"
  :classified_as: Result
- :uri: http://www.cdisc.org/SDTM_MODEL_FINDINGS/V7#CL_--STRESU
  :name: "--STRESU"
  :classified_as: Variable
- :uri: http://www.cdisc.org/SDTM_MODEL_FINDINGS/V7#CL_--TEST
  :name: "--TEST"
  :classified_as: Synonym
- :uri: http://www.cdisc.org/SDTM_MODEL_FINDINGS/V7#CL_--TESTCD
  :name: "--TESTCD"
  :classified_as: Topic
- :uri: http://www.cdisc.org/SDTM_MODEL_FINDINGS/V7#CL_--TOX
  :name: "--TOX"
  :classified_as: Variable
- :uri: http://www.cdisc.org/SDTM_MODEL_FINDINGS/V7#CL_--TOXGR
  :name: "--TOXGR"
  :classified_as: Record
- :uri: http://www.cdisc.org/SDTM_MODEL_FINDINGS/V7#CL_--TSTDTL
  :name: "--TSTDTL"
  :classified_as: Variable
- :uri: http://www.cdisc.org/SDTM_MODEL_FINDINGS/V7#CL_--ULOQ
  :name: "--ULOQ"
  :classified_as: Variable
- :uri: http://www.cdisc.org/SDTM_MODEL_FINDINGS/V7#CL_--USCHFL
  :name: "--USCHFL"
  :classified_as: Record
- :uri: http://www.cdisc.org/SDTM_MODEL_FINDINGS/V7#CL_--XFN
  :name: "--XFN"
  :classified_as: Record
- :uri: http://www.cdisc.org/SDTM_MODEL_INTERVENTIONS/V1#CL_--ADJ
  :name: "--ADJ"
  :classified_as: Record
- :uri: http://www.cdisc.org/SDTM_MODEL_INTERVENTIONS/V1#CL_--CAT
  :name: "--CAT"
  :classified_as: Grouping
- :uri: http://www.cdisc.org/SDTM_MODEL_INTERVENTIONS/V1#CL_--CLAS
  :name: "--CLAS"
  :classified_as: None
- :uri: http://www.cdisc.org/SDTM_MODEL_INTERVENTIONS/V1#CL_--CLASCD
  :name: "--CLASCD"
  :classified_as: None
- :uri: http://www.cdisc.org/SDTM_MODEL_INTERVENTIONS/V1#CL_--DECOD
  :name: "--DECOD"
  :classified_as: None
- :uri: http://www.cdisc.org/SDTM_MODEL_INTERVENTIONS/V1#CL_--DOSE
  :name: "--DOSE"
  :classified_as: Record
- :uri: http://www.cdisc.org/SDTM_MODEL_INTERVENTIONS/V1#CL_--DOSFRM
  :name: "--DOSFRM"
  :classified_as: None
- :uri: http://www.cdisc.org/SDTM_MODEL_INTERVENTIONS/V1#CL_--DOSFRQ
  :name: "--DOSFRQ"
  :classified_as: None
- :uri: http://www.cdisc.org/SDTM_MODEL_INTERVENTIONS/V1#CL_--DOSRGM
  :name: "--DOSRGM"
  :classified_as: None
- :uri: http://www.cdisc.org/SDTM_MODEL_INTERVENTIONS/V1#CL_--DOSTOT
  :name: "--DOSTOT"
  :classified_as: Record
- :uri: http://www.cdisc.org/SDTM_MODEL_INTERVENTIONS/V1#CL_--DOSTXT
  :name: "--DOSTXT"
  :classified_as: Record
- :uri: http://www.cdisc.org/SDTM_MODEL_INTERVENTIONS/V1#CL_--DOSU
  :name: "--DOSU"
  :classified_as: None
- :uri: http://www.cdisc.org/SDTM_MODEL_INTERVENTIONS/V1#CL_--INDC
  :name: "--INDC"
  :classified_as: Record
- :uri: http://www.cdisc.org/SDTM_MODEL_INTERVENTIONS/V1#CL_--LOC
  :name: "--LOC"
  :classified_as: Record
- :uri: http://www.cdisc.org/SDTM_MODEL_INTERVENTIONS/V1#CL_--LOT
  :name: "--LOT"
  :classified_as: Record
- :uri: http://www.cdisc.org/SDTM_MODEL_INTERVENTIONS/V1#CL_--MODIFY
  :name: "--MODIFY"
  :classified_as: None
- :uri: http://www.cdisc.org/SDTM_MODEL_INTERVENTIONS/V1#CL_--OCCUR
  :name: "--OCCUR"
  :classified_as: Record
- :uri: http://www.cdisc.org/SDTM_MODEL_INTERVENTIONS/V1#CL_--PRESP
  :name: "--PRESP"
  :classified_as: Record
- :uri: http://www.cdisc.org/SDTM_MODEL_INTERVENTIONS/V1#CL_--REASND
  :name: "--REASND"
  :classified_as: Record
- :uri: http://www.cdisc.org/SDTM_MODEL_INTERVENTIONS/V1#CL_--ROUTE
  :name: "--ROUTE"
  :classified_as: None
- :uri: http://www.cdisc.org/SDTM_MODEL_INTERVENTIONS/V1#CL_--SCAT
  :name: "--SCAT"
  :classified_as: Grouping
- :uri: http://www.cdisc.org/SDTM_MODEL_INTERVENTIONS/V1#CL_--STAT
  :name: "--STAT"
  :classified_as: Record
- :uri: http://www.cdisc.org/SDTM_MODEL_INTERVENTIONS/V1#CL_--TRT
  :name: "--TRT"
  :classified_as: Topic
- :uri: http://www.cdisc.org/SDTM_MODEL_INTERVENTIONS/V1#CL_--TRTV
  :name: "--TRTV"
  :classified_as: Record
- :uri: http://www.cdisc.org/SDTM_MODEL_INTERVENTIONS/V1#CL_--VAMT
  :name: "--VAMT"
  :classified_as: Record
- :uri: http://www.cdisc.org/SDTM_MODEL_INTERVENTIONS/V1#CL_--VAMTU
  :name: "--VAMTU"
  :classified_as: None
- :uri: http://www.cdisc.org/SDTM_MODEL_INTERVENTIONS/V2#CL_--ADJ
  :name: "--ADJ"
  :classified_as: Record
- :uri: http://www.cdisc.org/SDTM_MODEL_INTERVENTIONS/V2#CL_--CAT
  :name: "--CAT"
  :classified_as: Grouping
- :uri: http://www.cdisc.org/SDTM_MODEL_INTERVENTIONS/V2#CL_--CLAS
  :name: "--CLAS"
  :classified_as: None
- :uri: http://www.cdisc.org/SDTM_MODEL_INTERVENTIONS/V2#CL_--CLASCD
  :name: "--CLASCD"
  :classified_as: None
- :uri: http://www.cdisc.org/SDTM_MODEL_INTERVENTIONS/V2#CL_--DECOD
  :name: "--DECOD"
  :classified_as: None
- :uri: http://www.cdisc.org/SDTM_MODEL_INTERVENTIONS/V2#CL_--DOSE
  :name: "--DOSE"
  :classified_as: Record
- :uri: http://www.cdisc.org/SDTM_MODEL_INTERVENTIONS/V2#CL_--DOSFRM
  :name: "--DOSFRM"
  :classified_as: None
- :uri: http://www.cdisc.org/SDTM_MODEL_INTERVENTIONS/V2#CL_--DOSFRQ
  :name: "--DOSFRQ"
  :classified_as: None
- :uri: http://www.cdisc.org/SDTM_MODEL_INTERVENTIONS/V2#CL_--DOSRGM
  :name: "--DOSRGM"
  :classified_as: None
- :uri: http://www.cdisc.org/SDTM_MODEL_INTERVENTIONS/V2#CL_--DOSTOT
  :name: "--DOSTOT"
  :classified_as: Record
- :uri: http://www.cdisc.org/SDTM_MODEL_INTERVENTIONS/V2#CL_--DOSTXT
  :name: "--DOSTXT"
  :classified_as: Record
- :uri: http://www.cdisc.org/SDTM_MODEL_INTERVENTIONS/V2#CL_--DOSU
  :name: "--DOSU"
  :classified_as: None
- :uri: http://www.cdisc.org/SDTM_MODEL_INTERVENTIONS/V2#CL_--INDC
  :name: "--INDC"
  :classified_as: Record
- :uri: http://www.cdisc.org/SDTM_MODEL_INTERVENTIONS/V2#CL_--LOC
  :name: "--LOC"
  :classified_as: Record
- :uri: http://www.cdisc.org/SDTM_MODEL_INTERVENTIONS/V2#CL_--LOT
  :name: "--LOT"
  :classified_as: Record
- :uri: http://www.cdisc.org/SDTM_MODEL_INTERVENTIONS/V2#CL_--MODIFY
  :name: "--MODIFY"
  :classified_as: None
- :uri: http://www.cdisc.org/SDTM_MODEL_INTERVENTIONS/V2#CL_--OCCUR
  :name: "--OCCUR"
  :classified_as: Record
- :uri: http://www.cdisc.org/SDTM_MODEL_INTERVENTIONS/V2#CL_--PRESP
  :name: "--PRESP"
  :classified_as: None
- :uri: http://www.cdisc.org/SDTM_MODEL_INTERVENTIONS/V2#CL_--REASND
  :name: "--REASND"
  :classified_as: Record
- :uri: http://www.cdisc.org/SDTM_MODEL_INTERVENTIONS/V2#CL_--ROUTE
  :name: "--ROUTE"
  :classified_as: None
- :uri: http://www.cdisc.org/SDTM_MODEL_INTERVENTIONS/V2#CL_--SCAT
  :name: "--SCAT"
  :classified_as: Grouping
- :uri: http://www.cdisc.org/SDTM_MODEL_INTERVENTIONS/V2#CL_--STAT
  :name: "--STAT"
  :classified_as: Record
- :uri: http://www.cdisc.org/SDTM_MODEL_INTERVENTIONS/V2#CL_--TRT
  :name: "--TRT"
  :classified_as: Topic
- :uri: http://www.cdisc.org/SDTM_MODEL_INTERVENTIONS/V2#CL_--TRTV
  :name: "--TRTV"
  :classified_as: Record
- :uri: http://www.cdisc.org/SDTM_MODEL_INTERVENTIONS/V2#CL_--VAMT
  :name: "--VAMT"
  :classified_as: Record
- :uri: http://www.cdisc.org/SDTM_MODEL_INTERVENTIONS/V2#CL_--VAMTU
  :name: "--VAMTU"
  :classified_as: None
- :uri: http://www.cdisc.org/SDTM_MODEL_INTERVENTIONS/V3#CL_--ADJ
  :name: "--ADJ"
  :classified_as: Record
- :uri: http://www.cdisc.org/SDTM_MODEL_INTERVENTIONS/V3#CL_--CAT
  :name: "--CAT"
  :classified_as: Grouping
- :uri: http://www.cdisc.org/SDTM_MODEL_INTERVENTIONS/V3#CL_--CLAS
  :name: "--CLAS"
  :classified_as: None
- :uri: http://www.cdisc.org/SDTM_MODEL_INTERVENTIONS/V3#CL_--CLASCD
  :name: "--CLASCD"
  :classified_as: None
- :uri: http://www.cdisc.org/SDTM_MODEL_INTERVENTIONS/V3#CL_--DECOD
  :name: "--DECOD"
  :classified_as: None
- :uri: http://www.cdisc.org/SDTM_MODEL_INTERVENTIONS/V3#CL_--DIR
  :name: "--DIR"
  :classified_as: None
- :uri: http://www.cdisc.org/SDTM_MODEL_INTERVENTIONS/V3#CL_--DOSE
  :name: "--DOSE"
  :classified_as: Record
- :uri: http://www.cdisc.org/SDTM_MODEL_INTERVENTIONS/V3#CL_--DOSFRM
  :name: "--DOSFRM"
  :classified_as: None
- :uri: http://www.cdisc.org/SDTM_MODEL_INTERVENTIONS/V3#CL_--DOSFRQ
  :name: "--DOSFRQ"
  :classified_as: None
- :uri: http://www.cdisc.org/SDTM_MODEL_INTERVENTIONS/V3#CL_--DOSRGM
  :name: "--DOSRGM"
  :classified_as: None
- :uri: http://www.cdisc.org/SDTM_MODEL_INTERVENTIONS/V3#CL_--DOSTOT
  :name: "--DOSTOT"
  :classified_as: Record
- :uri: http://www.cdisc.org/SDTM_MODEL_INTERVENTIONS/V3#CL_--DOSTXT
  :name: "--DOSTXT"
  :classified_as: Record
- :uri: http://www.cdisc.org/SDTM_MODEL_INTERVENTIONS/V3#CL_--DOSU
  :name: "--DOSU"
  :classified_as: None
- :uri: http://www.cdisc.org/SDTM_MODEL_INTERVENTIONS/V3#CL_--FAST
  :name: "--FAST"
  :classified_as: Record
- :uri: http://www.cdisc.org/SDTM_MODEL_INTERVENTIONS/V3#CL_--INDC
  :name: "--INDC"
  :classified_as: Record
- :uri: http://www.cdisc.org/SDTM_MODEL_INTERVENTIONS/V3#CL_--LAT
  :name: "--LAT"
  :classified_as: None
- :uri: http://www.cdisc.org/SDTM_MODEL_INTERVENTIONS/V3#CL_--LOC
  :name: "--LOC"
  :classified_as: Record
- :uri: http://www.cdisc.org/SDTM_MODEL_INTERVENTIONS/V3#CL_--LOT
  :name: "--LOT"
  :classified_as: Record
- :uri: http://www.cdisc.org/SDTM_MODEL_INTERVENTIONS/V3#CL_--MODIFY
  :name: "--MODIFY"
  :classified_as: None
- :uri: http://www.cdisc.org/SDTM_MODEL_INTERVENTIONS/V3#CL_--MOOD
  :name: "--MOOD"
  :classified_as: Record
- :uri: http://www.cdisc.org/SDTM_MODEL_INTERVENTIONS/V3#CL_--OCCUR
  :name: "--OCCUR"
  :classified_as: Record
- :uri: http://www.cdisc.org/SDTM_MODEL_INTERVENTIONS/V3#CL_--PORTOT
  :name: "--PORTOT"
  :classified_as: None
- :uri: http://www.cdisc.org/SDTM_MODEL_INTERVENTIONS/V3#CL_--PRESP
  :name: "--PRESP"
  :classified_as: None
- :uri: http://www.cdisc.org/SDTM_MODEL_INTERVENTIONS/V3#CL_--PSTRG
  :name: "--PSTRG"
  :classified_as: Variable
- :uri: http://www.cdisc.org/SDTM_MODEL_INTERVENTIONS/V3#CL_--PSTRGU
  :name: "--PSTRGU"
  :classified_as: Variable
- :uri: http://www.cdisc.org/SDTM_MODEL_INTERVENTIONS/V3#CL_--REASND
  :name: "--REASND"
  :classified_as: Record
- :uri: http://www.cdisc.org/SDTM_MODEL_INTERVENTIONS/V3#CL_--ROUTE
  :name: "--ROUTE"
  :classified_as: None
- :uri: http://www.cdisc.org/SDTM_MODEL_INTERVENTIONS/V3#CL_--SCAT
  :name: "--SCAT"
  :classified_as: Grouping
- :uri: http://www.cdisc.org/SDTM_MODEL_INTERVENTIONS/V3#CL_--STAT
  :name: "--STAT"
  :classified_as: Record
- :uri: http://www.cdisc.org/SDTM_MODEL_INTERVENTIONS/V3#CL_--TRT
  :name: "--TRT"
  :classified_as: Topic
- :uri: http://www.cdisc.org/SDTM_MODEL_INTERVENTIONS/V3#CL_--TRTV
  :name: "--TRTV"
  :classified_as: Record
- :uri: http://www.cdisc.org/SDTM_MODEL_INTERVENTIONS/V3#CL_--VAMT
  :name: "--VAMT"
  :classified_as: Record
- :uri: http://www.cdisc.org/SDTM_MODEL_INTERVENTIONS/V3#CL_--VAMTU
  :name: "--VAMTU"
  :classified_as: None
- :uri: http://www.cdisc.org/SDTM_MODEL_INTERVENTIONS/V4#CL_--ADJ
  :name: "--ADJ"
  :classified_as: Record
- :uri: http://www.cdisc.org/SDTM_MODEL_INTERVENTIONS/V4#CL_--CAT
  :name: "--CAT"
  :classified_as: Grouping
- :uri: http://www.cdisc.org/SDTM_MODEL_INTERVENTIONS/V4#CL_--CLAS
  :name: "--CLAS"
  :classified_as: None
- :uri: http://www.cdisc.org/SDTM_MODEL_INTERVENTIONS/V4#CL_--CLASCD
  :name: "--CLASCD"
  :classified_as: None
- :uri: http://www.cdisc.org/SDTM_MODEL_INTERVENTIONS/V4#CL_--DECOD
  :name: "--DECOD"
  :classified_as: None
- :uri: http://www.cdisc.org/SDTM_MODEL_INTERVENTIONS/V4#CL_--DIR
  :name: "--DIR"
  :classified_as: None
- :uri: http://www.cdisc.org/SDTM_MODEL_INTERVENTIONS/V4#CL_--DOSE
  :name: "--DOSE"
  :classified_as: Record
- :uri: http://www.cdisc.org/SDTM_MODEL_INTERVENTIONS/V4#CL_--DOSFRM
  :name: "--DOSFRM"
  :classified_as: None
- :uri: http://www.cdisc.org/SDTM_MODEL_INTERVENTIONS/V4#CL_--DOSFRQ
  :name: "--DOSFRQ"
  :classified_as: None
- :uri: http://www.cdisc.org/SDTM_MODEL_INTERVENTIONS/V4#CL_--DOSRGM
  :name: "--DOSRGM"
  :classified_as: None
- :uri: http://www.cdisc.org/SDTM_MODEL_INTERVENTIONS/V4#CL_--DOSTOT
  :name: "--DOSTOT"
  :classified_as: Record
- :uri: http://www.cdisc.org/SDTM_MODEL_INTERVENTIONS/V4#CL_--DOSTXT
  :name: "--DOSTXT"
  :classified_as: Record
- :uri: http://www.cdisc.org/SDTM_MODEL_INTERVENTIONS/V4#CL_--DOSU
  :name: "--DOSU"
  :classified_as: None
- :uri: http://www.cdisc.org/SDTM_MODEL_INTERVENTIONS/V4#CL_--FAST
  :name: "--FAST"
  :classified_as: Record
- :uri: http://www.cdisc.org/SDTM_MODEL_INTERVENTIONS/V4#CL_--INDC
  :name: "--INDC"
  :classified_as: Record
- :uri: http://www.cdisc.org/SDTM_MODEL_INTERVENTIONS/V4#CL_--LAT
  :name: "--LAT"
  :classified_as: None
- :uri: http://www.cdisc.org/SDTM_MODEL_INTERVENTIONS/V4#CL_--LOC
  :name: "--LOC"
  :classified_as: Record
- :uri: http://www.cdisc.org/SDTM_MODEL_INTERVENTIONS/V4#CL_--LOT
  :name: "--LOT"
  :classified_as: Record
- :uri: http://www.cdisc.org/SDTM_MODEL_INTERVENTIONS/V4#CL_--MODIFY
  :name: "--MODIFY"
  :classified_as: None
- :uri: http://www.cdisc.org/SDTM_MODEL_INTERVENTIONS/V4#CL_--MOOD
  :name: "--MOOD"
  :classified_as: Record
- :uri: http://www.cdisc.org/SDTM_MODEL_INTERVENTIONS/V4#CL_--OCCUR
  :name: "--OCCUR"
  :classified_as: Record
- :uri: http://www.cdisc.org/SDTM_MODEL_INTERVENTIONS/V4#CL_--PORTOT
  :name: "--PORTOT"
  :classified_as: None
- :uri: http://www.cdisc.org/SDTM_MODEL_INTERVENTIONS/V4#CL_--PRESP
  :name: "--PRESP"
  :classified_as: None
- :uri: http://www.cdisc.org/SDTM_MODEL_INTERVENTIONS/V4#CL_--PSTRG
  :name: "--PSTRG"
  :classified_as: Variable
- :uri: http://www.cdisc.org/SDTM_MODEL_INTERVENTIONS/V4#CL_--PSTRGU
  :name: "--PSTRGU"
  :classified_as: Variable
- :uri: http://www.cdisc.org/SDTM_MODEL_INTERVENTIONS/V4#CL_--REASND
  :name: "--REASND"
  :classified_as: Record
- :uri: http://www.cdisc.org/SDTM_MODEL_INTERVENTIONS/V4#CL_--ROUTE
  :name: "--ROUTE"
  :classified_as: None
- :uri: http://www.cdisc.org/SDTM_MODEL_INTERVENTIONS/V4#CL_--SCAT
  :name: "--SCAT"
  :classified_as: Grouping
- :uri: http://www.cdisc.org/SDTM_MODEL_INTERVENTIONS/V4#CL_--STAT
  :name: "--STAT"
  :classified_as: Record
- :uri: http://www.cdisc.org/SDTM_MODEL_INTERVENTIONS/V4#CL_--TRT
  :name: "--TRT"
  :classified_as: Topic
- :uri: http://www.cdisc.org/SDTM_MODEL_INTERVENTIONS/V4#CL_--TRTV
  :name: "--TRTV"
  :classified_as: Record
- :uri: http://www.cdisc.org/SDTM_MODEL_INTERVENTIONS/V4#CL_--USCHFL
  :name: "--USCHFL"
  :classified_as: Record
- :uri: http://www.cdisc.org/SDTM_MODEL_INTERVENTIONS/V4#CL_--VAMT
  :name: "--VAMT"
  :classified_as: Record
- :uri: http://www.cdisc.org/SDTM_MODEL_INTERVENTIONS/V4#CL_--VAMTU
  :name: "--VAMTU"
  :classified_as: None
- :uri: http://www.cdisc.org/SDTM_MODEL_INTERVENTIONS/V5#CL_--ADJ
  :name: "--ADJ"
  :classified_as: Record
- :uri: http://www.cdisc.org/SDTM_MODEL_INTERVENTIONS/V5#CL_--CAT
  :name: "--CAT"
  :classified_as: Grouping
- :uri: http://www.cdisc.org/SDTM_MODEL_INTERVENTIONS/V5#CL_--CLAS
  :name: "--CLAS"
  :classified_as: None
- :uri: http://www.cdisc.org/SDTM_MODEL_INTERVENTIONS/V5#CL_--CLASCD
  :name: "--CLASCD"
  :classified_as: None
- :uri: http://www.cdisc.org/SDTM_MODEL_INTERVENTIONS/V5#CL_--DECOD
  :name: "--DECOD"
  :classified_as: None
- :uri: http://www.cdisc.org/SDTM_MODEL_INTERVENTIONS/V5#CL_--DIR
  :name: "--DIR"
  :classified_as: None
- :uri: http://www.cdisc.org/SDTM_MODEL_INTERVENTIONS/V5#CL_--DOSE
  :name: "--DOSE"
  :classified_as: Record
- :uri: http://www.cdisc.org/SDTM_MODEL_INTERVENTIONS/V5#CL_--DOSFRM
  :name: "--DOSFRM"
  :classified_as: None
- :uri: http://www.cdisc.org/SDTM_MODEL_INTERVENTIONS/V5#CL_--DOSFRQ
  :name: "--DOSFRQ"
  :classified_as: None
- :uri: http://www.cdisc.org/SDTM_MODEL_INTERVENTIONS/V5#CL_--DOSRGM
  :name: "--DOSRGM"
  :classified_as: None
- :uri: http://www.cdisc.org/SDTM_MODEL_INTERVENTIONS/V5#CL_--DOSTOT
  :name: "--DOSTOT"
  :classified_as: Record
- :uri: http://www.cdisc.org/SDTM_MODEL_INTERVENTIONS/V5#CL_--DOSTXT
  :name: "--DOSTXT"
  :classified_as: Record
- :uri: http://www.cdisc.org/SDTM_MODEL_INTERVENTIONS/V5#CL_--DOSU
  :name: "--DOSU"
  :classified_as: None
- :uri: http://www.cdisc.org/SDTM_MODEL_INTERVENTIONS/V5#CL_--FAST
  :name: "--FAST"
  :classified_as: Record
- :uri: http://www.cdisc.org/SDTM_MODEL_INTERVENTIONS/V5#CL_--INDC
  :name: "--INDC"
  :classified_as: Record
- :uri: http://www.cdisc.org/SDTM_MODEL_INTERVENTIONS/V5#CL_--LAT
  :name: "--LAT"
  :classified_as: None
- :uri: http://www.cdisc.org/SDTM_MODEL_INTERVENTIONS/V5#CL_--LOC
  :name: "--LOC"
  :classified_as: Record
- :uri: http://www.cdisc.org/SDTM_MODEL_INTERVENTIONS/V5#CL_--LOT
  :name: "--LOT"
  :classified_as: Record
- :uri: http://www.cdisc.org/SDTM_MODEL_INTERVENTIONS/V5#CL_--MODIFY
  :name: "--MODIFY"
  :classified_as: None
- :uri: http://www.cdisc.org/SDTM_MODEL_INTERVENTIONS/V5#CL_--MOOD
  :name: "--MOOD"
  :classified_as: Record
- :uri: http://www.cdisc.org/SDTM_MODEL_INTERVENTIONS/V5#CL_--OCCUR
  :name: "--OCCUR"
  :classified_as: Record
- :uri: http://www.cdisc.org/SDTM_MODEL_INTERVENTIONS/V5#CL_--PORTOT
  :name: "--PORTOT"
  :classified_as: None
- :uri: http://www.cdisc.org/SDTM_MODEL_INTERVENTIONS/V5#CL_--PRESP
  :name: "--PRESP"
  :classified_as: None
- :uri: http://www.cdisc.org/SDTM_MODEL_INTERVENTIONS/V5#CL_--PSTRG
  :name: "--PSTRG"
  :classified_as: Record
- :uri: http://www.cdisc.org/SDTM_MODEL_INTERVENTIONS/V5#CL_--PSTRGU
  :name: "--PSTRGU"
  :classified_as: None
- :uri: http://www.cdisc.org/SDTM_MODEL_INTERVENTIONS/V5#CL_--REASND
  :name: "--REASND"
  :classified_as: Record
- :uri: http://www.cdisc.org/SDTM_MODEL_INTERVENTIONS/V5#CL_--ROUTE
  :name: "--ROUTE"
  :classified_as: None
- :uri: http://www.cdisc.org/SDTM_MODEL_INTERVENTIONS/V5#CL_--SCAT
  :name: "--SCAT"
  :classified_as: Grouping
- :uri: http://www.cdisc.org/SDTM_MODEL_INTERVENTIONS/V5#CL_--STAT
  :name: "--STAT"
  :classified_as: Record
- :uri: http://www.cdisc.org/SDTM_MODEL_INTERVENTIONS/V5#CL_--TRT
  :name: "--TRT"
  :classified_as: Topic
- :uri: http://www.cdisc.org/SDTM_MODEL_INTERVENTIONS/V5#CL_--TRTV
  :name: "--TRTV"
  :classified_as: Record
- :uri: http://www.cdisc.org/SDTM_MODEL_INTERVENTIONS/V5#CL_--USCHFL
  :name: "--USCHFL"
  :classified_as: Record
- :uri: http://www.cdisc.org/SDTM_MODEL_INTERVENTIONS/V5#CL_--VAMT
  :name: "--VAMT"
  :classified_as: Record
- :uri: http://www.cdisc.org/SDTM_MODEL_INTERVENTIONS/V5#CL_--VAMTU
  :name: "--VAMTU"
  :classified_as: None
- :uri: http://www.cdisc.org/SDTM_MODEL_INTERVENTIONS/V6#CL_--ADJ
  :name: "--ADJ"
  :classified_as: Record
- :uri: http://www.cdisc.org/SDTM_MODEL_INTERVENTIONS/V6#CL_--DIR
  :name: "--DIR"
  :classified_as: None
- :uri: http://www.cdisc.org/SDTM_MODEL_INTERVENTIONS/V6#CL_--DOSFRM
  :name: "--DOSFRM"
  :classified_as: None
- :uri: http://www.cdisc.org/SDTM_MODEL_INTERVENTIONS/V6#CL_--DOSFRQ
  :name: "--DOSFRQ"
  :classified_as: None
- :uri: http://www.cdisc.org/SDTM_MODEL_INTERVENTIONS/V6#CL_--DOSRGM
  :name: "--DOSRGM"
  :classified_as: None
- :uri: http://www.cdisc.org/SDTM_MODEL_INTERVENTIONS/V6#CL_--DOSU
  :name: "--DOSU"
  :classified_as: None
- :uri: http://www.cdisc.org/SDTM_MODEL_INTERVENTIONS/V6#CL_--FAST
  :name: "--FAST"
  :classified_as: Record
- :uri: http://www.cdisc.org/SDTM_MODEL_INTERVENTIONS/V6#CL_--LAT
  :name: "--LAT"
  :classified_as: None
- :uri: http://www.cdisc.org/SDTM_MODEL_INTERVENTIONS/V6#CL_--MOOD
  :name: "--MOOD"
  :classified_as: Record
- :uri: http://www.cdisc.org/SDTM_MODEL_INTERVENTIONS/V6#CL_--OCCUR
  :name: "--OCCUR"
  :classified_as: Record
- :uri: http://www.cdisc.org/SDTM_MODEL_INTERVENTIONS/V6#CL_--PORTOT
  :name: "--PORTOT"
  :classified_as: None
- :uri: http://www.cdisc.org/SDTM_MODEL_INTERVENTIONS/V6#CL_--PSTRG
  :name: "--PSTRG"
  :classified_as: Record
- :uri: http://www.cdisc.org/SDTM_MODEL_INTERVENTIONS/V6#CL_--PSTRGU
  :name: "--PSTRGU"
  :classified_as: None
- :uri: http://www.cdisc.org/SDTM_MODEL_INTERVENTIONS/V6#CL_--REASND
  :name: "--REASND"
  :classified_as: Record
- :uri: http://www.cdisc.org/SDTM_MODEL_INTERVENTIONS/V6#CL_--ROUTE
  :name: "--ROUTE"
  :classified_as: None
- :uri: http://www.cdisc.org/SDTM_MODEL_INTERVENTIONS/V6#CL_--RSDISC
  :name: "--RSDISC"
  :classified_as: Record
- :uri: http://www.cdisc.org/SDTM_MODEL_INTERVENTIONS/V6#CL_--TRTV
  :name: "--TRTV"
  :classified_as: Record
- :uri: http://www.cdisc.org/SDTM_MODEL_INTERVENTIONS/V6#CL_--USCHFL
  :name: "--USCHFL"
  :classified_as: Record
- :uri: http://www.cdisc.org/SDTM_MODEL_INTERVENTIONS/V6#CL_--VAMTU
  :name: "--VAMTU"
  :classified_as: None
- :uri: http://www.cdisc.org/SDTM_MODEL_INTERVENTIONS/V7#CL_--ADJ
  :name: "--ADJ"
  :classified_as: Record
- :uri: http://www.cdisc.org/SDTM_MODEL_INTERVENTIONS/V7#CL_--CAT
  :name: "--CAT"
  :classified_as: Grouping
- :uri: http://www.cdisc.org/SDTM_MODEL_INTERVENTIONS/V7#CL_--CLAS
  :name: "--CLAS"
  :classified_as: Variable
- :uri: http://www.cdisc.org/SDTM_MODEL_INTERVENTIONS/V7#CL_--CLASCD
  :name: "--CLASCD"
  :classified_as: Variable
- :uri: http://www.cdisc.org/SDTM_MODEL_INTERVENTIONS/V7#CL_--DECOD
  :name: "--DECOD"
  :classified_as: Synonym
- :uri: http://www.cdisc.org/SDTM_MODEL_INTERVENTIONS/V7#CL_--DIR
  :name: "--DIR"
  :classified_as: Variable
- :uri: http://www.cdisc.org/SDTM_MODEL_INTERVENTIONS/V7#CL_--DOSE
  :name: "--DOSE"
  :classified_as: Record
- :uri: http://www.cdisc.org/SDTM_MODEL_INTERVENTIONS/V7#CL_--DOSFRM
  :name: "--DOSFRM"
  :classified_as: Variable
- :uri: http://www.cdisc.org/SDTM_MODEL_INTERVENTIONS/V7#CL_--DOSFRQ
  :name: "--DOSFRQ"
  :classified_as: Variable
- :uri: http://www.cdisc.org/SDTM_MODEL_INTERVENTIONS/V7#CL_--DOSRGM
  :name: "--DOSRGM"
  :classified_as: Variable
- :uri: http://www.cdisc.org/SDTM_MODEL_INTERVENTIONS/V7#CL_--DOSTOT
  :name: "--DOSTOT"
  :classified_as: Record
- :uri: http://www.cdisc.org/SDTM_MODEL_INTERVENTIONS/V7#CL_--DOSTXT
  :name: "--DOSTXT"
  :classified_as: Record
- :uri: http://www.cdisc.org/SDTM_MODEL_INTERVENTIONS/V7#CL_--DOSU
  :name: "--DOSU"
  :classified_as: Variable
- :uri: http://www.cdisc.org/SDTM_MODEL_INTERVENTIONS/V7#CL_--FAST
  :name: "--FAST"
  :classified_as: Record
- :uri: http://www.cdisc.org/SDTM_MODEL_INTERVENTIONS/V7#CL_--FTDOSD
  :name: "--FTDOSD"
  :classified_as: Variable
- :uri: http://www.cdisc.org/SDTM_MODEL_INTERVENTIONS/V7#CL_--INDC
  :name: "--INDC"
  :classified_as: Record
- :uri: http://www.cdisc.org/SDTM_MODEL_INTERVENTIONS/V7#CL_--LAT
  :name: "--LAT"
  :classified_as: Variable
- :uri: http://www.cdisc.org/SDTM_MODEL_INTERVENTIONS/V7#CL_--LOC
  :name: "--LOC"
  :classified_as: Record
- :uri: http://www.cdisc.org/SDTM_MODEL_INTERVENTIONS/V7#CL_--LOT
  :name: "--LOT"
  :classified_as: Record
- :uri: http://www.cdisc.org/SDTM_MODEL_INTERVENTIONS/V7#CL_--MODIFY
  :name: "--MODIFY"
  :classified_as: Synonym
- :uri: http://www.cdisc.org/SDTM_MODEL_INTERVENTIONS/V7#CL_--MOOD
  :name: "--MOOD"
  :classified_as: Record
- :uri: http://www.cdisc.org/SDTM_MODEL_INTERVENTIONS/V7#CL_--OCCUR
  :name: "--OCCUR"
  :classified_as: Record
- :uri: http://www.cdisc.org/SDTM_MODEL_INTERVENTIONS/V7#CL_--PORTOT
  :name: "--PORTOT"
  :classified_as: Variable
- :uri: http://www.cdisc.org/SDTM_MODEL_INTERVENTIONS/V7#CL_--PRESP
  :name: "--PRESP"
  :classified_as: Variable
- :uri: http://www.cdisc.org/SDTM_MODEL_INTERVENTIONS/V7#CL_--PSTRG
  :name: "--PSTRG"
  :classified_as: Record
- :uri: http://www.cdisc.org/SDTM_MODEL_INTERVENTIONS/V7#CL_--PSTRGU
  :name: "--PSTRGU"
  :classified_as: Variable
- :uri: http://www.cdisc.org/SDTM_MODEL_INTERVENTIONS/V7#CL_--REASND
  :name: "--REASND"
  :classified_as: Record
- :uri: http://www.cdisc.org/SDTM_MODEL_INTERVENTIONS/V7#CL_--ROUTE
  :name: "--ROUTE"
  :classified_as: Variable
- :uri: http://www.cdisc.org/SDTM_MODEL_INTERVENTIONS/V7#CL_--RSDISC
  :name: "--RSDISC"
  :classified_as: Record
- :uri: http://www.cdisc.org/SDTM_MODEL_INTERVENTIONS/V7#CL_--RSTIND
  :name: "--RSTIND"
  :classified_as: Record
- :uri: http://www.cdisc.org/SDTM_MODEL_INTERVENTIONS/V7#CL_--RSTMOD
  :name: "--RSTMOD"
  :classified_as: Record
- :uri: http://www.cdisc.org/SDTM_MODEL_INTERVENTIONS/V7#CL_--SCAT
  :name: "--SCAT"
  :classified_as: Grouping
- :uri: http://www.cdisc.org/SDTM_MODEL_INTERVENTIONS/V7#CL_--STAT
  :name: "--STAT"
  :classified_as: Record
- :uri: http://www.cdisc.org/SDTM_MODEL_INTERVENTIONS/V7#CL_--TDOSD
  :name: "--TDOSD"
  :classified_as: Record
- :uri: http://www.cdisc.org/SDTM_MODEL_INTERVENTIONS/V7#CL_--TRT
  :name: "--TRT"
  :classified_as: Topic
- :uri: http://www.cdisc.org/SDTM_MODEL_INTERVENTIONS/V7#CL_--TRTV
  :name: "--TRTV"
  :classified_as: Record
- :uri: http://www.cdisc.org/SDTM_MODEL_INTERVENTIONS/V7#CL_--USCHFL
  :name: "--USCHFL"
  :classified_as: Record
- :uri: http://www.cdisc.org/SDTM_MODEL_INTERVENTIONS/V7#CL_--VAMT
  :name: "--VAMT"
  :classified_as: Record
- :uri: http://www.cdisc.org/SDTM_MODEL_INTERVENTIONS/V7#CL_--VAMTU
  :name: "--VAMTU"
  :classified_as: Variable
- :uri: http://www.cdisc.org/SDTM_MODEL_POOLDEF/V3#CL_APID
  :name: APID
  :classified_as: None
- :uri: http://www.cdisc.org/SDTM_MODEL_POOLDEF/V3#CL_POOLID
  :name: POOLID
  :classified_as: None
- :uri: http://www.cdisc.org/SDTM_MODEL_POOLDEF/V3#CL_STUDYID
  :name: STUDYID
  :classified_as: None
- :uri: http://www.cdisc.org/SDTM_MODEL_POOLDEF/V3#CL_USUBJID
  :name: USUBJID
  :classified_as: None
- :uri: http://www.cdisc.org/SDTM_MODEL_POOLDEF/V4#CL_POOLID
  :name: POOLID
  :classified_as: Identifier
- :uri: http://www.cdisc.org/SDTM_MODEL_POOLDEF/V4#CL_STUDYID
  :name: STUDYID
  :classified_as: Identifier
- :uri: http://www.cdisc.org/SDTM_MODEL_POOLDEF/V4#CL_USUBJID
  :name: USUBJID
  :classified_as: Identifier
- :uri: http://www.cdisc.org/SDTM_MODEL_POOLDEF/V6#CL_APID
  :name: APID
  :classified_as: Identifier
- :uri: http://www.cdisc.org/SDTM_MODEL_POOLDEF/V6#CL_POOLID
  :name: POOLID
  :classified_as: Identifier
- :uri: http://www.cdisc.org/SDTM_MODEL_POOLDEF/V6#CL_STUDYID
  :name: STUDYID
  :classified_as: Identifier
- :uri: http://www.cdisc.org/SDTM_MODEL_POOLDEF/V6#CL_USUBJID
  :name: USUBJID
  :classified_as: Identifier
- :uri: http://www.cdisc.org/SDTM_MODEL_RELREC/V1#CL_IDVAR
  :name: IDVAR
  :classified_as: None
- :uri: http://www.cdisc.org/SDTM_MODEL_RELREC/V1#CL_IDVARVAL
  :name: IDVARVAL
  :classified_as: None
- :uri: http://www.cdisc.org/SDTM_MODEL_RELREC/V1#CL_RDOMAIN
  :name: RDOMAIN
  :classified_as: None
- :uri: http://www.cdisc.org/SDTM_MODEL_RELREC/V1#CL_RELID
  :name: RELID
  :classified_as: None
- :uri: http://www.cdisc.org/SDTM_MODEL_RELREC/V1#CL_RELTYPE
  :name: RELTYPE
  :classified_as: None
- :uri: http://www.cdisc.org/SDTM_MODEL_RELREC/V1#CL_STUDYID
  :name: STUDYID
  :classified_as: None
- :uri: http://www.cdisc.org/SDTM_MODEL_RELREC/V1#CL_USUBJID
  :name: USUBJID
  :classified_as: None
- :uri: http://www.cdisc.org/SDTM_MODEL_RELREC/V2#CL_RDOMAIN
  :name: RDOMAIN
  :classified_as: None
- :uri: http://www.cdisc.org/SDTM_MODEL_RELREC/V2#CL_RELID
  :name: RELID
  :classified_as: None
- :uri: http://www.cdisc.org/SDTM_MODEL_RELREC/V2#CL_STUDYID
  :name: STUDYID
  :classified_as: None
- :uri: http://www.cdisc.org/SDTM_MODEL_RELREC/V3#CL_IDVARVAL
  :name: IDVARVAL
  :classified_as: None
- :uri: http://www.cdisc.org/SDTM_MODEL_RELREC/V4#CL_IDVAR
  :name: IDVAR
  :classified_as: None
- :uri: http://www.cdisc.org/SDTM_MODEL_RELREC/V4#CL_IDVARVAL
  :name: IDVARVAL
  :classified_as: None
- :uri: http://www.cdisc.org/SDTM_MODEL_RELREC/V4#CL_POOLID
  :name: POOLID
  :classified_as: None
- :uri: http://www.cdisc.org/SDTM_MODEL_RELREC/V4#CL_RDOMAIN
  :name: RDOMAIN
  :classified_as: None
- :uri: http://www.cdisc.org/SDTM_MODEL_RELREC/V4#CL_RELID
  :name: RELID
  :classified_as: None
- :uri: http://www.cdisc.org/SDTM_MODEL_RELREC/V4#CL_RELTYPE
  :name: RELTYPE
  :classified_as: None
- :uri: http://www.cdisc.org/SDTM_MODEL_RELREC/V4#CL_STUDYID
  :name: STUDYID
  :classified_as: None
- :uri: http://www.cdisc.org/SDTM_MODEL_RELREC/V4#CL_USUBJID
  :name: USUBJID
  :classified_as: None
- :uri: http://www.cdisc.org/SDTM_MODEL_RELREC/V6#CL_APID
  :name: APID
  :classified_as: Identifier
- :uri: http://www.cdisc.org/SDTM_MODEL_RELREC/V6#CL_IDVAR
  :name: IDVAR
  :classified_as: Identifier
- :uri: http://www.cdisc.org/SDTM_MODEL_RELREC/V6#CL_IDVARVAL
  :name: IDVARVAL
  :classified_as: Identifier
- :uri: http://www.cdisc.org/SDTM_MODEL_RELREC/V6#CL_POOLID
  :name: POOLID
  :classified_as: Identifier
- :uri: http://www.cdisc.org/SDTM_MODEL_RELREC/V6#CL_RDOMAIN
  :name: RDOMAIN
  :classified_as: Identifier
- :uri: http://www.cdisc.org/SDTM_MODEL_RELREC/V6#CL_RELID
  :name: RELID
  :classified_as: Record
- :uri: http://www.cdisc.org/SDTM_MODEL_RELREC/V6#CL_RELTYPE
  :name: RELTYPE
  :classified_as: Record
- :uri: http://www.cdisc.org/SDTM_MODEL_RELREC/V6#CL_STUDYID
  :name: STUDYID
  :classified_as: Identifier
- :uri: http://www.cdisc.org/SDTM_MODEL_RELREC/V6#CL_USUBJID
  :name: USUBJID
  :classified_as: Identifier
- :uri: http://www.cdisc.org/SDTM_MODEL_RELREC/V7#CL_APID
  :name: APID
  :classified_as: Identifier
- :uri: http://www.cdisc.org/SDTM_MODEL_RELSUB/V3#CL_POOLID
  :name: POOLID
  :classified_as: None
- :uri: http://www.cdisc.org/SDTM_MODEL_RELSUB/V3#CL_RSUBJID
  :name: RSUBJID
  :classified_as: None
- :uri: http://www.cdisc.org/SDTM_MODEL_RELSUB/V3#CL_SREL
  :name: SREL
  :classified_as: None
- :uri: http://www.cdisc.org/SDTM_MODEL_RELSUB/V3#CL_STUDYID
  :name: STUDYID
  :classified_as: None
- :uri: http://www.cdisc.org/SDTM_MODEL_RELSUB/V3#CL_USUBJID
  :name: USUBJID
  :classified_as: None
- :uri: http://www.cdisc.org/SDTM_MODEL_RELSUB/V6#CL_POOLID
  :name: POOLID
  :classified_as: Identifier
- :uri: http://www.cdisc.org/SDTM_MODEL_RELSUB/V6#CL_RSUBJID
  :name: RSUBJID
  :classified_as: Identifier
- :uri: http://www.cdisc.org/SDTM_MODEL_RELSUB/V6#CL_SREL
  :name: SREL
  :classified_as: Record
- :uri: http://www.cdisc.org/SDTM_MODEL_RELSUB/V6#CL_STUDYID
  :name: STUDYID
  :classified_as: Identifier
- :uri: http://www.cdisc.org/SDTM_MODEL_RELSUB/V6#CL_USUBJID
  :name: USUBJID
  :classified_as: Identifier
- :uri: http://www.cdisc.org/SDTM_MODEL_SE/V1#CL_DOMAIN
  :name: DOMAIN
  :classified_as: Identifier
- :uri: http://www.cdisc.org/SDTM_MODEL_SE/V1#CL_ELEMENT
  :name: ELEMENT
  :classified_as: Synonym
- :uri: http://www.cdisc.org/SDTM_MODEL_SE/V1#CL_EPOCH
  :name: EPOCH
  :classified_as: Timing
- :uri: http://www.cdisc.org/SDTM_MODEL_SE/V1#CL_ETCD
  :name: ETCD
  :classified_as: Topic
- :uri: http://www.cdisc.org/SDTM_MODEL_SE/V1#CL_SEENDTC
  :name: SEENDTC
  :classified_as: Timing
- :uri: http://www.cdisc.org/SDTM_MODEL_SE/V1#CL_SESEQ
  :name: SESEQ
  :classified_as: Identifier
- :uri: http://www.cdisc.org/SDTM_MODEL_SE/V1#CL_SESTDTC
  :name: SESTDTC
  :classified_as: Timing
- :uri: http://www.cdisc.org/SDTM_MODEL_SE/V1#CL_SEUPDES
  :name: SEUPDES
  :classified_as: Synonym
- :uri: http://www.cdisc.org/SDTM_MODEL_SE/V1#CL_STUDYID
  :name: STUDYID
  :classified_as: Identifier
- :uri: http://www.cdisc.org/SDTM_MODEL_SE/V1#CL_TAETORD
  :name: TAETORD
  :classified_as: Timing
- :uri: http://www.cdisc.org/SDTM_MODEL_SE/V1#CL_USUBJID
  :name: USUBJID
  :classified_as: Identifier
- :uri: http://www.cdisc.org/SDTM_MODEL_SE/V2#CL_ELEMENT
  :name: ELEMENT
  :classified_as: Synonym
- :uri: http://www.cdisc.org/SDTM_MODEL_SE/V2#CL_ETCD
  :name: ETCD
  :classified_as: Topic
- :uri: http://www.cdisc.org/SDTM_MODEL_SE/V2#CL_SEUPDES
  :name: SEUPDES
  :classified_as: Synonym
- :uri: http://www.cdisc.org/SDTM_MODEL_SE/V2#CL_TAETORD
  :name: TAETORD
  :classified_as: Timing
- :uri: http://www.cdisc.org/SDTM_MODEL_SE/V3#CL_ETCD
  :name: ETCD
  :classified_as: Topic
- :uri: http://www.cdisc.org/SDTM_MODEL_SE/V4#CL_ELEMENT
  :name: ELEMENT
  :classified_as: Synonym
- :uri: http://www.cdisc.org/SDTM_MODEL_SE/V4#CL_ETCD
  :name: ETCD
  :classified_as: Topic
- :uri: http://www.cdisc.org/SDTM_MODEL_SE/V4#CL_SEENDTC
  :name: SEENDTC
  :classified_as: Timing
- :uri: http://www.cdisc.org/SDTM_MODEL_SE/V4#CL_SESEQ
  :name: SESEQ
  :classified_as: Identifier
- :uri: http://www.cdisc.org/SDTM_MODEL_SE/V4#CL_SESTDTC
  :name: SESTDTC
  :classified_as: Timing
- :uri: http://www.cdisc.org/SDTM_MODEL_SE/V4#CL_SEUPDES
  :name: SEUPDES
  :classified_as: Synonym
- :uri: http://www.cdisc.org/SDTM_MODEL_SE/V6#CL_DOMAIN
  :name: DOMAIN
  :classified_as: Identifier
- :uri: http://www.cdisc.org/SDTM_MODEL_SE/V6#CL_ELEMENT
  :name: ELEMENT
  :classified_as: None
- :uri: http://www.cdisc.org/SDTM_MODEL_SE/V6#CL_EPOCH
  :name: EPOCH
  :classified_as: Timing
- :uri: http://www.cdisc.org/SDTM_MODEL_SE/V6#CL_ETCD
  :name: ETCD
  :classified_as: Topic
- :uri: http://www.cdisc.org/SDTM_MODEL_SE/V6#CL_SEENDTC
  :name: SEENDTC
  :classified_as: Timing
- :uri: http://www.cdisc.org/SDTM_MODEL_SE/V6#CL_SESEQ
  :name: SESEQ
  :classified_as: Identifier
- :uri: http://www.cdisc.org/SDTM_MODEL_SE/V6#CL_SESTDTC
  :name: SESTDTC
  :classified_as: Timing
- :uri: http://www.cdisc.org/SDTM_MODEL_SE/V6#CL_SEUPDES
  :name: SEUPDES
  :classified_as: None
- :uri: http://www.cdisc.org/SDTM_MODEL_SE/V6#CL_TAETORD
  :name: TAETORD
  :classified_as: Timing
- :uri: http://www.cdisc.org/SDTM_MODEL_SE/V7#CL_ELEMENT
  :name: ELEMENT
  :classified_as: Synonym
- :uri: http://www.cdisc.org/SDTM_MODEL_SE/V7#CL_SEUPDES
  :name: SEUPDES
  :classified_as: Synonym
- :uri: http://www.cdisc.org/SDTM_MODEL_SJ/V6#CL_DOMAIN
  :name: DOMAIN
  :classified_as: Identifier
- :uri: http://www.cdisc.org/SDTM_MODEL_SJ/V6#CL_RPHASE
  :name: RPHASE
  :classified_as: Timing
- :uri: http://www.cdisc.org/SDTM_MODEL_SJ/V6#CL_RSTAGE
  :name: RSTAGE
  :classified_as: None
- :uri: http://www.cdisc.org/SDTM_MODEL_SJ/V6#CL_RSTGCD
  :name: RSTGCD
  :classified_as: Topic
- :uri: http://www.cdisc.org/SDTM_MODEL_SJ/V6#CL_SJENDTC
  :name: SJENDTC
  :classified_as: Timing
- :uri: http://www.cdisc.org/SDTM_MODEL_SJ/V6#CL_SJSEQ
  :name: SJSEQ
  :classified_as: Identifier
- :uri: http://www.cdisc.org/SDTM_MODEL_SJ/V6#CL_SJSTDTC
  :name: SJSTDTC
  :classified_as: Timing
- :uri: http://www.cdisc.org/SDTM_MODEL_SJ/V6#CL_SJUPDES
  :name: SJUPDES
  :classified_as: None
- :uri: http://www.cdisc.org/SDTM_MODEL_SJ/V6#CL_STUDYID
  :name: STUDYID
  :classified_as: Identifier
- :uri: http://www.cdisc.org/SDTM_MODEL_SJ/V6#CL_USUBJID
  :name: USUBJID
  :classified_as: Identifier
- :uri: http://www.cdisc.org/SDTM_MODEL_SJ/V7#CL_RSTAGE
  :name: RSTAGE
  :classified_as: Synonym
- :uri: http://www.cdisc.org/SDTM_MODEL_SJ/V7#CL_SJUPDES
  :name: SJUPDES
  :classified_as: Synonym
- :uri: http://www.cdisc.org/SDTM_MODEL_SM/V6#CL_DOMAIN
  :name: DOMAIN
  :classified_as: Identifier
- :uri: http://www.cdisc.org/SDTM_MODEL_SM/V6#CL_MIDS
  :name: MIDS
  :classified_as: Topic
- :uri: http://www.cdisc.org/SDTM_MODEL_SM/V6#CL_MIDSTYPE
  :name: MIDSTYPE
  :classified_as: Record
- :uri: http://www.cdisc.org/SDTM_MODEL_SM/V6#CL_SMENDTC
  :name: SMENDTC
  :classified_as: Timing
- :uri: http://www.cdisc.org/SDTM_MODEL_SM/V6#CL_SMENDY
  :name: SMENDY
  :classified_as: Timing
- :uri: http://www.cdisc.org/SDTM_MODEL_SM/V6#CL_SMSEQ
  :name: SMSEQ
  :classified_as: Identifier
- :uri: http://www.cdisc.org/SDTM_MODEL_SM/V6#CL_SMSTDTC
  :name: SMSTDTC
  :classified_as: Timing
- :uri: http://www.cdisc.org/SDTM_MODEL_SM/V6#CL_SMSTDY
  :name: SMSTDY
  :classified_as: Timing
- :uri: http://www.cdisc.org/SDTM_MODEL_SM/V6#CL_STUDYID
  :name: STUDYID
  :classified_as: Identifier
- :uri: http://www.cdisc.org/SDTM_MODEL_SM/V6#CL_USUBJID
  :name: USUBJID
  :classified_as: Identifier
- :uri: http://www.cdisc.org/SDTM_MODEL_SUPPQUAL/V1#CL_IDVAR
  :name: IDVAR
  :classified_as: None
- :uri: http://www.cdisc.org/SDTM_MODEL_SUPPQUAL/V1#CL_IDVARVAL
  :name: IDVARVAL
  :classified_as: None
- :uri: http://www.cdisc.org/SDTM_MODEL_SUPPQUAL/V1#CL_QEVAL
  :name: QEVAL
  :classified_as: None
- :uri: http://www.cdisc.org/SDTM_MODEL_SUPPQUAL/V1#CL_QLABEL
  :name: QLABEL
  :classified_as: None
- :uri: http://www.cdisc.org/SDTM_MODEL_SUPPQUAL/V1#CL_QNAM
  :name: QNAM
  :classified_as: None
- :uri: http://www.cdisc.org/SDTM_MODEL_SUPPQUAL/V1#CL_QORIG
  :name: QORIG
  :classified_as: None
- :uri: http://www.cdisc.org/SDTM_MODEL_SUPPQUAL/V1#CL_QVAL
  :name: QVAL
  :classified_as: None
- :uri: http://www.cdisc.org/SDTM_MODEL_SUPPQUAL/V1#CL_RDOMAIN
  :name: RDOMAIN
  :classified_as: None
- :uri: http://www.cdisc.org/SDTM_MODEL_SUPPQUAL/V1#CL_STUDYID
  :name: STUDYID
  :classified_as: None
- :uri: http://www.cdisc.org/SDTM_MODEL_SUPPQUAL/V1#CL_USUBJID
  :name: USUBJID
  :classified_as: None
- :uri: http://www.cdisc.org/SDTM_MODEL_SUPPQUAL/V2#CL_IDVAR
  :name: IDVAR
  :classified_as: None
- :uri: http://www.cdisc.org/SDTM_MODEL_SUPPQUAL/V2#CL_IDVARVAL
  :name: IDVARVAL
  :classified_as: None
- :uri: http://www.cdisc.org/SDTM_MODEL_SUPPQUAL/V2#CL_QNAM
  :name: QNAM
  :classified_as: None
- :uri: http://www.cdisc.org/SDTM_MODEL_SUPPQUAL/V2#CL_STUDYID
  :name: STUDYID
  :classified_as: None
- :uri: http://www.cdisc.org/SDTM_MODEL_SUPPQUAL/V2#CL_USUBJID
  :name: USUBJID
  :classified_as: None
- :uri: http://www.cdisc.org/SDTM_MODEL_SUPPQUAL/V3#CL_QORIG
  :name: QORIG
  :classified_as: None
- :uri: http://www.cdisc.org/SDTM_MODEL_SUPPQUAL/V4#CL_IDVAR
  :name: IDVAR
  :classified_as: None
- :uri: http://www.cdisc.org/SDTM_MODEL_SUPPQUAL/V4#CL_IDVARVAL
  :name: IDVARVAL
  :classified_as: None
- :uri: http://www.cdisc.org/SDTM_MODEL_SUPPQUAL/V4#CL_POOLID
  :name: POOLID
  :classified_as: None
- :uri: http://www.cdisc.org/SDTM_MODEL_SUPPQUAL/V4#CL_QEVAL
  :name: QEVAL
  :classified_as: None
- :uri: http://www.cdisc.org/SDTM_MODEL_SUPPQUAL/V4#CL_QLABEL
  :name: QLABEL
  :classified_as: None
- :uri: http://www.cdisc.org/SDTM_MODEL_SUPPQUAL/V4#CL_QNAM
  :name: QNAM
  :classified_as: None
- :uri: http://www.cdisc.org/SDTM_MODEL_SUPPQUAL/V4#CL_QORIG
  :name: QORIG
  :classified_as: None
- :uri: http://www.cdisc.org/SDTM_MODEL_SUPPQUAL/V4#CL_QVAL
  :name: QVAL
  :classified_as: None
- :uri: http://www.cdisc.org/SDTM_MODEL_SUPPQUAL/V4#CL_STUDYID
  :name: STUDYID
  :classified_as: None
- :uri: http://www.cdisc.org/SDTM_MODEL_SUPPQUAL/V4#CL_USUBJID
  :name: USUBJID
  :classified_as: None
- :uri: http://www.cdisc.org/SDTM_MODEL_SUPPQUAL/V6#CL_APID
  :name: APID
  :classified_as: Identifier
- :uri: http://www.cdisc.org/SDTM_MODEL_SUPPQUAL/V6#CL_IDVAR
  :name: IDVAR
  :classified_as: Identifier
- :uri: http://www.cdisc.org/SDTM_MODEL_SUPPQUAL/V6#CL_IDVARVAL
  :name: IDVARVAL
  :classified_as: Identifier
- :uri: http://www.cdisc.org/SDTM_MODEL_SUPPQUAL/V6#CL_POOLID
  :name: POOLID
  :classified_as: Identifier
- :uri: http://www.cdisc.org/SDTM_MODEL_SUPPQUAL/V6#CL_QEVAL
  :name: QEVAL
  :classified_as: Record
- :uri: http://www.cdisc.org/SDTM_MODEL_SUPPQUAL/V6#CL_QLABEL
  :name: QLABEL
  :classified_as: None
- :uri: http://www.cdisc.org/SDTM_MODEL_SUPPQUAL/V6#CL_QNAM
  :name: QNAM
  :classified_as: Topic
- :uri: http://www.cdisc.org/SDTM_MODEL_SUPPQUAL/V6#CL_QORIG
  :name: QORIG
  :classified_as: Record
- :uri: http://www.cdisc.org/SDTM_MODEL_SUPPQUAL/V6#CL_QVAL
  :name: QVAL
  :classified_as: Result
- :uri: http://www.cdisc.org/SDTM_MODEL_SUPPQUAL/V6#CL_RDOMAIN
  :name: RDOMAIN
  :classified_as: Identifier
- :uri: http://www.cdisc.org/SDTM_MODEL_SUPPQUAL/V6#CL_STUDYID
  :name: STUDYID
  :classified_as: Identifier
- :uri: http://www.cdisc.org/SDTM_MODEL_SUPPQUAL/V6#CL_USUBJID
  :name: USUBJID
  :classified_as: Identifier
- :uri: http://www.cdisc.org/SDTM_MODEL_SUPPQUAL/V7#CL_APID
  :name: APID
  :classified_as: Identifier
- :uri: http://www.cdisc.org/SDTM_MODEL_SUPPQUAL/V7#CL_QLABEL
  :name: QLABEL
  :classified_as: Synonym
- :uri: http://www.cdisc.org/SDTM_MODEL_SUPPQUAL/V7#CL_QNAM
  :name: QNAM
  :classified_as: Topic
- :uri: http://www.cdisc.org/SDTM_MODEL_SV/V1#CL_DOMAIN
  :name: DOMAIN
  :classified_as: Identifier
- :uri: http://www.cdisc.org/SDTM_MODEL_SV/V1#CL_STUDYID
  :name: STUDYID
  :classified_as: Identifier
- :uri: http://www.cdisc.org/SDTM_MODEL_SV/V1#CL_SVENDTC
  :name: SVENDTC
  :classified_as: Timing
- :uri: http://www.cdisc.org/SDTM_MODEL_SV/V1#CL_SVENDY
  :name: SVENDY
  :classified_as: Timing
- :uri: http://www.cdisc.org/SDTM_MODEL_SV/V1#CL_SVSTDTC
  :name: SVSTDTC
  :classified_as: Timing
- :uri: http://www.cdisc.org/SDTM_MODEL_SV/V1#CL_SVSTDY
  :name: SVSTDY
  :classified_as: Timing
- :uri: http://www.cdisc.org/SDTM_MODEL_SV/V1#CL_SVUPDES
  :name: SVUPDES
  :classified_as: Synonym
- :uri: http://www.cdisc.org/SDTM_MODEL_SV/V1#CL_USUBJID
  :name: USUBJID
  :classified_as: Identifier
- :uri: http://www.cdisc.org/SDTM_MODEL_SV/V1#CL_VISIT
  :name: VISIT
  :classified_as: Synonym
- :uri: http://www.cdisc.org/SDTM_MODEL_SV/V1#CL_VISITDY
  :name: VISITDY
  :classified_as: Timing
- :uri: http://www.cdisc.org/SDTM_MODEL_SV/V1#CL_VISITNUM
  :name: VISITNUM
  :classified_as: Topic
- :uri: http://www.cdisc.org/SDTM_MODEL_SV/V2#CL_VISIT
  :name: VISIT
  :classified_as: Synonym
- :uri: http://www.cdisc.org/SDTM_MODEL_SV/V2#CL_VISITDY
  :name: VISITDY
  :classified_as: Timing
- :uri: http://www.cdisc.org/SDTM_MODEL_SV/V2#CL_VISITNUM
  :name: VISITNUM
  :classified_as: Topic
- :uri: http://www.cdisc.org/SDTM_MODEL_SV/V3#CL_VISIT
  :name: VISIT
  :classified_as: Synonym
- :uri: http://www.cdisc.org/SDTM_MODEL_SV/V3#CL_VISITNUM
  :name: VISITNUM
  :classified_as: Topic
- :uri: http://www.cdisc.org/SDTM_MODEL_SV/V6#CL_DOMAIN
  :name: DOMAIN
  :classified_as: Identifier
- :uri: http://www.cdisc.org/SDTM_MODEL_SV/V6#CL_SVENDTC
  :name: SVENDTC
  :classified_as: Timing
- :uri: http://www.cdisc.org/SDTM_MODEL_SV/V6#CL_SVSTDTC
  :name: SVSTDTC
  :classified_as: Timing
- :uri: http://www.cdisc.org/SDTM_MODEL_SV/V6#CL_SVUPDES
  :name: SVUPDES
  :classified_as: None
- :uri: http://www.cdisc.org/SDTM_MODEL_SV/V6#CL_VISIT
  :name: VISIT
  :classified_as: Timing
- :uri: http://www.cdisc.org/SDTM_MODEL_SV/V6#CL_VISITNUM
  :name: VISITNUM
  :classified_as: Topic
- :uri: http://www.cdisc.org/SDTM_MODEL_SV/V7#CL_SVUPDES
  :name: SVUPDES
  :classified_as: Synonym
- :uri: http://www.cdisc.org/SDTM_MODEL_TA/V1#CL_ARM
  :name: ARM
  :classified_as: Synonym
- :uri: http://www.cdisc.org/SDTM_MODEL_TA/V1#CL_ARMCD
  :name: ARMCD
  :classified_as: Topic
- :uri: http://www.cdisc.org/SDTM_MODEL_TA/V1#CL_DOMAIN
  :name: DOMAIN
  :classified_as: Identifier
- :uri: http://www.cdisc.org/SDTM_MODEL_TA/V1#CL_ELEMENT
  :name: ELEMENT
  :classified_as: Synonym
- :uri: http://www.cdisc.org/SDTM_MODEL_TA/V1#CL_EPOCH
  :name: EPOCH
  :classified_as: Timing
- :uri: http://www.cdisc.org/SDTM_MODEL_TA/V1#CL_ETCD
  :name: ETCD
  :classified_as: Record
- :uri: http://www.cdisc.org/SDTM_MODEL_TA/V1#CL_STUDYID
  :name: STUDYID
  :classified_as: Identifier
- :uri: http://www.cdisc.org/SDTM_MODEL_TA/V1#CL_TABRANCH
  :name: TABRANCH
  :classified_as: Rule
- :uri: http://www.cdisc.org/SDTM_MODEL_TA/V1#CL_TAETORD
  :name: TAETORD
  :classified_as: Identifier
- :uri: http://www.cdisc.org/SDTM_MODEL_TA/V1#CL_TATRANS
  :name: TATRANS
  :classified_as: Rule
- :uri: http://www.cdisc.org/SDTM_MODEL_TA/V2#CL_ARMCD
  :name: ARMCD
  :classified_as: Topic
- :uri: http://www.cdisc.org/SDTM_MODEL_TA/V2#CL_ELEMENT
  :name: ELEMENT
  :classified_as: Synonym
- :uri: http://www.cdisc.org/SDTM_MODEL_TA/V2#CL_EPOCH
  :name: EPOCH
  :classified_as: Timing
- :uri: http://www.cdisc.org/SDTM_MODEL_TA/V2#CL_TABRANCH
  :name: TABRANCH
  :classified_as: Rule
- :uri: http://www.cdisc.org/SDTM_MODEL_TA/V2#CL_TAETORD
  :name: TAETORD
  :classified_as: Timing
- :uri: http://www.cdisc.org/SDTM_MODEL_TA/V3#CL_TAETORD
  :name: TAETORD
  :classified_as: Timing
- :uri: http://www.cdisc.org/SDTM_MODEL_TA/V4#CL_ARM
  :name: ARM
  :classified_as: Synonym
- :uri: http://www.cdisc.org/SDTM_MODEL_TA/V4#CL_ARMCD
  :name: ARMCD
  :classified_as: Topic
- :uri: http://www.cdisc.org/SDTM_MODEL_TA/V4#CL_ELEMENT
  :name: ELEMENT
  :classified_as: Synonym
- :uri: http://www.cdisc.org/SDTM_MODEL_TA/V4#CL_EPOCH
  :name: EPOCH
  :classified_as: Timing
- :uri: http://www.cdisc.org/SDTM_MODEL_TA/V4#CL_ETCD
  :name: ETCD
  :classified_as: Record
- :uri: http://www.cdisc.org/SDTM_MODEL_TA/V4#CL_TABRANCH
  :name: TABRANCH
  :classified_as: Rule
- :uri: http://www.cdisc.org/SDTM_MODEL_TA/V4#CL_TAETORD
  :name: TAETORD
  :classified_as: Timing
- :uri: http://www.cdisc.org/SDTM_MODEL_TA/V4#CL_TATRANS
  :name: TATRANS
  :classified_as: Rule
- :uri: http://www.cdisc.org/SDTM_MODEL_TA/V6#CL_ARM
  :name: ARM
  :classified_as: None
- :uri: http://www.cdisc.org/SDTM_MODEL_TA/V6#CL_ARMCD
  :name: ARMCD
  :classified_as: Topic
- :uri: http://www.cdisc.org/SDTM_MODEL_TA/V6#CL_DOMAIN
  :name: DOMAIN
  :classified_as: Identifier
- :uri: http://www.cdisc.org/SDTM_MODEL_TA/V6#CL_ELEMENT
  :name: ELEMENT
  :classified_as: None
- :uri: http://www.cdisc.org/SDTM_MODEL_TA/V6#CL_EPOCH
  :name: EPOCH
  :classified_as: Timing
- :uri: http://www.cdisc.org/SDTM_MODEL_TA/V6#CL_ETCD
  :name: ETCD
  :classified_as: Record
- :uri: http://www.cdisc.org/SDTM_MODEL_TA/V6#CL_TABRANCH
  :name: TABRANCH
  :classified_as: Rule
- :uri: http://www.cdisc.org/SDTM_MODEL_TA/V6#CL_TAETORD
  :name: TAETORD
  :classified_as: Timing
- :uri: http://www.cdisc.org/SDTM_MODEL_TA/V6#CL_TATRANS
  :name: TATRANS
  :classified_as: Rule
- :uri: http://www.cdisc.org/SDTM_MODEL_TA/V7#CL_ARM
  :name: ARM
  :classified_as: Synonym
- :uri: http://www.cdisc.org/SDTM_MODEL_TA/V7#CL_ELEMENT
  :name: ELEMENT
  :classified_as: Synonym
- :uri: http://www.cdisc.org/SDTM_MODEL_TD/V3#CL_DOMAIN
  :name: DOMAIN
  :classified_as: Identifier
- :uri: http://www.cdisc.org/SDTM_MODEL_TD/V3#CL_STUDYID
  :name: STUDYID
  :classified_as: Identifier
- :uri: http://www.cdisc.org/SDTM_MODEL_TD/V3#CL_TDANCVAR
  :name: TDANCVAR
  :classified_as: Timing
- :uri: http://www.cdisc.org/SDTM_MODEL_TD/V3#CL_TDMAXPAI
  :name: TDMAXPAI
  :classified_as: Timing
- :uri: http://www.cdisc.org/SDTM_MODEL_TD/V3#CL_TDMINPAI
  :name: TDMINPAI
  :classified_as: Timing
- :uri: http://www.cdisc.org/SDTM_MODEL_TD/V3#CL_TDNUMRPT
  :name: TDNUMRPT
  :classified_as: Record
- :uri: http://www.cdisc.org/SDTM_MODEL_TD/V3#CL_TDORDER
  :name: TDORDER
  :classified_as: Timing
- :uri: http://www.cdisc.org/SDTM_MODEL_TD/V3#CL_TDSTOFF
  :name: TDSTOFF
  :classified_as: Timing
- :uri: http://www.cdisc.org/SDTM_MODEL_TD/V3#CL_TDTGTPAI
  :name: TDTGTPAI
  :classified_as: Timing
- :uri: http://www.cdisc.org/SDTM_MODEL_TD/V6#CL_DOMAIN
  :name: DOMAIN
  :classified_as: Identifier
- :uri: http://www.cdisc.org/SDTM_MODEL_TD/V6#CL_TDANCVAR
  :name: TDANCVAR
  :classified_as: Timing
- :uri: http://www.cdisc.org/SDTM_MODEL_TD/V6#CL_TDMAXPAI
  :name: TDMAXPAI
  :classified_as: Timing
- :uri: http://www.cdisc.org/SDTM_MODEL_TD/V6#CL_TDMINPAI
  :name: TDMINPAI
  :classified_as: Timing
- :uri: http://www.cdisc.org/SDTM_MODEL_TD/V6#CL_TDNUMRPT
  :name: TDNUMRPT
  :classified_as: Record
- :uri: http://www.cdisc.org/SDTM_MODEL_TD/V6#CL_TDSTOFF
  :name: TDSTOFF
  :classified_as: Timing
- :uri: http://www.cdisc.org/SDTM_MODEL_TD/V6#CL_TDTGTPAI
  :name: TDTGTPAI
  :classified_as: Timing
- :uri: http://www.cdisc.org/SDTM_MODEL_TE/V1#CL_DOMAIN
  :name: DOMAIN
  :classified_as: Identifier
- :uri: http://www.cdisc.org/SDTM_MODEL_TE/V1#CL_ELEMENT
  :name: ELEMENT
  :classified_as: Synonym
- :uri: http://www.cdisc.org/SDTM_MODEL_TE/V1#CL_ETCD
  :name: ETCD
  :classified_as: Topic
- :uri: http://www.cdisc.org/SDTM_MODEL_TE/V1#CL_STUDYID
  :name: STUDYID
  :classified_as: Identifier
- :uri: http://www.cdisc.org/SDTM_MODEL_TE/V1#CL_TEDUR
  :name: TEDUR
  :classified_as: Timing
- :uri: http://www.cdisc.org/SDTM_MODEL_TE/V1#CL_TEENRL
  :name: TEENRL
  :classified_as: Rule
- :uri: http://www.cdisc.org/SDTM_MODEL_TE/V1#CL_TESTRL
  :name: TESTRL
  :classified_as: Rule
- :uri: http://www.cdisc.org/SDTM_MODEL_TE/V2#CL_ELEMENT
  :name: ELEMENT
  :classified_as: Synonym
- :uri: http://www.cdisc.org/SDTM_MODEL_TE/V4#CL_ETCD
  :name: ETCD
  :classified_as: Topic
- :uri: http://www.cdisc.org/SDTM_MODEL_TE/V4#CL_TEDUR
  :name: TEDUR
  :classified_as: Timing
- :uri: http://www.cdisc.org/SDTM_MODEL_TE/V4#CL_TEENRL
  :name: TEENRL
  :classified_as: Rule
- :uri: http://www.cdisc.org/SDTM_MODEL_TE/V6#CL_DOMAIN
  :name: DOMAIN
  :classified_as: Identifier
- :uri: http://www.cdisc.org/SDTM_MODEL_TE/V6#CL_ELEMENT
  :name: ELEMENT
  :classified_as: None
- :uri: http://www.cdisc.org/SDTM_MODEL_TE/V6#CL_ETCD
  :name: ETCD
  :classified_as: Topic
- :uri: http://www.cdisc.org/SDTM_MODEL_TE/V6#CL_TEDUR
  :name: TEDUR
  :classified_as: Timing
- :uri: http://www.cdisc.org/SDTM_MODEL_TE/V6#CL_TEENRL
  :name: TEENRL
  :classified_as: Rule
- :uri: http://www.cdisc.org/SDTM_MODEL_TE/V6#CL_TESTRL
  :name: TESTRL
  :classified_as: Rule
- :uri: http://www.cdisc.org/SDTM_MODEL_TE/V7#CL_ELEMENT
  :name: ELEMENT
  :classified_as: Synonym
- :uri: http://www.cdisc.org/SDTM_MODEL_TI/V1#CL_DOMAIN
  :name: DOMAIN
  :classified_as: Identifier
- :uri: http://www.cdisc.org/SDTM_MODEL_TI/V1#CL_IECAT
  :name: IECAT
  :classified_as: Grouping
- :uri: http://www.cdisc.org/SDTM_MODEL_TI/V1#CL_IESCAT
  :name: IESCAT
  :classified_as: Grouping
- :uri: http://www.cdisc.org/SDTM_MODEL_TI/V1#CL_IETEST
  :name: IETEST
  :classified_as: Synonym
- :uri: http://www.cdisc.org/SDTM_MODEL_TI/V1#CL_IETESTCD
  :name: IETESTCD
  :classified_as: Topic
- :uri: http://www.cdisc.org/SDTM_MODEL_TI/V1#CL_STUDYID
  :name: STUDYID
  :classified_as: Identifier
- :uri: http://www.cdisc.org/SDTM_MODEL_TI/V1#CL_TIRL
  :name: TIRL
  :classified_as: Rule
- :uri: http://www.cdisc.org/SDTM_MODEL_TI/V1#CL_TIVERS
  :name: TIVERS
  :classified_as: Record
- :uri: http://www.cdisc.org/SDTM_MODEL_TI/V2#CL_IECAT
  :name: IECAT
  :classified_as: Grouping
- :uri: http://www.cdisc.org/SDTM_MODEL_TI/V2#CL_IETEST
  :name: IETEST
  :classified_as: Synonym
- :uri: http://www.cdisc.org/SDTM_MODEL_TI/V2#CL_IETESTCD
  :name: IETESTCD
  :classified_as: Topic
- :uri: http://www.cdisc.org/SDTM_MODEL_TI/V3#CL_IETESTCD
  :name: IETESTCD
  :classified_as: Topic
- :uri: http://www.cdisc.org/SDTM_MODEL_TI/V6#CL_DOMAIN
  :name: DOMAIN
  :classified_as: Identifier
- :uri: http://www.cdisc.org/SDTM_MODEL_TI/V6#CL_IECAT
  :name: IECAT
  :classified_as: Grouping
- :uri: http://www.cdisc.org/SDTM_MODEL_TI/V6#CL_IESCAT
  :name: IESCAT
  :classified_as: Grouping
- :uri: http://www.cdisc.org/SDTM_MODEL_TI/V6#CL_IETEST
  :name: IETEST
  :classified_as: None
- :uri: http://www.cdisc.org/SDTM_MODEL_TI/V6#CL_IETESTCD
  :name: IETESTCD
  :classified_as: Topic
- :uri: http://www.cdisc.org/SDTM_MODEL_TI/V6#CL_TIRL
  :name: TIRL
  :classified_as: Rule
- :uri: http://www.cdisc.org/SDTM_MODEL_TI/V6#CL_TIVERS
  :name: TIVERS
  :classified_as: Record
- :uri: http://www.cdisc.org/SDTM_MODEL_TI/V7#CL_IETEST
  :name: IETEST
  :classified_as: Synonym
- :uri: http://www.cdisc.org/SDTM_MODEL_TM/V6#CL_DOMAIN
  :name: DOMAIN
  :classified_as: Identifier
- :uri: http://www.cdisc.org/SDTM_MODEL_TM/V6#CL_MIDSTYPE
  :name: MIDSTYPE
  :classified_as: Topic
- :uri: http://www.cdisc.org/SDTM_MODEL_TM/V6#CL_STUDYID
  :name: STUDYID
  :classified_as: Identifier
- :uri: http://www.cdisc.org/SDTM_MODEL_TM/V6#CL_TMDEF
  :name: TMDEF
  :classified_as: Rule
- :uri: http://www.cdisc.org/SDTM_MODEL_TM/V6#CL_TMRPT
  :name: TMRPT
  :classified_as: Record
- :uri: http://www.cdisc.org/SDTM_MODEL_TP/V6#CL_DOMAIN
  :name: DOMAIN
  :classified_as: Identifier
- :uri: http://www.cdisc.org/SDTM_MODEL_TP/V6#CL_RPATH
  :name: RPATH
  :classified_as: None
- :uri: http://www.cdisc.org/SDTM_MODEL_TP/V6#CL_RPATHCD
  :name: RPATHCD
  :classified_as: Topic
- :uri: http://www.cdisc.org/SDTM_MODEL_TP/V6#CL_RPHASE
  :name: RPHASE
  :classified_as: Timing
- :uri: http://www.cdisc.org/SDTM_MODEL_TP/V6#CL_RPRFDY
  :name: RPRFDY
  :classified_as: Timing
- :uri: http://www.cdisc.org/SDTM_MODEL_TP/V6#CL_RSTAGE
  :name: RSTAGE
  :classified_as: None
- :uri: http://www.cdisc.org/SDTM_MODEL_TP/V6#CL_RSTGCD
  :name: RSTGCD
  :classified_as: Topic
- :uri: http://www.cdisc.org/SDTM_MODEL_TP/V6#CL_STUDYID
  :name: STUDYID
  :classified_as: Identifier
- :uri: http://www.cdisc.org/SDTM_MODEL_TP/V6#CL_TPBRANCH
  :name: TPBRANCH
  :classified_as: Rule
- :uri: http://www.cdisc.org/SDTM_MODEL_TP/V6#CL_TPSTGORD
  :name: TPSTGORD
  :classified_as: Timing
- :uri: http://www.cdisc.org/SDTM_MODEL_TP/V7#CL_RPATH
  :name: RPATH
  :classified_as: Synonym
- :uri: http://www.cdisc.org/SDTM_MODEL_TP/V7#CL_RSTAGE
  :name: RSTAGE
  :classified_as: Synonym
- :uri: http://www.cdisc.org/SDTM_MODEL_TS/V1#CL_DOMAIN
  :name: DOMAIN
  :classified_as: Identifier
- :uri: http://www.cdisc.org/SDTM_MODEL_TS/V1#CL_STUDYID
  :name: STUDYID
  :classified_as: Identifier
- :uri: http://www.cdisc.org/SDTM_MODEL_TS/V1#CL_TSGRPID
  :name: TSGRPID
  :classified_as: Identifier
- :uri: http://www.cdisc.org/SDTM_MODEL_TS/V1#CL_TSPARM
  :name: TSPARM
  :classified_as: Synonym
- :uri: http://www.cdisc.org/SDTM_MODEL_TS/V1#CL_TSPARMCD
  :name: TSPARMCD
  :classified_as: Topic
- :uri: http://www.cdisc.org/SDTM_MODEL_TS/V1#CL_TSSEQ
  :name: TSSEQ
  :classified_as: Identifier
- :uri: http://www.cdisc.org/SDTM_MODEL_TS/V1#CL_TSVAL
  :name: TSVAL
  :classified_as: Result
- :uri: http://www.cdisc.org/SDTM_MODEL_TS/V2#CL_TSPARM
  :name: TSPARM
  :classified_as: Synonym
- :uri: http://www.cdisc.org/SDTM_MODEL_TS/V2#CL_TSSEQ
  :name: TSSEQ
  :classified_as: Identifier
- :uri: http://www.cdisc.org/SDTM_MODEL_TS/V2#CL_TSVAL
  :name: TSVAL
  :classified_as: Result
- :uri: http://www.cdisc.org/SDTM_MODEL_TS/V2#CL_TSVALCD
  :name: TSVALCD
  :classified_as: Result
- :uri: http://www.cdisc.org/SDTM_MODEL_TS/V2#CL_TSVALNF
  :name: TSVALNF
  :classified_as: Result
- :uri: http://www.cdisc.org/SDTM_MODEL_TS/V2#CL_TSVCDREF
  :name: TSVCDREF
  :classified_as: Result
- :uri: http://www.cdisc.org/SDTM_MODEL_TS/V2#CL_TSVCDVER
  :name: TSVCDVER
  :classified_as: Result
- :uri: http://www.cdisc.org/SDTM_MODEL_TS/V3#CL_TSPARM
  :name: TSPARM
  :classified_as: Synonym
- :uri: http://www.cdisc.org/SDTM_MODEL_TS/V3#CL_TSSEQ
  :name: TSSEQ
  :classified_as: Identifier
- :uri: http://www.cdisc.org/SDTM_MODEL_TS/V4#CL_DOMAIN
  :name: DOMAIN
  :classified_as: Identifier
- :uri: http://www.cdisc.org/SDTM_MODEL_TS/V4#CL_STUDYID
  :name: STUDYID
  :classified_as: Identifier
- :uri: http://www.cdisc.org/SDTM_MODEL_TS/V4#CL_TSGRPID
  :name: TSGRPID
  :classified_as: Identifier
- :uri: http://www.cdisc.org/SDTM_MODEL_TS/V4#CL_TSPARM
  :name: TSPARM
  :classified_as: Synonym
- :uri: http://www.cdisc.org/SDTM_MODEL_TS/V4#CL_TSPARMCD
  :name: TSPARMCD
  :classified_as: Topic
- :uri: http://www.cdisc.org/SDTM_MODEL_TS/V4#CL_TSSEQ
  :name: TSSEQ
  :classified_as: Identifier
- :uri: http://www.cdisc.org/SDTM_MODEL_TS/V4#CL_TSVAL
  :name: TSVAL
  :classified_as: Result
- :uri: http://www.cdisc.org/SDTM_MODEL_TS/V4#CL_TSVALNF
  :name: TSVALNF
  :classified_as: Record
- :uri: http://www.cdisc.org/SDTM_MODEL_TS/V6#CL_DOMAIN
  :name: DOMAIN
  :classified_as: Identifier
- :uri: http://www.cdisc.org/SDTM_MODEL_TS/V6#CL_STUDYID
  :name: STUDYID
  :classified_as: Identifier
- :uri: http://www.cdisc.org/SDTM_MODEL_TS/V6#CL_TSGRPID
  :name: TSGRPID
  :classified_as: Identifier
- :uri: http://www.cdisc.org/SDTM_MODEL_TS/V6#CL_TSPARM
  :name: TSPARM
  :classified_as: None
- :uri: http://www.cdisc.org/SDTM_MODEL_TS/V6#CL_TSPARMCD
  :name: TSPARMCD
  :classified_as: Topic
- :uri: http://www.cdisc.org/SDTM_MODEL_TS/V6#CL_TSSEQ
  :name: TSSEQ
  :classified_as: Identifier
- :uri: http://www.cdisc.org/SDTM_MODEL_TS/V6#CL_TSVAL
  :name: TSVAL
  :classified_as: Result
- :uri: http://www.cdisc.org/SDTM_MODEL_TS/V6#CL_TSVALCD
  :name: TSVALCD
  :classified_as: Result
- :uri: http://www.cdisc.org/SDTM_MODEL_TS/V6#CL_TSVALNF
  :name: TSVALNF
  :classified_as: Result
- :uri: http://www.cdisc.org/SDTM_MODEL_TS/V6#CL_TSVCDREF
  :name: TSVCDREF
  :classified_as: Result
- :uri: http://www.cdisc.org/SDTM_MODEL_TS/V6#CL_TSVCDVER
  :name: TSVCDVER
  :classified_as: Result
- :uri: http://www.cdisc.org/SDTM_MODEL_TS/V7#CL_TSPARM
  :name: TSPARM
  :classified_as: Synonym
- :uri: http://www.cdisc.org/SDTM_MODEL_TS/V7#CL_TSPARMCD
  :name: TSPARMCD
  :classified_as: Topic
- :uri: http://www.cdisc.org/SDTM_MODEL_TT/V6#CL_DOMAIN
  :name: DOMAIN
  :classified_as: Identifier
- :uri: http://www.cdisc.org/SDTM_MODEL_TT/V6#CL_RSTAGE
  :name: RSTAGE
  :classified_as: None
- :uri: http://www.cdisc.org/SDTM_MODEL_TT/V6#CL_RSTGCD
  :name: RSTGCD
  :classified_as: Topic
- :uri: http://www.cdisc.org/SDTM_MODEL_TT/V6#CL_STUDYID
  :name: STUDYID
  :classified_as: Identifier
- :uri: http://www.cdisc.org/SDTM_MODEL_TT/V6#CL_TTDUR
  :name: TTDUR
  :classified_as: Timing
- :uri: http://www.cdisc.org/SDTM_MODEL_TT/V6#CL_TTENRL
  :name: TTENRL
  :classified_as: Rule
- :uri: http://www.cdisc.org/SDTM_MODEL_TT/V6#CL_TTSTRL
  :name: TTSTRL
  :classified_as: Rule
- :uri: http://www.cdisc.org/SDTM_MODEL_TT/V7#CL_RSTAGE
  :name: RSTAGE
  :classified_as: Synonym
- :uri: http://www.cdisc.org/SDTM_MODEL_TV/V1#CL_ARM
  :name: ARM
  :classified_as: Synonym
- :uri: http://www.cdisc.org/SDTM_MODEL_TV/V1#CL_ARMCD
  :name: ARMCD
  :classified_as: Record
- :uri: http://www.cdisc.org/SDTM_MODEL_TV/V1#CL_DOMAIN
  :name: DOMAIN
  :classified_as: Identifier
- :uri: http://www.cdisc.org/SDTM_MODEL_TV/V1#CL_STUDYID
  :name: STUDYID
  :classified_as: Identifier
- :uri: http://www.cdisc.org/SDTM_MODEL_TV/V1#CL_TVENRL
  :name: TVENRL
  :classified_as: Rule
- :uri: http://www.cdisc.org/SDTM_MODEL_TV/V1#CL_TVSTRL
  :name: TVSTRL
  :classified_as: Rule
- :uri: http://www.cdisc.org/SDTM_MODEL_TV/V1#CL_VISIT
  :name: VISIT
  :classified_as: Synonym
- :uri: http://www.cdisc.org/SDTM_MODEL_TV/V1#CL_VISITDY
  :name: VISITDY
  :classified_as: Timing
- :uri: http://www.cdisc.org/SDTM_MODEL_TV/V1#CL_VISITNUM
  :name: VISITNUM
  :classified_as: Topic
- :uri: http://www.cdisc.org/SDTM_MODEL_TV/V2#CL_ARM
  :name: ARM
  :classified_as: Synonym
- :uri: http://www.cdisc.org/SDTM_MODEL_TV/V2#CL_ARMCD
  :name: ARMCD
  :classified_as: Record
- :uri: http://www.cdisc.org/SDTM_MODEL_TV/V2#CL_DOMAIN
  :name: DOMAIN
  :classified_as: Identifier
- :uri: http://www.cdisc.org/SDTM_MODEL_TV/V2#CL_VISIT
  :name: VISIT
  :classified_as: Synonym
- :uri: http://www.cdisc.org/SDTM_MODEL_TV/V2#CL_VISITDY
  :name: VISITDY
  :classified_as: Timing
- :uri: http://www.cdisc.org/SDTM_MODEL_TV/V2#CL_VISITNUM
  :name: VISITNUM
  :classified_as: Topic
- :uri: http://www.cdisc.org/SDTM_MODEL_TV/V3#CL_ARM
  :name: ARM
  :classified_as: Synonym
- :uri: http://www.cdisc.org/SDTM_MODEL_TV/V3#CL_ARMCD
  :name: ARMCD
  :classified_as: Record
- :uri: http://www.cdisc.org/SDTM_MODEL_TV/V3#CL_VISIT
  :name: VISIT
  :classified_as: Synonym
- :uri: http://www.cdisc.org/SDTM_MODEL_TV/V3#CL_VISITDY
  :name: VISITDY
  :classified_as: Timing
- :uri: http://www.cdisc.org/SDTM_MODEL_TV/V3#CL_VISITNUM
  :name: VISITNUM
  :classified_as: Topic
- :uri: http://www.cdisc.org/SDTM_MODEL_TV/V6#CL_ARM
  :name: ARM
  :classified_as: None
- :uri: http://www.cdisc.org/SDTM_MODEL_TV/V6#CL_ARMCD
  :name: ARMCD
  :classified_as: Record
- :uri: http://www.cdisc.org/SDTM_MODEL_TV/V6#CL_DOMAIN
  :name: DOMAIN
  :classified_as: Identifier
- :uri: http://www.cdisc.org/SDTM_MODEL_TV/V6#CL_TVENRL
  :name: TVENRL
  :classified_as: Rule
- :uri: http://www.cdisc.org/SDTM_MODEL_TV/V6#CL_TVSTRL
  :name: TVSTRL
  :classified_as: Rule
- :uri: http://www.cdisc.org/SDTM_MODEL_TV/V6#CL_VISIT
  :name: VISIT
  :classified_as: None
- :uri: http://www.cdisc.org/SDTM_MODEL_TV/V6#CL_VISITDY
  :name: VISITDY
  :classified_as: Timing
- :uri: http://www.cdisc.org/SDTM_MODEL_TV/V6#CL_VISITNUM
  :name: VISITNUM
  :classified_as: Topic
- :uri: http://www.cdisc.org/SDTM_MODEL_TV/V7#CL_ARM
  :name: ARM
  :classified_as: Synonym
- :uri: http://www.cdisc.org/SDTM_MODEL_TV/V7#CL_VISIT
  :name: VISIT
  :classified_as: Synonym
- :uri: http://www.cdisc.org/SDTM_MODEL_TX/V3#CL_DOMAIN
  :name: DOMAIN
  :classified_as: None
- :uri: http://www.cdisc.org/SDTM_MODEL_TX/V3#CL_SET
  :name: SET
  :classified_as: None
- :uri: http://www.cdisc.org/SDTM_MODEL_TX/V3#CL_SETCD
  :name: SETCD
  :classified_as: None
- :uri: http://www.cdisc.org/SDTM_MODEL_TX/V3#CL_STUDYID
  :name: STUDYID
  :classified_as: None
- :uri: http://www.cdisc.org/SDTM_MODEL_TX/V3#CL_TXPARM
  :name: TXPARM
  :classified_as: None
- :uri: http://www.cdisc.org/SDTM_MODEL_TX/V3#CL_TXPARMCD
  :name: TXPARMCD
  :classified_as: None
- :uri: http://www.cdisc.org/SDTM_MODEL_TX/V3#CL_TXSEQ
  :name: TXSEQ
  :classified_as: None
- :uri: http://www.cdisc.org/SDTM_MODEL_TX/V3#CL_TXVAL
  :name: TXVAL
  :classified_as: None
- :uri: http://www.cdisc.org/SDTM_MODEL_TX/V4#CL_DOMAIN
  :name: DOMAIN
  :classified_as: Identifier
- :uri: http://www.cdisc.org/SDTM_MODEL_TX/V4#CL_SET
  :name: SET
  :classified_as: Synonym
- :uri: http://www.cdisc.org/SDTM_MODEL_TX/V4#CL_SETCD
  :name: SETCD
  :classified_as: Identifier
- :uri: http://www.cdisc.org/SDTM_MODEL_TX/V4#CL_STUDYID
  :name: STUDYID
  :classified_as: Identifier
- :uri: http://www.cdisc.org/SDTM_MODEL_TX/V4#CL_TXPARM
  :name: TXPARM
  :classified_as: Synonym
- :uri: http://www.cdisc.org/SDTM_MODEL_TX/V4#CL_TXPARMCD
  :name: TXPARMCD
  :classified_as: Topic
- :uri: http://www.cdisc.org/SDTM_MODEL_TX/V4#CL_TXSEQ
  :name: TXSEQ
  :classified_as: Identifier
- :uri: http://www.cdisc.org/SDTM_MODEL_TX/V4#CL_TXVAL
  :name: TXVAL
  :classified_as: Result
- :uri: http://www.cdisc.org/SDTM_MODEL_TX/V6#CL_DOMAIN
  :name: DOMAIN
  :classified_as: Identifier
- :uri: http://www.cdisc.org/SDTM_MODEL_TX/V6#CL_SET
  :name: SET
  :classified_as: None
- :uri: http://www.cdisc.org/SDTM_MODEL_TX/V6#CL_SETCD
  :name: SETCD
  :classified_as: Identifier
- :uri: http://www.cdisc.org/SDTM_MODEL_TX/V6#CL_TXPARM
  :name: TXPARM
  :classified_as: None
- :uri: http://www.cdisc.org/SDTM_MODEL_TX/V6#CL_TXSEQ
  :name: TXSEQ
  :classified_as: Identifier
- :uri: http://www.cdisc.org/SDTM_MODEL_TX/V6#CL_TXVAL
  :name: TXVAL
  :classified_as: Result
- :uri: http://www.cdisc.org/SDTM_MODEL_TX/V7#CL_SET
  :name: SET
  :classified_as: Synonym
- :uri: http://www.cdisc.org/SDTM_MODEL_TX/V7#CL_TXPARM
  :name: TXPARM
  :classified_as: Synonym
