@prefix : <http://www.cdisc.org/SDTM_MODEL/V5#> .
@prefix bd: <http://www.assero.co.uk/Tabulation#> .
@prefix isoC: <http://www.assero.co.uk/ISO11179Concepts#> .
@prefix isoT: <http://www.assero.co.uk/ISO11179Types#> .
@prefix isoR: <http://www.assero.co.uk/ISO11179Registration#> .
@prefix isoI: <http://www.assero.co.uk/ISO11179Identification#> .
@prefix bo: <http://www.assero.co.uk/BusinessOperational#> .
@prefix owl: <http://www.w3.org/2002/07/owl#> .
@prefix rdf: <http://www.w3.org/1999/02/22-rdf-syntax-ns#> .
@prefix rdfs: <http://www.w3.org/2000/01/rdf-schema#> .
@prefix xsd: <http://www.w3.org/2001/XMLSchema#> .
@prefix skos: <http://www.w3.org/2004/02/skos/core#> .

<http://www.cdisc.org/SDTM_MODEL/V5>
	rdf:type owl:Ontology ;
.
:M
	rdf:type bd:Model ;
	isoC:label "Controlled Terminology"^^xsd:string ;
	isoT:hasState :M_RS ;
	isoT:hasIdentifier :M_SI ;
	isoT:hasPreviousVersion <http://www.cdisc.org/SDTM_MODEL/V4#M> ;
	isoT:origin "Created from files: 'sdtm_1-6.xlsx'"^^xsd:string ;
	isoT:changeDescription ""^^xsd:string ;
	isoT:creationDate "2017-11-16T00:00:00+00:00"^^xsd:dateTime ;
	isoT:lastChangeDate "2017-11-16T00:00:00+00:00"^^xsd:dateTime ;
	isoT:explanatoryComment ""^^xsd:string ;
	bo:hasManaged :M_R1 ;
	bo:hasManaged :M_R2 ;
	bo:hasManaged :M_R3 ;
	bo:hasManaged :M_R4 ;
	bo:hasManaged :M_R5 ;
	bo:hasManaged :M_R6 ;
	bo:hasManaged :M_R7 ;
	bo:hasManaged :M_R8 ;
	bo:hasManaged :M_R9 ;
	bo:hasManaged :M_R10 ;
	bo:hasManaged :M_R11 ;
	bo:hasManaged :M_R12 ;
	bo:hasManaged :M_R13 ;
.
:M_RS
	rdf:type isoR:RegistrationState ;
	isoR:registrationStatus "Standard"^^xsd:string ;
	isoR:administrativeNote ""^^xsd:string ;
	isoR:effectiveDate "2016-01-01T00:00:00+00:00"^^xsd:dateTime ;
	isoR:untilDate "2016-01-01T00:00:00+00:00"^^xsd:dateTime ;
	isoR:unresolvedIssue ""^^xsd:string ;
	isoR:administrativeStatus ""^^xsd:string ;
	isoR:previousState "Standard"^^xsd:string ;
	isoR:multipleEdit "false"^^xsd:boolean ;
	isoR:byAuthority <http://www.assero.co.uk/RA#DUNS084433759> ;
.
:M_SI
	rdf:type isoI:ScopedIdentifier ;
	isoI:identifier "SDTM MODEL"^^xsd:string ;
	isoI:versionLabel "2017-11-16 Release"^^xsd:string ;
	isoI:version "5"^^xsd:positiveInteger ;
	isoI:semanticVersion "5.0.0"^^xsd:string ;
	isoI:hasScope <http://www.assero.co.uk/NS#CDISC> ;
.
:M_R1
	rdf:type bo:Reference ;
	isoC:label ""^^xsd:string ;
	bo:enabled "true"^^xsd:boolean ;
	bo:optional "false"^^xsd:boolean ;
	bo:ordinal "1"^^xsd:positiveInteger ;
	bo:reference <http://www.cdisc.org/SDTM_MODEL_EVENTS/V5#CL> ;
.
:M_R2
	rdf:type bo:Reference ;
	isoC:label ""^^xsd:string ;
	bo:enabled "true"^^xsd:boolean ;
	bo:optional "false"^^xsd:boolean ;
	bo:ordinal "2"^^xsd:positiveInteger ;
	bo:reference <http://www.cdisc.org/SDTM_MODEL_FINDINGS/V5#CL> ;
.
:M_R3
	rdf:type bo:Reference ;
	isoC:label ""^^xsd:string ;
	bo:enabled "true"^^xsd:boolean ;
	bo:optional "false"^^xsd:boolean ;
	bo:ordinal "3"^^xsd:positiveInteger ;
	bo:reference <http://www.cdisc.org/SDTM_MODEL_INTERVENTIONS/V5#CL> ;
.
:M_R4
	rdf:type bo:Reference ;
	isoC:label ""^^xsd:string ;
	bo:enabled "true"^^xsd:boolean ;
	bo:optional "false"^^xsd:boolean ;
	bo:ordinal "4"^^xsd:positiveInteger ;
	bo:reference <http://www.cdisc.org/SDTM_MODEL_POOLDEF/V5#CL> ;
.
:M_R5
	rdf:type bo:Reference ;
	isoC:label ""^^xsd:string ;
	bo:enabled "true"^^xsd:boolean ;
	bo:optional "false"^^xsd:boolean ;
	bo:ordinal "5"^^xsd:positiveInteger ;
	bo:reference <http://www.cdisc.org/SDTM_MODEL_RELREC/V5#CL> ;
.
:M_R6
	rdf:type bo:Reference ;
	isoC:label ""^^xsd:string ;
	bo:enabled "true"^^xsd:boolean ;
	bo:optional "false"^^xsd:boolean ;
	bo:ordinal "6"^^xsd:positiveInteger ;
	bo:reference <http://www.cdisc.org/SDTM_MODEL_SUPPQUAL/V5#CL> ;
.
:M_R7
	rdf:type bo:Reference ;
	isoC:label ""^^xsd:string ;
	bo:enabled "true"^^xsd:boolean ;
	bo:optional "false"^^xsd:boolean ;
	bo:ordinal "7"^^xsd:positiveInteger ;
	bo:reference <http://www.cdisc.org/SDTM_MODEL_CO/V5#CL> ;
.
:M_R8
	rdf:type bo:Reference ;
	isoC:label ""^^xsd:string ;
	bo:enabled "true"^^xsd:boolean ;
	bo:optional "false"^^xsd:boolean ;
	bo:ordinal "8"^^xsd:positiveInteger ;
	bo:reference <http://www.cdisc.org/SDTM_MODEL_DM/V5#CL> ;
.
:M_R9
	rdf:type bo:Reference ;
	isoC:label ""^^xsd:string ;
	bo:enabled "true"^^xsd:boolean ;
	bo:optional "false"^^xsd:boolean ;
	bo:ordinal "9"^^xsd:positiveInteger ;
	bo:reference <http://www.cdisc.org/SDTM_MODEL_SE/V5#CL> ;
.
:M_R10
	rdf:type bo:Reference ;
	isoC:label ""^^xsd:string ;
	bo:enabled "true"^^xsd:boolean ;
	bo:optional "false"^^xsd:boolean ;
	bo:ordinal "10"^^xsd:positiveInteger ;
	bo:reference <http://www.cdisc.org/SDTM_MODEL_TA/V5#CL> ;
.
:M_R11
	rdf:type bo:Reference ;
	isoC:label ""^^xsd:string ;
	bo:enabled "true"^^xsd:boolean ;
	bo:optional "false"^^xsd:boolean ;
	bo:ordinal "11"^^xsd:positiveInteger ;
	bo:reference <http://www.cdisc.org/SDTM_MODEL_TE/V5#CL> ;
.
:M_R12
	rdf:type bo:Reference ;
	isoC:label ""^^xsd:string ;
	bo:enabled "true"^^xsd:boolean ;
	bo:optional "false"^^xsd:boolean ;
	bo:ordinal "12"^^xsd:positiveInteger ;
	bo:reference <http://www.cdisc.org/SDTM_MODEL_TS/V5#CL> ;
.
:M_R13
	rdf:type bo:Reference ;
	isoC:label ""^^xsd:string ;
	bo:enabled "true"^^xsd:boolean ;
	bo:optional "false"^^xsd:boolean ;
	bo:ordinal "13"^^xsd:positiveInteger ;
	bo:reference <http://www.cdisc.org/SDTM_MODEL_TX/V5#CL> ;
.
<http://www.cdisc.org/SDTM_MODEL_EVENTS/V5#CL>
	rdf:type bd:SdtmClass ;
	isoC:label "SDTM MODEL EVENTS"^^xsd:string ;
	isoT:hasState <http://www.cdisc.org/SDTM_MODEL_EVENTS/V5#CL_RS> ;
	isoT:hasIdentifier <http://www.cdisc.org/SDTM_MODEL_EVENTS/V5#CL_SI> ;
	isoT:hasPreviousVersion <http://www.cdisc.org/SDTM_MODEL_EVENTS/V4#CL> ;
	isoT:origin ""^^xsd:string ;
	isoT:changeDescription ""^^xsd:string ;
	isoT:creationDate "2017-11-16T00:00:00+00:00"^^xsd:dateTime ;
	isoT:lastChangeDate "2017-11-16T00:00:00+00:00"^^xsd:dateTime ;
	isoT:explanatoryComment ""^^xsd:string ;
	bd:rule ""^^xsd:string ;
	bd:ordinal "1"^^xsd:positiveInteger ;
	bd:includesColumn <http://www.cdisc.org/SDTM_MODEL_ALL/V1#CL_STUDYID> ;
	bd:includesColumn <http://www.cdisc.org/SDTM_MODEL_ALL/V2#CL_DOMAIN> ;
	bd:includesColumn <http://www.cdisc.org/SDTM_MODEL_ALL/V1#CL_USUBJID> ;
	bd:includesColumn <http://www.cdisc.org/SDTM_MODEL_ALL/V5#CL_APID> ;
	bd:includesColumn <http://www.cdisc.org/SDTM_MODEL_ALL/V4#CL_POOLID> ;
	bd:includesColumn <http://www.cdisc.org/SDTM_MODEL_ALL/V4#CL_SPDEVID> ;
	bd:includesColumn <http://www.cdisc.org/SDTM_MODEL_ALL/V5#CL_NHOID> ;
	bd:includesColumn <http://www.cdisc.org/SDTM_MODEL_ALL/V5#CL_FETUSID> ;
	bd:includesColumn <http://www.cdisc.org/SDTM_MODEL_ALL/V5#CL_FOCID> ;
	bd:includesColumn <http://www.cdisc.org/SDTM_MODEL_ALL/V5#CL_--SEQ> ;
	bd:includesColumn <http://www.cdisc.org/SDTM_MODEL_ALL/V5#CL_--GRPID> ;
	bd:includesColumn <http://www.cdisc.org/SDTM_MODEL_ALL/V5#CL_--REFID> ;
	bd:includesColumn <http://www.cdisc.org/SDTM_MODEL_ALL/V5#CL_--RECID> ;
	bd:includesColumn <http://www.cdisc.org/SDTM_MODEL_ALL/V5#CL_--SPID> ;
	bd:includesColumn <http://www.cdisc.org/SDTM_MODEL_ALL/V5#CL_--LNKID> ;
	bd:includesColumn <http://www.cdisc.org/SDTM_MODEL_ALL/V5#CL_--LNKGRP> ;
	bd:includesColumn <http://www.cdisc.org/SDTM_MODEL_ALL/V5#CL_VISITNUM> ;
	bd:includesColumn <http://www.cdisc.org/SDTM_MODEL_ALL/V5#CL_VISIT> ;
	bd:includesColumn <http://www.cdisc.org/SDTM_MODEL_ALL/V5#CL_VISITDY> ;
	bd:includesColumn <http://www.cdisc.org/SDTM_MODEL_ALL/V5#CL_TAETORD> ;
	bd:includesColumn <http://www.cdisc.org/SDTM_MODEL_ALL/V5#CL_EPOCH> ;
	bd:includesColumn <http://www.cdisc.org/SDTM_MODEL_ALL/V5#CL_RPHASE> ;
	bd:includesColumn <http://www.cdisc.org/SDTM_MODEL_ALL/V5#CL_RPPLDY> ;
	bd:includesColumn <http://www.cdisc.org/SDTM_MODEL_ALL/V5#CL_RPPLSTDY> ;
	bd:includesColumn <http://www.cdisc.org/SDTM_MODEL_ALL/V5#CL_RPPLENDY> ;
	bd:includesColumn <http://www.cdisc.org/SDTM_MODEL_ALL/V5#CL_--DTC> ;
	bd:includesColumn <http://www.cdisc.org/SDTM_MODEL_ALL/V5#CL_--STDTC> ;
	bd:includesColumn <http://www.cdisc.org/SDTM_MODEL_ALL/V5#CL_--ENDTC> ;
	bd:includesColumn <http://www.cdisc.org/SDTM_MODEL_ALL/V5#CL_--DY> ;
	bd:includesColumn <http://www.cdisc.org/SDTM_MODEL_ALL/V5#CL_--STDY> ;
	bd:includesColumn <http://www.cdisc.org/SDTM_MODEL_ALL/V5#CL_--ENDY> ;
	bd:includesColumn <http://www.cdisc.org/SDTM_MODEL_ALL/V5#CL_--NOMDY> ;
	bd:includesColumn <http://www.cdisc.org/SDTM_MODEL_ALL/V5#CL_--NOMLBL> ;
	bd:includesColumn <http://www.cdisc.org/SDTM_MODEL_ALL/V5#CL_--RPDY> ;
	bd:includesColumn <http://www.cdisc.org/SDTM_MODEL_ALL/V5#CL_--RPSTDY> ;
	bd:includesColumn <http://www.cdisc.org/SDTM_MODEL_ALL/V5#CL_--RPENDY> ;
	bd:includesColumn <http://www.cdisc.org/SDTM_MODEL_ALL/V5#CL_--DUR> ;
	bd:includesColumn <http://www.cdisc.org/SDTM_MODEL_ALL/V5#CL_--TPT> ;
	bd:includesColumn <http://www.cdisc.org/SDTM_MODEL_ALL/V5#CL_--TPTNUM> ;
	bd:includesColumn <http://www.cdisc.org/SDTM_MODEL_ALL/V5#CL_--ELTM> ;
	bd:includesColumn <http://www.cdisc.org/SDTM_MODEL_ALL/V5#CL_--TPTREF> ;
	bd:includesColumn <http://www.cdisc.org/SDTM_MODEL_ALL/V5#CL_--RFTDTC> ;
	bd:includesColumn <http://www.cdisc.org/SDTM_MODEL_ALL/V5#CL_--STRF> ;
	bd:includesColumn <http://www.cdisc.org/SDTM_MODEL_ALL/V5#CL_--ENRF> ;
	bd:includesColumn <http://www.cdisc.org/SDTM_MODEL_ALL/V5#CL_--EVLINT> ;
	bd:includesColumn <http://www.cdisc.org/SDTM_MODEL_ALL/V5#CL_--EVINTX> ;
	bd:includesColumn <http://www.cdisc.org/SDTM_MODEL_ALL/V5#CL_--STRTPT> ;
	bd:includesColumn <http://www.cdisc.org/SDTM_MODEL_ALL/V5#CL_--STTPT> ;
	bd:includesColumn <http://www.cdisc.org/SDTM_MODEL_ALL/V5#CL_--ENRTPT> ;
	bd:includesColumn <http://www.cdisc.org/SDTM_MODEL_ALL/V5#CL_--ENTPT> ;
	bd:includesColumn <http://www.cdisc.org/SDTM_MODEL_ALL/V5#CL_MIDS> ;
	bd:includesColumn <http://www.cdisc.org/SDTM_MODEL_ALL/V5#CL_RELMIDS> ;
	bd:includesColumn <http://www.cdisc.org/SDTM_MODEL_ALL/V5#CL_MIDSDTC> ;
	bd:includesColumn <http://www.cdisc.org/SDTM_MODEL_ALL/V5#CL_--STINT> ;
	bd:includesColumn <http://www.cdisc.org/SDTM_MODEL_ALL/V5#CL_--ENINT> ;
	bd:includesColumn <http://www.cdisc.org/SDTM_MODEL_ALL/V5#CL_--DETECT> ;
	bd:includesColumn <http://www.cdisc.org/SDTM_MODEL_EVENTS/V5#CL_--TERM> ;
	bd:includesColumn <http://www.cdisc.org/SDTM_MODEL_EVENTS/V5#CL_--MODIFY> ;
	bd:includesColumn <http://www.cdisc.org/SDTM_MODEL_EVENTS/V5#CL_--LLT> ;
	bd:includesColumn <http://www.cdisc.org/SDTM_MODEL_EVENTS/V5#CL_--LLTCD> ;
	bd:includesColumn <http://www.cdisc.org/SDTM_MODEL_EVENTS/V5#CL_--DECOD> ;
	bd:includesColumn <http://www.cdisc.org/SDTM_MODEL_EVENTS/V5#CL_--PTCD> ;
	bd:includesColumn <http://www.cdisc.org/SDTM_MODEL_EVENTS/V5#CL_--HLT> ;
	bd:includesColumn <http://www.cdisc.org/SDTM_MODEL_EVENTS/V5#CL_--HLTCD> ;
	bd:includesColumn <http://www.cdisc.org/SDTM_MODEL_EVENTS/V5#CL_--HLGT> ;
	bd:includesColumn <http://www.cdisc.org/SDTM_MODEL_EVENTS/V5#CL_--HLGTCD> ;
	bd:includesColumn <http://www.cdisc.org/SDTM_MODEL_EVENTS/V5#CL_--CAT> ;
	bd:includesColumn <http://www.cdisc.org/SDTM_MODEL_EVENTS/V5#CL_--SCAT> ;
	bd:includesColumn <http://www.cdisc.org/SDTM_MODEL_EVENTS/V5#CL_--PRESP> ;
	bd:includesColumn <http://www.cdisc.org/SDTM_MODEL_EVENTS/V5#CL_--OCCUR> ;
	bd:includesColumn <http://www.cdisc.org/SDTM_MODEL_EVENTS/V5#CL_--STAT> ;
	bd:includesColumn <http://www.cdisc.org/SDTM_MODEL_EVENTS/V5#CL_--REASND> ;
	bd:includesColumn <http://www.cdisc.org/SDTM_MODEL_EVENTS/V5#CL_--BODSYS> ;
	bd:includesColumn <http://www.cdisc.org/SDTM_MODEL_EVENTS/V5#CL_--BDSYCD> ;
	bd:includesColumn <http://www.cdisc.org/SDTM_MODEL_EVENTS/V5#CL_--SOC> ;
	bd:includesColumn <http://www.cdisc.org/SDTM_MODEL_EVENTS/V5#CL_--SOCCD> ;
	bd:includesColumn <http://www.cdisc.org/SDTM_MODEL_EVENTS/V5#CL_--LOC> ;
	bd:includesColumn <http://www.cdisc.org/SDTM_MODEL_EVENTS/V5#CL_--LAT> ;
	bd:includesColumn <http://www.cdisc.org/SDTM_MODEL_EVENTS/V5#CL_--DIR> ;
	bd:includesColumn <http://www.cdisc.org/SDTM_MODEL_EVENTS/V5#CL_--PORTOT> ;
	bd:includesColumn <http://www.cdisc.org/SDTM_MODEL_EVENTS/V5#CL_--PARTY> ;
	bd:includesColumn <http://www.cdisc.org/SDTM_MODEL_EVENTS/V5#CL_--PRTYID> ;
	bd:includesColumn <http://www.cdisc.org/SDTM_MODEL_EVENTS/V5#CL_--SEV> ;
	bd:includesColumn <http://www.cdisc.org/SDTM_MODEL_EVENTS/V5#CL_--SER> ;
	bd:includesColumn <http://www.cdisc.org/SDTM_MODEL_EVENTS/V5#CL_--ACN> ;
	bd:includesColumn <http://www.cdisc.org/SDTM_MODEL_EVENTS/V5#CL_--ACNOTH> ;
	bd:includesColumn <http://www.cdisc.org/SDTM_MODEL_EVENTS/V5#CL_--ACNDEV> ;
	bd:includesColumn <http://www.cdisc.org/SDTM_MODEL_EVENTS/V5#CL_--REL> ;
	bd:includesColumn <http://www.cdisc.org/SDTM_MODEL_EVENTS/V5#CL_--RELNST> ;
	bd:includesColumn <http://www.cdisc.org/SDTM_MODEL_EVENTS/V5#CL_--PATT> ;
	bd:includesColumn <http://www.cdisc.org/SDTM_MODEL_EVENTS/V5#CL_--OUT> ;
	bd:includesColumn <http://www.cdisc.org/SDTM_MODEL_EVENTS/V5#CL_--SCAN> ;
	bd:includesColumn <http://www.cdisc.org/SDTM_MODEL_EVENTS/V5#CL_--SCONG> ;
	bd:includesColumn <http://www.cdisc.org/SDTM_MODEL_EVENTS/V5#CL_--SDISAB> ;
	bd:includesColumn <http://www.cdisc.org/SDTM_MODEL_EVENTS/V5#CL_--SDTH> ;
	bd:includesColumn <http://www.cdisc.org/SDTM_MODEL_EVENTS/V5#CL_--SHOSP> ;
	bd:includesColumn <http://www.cdisc.org/SDTM_MODEL_EVENTS/V5#CL_--SLIFE> ;
	bd:includesColumn <http://www.cdisc.org/SDTM_MODEL_EVENTS/V5#CL_--SOD> ;
	bd:includesColumn <http://www.cdisc.org/SDTM_MODEL_EVENTS/V5#CL_--SMIE> ;
	bd:includesColumn <http://www.cdisc.org/SDTM_MODEL_EVENTS/V5#CL_--CONTRT> ;
	bd:includesColumn <http://www.cdisc.org/SDTM_MODEL_EVENTS/V5#CL_--TOX> ;
	bd:includesColumn <http://www.cdisc.org/SDTM_MODEL_EVENTS/V5#CL_--TOXGR> ;
	bd:includesColumn <http://www.cdisc.org/SDTM_MODEL_EVENTS/V5#CL_--USCHFL> ;
.
<http://www.cdisc.org/SDTM_MODEL_EVENTS/V5#CL_RS>
	rdf:type isoR:RegistrationState ;
	isoR:registrationStatus "Standard"^^xsd:string ;
	isoR:administrativeNote ""^^xsd:string ;
	isoR:effectiveDate "2016-01-01T00:00:00+00:00"^^xsd:dateTime ;
	isoR:untilDate "2016-01-01T00:00:00+00:00"^^xsd:dateTime ;
	isoR:unresolvedIssue ""^^xsd:string ;
	isoR:administrativeStatus ""^^xsd:string ;
	isoR:previousState "Standard"^^xsd:string ;
	isoR:multipleEdit "false"^^xsd:boolean ;
	isoR:byAuthority <http://www.assero.co.uk/RA#DUNS084433759> ;
.
<http://www.cdisc.org/SDTM_MODEL_EVENTS/V5#CL_SI>
	rdf:type isoI:ScopedIdentifier ;
	isoI:identifier "SDTM MODEL EVENTS"^^xsd:string ;
	isoI:versionLabel "2017-11-16 Release"^^xsd:string ;
	isoI:version "5"^^xsd:positiveInteger ;
	isoI:semanticVersion "5.0.0"^^xsd:string ;
	isoI:hasScope <http://www.assero.co.uk/NS#CDISC> ;
.
<http://www.cdisc.org/SDTM_MODEL_ALL/V5#CL_APID>
	rdf:type bd:SdtmClassVariable ;
	isoC:label "Associated Persons Identifier"^^xsd:string ;
	bd:rule ""^^xsd:string ;
	bd:ordinal "4"^^xsd:positiveInteger ;
	bd:name "APID"^^xsd:string ;
	bd:prefixed "false"^^xsd:boolean ;
	bd:description "Identifier for a single associated person, a group of associated persons, or a pool of associated persons. If APID identifies a pool, POOLDEF records must exist for each associated person. (See Section 4.1.3, Pool Definition Dataset and Section 5, Applying Model Fundamentals to Associated Persons)."^^xsd:string ;
	bd:typedAs <http://www.assero.co.uk/CSN#d2f2bbeb-8f79-4fb1-b190-dd864d29f080> ;
	bd:classifiedAs <http://www.assero.co.uk/CSN#d46bb337-92cd-4250-b50c-9be5079d6ab3> ;
.
<http://www.cdisc.org/SDTM_MODEL_ALL/V5#CL_NHOID>
	rdf:type bd:SdtmClassVariable ;
	isoC:label "Non-Host Organism Identifier"^^xsd:string ;
	bd:rule ""^^xsd:string ;
	bd:ordinal "7"^^xsd:positiveInteger ;
	bd:name "NHOID"^^xsd:string ;
	bd:prefixed "false"^^xsd:boolean ;
	bd:description "Sponsor-defined identifier for a non-host organism. This variable should be populated with an intuitive name based on the identity of the non-host organism as reported by the lab. Example: \"A/California/7/2009 (H1N1)\"."^^xsd:string ;
	bd:typedAs <http://www.assero.co.uk/CSN#d2f2bbeb-8f79-4fb1-b190-dd864d29f080> ;
	bd:classifiedAs <http://www.assero.co.uk/CSN#d46bb337-92cd-4250-b50c-9be5079d6ab3> ;
.
<http://www.cdisc.org/SDTM_MODEL_ALL/V5#CL_FETUSID>
	rdf:type bd:SdtmClassVariable ;
	isoC:label "Fetus Identifier"^^xsd:string ;
	bd:rule ""^^xsd:string ;
	bd:ordinal "8"^^xsd:positiveInteger ;
	bd:name "FETUSID"^^xsd:string ;
	bd:prefixed "false"^^xsd:boolean ;
	bd:description "Identifier used to identify a fetus from a maternal subject for prenatal evaluations. FETUSID uniquely identifies a fetus within a subject. Not to be used with human clinical trials."^^xsd:string ;
	bd:typedAs <http://www.assero.co.uk/CSN#d2f2bbeb-8f79-4fb1-b190-dd864d29f080> ;
	bd:classifiedAs <http://www.assero.co.uk/CSN#d46bb337-92cd-4250-b50c-9be5079d6ab3> ;
.
<http://www.cdisc.org/SDTM_MODEL_ALL/V5#CL_FOCID>
	rdf:type bd:SdtmClassVariable ;
	isoC:label "Focus of Study-Specific Interest"^^xsd:string ;
	bd:rule ""^^xsd:string ;
	bd:ordinal "9"^^xsd:positiveInteger ;
	bd:name "FOCID"^^xsd:string ;
	bd:prefixed "false"^^xsd:boolean ;
	bd:description "Identification of a focus of study-specific interest on or within a subject or specimen as called out in the protocol for which a measurement, test, or examination was performed, such as a drug application site, e.g., \"Injection site 1\", \"Biopsy site 1\", \"Treated site 1\", or a more specific focus, e.g., \"OD\" (right eye) or \"Upper left quadrant of the back\". The value in this variable should have inherent semantic meaning."^^xsd:string ;
	bd:typedAs <http://www.assero.co.uk/CSN#d2f2bbeb-8f79-4fb1-b190-dd864d29f080> ;
	bd:classifiedAs <http://www.assero.co.uk/CSN#d46bb337-92cd-4250-b50c-9be5079d6ab3> ;
.
<http://www.cdisc.org/SDTM_MODEL_ALL/V5#CL_--SEQ>
	rdf:type bd:SdtmClassVariable ;
	isoC:label "Sequence Number"^^xsd:string ;
	bd:rule ""^^xsd:string ;
	bd:ordinal "10"^^xsd:positiveInteger ;
	bd:name "--SEQ"^^xsd:string ;
	bd:prefixed "true"^^xsd:boolean ;
	bd:description "Sequence number to ensure uniqueness of records within a dataset for a subject (or within a parameter, in the case of the Trial Summary domain). May be any valid number (including decimals) and does not have to start at 1."^^xsd:string ;
	bd:typedAs <http://www.assero.co.uk/CSN#178f8dbe-c3ba-4dc0-8a2a-18081644b4c6> ;
	bd:classifiedAs <http://www.assero.co.uk/CSN#d46bb337-92cd-4250-b50c-9be5079d6ab3> ;
.
<http://www.cdisc.org/SDTM_MODEL_ALL/V5#CL_--GRPID>
	rdf:type bd:SdtmClassVariable ;
	isoC:label "Group ID"^^xsd:string ;
	bd:rule ""^^xsd:string ;
	bd:ordinal "11"^^xsd:positiveInteger ;
	bd:name "--GRPID"^^xsd:string ;
	bd:prefixed "true"^^xsd:boolean ;
	bd:description "Optional group identifier, used to link together a block of related records within a subject in a domain. Also used to link together a block of related records in the Trial Summary dataset (see Section 3.3, Trial Summary Information)."^^xsd:string ;
	bd:typedAs <http://www.assero.co.uk/CSN#d2f2bbeb-8f79-4fb1-b190-dd864d29f080> ;
	bd:classifiedAs <http://www.assero.co.uk/CSN#d46bb337-92cd-4250-b50c-9be5079d6ab3> ;
.
<http://www.cdisc.org/SDTM_MODEL_ALL/V5#CL_--REFID>
	rdf:type bd:SdtmClassVariable ;
	isoC:label "Reference ID"^^xsd:string ;
	bd:rule ""^^xsd:string ;
	bd:ordinal "12"^^xsd:positiveInteger ;
	bd:name "--REFID"^^xsd:string ;
	bd:prefixed "true"^^xsd:boolean ;
	bd:description "Optional internal or external identifier such as lab specimen ID, or UUID for an ECG waveform or a medical image."^^xsd:string ;
	bd:typedAs <http://www.assero.co.uk/CSN#d2f2bbeb-8f79-4fb1-b190-dd864d29f080> ;
	bd:classifiedAs <http://www.assero.co.uk/CSN#d46bb337-92cd-4250-b50c-9be5079d6ab3> ;
.
<http://www.cdisc.org/SDTM_MODEL_ALL/V5#CL_--RECID>
	rdf:type bd:SdtmClassVariable ;
	isoC:label "Invariant Record Identifier"^^xsd:string ;
	bd:rule ""^^xsd:string ;
	bd:ordinal "13"^^xsd:positiveInteger ;
	bd:name "--RECID"^^xsd:string ;
	bd:prefixed "true"^^xsd:boolean ;
	bd:description "Identifier for a record that is unique within a domain for a study and that remains invariant through subsequent versions of the dataset, even if the content of the record is modified. When a record is deleted, this value must not be reused to identify another record in either the current or future versions of the domain."^^xsd:string ;
	bd:typedAs <http://www.assero.co.uk/CSN#d2f2bbeb-8f79-4fb1-b190-dd864d29f080> ;
	bd:classifiedAs <http://www.assero.co.uk/CSN#d46bb337-92cd-4250-b50c-9be5079d6ab3> ;
.
<http://www.cdisc.org/SDTM_MODEL_ALL/V5#CL_--SPID>
	rdf:type bd:SdtmClassVariable ;
	isoC:label "Sponsor-Defined Identifier"^^xsd:string ;
	bd:rule ""^^xsd:string ;
	bd:ordinal "14"^^xsd:positiveInteger ;
	bd:name "--SPID"^^xsd:string ;
	bd:prefixed "true"^^xsd:boolean ;
	bd:description "Sponsor-defined identifier. Example: pre-printed line identifier on a Concomitant Medications page."^^xsd:string ;
	bd:typedAs <http://www.assero.co.uk/CSN#d2f2bbeb-8f79-4fb1-b190-dd864d29f080> ;
	bd:classifiedAs <http://www.assero.co.uk/CSN#d46bb337-92cd-4250-b50c-9be5079d6ab3> ;
.
<http://www.cdisc.org/SDTM_MODEL_ALL/V5#CL_--LNKID>
	rdf:type bd:SdtmClassVariable ;
	isoC:label "Link ID"^^xsd:string ;
	bd:rule ""^^xsd:string ;
	bd:ordinal "15"^^xsd:positiveInteger ;
	bd:name "--LNKID"^^xsd:string ;
	bd:prefixed "true"^^xsd:boolean ;
	bd:description "Identifier used to link related records across domains. This may be a one-to-one or a one-to-many relationship. For Example: A single tumor may have multiple measurements/assessments performed at each study visit."^^xsd:string ;
	bd:typedAs <http://www.assero.co.uk/CSN#d2f2bbeb-8f79-4fb1-b190-dd864d29f080> ;
	bd:classifiedAs <http://www.assero.co.uk/CSN#d46bb337-92cd-4250-b50c-9be5079d6ab3> ;
.
<http://www.cdisc.org/SDTM_MODEL_ALL/V5#CL_--LNKGRP>
	rdf:type bd:SdtmClassVariable ;
	isoC:label "Link Group ID"^^xsd:string ;
	bd:rule ""^^xsd:string ;
	bd:ordinal "16"^^xsd:positiveInteger ;
	bd:name "--LNKGRP"^^xsd:string ;
	bd:prefixed "true"^^xsd:boolean ;
	bd:description "Identifier used to link related records across domains. This will usually be a many-to-one relationship. For example: Multiple tumor measurements/assessments will contribute to a single response to therapy determination record."^^xsd:string ;
	bd:typedAs <http://www.assero.co.uk/CSN#d2f2bbeb-8f79-4fb1-b190-dd864d29f080> ;
	bd:classifiedAs <http://www.assero.co.uk/CSN#86cd61e6-d48c-4e42-b994-bee35e2351fe> ;
.
<http://www.cdisc.org/SDTM_MODEL_ALL/V5#CL_VISITNUM>
	rdf:type bd:SdtmClassVariable ;
	isoC:label "Visit Number"^^xsd:string ;
	bd:rule ""^^xsd:string ;
	bd:ordinal "17"^^xsd:positiveInteger ;
	bd:name "VISITNUM"^^xsd:string ;
	bd:prefixed "false"^^xsd:boolean ;
	bd:description "Clinical encounter number. Numeric version of VISIT, used for sorting."^^xsd:string ;
	bd:typedAs <http://www.assero.co.uk/CSN#178f8dbe-c3ba-4dc0-8a2a-18081644b4c6> ;
	bd:classifiedAs <http://www.assero.co.uk/CSN#2c3ff386-a062-47f5-b594-eef7ead02243> ;
.
<http://www.cdisc.org/SDTM_MODEL_ALL/V5#CL_VISIT>
	rdf:type bd:SdtmClassVariable ;
	isoC:label "Visit Name"^^xsd:string ;
	bd:rule ""^^xsd:string ;
	bd:ordinal "18"^^xsd:positiveInteger ;
	bd:name "VISIT"^^xsd:string ;
	bd:prefixed "false"^^xsd:boolean ;
	bd:description "Protocol-defined description of a clinical encounter."^^xsd:string ;
	bd:typedAs <http://www.assero.co.uk/CSN#d2f2bbeb-8f79-4fb1-b190-dd864d29f080> ;
	bd:classifiedAs <http://www.assero.co.uk/CSN#2c3ff386-a062-47f5-b594-eef7ead02243> ;
.
<http://www.cdisc.org/SDTM_MODEL_ALL/V5#CL_VISITDY>
	rdf:type bd:SdtmClassVariable ;
	isoC:label "Planned Study Day of Visit"^^xsd:string ;
	bd:rule ""^^xsd:string ;
	bd:ordinal "19"^^xsd:positiveInteger ;
	bd:name "VISITDY"^^xsd:string ;
	bd:prefixed "false"^^xsd:boolean ;
	bd:description "Planned study day of VISIT. Should be an integer."^^xsd:string ;
	bd:typedAs <http://www.assero.co.uk/CSN#178f8dbe-c3ba-4dc0-8a2a-18081644b4c6> ;
	bd:classifiedAs <http://www.assero.co.uk/CSN#2c3ff386-a062-47f5-b594-eef7ead02243> ;
.
<http://www.cdisc.org/SDTM_MODEL_ALL/V5#CL_TAETORD>
	rdf:type bd:SdtmClassVariable ;
	isoC:label "Planned Order of Element within Arm"^^xsd:string ;
	bd:rule ""^^xsd:string ;
	bd:ordinal "20"^^xsd:positiveInteger ;
	bd:name "TAETORD"^^xsd:string ;
	bd:prefixed "false"^^xsd:boolean ;
	bd:description "Number that gives the planned order of the Element within the Arm (see Section 3.1.2, Trial Arms)."^^xsd:string ;
	bd:typedAs <http://www.assero.co.uk/CSN#178f8dbe-c3ba-4dc0-8a2a-18081644b4c6> ;
	bd:classifiedAs <http://www.assero.co.uk/CSN#2c3ff386-a062-47f5-b594-eef7ead02243> ;
.
<http://www.cdisc.org/SDTM_MODEL_ALL/V5#CL_EPOCH>
	rdf:type bd:SdtmClassVariable ;
	isoC:label "Epoch"^^xsd:string ;
	bd:rule ""^^xsd:string ;
	bd:ordinal "21"^^xsd:positiveInteger ;
	bd:name "EPOCH"^^xsd:string ;
	bd:prefixed "false"^^xsd:boolean ;
	bd:description "Epoch associated with the start date/time of the observation, or the date/time of collection if start date/time is not collected (see Section 3.1.2, Trial Arms)."^^xsd:string ;
	bd:typedAs <http://www.assero.co.uk/CSN#d2f2bbeb-8f79-4fb1-b190-dd864d29f080> ;
	bd:classifiedAs <http://www.assero.co.uk/CSN#2c3ff386-a062-47f5-b594-eef7ead02243> ;
.
<http://www.cdisc.org/SDTM_MODEL_ALL/V5#CL_RPHASE>
	rdf:type bd:SdtmClassVariable ;
	isoC:label "Repro Phase"^^xsd:string ;
	bd:rule ""^^xsd:string ;
	bd:ordinal "22"^^xsd:positiveInteger ;
	bd:name "RPHASE"^^xsd:string ;
	bd:prefixed "false"^^xsd:boolean ;
	bd:description "Reproductive Phase with which the Reproductive Stage of the Reproductive Path is associated. Defined in Trial Paths domain. The RPHASE variable is Required when any Reproductive Phase Day variable is used. Not to be used with human clinical trials."^^xsd:string ;
	bd:typedAs <http://www.assero.co.uk/CSN#d2f2bbeb-8f79-4fb1-b190-dd864d29f080> ;
	bd:classifiedAs <http://www.assero.co.uk/CSN#2c3ff386-a062-47f5-b594-eef7ead02243> ;
.
<http://www.cdisc.org/SDTM_MODEL_ALL/V5#CL_RPPLDY>
	rdf:type bd:SdtmClassVariable ;
	isoC:label "Planned Repro Phase Day of Observation"^^xsd:string ;
	bd:rule ""^^xsd:string ;
	bd:ordinal "23"^^xsd:positiveInteger ;
	bd:name "RPPLDY"^^xsd:string ;
	bd:prefixed "false"^^xsd:boolean ;
	bd:description "The planned day within the Reproductive Phase on which the observation was scheduled to occur. Expressed as an integer. Not to be used with human clinical trials."^^xsd:string ;
	bd:typedAs <http://www.assero.co.uk/CSN#178f8dbe-c3ba-4dc0-8a2a-18081644b4c6> ;
	bd:classifiedAs <http://www.assero.co.uk/CSN#2c3ff386-a062-47f5-b594-eef7ead02243> ;
.
<http://www.cdisc.org/SDTM_MODEL_ALL/V5#CL_RPPLSTDY>
	rdf:type bd:SdtmClassVariable ;
	isoC:label "Planned Repro Phase Day of Obs Start"^^xsd:string ;
	bd:rule ""^^xsd:string ;
	bd:ordinal "24"^^xsd:positiveInteger ;
	bd:name "RPPLSTDY"^^xsd:string ;
	bd:prefixed "false"^^xsd:boolean ;
	bd:description "The planned day within the Reproductive Phase of the start of the observation. Expressed as an integer. Not to be used with human clinical trials."^^xsd:string ;
	bd:typedAs <http://www.assero.co.uk/CSN#178f8dbe-c3ba-4dc0-8a2a-18081644b4c6> ;
	bd:classifiedAs <http://www.assero.co.uk/CSN#2c3ff386-a062-47f5-b594-eef7ead02243> ;
.
<http://www.cdisc.org/SDTM_MODEL_ALL/V5#CL_RPPLENDY>
	rdf:type bd:SdtmClassVariable ;
	isoC:label "Planned Repro Phase Day of Obs End"^^xsd:string ;
	bd:rule ""^^xsd:string ;
	bd:ordinal "25"^^xsd:positiveInteger ;
	bd:name "RPPLENDY"^^xsd:string ;
	bd:prefixed "false"^^xsd:boolean ;
	bd:description "The planned day within the Reproductive Phase of the end of the observation. Expressed as an integer. Not to be used with human clinical trials."^^xsd:string ;
	bd:typedAs <http://www.assero.co.uk/CSN#178f8dbe-c3ba-4dc0-8a2a-18081644b4c6> ;
	bd:classifiedAs <http://www.assero.co.uk/CSN#2c3ff386-a062-47f5-b594-eef7ead02243> ;
.
<http://www.cdisc.org/SDTM_MODEL_ALL/V5#CL_--DTC>
	rdf:type bd:SdtmClassVariable ;
	isoC:label "Date/Time of Collection"^^xsd:string ;
	bd:rule ""^^xsd:string ;
	bd:ordinal "26"^^xsd:positiveInteger ;
	bd:name "--DTC"^^xsd:string ;
	bd:prefixed "true"^^xsd:boolean ;
	bd:description "Collection date and time of an observation."^^xsd:string ;
	bd:typedAs <http://www.assero.co.uk/CSN#d2f2bbeb-8f79-4fb1-b190-dd864d29f080> ;
	bd:classifiedAs <http://www.assero.co.uk/CSN#2c3ff386-a062-47f5-b594-eef7ead02243> ;
	bd:isA <http://www.s-cubed.dk/CAR#232daabe4ca2dfdb32645c572b1d34ddb4fe9995> ;
.
<http://www.cdisc.org/SDTM_MODEL_ALL/V5#CL_--STDTC>
	rdf:type bd:SdtmClassVariable ;
	isoC:label "Start Date/Time of Observation"^^xsd:string ;
	bd:rule ""^^xsd:string ;
	bd:ordinal "27"^^xsd:positiveInteger ;
	bd:name "--STDTC"^^xsd:string ;
	bd:prefixed "true"^^xsd:boolean ;
	bd:description "Start date/time of an observation."^^xsd:string ;
	bd:typedAs <http://www.assero.co.uk/CSN#d2f2bbeb-8f79-4fb1-b190-dd864d29f080> ;
	bd:classifiedAs <http://www.assero.co.uk/CSN#2c3ff386-a062-47f5-b594-eef7ead02243> ;
	bd:isA <http://www.s-cubed.dk/CAR#83c87956785cde43c109e30fcbd95cca63a18d38> ;
.
<http://www.cdisc.org/SDTM_MODEL_ALL/V5#CL_--ENDTC>
	rdf:type bd:SdtmClassVariable ;
	isoC:label "End Date/Time of Observation"^^xsd:string ;
	bd:rule ""^^xsd:string ;
	bd:ordinal "28"^^xsd:positiveInteger ;
	bd:name "--ENDTC"^^xsd:string ;
	bd:prefixed "true"^^xsd:boolean ;
	bd:description "End date/time of the observation."^^xsd:string ;
	bd:typedAs <http://www.assero.co.uk/CSN#d2f2bbeb-8f79-4fb1-b190-dd864d29f080> ;
	bd:classifiedAs <http://www.assero.co.uk/CSN#2c3ff386-a062-47f5-b594-eef7ead02243> ;
	bd:isA <http://www.s-cubed.dk/CAR#71c54c70967ea84127e4bd588bd627ec0e581dfb> ;
.
<http://www.cdisc.org/SDTM_MODEL_ALL/V5#CL_--DY>
	rdf:type bd:SdtmClassVariable ;
	isoC:label "Study Day of Visit/Collection/Exam"^^xsd:string ;
	bd:rule ""^^xsd:string ;
	bd:ordinal "29"^^xsd:positiveInteger ;
	bd:name "--DY"^^xsd:string ;
	bd:prefixed "true"^^xsd:boolean ;
	bd:description "Actual study day of visit/collection/exam expressed in integer days relative to the sponsor-defined RFSTDTC in Demographics."^^xsd:string ;
	bd:typedAs <http://www.assero.co.uk/CSN#178f8dbe-c3ba-4dc0-8a2a-18081644b4c6> ;
	bd:classifiedAs <http://www.assero.co.uk/CSN#2c3ff386-a062-47f5-b594-eef7ead02243> ;
.
<http://www.cdisc.org/SDTM_MODEL_ALL/V5#CL_--STDY>
	rdf:type bd:SdtmClassVariable ;
	isoC:label "Study Day of Start of Observation"^^xsd:string ;
	bd:rule ""^^xsd:string ;
	bd:ordinal "30"^^xsd:positiveInteger ;
	bd:name "--STDY"^^xsd:string ;
	bd:prefixed "true"^^xsd:boolean ;
	bd:description "Actual study day of start of observation expressed in integer days relative to the sponsor-defined RFSTDTC in Demographics."^^xsd:string ;
	bd:typedAs <http://www.assero.co.uk/CSN#178f8dbe-c3ba-4dc0-8a2a-18081644b4c6> ;
	bd:classifiedAs <http://www.assero.co.uk/CSN#2c3ff386-a062-47f5-b594-eef7ead02243> ;
.
<http://www.cdisc.org/SDTM_MODEL_ALL/V5#CL_--ENDY>
	rdf:type bd:SdtmClassVariable ;
	isoC:label "Study Day of End of Observation"^^xsd:string ;
	bd:rule ""^^xsd:string ;
	bd:ordinal "31"^^xsd:positiveInteger ;
	bd:name "--ENDY"^^xsd:string ;
	bd:prefixed "true"^^xsd:boolean ;
	bd:description "Actual study day of end of observation expressed in integer days relative to the sponsor-defined RFSTDTC in Demographics."^^xsd:string ;
	bd:typedAs <http://www.assero.co.uk/CSN#178f8dbe-c3ba-4dc0-8a2a-18081644b4c6> ;
	bd:classifiedAs <http://www.assero.co.uk/CSN#2c3ff386-a062-47f5-b594-eef7ead02243> ;
.
<http://www.cdisc.org/SDTM_MODEL_ALL/V5#CL_--NOMDY>
	rdf:type bd:SdtmClassVariable ;
	isoC:label "Nominal Study Day for Tabulations"^^xsd:string ;
	bd:rule ""^^xsd:string ;
	bd:ordinal "32"^^xsd:positiveInteger ;
	bd:name "--NOMDY"^^xsd:string ;
	bd:prefixed "true"^^xsd:boolean ;
	bd:description "The nominal study day used by data-collection and reporting systems for grouping records for observations that may be scheduled to occur on different days into a single study day (such as for output on a tabulation report). Not to be used with human clinical trials."^^xsd:string ;
	bd:typedAs <http://www.assero.co.uk/CSN#178f8dbe-c3ba-4dc0-8a2a-18081644b4c6> ;
	bd:classifiedAs <http://www.assero.co.uk/CSN#2c3ff386-a062-47f5-b594-eef7ead02243> ;
.
<http://www.cdisc.org/SDTM_MODEL_ALL/V5#CL_--NOMLBL>
	rdf:type bd:SdtmClassVariable ;
	isoC:label "Label for Nominal Study Day"^^xsd:string ;
	bd:rule ""^^xsd:string ;
	bd:ordinal "33"^^xsd:positiveInteger ;
	bd:name "--NOMLBL"^^xsd:string ;
	bd:prefixed "true"^^xsd:boolean ;
	bd:description "A label for a given value of --NOMDY, within a domain, as presented in the study report. Not to be used with human clinical trials."^^xsd:string ;
	bd:typedAs <http://www.assero.co.uk/CSN#d2f2bbeb-8f79-4fb1-b190-dd864d29f080> ;
	bd:classifiedAs <http://www.assero.co.uk/CSN#2c3ff386-a062-47f5-b594-eef7ead02243> ;
.
<http://www.cdisc.org/SDTM_MODEL_ALL/V5#CL_--RPDY>
	rdf:type bd:SdtmClassVariable ;
	isoC:label "Actual Repro Phase Day of Observation"^^xsd:string ;
	bd:rule ""^^xsd:string ;
	bd:ordinal "34"^^xsd:positiveInteger ;
	bd:name "--RPDY"^^xsd:string ;
	bd:prefixed "true"^^xsd:boolean ;
	bd:description "The actual day within the Reproductive Phase on which the observation occurred. Expressed as an integer. Not to be used with human clinical trials."^^xsd:string ;
	bd:typedAs <http://www.assero.co.uk/CSN#178f8dbe-c3ba-4dc0-8a2a-18081644b4c6> ;
	bd:classifiedAs <http://www.assero.co.uk/CSN#2c3ff386-a062-47f5-b594-eef7ead02243> ;
.
<http://www.cdisc.org/SDTM_MODEL_ALL/V5#CL_--RPSTDY>
	rdf:type bd:SdtmClassVariable ;
	isoC:label "Actual Repro Phase Day of Obs Start"^^xsd:string ;
	bd:rule ""^^xsd:string ;
	bd:ordinal "35"^^xsd:positiveInteger ;
	bd:name "--RPSTDY"^^xsd:string ;
	bd:prefixed "true"^^xsd:boolean ;
	bd:description "The actual day within the Reproductive Phase of the start of the observation. Expressed as an integer. Not to be used with human clinical trials."^^xsd:string ;
	bd:typedAs <http://www.assero.co.uk/CSN#178f8dbe-c3ba-4dc0-8a2a-18081644b4c6> ;
	bd:classifiedAs <http://www.assero.co.uk/CSN#2c3ff386-a062-47f5-b594-eef7ead02243> ;
.
<http://www.cdisc.org/SDTM_MODEL_ALL/V5#CL_--RPENDY>
	rdf:type bd:SdtmClassVariable ;
	isoC:label "Actual Repro Phase Day of Obs End"^^xsd:string ;
	bd:rule ""^^xsd:string ;
	bd:ordinal "36"^^xsd:positiveInteger ;
	bd:name "--RPENDY"^^xsd:string ;
	bd:prefixed "true"^^xsd:boolean ;
	bd:description "The actual day within the Reproductive Phase of the end of the observation. Expressed as an integer. Not to be used with human clinical trials."^^xsd:string ;
	bd:typedAs <http://www.assero.co.uk/CSN#178f8dbe-c3ba-4dc0-8a2a-18081644b4c6> ;
	bd:classifiedAs <http://www.assero.co.uk/CSN#2c3ff386-a062-47f5-b594-eef7ead02243> ;
.
<http://www.cdisc.org/SDTM_MODEL_ALL/V5#CL_--DUR>
	rdf:type bd:SdtmClassVariable ;
	isoC:label "Duration"^^xsd:string ;
	bd:rule ""^^xsd:string ;
	bd:ordinal "37"^^xsd:positiveInteger ;
	bd:name "--DUR"^^xsd:string ;
	bd:prefixed "true"^^xsd:boolean ;
	bd:description "Collected duration of an event, intervention, or finding. Used only if collected on the CRF and not derived."^^xsd:string ;
	bd:typedAs <http://www.assero.co.uk/CSN#d2f2bbeb-8f79-4fb1-b190-dd864d29f080> ;
	bd:classifiedAs <http://www.assero.co.uk/CSN#2c3ff386-a062-47f5-b594-eef7ead02243> ;
.
<http://www.cdisc.org/SDTM_MODEL_ALL/V5#CL_--TPT>
	rdf:type bd:SdtmClassVariable ;
	isoC:label "Planned Time Point Name"^^xsd:string ;
	bd:rule ""^^xsd:string ;
	bd:ordinal "38"^^xsd:positiveInteger ;
	bd:name "--TPT"^^xsd:string ;
	bd:prefixed "true"^^xsd:boolean ;
	bd:description "Text description of time when a measurement or observation should be taken as defined in the protocol. This may be represented as an elapsed time relative to a fixed reference point, such as time of last dose. See --TPTNUM and --TPTREF."^^xsd:string ;
	bd:typedAs <http://www.assero.co.uk/CSN#d2f2bbeb-8f79-4fb1-b190-dd864d29f080> ;
	bd:classifiedAs <http://www.assero.co.uk/CSN#2c3ff386-a062-47f5-b594-eef7ead02243> ;
.
<http://www.cdisc.org/SDTM_MODEL_ALL/V5#CL_--TPTNUM>
	rdf:type bd:SdtmClassVariable ;
	isoC:label "Planned Time Point Number"^^xsd:string ;
	bd:rule ""^^xsd:string ;
	bd:ordinal "39"^^xsd:positiveInteger ;
	bd:name "--TPTNUM"^^xsd:string ;
	bd:prefixed "true"^^xsd:boolean ;
	bd:description "Numeric version of planned time point used in sorting."^^xsd:string ;
	bd:typedAs <http://www.assero.co.uk/CSN#178f8dbe-c3ba-4dc0-8a2a-18081644b4c6> ;
	bd:classifiedAs <http://www.assero.co.uk/CSN#2c3ff386-a062-47f5-b594-eef7ead02243> ;
.
<http://www.cdisc.org/SDTM_MODEL_ALL/V5#CL_--ELTM>
	rdf:type bd:SdtmClassVariable ;
	isoC:label "Planned Elapsed Time from Time Point Ref"^^xsd:string ;
	bd:rule ""^^xsd:string ;
	bd:ordinal "40"^^xsd:positiveInteger ;
	bd:name "--ELTM"^^xsd:string ;
	bd:prefixed "true"^^xsd:boolean ;
	bd:description "Planned Elapsed time relative to a planned fixed reference (--TPTREF) such as \"Previous Dose\" or \"Previous Meal\". This variable is useful where there are repetitive measures. Not a clock time or a date/time variable, but an interval."^^xsd:string ;
	bd:typedAs <http://www.assero.co.uk/CSN#d2f2bbeb-8f79-4fb1-b190-dd864d29f080> ;
	bd:classifiedAs <http://www.assero.co.uk/CSN#2c3ff386-a062-47f5-b594-eef7ead02243> ;
.
<http://www.cdisc.org/SDTM_MODEL_ALL/V5#CL_--TPTREF>
	rdf:type bd:SdtmClassVariable ;
	isoC:label "Time Point Reference"^^xsd:string ;
	bd:rule ""^^xsd:string ;
	bd:ordinal "41"^^xsd:positiveInteger ;
	bd:name "--TPTREF"^^xsd:string ;
	bd:prefixed "true"^^xsd:boolean ;
	bd:description "Description of the fixed reference point referred to by --ELTM, --TPTNUM, and --TPT. Examples: PREVIOUS DOSE, PREVIOUS MEAL."^^xsd:string ;
	bd:typedAs <http://www.assero.co.uk/CSN#d2f2bbeb-8f79-4fb1-b190-dd864d29f080> ;
	bd:classifiedAs <http://www.assero.co.uk/CSN#2c3ff386-a062-47f5-b594-eef7ead02243> ;
.
<http://www.cdisc.org/SDTM_MODEL_ALL/V5#CL_--RFTDTC>
	rdf:type bd:SdtmClassVariable ;
	isoC:label "Date/Time of Reference Time Point"^^xsd:string ;
	bd:rule ""^^xsd:string ;
	bd:ordinal "42"^^xsd:positiveInteger ;
	bd:name "--RFTDTC"^^xsd:string ;
	bd:prefixed "true"^^xsd:boolean ;
	bd:description "Date/time for a fixed reference time point defined by --TPTREF."^^xsd:string ;
	bd:typedAs <http://www.assero.co.uk/CSN#d2f2bbeb-8f79-4fb1-b190-dd864d29f080> ;
	bd:classifiedAs <http://www.assero.co.uk/CSN#2c3ff386-a062-47f5-b594-eef7ead02243> ;
.
<http://www.cdisc.org/SDTM_MODEL_ALL/V5#CL_--STRF>
	rdf:type bd:SdtmClassVariable ;
	isoC:label "Start Relative to Reference Period"^^xsd:string ;
	bd:rule ""^^xsd:string ;
	bd:ordinal "43"^^xsd:positiveInteger ;
	bd:name "--STRF"^^xsd:string ;
	bd:prefixed "true"^^xsd:boolean ;
	bd:description "Identifies the start of the observation as being before, during, or after the sponsor-defined reference period. The sponsor-defined reference period is a continuous period of time defined by a discrete starting point and a discrete ending point represented by RFSTDTC and RFENDTC in Demographics."^^xsd:string ;
	bd:typedAs <http://www.assero.co.uk/CSN#d2f2bbeb-8f79-4fb1-b190-dd864d29f080> ;
	bd:classifiedAs <http://www.assero.co.uk/CSN#2c3ff386-a062-47f5-b594-eef7ead02243> ;
.
<http://www.cdisc.org/SDTM_MODEL_ALL/V5#CL_--ENRF>
	rdf:type bd:SdtmClassVariable ;
	isoC:label "End Relative to Reference Period"^^xsd:string ;
	bd:rule ""^^xsd:string ;
	bd:ordinal "44"^^xsd:positiveInteger ;
	bd:name "--ENRF"^^xsd:string ;
	bd:prefixed "true"^^xsd:boolean ;
	bd:description "Identifies the end of the observation as being before, during or after the sponsor-defined reference period. The sponsor-defined reference period is a continuous period of time defined by a discrete starting point and a discrete ending point represented by RFSTDTC and RFENDTC in Demographics."^^xsd:string ;
	bd:typedAs <http://www.assero.co.uk/CSN#d2f2bbeb-8f79-4fb1-b190-dd864d29f080> ;
	bd:classifiedAs <http://www.assero.co.uk/CSN#2c3ff386-a062-47f5-b594-eef7ead02243> ;
.
<http://www.cdisc.org/SDTM_MODEL_ALL/V5#CL_--EVLINT>
	rdf:type bd:SdtmClassVariable ;
	isoC:label "Evaluation Interval"^^xsd:string ;
	bd:rule ""^^xsd:string ;
	bd:ordinal "45"^^xsd:positiveInteger ;
	bd:name "--EVLINT"^^xsd:string ;
	bd:prefixed "true"^^xsd:boolean ;
	bd:description "Duration of interval associated with an observation such as a finding --TESTCD. Example: -P2M to represent a period of the past 2 months as the evaluation interval for a question from a questionnaire."^^xsd:string ;
	bd:typedAs <http://www.assero.co.uk/CSN#d2f2bbeb-8f79-4fb1-b190-dd864d29f080> ;
	bd:classifiedAs <http://www.assero.co.uk/CSN#2c3ff386-a062-47f5-b594-eef7ead02243> ;
.
<http://www.cdisc.org/SDTM_MODEL_ALL/V5#CL_--EVINTX>
	rdf:type bd:SdtmClassVariable ;
	isoC:label "Evaluation Interval Text"^^xsd:string ;
	bd:rule ""^^xsd:string ;
	bd:ordinal "46"^^xsd:positiveInteger ;
	bd:name "--EVINTX"^^xsd:string ;
	bd:prefixed "true"^^xsd:boolean ;
	bd:description "Evaluation interval associated with an observation, where the interval is not able to be represented in ISO 8601 format. Examples: LIFETIME, LAST NIGHT, RECENTLY, OVER THE LAST FEW WEEKS."^^xsd:string ;
	bd:typedAs <http://www.assero.co.uk/CSN#d2f2bbeb-8f79-4fb1-b190-dd864d29f080> ;
	bd:classifiedAs <http://www.assero.co.uk/CSN#2c3ff386-a062-47f5-b594-eef7ead02243> ;
.
<http://www.cdisc.org/SDTM_MODEL_ALL/V5#CL_--STRTPT>
	rdf:type bd:SdtmClassVariable ;
	isoC:label "Start Relative to Reference Time Point"^^xsd:string ;
	bd:rule ""^^xsd:string ;
	bd:ordinal "47"^^xsd:positiveInteger ;
	bd:name "--STRTPT"^^xsd:string ;
	bd:prefixed "true"^^xsd:boolean ;
	bd:description "Identifies the start of the observation as being before or after the sponsor-defined reference time point defined by variable --STTPT."^^xsd:string ;
	bd:typedAs <http://www.assero.co.uk/CSN#d2f2bbeb-8f79-4fb1-b190-dd864d29f080> ;
	bd:classifiedAs <http://www.assero.co.uk/CSN#2c3ff386-a062-47f5-b594-eef7ead02243> ;
.
<http://www.cdisc.org/SDTM_MODEL_ALL/V5#CL_--STTPT>
	rdf:type bd:SdtmClassVariable ;
	isoC:label "Start Reference Time Point"^^xsd:string ;
	bd:rule ""^^xsd:string ;
	bd:ordinal "48"^^xsd:positiveInteger ;
	bd:name "--STTPT"^^xsd:string ;
	bd:prefixed "true"^^xsd:boolean ;
	bd:description "Description or date/time in ISO 8601 or other character format of the sponsor-defined reference point referred to by --STRTPT. Examples: \"2003-12-15\" or \"VISIT 1\"."^^xsd:string ;
	bd:typedAs <http://www.assero.co.uk/CSN#d2f2bbeb-8f79-4fb1-b190-dd864d29f080> ;
	bd:classifiedAs <http://www.assero.co.uk/CSN#2c3ff386-a062-47f5-b594-eef7ead02243> ;
.
<http://www.cdisc.org/SDTM_MODEL_ALL/V5#CL_--ENRTPT>
	rdf:type bd:SdtmClassVariable ;
	isoC:label "End Relative to Reference Time Point"^^xsd:string ;
	bd:rule ""^^xsd:string ;
	bd:ordinal "49"^^xsd:positiveInteger ;
	bd:name "--ENRTPT"^^xsd:string ;
	bd:prefixed "true"^^xsd:boolean ;
	bd:description "Identifies the end of the observation as being before or after the sponsor-defined reference time point defined by variable --ENTPT."^^xsd:string ;
	bd:typedAs <http://www.assero.co.uk/CSN#d2f2bbeb-8f79-4fb1-b190-dd864d29f080> ;
	bd:classifiedAs <http://www.assero.co.uk/CSN#2c3ff386-a062-47f5-b594-eef7ead02243> ;
.
<http://www.cdisc.org/SDTM_MODEL_ALL/V5#CL_--ENTPT>
	rdf:type bd:SdtmClassVariable ;
	isoC:label "End Reference Time Point"^^xsd:string ;
	bd:rule ""^^xsd:string ;
	bd:ordinal "50"^^xsd:positiveInteger ;
	bd:name "--ENTPT"^^xsd:string ;
	bd:prefixed "true"^^xsd:boolean ;
	bd:description "Description or date/time in ISO 8601 or other character format of the sponsor-defined reference point referred to by --ENRTPT. Examples: \"2003-12-25\" or \"VISIT 2\"."^^xsd:string ;
	bd:typedAs <http://www.assero.co.uk/CSN#d2f2bbeb-8f79-4fb1-b190-dd864d29f080> ;
	bd:classifiedAs <http://www.assero.co.uk/CSN#2c3ff386-a062-47f5-b594-eef7ead02243> ;
.
<http://www.cdisc.org/SDTM_MODEL_ALL/V5#CL_MIDS>
	rdf:type bd:SdtmClassVariable ;
	isoC:label "Disease Milestone Instance Name"^^xsd:string ;
	bd:rule ""^^xsd:string ;
	bd:ordinal "51"^^xsd:positiveInteger ;
	bd:name "MIDS"^^xsd:string ;
	bd:prefixed "false"^^xsd:boolean ;
	bd:description "The name of a specific instance of a Disease Milestone Type (MIDSTYPE) described in the Trial Disease Milestones dataset (see Section 3.5, Trial Disease Milestones). This should be unique within a subject. Used only in conjunction with RELMIDS and MIDSDTC."^^xsd:string ;
	bd:typedAs <http://www.assero.co.uk/CSN#d2f2bbeb-8f79-4fb1-b190-dd864d29f080> ;
	bd:classifiedAs <http://www.assero.co.uk/CSN#2c3ff386-a062-47f5-b594-eef7ead02243> ;
.
<http://www.cdisc.org/SDTM_MODEL_ALL/V5#CL_RELMIDS>
	rdf:type bd:SdtmClassVariable ;
	isoC:label "Temporal Relation to Milestone Instance"^^xsd:string ;
	bd:rule ""^^xsd:string ;
	bd:ordinal "52"^^xsd:positiveInteger ;
	bd:name "RELMIDS"^^xsd:string ;
	bd:prefixed "false"^^xsd:boolean ;
	bd:description "The temporal relationship of the observation to the Disease Milestone Instance Name in MIDS. Examples: IMMEDIATELY BEFORE, AT TIME OF, AFTER."^^xsd:string ;
	bd:typedAs <http://www.assero.co.uk/CSN#d2f2bbeb-8f79-4fb1-b190-dd864d29f080> ;
	bd:classifiedAs <http://www.assero.co.uk/CSN#2c3ff386-a062-47f5-b594-eef7ead02243> ;
.
<http://www.cdisc.org/SDTM_MODEL_ALL/V5#CL_MIDSDTC>
	rdf:type bd:SdtmClassVariable ;
	isoC:label "Disease Milestone Instance Date/Time"^^xsd:string ;
	bd:rule ""^^xsd:string ;
	bd:ordinal "53"^^xsd:positiveInteger ;
	bd:name "MIDSDTC"^^xsd:string ;
	bd:prefixed "false"^^xsd:boolean ;
	bd:description "The start date/time of the Disease Milestone Instance Name in MIDS."^^xsd:string ;
	bd:typedAs <http://www.assero.co.uk/CSN#d2f2bbeb-8f79-4fb1-b190-dd864d29f080> ;
	bd:classifiedAs <http://www.assero.co.uk/CSN#2c3ff386-a062-47f5-b594-eef7ead02243> ;
.
<http://www.cdisc.org/SDTM_MODEL_ALL/V5#CL_--STINT>
	rdf:type bd:SdtmClassVariable ;
	isoC:label "Planned Start of Assessment Interval"^^xsd:string ;
	bd:rule ""^^xsd:string ;
	bd:ordinal "54"^^xsd:positiveInteger ;
	bd:name "--STINT"^^xsd:string ;
	bd:prefixed "true"^^xsd:boolean ;
	bd:description "The start of a planned evaluation or assessment interval relative to the Time Point Reference (--TPTREF)."^^xsd:string ;
	bd:typedAs <http://www.assero.co.uk/CSN#d2f2bbeb-8f79-4fb1-b190-dd864d29f080> ;
	bd:classifiedAs <http://www.assero.co.uk/CSN#2c3ff386-a062-47f5-b594-eef7ead02243> ;
.
<http://www.cdisc.org/SDTM_MODEL_ALL/V5#CL_--ENINT>
	rdf:type bd:SdtmClassVariable ;
	isoC:label "Planned End of Assessment Interval"^^xsd:string ;
	bd:rule ""^^xsd:string ;
	bd:ordinal "55"^^xsd:positiveInteger ;
	bd:name "--ENINT"^^xsd:string ;
	bd:prefixed "true"^^xsd:boolean ;
	bd:description "The end of a planned evaluation or assessment interval relative to the Time Point Reference (--TPTREF)."^^xsd:string ;
	bd:typedAs <http://www.assero.co.uk/CSN#d2f2bbeb-8f79-4fb1-b190-dd864d29f080> ;
	bd:classifiedAs <http://www.assero.co.uk/CSN#2c3ff386-a062-47f5-b594-eef7ead02243> ;
.
<http://www.cdisc.org/SDTM_MODEL_ALL/V5#CL_--DETECT>
	rdf:type bd:SdtmClassVariable ;
	isoC:label "Time in Days to Detection"^^xsd:string ;
	bd:rule ""^^xsd:string ;
	bd:ordinal "56"^^xsd:positiveInteger ;
	bd:name "--DETECT"^^xsd:string ;
	bd:prefixed "true"^^xsd:boolean ;
	bd:description "The number of days from the start of dosing to the earliest detection of a condition or pathogen. Not to be used with human clinical trials."^^xsd:string ;
	bd:typedAs <http://www.assero.co.uk/CSN#178f8dbe-c3ba-4dc0-8a2a-18081644b4c6> ;
	bd:classifiedAs <http://www.assero.co.uk/CSN#2c3ff386-a062-47f5-b594-eef7ead02243> ;
.
<http://www.cdisc.org/SDTM_MODEL_EVENTS/V5#CL_--TERM>
	rdf:type bd:SdtmClassVariable ;
	isoC:label "Reported Term"^^xsd:string ;
	bd:rule ""^^xsd:string ;
	bd:ordinal "57"^^xsd:positiveInteger ;
	bd:name "--TERM"^^xsd:string ;
	bd:prefixed "true"^^xsd:boolean ;
	bd:description "Topic variable for an event observation, which is the verbatim or pre-specified name of the event."^^xsd:string ;
	bd:typedAs <http://www.assero.co.uk/CSN#d2f2bbeb-8f79-4fb1-b190-dd864d29f080> ;
	bd:classifiedAs <http://www.assero.co.uk/CSN#692cafbf-658a-43f0-97a2-f040ecb1a20d> ;
	bd:isA <http://www.s-cubed.dk/CAR#2a4eb8036d87ab68656ba5b80bbf77123f088904> ;
.
<http://www.cdisc.org/SDTM_MODEL_EVENTS/V5#CL_--MODIFY>
	rdf:type bd:SdtmClassVariable ;
	isoC:label "Modified Reported Term"^^xsd:string ;
	bd:rule ""^^xsd:string ;
	bd:ordinal "58"^^xsd:positiveInteger ;
	bd:name "--MODIFY"^^xsd:string ;
	bd:prefixed "true"^^xsd:boolean ;
	bd:description "If the value for --TERM is modified for coding purposes, then the modified text is placed here."^^xsd:string ;
	bd:typedAs <http://www.assero.co.uk/CSN#d2f2bbeb-8f79-4fb1-b190-dd864d29f080> ;
	bd:classifiedAs <http://www.assero.co.uk/CSN#86cd61e6-d48c-4e42-b994-bee35e2351fe> ;
.
<http://www.cdisc.org/SDTM_MODEL_EVENTS/V5#CL_--LLT>
	rdf:type bd:SdtmClassVariable ;
	isoC:label "Lowest Level Term"^^xsd:string ;
	bd:rule ""^^xsd:string ;
	bd:ordinal "59"^^xsd:positiveInteger ;
	bd:name "--LLT"^^xsd:string ;
	bd:prefixed "true"^^xsd:boolean ;
	bd:description "MedDRA Lowest Level Term."^^xsd:string ;
	bd:typedAs <http://www.assero.co.uk/CSN#d2f2bbeb-8f79-4fb1-b190-dd864d29f080> ;
	bd:classifiedAs <http://www.assero.co.uk/CSN#86cd61e6-d48c-4e42-b994-bee35e2351fe> ;
.
<http://www.cdisc.org/SDTM_MODEL_EVENTS/V5#CL_--LLTCD>
	rdf:type bd:SdtmClassVariable ;
	isoC:label "Lowest Level Term Code"^^xsd:string ;
	bd:rule ""^^xsd:string ;
	bd:ordinal "60"^^xsd:positiveInteger ;
	bd:name "--LLTCD"^^xsd:string ;
	bd:prefixed "true"^^xsd:boolean ;
	bd:description "MedDRA Lowest Level Term code."^^xsd:string ;
	bd:typedAs <http://www.assero.co.uk/CSN#178f8dbe-c3ba-4dc0-8a2a-18081644b4c6> ;
	bd:classifiedAs <http://www.assero.co.uk/CSN#86cd61e6-d48c-4e42-b994-bee35e2351fe> ;
.
<http://www.cdisc.org/SDTM_MODEL_EVENTS/V5#CL_--DECOD>
	rdf:type bd:SdtmClassVariable ;
	isoC:label "Dictionary-Derived Term"^^xsd:string ;
	bd:rule ""^^xsd:string ;
	bd:ordinal "61"^^xsd:positiveInteger ;
	bd:name "--DECOD"^^xsd:string ;
	bd:prefixed "true"^^xsd:boolean ;
	bd:description "Dictionary or sponsor-defined derived text description of the topic variable, --TERM, or the modified topic variable (--MODIFY), if applicable. Equivalent to the Preferred Term (PT in MedDRA)."^^xsd:string ;
	bd:typedAs <http://www.assero.co.uk/CSN#d2f2bbeb-8f79-4fb1-b190-dd864d29f080> ;
	bd:classifiedAs <http://www.assero.co.uk/CSN#86cd61e6-d48c-4e42-b994-bee35e2351fe> ;
.
<http://www.cdisc.org/SDTM_MODEL_EVENTS/V5#CL_--PTCD>
	rdf:type bd:SdtmClassVariable ;
	isoC:label "Preferred Term Code"^^xsd:string ;
	bd:rule ""^^xsd:string ;
	bd:ordinal "62"^^xsd:positiveInteger ;
	bd:name "--PTCD"^^xsd:string ;
	bd:prefixed "true"^^xsd:boolean ;
	bd:description "MedDRA Preferred Term code."^^xsd:string ;
	bd:typedAs <http://www.assero.co.uk/CSN#178f8dbe-c3ba-4dc0-8a2a-18081644b4c6> ;
	bd:classifiedAs <http://www.assero.co.uk/CSN#86cd61e6-d48c-4e42-b994-bee35e2351fe> ;
.
<http://www.cdisc.org/SDTM_MODEL_EVENTS/V5#CL_--HLT>
	rdf:type bd:SdtmClassVariable ;
	isoC:label "High Level Term"^^xsd:string ;
	bd:rule ""^^xsd:string ;
	bd:ordinal "63"^^xsd:positiveInteger ;
	bd:name "--HLT"^^xsd:string ;
	bd:prefixed "true"^^xsd:boolean ;
	bd:description "MedDRA High Level Term from the primary path."^^xsd:string ;
	bd:typedAs <http://www.assero.co.uk/CSN#d2f2bbeb-8f79-4fb1-b190-dd864d29f080> ;
	bd:classifiedAs <http://www.assero.co.uk/CSN#86cd61e6-d48c-4e42-b994-bee35e2351fe> ;
.
<http://www.cdisc.org/SDTM_MODEL_EVENTS/V5#CL_--HLTCD>
	rdf:type bd:SdtmClassVariable ;
	isoC:label "High Level Term Code"^^xsd:string ;
	bd:rule ""^^xsd:string ;
	bd:ordinal "64"^^xsd:positiveInteger ;
	bd:name "--HLTCD"^^xsd:string ;
	bd:prefixed "true"^^xsd:boolean ;
	bd:description "MedDRA High Level Term code from the primary path."^^xsd:string ;
	bd:typedAs <http://www.assero.co.uk/CSN#178f8dbe-c3ba-4dc0-8a2a-18081644b4c6> ;
	bd:classifiedAs <http://www.assero.co.uk/CSN#86cd61e6-d48c-4e42-b994-bee35e2351fe> ;
.
<http://www.cdisc.org/SDTM_MODEL_EVENTS/V5#CL_--HLGT>
	rdf:type bd:SdtmClassVariable ;
	isoC:label "High Level Group Term"^^xsd:string ;
	bd:rule ""^^xsd:string ;
	bd:ordinal "65"^^xsd:positiveInteger ;
	bd:name "--HLGT"^^xsd:string ;
	bd:prefixed "true"^^xsd:boolean ;
	bd:description "MedDRA High Level Group Term from the primary path."^^xsd:string ;
	bd:typedAs <http://www.assero.co.uk/CSN#d2f2bbeb-8f79-4fb1-b190-dd864d29f080> ;
	bd:classifiedAs <http://www.assero.co.uk/CSN#86cd61e6-d48c-4e42-b994-bee35e2351fe> ;
.
<http://www.cdisc.org/SDTM_MODEL_EVENTS/V5#CL_--HLGTCD>
	rdf:type bd:SdtmClassVariable ;
	isoC:label "High Level Group Term Code"^^xsd:string ;
	bd:rule ""^^xsd:string ;
	bd:ordinal "66"^^xsd:positiveInteger ;
	bd:name "--HLGTCD"^^xsd:string ;
	bd:prefixed "true"^^xsd:boolean ;
	bd:description "MedDRA High Level Group Term code from the primary path."^^xsd:string ;
	bd:typedAs <http://www.assero.co.uk/CSN#178f8dbe-c3ba-4dc0-8a2a-18081644b4c6> ;
	bd:classifiedAs <http://www.assero.co.uk/CSN#86cd61e6-d48c-4e42-b994-bee35e2351fe> ;
.
<http://www.cdisc.org/SDTM_MODEL_EVENTS/V5#CL_--CAT>
	rdf:type bd:SdtmClassVariable ;
	isoC:label "Category"^^xsd:string ;
	bd:rule ""^^xsd:string ;
	bd:ordinal "67"^^xsd:positiveInteger ;
	bd:name "--CAT"^^xsd:string ;
	bd:prefixed "true"^^xsd:boolean ;
	bd:description "Used to define a category of topic-variable values."^^xsd:string ;
	bd:typedAs <http://www.assero.co.uk/CSN#d2f2bbeb-8f79-4fb1-b190-dd864d29f080> ;
	bd:classifiedAs <http://www.assero.co.uk/CSN#9fb29f8b-505a-4c4f-b550-175fbfec932d> ;
	bd:isA <http://www.s-cubed.dk/CAR#a3c686e711e4720f99b4562bb3dbaae7ab658cf2> ;
.
<http://www.cdisc.org/SDTM_MODEL_EVENTS/V5#CL_--SCAT>
	rdf:type bd:SdtmClassVariable ;
	isoC:label "Subcategory"^^xsd:string ;
	bd:rule ""^^xsd:string ;
	bd:ordinal "68"^^xsd:positiveInteger ;
	bd:name "--SCAT"^^xsd:string ;
	bd:prefixed "true"^^xsd:boolean ;
	bd:description "Used to define a further categorization of --CAT values."^^xsd:string ;
	bd:typedAs <http://www.assero.co.uk/CSN#d2f2bbeb-8f79-4fb1-b190-dd864d29f080> ;
	bd:classifiedAs <http://www.assero.co.uk/CSN#9fb29f8b-505a-4c4f-b550-175fbfec932d> ;
	bd:isA <http://www.s-cubed.dk/CAR#479a67983e739413da55faf0dc509f83fd5dea64> ;
.
<http://www.cdisc.org/SDTM_MODEL_EVENTS/V5#CL_--PRESP>
	rdf:type bd:SdtmClassVariable ;
	isoC:label "Pre-specified"^^xsd:string ;
	bd:rule ""^^xsd:string ;
	bd:ordinal "69"^^xsd:positiveInteger ;
	bd:name "--PRESP"^^xsd:string ;
	bd:prefixed "true"^^xsd:boolean ;
	bd:description "Used to indicate whether the event described by --TERM was pre-specified on a CRF. Value is Y for pre-specified events, null for spontaneously reported events."^^xsd:string ;
	bd:typedAs <http://www.assero.co.uk/CSN#d2f2bbeb-8f79-4fb1-b190-dd864d29f080> ;
	bd:classifiedAs <http://www.assero.co.uk/CSN#86cd61e6-d48c-4e42-b994-bee35e2351fe> ;
.
<http://www.cdisc.org/SDTM_MODEL_EVENTS/V5#CL_--OCCUR>
	rdf:type bd:SdtmClassVariable ;
	isoC:label "Occurrence"^^xsd:string ;
	bd:rule ""^^xsd:string ;
	bd:ordinal "70"^^xsd:positiveInteger ;
	bd:name "--OCCUR"^^xsd:string ;
	bd:prefixed "true"^^xsd:boolean ;
	bd:description "Used to record whether a pre-specified event occurred when information about the occurrence of a specific event is solicited."^^xsd:string ;
	bd:typedAs <http://www.assero.co.uk/CSN#d2f2bbeb-8f79-4fb1-b190-dd864d29f080> ;
	bd:classifiedAs <http://www.assero.co.uk/CSN#4bb7578c-6705-4d2e-93d6-b56960d9e21e> ;
.
<http://www.cdisc.org/SDTM_MODEL_EVENTS/V5#CL_--STAT>
	rdf:type bd:SdtmClassVariable ;
	isoC:label "Completion Status"^^xsd:string ;
	bd:rule ""^^xsd:string ;
	bd:ordinal "71"^^xsd:positiveInteger ;
	bd:name "--STAT"^^xsd:string ;
	bd:prefixed "true"^^xsd:boolean ;
	bd:description "Used to indicate when a question about the occurrence of a pre-specified event was not answered. Should be null or have a value of NOT DONE."^^xsd:string ;
	bd:typedAs <http://www.assero.co.uk/CSN#d2f2bbeb-8f79-4fb1-b190-dd864d29f080> ;
	bd:classifiedAs <http://www.assero.co.uk/CSN#4bb7578c-6705-4d2e-93d6-b56960d9e21e> ;
	bd:isA <http://www.s-cubed.dk/CAR#bae7d5be70820ed56467bd9a63744e23b47bd711> ;
.
<http://www.cdisc.org/SDTM_MODEL_EVENTS/V5#CL_--REASND>
	rdf:type bd:SdtmClassVariable ;
	isoC:label "Reason Not Done"^^xsd:string ;
	bd:rule ""^^xsd:string ;
	bd:ordinal "72"^^xsd:positiveInteger ;
	bd:name "--REASND"^^xsd:string ;
	bd:prefixed "true"^^xsd:boolean ;
	bd:description "Reason not done. Used in conjunction with --STAT when its value is NOT DONE."^^xsd:string ;
	bd:typedAs <http://www.assero.co.uk/CSN#d2f2bbeb-8f79-4fb1-b190-dd864d29f080> ;
	bd:classifiedAs <http://www.assero.co.uk/CSN#4bb7578c-6705-4d2e-93d6-b56960d9e21e> ;
.
<http://www.cdisc.org/SDTM_MODEL_EVENTS/V5#CL_--BODSYS>
	rdf:type bd:SdtmClassVariable ;
	isoC:label "Body System or Organ Class"^^xsd:string ;
	bd:rule ""^^xsd:string ;
	bd:ordinal "73"^^xsd:positiveInteger ;
	bd:name "--BODSYS"^^xsd:string ;
	bd:prefixed "true"^^xsd:boolean ;
	bd:description "Body system or system organ class assigned for analysis from a standard hierarchy (e.g. MedDRA) associated with an event. Example: GASTROINTESTINAL DISORDERS."^^xsd:string ;
	bd:typedAs <http://www.assero.co.uk/CSN#d2f2bbeb-8f79-4fb1-b190-dd864d29f080> ;
	bd:classifiedAs <http://www.assero.co.uk/CSN#4bb7578c-6705-4d2e-93d6-b56960d9e21e> ;
.
<http://www.cdisc.org/SDTM_MODEL_EVENTS/V5#CL_--BDSYCD>
	rdf:type bd:SdtmClassVariable ;
	isoC:label "Body System or Organ Class Code"^^xsd:string ;
	bd:rule ""^^xsd:string ;
	bd:ordinal "74"^^xsd:positiveInteger ;
	bd:name "--BDSYCD"^^xsd:string ;
	bd:prefixed "true"^^xsd:boolean ;
	bd:description "MedDRA System Organ Class code corresponding to --BODSYS assigned for analysis."^^xsd:string ;
	bd:typedAs <http://www.assero.co.uk/CSN#178f8dbe-c3ba-4dc0-8a2a-18081644b4c6> ;
	bd:classifiedAs <http://www.assero.co.uk/CSN#86cd61e6-d48c-4e42-b994-bee35e2351fe> ;
.
<http://www.cdisc.org/SDTM_MODEL_EVENTS/V5#CL_--SOC>
	rdf:type bd:SdtmClassVariable ;
	isoC:label "Primary System Organ Class"^^xsd:string ;
	bd:rule ""^^xsd:string ;
	bd:ordinal "75"^^xsd:positiveInteger ;
	bd:name "--SOC"^^xsd:string ;
	bd:prefixed "true"^^xsd:boolean ;
	bd:description "MedDRA primary System Organ Class associated with the event."^^xsd:string ;
	bd:typedAs <http://www.assero.co.uk/CSN#d2f2bbeb-8f79-4fb1-b190-dd864d29f080> ;
	bd:classifiedAs <http://www.assero.co.uk/CSN#86cd61e6-d48c-4e42-b994-bee35e2351fe> ;
.
<http://www.cdisc.org/SDTM_MODEL_EVENTS/V5#CL_--SOCCD>
	rdf:type bd:SdtmClassVariable ;
	isoC:label "Primary System Organ Class Code"^^xsd:string ;
	bd:rule ""^^xsd:string ;
	bd:ordinal "76"^^xsd:positiveInteger ;
	bd:name "--SOCCD"^^xsd:string ;
	bd:prefixed "true"^^xsd:boolean ;
	bd:description "MedDRA primary System Organ Class code."^^xsd:string ;
	bd:typedAs <http://www.assero.co.uk/CSN#178f8dbe-c3ba-4dc0-8a2a-18081644b4c6> ;
	bd:classifiedAs <http://www.assero.co.uk/CSN#86cd61e6-d48c-4e42-b994-bee35e2351fe> ;
.
<http://www.cdisc.org/SDTM_MODEL_EVENTS/V5#CL_--LOC>
	rdf:type bd:SdtmClassVariable ;
	isoC:label "Location of Event"^^xsd:string ;
	bd:rule ""^^xsd:string ;
	bd:ordinal "77"^^xsd:positiveInteger ;
	bd:name "--LOC"^^xsd:string ;
	bd:prefixed "true"^^xsd:boolean ;
	bd:description "Describes anatomical location relevant for the event. Example: ARM for skin rash."^^xsd:string ;
	bd:typedAs <http://www.assero.co.uk/CSN#d2f2bbeb-8f79-4fb1-b190-dd864d29f080> ;
	bd:classifiedAs <http://www.assero.co.uk/CSN#4bb7578c-6705-4d2e-93d6-b56960d9e21e> ;
	bd:isA <http://www.s-cubed.dk/CAR#d219c68101f532de10add2cf42fb9dbeca73d3be> ;
.
<http://www.cdisc.org/SDTM_MODEL_EVENTS/V5#CL_--LAT>
	rdf:type bd:SdtmClassVariable ;
	isoC:label "Laterality"^^xsd:string ;
	bd:rule ""^^xsd:string ;
	bd:ordinal "78"^^xsd:positiveInteger ;
	bd:name "--LAT"^^xsd:string ;
	bd:prefixed "true"^^xsd:boolean ;
	bd:description "Qualifier for anatomical location further detailing laterality. Examples: RIGHT, LEFT, BILATERAL"^^xsd:string ;
	bd:typedAs <http://www.assero.co.uk/CSN#d2f2bbeb-8f79-4fb1-b190-dd864d29f080> ;
	bd:classifiedAs <http://www.assero.co.uk/CSN#86cd61e6-d48c-4e42-b994-bee35e2351fe> ;
	bd:isA <http://www.s-cubed.dk/CAR#ef3aa1b3b12817712a7c3e62022cbe06bd6c3f08> ;
.
<http://www.cdisc.org/SDTM_MODEL_EVENTS/V5#CL_--DIR>
	rdf:type bd:SdtmClassVariable ;
	isoC:label "Directionality"^^xsd:string ;
	bd:rule ""^^xsd:string ;
	bd:ordinal "79"^^xsd:positiveInteger ;
	bd:name "--DIR"^^xsd:string ;
	bd:prefixed "true"^^xsd:boolean ;
	bd:description "Qualifier for anatomical location further detailing directionality. Examples: ANTERIOR, LOWER, PROXIMAL"^^xsd:string ;
	bd:typedAs <http://www.assero.co.uk/CSN#d2f2bbeb-8f79-4fb1-b190-dd864d29f080> ;
	bd:classifiedAs <http://www.assero.co.uk/CSN#86cd61e6-d48c-4e42-b994-bee35e2351fe> ;
	bd:isA <http://www.s-cubed.dk/CAR#b8480e9c78891769429c713a44f238f2ca3c3abb> ;
.
<http://www.cdisc.org/SDTM_MODEL_EVENTS/V5#CL_--PORTOT>
	rdf:type bd:SdtmClassVariable ;
	isoC:label "Portion or Totality"^^xsd:string ;
	bd:rule ""^^xsd:string ;
	bd:ordinal "80"^^xsd:positiveInteger ;
	bd:name "--PORTOT"^^xsd:string ;
	bd:prefixed "true"^^xsd:boolean ;
	bd:description "Qualifier for anatomical location further detailing the distribution, which means arrangement of, apportioning of. Examples: ENTIRE, SINGLE, SEGMENT, MANY."^^xsd:string ;
	bd:typedAs <http://www.assero.co.uk/CSN#d2f2bbeb-8f79-4fb1-b190-dd864d29f080> ;
	bd:classifiedAs <http://www.assero.co.uk/CSN#86cd61e6-d48c-4e42-b994-bee35e2351fe> ;
.
<http://www.cdisc.org/SDTM_MODEL_EVENTS/V5#CL_--PARTY>
	rdf:type bd:SdtmClassVariable ;
	isoC:label "Accountable Party"^^xsd:string ;
	bd:rule ""^^xsd:string ;
	bd:ordinal "81"^^xsd:positiveInteger ;
	bd:name "--PARTY"^^xsd:string ;
	bd:prefixed "true"^^xsd:boolean ;
	bd:description "Party accountable for the transferable object (e.g. device, specimen) as a result of the activity performed in the associated --TERM variable. The party could be an individual (e.g., subject), an organization (e.g., sponsor), or a location that is a proxy for an individual or organization (e.g., site). It is usually a somewhat general term that is further identified in the --PRTYID variable."^^xsd:string ;
	bd:typedAs <http://www.assero.co.uk/CSN#d2f2bbeb-8f79-4fb1-b190-dd864d29f080> ;
	bd:classifiedAs <http://www.assero.co.uk/CSN#4bb7578c-6705-4d2e-93d6-b56960d9e21e> ;
.
<http://www.cdisc.org/SDTM_MODEL_EVENTS/V5#CL_--PRTYID>
	rdf:type bd:SdtmClassVariable ;
	isoC:label "Identification of Accountable Party"^^xsd:string ;
	bd:rule ""^^xsd:string ;
	bd:ordinal "82"^^xsd:positiveInteger ;
	bd:name "--PRTYID"^^xsd:string ;
	bd:prefixed "true"^^xsd:boolean ;
	bd:description "Identification of the specific party accountable for the transferable object (e.g. device, specimen) after the action in --TERM is taken. Used in conjunction with --PARTY."^^xsd:string ;
	bd:typedAs <http://www.assero.co.uk/CSN#d2f2bbeb-8f79-4fb1-b190-dd864d29f080> ;
	bd:classifiedAs <http://www.assero.co.uk/CSN#4bb7578c-6705-4d2e-93d6-b56960d9e21e> ;
.
<http://www.cdisc.org/SDTM_MODEL_EVENTS/V5#CL_--SEV>
	rdf:type bd:SdtmClassVariable ;
	isoC:label "Severity/Intensity"^^xsd:string ;
	bd:rule ""^^xsd:string ;
	bd:ordinal "83"^^xsd:positiveInteger ;
	bd:name "--SEV"^^xsd:string ;
	bd:prefixed "true"^^xsd:boolean ;
	bd:description "The severity or intensity of the event. Examples: MILD, MODERATE, SEVERE."^^xsd:string ;
	bd:typedAs <http://www.assero.co.uk/CSN#d2f2bbeb-8f79-4fb1-b190-dd864d29f080> ;
	bd:classifiedAs <http://www.assero.co.uk/CSN#4bb7578c-6705-4d2e-93d6-b56960d9e21e> ;
	bd:isA <http://www.s-cubed.dk/CAR#de314fa0c9d9e359b633f2fdab4659c886fe5986> ;
.
<http://www.cdisc.org/SDTM_MODEL_EVENTS/V5#CL_--SER>
	rdf:type bd:SdtmClassVariable ;
	isoC:label "Serious Event"^^xsd:string ;
	bd:rule ""^^xsd:string ;
	bd:ordinal "84"^^xsd:positiveInteger ;
	bd:name "--SER"^^xsd:string ;
	bd:prefixed "true"^^xsd:boolean ;
	bd:description "Is this is a serious event? Valid values are \"Y\" and \"N\"."^^xsd:string ;
	bd:typedAs <http://www.assero.co.uk/CSN#d2f2bbeb-8f79-4fb1-b190-dd864d29f080> ;
	bd:classifiedAs <http://www.assero.co.uk/CSN#4bb7578c-6705-4d2e-93d6-b56960d9e21e> ;
	bd:isA <http://www.s-cubed.dk/CAR#bc7845e67c63c354e69a957bab304d72da2f9fb7> ;
.
<http://www.cdisc.org/SDTM_MODEL_EVENTS/V5#CL_--ACN>
	rdf:type bd:SdtmClassVariable ;
	isoC:label "Action Taken with Study Treatment"^^xsd:string ;
	bd:rule ""^^xsd:string ;
	bd:ordinal "85"^^xsd:positiveInteger ;
	bd:name "--ACN"^^xsd:string ;
	bd:prefixed "true"^^xsd:boolean ;
	bd:description "Describes changes made to the study treatment as a result of the event. Examples: DOSE INCREASED, DOSE NOT CHANGED."^^xsd:string ;
	bd:typedAs <http://www.assero.co.uk/CSN#d2f2bbeb-8f79-4fb1-b190-dd864d29f080> ;
	bd:classifiedAs <http://www.assero.co.uk/CSN#4bb7578c-6705-4d2e-93d6-b56960d9e21e> ;
	bd:isA <http://www.s-cubed.dk/CAR#485290959383eee39c093e50e84fdc851ac37a32> ;
.
<http://www.cdisc.org/SDTM_MODEL_EVENTS/V5#CL_--ACNOTH>
	rdf:type bd:SdtmClassVariable ;
	isoC:label "Other Action Taken"^^xsd:string ;
	bd:rule ""^^xsd:string ;
	bd:ordinal "86"^^xsd:positiveInteger ;
	bd:name "--ACNOTH"^^xsd:string ;
	bd:prefixed "true"^^xsd:boolean ;
	bd:description "Describes other actions taken as a result of the event that are unrelated to dose adjustments of study treatment."^^xsd:string ;
	bd:typedAs <http://www.assero.co.uk/CSN#d2f2bbeb-8f79-4fb1-b190-dd864d29f080> ;
	bd:classifiedAs <http://www.assero.co.uk/CSN#4bb7578c-6705-4d2e-93d6-b56960d9e21e> ;
	bd:isA <http://www.s-cubed.dk/CAR#1baf5ac06f7430ac72727c2dfb3f152e07d9d5da> ;
.
<http://www.cdisc.org/SDTM_MODEL_EVENTS/V5#CL_--ACNDEV>
	rdf:type bd:SdtmClassVariable ;
	isoC:label "Action Taken with Device"^^xsd:string ;
	bd:rule ""^^xsd:string ;
	bd:ordinal "87"^^xsd:positiveInteger ;
	bd:name "--ACNDEV"^^xsd:string ;
	bd:prefixed "true"^^xsd:boolean ;
	bd:description "Action taken with respect to a device in a study, which may or may not be the device under study"^^xsd:string ;
	bd:typedAs <http://www.assero.co.uk/CSN#d2f2bbeb-8f79-4fb1-b190-dd864d29f080> ;
	bd:classifiedAs <http://www.assero.co.uk/CSN#4bb7578c-6705-4d2e-93d6-b56960d9e21e> ;
.
<http://www.cdisc.org/SDTM_MODEL_EVENTS/V5#CL_--REL>
	rdf:type bd:SdtmClassVariable ;
	isoC:label "Causality"^^xsd:string ;
	bd:rule ""^^xsd:string ;
	bd:ordinal "88"^^xsd:positiveInteger ;
	bd:name "--REL"^^xsd:string ;
	bd:prefixed "true"^^xsd:boolean ;
	bd:description "Records the investigator's opinion as to the causality of the event to the treatment. ICH E2A and E2B examples include NOT RELATED, UNLIKELY RELATED, POSSIBLY RELATED, RELATED."^^xsd:string ;
	bd:typedAs <http://www.assero.co.uk/CSN#d2f2bbeb-8f79-4fb1-b190-dd864d29f080> ;
	bd:classifiedAs <http://www.assero.co.uk/CSN#4bb7578c-6705-4d2e-93d6-b56960d9e21e> ;
.
<http://www.cdisc.org/SDTM_MODEL_EVENTS/V5#CL_--RELNST>
	rdf:type bd:SdtmClassVariable ;
	isoC:label "Relationship to Non-Study Treatment"^^xsd:string ;
	bd:rule ""^^xsd:string ;
	bd:ordinal "89"^^xsd:positiveInteger ;
	bd:name "--RELNST"^^xsd:string ;
	bd:prefixed "true"^^xsd:boolean ;
	bd:description "An opinion as to whether the event may have been due to a treatment other than study drug. Example: \"MORE LIKELY RELATED TO ASPIRIN USE.\""^^xsd:string ;
	bd:typedAs <http://www.assero.co.uk/CSN#d2f2bbeb-8f79-4fb1-b190-dd864d29f080> ;
	bd:classifiedAs <http://www.assero.co.uk/CSN#4bb7578c-6705-4d2e-93d6-b56960d9e21e> ;
.
<http://www.cdisc.org/SDTM_MODEL_EVENTS/V5#CL_--PATT>
	rdf:type bd:SdtmClassVariable ;
	isoC:label "Pattern of Event"^^xsd:string ;
	bd:rule ""^^xsd:string ;
	bd:ordinal "90"^^xsd:positiveInteger ;
	bd:name "--PATT"^^xsd:string ;
	bd:prefixed "true"^^xsd:boolean ;
	bd:description "Used to indicate the pattern of the event over time. Examples: INTERMITTENT, CONTINUOUS, SINGLE EVENT."^^xsd:string ;
	bd:typedAs <http://www.assero.co.uk/CSN#d2f2bbeb-8f79-4fb1-b190-dd864d29f080> ;
	bd:classifiedAs <http://www.assero.co.uk/CSN#4bb7578c-6705-4d2e-93d6-b56960d9e21e> ;
	bd:isA <http://www.s-cubed.dk/CAR#1fff6a31661b491fc40cc9c1ad7fe5e479cb7500> ;
.
<http://www.cdisc.org/SDTM_MODEL_EVENTS/V5#CL_--OUT>
	rdf:type bd:SdtmClassVariable ;
	isoC:label "Outcome of Event"^^xsd:string ;
	bd:rule ""^^xsd:string ;
	bd:ordinal "91"^^xsd:positiveInteger ;
	bd:name "--OUT"^^xsd:string ;
	bd:prefixed "true"^^xsd:boolean ;
	bd:description "Description of the outcome of an event. Examples: RECOVERED/RESOLVED, FATAL."^^xsd:string ;
	bd:typedAs <http://www.assero.co.uk/CSN#d2f2bbeb-8f79-4fb1-b190-dd864d29f080> ;
	bd:classifiedAs <http://www.assero.co.uk/CSN#4bb7578c-6705-4d2e-93d6-b56960d9e21e> ;
	bd:isA <http://www.s-cubed.dk/CAR#73a0f131076b513c16bfe3f4cff9ab8b765c9f23> ;
.
<http://www.cdisc.org/SDTM_MODEL_EVENTS/V5#CL_--SCAN>
	rdf:type bd:SdtmClassVariable ;
	isoC:label "Involves Cancer"^^xsd:string ;
	bd:rule ""^^xsd:string ;
	bd:ordinal "92"^^xsd:positiveInteger ;
	bd:name "--SCAN"^^xsd:string ;
	bd:prefixed "true"^^xsd:boolean ;
	bd:description "Was the event associated with the development of cancer? Valid values are \"Y\" and \"N\"."^^xsd:string ;
	bd:typedAs <http://www.assero.co.uk/CSN#d2f2bbeb-8f79-4fb1-b190-dd864d29f080> ;
	bd:classifiedAs <http://www.assero.co.uk/CSN#4bb7578c-6705-4d2e-93d6-b56960d9e21e> ;
.
<http://www.cdisc.org/SDTM_MODEL_EVENTS/V5#CL_--SCONG>
	rdf:type bd:SdtmClassVariable ;
	isoC:label "Congenital Anomaly or Birth Defect"^^xsd:string ;
	bd:rule ""^^xsd:string ;
	bd:ordinal "93"^^xsd:positiveInteger ;
	bd:name "--SCONG"^^xsd:string ;
	bd:prefixed "true"^^xsd:boolean ;
	bd:description "Was the event associated with congenital anomaly or birth defect? Valid values are \"Y\" and \"N\"."^^xsd:string ;
	bd:typedAs <http://www.assero.co.uk/CSN#d2f2bbeb-8f79-4fb1-b190-dd864d29f080> ;
	bd:classifiedAs <http://www.assero.co.uk/CSN#4bb7578c-6705-4d2e-93d6-b56960d9e21e> ;
.
<http://www.cdisc.org/SDTM_MODEL_EVENTS/V5#CL_--SDISAB>
	rdf:type bd:SdtmClassVariable ;
	isoC:label "Persist or Signif Disability/Incapacity"^^xsd:string ;
	bd:rule ""^^xsd:string ;
	bd:ordinal "94"^^xsd:positiveInteger ;
	bd:name "--SDISAB"^^xsd:string ;
	bd:prefixed "true"^^xsd:boolean ;
	bd:description "Did the event result in persistent or significant disability/incapacity? Valid values are \"Y\" and \"N\"."^^xsd:string ;
	bd:typedAs <http://www.assero.co.uk/CSN#d2f2bbeb-8f79-4fb1-b190-dd864d29f080> ;
	bd:classifiedAs <http://www.assero.co.uk/CSN#4bb7578c-6705-4d2e-93d6-b56960d9e21e> ;
.
<http://www.cdisc.org/SDTM_MODEL_EVENTS/V5#CL_--SDTH>
	rdf:type bd:SdtmClassVariable ;
	isoC:label "Results in Death"^^xsd:string ;
	bd:rule ""^^xsd:string ;
	bd:ordinal "95"^^xsd:positiveInteger ;
	bd:name "--SDTH"^^xsd:string ;
	bd:prefixed "true"^^xsd:boolean ;
	bd:description "Did the event result in death? Valid values are \"Y\" and \"N\"."^^xsd:string ;
	bd:typedAs <http://www.assero.co.uk/CSN#d2f2bbeb-8f79-4fb1-b190-dd864d29f080> ;
	bd:classifiedAs <http://www.assero.co.uk/CSN#4bb7578c-6705-4d2e-93d6-b56960d9e21e> ;
.
<http://www.cdisc.org/SDTM_MODEL_EVENTS/V5#CL_--SHOSP>
	rdf:type bd:SdtmClassVariable ;
	isoC:label "Requires or Prolongs Hospitalization"^^xsd:string ;
	bd:rule ""^^xsd:string ;
	bd:ordinal "96"^^xsd:positiveInteger ;
	bd:name "--SHOSP"^^xsd:string ;
	bd:prefixed "true"^^xsd:boolean ;
	bd:description "Did the event require or prolong hospitalization? Valid values are \"Y\" and \"N\"."^^xsd:string ;
	bd:typedAs <http://www.assero.co.uk/CSN#d2f2bbeb-8f79-4fb1-b190-dd864d29f080> ;
	bd:classifiedAs <http://www.assero.co.uk/CSN#4bb7578c-6705-4d2e-93d6-b56960d9e21e> ;
	bd:isA <http://www.s-cubed.dk/CAR#3239c890f4b1b44ea81233e5766557a1008c0b6b> ;
.
<http://www.cdisc.org/SDTM_MODEL_EVENTS/V5#CL_--SLIFE>
	rdf:type bd:SdtmClassVariable ;
	isoC:label "Is Life Threatening"^^xsd:string ;
	bd:rule ""^^xsd:string ;
	bd:ordinal "97"^^xsd:positiveInteger ;
	bd:name "--SLIFE"^^xsd:string ;
	bd:prefixed "true"^^xsd:boolean ;
	bd:description "Was the event life threatening? Valid values are \"Y\" and \"N\"."^^xsd:string ;
	bd:typedAs <http://www.assero.co.uk/CSN#d2f2bbeb-8f79-4fb1-b190-dd864d29f080> ;
	bd:classifiedAs <http://www.assero.co.uk/CSN#4bb7578c-6705-4d2e-93d6-b56960d9e21e> ;
.
<http://www.cdisc.org/SDTM_MODEL_EVENTS/V5#CL_--SOD>
	rdf:type bd:SdtmClassVariable ;
	isoC:label "Occurred with Overdose"^^xsd:string ;
	bd:rule ""^^xsd:string ;
	bd:ordinal "98"^^xsd:positiveInteger ;
	bd:name "--SOD"^^xsd:string ;
	bd:prefixed "true"^^xsd:boolean ;
	bd:description "Did the event occur with an overdose? Valid values are \"Y\" and \"N\"."^^xsd:string ;
	bd:typedAs <http://www.assero.co.uk/CSN#d2f2bbeb-8f79-4fb1-b190-dd864d29f080> ;
	bd:classifiedAs <http://www.assero.co.uk/CSN#4bb7578c-6705-4d2e-93d6-b56960d9e21e> ;
.
<http://www.cdisc.org/SDTM_MODEL_EVENTS/V5#CL_--SMIE>
	rdf:type bd:SdtmClassVariable ;
	isoC:label "Other Medically Important Serious Event"^^xsd:string ;
	bd:rule ""^^xsd:string ;
	bd:ordinal "99"^^xsd:positiveInteger ;
	bd:name "--SMIE"^^xsd:string ;
	bd:prefixed "true"^^xsd:boolean ;
	bd:description "Do additional categories for seriousness apply? Valid values are \"Y\" and \"N\"."^^xsd:string ;
	bd:typedAs <http://www.assero.co.uk/CSN#d2f2bbeb-8f79-4fb1-b190-dd864d29f080> ;
	bd:classifiedAs <http://www.assero.co.uk/CSN#4bb7578c-6705-4d2e-93d6-b56960d9e21e> ;
.
<http://www.cdisc.org/SDTM_MODEL_EVENTS/V5#CL_--CONTRT>
	rdf:type bd:SdtmClassVariable ;
	isoC:label "Concomitant or Additional Trtmnt Given"^^xsd:string ;
	bd:rule ""^^xsd:string ;
	bd:ordinal "100"^^xsd:positiveInteger ;
	bd:name "--CONTRT"^^xsd:string ;
	bd:prefixed "true"^^xsd:boolean ;
	bd:description "Was another treatment given because of the occurrence of the event? Valid values are \"Y\" and \"N\"."^^xsd:string ;
	bd:typedAs <http://www.assero.co.uk/CSN#d2f2bbeb-8f79-4fb1-b190-dd864d29f080> ;
	bd:classifiedAs <http://www.assero.co.uk/CSN#4bb7578c-6705-4d2e-93d6-b56960d9e21e> ;
.
<http://www.cdisc.org/SDTM_MODEL_EVENTS/V5#CL_--TOX>
	rdf:type bd:SdtmClassVariable ;
	isoC:label "Toxicity"^^xsd:string ;
	bd:rule ""^^xsd:string ;
	bd:ordinal "101"^^xsd:positiveInteger ;
	bd:name "--TOX"^^xsd:string ;
	bd:prefixed "true"^^xsd:boolean ;
	bd:description "Description of toxicity quantified by --TOXGR such as NCI CTCAE Short Name. Examples: HYPERCALCEMIA, HYPOCALCEMIA. Sponsor should specify which scale and version is used in the Sponsor Comments column of the Define-XML document."^^xsd:string ;
	bd:typedAs <http://www.assero.co.uk/CSN#d2f2bbeb-8f79-4fb1-b190-dd864d29f080> ;
	bd:classifiedAs <http://www.assero.co.uk/CSN#86cd61e6-d48c-4e42-b994-bee35e2351fe> ;
.
<http://www.cdisc.org/SDTM_MODEL_EVENTS/V5#CL_--TOXGR>
	rdf:type bd:SdtmClassVariable ;
	isoC:label "Toxicity Grade"^^xsd:string ;
	bd:rule ""^^xsd:string ;
	bd:ordinal "102"^^xsd:positiveInteger ;
	bd:name "--TOXGR"^^xsd:string ;
	bd:prefixed "true"^^xsd:boolean ;
	bd:description "Records toxicity grade using a standard toxicity scale (such as the NCI CTCAE). Sponsor should specify which scale and version is used in the Sponsor Comments column of the Define-XML document."^^xsd:string ;
	bd:typedAs <http://www.assero.co.uk/CSN#d2f2bbeb-8f79-4fb1-b190-dd864d29f080> ;
	bd:classifiedAs <http://www.assero.co.uk/CSN#4bb7578c-6705-4d2e-93d6-b56960d9e21e> ;
.
<http://www.cdisc.org/SDTM_MODEL_EVENTS/V5#CL_--USCHFL>
	rdf:type bd:SdtmClassVariable ;
	isoC:label "Unscheduled Flag"^^xsd:string ;
	bd:rule ""^^xsd:string ;
	bd:ordinal "103"^^xsd:positiveInteger ;
	bd:name "--USCHFL"^^xsd:string ;
	bd:prefixed "true"^^xsd:boolean ;
	bd:description "Indicates whether the timing of a performed test or observation was unscheduled. If a test or observation was performed based upon a schedule defined in the protocol, this flag should be null. Expected values are Y or null. Not to be used with human clinical trials. This variable would not be needed when information on planned assessments is provided, such as when the Trial Visits (TV) and Subject Visits (SV) domains are used."^^xsd:string ;
	bd:typedAs <http://www.assero.co.uk/CSN#d2f2bbeb-8f79-4fb1-b190-dd864d29f080> ;
	bd:classifiedAs <http://www.assero.co.uk/CSN#4bb7578c-6705-4d2e-93d6-b56960d9e21e> ;
.
<http://www.cdisc.org/SDTM_MODEL_FINDINGS/V5#CL>
	rdf:type bd:SdtmClass ;
	isoC:label "SDTM MODEL FINDINGS"^^xsd:string ;
	isoT:hasState <http://www.cdisc.org/SDTM_MODEL_FINDINGS/V5#CL_RS> ;
	isoT:hasIdentifier <http://www.cdisc.org/SDTM_MODEL_FINDINGS/V5#CL_SI> ;
	isoT:hasPreviousVersion <http://www.cdisc.org/SDTM_MODEL_FINDINGS/V4#CL> ;
	isoT:origin ""^^xsd:string ;
	isoT:changeDescription ""^^xsd:string ;
	isoT:creationDate "2017-11-16T00:00:00+00:00"^^xsd:dateTime ;
	isoT:lastChangeDate "2017-11-16T00:00:00+00:00"^^xsd:dateTime ;
	isoT:explanatoryComment ""^^xsd:string ;
	bd:rule ""^^xsd:string ;
	bd:ordinal "1"^^xsd:positiveInteger ;
	bd:includesColumn <http://www.cdisc.org/SDTM_MODEL_ALL/V1#CL_STUDYID> ;
	bd:includesColumn <http://www.cdisc.org/SDTM_MODEL_ALL/V2#CL_DOMAIN> ;
	bd:includesColumn <http://www.cdisc.org/SDTM_MODEL_ALL/V1#CL_USUBJID> ;
	bd:includesColumn <http://www.cdisc.org/SDTM_MODEL_ALL/V5#CL_APID> ;
	bd:includesColumn <http://www.cdisc.org/SDTM_MODEL_ALL/V4#CL_POOLID> ;
	bd:includesColumn <http://www.cdisc.org/SDTM_MODEL_ALL/V4#CL_SPDEVID> ;
	bd:includesColumn <http://www.cdisc.org/SDTM_MODEL_ALL/V5#CL_NHOID> ;
	bd:includesColumn <http://www.cdisc.org/SDTM_MODEL_ALL/V5#CL_FETUSID> ;
	bd:includesColumn <http://www.cdisc.org/SDTM_MODEL_ALL/V5#CL_FOCID> ;
	bd:includesColumn <http://www.cdisc.org/SDTM_MODEL_ALL/V5#CL_--SEQ> ;
	bd:includesColumn <http://www.cdisc.org/SDTM_MODEL_ALL/V5#CL_--GRPID> ;
	bd:includesColumn <http://www.cdisc.org/SDTM_MODEL_ALL/V5#CL_--REFID> ;
	bd:includesColumn <http://www.cdisc.org/SDTM_MODEL_ALL/V5#CL_--RECID> ;
	bd:includesColumn <http://www.cdisc.org/SDTM_MODEL_ALL/V5#CL_--SPID> ;
	bd:includesColumn <http://www.cdisc.org/SDTM_MODEL_ALL/V5#CL_--LNKID> ;
	bd:includesColumn <http://www.cdisc.org/SDTM_MODEL_ALL/V5#CL_--LNKGRP> ;
	bd:includesColumn <http://www.cdisc.org/SDTM_MODEL_ALL/V5#CL_VISITNUM> ;
	bd:includesColumn <http://www.cdisc.org/SDTM_MODEL_ALL/V5#CL_VISIT> ;
	bd:includesColumn <http://www.cdisc.org/SDTM_MODEL_ALL/V5#CL_VISITDY> ;
	bd:includesColumn <http://www.cdisc.org/SDTM_MODEL_ALL/V5#CL_TAETORD> ;
	bd:includesColumn <http://www.cdisc.org/SDTM_MODEL_ALL/V5#CL_EPOCH> ;
	bd:includesColumn <http://www.cdisc.org/SDTM_MODEL_ALL/V5#CL_RPHASE> ;
	bd:includesColumn <http://www.cdisc.org/SDTM_MODEL_ALL/V5#CL_RPPLDY> ;
	bd:includesColumn <http://www.cdisc.org/SDTM_MODEL_ALL/V5#CL_RPPLSTDY> ;
	bd:includesColumn <http://www.cdisc.org/SDTM_MODEL_ALL/V5#CL_RPPLENDY> ;
	bd:includesColumn <http://www.cdisc.org/SDTM_MODEL_ALL/V5#CL_--DTC> ;
	bd:includesColumn <http://www.cdisc.org/SDTM_MODEL_ALL/V5#CL_--STDTC> ;
	bd:includesColumn <http://www.cdisc.org/SDTM_MODEL_ALL/V5#CL_--ENDTC> ;
	bd:includesColumn <http://www.cdisc.org/SDTM_MODEL_ALL/V5#CL_--DY> ;
	bd:includesColumn <http://www.cdisc.org/SDTM_MODEL_ALL/V5#CL_--STDY> ;
	bd:includesColumn <http://www.cdisc.org/SDTM_MODEL_ALL/V5#CL_--ENDY> ;
	bd:includesColumn <http://www.cdisc.org/SDTM_MODEL_ALL/V5#CL_--NOMDY> ;
	bd:includesColumn <http://www.cdisc.org/SDTM_MODEL_ALL/V5#CL_--NOMLBL> ;
	bd:includesColumn <http://www.cdisc.org/SDTM_MODEL_ALL/V5#CL_--RPDY> ;
	bd:includesColumn <http://www.cdisc.org/SDTM_MODEL_ALL/V5#CL_--RPSTDY> ;
	bd:includesColumn <http://www.cdisc.org/SDTM_MODEL_ALL/V5#CL_--RPENDY> ;
	bd:includesColumn <http://www.cdisc.org/SDTM_MODEL_ALL/V5#CL_--DUR> ;
	bd:includesColumn <http://www.cdisc.org/SDTM_MODEL_ALL/V5#CL_--TPT> ;
	bd:includesColumn <http://www.cdisc.org/SDTM_MODEL_ALL/V5#CL_--TPTNUM> ;
	bd:includesColumn <http://www.cdisc.org/SDTM_MODEL_ALL/V5#CL_--ELTM> ;
	bd:includesColumn <http://www.cdisc.org/SDTM_MODEL_ALL/V5#CL_--TPTREF> ;
	bd:includesColumn <http://www.cdisc.org/SDTM_MODEL_ALL/V5#CL_--RFTDTC> ;
	bd:includesColumn <http://www.cdisc.org/SDTM_MODEL_ALL/V5#CL_--STRF> ;
	bd:includesColumn <http://www.cdisc.org/SDTM_MODEL_ALL/V5#CL_--ENRF> ;
	bd:includesColumn <http://www.cdisc.org/SDTM_MODEL_ALL/V5#CL_--EVLINT> ;
	bd:includesColumn <http://www.cdisc.org/SDTM_MODEL_ALL/V5#CL_--EVINTX> ;
	bd:includesColumn <http://www.cdisc.org/SDTM_MODEL_ALL/V5#CL_--STRTPT> ;
	bd:includesColumn <http://www.cdisc.org/SDTM_MODEL_ALL/V5#CL_--STTPT> ;
	bd:includesColumn <http://www.cdisc.org/SDTM_MODEL_ALL/V5#CL_--ENRTPT> ;
	bd:includesColumn <http://www.cdisc.org/SDTM_MODEL_ALL/V5#CL_--ENTPT> ;
	bd:includesColumn <http://www.cdisc.org/SDTM_MODEL_ALL/V5#CL_MIDS> ;
	bd:includesColumn <http://www.cdisc.org/SDTM_MODEL_ALL/V5#CL_RELMIDS> ;
	bd:includesColumn <http://www.cdisc.org/SDTM_MODEL_ALL/V5#CL_MIDSDTC> ;
	bd:includesColumn <http://www.cdisc.org/SDTM_MODEL_ALL/V5#CL_--STINT> ;
	bd:includesColumn <http://www.cdisc.org/SDTM_MODEL_ALL/V5#CL_--ENINT> ;
	bd:includesColumn <http://www.cdisc.org/SDTM_MODEL_ALL/V5#CL_--DETECT> ;
	bd:includesColumn <http://www.cdisc.org/SDTM_MODEL_FINDINGS/V5#CL_--TESTCD> ;
	bd:includesColumn <http://www.cdisc.org/SDTM_MODEL_FINDINGS/V5#CL_--TEST> ;
	bd:includesColumn <http://www.cdisc.org/SDTM_MODEL_FINDINGS/V5#CL_--MODIFY> ;
	bd:includesColumn <http://www.cdisc.org/SDTM_MODEL_FINDINGS/V5#CL_--TSTDTL> ;
	bd:includesColumn <http://www.cdisc.org/SDTM_MODEL_FINDINGS/V5#CL_--CAT> ;
	bd:includesColumn <http://www.cdisc.org/SDTM_MODEL_FINDINGS/V5#CL_--SCAT> ;
	bd:includesColumn <http://www.cdisc.org/SDTM_MODEL_FINDINGS/V5#CL_--POS> ;
	bd:includesColumn <http://www.cdisc.org/SDTM_MODEL_FINDINGS/V5#CL_--BODSYS> ;
	bd:includesColumn <http://www.cdisc.org/SDTM_MODEL_FINDINGS/V5#CL_--ORRES> ;
	bd:includesColumn <http://www.cdisc.org/SDTM_MODEL_FINDINGS/V5#CL_--ORRESU> ;
	bd:includesColumn <http://www.cdisc.org/SDTM_MODEL_FINDINGS/V5#CL_--ORNRLO> ;
	bd:includesColumn <http://www.cdisc.org/SDTM_MODEL_FINDINGS/V5#CL_--ORNRHI> ;
	bd:includesColumn <http://www.cdisc.org/SDTM_MODEL_FINDINGS/V5#CL_--ORREF> ;
	bd:includesColumn <http://www.cdisc.org/SDTM_MODEL_FINDINGS/V5#CL_--STRESC> ;
	bd:includesColumn <http://www.cdisc.org/SDTM_MODEL_FINDINGS/V5#CL_--STRESN> ;
	bd:includesColumn <http://www.cdisc.org/SDTM_MODEL_FINDINGS/V5#CL_--STRESU> ;
	bd:includesColumn <http://www.cdisc.org/SDTM_MODEL_FINDINGS/V5#CL_--STNRLO> ;
	bd:includesColumn <http://www.cdisc.org/SDTM_MODEL_FINDINGS/V5#CL_--STNRHI> ;
	bd:includesColumn <http://www.cdisc.org/SDTM_MODEL_FINDINGS/V5#CL_--STNRC> ;
	bd:includesColumn <http://www.cdisc.org/SDTM_MODEL_FINDINGS/V5#CL_--STREFC> ;
	bd:includesColumn <http://www.cdisc.org/SDTM_MODEL_FINDINGS/V5#CL_--STREFN> ;
	bd:includesColumn <http://www.cdisc.org/SDTM_MODEL_FINDINGS/V5#CL_--NRIND> ;
	bd:includesColumn <http://www.cdisc.org/SDTM_MODEL_FINDINGS/V5#CL_--RESCAT> ;
	bd:includesColumn <http://www.cdisc.org/SDTM_MODEL_FINDINGS/V5#CL_--CHRON> ;
	bd:includesColumn <http://www.cdisc.org/SDTM_MODEL_FINDINGS/V5#CL_--DISTR> ;
	bd:includesColumn <http://www.cdisc.org/SDTM_MODEL_FINDINGS/V5#CL_--RESLOC> ;
	bd:includesColumn <http://www.cdisc.org/SDTM_MODEL_FINDINGS/V5#CL_--STAT> ;
	bd:includesColumn <http://www.cdisc.org/SDTM_MODEL_FINDINGS/V5#CL_--REASND> ;
	bd:includesColumn <http://www.cdisc.org/SDTM_MODEL_FINDINGS/V5#CL_--XFN> ;
	bd:includesColumn <http://www.cdisc.org/SDTM_MODEL_FINDINGS/V5#CL_--NAM> ;
	bd:includesColumn <http://www.cdisc.org/SDTM_MODEL_FINDINGS/V5#CL_--LOINC> ;
	bd:includesColumn <http://www.cdisc.org/SDTM_MODEL_FINDINGS/V5#CL_--SPEC> ;
	bd:includesColumn <http://www.cdisc.org/SDTM_MODEL_FINDINGS/V5#CL_--ANTREG> ;
	bd:includesColumn <http://www.cdisc.org/SDTM_MODEL_FINDINGS/V5#CL_--SPCCND> ;
	bd:includesColumn <http://www.cdisc.org/SDTM_MODEL_FINDINGS/V5#CL_--SPCUFL> ;
	bd:includesColumn <http://www.cdisc.org/SDTM_MODEL_FINDINGS/V5#CL_--LOC> ;
	bd:includesColumn <http://www.cdisc.org/SDTM_MODEL_FINDINGS/V5#CL_--LAT> ;
	bd:includesColumn <http://www.cdisc.org/SDTM_MODEL_FINDINGS/V5#CL_--DIR> ;
	bd:includesColumn <http://www.cdisc.org/SDTM_MODEL_FINDINGS/V5#CL_--PORTOT> ;
	bd:includesColumn <http://www.cdisc.org/SDTM_MODEL_FINDINGS/V5#CL_--METHOD> ;
	bd:includesColumn <http://www.cdisc.org/SDTM_MODEL_FINDINGS/V5#CL_--RUNID> ;
	bd:includesColumn <http://www.cdisc.org/SDTM_MODEL_FINDINGS/V5#CL_--ANMETH> ;
	bd:includesColumn <http://www.cdisc.org/SDTM_MODEL_FINDINGS/V5#CL_--LEAD> ;
	bd:includesColumn <http://www.cdisc.org/SDTM_MODEL_FINDINGS/V5#CL_--CSTATE> ;
	bd:includesColumn <http://www.cdisc.org/SDTM_MODEL_FINDINGS/V5#CL_--LOBXFL> ;
	bd:includesColumn <http://www.cdisc.org/SDTM_MODEL_FINDINGS/V5#CL_--BLFL> ;
	bd:includesColumn <http://www.cdisc.org/SDTM_MODEL_FINDINGS/V5#CL_--FAST> ;
	bd:includesColumn <http://www.cdisc.org/SDTM_MODEL_FINDINGS/V5#CL_--DRVFL> ;
	bd:includesColumn <http://www.cdisc.org/SDTM_MODEL_FINDINGS/V5#CL_--EVAL> ;
	bd:includesColumn <http://www.cdisc.org/SDTM_MODEL_FINDINGS/V5#CL_--EVALID> ;
	bd:includesColumn <http://www.cdisc.org/SDTM_MODEL_FINDINGS/V5#CL_--ACPTFL> ;
	bd:includesColumn <http://www.cdisc.org/SDTM_MODEL_FINDINGS/V5#CL_--TOX> ;
	bd:includesColumn <http://www.cdisc.org/SDTM_MODEL_FINDINGS/V5#CL_--TOXGR> ;
	bd:includesColumn <http://www.cdisc.org/SDTM_MODEL_FINDINGS/V5#CL_--SEV> ;
	bd:includesColumn <http://www.cdisc.org/SDTM_MODEL_FINDINGS/V5#CL_--DTHREL> ;
	bd:includesColumn <http://www.cdisc.org/SDTM_MODEL_FINDINGS/V5#CL_--LLOQ> ;
	bd:includesColumn <http://www.cdisc.org/SDTM_MODEL_FINDINGS/V5#CL_--ULOQ> ;
	bd:includesColumn <http://www.cdisc.org/SDTM_MODEL_FINDINGS/V5#CL_--EXCLFL> ;
	bd:includesColumn <http://www.cdisc.org/SDTM_MODEL_FINDINGS/V5#CL_--REASEX> ;
	bd:includesColumn <http://www.cdisc.org/SDTM_MODEL_FINDINGS/V5#CL_--USCHFL> ;
	bd:includesColumn <http://www.cdisc.org/SDTM_MODEL_FINDINGS/V5#CL_--REPNUM> ;
.
<http://www.cdisc.org/SDTM_MODEL_FINDINGS/V5#CL_RS>
	rdf:type isoR:RegistrationState ;
	isoR:registrationStatus "Standard"^^xsd:string ;
	isoR:administrativeNote ""^^xsd:string ;
	isoR:effectiveDate "2016-01-01T00:00:00+00:00"^^xsd:dateTime ;
	isoR:untilDate "2016-01-01T00:00:00+00:00"^^xsd:dateTime ;
	isoR:unresolvedIssue ""^^xsd:string ;
	isoR:administrativeStatus ""^^xsd:string ;
	isoR:previousState "Standard"^^xsd:string ;
	isoR:multipleEdit "false"^^xsd:boolean ;
	isoR:byAuthority <http://www.assero.co.uk/RA#DUNS084433759> ;
.
<http://www.cdisc.org/SDTM_MODEL_FINDINGS/V5#CL_SI>
	rdf:type isoI:ScopedIdentifier ;
	isoI:identifier "SDTM MODEL FINDINGS"^^xsd:string ;
	isoI:versionLabel "2017-11-16 Release"^^xsd:string ;
	isoI:version "5"^^xsd:positiveInteger ;
	isoI:semanticVersion "5.0.0"^^xsd:string ;
	isoI:hasScope <http://www.assero.co.uk/NS#CDISC> ;
.
<http://www.cdisc.org/SDTM_MODEL_FINDINGS/V5#CL_--TESTCD>
	rdf:type bd:SdtmClassVariable ;
	isoC:label "Short Name of Measurement, Test or Examination"^^xsd:string ;
	bd:rule ""^^xsd:string ;
	bd:ordinal "57"^^xsd:positiveInteger ;
	bd:name "--TESTCD"^^xsd:string ;
	bd:prefixed "true"^^xsd:boolean ;
	bd:description "Short character value for --TEST used as a column name when converting a dataset from a vertical format to a horizontal format. The short value can be up to 8 characters. Examples: PLAT, SYSBP, RRMIN, EYEEXAM."^^xsd:string ;
	bd:typedAs <http://www.assero.co.uk/CSN#d2f2bbeb-8f79-4fb1-b190-dd864d29f080> ;
	bd:classifiedAs <http://www.assero.co.uk/CSN#692cafbf-658a-43f0-97a2-f040ecb1a20d> ;
	bd:isA <http://www.s-cubed.dk/CAR#18a302ee283ea042f30ca2cb852a2846f97c9413> ;
.
<http://www.cdisc.org/SDTM_MODEL_FINDINGS/V5#CL_--TEST>
	rdf:type bd:SdtmClassVariable ;
	isoC:label "Name of Measurement, Test or Examination"^^xsd:string ;
	bd:rule ""^^xsd:string ;
	bd:ordinal "58"^^xsd:positiveInteger ;
	bd:name "--TEST"^^xsd:string ;
	bd:prefixed "true"^^xsd:boolean ;
	bd:description "Long name For --TESTCD. Examples: Platelet, Systolic Blood Pressure, Summary (Min) RR Duration, Eye Examination."^^xsd:string ;
	bd:typedAs <http://www.assero.co.uk/CSN#d2f2bbeb-8f79-4fb1-b190-dd864d29f080> ;
	bd:classifiedAs <http://www.assero.co.uk/CSN#86cd61e6-d48c-4e42-b994-bee35e2351fe> ;
.
<http://www.cdisc.org/SDTM_MODEL_FINDINGS/V5#CL_--MODIFY>
	rdf:type bd:SdtmClassVariable ;
	isoC:label "Modified Term"^^xsd:string ;
	bd:rule ""^^xsd:string ;
	bd:ordinal "59"^^xsd:positiveInteger ;
	bd:name "--MODIFY"^^xsd:string ;
	bd:prefixed "true"^^xsd:boolean ;
	bd:description "If the value of --ORRES is modified for coding purposes, then the modified text is placed here."^^xsd:string ;
	bd:typedAs <http://www.assero.co.uk/CSN#d2f2bbeb-8f79-4fb1-b190-dd864d29f080> ;
	bd:classifiedAs <http://www.assero.co.uk/CSN#86cd61e6-d48c-4e42-b994-bee35e2351fe> ;
.
<http://www.cdisc.org/SDTM_MODEL_FINDINGS/V5#CL_--TSTDTL>
	rdf:type bd:SdtmClassVariable ;
	isoC:label "Measurement, Test or Examination Detail"^^xsd:string ;
	bd:rule ""^^xsd:string ;
	bd:ordinal "60"^^xsd:positiveInteger ;
	bd:name "--TSTDTL"^^xsd:string ;
	bd:prefixed "true"^^xsd:boolean ;
	bd:description "Further description of --TESTCD and --TEST. Example: \"The percentage of cells with +1 intensity of staining\" when MITEST = Thyroid Transcription Factor 1."^^xsd:string ;
	bd:typedAs <http://www.assero.co.uk/CSN#d2f2bbeb-8f79-4fb1-b190-dd864d29f080> ;
	bd:classifiedAs <http://www.assero.co.uk/CSN#86cd61e6-d48c-4e42-b994-bee35e2351fe> ;
.
<http://www.cdisc.org/SDTM_MODEL_FINDINGS/V5#CL_--CAT>
	rdf:type bd:SdtmClassVariable ;
	isoC:label "Category"^^xsd:string ;
	bd:rule ""^^xsd:string ;
	bd:ordinal "61"^^xsd:positiveInteger ;
	bd:name "--CAT"^^xsd:string ;
	bd:prefixed "true"^^xsd:boolean ;
	bd:description "Used to define a category of topic-variable values. Examples: HEMATOLOGY, URINALYSIS, CHEMISTRY, HAMD 17, SF36 V2.0 ACUTE, EGFR MUTATION ANALYSIS."^^xsd:string ;
	bd:typedAs <http://www.assero.co.uk/CSN#d2f2bbeb-8f79-4fb1-b190-dd864d29f080> ;
	bd:classifiedAs <http://www.assero.co.uk/CSN#9fb29f8b-505a-4c4f-b550-175fbfec932d> ;
	bd:isA <http://www.s-cubed.dk/CAR#a3c686e711e4720f99b4562bb3dbaae7ab658cf2> ;
.
<http://www.cdisc.org/SDTM_MODEL_FINDINGS/V5#CL_--SCAT>
	rdf:type bd:SdtmClassVariable ;
	isoC:label "Subcategory"^^xsd:string ;
	bd:rule ""^^xsd:string ;
	bd:ordinal "62"^^xsd:positiveInteger ;
	bd:name "--SCAT"^^xsd:string ;
	bd:prefixed "true"^^xsd:boolean ;
	bd:description "Used to define a further categorization of --CAT values. Example: WBC DIFFERENTIAL."^^xsd:string ;
	bd:typedAs <http://www.assero.co.uk/CSN#d2f2bbeb-8f79-4fb1-b190-dd864d29f080> ;
	bd:classifiedAs <http://www.assero.co.uk/CSN#9fb29f8b-505a-4c4f-b550-175fbfec932d> ;
	bd:isA <http://www.s-cubed.dk/CAR#479a67983e739413da55faf0dc509f83fd5dea64> ;
.
<http://www.cdisc.org/SDTM_MODEL_FINDINGS/V5#CL_--POS>
	rdf:type bd:SdtmClassVariable ;
	isoC:label "Position of Subject During Observation"^^xsd:string ;
	bd:rule ""^^xsd:string ;
	bd:ordinal "63"^^xsd:positiveInteger ;
	bd:name "--POS"^^xsd:string ;
	bd:prefixed "true"^^xsd:boolean ;
	bd:description "Position of the subject during a measurement or examination. Examples: SUPINE, STANDING, SITTING."^^xsd:string ;
	bd:typedAs <http://www.assero.co.uk/CSN#d2f2bbeb-8f79-4fb1-b190-dd864d29f080> ;
	bd:classifiedAs <http://www.assero.co.uk/CSN#4bb7578c-6705-4d2e-93d6-b56960d9e21e> ;
	bd:isA <http://www.s-cubed.dk/CAR#cf1c85adba548e8d681255278976584a7e4a44de> ;
.
<http://www.cdisc.org/SDTM_MODEL_FINDINGS/V5#CL_--BODSYS>
	rdf:type bd:SdtmClassVariable ;
	isoC:label "Body System or Organ Class"^^xsd:string ;
	bd:rule ""^^xsd:string ;
	bd:ordinal "64"^^xsd:positiveInteger ;
	bd:name "--BODSYS"^^xsd:string ;
	bd:prefixed "true"^^xsd:boolean ;
	bd:description "Body System or Organ Class that is involved for a finding from the standard hierarchy for dictionary-coded results. Example: MedDRA SOC."^^xsd:string ;
	bd:typedAs <http://www.assero.co.uk/CSN#d2f2bbeb-8f79-4fb1-b190-dd864d29f080> ;
	bd:classifiedAs <http://www.assero.co.uk/CSN#4bb7578c-6705-4d2e-93d6-b56960d9e21e> ;
.
<http://www.cdisc.org/SDTM_MODEL_FINDINGS/V5#CL_--ORRES>
	rdf:type bd:SdtmClassVariable ;
	isoC:label "Result or Finding in Original Units"^^xsd:string ;
	bd:rule ""^^xsd:string ;
	bd:ordinal "65"^^xsd:positiveInteger ;
	bd:name "--ORRES"^^xsd:string ;
	bd:prefixed "true"^^xsd:boolean ;
	bd:description "Result of the measurement or finding as originally received or collected. Examples: 120, <1, POS."^^xsd:string ;
	bd:typedAs <http://www.assero.co.uk/CSN#d2f2bbeb-8f79-4fb1-b190-dd864d29f080> ;
	bd:classifiedAs <http://www.assero.co.uk/CSN#4e516e50-4563-4412-aa8d-6e7740d99444> ;
	bd:isA <http://www.s-cubed.dk/CAR#af5f0ce4847da645162514a984a7b88b67016e80> ;
.
<http://www.cdisc.org/SDTM_MODEL_FINDINGS/V5#CL_--ORRESU>
	rdf:type bd:SdtmClassVariable ;
	isoC:label "Original Units"^^xsd:string ;
	bd:rule ""^^xsd:string ;
	bd:ordinal "66"^^xsd:positiveInteger ;
	bd:name "--ORRESU"^^xsd:string ;
	bd:prefixed "true"^^xsd:boolean ;
	bd:description "Unit for --ORRES. Examples: in, LB, kg/L."^^xsd:string ;
	bd:typedAs <http://www.assero.co.uk/CSN#d2f2bbeb-8f79-4fb1-b190-dd864d29f080> ;
	bd:classifiedAs <http://www.assero.co.uk/CSN#86cd61e6-d48c-4e42-b994-bee35e2351fe> ;
	bd:isA <http://www.s-cubed.dk/CAR#af5f0ce4847da645162514a984a7b88b67016e80> ;
.
<http://www.cdisc.org/SDTM_MODEL_FINDINGS/V5#CL_--ORNRLO>
	rdf:type bd:SdtmClassVariable ;
	isoC:label "Normal Range Lower Limit-Original Units"^^xsd:string ;
	bd:rule ""^^xsd:string ;
	bd:ordinal "67"^^xsd:positiveInteger ;
	bd:name "--ORNRLO"^^xsd:string ;
	bd:prefixed "true"^^xsd:boolean ;
	bd:description "Lower end of normal range or reference range for results stored in --ORRES."^^xsd:string ;
	bd:typedAs <http://www.assero.co.uk/CSN#d2f2bbeb-8f79-4fb1-b190-dd864d29f080> ;
	bd:classifiedAs <http://www.assero.co.uk/CSN#86cd61e6-d48c-4e42-b994-bee35e2351fe> ;
.
<http://www.cdisc.org/SDTM_MODEL_FINDINGS/V5#CL_--ORNRHI>
	rdf:type bd:SdtmClassVariable ;
	isoC:label "Normal Range Upper Limit-Original Units"^^xsd:string ;
	bd:rule ""^^xsd:string ;
	bd:ordinal "68"^^xsd:positiveInteger ;
	bd:name "--ORNRHI"^^xsd:string ;
	bd:prefixed "true"^^xsd:boolean ;
	bd:description "Upper end of normal range or reference range for results stored in --ORRES."^^xsd:string ;
	bd:typedAs <http://www.assero.co.uk/CSN#d2f2bbeb-8f79-4fb1-b190-dd864d29f080> ;
	bd:classifiedAs <http://www.assero.co.uk/CSN#86cd61e6-d48c-4e42-b994-bee35e2351fe> ;
.
<http://www.cdisc.org/SDTM_MODEL_FINDINGS/V5#CL_--ORREF>
	rdf:type bd:SdtmClassVariable ;
	isoC:label "Reference Result in Original Units"^^xsd:string ;
	bd:rule ""^^xsd:string ;
	bd:ordinal "69"^^xsd:positiveInteger ;
	bd:name "--ORREF"^^xsd:string ;
	bd:prefixed "true"^^xsd:boolean ;
	bd:description "Reference value for the result or finding as originally received or collected. --ORREF uses the same units as --ORRES, if applicable. Examples: value from predicted normal value in spirometry tests."^^xsd:string ;
	bd:typedAs <http://www.assero.co.uk/CSN#d2f2bbeb-8f79-4fb1-b190-dd864d29f080> ;
	bd:classifiedAs <http://www.assero.co.uk/CSN#86cd61e6-d48c-4e42-b994-bee35e2351fe> ;
.
<http://www.cdisc.org/SDTM_MODEL_FINDINGS/V5#CL_--STRESC>
	rdf:type bd:SdtmClassVariable ;
	isoC:label "Result or Finding in Standard Format"^^xsd:string ;
	bd:rule ""^^xsd:string ;
	bd:ordinal "70"^^xsd:positiveInteger ;
	bd:name "--STRESC"^^xsd:string ;
	bd:prefixed "true"^^xsd:boolean ;
	bd:description "Contains the result value for all findings, copied or derived from --ORRES in a standard format or in standard units. --STRESC should store all results or findings in character format; if results are numeric, they should also be stored in numeric format in --STRESN. For example, if various tests have results \"NONE\", \"NEG\", and \"NEGATIVE\" in --ORRES and these results effectively have the same meaning, they could be represented in standard format in --STRESC as \"NEGATIVE\"."^^xsd:string ;
	bd:typedAs <http://www.assero.co.uk/CSN#d2f2bbeb-8f79-4fb1-b190-dd864d29f080> ;
	bd:classifiedAs <http://www.assero.co.uk/CSN#4e516e50-4563-4412-aa8d-6e7740d99444> ;
.
<http://www.cdisc.org/SDTM_MODEL_FINDINGS/V5#CL_--STRESN>
	rdf:type bd:SdtmClassVariable ;
	isoC:label "Numeric Result/Finding in Standard Units"^^xsd:string ;
	bd:rule ""^^xsd:string ;
	bd:ordinal "71"^^xsd:positiveInteger ;
	bd:name "--STRESN"^^xsd:string ;
	bd:prefixed "true"^^xsd:boolean ;
	bd:description "Used for continuous or numeric results or findings in standard format; copied in numeric format from --STRESC. --STRESN should store all numeric test results or findings."^^xsd:string ;
	bd:typedAs <http://www.assero.co.uk/CSN#178f8dbe-c3ba-4dc0-8a2a-18081644b4c6> ;
	bd:classifiedAs <http://www.assero.co.uk/CSN#4e516e50-4563-4412-aa8d-6e7740d99444> ;
.
<http://www.cdisc.org/SDTM_MODEL_FINDINGS/V5#CL_--STRESU>
	rdf:type bd:SdtmClassVariable ;
	isoC:label "Standard Units"^^xsd:string ;
	bd:rule ""^^xsd:string ;
	bd:ordinal "72"^^xsd:positiveInteger ;
	bd:name "--STRESU"^^xsd:string ;
	bd:prefixed "true"^^xsd:boolean ;
	bd:description "Standardized units used for --STRESC and --STRESN. Example: mol/L."^^xsd:string ;
	bd:typedAs <http://www.assero.co.uk/CSN#d2f2bbeb-8f79-4fb1-b190-dd864d29f080> ;
	bd:classifiedAs <http://www.assero.co.uk/CSN#86cd61e6-d48c-4e42-b994-bee35e2351fe> ;
.
<http://www.cdisc.org/SDTM_MODEL_FINDINGS/V5#CL_--STNRLO>
	rdf:type bd:SdtmClassVariable ;
	isoC:label "Normal Range Lower Limit-Standard Units"^^xsd:string ;
	bd:rule ""^^xsd:string ;
	bd:ordinal "73"^^xsd:positiveInteger ;
	bd:name "--STNRLO"^^xsd:string ;
	bd:prefixed "true"^^xsd:boolean ;
	bd:description "Lower end of normal range or reference range for standardized results (e.g., --STRESC, --STRESN) represented in standardized units (--STRESU)."^^xsd:string ;
	bd:typedAs <http://www.assero.co.uk/CSN#178f8dbe-c3ba-4dc0-8a2a-18081644b4c6> ;
	bd:classifiedAs <http://www.assero.co.uk/CSN#86cd61e6-d48c-4e42-b994-bee35e2351fe> ;
.
<http://www.cdisc.org/SDTM_MODEL_FINDINGS/V5#CL_--STNRHI>
	rdf:type bd:SdtmClassVariable ;
	isoC:label "Normal Range Upper Limit-Standard Units"^^xsd:string ;
	bd:rule ""^^xsd:string ;
	bd:ordinal "74"^^xsd:positiveInteger ;
	bd:name "--STNRHI"^^xsd:string ;
	bd:prefixed "true"^^xsd:boolean ;
	bd:description "Upper end of normal range or reference range for standardized results (e.g., --STRESC, --STRESN) represented in standardized units (--STRESU)."^^xsd:string ;
	bd:typedAs <http://www.assero.co.uk/CSN#178f8dbe-c3ba-4dc0-8a2a-18081644b4c6> ;
	bd:classifiedAs <http://www.assero.co.uk/CSN#86cd61e6-d48c-4e42-b994-bee35e2351fe> ;
.
<http://www.cdisc.org/SDTM_MODEL_FINDINGS/V5#CL_--STNRC>
	rdf:type bd:SdtmClassVariable ;
	isoC:label "Normal Range for Character Results"^^xsd:string ;
	bd:rule ""^^xsd:string ;
	bd:ordinal "75"^^xsd:positiveInteger ;
	bd:name "--STNRC"^^xsd:string ;
	bd:prefixed "true"^^xsd:boolean ;
	bd:description "Normal range or reference range for results stored in --STRESC that are character in ordinal or categorical scale. Example: Negative to Trace."^^xsd:string ;
	bd:typedAs <http://www.assero.co.uk/CSN#d2f2bbeb-8f79-4fb1-b190-dd864d29f080> ;
	bd:classifiedAs <http://www.assero.co.uk/CSN#86cd61e6-d48c-4e42-b994-bee35e2351fe> ;
.
<http://www.cdisc.org/SDTM_MODEL_FINDINGS/V5#CL_--STREFC>
	rdf:type bd:SdtmClassVariable ;
	isoC:label "Reference Result in Standard Format"^^xsd:string ;
	bd:rule ""^^xsd:string ;
	bd:ordinal "76"^^xsd:positiveInteger ;
	bd:name "--STREFC"^^xsd:string ;
	bd:prefixed "true"^^xsd:boolean ;
	bd:description "Reference value for the result or finding copied or derived from --ORREF in a standard format."^^xsd:string ;
	bd:typedAs <http://www.assero.co.uk/CSN#d2f2bbeb-8f79-4fb1-b190-dd864d29f080> ;
	bd:classifiedAs <http://www.assero.co.uk/CSN#86cd61e6-d48c-4e42-b994-bee35e2351fe> ;
.
<http://www.cdisc.org/SDTM_MODEL_FINDINGS/V5#CL_--STREFN>
	rdf:type bd:SdtmClassVariable ;
	isoC:label "Numeric Reference Result in Std Units"^^xsd:string ;
	bd:rule ""^^xsd:string ;
	bd:ordinal "77"^^xsd:positiveInteger ;
	bd:name "--STREFN"^^xsd:string ;
	bd:prefixed "true"^^xsd:boolean ;
	bd:description "Reference value for continuous or numeric results or findings in standard format or in standard units. --STREFN uses the same units as --STRESN, if applicable."^^xsd:string ;
	bd:typedAs <http://www.assero.co.uk/CSN#178f8dbe-c3ba-4dc0-8a2a-18081644b4c6> ;
	bd:classifiedAs <http://www.assero.co.uk/CSN#86cd61e6-d48c-4e42-b994-bee35e2351fe> ;
.
<http://www.cdisc.org/SDTM_MODEL_FINDINGS/V5#CL_--NRIND>
	rdf:type bd:SdtmClassVariable ;
	isoC:label "Normal/Reference Range Indicator"^^xsd:string ;
	bd:rule ""^^xsd:string ;
	bd:ordinal "78"^^xsd:positiveInteger ;
	bd:name "--NRIND"^^xsd:string ;
	bd:prefixed "true"^^xsd:boolean ;
	bd:description "Used to indicate the value is outside the normal range or reference range. May be defined by --ORNRLO and --ORNRHI or other objective criteria. Examples: Y, N; HIGH, LOW; NORMAL; ABNORMAL."^^xsd:string ;
	bd:typedAs <http://www.assero.co.uk/CSN#d2f2bbeb-8f79-4fb1-b190-dd864d29f080> ;
	bd:classifiedAs <http://www.assero.co.uk/CSN#86cd61e6-d48c-4e42-b994-bee35e2351fe> ;
.
<http://www.cdisc.org/SDTM_MODEL_FINDINGS/V5#CL_--RESCAT>
	rdf:type bd:SdtmClassVariable ;
	isoC:label "Result Category"^^xsd:string ;
	bd:rule ""^^xsd:string ;
	bd:ordinal "79"^^xsd:positiveInteger ;
	bd:name "--RESCAT"^^xsd:string ;
	bd:prefixed "true"^^xsd:boolean ;
	bd:description "Used to categorize the result of a finding. Example: MALIGNANT or BENIGN for tumor findings. RESISTANCE VARIANT for genetic variation."^^xsd:string ;
	bd:typedAs <http://www.assero.co.uk/CSN#d2f2bbeb-8f79-4fb1-b190-dd864d29f080> ;
	bd:classifiedAs <http://www.assero.co.uk/CSN#86cd61e6-d48c-4e42-b994-bee35e2351fe> ;
.
<http://www.cdisc.org/SDTM_MODEL_FINDINGS/V5#CL_--CHRON>
	rdf:type bd:SdtmClassVariable ;
	isoC:label "Chronicity of Finding"^^xsd:string ;
	bd:rule ""^^xsd:string ;
	bd:ordinal "80"^^xsd:positiveInteger ;
	bd:name "--CHRON"^^xsd:string ;
	bd:prefixed "true"^^xsd:boolean ;
	bd:description "Characterization of the duration of a biological process resulting in a particular finding. Examples: ACUTE, CHRONIC, SUBACUTE."^^xsd:string ;
	bd:typedAs <http://www.assero.co.uk/CSN#d2f2bbeb-8f79-4fb1-b190-dd864d29f080> ;
	bd:classifiedAs <http://www.assero.co.uk/CSN#86cd61e6-d48c-4e42-b994-bee35e2351fe> ;
.
<http://www.cdisc.org/SDTM_MODEL_FINDINGS/V5#CL_--DISTR>
	rdf:type bd:SdtmClassVariable ;
	isoC:label "Distribution Pattern of Finding"^^xsd:string ;
	bd:rule ""^^xsd:string ;
	bd:ordinal "81"^^xsd:positiveInteger ;
	bd:name "--DISTR"^^xsd:string ;
	bd:prefixed "true"^^xsd:boolean ;
	bd:description "Description of the distribution pattern of a finding within the examined area. Examples: FOCAL, MULTIFOCAL, DIFFUSE, FOCAL MULTIFOCAL."^^xsd:string ;
	bd:typedAs <http://www.assero.co.uk/CSN#d2f2bbeb-8f79-4fb1-b190-dd864d29f080> ;
	bd:classifiedAs <http://www.assero.co.uk/CSN#86cd61e6-d48c-4e42-b994-bee35e2351fe> ;
.
<http://www.cdisc.org/SDTM_MODEL_FINDINGS/V5#CL_--RESLOC>
	rdf:type bd:SdtmClassVariable ;
	isoC:label "Result Location of Finding"^^xsd:string ;
	bd:rule ""^^xsd:string ;
	bd:ordinal "82"^^xsd:positiveInteger ;
	bd:name "--RESLOC"^^xsd:string ;
	bd:prefixed "true"^^xsd:boolean ;
	bd:description "Location where the result was observed (as opposed to the location specified for examination). This location may have a higher degree of specificity than the location specified for examination. Not to be used with human clinical trials."^^xsd:string ;
	bd:typedAs <http://www.assero.co.uk/CSN#d2f2bbeb-8f79-4fb1-b190-dd864d29f080> ;
	bd:classifiedAs <http://www.assero.co.uk/CSN#4e516e50-4563-4412-aa8d-6e7740d99444> ;
.
<http://www.cdisc.org/SDTM_MODEL_FINDINGS/V5#CL_--STAT>
	rdf:type bd:SdtmClassVariable ;
	isoC:label "Completion Status"^^xsd:string ;
	bd:rule ""^^xsd:string ;
	bd:ordinal "83"^^xsd:positiveInteger ;
	bd:name "--STAT"^^xsd:string ;
	bd:prefixed "true"^^xsd:boolean ;
	bd:description "Used to indicate that a question was not asked or a test was not done, or a test was attempted but did not generate a result. Should be null or have a value of NOT DONE."^^xsd:string ;
	bd:typedAs <http://www.assero.co.uk/CSN#d2f2bbeb-8f79-4fb1-b190-dd864d29f080> ;
	bd:classifiedAs <http://www.assero.co.uk/CSN#4bb7578c-6705-4d2e-93d6-b56960d9e21e> ;
	bd:isA <http://www.s-cubed.dk/CAR#bae7d5be70820ed56467bd9a63744e23b47bd711> ;
.
<http://www.cdisc.org/SDTM_MODEL_FINDINGS/V5#CL_--REASND>
	rdf:type bd:SdtmClassVariable ;
	isoC:label "Reason Not Done"^^xsd:string ;
	bd:rule ""^^xsd:string ;
	bd:ordinal "84"^^xsd:positiveInteger ;
	bd:name "--REASND"^^xsd:string ;
	bd:prefixed "true"^^xsd:boolean ;
	bd:description "Reason not done. Used in conjunction with --STAT when value is NOT DONE."^^xsd:string ;
	bd:typedAs <http://www.assero.co.uk/CSN#d2f2bbeb-8f79-4fb1-b190-dd864d29f080> ;
	bd:classifiedAs <http://www.assero.co.uk/CSN#4bb7578c-6705-4d2e-93d6-b56960d9e21e> ;
.
<http://www.cdisc.org/SDTM_MODEL_FINDINGS/V5#CL_--XFN>
	rdf:type bd:SdtmClassVariable ;
	isoC:label "External File Path"^^xsd:string ;
	bd:rule ""^^xsd:string ;
	bd:ordinal "85"^^xsd:positiveInteger ;
	bd:name "--XFN"^^xsd:string ;
	bd:prefixed "true"^^xsd:boolean ;
	bd:description "Filename for an external file, such as one for an ECG waveform or a medical image."^^xsd:string ;
	bd:typedAs <http://www.assero.co.uk/CSN#d2f2bbeb-8f79-4fb1-b190-dd864d29f080> ;
	bd:classifiedAs <http://www.assero.co.uk/CSN#4bb7578c-6705-4d2e-93d6-b56960d9e21e> ;
.
<http://www.cdisc.org/SDTM_MODEL_FINDINGS/V5#CL_--NAM>
	rdf:type bd:SdtmClassVariable ;
	isoC:label "Laboratory/Vendor Name"^^xsd:string ;
	bd:rule ""^^xsd:string ;
	bd:ordinal "86"^^xsd:positiveInteger ;
	bd:name "--NAM"^^xsd:string ;
	bd:prefixed "true"^^xsd:boolean ;
	bd:description "Name or identifier of the vendor (e.g., laboratory) that provided the test results."^^xsd:string ;
	bd:typedAs <http://www.assero.co.uk/CSN#d2f2bbeb-8f79-4fb1-b190-dd864d29f080> ;
	bd:classifiedAs <http://www.assero.co.uk/CSN#4bb7578c-6705-4d2e-93d6-b56960d9e21e> ;
.
<http://www.cdisc.org/SDTM_MODEL_FINDINGS/V5#CL_--LOINC>
	rdf:type bd:SdtmClassVariable ;
	isoC:label "LOINC Code"^^xsd:string ;
	bd:rule ""^^xsd:string ;
	bd:ordinal "87"^^xsd:positiveInteger ;
	bd:name "--LOINC"^^xsd:string ;
	bd:prefixed "true"^^xsd:boolean ;
	bd:description "Logical Observation Identifiers Names and Codes (LOINC) code for the topic variable such as a lab test."^^xsd:string ;
	bd:typedAs <http://www.assero.co.uk/CSN#d2f2bbeb-8f79-4fb1-b190-dd864d29f080> ;
	bd:classifiedAs <http://www.assero.co.uk/CSN#86cd61e6-d48c-4e42-b994-bee35e2351fe> ;
.
<http://www.cdisc.org/SDTM_MODEL_FINDINGS/V5#CL_--SPEC>
	rdf:type bd:SdtmClassVariable ;
	isoC:label "Specimen Material Type"^^xsd:string ;
	bd:rule ""^^xsd:string ;
	bd:ordinal "88"^^xsd:positiveInteger ;
	bd:name "--SPEC"^^xsd:string ;
	bd:prefixed "true"^^xsd:boolean ;
	bd:description "Defines the type of specimen used for a measurement. Examples: SERUM, PLASMA, URINE, DNA, RNA."^^xsd:string ;
	bd:typedAs <http://www.assero.co.uk/CSN#d2f2bbeb-8f79-4fb1-b190-dd864d29f080> ;
	bd:classifiedAs <http://www.assero.co.uk/CSN#4bb7578c-6705-4d2e-93d6-b56960d9e21e> ;
	bd:isA <http://www.s-cubed.dk/CAR#465e8e7b0c616acafe9d6226a6ba40b31f849e8e> ;
.
<http://www.cdisc.org/SDTM_MODEL_FINDINGS/V5#CL_--ANTREG>
	rdf:type bd:SdtmClassVariable ;
	isoC:label "Anatomical Region"^^xsd:string ;
	bd:rule ""^^xsd:string ;
	bd:ordinal "89"^^xsd:positiveInteger ;
	bd:name "--ANTREG"^^xsd:string ;
	bd:prefixed "true"^^xsd:boolean ;
	bd:description "Defines the specific anatomical or biological region of a tissue, organ specimen or the region from which the specimen is obtained, as defined in the protocol, such as a section or part of what is described in the --SPEC variable. Examples: CORTEX, MEDULLA, MUCOSA."^^xsd:string ;
	bd:typedAs <http://www.assero.co.uk/CSN#d2f2bbeb-8f79-4fb1-b190-dd864d29f080> ;
	bd:classifiedAs <http://www.assero.co.uk/CSN#86cd61e6-d48c-4e42-b994-bee35e2351fe> ;
.
<http://www.cdisc.org/SDTM_MODEL_FINDINGS/V5#CL_--SPCCND>
	rdf:type bd:SdtmClassVariable ;
	isoC:label "Specimen Condition"^^xsd:string ;
	bd:rule ""^^xsd:string ;
	bd:ordinal "90"^^xsd:positiveInteger ;
	bd:name "--SPCCND"^^xsd:string ;
	bd:prefixed "true"^^xsd:boolean ;
	bd:description "Defines the condition of the specimen. Example: CLOUDY."^^xsd:string ;
	bd:typedAs <http://www.assero.co.uk/CSN#d2f2bbeb-8f79-4fb1-b190-dd864d29f080> ;
	bd:classifiedAs <http://www.assero.co.uk/CSN#4bb7578c-6705-4d2e-93d6-b56960d9e21e> ;
.
<http://www.cdisc.org/SDTM_MODEL_FINDINGS/V5#CL_--SPCUFL>
	rdf:type bd:SdtmClassVariable ;
	isoC:label "Specimen Usability for the Test"^^xsd:string ;
	bd:rule ""^^xsd:string ;
	bd:ordinal "91"^^xsd:positiveInteger ;
	bd:name "--SPCUFL"^^xsd:string ;
	bd:prefixed "true"^^xsd:boolean ;
	bd:description "Describes the usability of the specimen for the test. The value will be N if the specimen is not usable, and null if the specimen is usable."^^xsd:string ;
	bd:typedAs <http://www.assero.co.uk/CSN#d2f2bbeb-8f79-4fb1-b190-dd864d29f080> ;
	bd:classifiedAs <http://www.assero.co.uk/CSN#4bb7578c-6705-4d2e-93d6-b56960d9e21e> ;
.
<http://www.cdisc.org/SDTM_MODEL_FINDINGS/V5#CL_--LOC>
	rdf:type bd:SdtmClassVariable ;
	isoC:label "Location Used for the Measurement"^^xsd:string ;
	bd:rule ""^^xsd:string ;
	bd:ordinal "92"^^xsd:positiveInteger ;
	bd:name "--LOC"^^xsd:string ;
	bd:prefixed "true"^^xsd:boolean ;
	bd:description "Anatomical location of the subject relevant to the collection of the measurement. Examples: RECTAL for temperature, ARM for blood pressure."^^xsd:string ;
	bd:typedAs <http://www.assero.co.uk/CSN#d2f2bbeb-8f79-4fb1-b190-dd864d29f080> ;
	bd:classifiedAs <http://www.assero.co.uk/CSN#4bb7578c-6705-4d2e-93d6-b56960d9e21e> ;
	bd:isA <http://www.s-cubed.dk/CAR#d219c68101f532de10add2cf42fb9dbeca73d3be> ;
.
<http://www.cdisc.org/SDTM_MODEL_FINDINGS/V5#CL_--LAT>
	rdf:type bd:SdtmClassVariable ;
	isoC:label "Laterality"^^xsd:string ;
	bd:rule ""^^xsd:string ;
	bd:ordinal "93"^^xsd:positiveInteger ;
	bd:name "--LAT"^^xsd:string ;
	bd:prefixed "true"^^xsd:boolean ;
	bd:description "Qualifier for anatomical location or specimen further detailing laterality. Examples: RIGHT, LEFT, BILATERAL."^^xsd:string ;
	bd:typedAs <http://www.assero.co.uk/CSN#d2f2bbeb-8f79-4fb1-b190-dd864d29f080> ;
	bd:classifiedAs <http://www.assero.co.uk/CSN#86cd61e6-d48c-4e42-b994-bee35e2351fe> ;
	bd:isA <http://www.s-cubed.dk/CAR#ef3aa1b3b12817712a7c3e62022cbe06bd6c3f08> ;
.
<http://www.cdisc.org/SDTM_MODEL_FINDINGS/V5#CL_--DIR>
	rdf:type bd:SdtmClassVariable ;
	isoC:label "Directionality"^^xsd:string ;
	bd:rule ""^^xsd:string ;
	bd:ordinal "94"^^xsd:positiveInteger ;
	bd:name "--DIR"^^xsd:string ;
	bd:prefixed "true"^^xsd:boolean ;
	bd:description "Qualifier for anatomical location or specimen further detailing directionality. Examples: ANTERIOR, LOWER, PROXIMAL."^^xsd:string ;
	bd:typedAs <http://www.assero.co.uk/CSN#d2f2bbeb-8f79-4fb1-b190-dd864d29f080> ;
	bd:classifiedAs <http://www.assero.co.uk/CSN#86cd61e6-d48c-4e42-b994-bee35e2351fe> ;
	bd:isA <http://www.s-cubed.dk/CAR#b8480e9c78891769429c713a44f238f2ca3c3abb> ;
.
<http://www.cdisc.org/SDTM_MODEL_FINDINGS/V5#CL_--PORTOT>
	rdf:type bd:SdtmClassVariable ;
	isoC:label "Portion or Totality"^^xsd:string ;
	bd:rule ""^^xsd:string ;
	bd:ordinal "95"^^xsd:positiveInteger ;
	bd:name "--PORTOT"^^xsd:string ;
	bd:prefixed "true"^^xsd:boolean ;
	bd:description "Qualifier for anatomical location or specimen further detailing the distribution, which means arrangement of, apportioning of. Examples: ENTIRE, SINGLE, SEGMENT, MANY."^^xsd:string ;
	bd:typedAs <http://www.assero.co.uk/CSN#d2f2bbeb-8f79-4fb1-b190-dd864d29f080> ;
	bd:classifiedAs <http://www.assero.co.uk/CSN#86cd61e6-d48c-4e42-b994-bee35e2351fe> ;
.
<http://www.cdisc.org/SDTM_MODEL_FINDINGS/V5#CL_--METHOD>
	rdf:type bd:SdtmClassVariable ;
	isoC:label "Method of Test or Examination"^^xsd:string ;
	bd:rule ""^^xsd:string ;
	bd:ordinal "96"^^xsd:positiveInteger ;
	bd:name "--METHOD"^^xsd:string ;
	bd:prefixed "true"^^xsd:boolean ;
	bd:description "Method of the test or examination. Examples: EIA (Enzyme Immunoassay), ELECTROPHORESIS, DIPSTICK."^^xsd:string ;
	bd:typedAs <http://www.assero.co.uk/CSN#d2f2bbeb-8f79-4fb1-b190-dd864d29f080> ;
	bd:classifiedAs <http://www.assero.co.uk/CSN#4bb7578c-6705-4d2e-93d6-b56960d9e21e> ;
	bd:isA <http://www.s-cubed.dk/CAR#88306943fea7e76f9cd57cae0ea6d8b32d2e8434> ;
.
<http://www.cdisc.org/SDTM_MODEL_FINDINGS/V5#CL_--RUNID>
	rdf:type bd:SdtmClassVariable ;
	isoC:label "Run ID"^^xsd:string ;
	bd:rule ""^^xsd:string ;
	bd:ordinal "97"^^xsd:positiveInteger ;
	bd:name "--RUNID"^^xsd:string ;
	bd:prefixed "true"^^xsd:boolean ;
	bd:description "A unique identifier for a particular run of a test on a particular batch of samples."^^xsd:string ;
	bd:typedAs <http://www.assero.co.uk/CSN#d2f2bbeb-8f79-4fb1-b190-dd864d29f080> ;
	bd:classifiedAs <http://www.assero.co.uk/CSN#4bb7578c-6705-4d2e-93d6-b56960d9e21e> ;
.
<http://www.cdisc.org/SDTM_MODEL_FINDINGS/V5#CL_--ANMETH>
	rdf:type bd:SdtmClassVariable ;
	isoC:label "Analysis Method"^^xsd:string ;
	bd:rule ""^^xsd:string ;
	bd:ordinal "98"^^xsd:positiveInteger ;
	bd:name "--ANMETH"^^xsd:string ;
	bd:prefixed "true"^^xsd:boolean ;
	bd:description "Analysis method applied to obtain a summarized result. Analysis method describes the method of secondary processing applied to a complex observation result (e.g. an image or a genetic sequence)."^^xsd:string ;
	bd:typedAs <http://www.assero.co.uk/CSN#d2f2bbeb-8f79-4fb1-b190-dd864d29f080> ;
	bd:classifiedAs <http://www.assero.co.uk/CSN#4bb7578c-6705-4d2e-93d6-b56960d9e21e> ;
.
<http://www.cdisc.org/SDTM_MODEL_FINDINGS/V5#CL_--LEAD>
	rdf:type bd:SdtmClassVariable ;
	isoC:label "Lead Identified to Collect Measurements"^^xsd:string ;
	bd:rule ""^^xsd:string ;
	bd:ordinal "99"^^xsd:positiveInteger ;
	bd:name "--LEAD"^^xsd:string ;
	bd:prefixed "true"^^xsd:boolean ;
	bd:description "Lead or leads identified to capture the measurement for a test from an instrument. Examples: LEAD I, LEAD V2, LEAD CM5."^^xsd:string ;
	bd:typedAs <http://www.assero.co.uk/CSN#d2f2bbeb-8f79-4fb1-b190-dd864d29f080> ;
	bd:classifiedAs <http://www.assero.co.uk/CSN#4bb7578c-6705-4d2e-93d6-b56960d9e21e> ;
.
<http://www.cdisc.org/SDTM_MODEL_FINDINGS/V5#CL_--CSTATE>
	rdf:type bd:SdtmClassVariable ;
	isoC:label "Consciousness State"^^xsd:string ;
	bd:rule ""^^xsd:string ;
	bd:ordinal "100"^^xsd:positiveInteger ;
	bd:name "--CSTATE"^^xsd:string ;
	bd:prefixed "true"^^xsd:boolean ;
	bd:description "The consciousness state of the subject at the time of measurement. Examples: CONSCIOUS, SEMI-CONSCIOUS, UNCONSCIOUS."^^xsd:string ;
	bd:typedAs <http://www.assero.co.uk/CSN#d2f2bbeb-8f79-4fb1-b190-dd864d29f080> ;
	bd:classifiedAs <http://www.assero.co.uk/CSN#4bb7578c-6705-4d2e-93d6-b56960d9e21e> ;
.
<http://www.cdisc.org/SDTM_MODEL_FINDINGS/V5#CL_--LOBXFL>
	rdf:type bd:SdtmClassVariable ;
	isoC:label "Last Observation Before Exposure Flag"^^xsd:string ;
	bd:rule ""^^xsd:string ;
	bd:ordinal "101"^^xsd:positiveInteger ;
	bd:name "--LOBXFL"^^xsd:string ;
	bd:prefixed "true"^^xsd:boolean ;
	bd:description "Operationally-derived indicator used to identify the last non-missing value prior to RFXSTDTC. Should be Y or null."^^xsd:string ;
	bd:typedAs <http://www.assero.co.uk/CSN#d2f2bbeb-8f79-4fb1-b190-dd864d29f080> ;
	bd:classifiedAs <http://www.assero.co.uk/CSN#4bb7578c-6705-4d2e-93d6-b56960d9e21e> ;
.
<http://www.cdisc.org/SDTM_MODEL_FINDINGS/V5#CL_--BLFL>
	rdf:type bd:SdtmClassVariable ;
	isoC:label "Baseline Flag"^^xsd:string ;
	bd:rule ""^^xsd:string ;
	bd:ordinal "102"^^xsd:positiveInteger ;
	bd:name "--BLFL"^^xsd:string ;
	bd:prefixed "true"^^xsd:boolean ;
	bd:description "Indicator used to identify a baseline value. Should be Y or null."^^xsd:string ;
	bd:typedAs <http://www.assero.co.uk/CSN#d2f2bbeb-8f79-4fb1-b190-dd864d29f080> ;
	bd:classifiedAs <http://www.assero.co.uk/CSN#4bb7578c-6705-4d2e-93d6-b56960d9e21e> ;
.
<http://www.cdisc.org/SDTM_MODEL_FINDINGS/V5#CL_--FAST>
	rdf:type bd:SdtmClassVariable ;
	isoC:label "Fasting Status"^^xsd:string ;
	bd:rule ""^^xsd:string ;
	bd:ordinal "103"^^xsd:positiveInteger ;
	bd:name "--FAST"^^xsd:string ;
	bd:prefixed "true"^^xsd:boolean ;
	bd:description "Indicator used to identify fasting status. Valid values include Y, N, U, or null if not relevant."^^xsd:string ;
	bd:typedAs <http://www.assero.co.uk/CSN#d2f2bbeb-8f79-4fb1-b190-dd864d29f080> ;
	bd:classifiedAs <http://www.assero.co.uk/CSN#4bb7578c-6705-4d2e-93d6-b56960d9e21e> ;
.
<http://www.cdisc.org/SDTM_MODEL_FINDINGS/V5#CL_--DRVFL>
	rdf:type bd:SdtmClassVariable ;
	isoC:label "Derived Flag"^^xsd:string ;
	bd:rule ""^^xsd:string ;
	bd:ordinal "104"^^xsd:positiveInteger ;
	bd:name "--DRVFL"^^xsd:string ;
	bd:prefixed "true"^^xsd:boolean ;
	bd:description "Used to indicate a derived record (e.g., a record that represents the average of other records such as a computed baseline). Should be Y or null."^^xsd:string ;
	bd:typedAs <http://www.assero.co.uk/CSN#d2f2bbeb-8f79-4fb1-b190-dd864d29f080> ;
	bd:classifiedAs <http://www.assero.co.uk/CSN#4bb7578c-6705-4d2e-93d6-b56960d9e21e> ;
.
<http://www.cdisc.org/SDTM_MODEL_FINDINGS/V5#CL_--EVAL>
	rdf:type bd:SdtmClassVariable ;
	isoC:label "Evaluator"^^xsd:string ;
	bd:rule ""^^xsd:string ;
	bd:ordinal "105"^^xsd:positiveInteger ;
	bd:name "--EVAL"^^xsd:string ;
	bd:prefixed "true"^^xsd:boolean ;
	bd:description "Role of the person who provided the evaluation. Used only for results that are subjective (e.g., assigned by a person or a group). Examples: ADJUDICATION COMMITTEE, INDEPENDENT ASSESSOR, RADIOLOGIST."^^xsd:string ;
	bd:typedAs <http://www.assero.co.uk/CSN#d2f2bbeb-8f79-4fb1-b190-dd864d29f080> ;
	bd:classifiedAs <http://www.assero.co.uk/CSN#4bb7578c-6705-4d2e-93d6-b56960d9e21e> ;
	bd:isA <http://www.s-cubed.dk/CAR#07500ad5733a5c873074c6df8d3e516da1de8ae1> ;
.
<http://www.cdisc.org/SDTM_MODEL_FINDINGS/V5#CL_--EVALID>
	rdf:type bd:SdtmClassVariable ;
	isoC:label "Evaluator Identifier"^^xsd:string ;
	bd:rule ""^^xsd:string ;
	bd:ordinal "106"^^xsd:positiveInteger ;
	bd:name "--EVALID"^^xsd:string ;
	bd:prefixed "true"^^xsd:boolean ;
	bd:description "Used to distinguish multiple evaluators with the same role recorded in --EVAL. Examples: RADIOLOGIST1, RADIOLOGIST2."^^xsd:string ;
	bd:typedAs <http://www.assero.co.uk/CSN#d2f2bbeb-8f79-4fb1-b190-dd864d29f080> ;
	bd:classifiedAs <http://www.assero.co.uk/CSN#86cd61e6-d48c-4e42-b994-bee35e2351fe> ;
.
<http://www.cdisc.org/SDTM_MODEL_FINDINGS/V5#CL_--ACPTFL>
	rdf:type bd:SdtmClassVariable ;
	isoC:label "Accepted Record Flag"^^xsd:string ;
	bd:rule ""^^xsd:string ;
	bd:ordinal "107"^^xsd:positiveInteger ;
	bd:name "--ACPTFL"^^xsd:string ;
	bd:prefixed "true"^^xsd:boolean ;
	bd:description "In cases where more than one assessor provides an evaluation of a result or response, this flag identifies the record that is considered to be the accepted evaluation. Expected values can include Y, N or null. This is not intended to be an analysis flag to indicate acceptability for a given analysis."^^xsd:string ;
	bd:typedAs <http://www.assero.co.uk/CSN#d2f2bbeb-8f79-4fb1-b190-dd864d29f080> ;
	bd:classifiedAs <http://www.assero.co.uk/CSN#4bb7578c-6705-4d2e-93d6-b56960d9e21e> ;
.
<http://www.cdisc.org/SDTM_MODEL_FINDINGS/V5#CL_--TOX>
	rdf:type bd:SdtmClassVariable ;
	isoC:label "Toxicity"^^xsd:string ;
	bd:rule ""^^xsd:string ;
	bd:ordinal "108"^^xsd:positiveInteger ;
	bd:name "--TOX"^^xsd:string ;
	bd:prefixed "true"^^xsd:boolean ;
	bd:description "Description of toxicity quantified by --TOXGR such as NCI CTCAE Short Name. Examples: HYPERCALCEMIA, HYPOCALCEMIA. Sponsor should specify which scale and version is used in the Sponsor Comments column of the Define-XML document."^^xsd:string ;
	bd:typedAs <http://www.assero.co.uk/CSN#d2f2bbeb-8f79-4fb1-b190-dd864d29f080> ;
	bd:classifiedAs <http://www.assero.co.uk/CSN#86cd61e6-d48c-4e42-b994-bee35e2351fe> ;
.
<http://www.cdisc.org/SDTM_MODEL_FINDINGS/V5#CL_--TOXGR>
	rdf:type bd:SdtmClassVariable ;
	isoC:label "Toxicity Grade"^^xsd:string ;
	bd:rule ""^^xsd:string ;
	bd:ordinal "109"^^xsd:positiveInteger ;
	bd:name "--TOXGR"^^xsd:string ;
	bd:prefixed "true"^^xsd:boolean ;
	bd:description "Records toxicity grade using a standard toxicity scale (such as the NCI CTCAE). Sponsor should specify which scale and version is used in the Sponsor Comments column of the Define data definition document. Example: 2."^^xsd:string ;
	bd:typedAs <http://www.assero.co.uk/CSN#d2f2bbeb-8f79-4fb1-b190-dd864d29f080> ;
	bd:classifiedAs <http://www.assero.co.uk/CSN#4bb7578c-6705-4d2e-93d6-b56960d9e21e> ;
.
<http://www.cdisc.org/SDTM_MODEL_FINDINGS/V5#CL_--SEV>
	rdf:type bd:SdtmClassVariable ;
	isoC:label "Severity"^^xsd:string ;
	bd:rule ""^^xsd:string ;
	bd:ordinal "110"^^xsd:positiveInteger ;
	bd:name "--SEV"^^xsd:string ;
	bd:prefixed "true"^^xsd:boolean ;
	bd:description "Describes the severity or intensity of a particular finding. Examples: MILD, MODERATE, SEVERE."^^xsd:string ;
	bd:typedAs <http://www.assero.co.uk/CSN#d2f2bbeb-8f79-4fb1-b190-dd864d29f080> ;
	bd:classifiedAs <http://www.assero.co.uk/CSN#4bb7578c-6705-4d2e-93d6-b56960d9e21e> ;
	bd:isA <http://www.s-cubed.dk/CAR#de314fa0c9d9e359b633f2fdab4659c886fe5986> ;
.
<http://www.cdisc.org/SDTM_MODEL_FINDINGS/V5#CL_--DTHREL>
	rdf:type bd:SdtmClassVariable ;
	isoC:label "Relationship to Death"^^xsd:string ;
	bd:rule ""^^xsd:string ;
	bd:ordinal "111"^^xsd:positiveInteger ;
	bd:name "--DTHREL"^^xsd:string ;
	bd:prefixed "true"^^xsd:boolean ;
	bd:description "Describes the relationship of a particular finding to the death of a subject. Examples: Y, N, or U. Not to be used with human clinical trials."^^xsd:string ;
	bd:typedAs <http://www.assero.co.uk/CSN#d2f2bbeb-8f79-4fb1-b190-dd864d29f080> ;
	bd:classifiedAs <http://www.assero.co.uk/CSN#4bb7578c-6705-4d2e-93d6-b56960d9e21e> ;
.
<http://www.cdisc.org/SDTM_MODEL_FINDINGS/V5#CL_--LLOQ>
	rdf:type bd:SdtmClassVariable ;
	isoC:label "Lower Limit of Quantitation"^^xsd:string ;
	bd:rule ""^^xsd:string ;
	bd:ordinal "112"^^xsd:positiveInteger ;
	bd:name "--LLOQ"^^xsd:string ;
	bd:prefixed "true"^^xsd:boolean ;
	bd:description "Indicates the lower limit of quantitation for an assay. Units will be those used for --STRESU."^^xsd:string ;
	bd:typedAs <http://www.assero.co.uk/CSN#178f8dbe-c3ba-4dc0-8a2a-18081644b4c6> ;
	bd:classifiedAs <http://www.assero.co.uk/CSN#86cd61e6-d48c-4e42-b994-bee35e2351fe> ;
.
<http://www.cdisc.org/SDTM_MODEL_FINDINGS/V5#CL_--ULOQ>
	rdf:type bd:SdtmClassVariable ;
	isoC:label "Upper Limit of Quantitation"^^xsd:string ;
	bd:rule ""^^xsd:string ;
	bd:ordinal "113"^^xsd:positiveInteger ;
	bd:name "--ULOQ"^^xsd:string ;
	bd:prefixed "true"^^xsd:boolean ;
	bd:description "Indicates the upper limit of quantitation for an assay. Units will be those used for --STRESU."^^xsd:string ;
	bd:typedAs <http://www.assero.co.uk/CSN#178f8dbe-c3ba-4dc0-8a2a-18081644b4c6> ;
	bd:classifiedAs <http://www.assero.co.uk/CSN#86cd61e6-d48c-4e42-b994-bee35e2351fe> ;
.
<http://www.cdisc.org/SDTM_MODEL_FINDINGS/V5#CL_--EXCLFL>
	rdf:type bd:SdtmClassVariable ;
	isoC:label "Exclude from Statistics"^^xsd:string ;
	bd:rule ""^^xsd:string ;
	bd:ordinal "114"^^xsd:positiveInteger ;
	bd:name "--EXCLFL"^^xsd:string ;
	bd:prefixed "true"^^xsd:boolean ;
	bd:description "Indicates whether the values in the result variables for this record should be excluded from summary statistical calculations such as Mean, Standard Deviation, and Count (and others). Expected to be Y or null. --EXCLFL should not be used when --STAT is NOT DONE. Not to be used with human clinical trials."^^xsd:string ;
	bd:typedAs <http://www.assero.co.uk/CSN#d2f2bbeb-8f79-4fb1-b190-dd864d29f080> ;
	bd:classifiedAs <http://www.assero.co.uk/CSN#4bb7578c-6705-4d2e-93d6-b56960d9e21e> ;
.
<http://www.cdisc.org/SDTM_MODEL_FINDINGS/V5#CL_--REASEX>
	rdf:type bd:SdtmClassVariable ;
	isoC:label "Reason for Exclusion from Statistics"^^xsd:string ;
	bd:rule ""^^xsd:string ;
	bd:ordinal "115"^^xsd:positiveInteger ;
	bd:name "--REASEX"^^xsd:string ;
	bd:prefixed "true"^^xsd:boolean ;
	bd:description "Reason excluded from statistics. Used in conjunction with --EXCLFL when its value is Y. Not to be used with human clinical trials."^^xsd:string ;
	bd:typedAs <http://www.assero.co.uk/CSN#d2f2bbeb-8f79-4fb1-b190-dd864d29f080> ;
	bd:classifiedAs <http://www.assero.co.uk/CSN#4bb7578c-6705-4d2e-93d6-b56960d9e21e> ;
.
<http://www.cdisc.org/SDTM_MODEL_FINDINGS/V5#CL_--USCHFL>
	rdf:type bd:SdtmClassVariable ;
	isoC:label "Unscheduled Flag"^^xsd:string ;
	bd:rule ""^^xsd:string ;
	bd:ordinal "116"^^xsd:positiveInteger ;
	bd:name "--USCHFL"^^xsd:string ;
	bd:prefixed "true"^^xsd:boolean ;
	bd:description "Indicates whether the timing of a performed test or observation was unscheduled. If a test or observation was performed based upon a schedule defined in the protocol, this flag should be null. Expected values are Y or null. Not to be used with human clinical trials. This variable would not be needed when information on planned assessments is provided, such as when the Trial Visits (TV) and Subject Visits (SV) domains are used."^^xsd:string ;
	bd:typedAs <http://www.assero.co.uk/CSN#d2f2bbeb-8f79-4fb1-b190-dd864d29f080> ;
	bd:classifiedAs <http://www.assero.co.uk/CSN#4bb7578c-6705-4d2e-93d6-b56960d9e21e> ;
.
<http://www.cdisc.org/SDTM_MODEL_FINDINGS/V5#CL_--REPNUM>
	rdf:type bd:SdtmClassVariable ;
	isoC:label "Repetition Number"^^xsd:string ;
	bd:rule ""^^xsd:string ;
	bd:ordinal "117"^^xsd:positiveInteger ;
	bd:name "--REPNUM"^^xsd:string ;
	bd:prefixed "true"^^xsd:boolean ;
	bd:description "The instance number of a test that is repeated within a given timeframe for the same test. The level of granularity can vary, e.g., within a time point or within a visit. For example, multiple measurements of blood pressure or multiple analyses of a sample."^^xsd:string ;
	bd:typedAs <http://www.assero.co.uk/CSN#178f8dbe-c3ba-4dc0-8a2a-18081644b4c6> ;
	bd:classifiedAs <http://www.assero.co.uk/CSN#4bb7578c-6705-4d2e-93d6-b56960d9e21e> ;
.
<http://www.cdisc.org/SDTM_MODEL_INTERVENTIONS/V5#CL>
	rdf:type bd:SdtmClass ;
	isoC:label "SDTM MODEL INTERVENTIONS"^^xsd:string ;
	isoT:hasState <http://www.cdisc.org/SDTM_MODEL_INTERVENTIONS/V5#CL_RS> ;
	isoT:hasIdentifier <http://www.cdisc.org/SDTM_MODEL_INTERVENTIONS/V5#CL_SI> ;
	isoT:hasPreviousVersion <http://www.cdisc.org/SDTM_MODEL_INTERVENTIONS/V4#CL> ;
	isoT:origin ""^^xsd:string ;
	isoT:changeDescription ""^^xsd:string ;
	isoT:creationDate "2017-11-16T00:00:00+00:00"^^xsd:dateTime ;
	isoT:lastChangeDate "2017-11-16T00:00:00+00:00"^^xsd:dateTime ;
	isoT:explanatoryComment ""^^xsd:string ;
	bd:rule ""^^xsd:string ;
	bd:ordinal "1"^^xsd:positiveInteger ;
	bd:includesColumn <http://www.cdisc.org/SDTM_MODEL_ALL/V1#CL_STUDYID> ;
	bd:includesColumn <http://www.cdisc.org/SDTM_MODEL_ALL/V2#CL_DOMAIN> ;
	bd:includesColumn <http://www.cdisc.org/SDTM_MODEL_ALL/V1#CL_USUBJID> ;
	bd:includesColumn <http://www.cdisc.org/SDTM_MODEL_ALL/V5#CL_APID> ;
	bd:includesColumn <http://www.cdisc.org/SDTM_MODEL_ALL/V4#CL_POOLID> ;
	bd:includesColumn <http://www.cdisc.org/SDTM_MODEL_ALL/V4#CL_SPDEVID> ;
	bd:includesColumn <http://www.cdisc.org/SDTM_MODEL_ALL/V5#CL_NHOID> ;
	bd:includesColumn <http://www.cdisc.org/SDTM_MODEL_ALL/V5#CL_FETUSID> ;
	bd:includesColumn <http://www.cdisc.org/SDTM_MODEL_ALL/V5#CL_FOCID> ;
	bd:includesColumn <http://www.cdisc.org/SDTM_MODEL_ALL/V5#CL_--SEQ> ;
	bd:includesColumn <http://www.cdisc.org/SDTM_MODEL_ALL/V5#CL_--GRPID> ;
	bd:includesColumn <http://www.cdisc.org/SDTM_MODEL_ALL/V5#CL_--REFID> ;
	bd:includesColumn <http://www.cdisc.org/SDTM_MODEL_ALL/V5#CL_--RECID> ;
	bd:includesColumn <http://www.cdisc.org/SDTM_MODEL_ALL/V5#CL_--SPID> ;
	bd:includesColumn <http://www.cdisc.org/SDTM_MODEL_ALL/V5#CL_--LNKID> ;
	bd:includesColumn <http://www.cdisc.org/SDTM_MODEL_ALL/V5#CL_--LNKGRP> ;
	bd:includesColumn <http://www.cdisc.org/SDTM_MODEL_ALL/V5#CL_VISITNUM> ;
	bd:includesColumn <http://www.cdisc.org/SDTM_MODEL_ALL/V5#CL_VISIT> ;
	bd:includesColumn <http://www.cdisc.org/SDTM_MODEL_ALL/V5#CL_VISITDY> ;
	bd:includesColumn <http://www.cdisc.org/SDTM_MODEL_ALL/V5#CL_TAETORD> ;
	bd:includesColumn <http://www.cdisc.org/SDTM_MODEL_ALL/V5#CL_EPOCH> ;
	bd:includesColumn <http://www.cdisc.org/SDTM_MODEL_ALL/V5#CL_RPHASE> ;
	bd:includesColumn <http://www.cdisc.org/SDTM_MODEL_ALL/V5#CL_RPPLDY> ;
	bd:includesColumn <http://www.cdisc.org/SDTM_MODEL_ALL/V5#CL_RPPLSTDY> ;
	bd:includesColumn <http://www.cdisc.org/SDTM_MODEL_ALL/V5#CL_RPPLENDY> ;
	bd:includesColumn <http://www.cdisc.org/SDTM_MODEL_ALL/V5#CL_--DTC> ;
	bd:includesColumn <http://www.cdisc.org/SDTM_MODEL_ALL/V5#CL_--STDTC> ;
	bd:includesColumn <http://www.cdisc.org/SDTM_MODEL_ALL/V5#CL_--ENDTC> ;
	bd:includesColumn <http://www.cdisc.org/SDTM_MODEL_ALL/V5#CL_--DY> ;
	bd:includesColumn <http://www.cdisc.org/SDTM_MODEL_ALL/V5#CL_--STDY> ;
	bd:includesColumn <http://www.cdisc.org/SDTM_MODEL_ALL/V5#CL_--ENDY> ;
	bd:includesColumn <http://www.cdisc.org/SDTM_MODEL_ALL/V5#CL_--NOMDY> ;
	bd:includesColumn <http://www.cdisc.org/SDTM_MODEL_ALL/V5#CL_--NOMLBL> ;
	bd:includesColumn <http://www.cdisc.org/SDTM_MODEL_ALL/V5#CL_--RPDY> ;
	bd:includesColumn <http://www.cdisc.org/SDTM_MODEL_ALL/V5#CL_--RPSTDY> ;
	bd:includesColumn <http://www.cdisc.org/SDTM_MODEL_ALL/V5#CL_--RPENDY> ;
	bd:includesColumn <http://www.cdisc.org/SDTM_MODEL_ALL/V5#CL_--DUR> ;
	bd:includesColumn <http://www.cdisc.org/SDTM_MODEL_ALL/V5#CL_--TPT> ;
	bd:includesColumn <http://www.cdisc.org/SDTM_MODEL_ALL/V5#CL_--TPTNUM> ;
	bd:includesColumn <http://www.cdisc.org/SDTM_MODEL_ALL/V5#CL_--ELTM> ;
	bd:includesColumn <http://www.cdisc.org/SDTM_MODEL_ALL/V5#CL_--TPTREF> ;
	bd:includesColumn <http://www.cdisc.org/SDTM_MODEL_ALL/V5#CL_--RFTDTC> ;
	bd:includesColumn <http://www.cdisc.org/SDTM_MODEL_ALL/V5#CL_--STRF> ;
	bd:includesColumn <http://www.cdisc.org/SDTM_MODEL_ALL/V5#CL_--ENRF> ;
	bd:includesColumn <http://www.cdisc.org/SDTM_MODEL_ALL/V5#CL_--EVLINT> ;
	bd:includesColumn <http://www.cdisc.org/SDTM_MODEL_ALL/V5#CL_--EVINTX> ;
	bd:includesColumn <http://www.cdisc.org/SDTM_MODEL_ALL/V5#CL_--STRTPT> ;
	bd:includesColumn <http://www.cdisc.org/SDTM_MODEL_ALL/V5#CL_--STTPT> ;
	bd:includesColumn <http://www.cdisc.org/SDTM_MODEL_ALL/V5#CL_--ENRTPT> ;
	bd:includesColumn <http://www.cdisc.org/SDTM_MODEL_ALL/V5#CL_--ENTPT> ;
	bd:includesColumn <http://www.cdisc.org/SDTM_MODEL_ALL/V5#CL_MIDS> ;
	bd:includesColumn <http://www.cdisc.org/SDTM_MODEL_ALL/V5#CL_RELMIDS> ;
	bd:includesColumn <http://www.cdisc.org/SDTM_MODEL_ALL/V5#CL_MIDSDTC> ;
	bd:includesColumn <http://www.cdisc.org/SDTM_MODEL_ALL/V5#CL_--STINT> ;
	bd:includesColumn <http://www.cdisc.org/SDTM_MODEL_ALL/V5#CL_--ENINT> ;
	bd:includesColumn <http://www.cdisc.org/SDTM_MODEL_ALL/V5#CL_--DETECT> ;
	bd:includesColumn <http://www.cdisc.org/SDTM_MODEL_INTERVENTIONS/V5#CL_--TRT> ;
	bd:includesColumn <http://www.cdisc.org/SDTM_MODEL_INTERVENTIONS/V5#CL_--MODIFY> ;
	bd:includesColumn <http://www.cdisc.org/SDTM_MODEL_INTERVENTIONS/V5#CL_--DECOD> ;
	bd:includesColumn <http://www.cdisc.org/SDTM_MODEL_INTERVENTIONS/V5#CL_--MOOD> ;
	bd:includesColumn <http://www.cdisc.org/SDTM_MODEL_INTERVENTIONS/V5#CL_--CAT> ;
	bd:includesColumn <http://www.cdisc.org/SDTM_MODEL_INTERVENTIONS/V5#CL_--SCAT> ;
	bd:includesColumn <http://www.cdisc.org/SDTM_MODEL_INTERVENTIONS/V5#CL_--PRESP> ;
	bd:includesColumn <http://www.cdisc.org/SDTM_MODEL_INTERVENTIONS/V5#CL_--OCCUR> ;
	bd:includesColumn <http://www.cdisc.org/SDTM_MODEL_INTERVENTIONS/V5#CL_--STAT> ;
	bd:includesColumn <http://www.cdisc.org/SDTM_MODEL_INTERVENTIONS/V5#CL_--REASND> ;
	bd:includesColumn <http://www.cdisc.org/SDTM_MODEL_INTERVENTIONS/V5#CL_--INDC> ;
	bd:includesColumn <http://www.cdisc.org/SDTM_MODEL_INTERVENTIONS/V5#CL_--CLAS> ;
	bd:includesColumn <http://www.cdisc.org/SDTM_MODEL_INTERVENTIONS/V5#CL_--CLASCD> ;
	bd:includesColumn <http://www.cdisc.org/SDTM_MODEL_INTERVENTIONS/V5#CL_--DOSE> ;
	bd:includesColumn <http://www.cdisc.org/SDTM_MODEL_INTERVENTIONS/V5#CL_--DOSTXT> ;
	bd:includesColumn <http://www.cdisc.org/SDTM_MODEL_INTERVENTIONS/V5#CL_--DOSU> ;
	bd:includesColumn <http://www.cdisc.org/SDTM_MODEL_INTERVENTIONS/V5#CL_--DOSFRM> ;
	bd:includesColumn <http://www.cdisc.org/SDTM_MODEL_INTERVENTIONS/V5#CL_--DOSFRQ> ;
	bd:includesColumn <http://www.cdisc.org/SDTM_MODEL_INTERVENTIONS/V5#CL_--DOSTOT> ;
	bd:includesColumn <http://www.cdisc.org/SDTM_MODEL_INTERVENTIONS/V5#CL_--DOSRGM> ;
	bd:includesColumn <http://www.cdisc.org/SDTM_MODEL_INTERVENTIONS/V5#CL_--ROUTE> ;
	bd:includesColumn <http://www.cdisc.org/SDTM_MODEL_INTERVENTIONS/V5#CL_--LOT> ;
	bd:includesColumn <http://www.cdisc.org/SDTM_MODEL_INTERVENTIONS/V5#CL_--LOC> ;
	bd:includesColumn <http://www.cdisc.org/SDTM_MODEL_INTERVENTIONS/V5#CL_--LAT> ;
	bd:includesColumn <http://www.cdisc.org/SDTM_MODEL_INTERVENTIONS/V5#CL_--DIR> ;
	bd:includesColumn <http://www.cdisc.org/SDTM_MODEL_INTERVENTIONS/V5#CL_--PORTOT> ;
	bd:includesColumn <http://www.cdisc.org/SDTM_MODEL_INTERVENTIONS/V5#CL_--FAST> ;
	bd:includesColumn <http://www.cdisc.org/SDTM_MODEL_INTERVENTIONS/V5#CL_--PSTRG> ;
	bd:includesColumn <http://www.cdisc.org/SDTM_MODEL_INTERVENTIONS/V5#CL_--PSTRGU> ;
	bd:includesColumn <http://www.cdisc.org/SDTM_MODEL_INTERVENTIONS/V5#CL_--TRTV> ;
	bd:includesColumn <http://www.cdisc.org/SDTM_MODEL_INTERVENTIONS/V5#CL_--VAMT> ;
	bd:includesColumn <http://www.cdisc.org/SDTM_MODEL_INTERVENTIONS/V5#CL_--VAMTU> ;
	bd:includesColumn <http://www.cdisc.org/SDTM_MODEL_INTERVENTIONS/V5#CL_--ADJ> ;
	bd:includesColumn <http://www.cdisc.org/SDTM_MODEL_INTERVENTIONS/V5#CL_--USCHFL> ;
.
<http://www.cdisc.org/SDTM_MODEL_INTERVENTIONS/V5#CL_RS>
	rdf:type isoR:RegistrationState ;
	isoR:registrationStatus "Standard"^^xsd:string ;
	isoR:administrativeNote ""^^xsd:string ;
	isoR:effectiveDate "2016-01-01T00:00:00+00:00"^^xsd:dateTime ;
	isoR:untilDate "2016-01-01T00:00:00+00:00"^^xsd:dateTime ;
	isoR:unresolvedIssue ""^^xsd:string ;
	isoR:administrativeStatus ""^^xsd:string ;
	isoR:previousState "Standard"^^xsd:string ;
	isoR:multipleEdit "false"^^xsd:boolean ;
	isoR:byAuthority <http://www.assero.co.uk/RA#DUNS084433759> ;
.
<http://www.cdisc.org/SDTM_MODEL_INTERVENTIONS/V5#CL_SI>
	rdf:type isoI:ScopedIdentifier ;
	isoI:identifier "SDTM MODEL INTERVENTIONS"^^xsd:string ;
	isoI:versionLabel "2017-11-16 Release"^^xsd:string ;
	isoI:version "5"^^xsd:positiveInteger ;
	isoI:semanticVersion "5.0.0"^^xsd:string ;
	isoI:hasScope <http://www.assero.co.uk/NS#CDISC> ;
.
<http://www.cdisc.org/SDTM_MODEL_INTERVENTIONS/V5#CL_--TRT>
	rdf:type bd:SdtmClassVariable ;
	isoC:label "Name of Treatment"^^xsd:string ;
	bd:rule ""^^xsd:string ;
	bd:ordinal "57"^^xsd:positiveInteger ;
	bd:name "--TRT"^^xsd:string ;
	bd:prefixed "true"^^xsd:boolean ;
	bd:description "The topic for the intervention observation, usually the verbatim name of the treatment, drug, medicine, or therapy given during the dosing interval for the observation."^^xsd:string ;
	bd:typedAs <http://www.assero.co.uk/CSN#d2f2bbeb-8f79-4fb1-b190-dd864d29f080> ;
	bd:classifiedAs <http://www.assero.co.uk/CSN#692cafbf-658a-43f0-97a2-f040ecb1a20d> ;
.
<http://www.cdisc.org/SDTM_MODEL_INTERVENTIONS/V5#CL_--MODIFY>
	rdf:type bd:SdtmClassVariable ;
	isoC:label "Modified Treatment Name"^^xsd:string ;
	bd:rule ""^^xsd:string ;
	bd:ordinal "58"^^xsd:positiveInteger ;
	bd:name "--MODIFY"^^xsd:string ;
	bd:prefixed "true"^^xsd:boolean ;
	bd:description "If the value for --TRT is modified for coding purposes, then the modified text is placed here."^^xsd:string ;
	bd:typedAs <http://www.assero.co.uk/CSN#d2f2bbeb-8f79-4fb1-b190-dd864d29f080> ;
	bd:classifiedAs <http://www.assero.co.uk/CSN#86cd61e6-d48c-4e42-b994-bee35e2351fe> ;
.
<http://www.cdisc.org/SDTM_MODEL_INTERVENTIONS/V5#CL_--DECOD>
	rdf:type bd:SdtmClassVariable ;
	isoC:label "Standardized Treatment Name"^^xsd:string ;
	bd:rule ""^^xsd:string ;
	bd:ordinal "59"^^xsd:positiveInteger ;
	bd:name "--DECOD"^^xsd:string ;
	bd:prefixed "true"^^xsd:boolean ;
	bd:description "Standardized or dictionary-derived name of the topic variable, --TRT, or the modified topic variable (--MODIFY), if applicable. Equivalent to the generic drug name in WHO Drug, or a term in SNOMED, ICD9, or other published or sponsor-defined dictionaries."^^xsd:string ;
	bd:typedAs <http://www.assero.co.uk/CSN#d2f2bbeb-8f79-4fb1-b190-dd864d29f080> ;
	bd:classifiedAs <http://www.assero.co.uk/CSN#86cd61e6-d48c-4e42-b994-bee35e2351fe> ;
.
<http://www.cdisc.org/SDTM_MODEL_INTERVENTIONS/V5#CL_--MOOD>
	rdf:type bd:SdtmClassVariable ;
	isoC:label "Mood"^^xsd:string ;
	bd:rule ""^^xsd:string ;
	bd:ordinal "60"^^xsd:positiveInteger ;
	bd:name "--MOOD"^^xsd:string ;
	bd:prefixed "true"^^xsd:boolean ;
	bd:description "Mode or condition of the record (e.g., SCHEDULED, PERFORMED)."^^xsd:string ;
	bd:typedAs <http://www.assero.co.uk/CSN#d2f2bbeb-8f79-4fb1-b190-dd864d29f080> ;
	bd:classifiedAs <http://www.assero.co.uk/CSN#4bb7578c-6705-4d2e-93d6-b56960d9e21e> ;
.
<http://www.cdisc.org/SDTM_MODEL_INTERVENTIONS/V5#CL_--CAT>
	rdf:type bd:SdtmClassVariable ;
	isoC:label "Category"^^xsd:string ;
	bd:rule ""^^xsd:string ;
	bd:ordinal "61"^^xsd:positiveInteger ;
	bd:name "--CAT"^^xsd:string ;
	bd:prefixed "true"^^xsd:boolean ;
	bd:description "Used to define a category of topic-variable values."^^xsd:string ;
	bd:typedAs <http://www.assero.co.uk/CSN#d2f2bbeb-8f79-4fb1-b190-dd864d29f080> ;
	bd:classifiedAs <http://www.assero.co.uk/CSN#9fb29f8b-505a-4c4f-b550-175fbfec932d> ;
	bd:isA <http://www.s-cubed.dk/CAR#a3c686e711e4720f99b4562bb3dbaae7ab658cf2> ;
.
<http://www.cdisc.org/SDTM_MODEL_INTERVENTIONS/V5#CL_--SCAT>
	rdf:type bd:SdtmClassVariable ;
	isoC:label "Subcategory"^^xsd:string ;
	bd:rule ""^^xsd:string ;
	bd:ordinal "62"^^xsd:positiveInteger ;
	bd:name "--SCAT"^^xsd:string ;
	bd:prefixed "true"^^xsd:boolean ;
	bd:description "Used to define a further categorization of --CAT values."^^xsd:string ;
	bd:typedAs <http://www.assero.co.uk/CSN#d2f2bbeb-8f79-4fb1-b190-dd864d29f080> ;
	bd:classifiedAs <http://www.assero.co.uk/CSN#9fb29f8b-505a-4c4f-b550-175fbfec932d> ;
	bd:isA <http://www.s-cubed.dk/CAR#479a67983e739413da55faf0dc509f83fd5dea64> ;
.
<http://www.cdisc.org/SDTM_MODEL_INTERVENTIONS/V5#CL_--PRESP>
	rdf:type bd:SdtmClassVariable ;
	isoC:label "Pre-specified"^^xsd:string ;
	bd:rule ""^^xsd:string ;
	bd:ordinal "63"^^xsd:positiveInteger ;
	bd:name "--PRESP"^^xsd:string ;
	bd:prefixed "true"^^xsd:boolean ;
	bd:description "Used when a specific intervention is pre-specified on a CRF. Values should be \"Y\" or null."^^xsd:string ;
	bd:typedAs <http://www.assero.co.uk/CSN#d2f2bbeb-8f79-4fb1-b190-dd864d29f080> ;
	bd:classifiedAs <http://www.assero.co.uk/CSN#86cd61e6-d48c-4e42-b994-bee35e2351fe> ;
.
<http://www.cdisc.org/SDTM_MODEL_INTERVENTIONS/V5#CL_--OCCUR>
	rdf:type bd:SdtmClassVariable ;
	isoC:label "Occurrence"^^xsd:string ;
	bd:rule ""^^xsd:string ;
	bd:ordinal "64"^^xsd:positiveInteger ;
	bd:name "--OCCUR"^^xsd:string ;
	bd:prefixed "true"^^xsd:boolean ;
	bd:description "Used to record whether a pre-specified intervention occurred when information about the occurrence of a specific intervention is solicited."^^xsd:string ;
	bd:typedAs <http://www.assero.co.uk/CSN#d2f2bbeb-8f79-4fb1-b190-dd864d29f080> ;
	bd:classifiedAs <http://www.assero.co.uk/CSN#4bb7578c-6705-4d2e-93d6-b56960d9e21e> ;
.
<http://www.cdisc.org/SDTM_MODEL_INTERVENTIONS/V5#CL_--STAT>
	rdf:type bd:SdtmClassVariable ;
	isoC:label "Completion Status"^^xsd:string ;
	bd:rule ""^^xsd:string ;
	bd:ordinal "65"^^xsd:positiveInteger ;
	bd:name "--STAT"^^xsd:string ;
	bd:prefixed "true"^^xsd:boolean ;
	bd:description "Used to indicate when a question about the occurrence of a pre-specified intervention was not answered. Should be null or have a value of NOT DONE."^^xsd:string ;
	bd:typedAs <http://www.assero.co.uk/CSN#d2f2bbeb-8f79-4fb1-b190-dd864d29f080> ;
	bd:classifiedAs <http://www.assero.co.uk/CSN#4bb7578c-6705-4d2e-93d6-b56960d9e21e> ;
	bd:isA <http://www.s-cubed.dk/CAR#bae7d5be70820ed56467bd9a63744e23b47bd711> ;
.
<http://www.cdisc.org/SDTM_MODEL_INTERVENTIONS/V5#CL_--REASND>
	rdf:type bd:SdtmClassVariable ;
	isoC:label "Reason Not Done"^^xsd:string ;
	bd:rule ""^^xsd:string ;
	bd:ordinal "66"^^xsd:positiveInteger ;
	bd:name "--REASND"^^xsd:string ;
	bd:prefixed "true"^^xsd:boolean ;
	bd:description "Reason not done. Used in conjunction with --STAT when value is NOT DONE."^^xsd:string ;
	bd:typedAs <http://www.assero.co.uk/CSN#d2f2bbeb-8f79-4fb1-b190-dd864d29f080> ;
	bd:classifiedAs <http://www.assero.co.uk/CSN#4bb7578c-6705-4d2e-93d6-b56960d9e21e> ;
.
<http://www.cdisc.org/SDTM_MODEL_INTERVENTIONS/V5#CL_--INDC>
	rdf:type bd:SdtmClassVariable ;
	isoC:label "Indication"^^xsd:string ;
	bd:rule ""^^xsd:string ;
	bd:ordinal "67"^^xsd:positiveInteger ;
	bd:name "--INDC"^^xsd:string ;
	bd:prefixed "true"^^xsd:boolean ;
	bd:description "Denotes the indication for the intervention (e.g., why the therapy was taken or administered)."^^xsd:string ;
	bd:typedAs <http://www.assero.co.uk/CSN#d2f2bbeb-8f79-4fb1-b190-dd864d29f080> ;
	bd:classifiedAs <http://www.assero.co.uk/CSN#4bb7578c-6705-4d2e-93d6-b56960d9e21e> ;
.
<http://www.cdisc.org/SDTM_MODEL_INTERVENTIONS/V5#CL_--CLAS>
	rdf:type bd:SdtmClassVariable ;
	isoC:label "Class"^^xsd:string ;
	bd:rule ""^^xsd:string ;
	bd:ordinal "68"^^xsd:positiveInteger ;
	bd:name "--CLAS"^^xsd:string ;
	bd:prefixed "true"^^xsd:boolean ;
	bd:description "Class for a medication or treatment, often obtained from a coding dictionary."^^xsd:string ;
	bd:typedAs <http://www.assero.co.uk/CSN#d2f2bbeb-8f79-4fb1-b190-dd864d29f080> ;
	bd:classifiedAs <http://www.assero.co.uk/CSN#86cd61e6-d48c-4e42-b994-bee35e2351fe> ;
.
<http://www.cdisc.org/SDTM_MODEL_INTERVENTIONS/V5#CL_--CLASCD>
	rdf:type bd:SdtmClassVariable ;
	isoC:label "Class Code"^^xsd:string ;
	bd:rule ""^^xsd:string ;
	bd:ordinal "69"^^xsd:positiveInteger ;
	bd:name "--CLASCD"^^xsd:string ;
	bd:prefixed "true"^^xsd:boolean ;
	bd:description "Used to represent code for --CLAS."^^xsd:string ;
	bd:typedAs <http://www.assero.co.uk/CSN#d2f2bbeb-8f79-4fb1-b190-dd864d29f080> ;
	bd:classifiedAs <http://www.assero.co.uk/CSN#86cd61e6-d48c-4e42-b994-bee35e2351fe> ;
.
<http://www.cdisc.org/SDTM_MODEL_INTERVENTIONS/V5#CL_--DOSE>
	rdf:type bd:SdtmClassVariable ;
	isoC:label "Dose"^^xsd:string ;
	bd:rule ""^^xsd:string ;
	bd:ordinal "70"^^xsd:positiveInteger ;
	bd:name "--DOSE"^^xsd:string ;
	bd:prefixed "true"^^xsd:boolean ;
	bd:description "Amount of --TRT given. Not populated when --DOSTXT is populated."^^xsd:string ;
	bd:typedAs <http://www.assero.co.uk/CSN#178f8dbe-c3ba-4dc0-8a2a-18081644b4c6> ;
	bd:classifiedAs <http://www.assero.co.uk/CSN#4bb7578c-6705-4d2e-93d6-b56960d9e21e> ;
.
<http://www.cdisc.org/SDTM_MODEL_INTERVENTIONS/V5#CL_--DOSTXT>
	rdf:type bd:SdtmClassVariable ;
	isoC:label "Dose Description"^^xsd:string ;
	bd:rule ""^^xsd:string ;
	bd:ordinal "71"^^xsd:positiveInteger ;
	bd:name "--DOSTXT"^^xsd:string ;
	bd:prefixed "true"^^xsd:boolean ;
	bd:description "Dosing information collected in text form. Examples: <1 per day, 200-400. Not populated when --DOSE is populated."^^xsd:string ;
	bd:typedAs <http://www.assero.co.uk/CSN#d2f2bbeb-8f79-4fb1-b190-dd864d29f080> ;
	bd:classifiedAs <http://www.assero.co.uk/CSN#4bb7578c-6705-4d2e-93d6-b56960d9e21e> ;
.
<http://www.cdisc.org/SDTM_MODEL_INTERVENTIONS/V5#CL_--DOSU>
	rdf:type bd:SdtmClassVariable ;
	isoC:label "Dose Units"^^xsd:string ;
	bd:rule ""^^xsd:string ;
	bd:ordinal "72"^^xsd:positiveInteger ;
	bd:name "--DOSU"^^xsd:string ;
	bd:prefixed "true"^^xsd:boolean ;
	bd:description "Units for --DOSE, --DOSTOT, or --DOSTXT (Examples: ng, mg, mg/kg)."^^xsd:string ;
	bd:typedAs <http://www.assero.co.uk/CSN#d2f2bbeb-8f79-4fb1-b190-dd864d29f080> ;
	bd:classifiedAs <http://www.assero.co.uk/CSN#86cd61e6-d48c-4e42-b994-bee35e2351fe> ;
.
<http://www.cdisc.org/SDTM_MODEL_INTERVENTIONS/V5#CL_--DOSFRM>
	rdf:type bd:SdtmClassVariable ;
	isoC:label "Dose Form"^^xsd:string ;
	bd:rule ""^^xsd:string ;
	bd:ordinal "73"^^xsd:positiveInteger ;
	bd:name "--DOSFRM"^^xsd:string ;
	bd:prefixed "true"^^xsd:boolean ;
	bd:description "Dose form for the treatment. Examples: TABLET, CAPSULE."^^xsd:string ;
	bd:typedAs <http://www.assero.co.uk/CSN#d2f2bbeb-8f79-4fb1-b190-dd864d29f080> ;
	bd:classifiedAs <http://www.assero.co.uk/CSN#86cd61e6-d48c-4e42-b994-bee35e2351fe> ;
.
<http://www.cdisc.org/SDTM_MODEL_INTERVENTIONS/V5#CL_--DOSFRQ>
	rdf:type bd:SdtmClassVariable ;
	isoC:label "Dosing Frequency per Interval"^^xsd:string ;
	bd:rule ""^^xsd:string ;
	bd:ordinal "74"^^xsd:positiveInteger ;
	bd:name "--DOSFRQ"^^xsd:string ;
	bd:prefixed "true"^^xsd:boolean ;
	bd:description "Usually expressed as the number of doses given per a specific interval. Examples: Q2H, QD, PRN."^^xsd:string ;
	bd:typedAs <http://www.assero.co.uk/CSN#d2f2bbeb-8f79-4fb1-b190-dd864d29f080> ;
	bd:classifiedAs <http://www.assero.co.uk/CSN#86cd61e6-d48c-4e42-b994-bee35e2351fe> ;
.
<http://www.cdisc.org/SDTM_MODEL_INTERVENTIONS/V5#CL_--DOSTOT>
	rdf:type bd:SdtmClassVariable ;
	isoC:label "Total Daily Dose"^^xsd:string ;
	bd:rule ""^^xsd:string ;
	bd:ordinal "75"^^xsd:positiveInteger ;
	bd:name "--DOSTOT"^^xsd:string ;
	bd:prefixed "true"^^xsd:boolean ;
	bd:description "Total daily dose of --TRT using the units in --DOSU. Used when dosing is collected as Total Daily Dose."^^xsd:string ;
	bd:typedAs <http://www.assero.co.uk/CSN#178f8dbe-c3ba-4dc0-8a2a-18081644b4c6> ;
	bd:classifiedAs <http://www.assero.co.uk/CSN#4bb7578c-6705-4d2e-93d6-b56960d9e21e> ;
.
<http://www.cdisc.org/SDTM_MODEL_INTERVENTIONS/V5#CL_--DOSRGM>
	rdf:type bd:SdtmClassVariable ;
	isoC:label "Intended Dose Regimen"^^xsd:string ;
	bd:rule ""^^xsd:string ;
	bd:ordinal "76"^^xsd:positiveInteger ;
	bd:name "--DOSRGM"^^xsd:string ;
	bd:prefixed "true"^^xsd:boolean ;
	bd:description "Text description of the (intended) schedule or regimen for the Intervention. Example: TWO WEEKS ON, TWO WEEKS OFF."^^xsd:string ;
	bd:typedAs <http://www.assero.co.uk/CSN#d2f2bbeb-8f79-4fb1-b190-dd864d29f080> ;
	bd:classifiedAs <http://www.assero.co.uk/CSN#86cd61e6-d48c-4e42-b994-bee35e2351fe> ;
.
<http://www.cdisc.org/SDTM_MODEL_INTERVENTIONS/V5#CL_--ROUTE>
	rdf:type bd:SdtmClassVariable ;
	isoC:label "Route of Administration"^^xsd:string ;
	bd:rule ""^^xsd:string ;
	bd:ordinal "77"^^xsd:positiveInteger ;
	bd:name "--ROUTE"^^xsd:string ;
	bd:prefixed "true"^^xsd:boolean ;
	bd:description "Route of administration for the intervention. Examples: ORAL, INTRAVENOUS."^^xsd:string ;
	bd:typedAs <http://www.assero.co.uk/CSN#d2f2bbeb-8f79-4fb1-b190-dd864d29f080> ;
	bd:classifiedAs <http://www.assero.co.uk/CSN#86cd61e6-d48c-4e42-b994-bee35e2351fe> ;
.
<http://www.cdisc.org/SDTM_MODEL_INTERVENTIONS/V5#CL_--LOT>
	rdf:type bd:SdtmClassVariable ;
	isoC:label "Lot Number"^^xsd:string ;
	bd:rule ""^^xsd:string ;
	bd:ordinal "78"^^xsd:positiveInteger ;
	bd:name "--LOT"^^xsd:string ;
	bd:prefixed "true"^^xsd:boolean ;
	bd:description "Lot number for the intervention described in --TRT."^^xsd:string ;
	bd:typedAs <http://www.assero.co.uk/CSN#d2f2bbeb-8f79-4fb1-b190-dd864d29f080> ;
	bd:classifiedAs <http://www.assero.co.uk/CSN#4bb7578c-6705-4d2e-93d6-b56960d9e21e> ;
.
<http://www.cdisc.org/SDTM_MODEL_INTERVENTIONS/V5#CL_--LOC>
	rdf:type bd:SdtmClassVariable ;
	isoC:label "Location of Dose Administration"^^xsd:string ;
	bd:rule ""^^xsd:string ;
	bd:ordinal "79"^^xsd:positiveInteger ;
	bd:name "--LOC"^^xsd:string ;
	bd:prefixed "true"^^xsd:boolean ;
	bd:description "Anatomical location of an intervention, such as an injection site. Example: ARM for an injection."^^xsd:string ;
	bd:typedAs <http://www.assero.co.uk/CSN#d2f2bbeb-8f79-4fb1-b190-dd864d29f080> ;
	bd:classifiedAs <http://www.assero.co.uk/CSN#4bb7578c-6705-4d2e-93d6-b56960d9e21e> ;
	bd:isA <http://www.s-cubed.dk/CAR#d219c68101f532de10add2cf42fb9dbeca73d3be> ;
.
<http://www.cdisc.org/SDTM_MODEL_INTERVENTIONS/V5#CL_--LAT>
	rdf:type bd:SdtmClassVariable ;
	isoC:label "Laterality"^^xsd:string ;
	bd:rule ""^^xsd:string ;
	bd:ordinal "80"^^xsd:positiveInteger ;
	bd:name "--LAT"^^xsd:string ;
	bd:prefixed "true"^^xsd:boolean ;
	bd:description "Qualifier for anatomical location further detailing laterality of intervention administration. Examples: RIGHT, LEFT, BILATERAL"^^xsd:string ;
	bd:typedAs <http://www.assero.co.uk/CSN#d2f2bbeb-8f79-4fb1-b190-dd864d29f080> ;
	bd:classifiedAs <http://www.assero.co.uk/CSN#86cd61e6-d48c-4e42-b994-bee35e2351fe> ;
	bd:isA <http://www.s-cubed.dk/CAR#ef3aa1b3b12817712a7c3e62022cbe06bd6c3f08> ;
.
<http://www.cdisc.org/SDTM_MODEL_INTERVENTIONS/V5#CL_--DIR>
	rdf:type bd:SdtmClassVariable ;
	isoC:label "Directionality"^^xsd:string ;
	bd:rule ""^^xsd:string ;
	bd:ordinal "81"^^xsd:positiveInteger ;
	bd:name "--DIR"^^xsd:string ;
	bd:prefixed "true"^^xsd:boolean ;
	bd:description "Qualifier for anatomical location further detailing directionality of intervention administration. Examples: ANTERIOR, LOWER, PROXIMAL"^^xsd:string ;
	bd:typedAs <http://www.assero.co.uk/CSN#d2f2bbeb-8f79-4fb1-b190-dd864d29f080> ;
	bd:classifiedAs <http://www.assero.co.uk/CSN#86cd61e6-d48c-4e42-b994-bee35e2351fe> ;
	bd:isA <http://www.s-cubed.dk/CAR#b8480e9c78891769429c713a44f238f2ca3c3abb> ;
.
<http://www.cdisc.org/SDTM_MODEL_INTERVENTIONS/V5#CL_--PORTOT>
	rdf:type bd:SdtmClassVariable ;
	isoC:label "Portion or Totality"^^xsd:string ;
	bd:rule ""^^xsd:string ;
	bd:ordinal "82"^^xsd:positiveInteger ;
	bd:name "--PORTOT"^^xsd:string ;
	bd:prefixed "true"^^xsd:boolean ;
	bd:description "Qualifier for anatomical location further detailing the distribution, which means arrangement of, apportioning of the intervention administration. Examples: ENTIRE, SINGLE, SEGMENT, MANY."^^xsd:string ;
	bd:typedAs <http://www.assero.co.uk/CSN#d2f2bbeb-8f79-4fb1-b190-dd864d29f080> ;
	bd:classifiedAs <http://www.assero.co.uk/CSN#86cd61e6-d48c-4e42-b994-bee35e2351fe> ;
.
<http://www.cdisc.org/SDTM_MODEL_INTERVENTIONS/V5#CL_--FAST>
	rdf:type bd:SdtmClassVariable ;
	isoC:label "Fasting Status"^^xsd:string ;
	bd:rule ""^^xsd:string ;
	bd:ordinal "83"^^xsd:positiveInteger ;
	bd:name "--FAST"^^xsd:string ;
	bd:prefixed "true"^^xsd:boolean ;
	bd:description "Indicator used to identify fasting status. Valid values include Y, N, U or null if not relevant."^^xsd:string ;
	bd:typedAs <http://www.assero.co.uk/CSN#d2f2bbeb-8f79-4fb1-b190-dd864d29f080> ;
	bd:classifiedAs <http://www.assero.co.uk/CSN#4bb7578c-6705-4d2e-93d6-b56960d9e21e> ;
.
<http://www.cdisc.org/SDTM_MODEL_INTERVENTIONS/V5#CL_--PSTRG>
	rdf:type bd:SdtmClassVariable ;
	isoC:label "Pharmaceutical Strength"^^xsd:string ;
	bd:rule ""^^xsd:string ;
	bd:ordinal "84"^^xsd:positiveInteger ;
	bd:name "--PSTRG"^^xsd:string ;
	bd:prefixed "true"^^xsd:boolean ;
	bd:description "Amount of an active ingredient expressed quantitatively per dosage unit, per unit of volume, or per unit of weight, according to the pharmaceutical dose form. Example: 50 mg/TABLET, 300 mg/L"^^xsd:string ;
	bd:typedAs <http://www.assero.co.uk/CSN#178f8dbe-c3ba-4dc0-8a2a-18081644b4c6> ;
	bd:classifiedAs <http://www.assero.co.uk/CSN#4bb7578c-6705-4d2e-93d6-b56960d9e21e> ;
.
<http://www.cdisc.org/SDTM_MODEL_INTERVENTIONS/V5#CL_--PSTRGU>
	rdf:type bd:SdtmClassVariable ;
	isoC:label "Pharmaceutical Strength Units"^^xsd:string ;
	bd:rule ""^^xsd:string ;
	bd:ordinal "85"^^xsd:positiveInteger ;
	bd:name "--PSTRGU"^^xsd:string ;
	bd:prefixed "true"^^xsd:boolean ;
	bd:description "Unit for --PSTRG. Example: mg/TABLET, mg/mL"^^xsd:string ;
	bd:typedAs <http://www.assero.co.uk/CSN#d2f2bbeb-8f79-4fb1-b190-dd864d29f080> ;
	bd:classifiedAs <http://www.assero.co.uk/CSN#86cd61e6-d48c-4e42-b994-bee35e2351fe> ;
.
<http://www.cdisc.org/SDTM_MODEL_INTERVENTIONS/V5#CL_--TRTV>
	rdf:type bd:SdtmClassVariable ;
	isoC:label "Treatment Vehicle"^^xsd:string ;
	bd:rule ""^^xsd:string ;
	bd:ordinal "86"^^xsd:positiveInteger ;
	bd:name "--TRTV"^^xsd:string ;
	bd:prefixed "true"^^xsd:boolean ;
	bd:description "Vehicle for administration of treatment, such as a liquid in which the treatment drug is dissolved. Example: SALINE."^^xsd:string ;
	bd:typedAs <http://www.assero.co.uk/CSN#d2f2bbeb-8f79-4fb1-b190-dd864d29f080> ;
	bd:classifiedAs <http://www.assero.co.uk/CSN#4bb7578c-6705-4d2e-93d6-b56960d9e21e> ;
.
<http://www.cdisc.org/SDTM_MODEL_INTERVENTIONS/V5#CL_--VAMT>
	rdf:type bd:SdtmClassVariable ;
	isoC:label "Treatment Vehicle Amount"^^xsd:string ;
	bd:rule ""^^xsd:string ;
	bd:ordinal "87"^^xsd:positiveInteger ;
	bd:name "--VAMT"^^xsd:string ;
	bd:prefixed "true"^^xsd:boolean ;
	bd:description "Amount of the prepared product (treatment + vehicle) administered or given. Note: should not be diluent amount alone."^^xsd:string ;
	bd:typedAs <http://www.assero.co.uk/CSN#178f8dbe-c3ba-4dc0-8a2a-18081644b4c6> ;
	bd:classifiedAs <http://www.assero.co.uk/CSN#4bb7578c-6705-4d2e-93d6-b56960d9e21e> ;
.
<http://www.cdisc.org/SDTM_MODEL_INTERVENTIONS/V5#CL_--VAMTU>
	rdf:type bd:SdtmClassVariable ;
	isoC:label "Treatment Vehicle Amount Units"^^xsd:string ;
	bd:rule ""^^xsd:string ;
	bd:ordinal "88"^^xsd:positiveInteger ;
	bd:name "--VAMTU"^^xsd:string ;
	bd:prefixed "true"^^xsd:boolean ;
	bd:description "Units for the prepared product (treatment + vehicle). Examples: mL, mg."^^xsd:string ;
	bd:typedAs <http://www.assero.co.uk/CSN#d2f2bbeb-8f79-4fb1-b190-dd864d29f080> ;
	bd:classifiedAs <http://www.assero.co.uk/CSN#86cd61e6-d48c-4e42-b994-bee35e2351fe> ;
.
<http://www.cdisc.org/SDTM_MODEL_INTERVENTIONS/V5#CL_--ADJ>
	rdf:type bd:SdtmClassVariable ;
	isoC:label "Reason for Dose Adjustment"^^xsd:string ;
	bd:rule ""^^xsd:string ;
	bd:ordinal "89"^^xsd:positiveInteger ;
	bd:name "--ADJ"^^xsd:string ;
	bd:prefixed "true"^^xsd:boolean ;
	bd:description "Describes reason or explanation of why a dose is adjusted. Examples ADVERSE EVENT, INSUFFICIENT RESPONSE, NON-MEDICAL REASON."^^xsd:string ;
	bd:typedAs <http://www.assero.co.uk/CSN#d2f2bbeb-8f79-4fb1-b190-dd864d29f080> ;
	bd:classifiedAs <http://www.assero.co.uk/CSN#4bb7578c-6705-4d2e-93d6-b56960d9e21e> ;
.
<http://www.cdisc.org/SDTM_MODEL_INTERVENTIONS/V5#CL_--USCHFL>
	rdf:type bd:SdtmClassVariable ;
	isoC:label "Unscheduled Flag"^^xsd:string ;
	bd:rule ""^^xsd:string ;
	bd:ordinal "90"^^xsd:positiveInteger ;
	bd:name "--USCHFL"^^xsd:string ;
	bd:prefixed "true"^^xsd:boolean ;
	bd:description "Indicates whether the timing of a performed test or observation was unscheduled. If a test or observation was performed based upon a schedule defined in the protocol, this flag should be null. Expected values are Y or null. Not to be used with human clinical trials. This variable would not be needed when information on planned assessments is provided, such as when the Trial Visits (TV) and Subject Visits (SV) domains are used."^^xsd:string ;
	bd:typedAs <http://www.assero.co.uk/CSN#d2f2bbeb-8f79-4fb1-b190-dd864d29f080> ;
	bd:classifiedAs <http://www.assero.co.uk/CSN#4bb7578c-6705-4d2e-93d6-b56960d9e21e> ;
.
<http://www.cdisc.org/SDTM_MODEL_POOLDEF/V5#CL>
	rdf:type bd:SdtmClass ;
	isoC:label "POOLDEF"^^xsd:string ;
	isoT:hasState <http://www.cdisc.org/SDTM_MODEL_POOLDEF/V5#CL_RS> ;
	isoT:hasIdentifier <http://www.cdisc.org/SDTM_MODEL_POOLDEF/V5#CL_SI> ;
	isoT:hasPreviousVersion <http://www.cdisc.org/SDTM_MODEL_POOLDEF/V4#CL> ;
	isoT:origin ""^^xsd:string ;
	isoT:changeDescription ""^^xsd:string ;
	isoT:creationDate "2017-11-16T00:00:00+00:00"^^xsd:dateTime ;
	isoT:lastChangeDate "2017-11-16T00:00:00+00:00"^^xsd:dateTime ;
	isoT:explanatoryComment ""^^xsd:string ;
	bd:rule ""^^xsd:string ;
	bd:ordinal "1"^^xsd:positiveInteger ;
	bd:includesColumn <http://www.cdisc.org/SDTM_MODEL_POOLDEF/V4#CL_STUDYID> ;
	bd:includesColumn <http://www.cdisc.org/SDTM_MODEL_POOLDEF/V4#CL_POOLID> ;
	bd:includesColumn <http://www.cdisc.org/SDTM_MODEL_POOLDEF/V4#CL_USUBJID> ;
.
<http://www.cdisc.org/SDTM_MODEL_POOLDEF/V5#CL_RS>
	rdf:type isoR:RegistrationState ;
	isoR:registrationStatus "Standard"^^xsd:string ;
	isoR:administrativeNote ""^^xsd:string ;
	isoR:effectiveDate "2016-01-01T00:00:00+00:00"^^xsd:dateTime ;
	isoR:untilDate "2016-01-01T00:00:00+00:00"^^xsd:dateTime ;
	isoR:unresolvedIssue ""^^xsd:string ;
	isoR:administrativeStatus ""^^xsd:string ;
	isoR:previousState "Standard"^^xsd:string ;
	isoR:multipleEdit "false"^^xsd:boolean ;
	isoR:byAuthority <http://www.assero.co.uk/RA#DUNS084433759> ;
.
<http://www.cdisc.org/SDTM_MODEL_POOLDEF/V5#CL_SI>
	rdf:type isoI:ScopedIdentifier ;
	isoI:identifier "SDTM MODEL POOLDEF"^^xsd:string ;
	isoI:versionLabel "2017-11-16 Release"^^xsd:string ;
	isoI:version "5"^^xsd:positiveInteger ;
	isoI:semanticVersion "5.0.0"^^xsd:string ;
	isoI:hasScope <http://www.assero.co.uk/NS#CDISC> ;
.
<http://www.cdisc.org/SDTM_MODEL_RELREC/V5#CL>
	rdf:type bd:SdtmClass ;
	isoC:label "RELREC"^^xsd:string ;
	isoT:hasState <http://www.cdisc.org/SDTM_MODEL_RELREC/V5#CL_RS> ;
	isoT:hasIdentifier <http://www.cdisc.org/SDTM_MODEL_RELREC/V5#CL_SI> ;
	isoT:hasPreviousVersion <http://www.cdisc.org/SDTM_MODEL_RELREC/V4#CL> ;
	isoT:origin ""^^xsd:string ;
	isoT:changeDescription ""^^xsd:string ;
	isoT:creationDate "2017-11-16T00:00:00+00:00"^^xsd:dateTime ;
	isoT:lastChangeDate "2017-11-16T00:00:00+00:00"^^xsd:dateTime ;
	isoT:explanatoryComment ""^^xsd:string ;
	bd:rule ""^^xsd:string ;
	bd:ordinal "1"^^xsd:positiveInteger ;
	bd:includesColumn <http://www.cdisc.org/SDTM_MODEL_RELREC/V4#CL_STUDYID> ;
	bd:includesColumn <http://www.cdisc.org/SDTM_MODEL_RELREC/V4#CL_RDOMAIN> ;
	bd:includesColumn <http://www.cdisc.org/SDTM_MODEL_RELREC/V4#CL_USUBJID> ;
	bd:includesColumn <http://www.cdisc.org/SDTM_MODEL_RELREC/V4#CL_POOLID> ;
	bd:includesColumn <http://www.cdisc.org/SDTM_MODEL_RELREC/V4#CL_IDVAR> ;
	bd:includesColumn <http://www.cdisc.org/SDTM_MODEL_RELREC/V4#CL_IDVARVAL> ;
	bd:includesColumn <http://www.cdisc.org/SDTM_MODEL_RELREC/V4#CL_RELTYPE> ;
	bd:includesColumn <http://www.cdisc.org/SDTM_MODEL_RELREC/V4#CL_RELID> ;
.
<http://www.cdisc.org/SDTM_MODEL_RELREC/V5#CL_RS>
	rdf:type isoR:RegistrationState ;
	isoR:registrationStatus "Standard"^^xsd:string ;
	isoR:administrativeNote ""^^xsd:string ;
	isoR:effectiveDate "2016-01-01T00:00:00+00:00"^^xsd:dateTime ;
	isoR:untilDate "2016-01-01T00:00:00+00:00"^^xsd:dateTime ;
	isoR:unresolvedIssue ""^^xsd:string ;
	isoR:administrativeStatus ""^^xsd:string ;
	isoR:previousState "Standard"^^xsd:string ;
	isoR:multipleEdit "false"^^xsd:boolean ;
	isoR:byAuthority <http://www.assero.co.uk/RA#DUNS084433759> ;
.
<http://www.cdisc.org/SDTM_MODEL_RELREC/V5#CL_SI>
	rdf:type isoI:ScopedIdentifier ;
	isoI:identifier "SDTM MODEL RELREC"^^xsd:string ;
	isoI:versionLabel "2017-11-16 Release"^^xsd:string ;
	isoI:version "5"^^xsd:positiveInteger ;
	isoI:semanticVersion "5.0.0"^^xsd:string ;
	isoI:hasScope <http://www.assero.co.uk/NS#CDISC> ;
.
<http://www.cdisc.org/SDTM_MODEL_SUPPQUAL/V5#CL>
	rdf:type bd:SdtmClass ;
	isoC:label "SUPPQUAL"^^xsd:string ;
	isoT:hasState <http://www.cdisc.org/SDTM_MODEL_SUPPQUAL/V5#CL_RS> ;
	isoT:hasIdentifier <http://www.cdisc.org/SDTM_MODEL_SUPPQUAL/V5#CL_SI> ;
	isoT:hasPreviousVersion <http://www.cdisc.org/SDTM_MODEL_SUPPQUAL/V4#CL> ;
	isoT:origin ""^^xsd:string ;
	isoT:changeDescription ""^^xsd:string ;
	isoT:creationDate "2017-11-16T00:00:00+00:00"^^xsd:dateTime ;
	isoT:lastChangeDate "2017-11-16T00:00:00+00:00"^^xsd:dateTime ;
	isoT:explanatoryComment ""^^xsd:string ;
	bd:rule ""^^xsd:string ;
	bd:ordinal "1"^^xsd:positiveInteger ;
	bd:includesColumn <http://www.cdisc.org/SDTM_MODEL_SUPPQUAL/V4#CL_STUDYID> ;
	bd:includesColumn <http://www.cdisc.org/SDTM_MODEL_SUPPQUAL/V1#CL_RDOMAIN> ;
	bd:includesColumn <http://www.cdisc.org/SDTM_MODEL_SUPPQUAL/V4#CL_USUBJID> ;
	bd:includesColumn <http://www.cdisc.org/SDTM_MODEL_SUPPQUAL/V4#CL_POOLID> ;
	bd:includesColumn <http://www.cdisc.org/SDTM_MODEL_SUPPQUAL/V4#CL_IDVAR> ;
	bd:includesColumn <http://www.cdisc.org/SDTM_MODEL_SUPPQUAL/V4#CL_IDVARVAL> ;
	bd:includesColumn <http://www.cdisc.org/SDTM_MODEL_SUPPQUAL/V4#CL_QNAM> ;
	bd:includesColumn <http://www.cdisc.org/SDTM_MODEL_SUPPQUAL/V4#CL_QLABEL> ;
	bd:includesColumn <http://www.cdisc.org/SDTM_MODEL_SUPPQUAL/V4#CL_QVAL> ;
	bd:includesColumn <http://www.cdisc.org/SDTM_MODEL_SUPPQUAL/V4#CL_QORIG> ;
	bd:includesColumn <http://www.cdisc.org/SDTM_MODEL_SUPPQUAL/V4#CL_QEVAL> ;
.
<http://www.cdisc.org/SDTM_MODEL_SUPPQUAL/V5#CL_RS>
	rdf:type isoR:RegistrationState ;
	isoR:registrationStatus "Standard"^^xsd:string ;
	isoR:administrativeNote ""^^xsd:string ;
	isoR:effectiveDate "2016-01-01T00:00:00+00:00"^^xsd:dateTime ;
	isoR:untilDate "2016-01-01T00:00:00+00:00"^^xsd:dateTime ;
	isoR:unresolvedIssue ""^^xsd:string ;
	isoR:administrativeStatus ""^^xsd:string ;
	isoR:previousState "Standard"^^xsd:string ;
	isoR:multipleEdit "false"^^xsd:boolean ;
	isoR:byAuthority <http://www.assero.co.uk/RA#DUNS084433759> ;
.
<http://www.cdisc.org/SDTM_MODEL_SUPPQUAL/V5#CL_SI>
	rdf:type isoI:ScopedIdentifier ;
	isoI:identifier "SDTM MODEL SUPPQUAL"^^xsd:string ;
	isoI:versionLabel "2017-11-16 Release"^^xsd:string ;
	isoI:version "5"^^xsd:positiveInteger ;
	isoI:semanticVersion "5.0.0"^^xsd:string ;
	isoI:hasScope <http://www.assero.co.uk/NS#CDISC> ;
.
<http://www.cdisc.org/SDTM_MODEL_CO/V5#CL>
	rdf:type bd:SdtmClass ;
	isoC:label "CO"^^xsd:string ;
	isoT:hasState <http://www.cdisc.org/SDTM_MODEL_CO/V5#CL_RS> ;
	isoT:hasIdentifier <http://www.cdisc.org/SDTM_MODEL_CO/V5#CL_SI> ;
	isoT:hasPreviousVersion <http://www.cdisc.org/SDTM_MODEL_CO/V4#CL> ;
	isoT:origin ""^^xsd:string ;
	isoT:changeDescription ""^^xsd:string ;
	isoT:creationDate "2017-11-16T00:00:00+00:00"^^xsd:dateTime ;
	isoT:lastChangeDate "2017-11-16T00:00:00+00:00"^^xsd:dateTime ;
	isoT:explanatoryComment ""^^xsd:string ;
	bd:rule ""^^xsd:string ;
	bd:ordinal "1"^^xsd:positiveInteger ;
	bd:includesColumn <http://www.cdisc.org/SDTM_MODEL_CO/V1#CL_STUDYID> ;
	bd:includesColumn <http://www.cdisc.org/SDTM_MODEL_CO/V1#CL_DOMAIN> ;
	bd:includesColumn <http://www.cdisc.org/SDTM_MODEL_CO/V4#CL_RDOMAIN> ;
	bd:includesColumn <http://www.cdisc.org/SDTM_MODEL_CO/V4#CL_USUBJID> ;
	bd:includesColumn <http://www.cdisc.org/SDTM_MODEL_CO/V4#CL_POOLID> ;
	bd:includesColumn <http://www.cdisc.org/SDTM_MODEL_CO/V4#CL_COSEQ> ;
	bd:includesColumn <http://www.cdisc.org/SDTM_MODEL_CO/V4#CL_IDVAR> ;
	bd:includesColumn <http://www.cdisc.org/SDTM_MODEL_CO/V4#CL_IDVARVAL> ;
	bd:includesColumn <http://www.cdisc.org/SDTM_MODEL_CO/V4#CL_COREF> ;
	bd:includesColumn <http://www.cdisc.org/SDTM_MODEL_CO/V4#CL_COVAL> ;
	bd:includesColumn <http://www.cdisc.org/SDTM_MODEL_CO/V4#CL_COEVAL> ;
	bd:includesColumn <http://www.cdisc.org/SDTM_MODEL_CO/V4#CL_CODTC> ;
	bd:includesColumn <http://www.cdisc.org/SDTM_MODEL_CO/V4#CL_CODY> ;
.
<http://www.cdisc.org/SDTM_MODEL_CO/V5#CL_RS>
	rdf:type isoR:RegistrationState ;
	isoR:registrationStatus "Standard"^^xsd:string ;
	isoR:administrativeNote ""^^xsd:string ;
	isoR:effectiveDate "2016-01-01T00:00:00+00:00"^^xsd:dateTime ;
	isoR:untilDate "2016-01-01T00:00:00+00:00"^^xsd:dateTime ;
	isoR:unresolvedIssue ""^^xsd:string ;
	isoR:administrativeStatus ""^^xsd:string ;
	isoR:previousState "Standard"^^xsd:string ;
	isoR:multipleEdit "false"^^xsd:boolean ;
	isoR:byAuthority <http://www.assero.co.uk/RA#DUNS084433759> ;
.
<http://www.cdisc.org/SDTM_MODEL_CO/V5#CL_SI>
	rdf:type isoI:ScopedIdentifier ;
	isoI:identifier "SDTM MODEL CO"^^xsd:string ;
	isoI:versionLabel "2017-11-16 Release"^^xsd:string ;
	isoI:version "5"^^xsd:positiveInteger ;
	isoI:semanticVersion "5.0.0"^^xsd:string ;
	isoI:hasScope <http://www.assero.co.uk/NS#CDISC> ;
.
<http://www.cdisc.org/SDTM_MODEL_DM/V5#CL>
	rdf:type bd:SdtmClass ;
	isoC:label "DM"^^xsd:string ;
	isoT:hasState <http://www.cdisc.org/SDTM_MODEL_DM/V5#CL_RS> ;
	isoT:hasIdentifier <http://www.cdisc.org/SDTM_MODEL_DM/V5#CL_SI> ;
	isoT:hasPreviousVersion <http://www.cdisc.org/SDTM_MODEL_DM/V4#CL> ;
	isoT:origin ""^^xsd:string ;
	isoT:changeDescription ""^^xsd:string ;
	isoT:creationDate "2017-11-16T00:00:00+00:00"^^xsd:dateTime ;
	isoT:lastChangeDate "2017-11-16T00:00:00+00:00"^^xsd:dateTime ;
	isoT:explanatoryComment ""^^xsd:string ;
	bd:rule ""^^xsd:string ;
	bd:ordinal "1"^^xsd:positiveInteger ;
	bd:includesColumn <http://www.cdisc.org/SDTM_MODEL_DM/V1#CL_STUDYID> ;
	bd:includesColumn <http://www.cdisc.org/SDTM_MODEL_DM/V1#CL_DOMAIN> ;
	bd:includesColumn <http://www.cdisc.org/SDTM_MODEL_DM/V4#CL_USUBJID> ;
	bd:includesColumn <http://www.cdisc.org/SDTM_MODEL_DM/V4#CL_SUBJID> ;
	bd:includesColumn <http://www.cdisc.org/SDTM_MODEL_DM/V4#CL_RFSTDTC> ;
	bd:includesColumn <http://www.cdisc.org/SDTM_MODEL_DM/V4#CL_RFENDTC> ;
	bd:includesColumn <http://www.cdisc.org/SDTM_MODEL_DM/V4#CL_RFXSTDTC> ;
	bd:includesColumn <http://www.cdisc.org/SDTM_MODEL_DM/V4#CL_RFXENDTC> ;
	bd:includesColumn <http://www.cdisc.org/SDTM_MODEL_DM/V4#CL_SITEID> ;
	bd:includesColumn <http://www.cdisc.org/SDTM_MODEL_DM/V4#CL_BRTHDTC> ;
	bd:includesColumn <http://www.cdisc.org/SDTM_MODEL_DM/V4#CL_AGE> ;
	bd:includesColumn <http://www.cdisc.org/SDTM_MODEL_DM/V4#CL_AGETXT> ;
	bd:includesColumn <http://www.cdisc.org/SDTM_MODEL_DM/V4#CL_AGEU> ;
	bd:includesColumn <http://www.cdisc.org/SDTM_MODEL_DM/V4#CL_SEX> ;
	bd:includesColumn <http://www.cdisc.org/SDTM_MODEL_DM/V4#CL_SPECIES> ;
	bd:includesColumn <http://www.cdisc.org/SDTM_MODEL_DM/V4#CL_STRAIN> ;
	bd:includesColumn <http://www.cdisc.org/SDTM_MODEL_DM/V4#CL_SBSTRAIN> ;
	bd:includesColumn <http://www.cdisc.org/SDTM_MODEL_DM/V4#CL_ARMCD> ;
	bd:includesColumn <http://www.cdisc.org/SDTM_MODEL_DM/V4#CL_ARM> ;
	bd:includesColumn <http://www.cdisc.org/SDTM_MODEL_DM/V4#CL_SETCD> ;
.
<http://www.cdisc.org/SDTM_MODEL_DM/V5#CL_RS>
	rdf:type isoR:RegistrationState ;
	isoR:registrationStatus "Standard"^^xsd:string ;
	isoR:administrativeNote ""^^xsd:string ;
	isoR:effectiveDate "2016-01-01T00:00:00+00:00"^^xsd:dateTime ;
	isoR:untilDate "2016-01-01T00:00:00+00:00"^^xsd:dateTime ;
	isoR:unresolvedIssue ""^^xsd:string ;
	isoR:administrativeStatus ""^^xsd:string ;
	isoR:previousState "Standard"^^xsd:string ;
	isoR:multipleEdit "false"^^xsd:boolean ;
	isoR:byAuthority <http://www.assero.co.uk/RA#DUNS084433759> ;
.
<http://www.cdisc.org/SDTM_MODEL_DM/V5#CL_SI>
	rdf:type isoI:ScopedIdentifier ;
	isoI:identifier "SDTM MODEL DM"^^xsd:string ;
	isoI:versionLabel "2017-11-16 Release"^^xsd:string ;
	isoI:version "5"^^xsd:positiveInteger ;
	isoI:semanticVersion "5.0.0"^^xsd:string ;
	isoI:hasScope <http://www.assero.co.uk/NS#CDISC> ;
.
<http://www.cdisc.org/SDTM_MODEL_SE/V5#CL>
	rdf:type bd:SdtmClass ;
	isoC:label "SE"^^xsd:string ;
	isoT:hasState <http://www.cdisc.org/SDTM_MODEL_SE/V5#CL_RS> ;
	isoT:hasIdentifier <http://www.cdisc.org/SDTM_MODEL_SE/V5#CL_SI> ;
	isoT:hasPreviousVersion <http://www.cdisc.org/SDTM_MODEL_SE/V4#CL> ;
	isoT:origin ""^^xsd:string ;
	isoT:changeDescription ""^^xsd:string ;
	isoT:creationDate "2017-11-16T00:00:00+00:00"^^xsd:dateTime ;
	isoT:lastChangeDate "2017-11-16T00:00:00+00:00"^^xsd:dateTime ;
	isoT:explanatoryComment ""^^xsd:string ;
	bd:rule ""^^xsd:string ;
	bd:ordinal "1"^^xsd:positiveInteger ;
	bd:includesColumn <http://www.cdisc.org/SDTM_MODEL_SE/V1#CL_STUDYID> ;
	bd:includesColumn <http://www.cdisc.org/SDTM_MODEL_SE/V1#CL_DOMAIN> ;
	bd:includesColumn <http://www.cdisc.org/SDTM_MODEL_SE/V1#CL_USUBJID> ;
	bd:includesColumn <http://www.cdisc.org/SDTM_MODEL_SE/V4#CL_SESEQ> ;
	bd:includesColumn <http://www.cdisc.org/SDTM_MODEL_SE/V4#CL_ETCD> ;
	bd:includesColumn <http://www.cdisc.org/SDTM_MODEL_SE/V4#CL_ELEMENT> ;
	bd:includesColumn <http://www.cdisc.org/SDTM_MODEL_SE/V4#CL_SESTDTC> ;
	bd:includesColumn <http://www.cdisc.org/SDTM_MODEL_SE/V4#CL_SEENDTC> ;
	bd:includesColumn <http://www.cdisc.org/SDTM_MODEL_SE/V4#CL_SEUPDES> ;
.
<http://www.cdisc.org/SDTM_MODEL_SE/V5#CL_RS>
	rdf:type isoR:RegistrationState ;
	isoR:registrationStatus "Standard"^^xsd:string ;
	isoR:administrativeNote ""^^xsd:string ;
	isoR:effectiveDate "2016-01-01T00:00:00+00:00"^^xsd:dateTime ;
	isoR:untilDate "2016-01-01T00:00:00+00:00"^^xsd:dateTime ;
	isoR:unresolvedIssue ""^^xsd:string ;
	isoR:administrativeStatus ""^^xsd:string ;
	isoR:previousState "Standard"^^xsd:string ;
	isoR:multipleEdit "false"^^xsd:boolean ;
	isoR:byAuthority <http://www.assero.co.uk/RA#DUNS084433759> ;
.
<http://www.cdisc.org/SDTM_MODEL_SE/V5#CL_SI>
	rdf:type isoI:ScopedIdentifier ;
	isoI:identifier "SDTM MODEL SE"^^xsd:string ;
	isoI:versionLabel "2017-11-16 Release"^^xsd:string ;
	isoI:version "5"^^xsd:positiveInteger ;
	isoI:semanticVersion "5.0.0"^^xsd:string ;
	isoI:hasScope <http://www.assero.co.uk/NS#CDISC> ;
.
<http://www.cdisc.org/SDTM_MODEL_TA/V5#CL>
	rdf:type bd:SdtmClass ;
	isoC:label "TA"^^xsd:string ;
	isoT:hasState <http://www.cdisc.org/SDTM_MODEL_TA/V5#CL_RS> ;
	isoT:hasIdentifier <http://www.cdisc.org/SDTM_MODEL_TA/V5#CL_SI> ;
	isoT:hasPreviousVersion <http://www.cdisc.org/SDTM_MODEL_TA/V4#CL> ;
	isoT:origin ""^^xsd:string ;
	isoT:changeDescription ""^^xsd:string ;
	isoT:creationDate "2017-11-16T00:00:00+00:00"^^xsd:dateTime ;
	isoT:lastChangeDate "2017-11-16T00:00:00+00:00"^^xsd:dateTime ;
	isoT:explanatoryComment ""^^xsd:string ;
	bd:rule ""^^xsd:string ;
	bd:ordinal "1"^^xsd:positiveInteger ;
	bd:includesColumn <http://www.cdisc.org/SDTM_MODEL_TA/V1#CL_STUDYID> ;
	bd:includesColumn <http://www.cdisc.org/SDTM_MODEL_TA/V1#CL_DOMAIN> ;
	bd:includesColumn <http://www.cdisc.org/SDTM_MODEL_TA/V4#CL_ARMCD> ;
	bd:includesColumn <http://www.cdisc.org/SDTM_MODEL_TA/V4#CL_ARM> ;
	bd:includesColumn <http://www.cdisc.org/SDTM_MODEL_TA/V4#CL_TAETORD> ;
	bd:includesColumn <http://www.cdisc.org/SDTM_MODEL_TA/V4#CL_ETCD> ;
	bd:includesColumn <http://www.cdisc.org/SDTM_MODEL_TA/V4#CL_ELEMENT> ;
	bd:includesColumn <http://www.cdisc.org/SDTM_MODEL_TA/V4#CL_TABRANCH> ;
	bd:includesColumn <http://www.cdisc.org/SDTM_MODEL_TA/V4#CL_TATRANS> ;
	bd:includesColumn <http://www.cdisc.org/SDTM_MODEL_TA/V4#CL_EPOCH> ;
.
<http://www.cdisc.org/SDTM_MODEL_TA/V5#CL_RS>
	rdf:type isoR:RegistrationState ;
	isoR:registrationStatus "Standard"^^xsd:string ;
	isoR:administrativeNote ""^^xsd:string ;
	isoR:effectiveDate "2016-01-01T00:00:00+00:00"^^xsd:dateTime ;
	isoR:untilDate "2016-01-01T00:00:00+00:00"^^xsd:dateTime ;
	isoR:unresolvedIssue ""^^xsd:string ;
	isoR:administrativeStatus ""^^xsd:string ;
	isoR:previousState "Standard"^^xsd:string ;
	isoR:multipleEdit "false"^^xsd:boolean ;
	isoR:byAuthority <http://www.assero.co.uk/RA#DUNS084433759> ;
.
<http://www.cdisc.org/SDTM_MODEL_TA/V5#CL_SI>
	rdf:type isoI:ScopedIdentifier ;
	isoI:identifier "SDTM MODEL TA"^^xsd:string ;
	isoI:versionLabel "2017-11-16 Release"^^xsd:string ;
	isoI:version "5"^^xsd:positiveInteger ;
	isoI:semanticVersion "5.0.0"^^xsd:string ;
	isoI:hasScope <http://www.assero.co.uk/NS#CDISC> ;
.
<http://www.cdisc.org/SDTM_MODEL_TE/V5#CL>
	rdf:type bd:SdtmClass ;
	isoC:label "TE"^^xsd:string ;
	isoT:hasState <http://www.cdisc.org/SDTM_MODEL_TE/V5#CL_RS> ;
	isoT:hasIdentifier <http://www.cdisc.org/SDTM_MODEL_TE/V5#CL_SI> ;
	isoT:hasPreviousVersion <http://www.cdisc.org/SDTM_MODEL_TE/V4#CL> ;
	isoT:origin ""^^xsd:string ;
	isoT:changeDescription ""^^xsd:string ;
	isoT:creationDate "2017-11-16T00:00:00+00:00"^^xsd:dateTime ;
	isoT:lastChangeDate "2017-11-16T00:00:00+00:00"^^xsd:dateTime ;
	isoT:explanatoryComment ""^^xsd:string ;
	bd:rule ""^^xsd:string ;
	bd:ordinal "1"^^xsd:positiveInteger ;
	bd:includesColumn <http://www.cdisc.org/SDTM_MODEL_TE/V1#CL_STUDYID> ;
	bd:includesColumn <http://www.cdisc.org/SDTM_MODEL_TE/V1#CL_DOMAIN> ;
	bd:includesColumn <http://www.cdisc.org/SDTM_MODEL_TE/V4#CL_ETCD> ;
	bd:includesColumn <http://www.cdisc.org/SDTM_MODEL_TE/V2#CL_ELEMENT> ;
	bd:includesColumn <http://www.cdisc.org/SDTM_MODEL_TE/V1#CL_TESTRL> ;
	bd:includesColumn <http://www.cdisc.org/SDTM_MODEL_TE/V4#CL_TEENRL> ;
	bd:includesColumn <http://www.cdisc.org/SDTM_MODEL_TE/V4#CL_TEDUR> ;
.
<http://www.cdisc.org/SDTM_MODEL_TE/V5#CL_RS>
	rdf:type isoR:RegistrationState ;
	isoR:registrationStatus "Standard"^^xsd:string ;
	isoR:administrativeNote ""^^xsd:string ;
	isoR:effectiveDate "2016-01-01T00:00:00+00:00"^^xsd:dateTime ;
	isoR:untilDate "2016-01-01T00:00:00+00:00"^^xsd:dateTime ;
	isoR:unresolvedIssue ""^^xsd:string ;
	isoR:administrativeStatus ""^^xsd:string ;
	isoR:previousState "Standard"^^xsd:string ;
	isoR:multipleEdit "false"^^xsd:boolean ;
	isoR:byAuthority <http://www.assero.co.uk/RA#DUNS084433759> ;
.
<http://www.cdisc.org/SDTM_MODEL_TE/V5#CL_SI>
	rdf:type isoI:ScopedIdentifier ;
	isoI:identifier "SDTM MODEL TE"^^xsd:string ;
	isoI:versionLabel "2017-11-16 Release"^^xsd:string ;
	isoI:version "5"^^xsd:positiveInteger ;
	isoI:semanticVersion "5.0.0"^^xsd:string ;
	isoI:hasScope <http://www.assero.co.uk/NS#CDISC> ;
.
<http://www.cdisc.org/SDTM_MODEL_TS/V5#CL>
	rdf:type bd:SdtmClass ;
	isoC:label "TS"^^xsd:string ;
	isoT:hasState <http://www.cdisc.org/SDTM_MODEL_TS/V5#CL_RS> ;
	isoT:hasIdentifier <http://www.cdisc.org/SDTM_MODEL_TS/V5#CL_SI> ;
	isoT:hasPreviousVersion <http://www.cdisc.org/SDTM_MODEL_TS/V4#CL> ;
	isoT:origin ""^^xsd:string ;
	isoT:changeDescription ""^^xsd:string ;
	isoT:creationDate "2017-11-16T00:00:00+00:00"^^xsd:dateTime ;
	isoT:lastChangeDate "2017-11-16T00:00:00+00:00"^^xsd:dateTime ;
	isoT:explanatoryComment ""^^xsd:string ;
	bd:rule ""^^xsd:string ;
	bd:ordinal "1"^^xsd:positiveInteger ;
	bd:includesColumn <http://www.cdisc.org/SDTM_MODEL_TS/V4#CL_STUDYID> ;
	bd:includesColumn <http://www.cdisc.org/SDTM_MODEL_TS/V4#CL_DOMAIN> ;
	bd:includesColumn <http://www.cdisc.org/SDTM_MODEL_TS/V4#CL_TSSEQ> ;
	bd:includesColumn <http://www.cdisc.org/SDTM_MODEL_TS/V4#CL_TSGRPID> ;
	bd:includesColumn <http://www.cdisc.org/SDTM_MODEL_TS/V4#CL_TSPARMCD> ;
	bd:includesColumn <http://www.cdisc.org/SDTM_MODEL_TS/V4#CL_TSPARM> ;
	bd:includesColumn <http://www.cdisc.org/SDTM_MODEL_TS/V4#CL_TSVAL> ;
	bd:includesColumn <http://www.cdisc.org/SDTM_MODEL_TS/V4#CL_TSVALNF> ;
.
<http://www.cdisc.org/SDTM_MODEL_TS/V5#CL_RS>
	rdf:type isoR:RegistrationState ;
	isoR:registrationStatus "Standard"^^xsd:string ;
	isoR:administrativeNote ""^^xsd:string ;
	isoR:effectiveDate "2016-01-01T00:00:00+00:00"^^xsd:dateTime ;
	isoR:untilDate "2016-01-01T00:00:00+00:00"^^xsd:dateTime ;
	isoR:unresolvedIssue ""^^xsd:string ;
	isoR:administrativeStatus ""^^xsd:string ;
	isoR:previousState "Standard"^^xsd:string ;
	isoR:multipleEdit "false"^^xsd:boolean ;
	isoR:byAuthority <http://www.assero.co.uk/RA#DUNS084433759> ;
.
<http://www.cdisc.org/SDTM_MODEL_TS/V5#CL_SI>
	rdf:type isoI:ScopedIdentifier ;
	isoI:identifier "SDTM MODEL TS"^^xsd:string ;
	isoI:versionLabel "2017-11-16 Release"^^xsd:string ;
	isoI:version "5"^^xsd:positiveInteger ;
	isoI:semanticVersion "5.0.0"^^xsd:string ;
	isoI:hasScope <http://www.assero.co.uk/NS#CDISC> ;
.
<http://www.cdisc.org/SDTM_MODEL_TX/V5#CL>
	rdf:type bd:SdtmClass ;
	isoC:label "TX"^^xsd:string ;
	isoT:hasState <http://www.cdisc.org/SDTM_MODEL_TX/V5#CL_RS> ;
	isoT:hasIdentifier <http://www.cdisc.org/SDTM_MODEL_TX/V5#CL_SI> ;
	isoT:hasPreviousVersion <http://www.cdisc.org/SDTM_MODEL_TX/V4#CL> ;
	isoT:origin ""^^xsd:string ;
	isoT:changeDescription ""^^xsd:string ;
	isoT:creationDate "2017-11-16T00:00:00+00:00"^^xsd:dateTime ;
	isoT:lastChangeDate "2017-11-16T00:00:00+00:00"^^xsd:dateTime ;
	isoT:explanatoryComment ""^^xsd:string ;
	bd:rule ""^^xsd:string ;
	bd:ordinal "1"^^xsd:positiveInteger ;
	bd:includesColumn <http://www.cdisc.org/SDTM_MODEL_TX/V4#CL_STUDYID> ;
	bd:includesColumn <http://www.cdisc.org/SDTM_MODEL_TX/V4#CL_DOMAIN> ;
	bd:includesColumn <http://www.cdisc.org/SDTM_MODEL_TX/V4#CL_SETCD> ;
	bd:includesColumn <http://www.cdisc.org/SDTM_MODEL_TX/V4#CL_SET> ;
	bd:includesColumn <http://www.cdisc.org/SDTM_MODEL_TX/V4#CL_TXSEQ> ;
	bd:includesColumn <http://www.cdisc.org/SDTM_MODEL_TX/V4#CL_TXPARMCD> ;
	bd:includesColumn <http://www.cdisc.org/SDTM_MODEL_TX/V4#CL_TXPARM> ;
	bd:includesColumn <http://www.cdisc.org/SDTM_MODEL_TX/V4#CL_TXVAL> ;
.
<http://www.cdisc.org/SDTM_MODEL_TX/V5#CL_RS>
	rdf:type isoR:RegistrationState ;
	isoR:registrationStatus "Standard"^^xsd:string ;
	isoR:administrativeNote ""^^xsd:string ;
	isoR:effectiveDate "2016-01-01T00:00:00+00:00"^^xsd:dateTime ;
	isoR:untilDate "2016-01-01T00:00:00+00:00"^^xsd:dateTime ;
	isoR:unresolvedIssue ""^^xsd:string ;
	isoR:administrativeStatus ""^^xsd:string ;
	isoR:previousState "Standard"^^xsd:string ;
	isoR:multipleEdit "false"^^xsd:boolean ;
	isoR:byAuthority <http://www.assero.co.uk/RA#DUNS084433759> ;
.
<http://www.cdisc.org/SDTM_MODEL_TX/V5#CL_SI>
	rdf:type isoI:ScopedIdentifier ;
	isoI:identifier "SDTM MODEL TX"^^xsd:string ;
	isoI:versionLabel "2017-11-16 Release"^^xsd:string ;
	isoI:version "5"^^xsd:positiveInteger ;
	isoI:semanticVersion "5.0.0"^^xsd:string ;
	isoI:hasScope <http://www.assero.co.uk/NS#CDISC> ;
.