@prefix : <http://www.cdisc.org/SDTM_MODEL/V4#> .
@prefix bd: <http://www.assero.co.uk/Tabulation#> .
@prefix isoC: <http://www.assero.co.uk/ISO11179Concepts#> .
@prefix isoT: <http://www.assero.co.uk/ISO11179Types#> .
@prefix isoR: <http://www.assero.co.uk/ISO11179Registration#> .
@prefix isoI: <http://www.assero.co.uk/ISO11179Identification#> .
@prefix bo: <http://www.assero.co.uk/BusinessOperational#> .
@prefix owl: <http://www.w3.org/2002/07/owl#> .
@prefix rdf: <http://www.w3.org/1999/02/22-rdf-syntax-ns#> .
@prefix rdfs: <http://www.w3.org/2000/01/rdf-schema#> .
@prefix xsd: <http://www.w3.org/2001/XMLSchema#> .
@prefix skos: <http://www.w3.org/2004/02/skos/core#> .

<http://www.cdisc.org/SDTM_MODEL/V4>
	rdf:type owl:Ontology ;
.
:M
	rdf:type bd:Model ;
	isoC:label "Controlled Terminology"^^xsd:string ;
	isoT:hasState :M_RS ;
	isoT:hasIdentifier :M_SI ;
	isoT:origin "Created from files: 'sdtm_1-5.xlsx'"^^xsd:string ;
	isoT:changeDescription ""^^xsd:string ;
	isoT:creationDate "2016-07-05T00:00:00+00:00"^^xsd:dateTime ;
	isoT:lastChangeDate "2016-07-05T00:00:00+00:00"^^xsd:dateTime ;
	isoT:explanatoryComment ""^^xsd:string ;
	bo:hasManaged :M_R1 ;
	bo:hasManaged :M_R2 ;
	bo:hasManaged :M_R3 ;
	bo:hasManaged :M_R4 ;
	bo:hasManaged :M_R5 ;
	bo:hasManaged :M_R6 ;
	bo:hasManaged :M_R7 ;
	bo:hasManaged :M_R8 ;
	bo:hasManaged :M_R9 ;
	bo:hasManaged :M_R10 ;
	bo:hasManaged :M_R11 ;
	bo:hasManaged :M_R12 ;
	bo:hasManaged :M_R13 ;
.
:M_RS
	rdf:type isoR:RegistrationState ;
	isoR:registrationStatus "Standard"^^xsd:string ;
	isoR:administrativeNote ""^^xsd:string ;
	isoR:effectiveDate "2016-01-01T00:00:00+00:00"^^xsd:dateTime ;
	isoR:untilDate "2016-01-01T00:00:00+00:00"^^xsd:dateTime ;
	isoR:unresolvedIssue ""^^xsd:string ;
	isoR:administrativeStatus ""^^xsd:string ;
	isoR:previousState "Standard"^^xsd:string ;
	isoR:multipleEdit "false"^^xsd:boolean ;
	isoR:byAuthority <http://www.assero.co.uk/RA#DUNS084433759> ;
.
:M_SI
	rdf:type isoI:ScopedIdentifier ;
	isoI:identifier "SDTM MODEL"^^xsd:string ;
	isoI:versionLabel "2016-07-05 Release"^^xsd:string ;
	isoI:version "4"^^xsd:positiveInteger ;
	isoI:semanticVersion "4.0.0"^^xsd:string ;
	isoI:hasScope <http://www.assero.co.uk/NS#CDISC> ;
.
:M_R1
	rdf:type bo:Reference ;
	isoC:label ""^^xsd:string ;
	bo:enabled "true"^^xsd:boolean ;
	bo:optional "false"^^xsd:boolean ;
	bo:ordinal "1"^^xsd:positiveInteger ;
	bo:reference <http://www.cdisc.org/SDTM_MODEL_EVENTS/V4#CL> ;
.
:M_R2
	rdf:type bo:Reference ;
	isoC:label ""^^xsd:string ;
	bo:enabled "true"^^xsd:boolean ;
	bo:optional "false"^^xsd:boolean ;
	bo:ordinal "2"^^xsd:positiveInteger ;
	bo:reference <http://www.cdisc.org/SDTM_MODEL_FINDINGS/V4#CL> ;
.
:M_R3
	rdf:type bo:Reference ;
	isoC:label ""^^xsd:string ;
	bo:enabled "true"^^xsd:boolean ;
	bo:optional "false"^^xsd:boolean ;
	bo:ordinal "3"^^xsd:positiveInteger ;
	bo:reference <http://www.cdisc.org/SDTM_MODEL_INTERVENTIONS/V4#CL> ;
.
:M_R4
	rdf:type bo:Reference ;
	isoC:label ""^^xsd:string ;
	bo:enabled "true"^^xsd:boolean ;
	bo:optional "false"^^xsd:boolean ;
	bo:ordinal "4"^^xsd:positiveInteger ;
	bo:reference <http://www.cdisc.org/POOLDEF/V4#CL> ;
.
:M_R5
	rdf:type bo:Reference ;
	isoC:label ""^^xsd:string ;
	bo:enabled "true"^^xsd:boolean ;
	bo:optional "false"^^xsd:boolean ;
	bo:ordinal "5"^^xsd:positiveInteger ;
	bo:reference <http://www.cdisc.org/RELREC/V4#CL> ;
.
:M_R6
	rdf:type bo:Reference ;
	isoC:label ""^^xsd:string ;
	bo:enabled "true"^^xsd:boolean ;
	bo:optional "false"^^xsd:boolean ;
	bo:ordinal "6"^^xsd:positiveInteger ;
	bo:reference <http://www.cdisc.org/SUPPQUAL/V4#CL> ;
.
:M_R7
	rdf:type bo:Reference ;
	isoC:label ""^^xsd:string ;
	bo:enabled "true"^^xsd:boolean ;
	bo:optional "false"^^xsd:boolean ;
	bo:ordinal "7"^^xsd:positiveInteger ;
	bo:reference <http://www.cdisc.org/CO/V4#CL> ;
.
:M_R8
	rdf:type bo:Reference ;
	isoC:label ""^^xsd:string ;
	bo:enabled "true"^^xsd:boolean ;
	bo:optional "false"^^xsd:boolean ;
	bo:ordinal "8"^^xsd:positiveInteger ;
	bo:reference <http://www.cdisc.org/DM/V4#CL> ;
.
:M_R9
	rdf:type bo:Reference ;
	isoC:label ""^^xsd:string ;
	bo:enabled "true"^^xsd:boolean ;
	bo:optional "false"^^xsd:boolean ;
	bo:ordinal "9"^^xsd:positiveInteger ;
	bo:reference <http://www.cdisc.org/SE/V4#CL> ;
.
:M_R10
	rdf:type bo:Reference ;
	isoC:label ""^^xsd:string ;
	bo:enabled "true"^^xsd:boolean ;
	bo:optional "false"^^xsd:boolean ;
	bo:ordinal "10"^^xsd:positiveInteger ;
	bo:reference <http://www.cdisc.org/TA/V4#CL> ;
.
:M_R11
	rdf:type bo:Reference ;
	isoC:label ""^^xsd:string ;
	bo:enabled "true"^^xsd:boolean ;
	bo:optional "false"^^xsd:boolean ;
	bo:ordinal "11"^^xsd:positiveInteger ;
	bo:reference <http://www.cdisc.org/TE/V4#CL> ;
.
:M_R12
	rdf:type bo:Reference ;
	isoC:label ""^^xsd:string ;
	bo:enabled "true"^^xsd:boolean ;
	bo:optional "false"^^xsd:boolean ;
	bo:ordinal "12"^^xsd:positiveInteger ;
	bo:reference <http://www.cdisc.org/TS/V4#CL> ;
.
:M_R13
	rdf:type bo:Reference ;
	isoC:label ""^^xsd:string ;
	bo:enabled "true"^^xsd:boolean ;
	bo:optional "false"^^xsd:boolean ;
	bo:ordinal "13"^^xsd:positiveInteger ;
	bo:reference <http://www.cdisc.org/TX/V4#CL> ;
.
<http://www.cdisc.org/SDTM_MODEL_EVENTS/V4#CL>
	rdf:type bd:SdtmClass ;
	isoC:label "SDTM MODEL EVENTS"^^xsd:string ;
	isoT:hasState <http://www.cdisc.org/SDTM_MODEL_EVENTS/V4#CL_RS> ;
	isoT:hasIdentifier <http://www.cdisc.org/SDTM_MODEL_EVENTS/V4#CL_SI> ;
	isoT:origin ""^^xsd:string ;
	isoT:changeDescription ""^^xsd:string ;
	isoT:creationDate "2016-07-05T00:00:00+00:00"^^xsd:dateTime ;
	isoT:lastChangeDate "2016-07-05T00:00:00+00:00"^^xsd:dateTime ;
	isoT:explanatoryComment ""^^xsd:string ;
	bd:rule ""^^xsd:string ;
	bd:ordinal "1"^^xsd:positiveInteger ;
	bd:includesColumn <http://www.cdisc.org/SDTM_MODEL_ALL/V1#CL_MVSTUDYID> ;
	bd:includesColumn <http://www.cdisc.org/SDTM_MODEL_ALL/V2#CL_MVDOMAIN> ;
	bd:includesColumn <http://www.cdisc.org/SDTM_MODEL_ALL/V1#CL_MVUSUBJID> ;
	bd:includesColumn <http://www.cdisc.org/SDTM_MODEL_ALL/V4#CL_MVAPID> ;
	bd:includesColumn <http://www.cdisc.org/SDTM_MODEL_ALL/V4#CL_MVPOOLID> ;
	bd:includesColumn <http://www.cdisc.org/SDTM_MODEL_ALL/V4#CL_MVSPDEVID> ;
	bd:includesColumn <http://www.cdisc.org/SDTM_MODEL_ALL/V4#CL_MVFETUSID> ;
	bd:includesColumn <http://www.cdisc.org/SDTM_MODEL_ALL/V4#CL_MVFOCID> ;
	bd:includesColumn <http://www.cdisc.org/SDTM_MODEL_ALL/V4#CL_MV--SEQ> ;
	bd:includesColumn <http://www.cdisc.org/SDTM_MODEL_ALL/V4#CL_MV--GRPID> ;
	bd:includesColumn <http://www.cdisc.org/SDTM_MODEL_ALL/V4#CL_MV--REFID> ;
	bd:includesColumn <http://www.cdisc.org/SDTM_MODEL_ALL/V4#CL_MV--RECID> ;
	bd:includesColumn <http://www.cdisc.org/SDTM_MODEL_ALL/V4#CL_MV--SPID> ;
	bd:includesColumn <http://www.cdisc.org/SDTM_MODEL_ALL/V4#CL_MV--LNKID> ;
	bd:includesColumn <http://www.cdisc.org/SDTM_MODEL_ALL/V4#CL_MV--LNKGRP> ;
	bd:includesColumn <http://www.cdisc.org/SDTM_MODEL_ALL/V4#CL_MVVISITNUM> ;
	bd:includesColumn <http://www.cdisc.org/SDTM_MODEL_ALL/V4#CL_MVVISIT> ;
	bd:includesColumn <http://www.cdisc.org/SDTM_MODEL_ALL/V4#CL_MVVISITDY> ;
	bd:includesColumn <http://www.cdisc.org/SDTM_MODEL_ALL/V4#CL_MVTAETORD> ;
	bd:includesColumn <http://www.cdisc.org/SDTM_MODEL_ALL/V4#CL_MVEPOCH> ;
	bd:includesColumn <http://www.cdisc.org/SDTM_MODEL_ALL/V4#CL_MV--DTC> ;
	bd:includesColumn <http://www.cdisc.org/SDTM_MODEL_ALL/V4#CL_MV--STDTC> ;
	bd:includesColumn <http://www.cdisc.org/SDTM_MODEL_ALL/V4#CL_MV--ENDTC> ;
	bd:includesColumn <http://www.cdisc.org/SDTM_MODEL_ALL/V4#CL_MV--DY> ;
	bd:includesColumn <http://www.cdisc.org/SDTM_MODEL_ALL/V4#CL_MV--STDY> ;
	bd:includesColumn <http://www.cdisc.org/SDTM_MODEL_ALL/V4#CL_MV--ENDY> ;
	bd:includesColumn <http://www.cdisc.org/SDTM_MODEL_ALL/V4#CL_MV--NOMDY> ;
	bd:includesColumn <http://www.cdisc.org/SDTM_MODEL_ALL/V4#CL_MV--NOMLBL> ;
	bd:includesColumn <http://www.cdisc.org/SDTM_MODEL_ALL/V4#CL_MV--DUR> ;
	bd:includesColumn <http://www.cdisc.org/SDTM_MODEL_ALL/V4#CL_MV--TPT> ;
	bd:includesColumn <http://www.cdisc.org/SDTM_MODEL_ALL/V4#CL_MV--TPTNUM> ;
	bd:includesColumn <http://www.cdisc.org/SDTM_MODEL_ALL/V4#CL_MV--ELTM> ;
	bd:includesColumn <http://www.cdisc.org/SDTM_MODEL_ALL/V4#CL_MV--TPTREF> ;
	bd:includesColumn <http://www.cdisc.org/SDTM_MODEL_ALL/V4#CL_MV--RFTDTC> ;
	bd:includesColumn <http://www.cdisc.org/SDTM_MODEL_ALL/V4#CL_MV--STRF> ;
	bd:includesColumn <http://www.cdisc.org/SDTM_MODEL_ALL/V4#CL_MV--ENRF> ;
	bd:includesColumn <http://www.cdisc.org/SDTM_MODEL_ALL/V4#CL_MV--EVLINT> ;
	bd:includesColumn <http://www.cdisc.org/SDTM_MODEL_ALL/V4#CL_MV--EVINTX> ;
	bd:includesColumn <http://www.cdisc.org/SDTM_MODEL_ALL/V4#CL_MV--STRTPT> ;
	bd:includesColumn <http://www.cdisc.org/SDTM_MODEL_ALL/V4#CL_MV--STTPT> ;
	bd:includesColumn <http://www.cdisc.org/SDTM_MODEL_ALL/V4#CL_MV--ENRTPT> ;
	bd:includesColumn <http://www.cdisc.org/SDTM_MODEL_ALL/V4#CL_MV--ENTPT> ;
	bd:includesColumn <http://www.cdisc.org/SDTM_MODEL_ALL/V4#CL_MVMIDS> ;
	bd:includesColumn <http://www.cdisc.org/SDTM_MODEL_ALL/V4#CL_MVRELMIDS> ;
	bd:includesColumn <http://www.cdisc.org/SDTM_MODEL_ALL/V4#CL_MVMIDSDTC> ;
	bd:includesColumn <http://www.cdisc.org/SDTM_MODEL_ALL/V4#CL_MV--STINT> ;
	bd:includesColumn <http://www.cdisc.org/SDTM_MODEL_ALL/V4#CL_MV--ENINT> ;
	bd:includesColumn <http://www.cdisc.org/SDTM_MODEL_ALL/V4#CL_MV--DETECT> ;
	bd:includesColumn <http://www.cdisc.org/SDTM_MODEL_EVENTS/V1#CL_MV--TERM> ;
	bd:includesColumn <http://www.cdisc.org/SDTM_MODEL_EVENTS/V2#CL_MV--MODIFY> ;
	bd:includesColumn <http://www.cdisc.org/SDTM_MODEL_EVENTS/V2#CL_MV--LLT> ;
	bd:includesColumn <http://www.cdisc.org/SDTM_MODEL_EVENTS/V2#CL_MV--LLTCD> ;
	bd:includesColumn <http://www.cdisc.org/SDTM_MODEL_EVENTS/V2#CL_MV--DECOD> ;
	bd:includesColumn <http://www.cdisc.org/SDTM_MODEL_EVENTS/V2#CL_MV--PTCD> ;
	bd:includesColumn <http://www.cdisc.org/SDTM_MODEL_EVENTS/V2#CL_MV--HLT> ;
	bd:includesColumn <http://www.cdisc.org/SDTM_MODEL_EVENTS/V2#CL_MV--HLTCD> ;
	bd:includesColumn <http://www.cdisc.org/SDTM_MODEL_EVENTS/V2#CL_MV--HLGT> ;
	bd:includesColumn <http://www.cdisc.org/SDTM_MODEL_EVENTS/V2#CL_MV--HLGTCD> ;
	bd:includesColumn <http://www.cdisc.org/SDTM_MODEL_EVENTS/V2#CL_MV--CAT> ;
	bd:includesColumn <http://www.cdisc.org/SDTM_MODEL_EVENTS/V2#CL_MV--SCAT> ;
	bd:includesColumn <http://www.cdisc.org/SDTM_MODEL_EVENTS/V2#CL_MV--PRESP> ;
	bd:includesColumn <http://www.cdisc.org/SDTM_MODEL_EVENTS/V2#CL_MV--OCCUR> ;
	bd:includesColumn <http://www.cdisc.org/SDTM_MODEL_EVENTS/V2#CL_MV--STAT> ;
	bd:includesColumn <http://www.cdisc.org/SDTM_MODEL_EVENTS/V2#CL_MV--REASND> ;
	bd:includesColumn <http://www.cdisc.org/SDTM_MODEL_EVENTS/V2#CL_MV--BODSYS> ;
	bd:includesColumn <http://www.cdisc.org/SDTM_MODEL_EVENTS/V2#CL_MV--BDSYCD> ;
	bd:includesColumn <http://www.cdisc.org/SDTM_MODEL_EVENTS/V2#CL_MV--SOC> ;
	bd:includesColumn <http://www.cdisc.org/SDTM_MODEL_EVENTS/V2#CL_MV--SOCCD> ;
	bd:includesColumn <http://www.cdisc.org/SDTM_MODEL_EVENTS/V2#CL_MV--LOC> ;
	bd:includesColumn <http://www.cdisc.org/SDTM_MODEL_EVENTS/V3#CL_MV--LAT> ;
	bd:includesColumn <http://www.cdisc.org/SDTM_MODEL_EVENTS/V3#CL_MV--DIR> ;
	bd:includesColumn <http://www.cdisc.org/SDTM_MODEL_EVENTS/V3#CL_MV--PORTOT> ;
	bd:includesColumn <http://www.cdisc.org/SDTM_MODEL_EVENTS/V3#CL_MV--PARTY> ;
	bd:includesColumn <http://www.cdisc.org/SDTM_MODEL_EVENTS/V3#CL_MV--PRTYID> ;
	bd:includesColumn <http://www.cdisc.org/SDTM_MODEL_EVENTS/V3#CL_MV--SEV> ;
	bd:includesColumn <http://www.cdisc.org/SDTM_MODEL_EVENTS/V3#CL_MV--SER> ;
	bd:includesColumn <http://www.cdisc.org/SDTM_MODEL_EVENTS/V3#CL_MV--ACN> ;
	bd:includesColumn <http://www.cdisc.org/SDTM_MODEL_EVENTS/V3#CL_MV--ACNOTH> ;
	bd:includesColumn <http://www.cdisc.org/SDTM_MODEL_EVENTS/V3#CL_MV--ACNDEV> ;
	bd:includesColumn <http://www.cdisc.org/SDTM_MODEL_EVENTS/V3#CL_MV--REL> ;
	bd:includesColumn <http://www.cdisc.org/SDTM_MODEL_EVENTS/V3#CL_MV--RELNST> ;
	bd:includesColumn <http://www.cdisc.org/SDTM_MODEL_EVENTS/V3#CL_MV--PATT> ;
	bd:includesColumn <http://www.cdisc.org/SDTM_MODEL_EVENTS/V3#CL_MV--OUT> ;
	bd:includesColumn <http://www.cdisc.org/SDTM_MODEL_EVENTS/V3#CL_MV--SCAN> ;
	bd:includesColumn <http://www.cdisc.org/SDTM_MODEL_EVENTS/V3#CL_MV--SCONG> ;
	bd:includesColumn <http://www.cdisc.org/SDTM_MODEL_EVENTS/V3#CL_MV--SDISAB> ;
	bd:includesColumn <http://www.cdisc.org/SDTM_MODEL_EVENTS/V3#CL_MV--SDTH> ;
	bd:includesColumn <http://www.cdisc.org/SDTM_MODEL_EVENTS/V3#CL_MV--SHOSP> ;
	bd:includesColumn <http://www.cdisc.org/SDTM_MODEL_EVENTS/V3#CL_MV--SLIFE> ;
	bd:includesColumn <http://www.cdisc.org/SDTM_MODEL_EVENTS/V3#CL_MV--SOD> ;
	bd:includesColumn <http://www.cdisc.org/SDTM_MODEL_EVENTS/V3#CL_MV--SMIE> ;
	bd:includesColumn <http://www.cdisc.org/SDTM_MODEL_EVENTS/V3#CL_MV--CONTRT> ;
	bd:includesColumn <http://www.cdisc.org/SDTM_MODEL_EVENTS/V3#CL_MV--TOX> ;
	bd:includesColumn <http://www.cdisc.org/SDTM_MODEL_EVENTS/V3#CL_MV--TOXGR> ;
	bd:includesColumn <http://www.cdisc.org/SDTM_MODEL_EVENTS/V4#CL_MV--USCHFL> ;
.
<http://www.cdisc.org/SDTM_MODEL_EVENTS/V4#CL_RS>
	rdf:type isoR:RegistrationState ;
	isoR:registrationStatus "Standard"^^xsd:string ;
	isoR:administrativeNote ""^^xsd:string ;
	isoR:effectiveDate "2016-01-01T00:00:00+00:00"^^xsd:dateTime ;
	isoR:untilDate "2016-01-01T00:00:00+00:00"^^xsd:dateTime ;
	isoR:unresolvedIssue ""^^xsd:string ;
	isoR:administrativeStatus ""^^xsd:string ;
	isoR:previousState "Standard"^^xsd:string ;
	isoR:multipleEdit "false"^^xsd:boolean ;
	isoR:byAuthority <http://www.assero.co.uk/RA#DUNS084433759> ;
.
<http://www.cdisc.org/SDTM_MODEL_EVENTS/V4#CL_SI>
	rdf:type isoI:ScopedIdentifier ;
	isoI:identifier "SDTM MODEL EVENTS"^^xsd:string ;
	isoI:versionLabel "2016-07-05 Release"^^xsd:string ;
	isoI:version "4"^^xsd:positiveInteger ;
	isoI:semanticVersion "4.0.0"^^xsd:string ;
	isoI:hasScope <http://www.assero.co.uk/NS#CDISC> ;
.
<http://www.cdisc.org/SDTM_MODEL_ALL/V4#CL_MVAPID>
	rdf:type bd:SdtmModelVariable ;
	isoC:label "Associated Persons Identifier"^^xsd:string ;
	bd:rule ""^^xsd:string ;
	bd:ordinal "4"^^xsd:positiveInteger ;
	bd:name "APID"^^xsd:string ;
	bd:prefixed "false"^^xsd:boolean ;
	bd:description "Identifier for a single associated person, a group of associated persons, or a pool of associated persons. If APID identifies a pool, POOLDEF records must exist for each associated person. (See Section 4.1.3 for POOLDEF and Section 5 for Associated Persons data)."^^xsd:string ;
	bd:typedAs <http://www.assero.co.uk/CSN#f9caeead-091c-442a-acdf-6f56a64c4dff> ;
	bd:classifiedAs <http://www.assero.co.uk/CSN#31553bfb-458e-4356-8f78-9d84ca25f745> ;
.
<http://www.cdisc.org/SDTM_MODEL_ALL/V4#CL_MVPOOLID>
	rdf:type bd:SdtmModelVariable ;
	isoC:label "Pool Identifier"^^xsd:string ;
	bd:rule ""^^xsd:string ;
	bd:ordinal "5"^^xsd:positiveInteger ;
	bd:name "POOLID"^^xsd:string ;
	bd:prefixed "false"^^xsd:boolean ;
	bd:description "An identifier used to identify a result from a group of subjects that is not assignable to a specific subject."^^xsd:string ;
	bd:typedAs <http://www.assero.co.uk/CSN#f9caeead-091c-442a-acdf-6f56a64c4dff> ;
	bd:classifiedAs <http://www.assero.co.uk/CSN#31553bfb-458e-4356-8f78-9d84ca25f745> ;
.
<http://www.cdisc.org/SDTM_MODEL_ALL/V4#CL_MVSPDEVID>
	rdf:type bd:SdtmModelVariable ;
	isoC:label "Sponsor Device Identifier"^^xsd:string ;
	bd:rule ""^^xsd:string ;
	bd:ordinal "6"^^xsd:positiveInteger ;
	bd:name "SPDEVID"^^xsd:string ;
	bd:prefixed "false"^^xsd:boolean ;
	bd:description "Sponsor-defined identifier for a device."^^xsd:string ;
	bd:typedAs <http://www.assero.co.uk/CSN#f9caeead-091c-442a-acdf-6f56a64c4dff> ;
	bd:classifiedAs <http://www.assero.co.uk/CSN#31553bfb-458e-4356-8f78-9d84ca25f745> ;
.
<http://www.cdisc.org/SDTM_MODEL_ALL/V4#CL_MVFETUSID>
	rdf:type bd:SdtmModelVariable ;
	isoC:label "Fetus Identifier"^^xsd:string ;
	bd:rule ""^^xsd:string ;
	bd:ordinal "7"^^xsd:positiveInteger ;
	bd:name "FETUSID"^^xsd:string ;
	bd:prefixed "false"^^xsd:boolean ;
	bd:description "Identifier used to identify a fetus from a maternal subject for prenatal evaluations. FETUSID uniquely identifies a fetus within a subject. Not to be used with human clinical trials."^^xsd:string ;
	bd:typedAs <http://www.assero.co.uk/CSN#f9caeead-091c-442a-acdf-6f56a64c4dff> ;
	bd:classifiedAs <http://www.assero.co.uk/CSN#31553bfb-458e-4356-8f78-9d84ca25f745> ;
.
<http://www.cdisc.org/SDTM_MODEL_ALL/V4#CL_MVFOCID>
	rdf:type bd:SdtmModelVariable ;
	isoC:label "Focus of Study-Specific Interest"^^xsd:string ;
	bd:rule ""^^xsd:string ;
	bd:ordinal "8"^^xsd:positiveInteger ;
	bd:name "FOCID"^^xsd:string ;
	bd:prefixed "false"^^xsd:boolean ;
	bd:description "Identification of a focus of study-specific interest on or within a subject or specimen as called out in the protocol for which a measurement, test, or examination was performed, such as a drug application site, e.g., \"Injection site 1\", \"Biopsy site 1\", \"Treated site 1\", or a more specific focus, e.g., \"OD\" (right eye) or \"Upper left quadrant of the back\". The value in this variable should have inherent semantic meaning."^^xsd:string ;
	bd:typedAs <http://www.assero.co.uk/CSN#f9caeead-091c-442a-acdf-6f56a64c4dff> ;
	bd:classifiedAs <http://www.assero.co.uk/CSN#31553bfb-458e-4356-8f78-9d84ca25f745> ;
.
<http://www.cdisc.org/SDTM_MODEL_ALL/V4#CL_MV--SEQ>
	rdf:type bd:SdtmModelVariable ;
	isoC:label "Sequence Number"^^xsd:string ;
	bd:rule ""^^xsd:string ;
	bd:ordinal "9"^^xsd:positiveInteger ;
	bd:name "--SEQ"^^xsd:string ;
	bd:prefixed "true"^^xsd:boolean ;
	bd:description "Sequence number to ensure uniqueness of records within a dataset for a subject (or within a parameter, in the case of the Trial Summary domain). May be any valid number (including decimals) and does not have to start at 1."^^xsd:string ;
	bd:typedAs <http://www.assero.co.uk/CSN#8b16536d-2667-4282-86b4-8724a00b8f9f> ;
	bd:classifiedAs <http://www.assero.co.uk/CSN#31553bfb-458e-4356-8f78-9d84ca25f745> ;
.
<http://www.cdisc.org/SDTM_MODEL_ALL/V4#CL_MV--GRPID>
	rdf:type bd:SdtmModelVariable ;
	isoC:label "Group ID"^^xsd:string ;
	bd:rule ""^^xsd:string ;
	bd:ordinal "10"^^xsd:positiveInteger ;
	bd:name "--GRPID"^^xsd:string ;
	bd:prefixed "true"^^xsd:boolean ;
	bd:description "Optional group identifier, used to link together a block of related records within a subject in a domain. Also used to link together a block of related records in the Trial Summary dataset (Section 3.4)."^^xsd:string ;
	bd:typedAs <http://www.assero.co.uk/CSN#f9caeead-091c-442a-acdf-6f56a64c4dff> ;
	bd:classifiedAs <http://www.assero.co.uk/CSN#31553bfb-458e-4356-8f78-9d84ca25f745> ;
.
<http://www.cdisc.org/SDTM_MODEL_ALL/V4#CL_MV--REFID>
	rdf:type bd:SdtmModelVariable ;
	isoC:label "Reference ID"^^xsd:string ;
	bd:rule ""^^xsd:string ;
	bd:ordinal "11"^^xsd:positiveInteger ;
	bd:name "--REFID"^^xsd:string ;
	bd:prefixed "true"^^xsd:boolean ;
	bd:description "Optional internal or external identifier such as lab specimen ID, or UUID for an ECG waveform or a medical image."^^xsd:string ;
	bd:typedAs <http://www.assero.co.uk/CSN#f9caeead-091c-442a-acdf-6f56a64c4dff> ;
	bd:classifiedAs <http://www.assero.co.uk/CSN#31553bfb-458e-4356-8f78-9d84ca25f745> ;
.
<http://www.cdisc.org/SDTM_MODEL_ALL/V4#CL_MV--RECID>
	rdf:type bd:SdtmModelVariable ;
	isoC:label "Invariant Record Identifier"^^xsd:string ;
	bd:rule ""^^xsd:string ;
	bd:ordinal "12"^^xsd:positiveInteger ;
	bd:name "--RECID"^^xsd:string ;
	bd:prefixed "true"^^xsd:boolean ;
	bd:description "Identifier for a record that is unique within a domain for a study and that remains invariant through subsequent versions of the dataset, even if the content of the record is modified. When a record is deleted, this value must not be reused to identify another record in either the current or future versions of the domain."^^xsd:string ;
	bd:typedAs <http://www.assero.co.uk/CSN#f9caeead-091c-442a-acdf-6f56a64c4dff> ;
	bd:classifiedAs <http://www.assero.co.uk/CSN#31553bfb-458e-4356-8f78-9d84ca25f745> ;
.
<http://www.cdisc.org/SDTM_MODEL_ALL/V4#CL_MV--SPID>
	rdf:type bd:SdtmModelVariable ;
	isoC:label "Sponsor-Defined Identifier"^^xsd:string ;
	bd:rule ""^^xsd:string ;
	bd:ordinal "13"^^xsd:positiveInteger ;
	bd:name "--SPID"^^xsd:string ;
	bd:prefixed "true"^^xsd:boolean ;
	bd:description "Sponsor-defined identifier. Example: pre-printed line identifier on a Concomitant Medications page."^^xsd:string ;
	bd:typedAs <http://www.assero.co.uk/CSN#f9caeead-091c-442a-acdf-6f56a64c4dff> ;
	bd:classifiedAs <http://www.assero.co.uk/CSN#31553bfb-458e-4356-8f78-9d84ca25f745> ;
.
<http://www.cdisc.org/SDTM_MODEL_ALL/V4#CL_MV--LNKID>
	rdf:type bd:SdtmModelVariable ;
	isoC:label "Link ID"^^xsd:string ;
	bd:rule ""^^xsd:string ;
	bd:ordinal "14"^^xsd:positiveInteger ;
	bd:name "--LNKID"^^xsd:string ;
	bd:prefixed "true"^^xsd:boolean ;
	bd:description "Identifier used to link related records across domains. This may be a one-to-one or a one-to-many relationship. For Example: A single tumor may have multiple measurements/assessments performed at each study visit."^^xsd:string ;
	bd:typedAs <http://www.assero.co.uk/CSN#f9caeead-091c-442a-acdf-6f56a64c4dff> ;
	bd:classifiedAs <http://www.assero.co.uk/CSN#31553bfb-458e-4356-8f78-9d84ca25f745> ;
.
<http://www.cdisc.org/SDTM_MODEL_ALL/V4#CL_MV--LNKGRP>
	rdf:type bd:SdtmModelVariable ;
	isoC:label "Link Group ID"^^xsd:string ;
	bd:rule ""^^xsd:string ;
	bd:ordinal "15"^^xsd:positiveInteger ;
	bd:name "--LNKGRP"^^xsd:string ;
	bd:prefixed "true"^^xsd:boolean ;
	bd:description "Identifier used to link related records across domains. This will usually be a many-to-one relationship. For example: Multiple tumor measurements/assessments will contribute to a single response to therapy determination record."^^xsd:string ;
	bd:typedAs <http://www.assero.co.uk/CSN#f9caeead-091c-442a-acdf-6f56a64c4dff> ;
	bd:classifiedAs <http://www.assero.co.uk/CSN#31553bfb-458e-4356-8f78-9d84ca25f745> ;
.
<http://www.cdisc.org/SDTM_MODEL_ALL/V4#CL_MVVISITNUM>
	rdf:type bd:SdtmModelVariable ;
	isoC:label "Visit Number"^^xsd:string ;
	bd:rule ""^^xsd:string ;
	bd:ordinal "16"^^xsd:positiveInteger ;
	bd:name "VISITNUM"^^xsd:string ;
	bd:prefixed "false"^^xsd:boolean ;
	bd:description "Clinical encounter number. Numeric version of VISIT, used for sorting."^^xsd:string ;
	bd:typedAs <http://www.assero.co.uk/CSN#8b16536d-2667-4282-86b4-8724a00b8f9f> ;
	bd:classifiedAs <http://www.assero.co.uk/CSN#ef6281db-14c7-44d8-b41e-4b6c96de1b79> ;
.
<http://www.cdisc.org/SDTM_MODEL_ALL/V4#CL_MVVISIT>
	rdf:type bd:SdtmModelVariable ;
	isoC:label "Visit Name"^^xsd:string ;
	bd:rule ""^^xsd:string ;
	bd:ordinal "17"^^xsd:positiveInteger ;
	bd:name "VISIT"^^xsd:string ;
	bd:prefixed "false"^^xsd:boolean ;
	bd:description "Protocol-defined description of a clinical encounter."^^xsd:string ;
	bd:typedAs <http://www.assero.co.uk/CSN#f9caeead-091c-442a-acdf-6f56a64c4dff> ;
	bd:classifiedAs <http://www.assero.co.uk/CSN#ef6281db-14c7-44d8-b41e-4b6c96de1b79> ;
.
<http://www.cdisc.org/SDTM_MODEL_ALL/V4#CL_MVVISITDY>
	rdf:type bd:SdtmModelVariable ;
	isoC:label "Planned Study Day of Visit"^^xsd:string ;
	bd:rule ""^^xsd:string ;
	bd:ordinal "18"^^xsd:positiveInteger ;
	bd:name "VISITDY"^^xsd:string ;
	bd:prefixed "false"^^xsd:boolean ;
	bd:description "Planned study day of VISIT. Should be an integer."^^xsd:string ;
	bd:typedAs <http://www.assero.co.uk/CSN#8b16536d-2667-4282-86b4-8724a00b8f9f> ;
	bd:classifiedAs <http://www.assero.co.uk/CSN#ef6281db-14c7-44d8-b41e-4b6c96de1b79> ;
.
<http://www.cdisc.org/SDTM_MODEL_ALL/V4#CL_MVTAETORD>
	rdf:type bd:SdtmModelVariable ;
	isoC:label "Planned Order of Element within Arm"^^xsd:string ;
	bd:rule ""^^xsd:string ;
	bd:ordinal "19"^^xsd:positiveInteger ;
	bd:name "TAETORD"^^xsd:string ;
	bd:prefixed "false"^^xsd:boolean ;
	bd:description "Number that gives the planned order of the Element within the Arm (see .Timing v1.5, Section 3.2.2)."^^xsd:string ;
	bd:typedAs <http://www.assero.co.uk/CSN#8b16536d-2667-4282-86b4-8724a00b8f9f> ;
	bd:classifiedAs <http://www.assero.co.uk/CSN#ef6281db-14c7-44d8-b41e-4b6c96de1b79> ;
.
<http://www.cdisc.org/SDTM_MODEL_ALL/V4#CL_MVEPOCH>
	rdf:type bd:SdtmModelVariable ;
	isoC:label "Epoch"^^xsd:string ;
	bd:rule ""^^xsd:string ;
	bd:ordinal "20"^^xsd:positiveInteger ;
	bd:name "EPOCH"^^xsd:string ;
	bd:prefixed "false"^^xsd:boolean ;
	bd:description "Epoch associated with the start date/time of the observation, or the date/time of collection if start date/time is not collected. (See Section 3.2.2)."^^xsd:string ;
	bd:typedAs <http://www.assero.co.uk/CSN#f9caeead-091c-442a-acdf-6f56a64c4dff> ;
	bd:classifiedAs <http://www.assero.co.uk/CSN#ef6281db-14c7-44d8-b41e-4b6c96de1b79> ;
.
<http://www.cdisc.org/SDTM_MODEL_ALL/V4#CL_MV--DTC>
	rdf:type bd:SdtmModelVariable ;
	isoC:label "Date/Time of Collection"^^xsd:string ;
	bd:rule ""^^xsd:string ;
	bd:ordinal "21"^^xsd:positiveInteger ;
	bd:name "--DTC"^^xsd:string ;
	bd:prefixed "true"^^xsd:boolean ;
	bd:description "Collection date and time of an observation represented in IS0 8601 character format."^^xsd:string ;
	bd:typedAs <http://www.assero.co.uk/CSN#f9caeead-091c-442a-acdf-6f56a64c4dff> ;
	bd:classifiedAs <http://www.assero.co.uk/CSN#ef6281db-14c7-44d8-b41e-4b6c96de1b79> ;
.
<http://www.cdisc.org/SDTM_MODEL_ALL/V4#CL_MV--STDTC>
	rdf:type bd:SdtmModelVariable ;
	isoC:label "Start Date/Time of Observation"^^xsd:string ;
	bd:rule ""^^xsd:string ;
	bd:ordinal "22"^^xsd:positiveInteger ;
	bd:name "--STDTC"^^xsd:string ;
	bd:prefixed "true"^^xsd:boolean ;
	bd:description "Start date/time of an observation represented in IS0 8601 character format."^^xsd:string ;
	bd:typedAs <http://www.assero.co.uk/CSN#f9caeead-091c-442a-acdf-6f56a64c4dff> ;
	bd:classifiedAs <http://www.assero.co.uk/CSN#ef6281db-14c7-44d8-b41e-4b6c96de1b79> ;
.
<http://www.cdisc.org/SDTM_MODEL_ALL/V4#CL_MV--ENDTC>
	rdf:type bd:SdtmModelVariable ;
	isoC:label "End Date/Time of Observation"^^xsd:string ;
	bd:rule ""^^xsd:string ;
	bd:ordinal "23"^^xsd:positiveInteger ;
	bd:name "--ENDTC"^^xsd:string ;
	bd:prefixed "true"^^xsd:boolean ;
	bd:description "End date/time of the observation represented in IS0 8601 character format."^^xsd:string ;
	bd:typedAs <http://www.assero.co.uk/CSN#f9caeead-091c-442a-acdf-6f56a64c4dff> ;
	bd:classifiedAs <http://www.assero.co.uk/CSN#ef6281db-14c7-44d8-b41e-4b6c96de1b79> ;
.
<http://www.cdisc.org/SDTM_MODEL_ALL/V4#CL_MV--DY>
	rdf:type bd:SdtmModelVariable ;
	isoC:label "Study Day of Visit/Collection/Exam"^^xsd:string ;
	bd:rule ""^^xsd:string ;
	bd:ordinal "24"^^xsd:positiveInteger ;
	bd:name "--DY"^^xsd:string ;
	bd:prefixed "true"^^xsd:boolean ;
	bd:description "Actual study day of visit/collection/exam expressed in integer days relative to the sponsor-defined RFSTDTC in Demographics."^^xsd:string ;
	bd:typedAs <http://www.assero.co.uk/CSN#8b16536d-2667-4282-86b4-8724a00b8f9f> ;
	bd:classifiedAs <http://www.assero.co.uk/CSN#ef6281db-14c7-44d8-b41e-4b6c96de1b79> ;
.
<http://www.cdisc.org/SDTM_MODEL_ALL/V4#CL_MV--STDY>
	rdf:type bd:SdtmModelVariable ;
	isoC:label "Study Day of Start of Observation"^^xsd:string ;
	bd:rule ""^^xsd:string ;
	bd:ordinal "25"^^xsd:positiveInteger ;
	bd:name "--STDY"^^xsd:string ;
	bd:prefixed "true"^^xsd:boolean ;
	bd:description "Actual study day of start of observation expressed in integer days relative to the sponsor-defined RFSTDTC in Demographics."^^xsd:string ;
	bd:typedAs <http://www.assero.co.uk/CSN#8b16536d-2667-4282-86b4-8724a00b8f9f> ;
	bd:classifiedAs <http://www.assero.co.uk/CSN#ef6281db-14c7-44d8-b41e-4b6c96de1b79> ;
.
<http://www.cdisc.org/SDTM_MODEL_ALL/V4#CL_MV--ENDY>
	rdf:type bd:SdtmModelVariable ;
	isoC:label "Study Day of End of Observation"^^xsd:string ;
	bd:rule ""^^xsd:string ;
	bd:ordinal "26"^^xsd:positiveInteger ;
	bd:name "--ENDY"^^xsd:string ;
	bd:prefixed "true"^^xsd:boolean ;
	bd:description "Actual study day of end of observation expressed in integer days relative to the sponsor-defined RFSTDTC in Demographics."^^xsd:string ;
	bd:typedAs <http://www.assero.co.uk/CSN#8b16536d-2667-4282-86b4-8724a00b8f9f> ;
	bd:classifiedAs <http://www.assero.co.uk/CSN#ef6281db-14c7-44d8-b41e-4b6c96de1b79> ;
.
<http://www.cdisc.org/SDTM_MODEL_ALL/V4#CL_MV--NOMDY>
	rdf:type bd:SdtmModelVariable ;
	isoC:label "Nominal Study Day for Tabulations"^^xsd:string ;
	bd:rule ""^^xsd:string ;
	bd:ordinal "27"^^xsd:positiveInteger ;
	bd:name "--NOMDY"^^xsd:string ;
	bd:prefixed "true"^^xsd:boolean ;
	bd:description "The nominal study day used by data-collection and reporting systems for grouping records for observations that may be scheduled to occur on different days into a single study day (such as for output on a tabulation report). Not to be used with human clinical trials."^^xsd:string ;
	bd:typedAs <http://www.assero.co.uk/CSN#8b16536d-2667-4282-86b4-8724a00b8f9f> ;
	bd:classifiedAs <http://www.assero.co.uk/CSN#ef6281db-14c7-44d8-b41e-4b6c96de1b79> ;
.
<http://www.cdisc.org/SDTM_MODEL_ALL/V4#CL_MV--NOMLBL>
	rdf:type bd:SdtmModelVariable ;
	isoC:label "Label for Nominal Study Day"^^xsd:string ;
	bd:rule ""^^xsd:string ;
	bd:ordinal "28"^^xsd:positiveInteger ;
	bd:name "--NOMLBL"^^xsd:string ;
	bd:prefixed "true"^^xsd:boolean ;
	bd:description "A label for a given value of --NOMDY, within a domain, as presented in the study report. Not to be used with human clinical trials."^^xsd:string ;
	bd:typedAs <http://www.assero.co.uk/CSN#f9caeead-091c-442a-acdf-6f56a64c4dff> ;
	bd:classifiedAs <http://www.assero.co.uk/CSN#ef6281db-14c7-44d8-b41e-4b6c96de1b79> ;
.
<http://www.cdisc.org/SDTM_MODEL_ALL/V4#CL_MV--DUR>
	rdf:type bd:SdtmModelVariable ;
	isoC:label "Duration"^^xsd:string ;
	bd:rule ""^^xsd:string ;
	bd:ordinal "29"^^xsd:positiveInteger ;
	bd:name "--DUR"^^xsd:string ;
	bd:prefixed "true"^^xsd:boolean ;
	bd:description "Collected duration of an event, intervention, or finding represented in ISO 8601 character format. Used only if collected on the CRF and not derived."^^xsd:string ;
	bd:typedAs <http://www.assero.co.uk/CSN#f9caeead-091c-442a-acdf-6f56a64c4dff> ;
	bd:classifiedAs <http://www.assero.co.uk/CSN#ef6281db-14c7-44d8-b41e-4b6c96de1b79> ;
.
<http://www.cdisc.org/SDTM_MODEL_ALL/V4#CL_MV--TPT>
	rdf:type bd:SdtmModelVariable ;
	isoC:label "Planned Time Point Name"^^xsd:string ;
	bd:rule ""^^xsd:string ;
	bd:ordinal "30"^^xsd:positiveInteger ;
	bd:name "--TPT"^^xsd:string ;
	bd:prefixed "true"^^xsd:boolean ;
	bd:description "Text description of time when a measurement or observation should be taken as defined in the protocol. This may be represented as an elapsed time relative to a fixed reference point, such as time of last dose. See --TPTNUM and --TPTREF."^^xsd:string ;
	bd:typedAs <http://www.assero.co.uk/CSN#f9caeead-091c-442a-acdf-6f56a64c4dff> ;
	bd:classifiedAs <http://www.assero.co.uk/CSN#ef6281db-14c7-44d8-b41e-4b6c96de1b79> ;
.
<http://www.cdisc.org/SDTM_MODEL_ALL/V4#CL_MV--TPTNUM>
	rdf:type bd:SdtmModelVariable ;
	isoC:label "Planned Time Point Number"^^xsd:string ;
	bd:rule ""^^xsd:string ;
	bd:ordinal "31"^^xsd:positiveInteger ;
	bd:name "--TPTNUM"^^xsd:string ;
	bd:prefixed "true"^^xsd:boolean ;
	bd:description "Numeric version of planned time point used in sorting."^^xsd:string ;
	bd:typedAs <http://www.assero.co.uk/CSN#8b16536d-2667-4282-86b4-8724a00b8f9f> ;
	bd:classifiedAs <http://www.assero.co.uk/CSN#ef6281db-14c7-44d8-b41e-4b6c96de1b79> ;
.
<http://www.cdisc.org/SDTM_MODEL_ALL/V4#CL_MV--ELTM>
	rdf:type bd:SdtmModelVariable ;
	isoC:label "Planned Elapsed Time from Time Point Ref"^^xsd:string ;
	bd:rule ""^^xsd:string ;
	bd:ordinal "32"^^xsd:positiveInteger ;
	bd:name "--ELTM"^^xsd:string ;
	bd:prefixed "true"^^xsd:boolean ;
	bd:description "Planned Elapsed time in ISO 8601 character format relative to a planned fixed reference (--TPTREF) such as \"Previous Dose\" or \"Previous Meal\". This variable is useful where there are repetitive measures. Not a clock time or a date/time variable, but an interval, represented as ISO duration."^^xsd:string ;
	bd:typedAs <http://www.assero.co.uk/CSN#f9caeead-091c-442a-acdf-6f56a64c4dff> ;
	bd:classifiedAs <http://www.assero.co.uk/CSN#ef6281db-14c7-44d8-b41e-4b6c96de1b79> ;
.
<http://www.cdisc.org/SDTM_MODEL_ALL/V4#CL_MV--TPTREF>
	rdf:type bd:SdtmModelVariable ;
	isoC:label "Time Point Reference"^^xsd:string ;
	bd:rule ""^^xsd:string ;
	bd:ordinal "33"^^xsd:positiveInteger ;
	bd:name "--TPTREF"^^xsd:string ;
	bd:prefixed "true"^^xsd:boolean ;
	bd:description "Description of the fixed reference point referred to by --ELTM, --TPTNUM, and --TPT. Examples: PREVIOUS DOSE, PREVIOUS MEAL."^^xsd:string ;
	bd:typedAs <http://www.assero.co.uk/CSN#f9caeead-091c-442a-acdf-6f56a64c4dff> ;
	bd:classifiedAs <http://www.assero.co.uk/CSN#ef6281db-14c7-44d8-b41e-4b6c96de1b79> ;
.
<http://www.cdisc.org/SDTM_MODEL_ALL/V4#CL_MV--RFTDTC>
	rdf:type bd:SdtmModelVariable ;
	isoC:label "Date/Time of Reference Time Point"^^xsd:string ;
	bd:rule ""^^xsd:string ;
	bd:ordinal "34"^^xsd:positiveInteger ;
	bd:name "--RFTDTC"^^xsd:string ;
	bd:prefixed "true"^^xsd:boolean ;
	bd:description "Date/time for a fixed reference time point defined by --TPTREF in ISO 8601 character format."^^xsd:string ;
	bd:typedAs <http://www.assero.co.uk/CSN#f9caeead-091c-442a-acdf-6f56a64c4dff> ;
	bd:classifiedAs <http://www.assero.co.uk/CSN#ef6281db-14c7-44d8-b41e-4b6c96de1b79> ;
.
<http://www.cdisc.org/SDTM_MODEL_ALL/V4#CL_MV--STRF>
	rdf:type bd:SdtmModelVariable ;
	isoC:label "Start Relative to Reference Period"^^xsd:string ;
	bd:rule ""^^xsd:string ;
	bd:ordinal "35"^^xsd:positiveInteger ;
	bd:name "--STRF"^^xsd:string ;
	bd:prefixed "true"^^xsd:boolean ;
	bd:description "Identifies the start of the observation as being before, during, or after the sponsor-defined reference period. The sponsor-defined reference period is a continuous period of time defined by a discrete starting point and a discrete ending point represented by RFSTDTC and RFENDTC in Demographics."^^xsd:string ;
	bd:typedAs <http://www.assero.co.uk/CSN#f9caeead-091c-442a-acdf-6f56a64c4dff> ;
	bd:classifiedAs <http://www.assero.co.uk/CSN#ef6281db-14c7-44d8-b41e-4b6c96de1b79> ;
.
<http://www.cdisc.org/SDTM_MODEL_ALL/V4#CL_MV--ENRF>
	rdf:type bd:SdtmModelVariable ;
	isoC:label "End Relative to Reference Period"^^xsd:string ;
	bd:rule ""^^xsd:string ;
	bd:ordinal "36"^^xsd:positiveInteger ;
	bd:name "--ENRF"^^xsd:string ;
	bd:prefixed "true"^^xsd:boolean ;
	bd:description "Identifies the end of the observation as being before, during or after the sponsor-defined reference period. The sponsor-defined reference period is a continuous period of time defined by a discrete starting point and a discrete ending point represented by RFSTDTC and RFENDTC in Demographics."^^xsd:string ;
	bd:typedAs <http://www.assero.co.uk/CSN#f9caeead-091c-442a-acdf-6f56a64c4dff> ;
	bd:classifiedAs <http://www.assero.co.uk/CSN#ef6281db-14c7-44d8-b41e-4b6c96de1b79> ;
.
<http://www.cdisc.org/SDTM_MODEL_ALL/V4#CL_MV--EVLINT>
	rdf:type bd:SdtmModelVariable ;
	isoC:label "Evaluation Interval"^^xsd:string ;
	bd:rule ""^^xsd:string ;
	bd:ordinal "37"^^xsd:positiveInteger ;
	bd:name "--EVLINT"^^xsd:string ;
	bd:prefixed "true"^^xsd:boolean ;
	bd:description "Duration of interval associated with an observation such as a finding --TESTCD, represented in ISO 8601 character format. Example: -P2M to represent a period of the past 2 months as the evaluation interval for a question from a questionnaire such as SF-36."^^xsd:string ;
	bd:typedAs <http://www.assero.co.uk/CSN#f9caeead-091c-442a-acdf-6f56a64c4dff> ;
	bd:classifiedAs <http://www.assero.co.uk/CSN#ef6281db-14c7-44d8-b41e-4b6c96de1b79> ;
.
<http://www.cdisc.org/SDTM_MODEL_ALL/V4#CL_MV--EVINTX>
	rdf:type bd:SdtmModelVariable ;
	isoC:label "Evaluation Interval Text"^^xsd:string ;
	bd:rule ""^^xsd:string ;
	bd:ordinal "38"^^xsd:positiveInteger ;
	bd:name "--EVINTX"^^xsd:string ;
	bd:prefixed "true"^^xsd:boolean ;
	bd:description "Evaluation interval associated with an observation, where the interval is not able to be represented in ISO 8601 format. Examples: LIFETIME, LAST NIGHT, RECENTLY, OVER THE LAST FEW WEEKS."^^xsd:string ;
	bd:typedAs <http://www.assero.co.uk/CSN#f9caeead-091c-442a-acdf-6f56a64c4dff> ;
	bd:classifiedAs <http://www.assero.co.uk/CSN#ef6281db-14c7-44d8-b41e-4b6c96de1b79> ;
.
<http://www.cdisc.org/SDTM_MODEL_ALL/V4#CL_MV--STRTPT>
	rdf:type bd:SdtmModelVariable ;
	isoC:label "Start Relative to Reference Time Point"^^xsd:string ;
	bd:rule ""^^xsd:string ;
	bd:ordinal "39"^^xsd:positiveInteger ;
	bd:name "--STRTPT"^^xsd:string ;
	bd:prefixed "true"^^xsd:boolean ;
	bd:description "Identifies the start of the observation as being before or after the sponsor-defined reference time point defined by variable --STTPT."^^xsd:string ;
	bd:typedAs <http://www.assero.co.uk/CSN#f9caeead-091c-442a-acdf-6f56a64c4dff> ;
	bd:classifiedAs <http://www.assero.co.uk/CSN#ef6281db-14c7-44d8-b41e-4b6c96de1b79> ;
.
<http://www.cdisc.org/SDTM_MODEL_ALL/V4#CL_MV--STTPT>
	rdf:type bd:SdtmModelVariable ;
	isoC:label "Start Reference Time Point"^^xsd:string ;
	bd:rule ""^^xsd:string ;
	bd:ordinal "40"^^xsd:positiveInteger ;
	bd:name "--STTPT"^^xsd:string ;
	bd:prefixed "true"^^xsd:boolean ;
	bd:description "Description or date/time in ISO 8601 or other character format of the sponsor-defined reference point referred to by --STRTPT. Examples: \"2003-12-15\" or \"VISIT 1\"."^^xsd:string ;
	bd:typedAs <http://www.assero.co.uk/CSN#f9caeead-091c-442a-acdf-6f56a64c4dff> ;
	bd:classifiedAs <http://www.assero.co.uk/CSN#ef6281db-14c7-44d8-b41e-4b6c96de1b79> ;
.
<http://www.cdisc.org/SDTM_MODEL_ALL/V4#CL_MV--ENRTPT>
	rdf:type bd:SdtmModelVariable ;
	isoC:label "End Relative to Reference Time Point"^^xsd:string ;
	bd:rule ""^^xsd:string ;
	bd:ordinal "41"^^xsd:positiveInteger ;
	bd:name "--ENRTPT"^^xsd:string ;
	bd:prefixed "true"^^xsd:boolean ;
	bd:description "Identifies the end of the observation as being before or after the sponsor-defined reference time point defined by variable --ENTPT."^^xsd:string ;
	bd:typedAs <http://www.assero.co.uk/CSN#f9caeead-091c-442a-acdf-6f56a64c4dff> ;
	bd:classifiedAs <http://www.assero.co.uk/CSN#ef6281db-14c7-44d8-b41e-4b6c96de1b79> ;
.
<http://www.cdisc.org/SDTM_MODEL_ALL/V4#CL_MV--ENTPT>
	rdf:type bd:SdtmModelVariable ;
	isoC:label "End Reference Time Point"^^xsd:string ;
	bd:rule ""^^xsd:string ;
	bd:ordinal "42"^^xsd:positiveInteger ;
	bd:name "--ENTPT"^^xsd:string ;
	bd:prefixed "true"^^xsd:boolean ;
	bd:description "Description or date/time in ISO 8601 or other character format of the sponsor-defined reference point referred to by --ENRTPT. Examples: \"2003-12-25\" or \"VISIT 2\"."^^xsd:string ;
	bd:typedAs <http://www.assero.co.uk/CSN#f9caeead-091c-442a-acdf-6f56a64c4dff> ;
	bd:classifiedAs <http://www.assero.co.uk/CSN#ef6281db-14c7-44d8-b41e-4b6c96de1b79> ;
.
<http://www.cdisc.org/SDTM_MODEL_ALL/V4#CL_MVMIDS>
	rdf:type bd:SdtmModelVariable ;
	isoC:label "Disease Milestone Instance Name"^^xsd:string ;
	bd:rule ""^^xsd:string ;
	bd:ordinal "43"^^xsd:positiveInteger ;
	bd:name "MIDS"^^xsd:string ;
	bd:prefixed "false"^^xsd:boolean ;
	bd:description "The name of a specific instance of a Disease Milestone Type (MIDSTYPE) described in the Trial Disease Milestones dataset (See Section 3.5). This should be unique within a subject. Used only in conjunction with RELMIDS and MIDSDTC."^^xsd:string ;
	bd:typedAs <http://www.assero.co.uk/CSN#f9caeead-091c-442a-acdf-6f56a64c4dff> ;
	bd:classifiedAs <http://www.assero.co.uk/CSN#ef6281db-14c7-44d8-b41e-4b6c96de1b79> ;
.
<http://www.cdisc.org/SDTM_MODEL_ALL/V4#CL_MVRELMIDS>
	rdf:type bd:SdtmModelVariable ;
	isoC:label "Temporal Relation to Milestone Instance"^^xsd:string ;
	bd:rule ""^^xsd:string ;
	bd:ordinal "44"^^xsd:positiveInteger ;
	bd:name "RELMIDS"^^xsd:string ;
	bd:prefixed "false"^^xsd:boolean ;
	bd:description "The temporal relationship of the observation to the Disease Milestone Instance Name in MIDS. Examples: IMMEDIATELY BEFORE, AT TIME OF, AFTER."^^xsd:string ;
	bd:typedAs <http://www.assero.co.uk/CSN#f9caeead-091c-442a-acdf-6f56a64c4dff> ;
	bd:classifiedAs <http://www.assero.co.uk/CSN#ef6281db-14c7-44d8-b41e-4b6c96de1b79> ;
.
<http://www.cdisc.org/SDTM_MODEL_ALL/V4#CL_MVMIDSDTC>
	rdf:type bd:SdtmModelVariable ;
	isoC:label "Disease Milestone Instance Date/Time"^^xsd:string ;
	bd:rule ""^^xsd:string ;
	bd:ordinal "45"^^xsd:positiveInteger ;
	bd:name "MIDSDTC"^^xsd:string ;
	bd:prefixed "false"^^xsd:boolean ;
	bd:description "The start date/time of the Disease Milestone Instance Name in MIDS, in ISO8601 format."^^xsd:string ;
	bd:typedAs <http://www.assero.co.uk/CSN#f9caeead-091c-442a-acdf-6f56a64c4dff> ;
	bd:classifiedAs <http://www.assero.co.uk/CSN#ef6281db-14c7-44d8-b41e-4b6c96de1b79> ;
.
<http://www.cdisc.org/SDTM_MODEL_ALL/V4#CL_MV--STINT>
	rdf:type bd:SdtmModelVariable ;
	isoC:label "Planned Start of Assessment Interval"^^xsd:string ;
	bd:rule ""^^xsd:string ;
	bd:ordinal "46"^^xsd:positiveInteger ;
	bd:name "--STINT"^^xsd:string ;
	bd:prefixed "true"^^xsd:boolean ;
	bd:description "The start of a planned evaluation or assessment interval in ISO 8601 character format relative to the Time Point Reference (--TPTREF).*"^^xsd:string ;
	bd:typedAs <http://www.assero.co.uk/CSN#f9caeead-091c-442a-acdf-6f56a64c4dff> ;
	bd:classifiedAs <http://www.assero.co.uk/CSN#ef6281db-14c7-44d8-b41e-4b6c96de1b79> ;
.
<http://www.cdisc.org/SDTM_MODEL_ALL/V4#CL_MV--ENINT>
	rdf:type bd:SdtmModelVariable ;
	isoC:label "Planned End of Assessment Interval"^^xsd:string ;
	bd:rule ""^^xsd:string ;
	bd:ordinal "47"^^xsd:positiveInteger ;
	bd:name "--ENINT"^^xsd:string ;
	bd:prefixed "true"^^xsd:boolean ;
	bd:description "The end of a planned evaluation or assessment interval in ISO 8601 character format relative to the Time Point Reference (--TPTREF).*"^^xsd:string ;
	bd:typedAs <http://www.assero.co.uk/CSN#f9caeead-091c-442a-acdf-6f56a64c4dff> ;
	bd:classifiedAs <http://www.assero.co.uk/CSN#ef6281db-14c7-44d8-b41e-4b6c96de1b79> ;
.
<http://www.cdisc.org/SDTM_MODEL_ALL/V4#CL_MV--DETECT>
	rdf:type bd:SdtmModelVariable ;
	isoC:label "Time in Days to Detection"^^xsd:string ;
	bd:rule ""^^xsd:string ;
	bd:ordinal "48"^^xsd:positiveInteger ;
	bd:name "--DETECT"^^xsd:string ;
	bd:prefixed "true"^^xsd:boolean ;
	bd:description "The number of days from the start of dosing to the earliest detection of a condition or pathogen."^^xsd:string ;
	bd:typedAs <http://www.assero.co.uk/CSN#8b16536d-2667-4282-86b4-8724a00b8f9f> ;
	bd:classifiedAs <http://www.assero.co.uk/CSN#ef6281db-14c7-44d8-b41e-4b6c96de1b79> ;
.
<http://www.cdisc.org/SDTM_MODEL_EVENTS/V4#CL_MV--USCHFL>
	rdf:type bd:SdtmModelVariable ;
	isoC:label "Unscheduled Flag"^^xsd:string ;
	bd:rule ""^^xsd:string ;
	bd:ordinal "47"^^xsd:positiveInteger ;
	bd:name "--USCHFL"^^xsd:string ;
	bd:prefixed "true"^^xsd:boolean ;
	bd:description "Indicates whether the timing of a performed test or observation was unscheduled. If a test or observation was performed based upon a schedule defined in the protocol, this flag should be null. Expected values are Y or null. Not to be used with human clinical trials. This variable would not be needed when information on planned assessments is provided, such as when the Trial Visits (TV) and Subject Visits (SV) domains are used."^^xsd:string ;
	bd:typedAs <http://www.assero.co.uk/CSN#f9caeead-091c-442a-acdf-6f56a64c4dff> ;
	bd:classifiedAs <http://www.assero.co.uk/CSN#c87fdb01-a54e-44b2-b4e7-2aadbe8ada87> ;
.
<http://www.cdisc.org/SDTM_MODEL_FINDINGS/V4#CL>
	rdf:type bd:SdtmClass ;
	isoC:label "SDTM MODEL FINDINGS"^^xsd:string ;
	isoT:hasState <http://www.cdisc.org/SDTM_MODEL_FINDINGS/V4#CL_RS> ;
	isoT:hasIdentifier <http://www.cdisc.org/SDTM_MODEL_FINDINGS/V4#CL_SI> ;
	isoT:origin ""^^xsd:string ;
	isoT:changeDescription ""^^xsd:string ;
	isoT:creationDate "2016-07-05T00:00:00+00:00"^^xsd:dateTime ;
	isoT:lastChangeDate "2016-07-05T00:00:00+00:00"^^xsd:dateTime ;
	isoT:explanatoryComment ""^^xsd:string ;
	bd:rule ""^^xsd:string ;
	bd:ordinal "1"^^xsd:positiveInteger ;
	bd:includesColumn <http://www.cdisc.org/SDTM_MODEL_ALL/V1#CL_MVSTUDYID> ;
	bd:includesColumn <http://www.cdisc.org/SDTM_MODEL_ALL/V2#CL_MVDOMAIN> ;
	bd:includesColumn <http://www.cdisc.org/SDTM_MODEL_ALL/V1#CL_MVUSUBJID> ;
	bd:includesColumn <http://www.cdisc.org/SDTM_MODEL_ALL/V4#CL_MVAPID> ;
	bd:includesColumn <http://www.cdisc.org/SDTM_MODEL_ALL/V4#CL_MVPOOLID> ;
	bd:includesColumn <http://www.cdisc.org/SDTM_MODEL_ALL/V4#CL_MVSPDEVID> ;
	bd:includesColumn <http://www.cdisc.org/SDTM_MODEL_ALL/V4#CL_MVFETUSID> ;
	bd:includesColumn <http://www.cdisc.org/SDTM_MODEL_ALL/V4#CL_MVFOCID> ;
	bd:includesColumn <http://www.cdisc.org/SDTM_MODEL_ALL/V4#CL_MV--SEQ> ;
	bd:includesColumn <http://www.cdisc.org/SDTM_MODEL_ALL/V4#CL_MV--GRPID> ;
	bd:includesColumn <http://www.cdisc.org/SDTM_MODEL_ALL/V4#CL_MV--REFID> ;
	bd:includesColumn <http://www.cdisc.org/SDTM_MODEL_ALL/V4#CL_MV--RECID> ;
	bd:includesColumn <http://www.cdisc.org/SDTM_MODEL_ALL/V4#CL_MV--SPID> ;
	bd:includesColumn <http://www.cdisc.org/SDTM_MODEL_ALL/V4#CL_MV--LNKID> ;
	bd:includesColumn <http://www.cdisc.org/SDTM_MODEL_ALL/V4#CL_MV--LNKGRP> ;
	bd:includesColumn <http://www.cdisc.org/SDTM_MODEL_ALL/V4#CL_MVVISITNUM> ;
	bd:includesColumn <http://www.cdisc.org/SDTM_MODEL_ALL/V4#CL_MVVISIT> ;
	bd:includesColumn <http://www.cdisc.org/SDTM_MODEL_ALL/V4#CL_MVVISITDY> ;
	bd:includesColumn <http://www.cdisc.org/SDTM_MODEL_ALL/V4#CL_MVTAETORD> ;
	bd:includesColumn <http://www.cdisc.org/SDTM_MODEL_ALL/V4#CL_MVEPOCH> ;
	bd:includesColumn <http://www.cdisc.org/SDTM_MODEL_ALL/V4#CL_MV--DTC> ;
	bd:includesColumn <http://www.cdisc.org/SDTM_MODEL_ALL/V4#CL_MV--STDTC> ;
	bd:includesColumn <http://www.cdisc.org/SDTM_MODEL_ALL/V4#CL_MV--ENDTC> ;
	bd:includesColumn <http://www.cdisc.org/SDTM_MODEL_ALL/V4#CL_MV--DY> ;
	bd:includesColumn <http://www.cdisc.org/SDTM_MODEL_ALL/V4#CL_MV--STDY> ;
	bd:includesColumn <http://www.cdisc.org/SDTM_MODEL_ALL/V4#CL_MV--ENDY> ;
	bd:includesColumn <http://www.cdisc.org/SDTM_MODEL_ALL/V4#CL_MV--NOMDY> ;
	bd:includesColumn <http://www.cdisc.org/SDTM_MODEL_ALL/V4#CL_MV--NOMLBL> ;
	bd:includesColumn <http://www.cdisc.org/SDTM_MODEL_ALL/V4#CL_MV--DUR> ;
	bd:includesColumn <http://www.cdisc.org/SDTM_MODEL_ALL/V4#CL_MV--TPT> ;
	bd:includesColumn <http://www.cdisc.org/SDTM_MODEL_ALL/V4#CL_MV--TPTNUM> ;
	bd:includesColumn <http://www.cdisc.org/SDTM_MODEL_ALL/V4#CL_MV--ELTM> ;
	bd:includesColumn <http://www.cdisc.org/SDTM_MODEL_ALL/V4#CL_MV--TPTREF> ;
	bd:includesColumn <http://www.cdisc.org/SDTM_MODEL_ALL/V4#CL_MV--RFTDTC> ;
	bd:includesColumn <http://www.cdisc.org/SDTM_MODEL_ALL/V4#CL_MV--STRF> ;
	bd:includesColumn <http://www.cdisc.org/SDTM_MODEL_ALL/V4#CL_MV--ENRF> ;
	bd:includesColumn <http://www.cdisc.org/SDTM_MODEL_ALL/V4#CL_MV--EVLINT> ;
	bd:includesColumn <http://www.cdisc.org/SDTM_MODEL_ALL/V4#CL_MV--EVINTX> ;
	bd:includesColumn <http://www.cdisc.org/SDTM_MODEL_ALL/V4#CL_MV--STRTPT> ;
	bd:includesColumn <http://www.cdisc.org/SDTM_MODEL_ALL/V4#CL_MV--STTPT> ;
	bd:includesColumn <http://www.cdisc.org/SDTM_MODEL_ALL/V4#CL_MV--ENRTPT> ;
	bd:includesColumn <http://www.cdisc.org/SDTM_MODEL_ALL/V4#CL_MV--ENTPT> ;
	bd:includesColumn <http://www.cdisc.org/SDTM_MODEL_ALL/V4#CL_MVMIDS> ;
	bd:includesColumn <http://www.cdisc.org/SDTM_MODEL_ALL/V4#CL_MVRELMIDS> ;
	bd:includesColumn <http://www.cdisc.org/SDTM_MODEL_ALL/V4#CL_MVMIDSDTC> ;
	bd:includesColumn <http://www.cdisc.org/SDTM_MODEL_ALL/V4#CL_MV--STINT> ;
	bd:includesColumn <http://www.cdisc.org/SDTM_MODEL_ALL/V4#CL_MV--ENINT> ;
	bd:includesColumn <http://www.cdisc.org/SDTM_MODEL_ALL/V4#CL_MV--DETECT> ;
	bd:includesColumn <http://www.cdisc.org/SDTM_MODEL_FINDINGS/V1#CL_MV--TESTCD> ;
	bd:includesColumn <http://www.cdisc.org/SDTM_MODEL_FINDINGS/V1#CL_MV--TEST> ;
	bd:includesColumn <http://www.cdisc.org/SDTM_MODEL_FINDINGS/V2#CL_MV--MODIFY> ;
	bd:includesColumn <http://www.cdisc.org/SDTM_MODEL_FINDINGS/V4#CL_MV--TSTDTL> ;
	bd:includesColumn <http://www.cdisc.org/SDTM_MODEL_FINDINGS/V4#CL_MV--CAT> ;
	bd:includesColumn <http://www.cdisc.org/SDTM_MODEL_FINDINGS/V4#CL_MV--SCAT> ;
	bd:includesColumn <http://www.cdisc.org/SDTM_MODEL_FINDINGS/V3#CL_MV--POS> ;
	bd:includesColumn <http://www.cdisc.org/SDTM_MODEL_FINDINGS/V3#CL_MV--BODSYS> ;
	bd:includesColumn <http://www.cdisc.org/SDTM_MODEL_FINDINGS/V3#CL_MV--ORRES> ;
	bd:includesColumn <http://www.cdisc.org/SDTM_MODEL_FINDINGS/V4#CL_MV--ORRESU> ;
	bd:includesColumn <http://www.cdisc.org/SDTM_MODEL_FINDINGS/V3#CL_MV--ORNRLO> ;
	bd:includesColumn <http://www.cdisc.org/SDTM_MODEL_FINDINGS/V3#CL_MV--ORNRHI> ;
	bd:includesColumn <http://www.cdisc.org/SDTM_MODEL_FINDINGS/V4#CL_MV--ORREF> ;
	bd:includesColumn <http://www.cdisc.org/SDTM_MODEL_FINDINGS/V4#CL_MV--STRESC> ;
	bd:includesColumn <http://www.cdisc.org/SDTM_MODEL_FINDINGS/V4#CL_MV--STRESN> ;
	bd:includesColumn <http://www.cdisc.org/SDTM_MODEL_FINDINGS/V4#CL_MV--STRESU> ;
	bd:includesColumn <http://www.cdisc.org/SDTM_MODEL_FINDINGS/V4#CL_MV--STNRLO> ;
	bd:includesColumn <http://www.cdisc.org/SDTM_MODEL_FINDINGS/V4#CL_MV--STNRHI> ;
	bd:includesColumn <http://www.cdisc.org/SDTM_MODEL_FINDINGS/V4#CL_MV--STNRC> ;
	bd:includesColumn <http://www.cdisc.org/SDTM_MODEL_FINDINGS/V4#CL_MV--STREFC> ;
	bd:includesColumn <http://www.cdisc.org/SDTM_MODEL_FINDINGS/V4#CL_MV--STREFN> ;
	bd:includesColumn <http://www.cdisc.org/SDTM_MODEL_FINDINGS/V4#CL_MV--NRIND> ;
	bd:includesColumn <http://www.cdisc.org/SDTM_MODEL_FINDINGS/V4#CL_MV--RESCAT> ;
	bd:includesColumn <http://www.cdisc.org/SDTM_MODEL_FINDINGS/V4#CL_MV--CHRON> ;
	bd:includesColumn <http://www.cdisc.org/SDTM_MODEL_FINDINGS/V4#CL_MV--DISTR> ;
	bd:includesColumn <http://www.cdisc.org/SDTM_MODEL_FINDINGS/V4#CL_MV--STAT> ;
	bd:includesColumn <http://www.cdisc.org/SDTM_MODEL_FINDINGS/V4#CL_MV--REASND> ;
	bd:includesColumn <http://www.cdisc.org/SDTM_MODEL_FINDINGS/V4#CL_MV--XFN> ;
	bd:includesColumn <http://www.cdisc.org/SDTM_MODEL_FINDINGS/V4#CL_MV--NAM> ;
	bd:includesColumn <http://www.cdisc.org/SDTM_MODEL_FINDINGS/V4#CL_MV--LOINC> ;
	bd:includesColumn <http://www.cdisc.org/SDTM_MODEL_FINDINGS/V4#CL_MV--SPEC> ;
	bd:includesColumn <http://www.cdisc.org/SDTM_MODEL_FINDINGS/V4#CL_MV--ANTREG> ;
	bd:includesColumn <http://www.cdisc.org/SDTM_MODEL_FINDINGS/V4#CL_MV--SPCCND> ;
	bd:includesColumn <http://www.cdisc.org/SDTM_MODEL_FINDINGS/V4#CL_MV--SPCUFL> ;
	bd:includesColumn <http://www.cdisc.org/SDTM_MODEL_FINDINGS/V4#CL_MV--LOC> ;
	bd:includesColumn <http://www.cdisc.org/SDTM_MODEL_FINDINGS/V4#CL_MV--LAT> ;
	bd:includesColumn <http://www.cdisc.org/SDTM_MODEL_FINDINGS/V4#CL_MV--DIR> ;
	bd:includesColumn <http://www.cdisc.org/SDTM_MODEL_FINDINGS/V4#CL_MV--PORTOT> ;
	bd:includesColumn <http://www.cdisc.org/SDTM_MODEL_FINDINGS/V4#CL_MV--METHOD> ;
	bd:includesColumn <http://www.cdisc.org/SDTM_MODEL_FINDINGS/V4#CL_MV--RUNID> ;
	bd:includesColumn <http://www.cdisc.org/SDTM_MODEL_FINDINGS/V4#CL_MV--ANMETH> ;
	bd:includesColumn <http://www.cdisc.org/SDTM_MODEL_FINDINGS/V4#CL_MV--LEAD> ;
	bd:includesColumn <http://www.cdisc.org/SDTM_MODEL_FINDINGS/V4#CL_MV--CSTATE> ;
	bd:includesColumn <http://www.cdisc.org/SDTM_MODEL_FINDINGS/V4#CL_MV--LOBXFL> ;
	bd:includesColumn <http://www.cdisc.org/SDTM_MODEL_FINDINGS/V4#CL_MV--BLFL> ;
	bd:includesColumn <http://www.cdisc.org/SDTM_MODEL_FINDINGS/V4#CL_MV--FAST> ;
	bd:includesColumn <http://www.cdisc.org/SDTM_MODEL_FINDINGS/V4#CL_MV--DRVFL> ;
	bd:includesColumn <http://www.cdisc.org/SDTM_MODEL_FINDINGS/V4#CL_MV--EVAL> ;
	bd:includesColumn <http://www.cdisc.org/SDTM_MODEL_FINDINGS/V4#CL_MV--EVALID> ;
	bd:includesColumn <http://www.cdisc.org/SDTM_MODEL_FINDINGS/V4#CL_MV--ACPTFL> ;
	bd:includesColumn <http://www.cdisc.org/SDTM_MODEL_FINDINGS/V4#CL_MV--TOX> ;
	bd:includesColumn <http://www.cdisc.org/SDTM_MODEL_FINDINGS/V4#CL_MV--TOXGR> ;
	bd:includesColumn <http://www.cdisc.org/SDTM_MODEL_FINDINGS/V4#CL_MV--SEV> ;
	bd:includesColumn <http://www.cdisc.org/SDTM_MODEL_FINDINGS/V4#CL_MV--DTHREL> ;
	bd:includesColumn <http://www.cdisc.org/SDTM_MODEL_FINDINGS/V4#CL_MV--LLOQ> ;
	bd:includesColumn <http://www.cdisc.org/SDTM_MODEL_FINDINGS/V4#CL_MV--ULOQ> ;
	bd:includesColumn <http://www.cdisc.org/SDTM_MODEL_FINDINGS/V4#CL_MV--EXCLFL> ;
	bd:includesColumn <http://www.cdisc.org/SDTM_MODEL_FINDINGS/V4#CL_MV--REASEX> ;
	bd:includesColumn <http://www.cdisc.org/SDTM_MODEL_FINDINGS/V4#CL_MV--USCHFL> ;
	bd:includesColumn <http://www.cdisc.org/SDTM_MODEL_FINDINGS/V4#CL_MV--REPNUM> ;
.
<http://www.cdisc.org/SDTM_MODEL_FINDINGS/V4#CL_RS>
	rdf:type isoR:RegistrationState ;
	isoR:registrationStatus "Standard"^^xsd:string ;
	isoR:administrativeNote ""^^xsd:string ;
	isoR:effectiveDate "2016-01-01T00:00:00+00:00"^^xsd:dateTime ;
	isoR:untilDate "2016-01-01T00:00:00+00:00"^^xsd:dateTime ;
	isoR:unresolvedIssue ""^^xsd:string ;
	isoR:administrativeStatus ""^^xsd:string ;
	isoR:previousState "Standard"^^xsd:string ;
	isoR:multipleEdit "false"^^xsd:boolean ;
	isoR:byAuthority <http://www.assero.co.uk/RA#DUNS084433759> ;
.
<http://www.cdisc.org/SDTM_MODEL_FINDINGS/V4#CL_SI>
	rdf:type isoI:ScopedIdentifier ;
	isoI:identifier "SDTM MODEL FINDINGS"^^xsd:string ;
	isoI:versionLabel "2016-07-05 Release"^^xsd:string ;
	isoI:version "4"^^xsd:positiveInteger ;
	isoI:semanticVersion "4.0.0"^^xsd:string ;
	isoI:hasScope <http://www.assero.co.uk/NS#CDISC> ;
.
<http://www.cdisc.org/SDTM_MODEL_FINDINGS/V4#CL_MV--TSTDTL>
	rdf:type bd:SdtmModelVariable ;
	isoC:label "Measurement, Test or Examination Detail"^^xsd:string ;
	bd:rule ""^^xsd:string ;
	bd:ordinal "4"^^xsd:positiveInteger ;
	bd:name "--TSTDTL"^^xsd:string ;
	bd:prefixed "true"^^xsd:boolean ;
	bd:description "Further description of --TESTCD and --TEST. Example: \"The percentage of cells with +1 intensity of staining\" when MITEST = Thyroid Transcription Factor 1."^^xsd:string ;
	bd:typedAs <http://www.assero.co.uk/CSN#f9caeead-091c-442a-acdf-6f56a64c4dff> ;
	bd:classifiedAs <http://www.assero.co.uk/CSN#aa0ca4c2-93bf-477f-bf84-00cef2308e4d> ;
.
<http://www.cdisc.org/SDTM_MODEL_FINDINGS/V4#CL_MV--CAT>
	rdf:type bd:SdtmModelVariable ;
	isoC:label "Category"^^xsd:string ;
	bd:rule ""^^xsd:string ;
	bd:ordinal "5"^^xsd:positiveInteger ;
	bd:name "--CAT"^^xsd:string ;
	bd:prefixed "true"^^xsd:boolean ;
	bd:description "Used to define a category of topic-variable values. Examples: HEMATOLOGY, URINALYSIS, CHEMISTRY, HAMILTON DEPRESSION SCALE, SF36, EGFR MUTATION ANALYSIS."^^xsd:string ;
	bd:typedAs <http://www.assero.co.uk/CSN#f9caeead-091c-442a-acdf-6f56a64c4dff> ;
	bd:classifiedAs <http://www.assero.co.uk/CSN#c42c1199-69be-4b0e-a466-78bf06d2e831> ;
.
<http://www.cdisc.org/SDTM_MODEL_FINDINGS/V4#CL_MV--SCAT>
	rdf:type bd:SdtmModelVariable ;
	isoC:label "Subcategory"^^xsd:string ;
	bd:rule ""^^xsd:string ;
	bd:ordinal "6"^^xsd:positiveInteger ;
	bd:name "--SCAT"^^xsd:string ;
	bd:prefixed "true"^^xsd:boolean ;
	bd:description "Used to define a further categorization of --CAT values. Example: WBC DIFFERENTIAL."^^xsd:string ;
	bd:typedAs <http://www.assero.co.uk/CSN#f9caeead-091c-442a-acdf-6f56a64c4dff> ;
	bd:classifiedAs <http://www.assero.co.uk/CSN#c42c1199-69be-4b0e-a466-78bf06d2e831> ;
.
<http://www.cdisc.org/SDTM_MODEL_FINDINGS/V4#CL_MV--ORRESU>
	rdf:type bd:SdtmModelVariable ;
	isoC:label "Original Units"^^xsd:string ;
	bd:rule ""^^xsd:string ;
	bd:ordinal "10"^^xsd:positiveInteger ;
	bd:name "--ORRESU"^^xsd:string ;
	bd:prefixed "true"^^xsd:boolean ;
	bd:description "Unit for --ORRES. Examples: in, LB, kg/L."^^xsd:string ;
	bd:typedAs <http://www.assero.co.uk/CSN#f9caeead-091c-442a-acdf-6f56a64c4dff> ;
	bd:classifiedAs <http://www.assero.co.uk/CSN#aa0ca4c2-93bf-477f-bf84-00cef2308e4d> ;
.
<http://www.cdisc.org/SDTM_MODEL_FINDINGS/V4#CL_MV--ORREF>
	rdf:type bd:SdtmModelVariable ;
	isoC:label "Reference Result in Original Units"^^xsd:string ;
	bd:rule ""^^xsd:string ;
	bd:ordinal "13"^^xsd:positiveInteger ;
	bd:name "--ORREF"^^xsd:string ;
	bd:prefixed "true"^^xsd:boolean ;
	bd:description "Reference value for the result or finding as originally received or collected. --ORREF uses the same units as --ORRES, if applicable. Examples: value from predicted normal value in spirometry tests."^^xsd:string ;
	bd:typedAs <http://www.assero.co.uk/CSN#f9caeead-091c-442a-acdf-6f56a64c4dff> ;
	bd:classifiedAs <http://www.assero.co.uk/CSN#aa0ca4c2-93bf-477f-bf84-00cef2308e4d> ;
.
<http://www.cdisc.org/SDTM_MODEL_FINDINGS/V4#CL_MV--STRESC>
	rdf:type bd:SdtmModelVariable ;
	isoC:label "Result or Finding in Standard Format"^^xsd:string ;
	bd:rule ""^^xsd:string ;
	bd:ordinal "14"^^xsd:positiveInteger ;
	bd:name "--STRESC"^^xsd:string ;
	bd:prefixed "true"^^xsd:boolean ;
	bd:description "Contains the result value for all findings, copied or derived from --ORRES in a standard format or in standard units. --STRESC should store all results or findings in character format; if results are numeric, they should also be stored in numeric format in --STRESN. For example, if various tests have results \"NONE\", \"NEG\", and \"NEGATIVE\" in --ORRES and these results effectively have the same meaning, they could be represented in standard format in --STRESC as \"NEGATIVE\"."^^xsd:string ;
	bd:typedAs <http://www.assero.co.uk/CSN#f9caeead-091c-442a-acdf-6f56a64c4dff> ;
	bd:classifiedAs <http://www.assero.co.uk/CSN#a5cd53b6-ceca-4325-aa4e-71267169582f> ;
.
<http://www.cdisc.org/SDTM_MODEL_FINDINGS/V4#CL_MV--STRESN>
	rdf:type bd:SdtmModelVariable ;
	isoC:label "Numeric Result/Finding in Standard Units"^^xsd:string ;
	bd:rule ""^^xsd:string ;
	bd:ordinal "15"^^xsd:positiveInteger ;
	bd:name "--STRESN"^^xsd:string ;
	bd:prefixed "true"^^xsd:boolean ;
	bd:description "Used for continuous or numeric results or findings in standard format; copied in numeric format from --STRESC. --STRESN should store all numeric test results or findings."^^xsd:string ;
	bd:typedAs <http://www.assero.co.uk/CSN#8b16536d-2667-4282-86b4-8724a00b8f9f> ;
	bd:classifiedAs <http://www.assero.co.uk/CSN#a5cd53b6-ceca-4325-aa4e-71267169582f> ;
.
<http://www.cdisc.org/SDTM_MODEL_FINDINGS/V4#CL_MV--STRESU>
	rdf:type bd:SdtmModelVariable ;
	isoC:label "Standard Units"^^xsd:string ;
	bd:rule ""^^xsd:string ;
	bd:ordinal "16"^^xsd:positiveInteger ;
	bd:name "--STRESU"^^xsd:string ;
	bd:prefixed "true"^^xsd:boolean ;
	bd:description "Standardized units used for --STRESC and --STRESN. Example: mol/L."^^xsd:string ;
	bd:typedAs <http://www.assero.co.uk/CSN#f9caeead-091c-442a-acdf-6f56a64c4dff> ;
	bd:classifiedAs <http://www.assero.co.uk/CSN#aa0ca4c2-93bf-477f-bf84-00cef2308e4d> ;
.
<http://www.cdisc.org/SDTM_MODEL_FINDINGS/V4#CL_MV--STNRLO>
	rdf:type bd:SdtmModelVariable ;
	isoC:label "Normal Range Lower Limit-Standard Units"^^xsd:string ;
	bd:rule ""^^xsd:string ;
	bd:ordinal "17"^^xsd:positiveInteger ;
	bd:name "--STNRLO"^^xsd:string ;
	bd:prefixed "true"^^xsd:boolean ;
	bd:description "Lower end of normal range or reference range for standardized results (e.g., --STRESC, --STRESN) represented in standardized units (-STRESU)."^^xsd:string ;
	bd:typedAs <http://www.assero.co.uk/CSN#8b16536d-2667-4282-86b4-8724a00b8f9f> ;
	bd:classifiedAs <http://www.assero.co.uk/CSN#aa0ca4c2-93bf-477f-bf84-00cef2308e4d> ;
.
<http://www.cdisc.org/SDTM_MODEL_FINDINGS/V4#CL_MV--STNRHI>
	rdf:type bd:SdtmModelVariable ;
	isoC:label "Normal Range Upper Limit-Standard Units"^^xsd:string ;
	bd:rule ""^^xsd:string ;
	bd:ordinal "18"^^xsd:positiveInteger ;
	bd:name "--STNRHI"^^xsd:string ;
	bd:prefixed "true"^^xsd:boolean ;
	bd:description "Upper end of normal range or reference range for standardized results (e.g., --STRESC, --STRESN) represented in standardized units (-STRESU)."^^xsd:string ;
	bd:typedAs <http://www.assero.co.uk/CSN#8b16536d-2667-4282-86b4-8724a00b8f9f> ;
	bd:classifiedAs <http://www.assero.co.uk/CSN#aa0ca4c2-93bf-477f-bf84-00cef2308e4d> ;
.
<http://www.cdisc.org/SDTM_MODEL_FINDINGS/V4#CL_MV--STNRC>
	rdf:type bd:SdtmModelVariable ;
	isoC:label "Normal Range for Character Results"^^xsd:string ;
	bd:rule ""^^xsd:string ;
	bd:ordinal "19"^^xsd:positiveInteger ;
	bd:name "--STNRC"^^xsd:string ;
	bd:prefixed "true"^^xsd:boolean ;
	bd:description "Normal range or reference range for results stored in --STRESC that are character in ordinal or categorical scale. Example: Negative to Trace."^^xsd:string ;
	bd:typedAs <http://www.assero.co.uk/CSN#f9caeead-091c-442a-acdf-6f56a64c4dff> ;
	bd:classifiedAs <http://www.assero.co.uk/CSN#aa0ca4c2-93bf-477f-bf84-00cef2308e4d> ;
.
<http://www.cdisc.org/SDTM_MODEL_FINDINGS/V4#CL_MV--STREFC>
	rdf:type bd:SdtmModelVariable ;
	isoC:label "Reference Result in Standard Format"^^xsd:string ;
	bd:rule ""^^xsd:string ;
	bd:ordinal "20"^^xsd:positiveInteger ;
	bd:name "--STREFC"^^xsd:string ;
	bd:prefixed "true"^^xsd:boolean ;
	bd:description "Reference value for the result or finding copied or derived from --ORREF in a standard format."^^xsd:string ;
	bd:typedAs <http://www.assero.co.uk/CSN#f9caeead-091c-442a-acdf-6f56a64c4dff> ;
	bd:classifiedAs <http://www.assero.co.uk/CSN#aa0ca4c2-93bf-477f-bf84-00cef2308e4d> ;
.
<http://www.cdisc.org/SDTM_MODEL_FINDINGS/V4#CL_MV--STREFN>
	rdf:type bd:SdtmModelVariable ;
	isoC:label "Numeric Reference Result in Std Units"^^xsd:string ;
	bd:rule ""^^xsd:string ;
	bd:ordinal "21"^^xsd:positiveInteger ;
	bd:name "--STREFN"^^xsd:string ;
	bd:prefixed "true"^^xsd:boolean ;
	bd:description "Reference value for continuous or numeric results or findings in standard format or in standard units. --STREFN uses the same units as --STRESN, if applicable."^^xsd:string ;
	bd:typedAs <http://www.assero.co.uk/CSN#8b16536d-2667-4282-86b4-8724a00b8f9f> ;
	bd:classifiedAs <http://www.assero.co.uk/CSN#aa0ca4c2-93bf-477f-bf84-00cef2308e4d> ;
.
<http://www.cdisc.org/SDTM_MODEL_FINDINGS/V4#CL_MV--NRIND>
	rdf:type bd:SdtmModelVariable ;
	isoC:label "Normal/Reference Range Indicator"^^xsd:string ;
	bd:rule ""^^xsd:string ;
	bd:ordinal "22"^^xsd:positiveInteger ;
	bd:name "--NRIND"^^xsd:string ;
	bd:prefixed "true"^^xsd:boolean ;
	bd:description "Used to indicate the value is outside the normal range or reference range. May be defined by --ORNRLO and --ORNRHI or other objective criteria. Examples: Y, N; HIGH, LOW; NORMAL; ABNORMAL."^^xsd:string ;
	bd:typedAs <http://www.assero.co.uk/CSN#f9caeead-091c-442a-acdf-6f56a64c4dff> ;
	bd:classifiedAs <http://www.assero.co.uk/CSN#aa0ca4c2-93bf-477f-bf84-00cef2308e4d> ;
.
<http://www.cdisc.org/SDTM_MODEL_FINDINGS/V4#CL_MV--RESCAT>
	rdf:type bd:SdtmModelVariable ;
	isoC:label "Result Category"^^xsd:string ;
	bd:rule ""^^xsd:string ;
	bd:ordinal "23"^^xsd:positiveInteger ;
	bd:name "--RESCAT"^^xsd:string ;
	bd:prefixed "true"^^xsd:boolean ;
	bd:description "Used to categorize the result of a finding. Example: MALIGNANT or BENIGN for tumor findings. RESISTANCE VARIANT for genetic variation."^^xsd:string ;
	bd:typedAs <http://www.assero.co.uk/CSN#f9caeead-091c-442a-acdf-6f56a64c4dff> ;
	bd:classifiedAs <http://www.assero.co.uk/CSN#aa0ca4c2-93bf-477f-bf84-00cef2308e4d> ;
.
<http://www.cdisc.org/SDTM_MODEL_FINDINGS/V4#CL_MV--CHRON>
	rdf:type bd:SdtmModelVariable ;
	isoC:label "Chronicity of Finding"^^xsd:string ;
	bd:rule ""^^xsd:string ;
	bd:ordinal "24"^^xsd:positiveInteger ;
	bd:name "--CHRON"^^xsd:string ;
	bd:prefixed "true"^^xsd:boolean ;
	bd:description "Characterization of the duration of a biological process resulting in a particular finding. Examples: ACUTE, CHRONIC, SUBACUTE."^^xsd:string ;
	bd:typedAs <http://www.assero.co.uk/CSN#f9caeead-091c-442a-acdf-6f56a64c4dff> ;
	bd:classifiedAs <http://www.assero.co.uk/CSN#aa0ca4c2-93bf-477f-bf84-00cef2308e4d> ;
.
<http://www.cdisc.org/SDTM_MODEL_FINDINGS/V4#CL_MV--DISTR>
	rdf:type bd:SdtmModelVariable ;
	isoC:label "Distribution Pattern of Finding"^^xsd:string ;
	bd:rule ""^^xsd:string ;
	bd:ordinal "25"^^xsd:positiveInteger ;
	bd:name "--DISTR"^^xsd:string ;
	bd:prefixed "true"^^xsd:boolean ;
	bd:description "Description of the distribution pattern of a finding within the examined area. Examples: FOCAL, MULTIFOCAL, DIFFUSE, FOCAL MULTIFOCAL."^^xsd:string ;
	bd:typedAs <http://www.assero.co.uk/CSN#f9caeead-091c-442a-acdf-6f56a64c4dff> ;
	bd:classifiedAs <http://www.assero.co.uk/CSN#aa0ca4c2-93bf-477f-bf84-00cef2308e4d> ;
.
<http://www.cdisc.org/SDTM_MODEL_FINDINGS/V4#CL_MV--STAT>
	rdf:type bd:SdtmModelVariable ;
	isoC:label "Completion Status"^^xsd:string ;
	bd:rule ""^^xsd:string ;
	bd:ordinal "26"^^xsd:positiveInteger ;
	bd:name "--STAT"^^xsd:string ;
	bd:prefixed "true"^^xsd:boolean ;
	bd:description "Used to indicate that a question was not asked or a test was not done, or a test was attempted but did not generate a result. Should be null or have a value of NOT DONE."^^xsd:string ;
	bd:typedAs <http://www.assero.co.uk/CSN#f9caeead-091c-442a-acdf-6f56a64c4dff> ;
	bd:classifiedAs <http://www.assero.co.uk/CSN#c87fdb01-a54e-44b2-b4e7-2aadbe8ada87> ;
.
<http://www.cdisc.org/SDTM_MODEL_FINDINGS/V4#CL_MV--REASND>
	rdf:type bd:SdtmModelVariable ;
	isoC:label "Reason Not Done"^^xsd:string ;
	bd:rule ""^^xsd:string ;
	bd:ordinal "27"^^xsd:positiveInteger ;
	bd:name "--REASND"^^xsd:string ;
	bd:prefixed "true"^^xsd:boolean ;
	bd:description "Reason not done. Used in conjunction with --STAT when value is NOT DONE."^^xsd:string ;
	bd:typedAs <http://www.assero.co.uk/CSN#f9caeead-091c-442a-acdf-6f56a64c4dff> ;
	bd:classifiedAs <http://www.assero.co.uk/CSN#c87fdb01-a54e-44b2-b4e7-2aadbe8ada87> ;
.
<http://www.cdisc.org/SDTM_MODEL_FINDINGS/V4#CL_MV--XFN>
	rdf:type bd:SdtmModelVariable ;
	isoC:label "External File Path"^^xsd:string ;
	bd:rule ""^^xsd:string ;
	bd:ordinal "28"^^xsd:positiveInteger ;
	bd:name "--XFN"^^xsd:string ;
	bd:prefixed "true"^^xsd:boolean ;
	bd:description "Filename for an external file, such as one for an ECG waveform or a medical image."^^xsd:string ;
	bd:typedAs <http://www.assero.co.uk/CSN#f9caeead-091c-442a-acdf-6f56a64c4dff> ;
	bd:classifiedAs <http://www.assero.co.uk/CSN#c87fdb01-a54e-44b2-b4e7-2aadbe8ada87> ;
.
<http://www.cdisc.org/SDTM_MODEL_FINDINGS/V4#CL_MV--NAM>
	rdf:type bd:SdtmModelVariable ;
	isoC:label "Laboratory/Vendor Name"^^xsd:string ;
	bd:rule ""^^xsd:string ;
	bd:ordinal "29"^^xsd:positiveInteger ;
	bd:name "--NAM"^^xsd:string ;
	bd:prefixed "true"^^xsd:boolean ;
	bd:description "Name or identifier of the vendor (e.g., laboratory) that provided the test results."^^xsd:string ;
	bd:typedAs <http://www.assero.co.uk/CSN#f9caeead-091c-442a-acdf-6f56a64c4dff> ;
	bd:classifiedAs <http://www.assero.co.uk/CSN#c87fdb01-a54e-44b2-b4e7-2aadbe8ada87> ;
.
<http://www.cdisc.org/SDTM_MODEL_FINDINGS/V4#CL_MV--LOINC>
	rdf:type bd:SdtmModelVariable ;
	isoC:label "LOINC Code"^^xsd:string ;
	bd:rule ""^^xsd:string ;
	bd:ordinal "30"^^xsd:positiveInteger ;
	bd:name "--LOINC"^^xsd:string ;
	bd:prefixed "true"^^xsd:boolean ;
	bd:description "Logical Observation Identifiers Names and Codes (LOINC) code for the topic variable such as a lab test."^^xsd:string ;
	bd:typedAs <http://www.assero.co.uk/CSN#f9caeead-091c-442a-acdf-6f56a64c4dff> ;
	bd:classifiedAs <http://www.assero.co.uk/CSN#aa0ca4c2-93bf-477f-bf84-00cef2308e4d> ;
.
<http://www.cdisc.org/SDTM_MODEL_FINDINGS/V4#CL_MV--SPEC>
	rdf:type bd:SdtmModelVariable ;
	isoC:label "Specimen Material Type"^^xsd:string ;
	bd:rule ""^^xsd:string ;
	bd:ordinal "31"^^xsd:positiveInteger ;
	bd:name "--SPEC"^^xsd:string ;
	bd:prefixed "true"^^xsd:boolean ;
	bd:description "Defines the type of specimen used for a measurement. Examples: SERUM, PLASMA, URINE, DNA, RNA."^^xsd:string ;
	bd:typedAs <http://www.assero.co.uk/CSN#f9caeead-091c-442a-acdf-6f56a64c4dff> ;
	bd:classifiedAs <http://www.assero.co.uk/CSN#c87fdb01-a54e-44b2-b4e7-2aadbe8ada87> ;
.
<http://www.cdisc.org/SDTM_MODEL_FINDINGS/V4#CL_MV--ANTREG>
	rdf:type bd:SdtmModelVariable ;
	isoC:label "Anatomical Region"^^xsd:string ;
	bd:rule ""^^xsd:string ;
	bd:ordinal "32"^^xsd:positiveInteger ;
	bd:name "--ANTREG"^^xsd:string ;
	bd:prefixed "true"^^xsd:boolean ;
	bd:description "Defines the specific anatomical or biological region of a tissue, organ specimen or the region from which the specimen is obtained, as defined in the protocol, such as a section or part of what is described in the --SPEC variable. Examples: CORTEX, MEDULLA, MUCOSA"^^xsd:string ;
	bd:typedAs <http://www.assero.co.uk/CSN#f9caeead-091c-442a-acdf-6f56a64c4dff> ;
	bd:classifiedAs <http://www.assero.co.uk/CSN#aa0ca4c2-93bf-477f-bf84-00cef2308e4d> ;
.
<http://www.cdisc.org/SDTM_MODEL_FINDINGS/V4#CL_MV--SPCCND>
	rdf:type bd:SdtmModelVariable ;
	isoC:label "Specimen Condition"^^xsd:string ;
	bd:rule ""^^xsd:string ;
	bd:ordinal "33"^^xsd:positiveInteger ;
	bd:name "--SPCCND"^^xsd:string ;
	bd:prefixed "true"^^xsd:boolean ;
	bd:description "Defines the condition of the specimen. Example: CLOUDY."^^xsd:string ;
	bd:typedAs <http://www.assero.co.uk/CSN#f9caeead-091c-442a-acdf-6f56a64c4dff> ;
	bd:classifiedAs <http://www.assero.co.uk/CSN#c87fdb01-a54e-44b2-b4e7-2aadbe8ada87> ;
.
<http://www.cdisc.org/SDTM_MODEL_FINDINGS/V4#CL_MV--SPCUFL>
	rdf:type bd:SdtmModelVariable ;
	isoC:label "Specimen Usability for the Test"^^xsd:string ;
	bd:rule ""^^xsd:string ;
	bd:ordinal "34"^^xsd:positiveInteger ;
	bd:name "--SPCUFL"^^xsd:string ;
	bd:prefixed "true"^^xsd:boolean ;
	bd:description "Describes the usability of the specimen for the test. The value will be N if the specimen is not usable, and null if the specimen is usable."^^xsd:string ;
	bd:typedAs <http://www.assero.co.uk/CSN#f9caeead-091c-442a-acdf-6f56a64c4dff> ;
	bd:classifiedAs <http://www.assero.co.uk/CSN#c87fdb01-a54e-44b2-b4e7-2aadbe8ada87> ;
.
<http://www.cdisc.org/SDTM_MODEL_FINDINGS/V4#CL_MV--LOC>
	rdf:type bd:SdtmModelVariable ;
	isoC:label "Location Used for the Measurement"^^xsd:string ;
	bd:rule ""^^xsd:string ;
	bd:ordinal "35"^^xsd:positiveInteger ;
	bd:name "--LOC"^^xsd:string ;
	bd:prefixed "true"^^xsd:boolean ;
	bd:description "Anatomical location of the subject relevant to the collection of the measurement. Examples: RECTAL for temperature, ARM for blood pressure."^^xsd:string ;
	bd:typedAs <http://www.assero.co.uk/CSN#f9caeead-091c-442a-acdf-6f56a64c4dff> ;
	bd:classifiedAs <http://www.assero.co.uk/CSN#c87fdb01-a54e-44b2-b4e7-2aadbe8ada87> ;
.
<http://www.cdisc.org/SDTM_MODEL_FINDINGS/V4#CL_MV--LAT>
	rdf:type bd:SdtmModelVariable ;
	isoC:label "Laterality"^^xsd:string ;
	bd:rule ""^^xsd:string ;
	bd:ordinal "36"^^xsd:positiveInteger ;
	bd:name "--LAT"^^xsd:string ;
	bd:prefixed "true"^^xsd:boolean ;
	bd:description "Qualifier for anatomical location or specimen further detailing laterality. Examples: RIGHT, LEFT, BILATERAL"^^xsd:string ;
	bd:typedAs <http://www.assero.co.uk/CSN#f9caeead-091c-442a-acdf-6f56a64c4dff> ;
	bd:classifiedAs <http://www.assero.co.uk/CSN#aa0ca4c2-93bf-477f-bf84-00cef2308e4d> ;
.
<http://www.cdisc.org/SDTM_MODEL_FINDINGS/V4#CL_MV--DIR>
	rdf:type bd:SdtmModelVariable ;
	isoC:label "Directionality"^^xsd:string ;
	bd:rule ""^^xsd:string ;
	bd:ordinal "37"^^xsd:positiveInteger ;
	bd:name "--DIR"^^xsd:string ;
	bd:prefixed "true"^^xsd:boolean ;
	bd:description "Qualifier for anatomical location or specimen further detailing directionality. Examples: ANTERIOR, LOWER, PROXIMAL"^^xsd:string ;
	bd:typedAs <http://www.assero.co.uk/CSN#f9caeead-091c-442a-acdf-6f56a64c4dff> ;
	bd:classifiedAs <http://www.assero.co.uk/CSN#aa0ca4c2-93bf-477f-bf84-00cef2308e4d> ;
.
<http://www.cdisc.org/SDTM_MODEL_FINDINGS/V4#CL_MV--PORTOT>
	rdf:type bd:SdtmModelVariable ;
	isoC:label "Portion or Totality"^^xsd:string ;
	bd:rule ""^^xsd:string ;
	bd:ordinal "38"^^xsd:positiveInteger ;
	bd:name "--PORTOT"^^xsd:string ;
	bd:prefixed "true"^^xsd:boolean ;
	bd:description "Qualifier for anatomical location or specimen further detailing the distribution, which means arrangement of, apportioning of. Examples: ENTIRE, SINGLE, SEGMENT, MANY."^^xsd:string ;
	bd:typedAs <http://www.assero.co.uk/CSN#f9caeead-091c-442a-acdf-6f56a64c4dff> ;
	bd:classifiedAs <http://www.assero.co.uk/CSN#aa0ca4c2-93bf-477f-bf84-00cef2308e4d> ;
.
<http://www.cdisc.org/SDTM_MODEL_FINDINGS/V4#CL_MV--METHOD>
	rdf:type bd:SdtmModelVariable ;
	isoC:label "Method of Test or Examination"^^xsd:string ;
	bd:rule ""^^xsd:string ;
	bd:ordinal "39"^^xsd:positiveInteger ;
	bd:name "--METHOD"^^xsd:string ;
	bd:prefixed "true"^^xsd:boolean ;
	bd:description "Method of the test or examination. Examples: EIA (Enzyme Immunoassay), ELECTROPHORESIS, DIPSTICK"^^xsd:string ;
	bd:typedAs <http://www.assero.co.uk/CSN#f9caeead-091c-442a-acdf-6f56a64c4dff> ;
	bd:classifiedAs <http://www.assero.co.uk/CSN#c87fdb01-a54e-44b2-b4e7-2aadbe8ada87> ;
.
<http://www.cdisc.org/SDTM_MODEL_FINDINGS/V4#CL_MV--RUNID>
	rdf:type bd:SdtmModelVariable ;
	isoC:label "Run ID"^^xsd:string ;
	bd:rule ""^^xsd:string ;
	bd:ordinal "40"^^xsd:positiveInteger ;
	bd:name "--RUNID"^^xsd:string ;
	bd:prefixed "true"^^xsd:boolean ;
	bd:description "A unique identifier for a particular run of a test on a particular batch of samples."^^xsd:string ;
	bd:typedAs <http://www.assero.co.uk/CSN#f9caeead-091c-442a-acdf-6f56a64c4dff> ;
	bd:classifiedAs <http://www.assero.co.uk/CSN#c87fdb01-a54e-44b2-b4e7-2aadbe8ada87> ;
.
<http://www.cdisc.org/SDTM_MODEL_FINDINGS/V4#CL_MV--ANMETH>
	rdf:type bd:SdtmModelVariable ;
	isoC:label "Analysis Method"^^xsd:string ;
	bd:rule ""^^xsd:string ;
	bd:ordinal "41"^^xsd:positiveInteger ;
	bd:name "--ANMETH"^^xsd:string ;
	bd:prefixed "true"^^xsd:boolean ;
	bd:description "Analysis method applied to obtain a summarized result. Analysis method describes the method of secondary processing applied to a complex observation result (e.g. an image or a genetic sequence)."^^xsd:string ;
	bd:typedAs <http://www.assero.co.uk/CSN#f9caeead-091c-442a-acdf-6f56a64c4dff> ;
	bd:classifiedAs <http://www.assero.co.uk/CSN#c87fdb01-a54e-44b2-b4e7-2aadbe8ada87> ;
.
<http://www.cdisc.org/SDTM_MODEL_FINDINGS/V4#CL_MV--LEAD>
	rdf:type bd:SdtmModelVariable ;
	isoC:label "Lead Identified to Collect Measurements"^^xsd:string ;
	bd:rule ""^^xsd:string ;
	bd:ordinal "42"^^xsd:positiveInteger ;
	bd:name "--LEAD"^^xsd:string ;
	bd:prefixed "true"^^xsd:boolean ;
	bd:description "Lead or leads identified to capture the measurement for a test from an instrument. Examples: LEAD I, LEAD V2, LEAD CM5."^^xsd:string ;
	bd:typedAs <http://www.assero.co.uk/CSN#f9caeead-091c-442a-acdf-6f56a64c4dff> ;
	bd:classifiedAs <http://www.assero.co.uk/CSN#c87fdb01-a54e-44b2-b4e7-2aadbe8ada87> ;
.
<http://www.cdisc.org/SDTM_MODEL_FINDINGS/V4#CL_MV--CSTATE>
	rdf:type bd:SdtmModelVariable ;
	isoC:label "Consciousness State"^^xsd:string ;
	bd:rule ""^^xsd:string ;
	bd:ordinal "43"^^xsd:positiveInteger ;
	bd:name "--CSTATE"^^xsd:string ;
	bd:prefixed "true"^^xsd:boolean ;
	bd:description "The consciousness state of the subject at the time of measurement. Examples: CONSCIOUS, SEMI-CONSCIOUS, UNCONSCIOUS"^^xsd:string ;
	bd:typedAs <http://www.assero.co.uk/CSN#f9caeead-091c-442a-acdf-6f56a64c4dff> ;
	bd:classifiedAs <http://www.assero.co.uk/CSN#c87fdb01-a54e-44b2-b4e7-2aadbe8ada87> ;
.
<http://www.cdisc.org/SDTM_MODEL_FINDINGS/V4#CL_MV--LOBXFL>
	rdf:type bd:SdtmModelVariable ;
	isoC:label "Last Observation Before Exposure Flag"^^xsd:string ;
	bd:rule ""^^xsd:string ;
	bd:ordinal "44"^^xsd:positiveInteger ;
	bd:name "--LOBXFL"^^xsd:string ;
	bd:prefixed "true"^^xsd:boolean ;
	bd:description "Operationally-derived indicator used to identify the last non- missing value prior to RFXSTDTC. Should be Y or null."^^xsd:string ;
	bd:typedAs <http://www.assero.co.uk/CSN#f9caeead-091c-442a-acdf-6f56a64c4dff> ;
	bd:classifiedAs <http://www.assero.co.uk/CSN#c87fdb01-a54e-44b2-b4e7-2aadbe8ada87> ;
.
<http://www.cdisc.org/SDTM_MODEL_FINDINGS/V4#CL_MV--BLFL>
	rdf:type bd:SdtmModelVariable ;
	isoC:label "Baseline Flag"^^xsd:string ;
	bd:rule ""^^xsd:string ;
	bd:ordinal "45"^^xsd:positiveInteger ;
	bd:name "--BLFL"^^xsd:string ;
	bd:prefixed "true"^^xsd:boolean ;
	bd:description "Indicator used to identify a baseline value. Should be Y or null."^^xsd:string ;
	bd:typedAs <http://www.assero.co.uk/CSN#f9caeead-091c-442a-acdf-6f56a64c4dff> ;
	bd:classifiedAs <http://www.assero.co.uk/CSN#c87fdb01-a54e-44b2-b4e7-2aadbe8ada87> ;
.
<http://www.cdisc.org/SDTM_MODEL_FINDINGS/V4#CL_MV--FAST>
	rdf:type bd:SdtmModelVariable ;
	isoC:label "Fasting Status"^^xsd:string ;
	bd:rule ""^^xsd:string ;
	bd:ordinal "46"^^xsd:positiveInteger ;
	bd:name "--FAST"^^xsd:string ;
	bd:prefixed "true"^^xsd:boolean ;
	bd:description "Indicator used to identify fasting status. Valid values include Y, N, U or null if not relevant."^^xsd:string ;
	bd:typedAs <http://www.assero.co.uk/CSN#f9caeead-091c-442a-acdf-6f56a64c4dff> ;
	bd:classifiedAs <http://www.assero.co.uk/CSN#c87fdb01-a54e-44b2-b4e7-2aadbe8ada87> ;
.
<http://www.cdisc.org/SDTM_MODEL_FINDINGS/V4#CL_MV--DRVFL>
	rdf:type bd:SdtmModelVariable ;
	isoC:label "Derived Flag"^^xsd:string ;
	bd:rule ""^^xsd:string ;
	bd:ordinal "47"^^xsd:positiveInteger ;
	bd:name "--DRVFL"^^xsd:string ;
	bd:prefixed "true"^^xsd:boolean ;
	bd:description "Used to indicate a derived record (e.g., a record that represents the average of other records such as a computed baseline). Should be Y or null."^^xsd:string ;
	bd:typedAs <http://www.assero.co.uk/CSN#f9caeead-091c-442a-acdf-6f56a64c4dff> ;
	bd:classifiedAs <http://www.assero.co.uk/CSN#c87fdb01-a54e-44b2-b4e7-2aadbe8ada87> ;
.
<http://www.cdisc.org/SDTM_MODEL_FINDINGS/V4#CL_MV--EVAL>
	rdf:type bd:SdtmModelVariable ;
	isoC:label "Evaluator"^^xsd:string ;
	bd:rule ""^^xsd:string ;
	bd:ordinal "48"^^xsd:positiveInteger ;
	bd:name "--EVAL"^^xsd:string ;
	bd:prefixed "true"^^xsd:boolean ;
	bd:description "Role of the person who provided the evaluation. Used only for results that are subjective (e.g., assigned by a person or a group). Examples: ADJUDICATION COMMITTEE, INDEPENDENT ASSESSOR, RADIOLOGIST."^^xsd:string ;
	bd:typedAs <http://www.assero.co.uk/CSN#f9caeead-091c-442a-acdf-6f56a64c4dff> ;
	bd:classifiedAs <http://www.assero.co.uk/CSN#c87fdb01-a54e-44b2-b4e7-2aadbe8ada87> ;
.
<http://www.cdisc.org/SDTM_MODEL_FINDINGS/V4#CL_MV--EVALID>
	rdf:type bd:SdtmModelVariable ;
	isoC:label "Evaluator Identifier"^^xsd:string ;
	bd:rule ""^^xsd:string ;
	bd:ordinal "49"^^xsd:positiveInteger ;
	bd:name "--EVALID"^^xsd:string ;
	bd:prefixed "true"^^xsd:boolean ;
	bd:description "Used to distinguish multiple evaluators with the same role recorded in --EVAL. Examples: RADIOLOGIST1, RADIOLOGIST2."^^xsd:string ;
	bd:typedAs <http://www.assero.co.uk/CSN#f9caeead-091c-442a-acdf-6f56a64c4dff> ;
	bd:classifiedAs <http://www.assero.co.uk/CSN#aa0ca4c2-93bf-477f-bf84-00cef2308e4d> ;
.
<http://www.cdisc.org/SDTM_MODEL_FINDINGS/V4#CL_MV--ACPTFL>
	rdf:type bd:SdtmModelVariable ;
	isoC:label "Accepted Record Flag"^^xsd:string ;
	bd:rule ""^^xsd:string ;
	bd:ordinal "50"^^xsd:positiveInteger ;
	bd:name "--ACPTFL"^^xsd:string ;
	bd:prefixed "true"^^xsd:boolean ;
	bd:description "In cases where more than one assessor provides an evaluation of a result or response, this flag identifies the record that is considered to be the accepted evaluation. Expected values can include Y, N or null. This is not intended to be an analysis flag to indicate acceptability for a given analysis"^^xsd:string ;
	bd:typedAs <http://www.assero.co.uk/CSN#f9caeead-091c-442a-acdf-6f56a64c4dff> ;
	bd:classifiedAs <http://www.assero.co.uk/CSN#c87fdb01-a54e-44b2-b4e7-2aadbe8ada87> ;
.
<http://www.cdisc.org/SDTM_MODEL_FINDINGS/V4#CL_MV--TOX>
	rdf:type bd:SdtmModelVariable ;
	isoC:label "Toxicity"^^xsd:string ;
	bd:rule ""^^xsd:string ;
	bd:ordinal "51"^^xsd:positiveInteger ;
	bd:name "--TOX"^^xsd:string ;
	bd:prefixed "true"^^xsd:boolean ;
	bd:description "Description of toxicity quantified by --TOXGR such as NCI CTCAE Short Name. Examples: HYPERCALCEMIA, HYPOCALCEMIA. Sponsor should specify which scale and version is used in the Sponsor Comments column of the Define-XML document."^^xsd:string ;
	bd:typedAs <http://www.assero.co.uk/CSN#f9caeead-091c-442a-acdf-6f56a64c4dff> ;
	bd:classifiedAs <http://www.assero.co.uk/CSN#aa0ca4c2-93bf-477f-bf84-00cef2308e4d> ;
.
<http://www.cdisc.org/SDTM_MODEL_FINDINGS/V4#CL_MV--TOXGR>
	rdf:type bd:SdtmModelVariable ;
	isoC:label "Toxicity Grade"^^xsd:string ;
	bd:rule ""^^xsd:string ;
	bd:ordinal "52"^^xsd:positiveInteger ;
	bd:name "--TOXGR"^^xsd:string ;
	bd:prefixed "true"^^xsd:boolean ;
	bd:description "Records toxicity grade using a standard toxicity scale (such as the NCI CTCAE). Sponsor should specify which scale and version is used in the Sponsor Comments column of the Define data definition document. Example: 2."^^xsd:string ;
	bd:typedAs <http://www.assero.co.uk/CSN#f9caeead-091c-442a-acdf-6f56a64c4dff> ;
	bd:classifiedAs <http://www.assero.co.uk/CSN#c87fdb01-a54e-44b2-b4e7-2aadbe8ada87> ;
.
<http://www.cdisc.org/SDTM_MODEL_FINDINGS/V4#CL_MV--SEV>
	rdf:type bd:SdtmModelVariable ;
	isoC:label "Severity"^^xsd:string ;
	bd:rule ""^^xsd:string ;
	bd:ordinal "53"^^xsd:positiveInteger ;
	bd:name "--SEV"^^xsd:string ;
	bd:prefixed "true"^^xsd:boolean ;
	bd:description "Describes the severity or intensity of a particular finding. Examples: MILD, MODERATE, SEVERE."^^xsd:string ;
	bd:typedAs <http://www.assero.co.uk/CSN#f9caeead-091c-442a-acdf-6f56a64c4dff> ;
	bd:classifiedAs <http://www.assero.co.uk/CSN#c87fdb01-a54e-44b2-b4e7-2aadbe8ada87> ;
.
<http://www.cdisc.org/SDTM_MODEL_FINDINGS/V4#CL_MV--DTHREL>
	rdf:type bd:SdtmModelVariable ;
	isoC:label "Relationship to Death"^^xsd:string ;
	bd:rule ""^^xsd:string ;
	bd:ordinal "54"^^xsd:positiveInteger ;
	bd:name "--DTHREL"^^xsd:string ;
	bd:prefixed "true"^^xsd:boolean ;
	bd:description "Describes the relationship of a particular finding to the death of a subject. Examples: Y, N or U. Not to be used with human clinical trials."^^xsd:string ;
	bd:typedAs <http://www.assero.co.uk/CSN#f9caeead-091c-442a-acdf-6f56a64c4dff> ;
	bd:classifiedAs <http://www.assero.co.uk/CSN#c87fdb01-a54e-44b2-b4e7-2aadbe8ada87> ;
.
<http://www.cdisc.org/SDTM_MODEL_FINDINGS/V4#CL_MV--LLOQ>
	rdf:type bd:SdtmModelVariable ;
	isoC:label "Lower Limit of Quantitation"^^xsd:string ;
	bd:rule ""^^xsd:string ;
	bd:ordinal "55"^^xsd:positiveInteger ;
	bd:name "--LLOQ"^^xsd:string ;
	bd:prefixed "true"^^xsd:boolean ;
	bd:description "Indicates the lower limit of quantitation for an assay. Units will be those used for --STRESU."^^xsd:string ;
	bd:typedAs <http://www.assero.co.uk/CSN#8b16536d-2667-4282-86b4-8724a00b8f9f> ;
	bd:classifiedAs <http://www.assero.co.uk/CSN#aa0ca4c2-93bf-477f-bf84-00cef2308e4d> ;
.
<http://www.cdisc.org/SDTM_MODEL_FINDINGS/V4#CL_MV--ULOQ>
	rdf:type bd:SdtmModelVariable ;
	isoC:label "Upper Limit of Quantitation"^^xsd:string ;
	bd:rule ""^^xsd:string ;
	bd:ordinal "56"^^xsd:positiveInteger ;
	bd:name "--ULOQ"^^xsd:string ;
	bd:prefixed "true"^^xsd:boolean ;
	bd:description "Indicates the upper limit of quantitation for an assay. Units will be those used for --STRESU."^^xsd:string ;
	bd:typedAs <http://www.assero.co.uk/CSN#8b16536d-2667-4282-86b4-8724a00b8f9f> ;
	bd:classifiedAs <http://www.assero.co.uk/CSN#aa0ca4c2-93bf-477f-bf84-00cef2308e4d> ;
.
<http://www.cdisc.org/SDTM_MODEL_FINDINGS/V4#CL_MV--EXCLFL>
	rdf:type bd:SdtmModelVariable ;
	isoC:label "Exclude from Statistics"^^xsd:string ;
	bd:rule ""^^xsd:string ;
	bd:ordinal "57"^^xsd:positiveInteger ;
	bd:name "--EXCLFL"^^xsd:string ;
	bd:prefixed "true"^^xsd:boolean ;
	bd:description "Indicates whether the values in the result variables for this record should be excluded from summary statistical calculations such as Mean, Standard Deviation, and Count (and others). Expected to be Y or null. --EXCLFL should not be used when --STAT is NOT DONE. Not to be used with human clinical trials."^^xsd:string ;
	bd:typedAs <http://www.assero.co.uk/CSN#f9caeead-091c-442a-acdf-6f56a64c4dff> ;
	bd:classifiedAs <http://www.assero.co.uk/CSN#c87fdb01-a54e-44b2-b4e7-2aadbe8ada87> ;
.
<http://www.cdisc.org/SDTM_MODEL_FINDINGS/V4#CL_MV--REASEX>
	rdf:type bd:SdtmModelVariable ;
	isoC:label "Reason for Exclusion from Statistics"^^xsd:string ;
	bd:rule ""^^xsd:string ;
	bd:ordinal "58"^^xsd:positiveInteger ;
	bd:name "--REASEX"^^xsd:string ;
	bd:prefixed "true"^^xsd:boolean ;
	bd:description "Reason excluded from statistics. Used in conjunction with --EXCLFL when its value is Y. Not to be used with human clinical trials."^^xsd:string ;
	bd:typedAs <http://www.assero.co.uk/CSN#f9caeead-091c-442a-acdf-6f56a64c4dff> ;
	bd:classifiedAs <http://www.assero.co.uk/CSN#c87fdb01-a54e-44b2-b4e7-2aadbe8ada87> ;
.
<http://www.cdisc.org/SDTM_MODEL_FINDINGS/V4#CL_MV--USCHFL>
	rdf:type bd:SdtmModelVariable ;
	isoC:label "Unscheduled Flag"^^xsd:string ;
	bd:rule ""^^xsd:string ;
	bd:ordinal "59"^^xsd:positiveInteger ;
	bd:name "--USCHFL"^^xsd:string ;
	bd:prefixed "true"^^xsd:boolean ;
	bd:description "Indicates whether the timing of a performed test or observation was unscheduled. If a test or observation was performed based upon a schedule defined in the protocol, this flag should be null. Expected values are Y or null. Not to be used with human clinical trials. This variable would not be needed when information on planned assessments is provided, such as when the Trial Visits (TV) and Subject Visits (SV) domains are used."^^xsd:string ;
	bd:typedAs <http://www.assero.co.uk/CSN#f9caeead-091c-442a-acdf-6f56a64c4dff> ;
	bd:classifiedAs <http://www.assero.co.uk/CSN#c87fdb01-a54e-44b2-b4e7-2aadbe8ada87> ;
.
<http://www.cdisc.org/SDTM_MODEL_FINDINGS/V4#CL_MV--REPNUM>
	rdf:type bd:SdtmModelVariable ;
	isoC:label "Repetition Number"^^xsd:string ;
	bd:rule ""^^xsd:string ;
	bd:ordinal "60"^^xsd:positiveInteger ;
	bd:name "--REPNUM"^^xsd:string ;
	bd:prefixed "true"^^xsd:boolean ;
	bd:description "The instance number of a test that is repeated within a given timeframe for the same test. The level of granularity can vary, e.g., within a time point or within a visit. For example, multiple measurements of blood pressure or multiple analyses of a sample."^^xsd:string ;
	bd:typedAs <http://www.assero.co.uk/CSN#8b16536d-2667-4282-86b4-8724a00b8f9f> ;
	bd:classifiedAs <http://www.assero.co.uk/CSN#c87fdb01-a54e-44b2-b4e7-2aadbe8ada87> ;
.
<http://www.cdisc.org/SDTM_MODEL_INTERVENTIONS/V4#CL>
	rdf:type bd:SdtmClass ;
	isoC:label "SDTM MODEL INTERVENTIONS"^^xsd:string ;
	isoT:hasState <http://www.cdisc.org/SDTM_MODEL_INTERVENTIONS/V4#CL_RS> ;
	isoT:hasIdentifier <http://www.cdisc.org/SDTM_MODEL_INTERVENTIONS/V4#CL_SI> ;
	isoT:origin ""^^xsd:string ;
	isoT:changeDescription ""^^xsd:string ;
	isoT:creationDate "2016-07-05T00:00:00+00:00"^^xsd:dateTime ;
	isoT:lastChangeDate "2016-07-05T00:00:00+00:00"^^xsd:dateTime ;
	isoT:explanatoryComment ""^^xsd:string ;
	bd:rule ""^^xsd:string ;
	bd:ordinal "1"^^xsd:positiveInteger ;
	bd:includesColumn <http://www.cdisc.org/SDTM_MODEL_ALL/V1#CL_MVSTUDYID> ;
	bd:includesColumn <http://www.cdisc.org/SDTM_MODEL_ALL/V2#CL_MVDOMAIN> ;
	bd:includesColumn <http://www.cdisc.org/SDTM_MODEL_ALL/V1#CL_MVUSUBJID> ;
	bd:includesColumn <http://www.cdisc.org/SDTM_MODEL_ALL/V4#CL_MVAPID> ;
	bd:includesColumn <http://www.cdisc.org/SDTM_MODEL_ALL/V4#CL_MVPOOLID> ;
	bd:includesColumn <http://www.cdisc.org/SDTM_MODEL_ALL/V4#CL_MVSPDEVID> ;
	bd:includesColumn <http://www.cdisc.org/SDTM_MODEL_ALL/V4#CL_MVFETUSID> ;
	bd:includesColumn <http://www.cdisc.org/SDTM_MODEL_ALL/V4#CL_MVFOCID> ;
	bd:includesColumn <http://www.cdisc.org/SDTM_MODEL_ALL/V4#CL_MV--SEQ> ;
	bd:includesColumn <http://www.cdisc.org/SDTM_MODEL_ALL/V4#CL_MV--GRPID> ;
	bd:includesColumn <http://www.cdisc.org/SDTM_MODEL_ALL/V4#CL_MV--REFID> ;
	bd:includesColumn <http://www.cdisc.org/SDTM_MODEL_ALL/V4#CL_MV--RECID> ;
	bd:includesColumn <http://www.cdisc.org/SDTM_MODEL_ALL/V4#CL_MV--SPID> ;
	bd:includesColumn <http://www.cdisc.org/SDTM_MODEL_ALL/V4#CL_MV--LNKID> ;
	bd:includesColumn <http://www.cdisc.org/SDTM_MODEL_ALL/V4#CL_MV--LNKGRP> ;
	bd:includesColumn <http://www.cdisc.org/SDTM_MODEL_ALL/V4#CL_MVVISITNUM> ;
	bd:includesColumn <http://www.cdisc.org/SDTM_MODEL_ALL/V4#CL_MVVISIT> ;
	bd:includesColumn <http://www.cdisc.org/SDTM_MODEL_ALL/V4#CL_MVVISITDY> ;
	bd:includesColumn <http://www.cdisc.org/SDTM_MODEL_ALL/V4#CL_MVTAETORD> ;
	bd:includesColumn <http://www.cdisc.org/SDTM_MODEL_ALL/V4#CL_MVEPOCH> ;
	bd:includesColumn <http://www.cdisc.org/SDTM_MODEL_ALL/V4#CL_MV--DTC> ;
	bd:includesColumn <http://www.cdisc.org/SDTM_MODEL_ALL/V4#CL_MV--STDTC> ;
	bd:includesColumn <http://www.cdisc.org/SDTM_MODEL_ALL/V4#CL_MV--ENDTC> ;
	bd:includesColumn <http://www.cdisc.org/SDTM_MODEL_ALL/V4#CL_MV--DY> ;
	bd:includesColumn <http://www.cdisc.org/SDTM_MODEL_ALL/V4#CL_MV--STDY> ;
	bd:includesColumn <http://www.cdisc.org/SDTM_MODEL_ALL/V4#CL_MV--ENDY> ;
	bd:includesColumn <http://www.cdisc.org/SDTM_MODEL_ALL/V4#CL_MV--NOMDY> ;
	bd:includesColumn <http://www.cdisc.org/SDTM_MODEL_ALL/V4#CL_MV--NOMLBL> ;
	bd:includesColumn <http://www.cdisc.org/SDTM_MODEL_ALL/V4#CL_MV--DUR> ;
	bd:includesColumn <http://www.cdisc.org/SDTM_MODEL_ALL/V4#CL_MV--TPT> ;
	bd:includesColumn <http://www.cdisc.org/SDTM_MODEL_ALL/V4#CL_MV--TPTNUM> ;
	bd:includesColumn <http://www.cdisc.org/SDTM_MODEL_ALL/V4#CL_MV--ELTM> ;
	bd:includesColumn <http://www.cdisc.org/SDTM_MODEL_ALL/V4#CL_MV--TPTREF> ;
	bd:includesColumn <http://www.cdisc.org/SDTM_MODEL_ALL/V4#CL_MV--RFTDTC> ;
	bd:includesColumn <http://www.cdisc.org/SDTM_MODEL_ALL/V4#CL_MV--STRF> ;
	bd:includesColumn <http://www.cdisc.org/SDTM_MODEL_ALL/V4#CL_MV--ENRF> ;
	bd:includesColumn <http://www.cdisc.org/SDTM_MODEL_ALL/V4#CL_MV--EVLINT> ;
	bd:includesColumn <http://www.cdisc.org/SDTM_MODEL_ALL/V4#CL_MV--EVINTX> ;
	bd:includesColumn <http://www.cdisc.org/SDTM_MODEL_ALL/V4#CL_MV--STRTPT> ;
	bd:includesColumn <http://www.cdisc.org/SDTM_MODEL_ALL/V4#CL_MV--STTPT> ;
	bd:includesColumn <http://www.cdisc.org/SDTM_MODEL_ALL/V4#CL_MV--ENRTPT> ;
	bd:includesColumn <http://www.cdisc.org/SDTM_MODEL_ALL/V4#CL_MV--ENTPT> ;
	bd:includesColumn <http://www.cdisc.org/SDTM_MODEL_ALL/V4#CL_MVMIDS> ;
	bd:includesColumn <http://www.cdisc.org/SDTM_MODEL_ALL/V4#CL_MVRELMIDS> ;
	bd:includesColumn <http://www.cdisc.org/SDTM_MODEL_ALL/V4#CL_MVMIDSDTC> ;
	bd:includesColumn <http://www.cdisc.org/SDTM_MODEL_ALL/V4#CL_MV--STINT> ;
	bd:includesColumn <http://www.cdisc.org/SDTM_MODEL_ALL/V4#CL_MV--ENINT> ;
	bd:includesColumn <http://www.cdisc.org/SDTM_MODEL_ALL/V4#CL_MV--DETECT> ;
	bd:includesColumn <http://www.cdisc.org/SDTM_MODEL_INTERVENTIONS/V1#CL_MV--TRT> ;
	bd:includesColumn <http://www.cdisc.org/SDTM_MODEL_INTERVENTIONS/V1#CL_MV--MODIFY> ;
	bd:includesColumn <http://www.cdisc.org/SDTM_MODEL_INTERVENTIONS/V1#CL_MV--DECOD> ;
	bd:includesColumn <http://www.cdisc.org/SDTM_MODEL_INTERVENTIONS/V3#CL_MV--MOOD> ;
	bd:includesColumn <http://www.cdisc.org/SDTM_MODEL_INTERVENTIONS/V3#CL_MV--CAT> ;
	bd:includesColumn <http://www.cdisc.org/SDTM_MODEL_INTERVENTIONS/V3#CL_MV--SCAT> ;
	bd:includesColumn <http://www.cdisc.org/SDTM_MODEL_INTERVENTIONS/V3#CL_MV--PRESP> ;
	bd:includesColumn <http://www.cdisc.org/SDTM_MODEL_INTERVENTIONS/V3#CL_MV--OCCUR> ;
	bd:includesColumn <http://www.cdisc.org/SDTM_MODEL_INTERVENTIONS/V3#CL_MV--STAT> ;
	bd:includesColumn <http://www.cdisc.org/SDTM_MODEL_INTERVENTIONS/V3#CL_MV--REASND> ;
	bd:includesColumn <http://www.cdisc.org/SDTM_MODEL_INTERVENTIONS/V3#CL_MV--INDC> ;
	bd:includesColumn <http://www.cdisc.org/SDTM_MODEL_INTERVENTIONS/V3#CL_MV--CLAS> ;
	bd:includesColumn <http://www.cdisc.org/SDTM_MODEL_INTERVENTIONS/V3#CL_MV--CLASCD> ;
	bd:includesColumn <http://www.cdisc.org/SDTM_MODEL_INTERVENTIONS/V3#CL_MV--DOSE> ;
	bd:includesColumn <http://www.cdisc.org/SDTM_MODEL_INTERVENTIONS/V3#CL_MV--DOSTXT> ;
	bd:includesColumn <http://www.cdisc.org/SDTM_MODEL_INTERVENTIONS/V3#CL_MV--DOSU> ;
	bd:includesColumn <http://www.cdisc.org/SDTM_MODEL_INTERVENTIONS/V3#CL_MV--DOSFRM> ;
	bd:includesColumn <http://www.cdisc.org/SDTM_MODEL_INTERVENTIONS/V3#CL_MV--DOSFRQ> ;
	bd:includesColumn <http://www.cdisc.org/SDTM_MODEL_INTERVENTIONS/V3#CL_MV--DOSTOT> ;
	bd:includesColumn <http://www.cdisc.org/SDTM_MODEL_INTERVENTIONS/V3#CL_MV--DOSRGM> ;
	bd:includesColumn <http://www.cdisc.org/SDTM_MODEL_INTERVENTIONS/V3#CL_MV--ROUTE> ;
	bd:includesColumn <http://www.cdisc.org/SDTM_MODEL_INTERVENTIONS/V3#CL_MV--LOT> ;
	bd:includesColumn <http://www.cdisc.org/SDTM_MODEL_INTERVENTIONS/V3#CL_MV--LOC> ;
	bd:includesColumn <http://www.cdisc.org/SDTM_MODEL_INTERVENTIONS/V3#CL_MV--LAT> ;
	bd:includesColumn <http://www.cdisc.org/SDTM_MODEL_INTERVENTIONS/V3#CL_MV--DIR> ;
	bd:includesColumn <http://www.cdisc.org/SDTM_MODEL_INTERVENTIONS/V3#CL_MV--PORTOT> ;
	bd:includesColumn <http://www.cdisc.org/SDTM_MODEL_INTERVENTIONS/V3#CL_MV--FAST> ;
	bd:includesColumn <http://www.cdisc.org/SDTM_MODEL_INTERVENTIONS/V3#CL_MV--PSTRG> ;
	bd:includesColumn <http://www.cdisc.org/SDTM_MODEL_INTERVENTIONS/V3#CL_MV--PSTRGU> ;
	bd:includesColumn <http://www.cdisc.org/SDTM_MODEL_INTERVENTIONS/V3#CL_MV--TRTV> ;
	bd:includesColumn <http://www.cdisc.org/SDTM_MODEL_INTERVENTIONS/V3#CL_MV--VAMT> ;
	bd:includesColumn <http://www.cdisc.org/SDTM_MODEL_INTERVENTIONS/V3#CL_MV--VAMTU> ;
	bd:includesColumn <http://www.cdisc.org/SDTM_MODEL_INTERVENTIONS/V3#CL_MV--ADJ> ;
	bd:includesColumn <http://www.cdisc.org/SDTM_MODEL_INTERVENTIONS/V4#CL_MV--USCHFL> ;
.
<http://www.cdisc.org/SDTM_MODEL_INTERVENTIONS/V4#CL_RS>
	rdf:type isoR:RegistrationState ;
	isoR:registrationStatus "Standard"^^xsd:string ;
	isoR:administrativeNote ""^^xsd:string ;
	isoR:effectiveDate "2016-01-01T00:00:00+00:00"^^xsd:dateTime ;
	isoR:untilDate "2016-01-01T00:00:00+00:00"^^xsd:dateTime ;
	isoR:unresolvedIssue ""^^xsd:string ;
	isoR:administrativeStatus ""^^xsd:string ;
	isoR:previousState "Standard"^^xsd:string ;
	isoR:multipleEdit "false"^^xsd:boolean ;
	isoR:byAuthority <http://www.assero.co.uk/RA#DUNS084433759> ;
.
<http://www.cdisc.org/SDTM_MODEL_INTERVENTIONS/V4#CL_SI>
	rdf:type isoI:ScopedIdentifier ;
	isoI:identifier "SDTM MODEL INTERVENTIONS"^^xsd:string ;
	isoI:versionLabel "2016-07-05 Release"^^xsd:string ;
	isoI:version "4"^^xsd:positiveInteger ;
	isoI:semanticVersion "4.0.0"^^xsd:string ;
	isoI:hasScope <http://www.assero.co.uk/NS#CDISC> ;
.
<http://www.cdisc.org/SDTM_MODEL_INTERVENTIONS/V4#CL_MV--USCHFL>
	rdf:type bd:SdtmModelVariable ;
	isoC:label "Unscheduled Flag"^^xsd:string ;
	bd:rule ""^^xsd:string ;
	bd:ordinal "34"^^xsd:positiveInteger ;
	bd:name "--USCHFL"^^xsd:string ;
	bd:prefixed "true"^^xsd:boolean ;
	bd:description "Indicates whether the timing of a performed test or observation was unscheduled. If a test or observation was performed based upon a schedule defined in the protocol, this flag should be null. Expected values are Y or null. Not to be used with human clinical trials. This variable would not be needed when information on planned assessments is provided, such as when the Trial Visits (TV) and Subject Visits (SV) domains are used."^^xsd:string ;
	bd:typedAs <http://www.assero.co.uk/CSN#f9caeead-091c-442a-acdf-6f56a64c4dff> ;
	bd:classifiedAs <http://www.assero.co.uk/CSN#c87fdb01-a54e-44b2-b4e7-2aadbe8ada87> ;
.
<http://www.cdisc.org/POOLDEF/V4#CL>
	rdf:type bd:SdtmClass ;
	isoC:label "POOLDEF"^^xsd:string ;
	isoT:hasState <http://www.cdisc.org/POOLDEF/V4#CL_RS> ;
	isoT:hasIdentifier <http://www.cdisc.org/POOLDEF/V4#CL_SI> ;
	isoT:origin ""^^xsd:string ;
	isoT:changeDescription ""^^xsd:string ;
	isoT:creationDate "2016-07-05T00:00:00+00:00"^^xsd:dateTime ;
	isoT:lastChangeDate "2016-07-05T00:00:00+00:00"^^xsd:dateTime ;
	isoT:explanatoryComment ""^^xsd:string ;
	bd:rule ""^^xsd:string ;
	bd:ordinal "1"^^xsd:positiveInteger ;
	bd:includesColumn <http://www.cdisc.org/POOLDEF/V4#CL_MVSTUDYID> ;
	bd:includesColumn <http://www.cdisc.org/POOLDEF/V4#CL_MVPOOLID> ;
	bd:includesColumn <http://www.cdisc.org/POOLDEF/V4#CL_MVUSUBJID> ;
.
<http://www.cdisc.org/POOLDEF/V4#CL_RS>
	rdf:type isoR:RegistrationState ;
	isoR:registrationStatus "Standard"^^xsd:string ;
	isoR:administrativeNote ""^^xsd:string ;
	isoR:effectiveDate "2016-01-01T00:00:00+00:00"^^xsd:dateTime ;
	isoR:untilDate "2016-01-01T00:00:00+00:00"^^xsd:dateTime ;
	isoR:unresolvedIssue ""^^xsd:string ;
	isoR:administrativeStatus ""^^xsd:string ;
	isoR:previousState "Standard"^^xsd:string ;
	isoR:multipleEdit "false"^^xsd:boolean ;
	isoR:byAuthority <http://www.assero.co.uk/RA#DUNS084433759> ;
.
<http://www.cdisc.org/POOLDEF/V4#CL_SI>
	rdf:type isoI:ScopedIdentifier ;
	isoI:identifier "POOLDEF"^^xsd:string ;
	isoI:versionLabel "2016-07-05 Release"^^xsd:string ;
	isoI:version "4"^^xsd:positiveInteger ;
	isoI:semanticVersion "4.0.0"^^xsd:string ;
	isoI:hasScope <http://www.assero.co.uk/NS#CDISC> ;
.
<http://www.cdisc.org/POOLDEF/V4#CL_MVSTUDYID>
	rdf:type bd:SdtmModelVariable ;
	isoC:label "Study Identifier"^^xsd:string ;
	bd:rule ""^^xsd:string ;
	bd:ordinal "1"^^xsd:positiveInteger ;
	bd:name "STUDYID"^^xsd:string ;
	bd:prefixed "false"^^xsd:boolean ;
	bd:description "Unique identifier for a study."^^xsd:string ;
	bd:typedAs <http://www.assero.co.uk/CSN#f9caeead-091c-442a-acdf-6f56a64c4dff> ;
	bd:classifiedAs <http://www.assero.co.uk/CSN#31553bfb-458e-4356-8f78-9d84ca25f745> ;
.
<http://www.cdisc.org/POOLDEF/V4#CL_MVPOOLID>
	rdf:type bd:SdtmModelVariable ;
	isoC:label "Pool Identifier"^^xsd:string ;
	bd:rule ""^^xsd:string ;
	bd:ordinal "2"^^xsd:positiveInteger ;
	bd:name "POOLID"^^xsd:string ;
	bd:prefixed "false"^^xsd:boolean ;
	bd:description "Identifier used for pooling subjects to assign a single finding to multiple subjects."^^xsd:string ;
	bd:typedAs <http://www.assero.co.uk/CSN#f9caeead-091c-442a-acdf-6f56a64c4dff> ;
	bd:classifiedAs <http://www.assero.co.uk/CSN#31553bfb-458e-4356-8f78-9d84ca25f745> ;
.
<http://www.cdisc.org/POOLDEF/V4#CL_MVUSUBJID>
	rdf:type bd:SdtmModelVariable ;
	isoC:label "Unique Subject Identifier"^^xsd:string ;
	bd:rule ""^^xsd:string ;
	bd:ordinal "3"^^xsd:positiveInteger ;
	bd:name "USUBJID"^^xsd:string ;
	bd:prefixed "false"^^xsd:boolean ;
	bd:description "Identifier used to uniquely identify across all studies for all applications or submissions involving the product."^^xsd:string ;
	bd:typedAs <http://www.assero.co.uk/CSN#f9caeead-091c-442a-acdf-6f56a64c4dff> ;
	bd:classifiedAs <http://www.assero.co.uk/CSN#31553bfb-458e-4356-8f78-9d84ca25f745> ;
.
<http://www.cdisc.org/RELREC/V4#CL>
	rdf:type bd:SdtmClass ;
	isoC:label "RELREC"^^xsd:string ;
	isoT:hasState <http://www.cdisc.org/RELREC/V4#CL_RS> ;
	isoT:hasIdentifier <http://www.cdisc.org/RELREC/V4#CL_SI> ;
	isoT:origin ""^^xsd:string ;
	isoT:changeDescription ""^^xsd:string ;
	isoT:creationDate "2016-07-05T00:00:00+00:00"^^xsd:dateTime ;
	isoT:lastChangeDate "2016-07-05T00:00:00+00:00"^^xsd:dateTime ;
	isoT:explanatoryComment ""^^xsd:string ;
	bd:rule ""^^xsd:string ;
	bd:ordinal "1"^^xsd:positiveInteger ;
	bd:includesColumn <http://www.cdisc.org/RELREC/V4#CL_MVSTUDYID> ;
	bd:includesColumn <http://www.cdisc.org/RELREC/V4#CL_MVRDOMAIN> ;
	bd:includesColumn <http://www.cdisc.org/RELREC/V4#CL_MVUSUBJID> ;
	bd:includesColumn <http://www.cdisc.org/RELREC/V4#CL_MVPOOLID> ;
	bd:includesColumn <http://www.cdisc.org/RELREC/V4#CL_MVIDVAR> ;
	bd:includesColumn <http://www.cdisc.org/RELREC/V4#CL_MVIDVARVAL> ;
	bd:includesColumn <http://www.cdisc.org/RELREC/V4#CL_MVRELTYPE> ;
	bd:includesColumn <http://www.cdisc.org/RELREC/V4#CL_MVRELID> ;
.
<http://www.cdisc.org/RELREC/V4#CL_RS>
	rdf:type isoR:RegistrationState ;
	isoR:registrationStatus "Standard"^^xsd:string ;
	isoR:administrativeNote ""^^xsd:string ;
	isoR:effectiveDate "2016-01-01T00:00:00+00:00"^^xsd:dateTime ;
	isoR:untilDate "2016-01-01T00:00:00+00:00"^^xsd:dateTime ;
	isoR:unresolvedIssue ""^^xsd:string ;
	isoR:administrativeStatus ""^^xsd:string ;
	isoR:previousState "Standard"^^xsd:string ;
	isoR:multipleEdit "false"^^xsd:boolean ;
	isoR:byAuthority <http://www.assero.co.uk/RA#DUNS084433759> ;
.
<http://www.cdisc.org/RELREC/V4#CL_SI>
	rdf:type isoI:ScopedIdentifier ;
	isoI:identifier "RELREC"^^xsd:string ;
	isoI:versionLabel "2016-07-05 Release"^^xsd:string ;
	isoI:version "4"^^xsd:positiveInteger ;
	isoI:semanticVersion "4.0.0"^^xsd:string ;
	isoI:hasScope <http://www.assero.co.uk/NS#CDISC> ;
.
<http://www.cdisc.org/RELREC/V4#CL_MVSTUDYID>
	rdf:type bd:SdtmModelVariable ;
	isoC:label "Study Identifier"^^xsd:string ;
	bd:rule ""^^xsd:string ;
	bd:ordinal "1"^^xsd:positiveInteger ;
	bd:name "STUDYID"^^xsd:string ;
	bd:prefixed "false"^^xsd:boolean ;
	bd:description "Unique identifier for a study."^^xsd:string ;
	bd:typedAs <http://www.assero.co.uk/CSN#f9caeead-091c-442a-acdf-6f56a64c4dff> ;
	bd:classifiedAs <http://www.assero.co.uk/CSN#aa0ca4c2-93bf-477f-bf84-00cef2308e4d> ;
.
<http://www.cdisc.org/RELREC/V4#CL_MVRDOMAIN>
	rdf:type bd:SdtmModelVariable ;
	isoC:label "Related Domain Abbreviation"^^xsd:string ;
	bd:rule ""^^xsd:string ;
	bd:ordinal "2"^^xsd:positiveInteger ;
	bd:name "RDOMAIN"^^xsd:string ;
	bd:prefixed "false"^^xsd:boolean ;
	bd:description "Two-character abbreviation for the domain of the parent record(s)."^^xsd:string ;
	bd:typedAs <http://www.assero.co.uk/CSN#f9caeead-091c-442a-acdf-6f56a64c4dff> ;
	bd:classifiedAs <http://www.assero.co.uk/CSN#aa0ca4c2-93bf-477f-bf84-00cef2308e4d> ;
.
<http://www.cdisc.org/RELREC/V4#CL_MVUSUBJID>
	rdf:type bd:SdtmModelVariable ;
	isoC:label "Unique Subject Identifier"^^xsd:string ;
	bd:rule ""^^xsd:string ;
	bd:ordinal "3"^^xsd:positiveInteger ;
	bd:name "USUBJID"^^xsd:string ;
	bd:prefixed "false"^^xsd:boolean ;
	bd:description "Unique Subject Identifier of the Parent record(s). Either USUBJID or POOLID must be populated, except for certain domain-to-domain relationships (see Section 8.2.3)."^^xsd:string ;
	bd:typedAs <http://www.assero.co.uk/CSN#f9caeead-091c-442a-acdf-6f56a64c4dff> ;
	bd:classifiedAs <http://www.assero.co.uk/CSN#aa0ca4c2-93bf-477f-bf84-00cef2308e4d> ;
.
<http://www.cdisc.org/RELREC/V4#CL_MVPOOLID>
	rdf:type bd:SdtmModelVariable ;
	isoC:label "Pool Identifier"^^xsd:string ;
	bd:rule ""^^xsd:string ;
	bd:ordinal "4"^^xsd:positiveInteger ;
	bd:name "POOLID"^^xsd:string ;
	bd:prefixed "false"^^xsd:boolean ;
	bd:description "Pool Identifier of the Parent record(s). If POOLID is entered, POOLDEF records must exist for each subject and the USUBJID must be null. Either USUBJID or POOLID must be populated."^^xsd:string ;
	bd:typedAs <http://www.assero.co.uk/CSN#f9caeead-091c-442a-acdf-6f56a64c4dff> ;
	bd:classifiedAs <http://www.assero.co.uk/CSN#aa0ca4c2-93bf-477f-bf84-00cef2308e4d> ;
.
<http://www.cdisc.org/RELREC/V4#CL_MVIDVAR>
	rdf:type bd:SdtmModelVariable ;
	isoC:label "Identifying Variable"^^xsd:string ;
	bd:rule ""^^xsd:string ;
	bd:ordinal "5"^^xsd:positiveInteger ;
	bd:name "IDVAR"^^xsd:string ;
	bd:prefixed "false"^^xsd:boolean ;
	bd:description "Name of the identifying variable in the general observation class domain that identifies the related record(s). Examples include BWSEQ and BWGRPID."^^xsd:string ;
	bd:typedAs <http://www.assero.co.uk/CSN#f9caeead-091c-442a-acdf-6f56a64c4dff> ;
	bd:classifiedAs <http://www.assero.co.uk/CSN#aa0ca4c2-93bf-477f-bf84-00cef2308e4d> ;
.
<http://www.cdisc.org/RELREC/V4#CL_MVIDVARVAL>
	rdf:type bd:SdtmModelVariable ;
	isoC:label "Identifying Variable Value"^^xsd:string ;
	bd:rule ""^^xsd:string ;
	bd:ordinal "6"^^xsd:positiveInteger ;
	bd:name "IDVARVAL"^^xsd:string ;
	bd:prefixed "false"^^xsd:boolean ;
	bd:description "Value of identifying variable described in IDVAR. For example, if BWSEQ is the variable being used to describe this record, then the value of BWSEQ would be entered here."^^xsd:string ;
	bd:typedAs <http://www.assero.co.uk/CSN#f9caeead-091c-442a-acdf-6f56a64c4dff> ;
	bd:classifiedAs <http://www.assero.co.uk/CSN#aa0ca4c2-93bf-477f-bf84-00cef2308e4d> ;
.
<http://www.cdisc.org/RELREC/V4#CL_MVRELTYPE>
	rdf:type bd:SdtmModelVariable ;
	isoC:label "Relationship Type"^^xsd:string ;
	bd:rule ""^^xsd:string ;
	bd:ordinal "7"^^xsd:positiveInteger ;
	bd:name "RELTYPE"^^xsd:string ;
	bd:prefixed "false"^^xsd:boolean ;
	bd:description "Identifies the hierarchical level of the records in the relationship. Values are only necessary when identifying a relationship between domains (as described in Section 8.4). Values should be either ONE or MANY."^^xsd:string ;
	bd:typedAs <http://www.assero.co.uk/CSN#f9caeead-091c-442a-acdf-6f56a64c4dff> ;
	bd:classifiedAs <http://www.assero.co.uk/CSN#aa0ca4c2-93bf-477f-bf84-00cef2308e4d> ;
.
<http://www.cdisc.org/RELREC/V4#CL_MVRELID>
	rdf:type bd:SdtmModelVariable ;
	isoC:label "Relationship Identifier"^^xsd:string ;
	bd:rule ""^^xsd:string ;
	bd:ordinal "8"^^xsd:positiveInteger ;
	bd:name "RELID"^^xsd:string ;
	bd:prefixed "false"^^xsd:boolean ;
	bd:description "Unique value within a study that identifies the relationship. RELID can be any value the sponsor chooses and is only meaningful within the df dataset to identify the related/associated domain records."^^xsd:string ;
	bd:typedAs <http://www.assero.co.uk/CSN#f9caeead-091c-442a-acdf-6f56a64c4dff> ;
	bd:classifiedAs <http://www.assero.co.uk/CSN#aa0ca4c2-93bf-477f-bf84-00cef2308e4d> ;
.
<http://www.cdisc.org/SUPPQUAL/V4#CL>
	rdf:type bd:SdtmClass ;
	isoC:label "SUPPQUAL"^^xsd:string ;
	isoT:hasState <http://www.cdisc.org/SUPPQUAL/V4#CL_RS> ;
	isoT:hasIdentifier <http://www.cdisc.org/SUPPQUAL/V4#CL_SI> ;
	isoT:origin ""^^xsd:string ;
	isoT:changeDescription ""^^xsd:string ;
	isoT:creationDate "2016-07-05T00:00:00+00:00"^^xsd:dateTime ;
	isoT:lastChangeDate "2016-07-05T00:00:00+00:00"^^xsd:dateTime ;
	isoT:explanatoryComment ""^^xsd:string ;
	bd:rule ""^^xsd:string ;
	bd:ordinal "1"^^xsd:positiveInteger ;
	bd:includesColumn <http://www.cdisc.org/SUPPQUAL/V4#CL_MVSTUDYID> ;
	bd:includesColumn <http://www.cdisc.org/SUPPQUAL/V1#CL_MVRDOMAIN> ;
	bd:includesColumn <http://www.cdisc.org/SUPPQUAL/V4#CL_MVUSUBJID> ;
	bd:includesColumn <http://www.cdisc.org/SUPPQUAL/V4#CL_MVPOOLID> ;
	bd:includesColumn <http://www.cdisc.org/SUPPQUAL/V4#CL_MVIDVAR> ;
	bd:includesColumn <http://www.cdisc.org/SUPPQUAL/V4#CL_MVIDVARVAL> ;
	bd:includesColumn <http://www.cdisc.org/SUPPQUAL/V4#CL_MVQNAM> ;
	bd:includesColumn <http://www.cdisc.org/SUPPQUAL/V4#CL_MVQLABEL> ;
	bd:includesColumn <http://www.cdisc.org/SUPPQUAL/V4#CL_MVQVAL> ;
	bd:includesColumn <http://www.cdisc.org/SUPPQUAL/V4#CL_MVQORIG> ;
	bd:includesColumn <http://www.cdisc.org/SUPPQUAL/V4#CL_MVQEVAL> ;
.
<http://www.cdisc.org/SUPPQUAL/V4#CL_RS>
	rdf:type isoR:RegistrationState ;
	isoR:registrationStatus "Standard"^^xsd:string ;
	isoR:administrativeNote ""^^xsd:string ;
	isoR:effectiveDate "2016-01-01T00:00:00+00:00"^^xsd:dateTime ;
	isoR:untilDate "2016-01-01T00:00:00+00:00"^^xsd:dateTime ;
	isoR:unresolvedIssue ""^^xsd:string ;
	isoR:administrativeStatus ""^^xsd:string ;
	isoR:previousState "Standard"^^xsd:string ;
	isoR:multipleEdit "false"^^xsd:boolean ;
	isoR:byAuthority <http://www.assero.co.uk/RA#DUNS084433759> ;
.
<http://www.cdisc.org/SUPPQUAL/V4#CL_SI>
	rdf:type isoI:ScopedIdentifier ;
	isoI:identifier "SUPPQUAL"^^xsd:string ;
	isoI:versionLabel "2016-07-05 Release"^^xsd:string ;
	isoI:version "4"^^xsd:positiveInteger ;
	isoI:semanticVersion "4.0.0"^^xsd:string ;
	isoI:hasScope <http://www.assero.co.uk/NS#CDISC> ;
.
<http://www.cdisc.org/SUPPQUAL/V4#CL_MVSTUDYID>
	rdf:type bd:SdtmModelVariable ;
	isoC:label "Study Identifier"^^xsd:string ;
	bd:rule ""^^xsd:string ;
	bd:ordinal "1"^^xsd:positiveInteger ;
	bd:name "STUDYID"^^xsd:string ;
	bd:prefixed "false"^^xsd:boolean ;
	bd:description "Unique study identifier of the parent record(s)."^^xsd:string ;
	bd:typedAs <http://www.assero.co.uk/CSN#f9caeead-091c-442a-acdf-6f56a64c4dff> ;
	bd:classifiedAs <http://www.assero.co.uk/CSN#aa0ca4c2-93bf-477f-bf84-00cef2308e4d> ;
.
<http://www.cdisc.org/SUPPQUAL/V4#CL_MVUSUBJID>
	rdf:type bd:SdtmModelVariable ;
	isoC:label "Unique Subject Identifier"^^xsd:string ;
	bd:rule ""^^xsd:string ;
	bd:ordinal "3"^^xsd:positiveInteger ;
	bd:name "USUBJID"^^xsd:string ;
	bd:prefixed "false"^^xsd:boolean ;
	bd:description "Unique subject identifier of the parent record(s). Either USUBJID or POOLID must be populated."^^xsd:string ;
	bd:typedAs <http://www.assero.co.uk/CSN#f9caeead-091c-442a-acdf-6f56a64c4dff> ;
	bd:classifiedAs <http://www.assero.co.uk/CSN#aa0ca4c2-93bf-477f-bf84-00cef2308e4d> ;
.
<http://www.cdisc.org/SUPPQUAL/V4#CL_MVPOOLID>
	rdf:type bd:SdtmModelVariable ;
	isoC:label "Pool Identifier"^^xsd:string ;
	bd:rule ""^^xsd:string ;
	bd:ordinal "4"^^xsd:positiveInteger ;
	bd:name "POOLID"^^xsd:string ;
	bd:prefixed "false"^^xsd:boolean ;
	bd:description "Pool identifier of the Parent record(s).. If POOLID is entered, POOLDEF records must exist for each subject and the USUBJID must be null. Either USUBJID or POOLID must be populated."^^xsd:string ;
	bd:typedAs <http://www.assero.co.uk/CSN#f9caeead-091c-442a-acdf-6f56a64c4dff> ;
	bd:classifiedAs <http://www.assero.co.uk/CSN#aa0ca4c2-93bf-477f-bf84-00cef2308e4d> ;
.
<http://www.cdisc.org/SUPPQUAL/V4#CL_MVIDVAR>
	rdf:type bd:SdtmModelVariable ;
	isoC:label "Identifying Variable"^^xsd:string ;
	bd:rule ""^^xsd:string ;
	bd:ordinal "5"^^xsd:positiveInteger ;
	bd:name "IDVAR"^^xsd:string ;
	bd:prefixed "false"^^xsd:boolean ;
	bd:description "Identifying variable in the dataset that identifies the related record(s). Examples: BWSEQ, CLGRPID."^^xsd:string ;
	bd:typedAs <http://www.assero.co.uk/CSN#f9caeead-091c-442a-acdf-6f56a64c4dff> ;
	bd:classifiedAs <http://www.assero.co.uk/CSN#aa0ca4c2-93bf-477f-bf84-00cef2308e4d> ;
.
<http://www.cdisc.org/SUPPQUAL/V4#CL_MVIDVARVAL>
	rdf:type bd:SdtmModelVariable ;
	isoC:label "Identifying Variable Value"^^xsd:string ;
	bd:rule ""^^xsd:string ;
	bd:ordinal "6"^^xsd:positiveInteger ;
	bd:name "IDVARVAL"^^xsd:string ;
	bd:prefixed "false"^^xsd:boolean ;
	bd:description "Value of identifying variable of the parent record(s)."^^xsd:string ;
	bd:typedAs <http://www.assero.co.uk/CSN#f9caeead-091c-442a-acdf-6f56a64c4dff> ;
	bd:classifiedAs <http://www.assero.co.uk/CSN#aa0ca4c2-93bf-477f-bf84-00cef2308e4d> ;
.
<http://www.cdisc.org/SUPPQUAL/V4#CL_MVQNAM>
	rdf:type bd:SdtmModelVariable ;
	isoC:label "Qualifier Variable Name"^^xsd:string ;
	bd:rule ""^^xsd:string ;
	bd:ordinal "7"^^xsd:positiveInteger ;
	bd:name "QNAM"^^xsd:string ;
	bd:prefixed "false"^^xsd:boolean ;
	bd:description "The short name of the Qualifier variable, which is used as a column name in a domain view with data from the parent domain. The value in QNAM cannot be longer than 8 characters nor can it start with a number (e.g., \"1TEST\" is not valid). QNAM cannot contain characters other than letters, numbers, or underscores. This will often be the column name in the sponsor's operational dataset. The value in QNAM may not be the same as any variable name defined in another domain or the SDTM. The QNAM should uniquely correspond to a QLABEL within a single domain."^^xsd:string ;
	bd:typedAs <http://www.assero.co.uk/CSN#f9caeead-091c-442a-acdf-6f56a64c4dff> ;
	bd:classifiedAs <http://www.assero.co.uk/CSN#aa0ca4c2-93bf-477f-bf84-00cef2308e4d> ;
.
<http://www.cdisc.org/SUPPQUAL/V4#CL_MVQLABEL>
	rdf:type bd:SdtmModelVariable ;
	isoC:label "Qualifier Variable Label"^^xsd:string ;
	bd:rule ""^^xsd:string ;
	bd:ordinal "8"^^xsd:positiveInteger ;
	bd:name "QLABEL"^^xsd:string ;
	bd:prefixed "false"^^xsd:boolean ;
	bd:description "This is the long name or label associated with QNAM. The value in QLABEL should be in title case and cannot be longer than 40 characters. This will often be the column label in the sponsor's operational dataset."^^xsd:string ;
	bd:typedAs <http://www.assero.co.uk/CSN#f9caeead-091c-442a-acdf-6f56a64c4dff> ;
	bd:classifiedAs <http://www.assero.co.uk/CSN#aa0ca4c2-93bf-477f-bf84-00cef2308e4d> ;
.
<http://www.cdisc.org/SUPPQUAL/V4#CL_MVQVAL>
	rdf:type bd:SdtmModelVariable ;
	isoC:label "Data Value"^^xsd:string ;
	bd:rule ""^^xsd:string ;
	bd:ordinal "9"^^xsd:positiveInteger ;
	bd:name "QVAL"^^xsd:string ;
	bd:prefixed "false"^^xsd:boolean ;
	bd:description "Result of, response to, or value associated with QNAM. A value for this column is required; no records can be in SUPP-- with a null value for QVAL."^^xsd:string ;
	bd:typedAs <http://www.assero.co.uk/CSN#f9caeead-091c-442a-acdf-6f56a64c4dff> ;
	bd:classifiedAs <http://www.assero.co.uk/CSN#aa0ca4c2-93bf-477f-bf84-00cef2308e4d> ;
.
<http://www.cdisc.org/SUPPQUAL/V4#CL_MVQORIG>
	rdf:type bd:SdtmModelVariable ;
	isoC:label "Origin"^^xsd:string ;
	bd:rule ""^^xsd:string ;
	bd:ordinal "10"^^xsd:positiveInteger ;
	bd:name "QORIG"^^xsd:string ;
	bd:prefixed "false"^^xsd:boolean ;
	bd:description "QORIG is used to indicate the origin of the data. Possible values are COLLECTED, DERIVED, OTHER, and NOT AVAILABLE. See Section 3.2.2.1."^^xsd:string ;
	bd:typedAs <http://www.assero.co.uk/CSN#f9caeead-091c-442a-acdf-6f56a64c4dff> ;
	bd:classifiedAs <http://www.assero.co.uk/CSN#aa0ca4c2-93bf-477f-bf84-00cef2308e4d> ;
.
<http://www.cdisc.org/SUPPQUAL/V4#CL_MVQEVAL>
	rdf:type bd:SdtmModelVariable ;
	isoC:label "Evaluator"^^xsd:string ;
	bd:rule ""^^xsd:string ;
	bd:ordinal "11"^^xsd:positiveInteger ;
	bd:name "QEVAL"^^xsd:string ;
	bd:prefixed "false"^^xsd:boolean ;
	bd:description "Used only for results that are subjective (i.e., assigned by a person or a group). Should be null for records that contain objectively collected or derived data. Some examples include PATHOLOGIST or VETERINARIAN, etc."^^xsd:string ;
	bd:typedAs <http://www.assero.co.uk/CSN#f9caeead-091c-442a-acdf-6f56a64c4dff> ;
	bd:classifiedAs <http://www.assero.co.uk/CSN#aa0ca4c2-93bf-477f-bf84-00cef2308e4d> ;
.
<http://www.cdisc.org/CO/V4#CL>
	rdf:type bd:SdtmClass ;
	isoC:label "CO"^^xsd:string ;
	isoT:hasState <http://www.cdisc.org/CO/V4#CL_RS> ;
	isoT:hasIdentifier <http://www.cdisc.org/CO/V4#CL_SI> ;
	isoT:origin ""^^xsd:string ;
	isoT:changeDescription ""^^xsd:string ;
	isoT:creationDate "2016-07-05T00:00:00+00:00"^^xsd:dateTime ;
	isoT:lastChangeDate "2016-07-05T00:00:00+00:00"^^xsd:dateTime ;
	isoT:explanatoryComment ""^^xsd:string ;
	bd:rule ""^^xsd:string ;
	bd:ordinal "1"^^xsd:positiveInteger ;
	bd:includesColumn <http://www.cdisc.org/CO/V1#CL_MVSTUDYID> ;
	bd:includesColumn <http://www.cdisc.org/CO/V1#CL_MVDOMAIN> ;
	bd:includesColumn <http://www.cdisc.org/CO/V4#CL_MVRDOMAIN> ;
	bd:includesColumn <http://www.cdisc.org/CO/V4#CL_MVUSUBJID> ;
	bd:includesColumn <http://www.cdisc.org/CO/V4#CL_MVPOOLID> ;
	bd:includesColumn <http://www.cdisc.org/CO/V4#CL_MVCOSEQ> ;
	bd:includesColumn <http://www.cdisc.org/CO/V4#CL_MVIDVAR> ;
	bd:includesColumn <http://www.cdisc.org/CO/V4#CL_MVIDVARVAL> ;
	bd:includesColumn <http://www.cdisc.org/CO/V4#CL_MVCOREF> ;
	bd:includesColumn <http://www.cdisc.org/CO/V4#CL_MVCOVAL> ;
	bd:includesColumn <http://www.cdisc.org/CO/V4#CL_MVCOEVAL> ;
	bd:includesColumn <http://www.cdisc.org/CO/V4#CL_MVCODTC> ;
	bd:includesColumn <http://www.cdisc.org/CO/V4#CL_MVCODY> ;
.
<http://www.cdisc.org/CO/V4#CL_RS>
	rdf:type isoR:RegistrationState ;
	isoR:registrationStatus "Standard"^^xsd:string ;
	isoR:administrativeNote ""^^xsd:string ;
	isoR:effectiveDate "2016-01-01T00:00:00+00:00"^^xsd:dateTime ;
	isoR:untilDate "2016-01-01T00:00:00+00:00"^^xsd:dateTime ;
	isoR:unresolvedIssue ""^^xsd:string ;
	isoR:administrativeStatus ""^^xsd:string ;
	isoR:previousState "Standard"^^xsd:string ;
	isoR:multipleEdit "false"^^xsd:boolean ;
	isoR:byAuthority <http://www.assero.co.uk/RA#DUNS084433759> ;
.
<http://www.cdisc.org/CO/V4#CL_SI>
	rdf:type isoI:ScopedIdentifier ;
	isoI:identifier "CO"^^xsd:string ;
	isoI:versionLabel "2016-07-05 Release"^^xsd:string ;
	isoI:version "4"^^xsd:positiveInteger ;
	isoI:semanticVersion "4.0.0"^^xsd:string ;
	isoI:hasScope <http://www.assero.co.uk/NS#CDISC> ;
.
<http://www.cdisc.org/CO/V4#CL_MVRDOMAIN>
	rdf:type bd:SdtmModelVariable ;
	isoC:label "Related Domain Abbreviation"^^xsd:string ;
	bd:rule ""^^xsd:string ;
	bd:ordinal "3"^^xsd:positiveInteger ;
	bd:name "RDOMAIN"^^xsd:string ;
	bd:prefixed "false"^^xsd:boolean ;
	bd:description "Domain abbreviation of the parent record(s). Null for comments collected as a general comment or additional information."^^xsd:string ;
	bd:typedAs <http://www.assero.co.uk/CSN#f9caeead-091c-442a-acdf-6f56a64c4dff> ;
	bd:classifiedAs <http://www.assero.co.uk/CSN#c87fdb01-a54e-44b2-b4e7-2aadbe8ada87> ;
.
<http://www.cdisc.org/CO/V4#CL_MVUSUBJID>
	rdf:type bd:SdtmModelVariable ;
	isoC:label "Unique Subject Identifier"^^xsd:string ;
	bd:rule ""^^xsd:string ;
	bd:ordinal "4"^^xsd:positiveInteger ;
	bd:name "USUBJID"^^xsd:string ;
	bd:prefixed "false"^^xsd:boolean ;
	bd:description "Identifier used to uniquely identify a subject across all studies for all applications or submissions involving the product. Either USUBJID or POOLID must be populated unless the record contains a study comment unrelated to a USUBJID or POOLID."^^xsd:string ;
	bd:typedAs <http://www.assero.co.uk/CSN#f9caeead-091c-442a-acdf-6f56a64c4dff> ;
	bd:classifiedAs <http://www.assero.co.uk/CSN#31553bfb-458e-4356-8f78-9d84ca25f745> ;
.
<http://www.cdisc.org/CO/V4#CL_MVPOOLID>
	rdf:type bd:SdtmModelVariable ;
	isoC:label "Pool Identifier"^^xsd:string ;
	bd:rule ""^^xsd:string ;
	bd:ordinal "5"^^xsd:positiveInteger ;
	bd:name "POOLID"^^xsd:string ;
	bd:prefixed "false"^^xsd:boolean ;
	bd:description "Identifier used for pooled subjects to assign a single result to multiple subjects. Either USUBJID or POOLID must be populated unless the record contains a study comment unrelated to a USUBJID or POOLID."^^xsd:string ;
	bd:typedAs <http://www.assero.co.uk/CSN#f9caeead-091c-442a-acdf-6f56a64c4dff> ;
	bd:classifiedAs <http://www.assero.co.uk/CSN#31553bfb-458e-4356-8f78-9d84ca25f745> ;
.
<http://www.cdisc.org/CO/V4#CL_MVCOSEQ>
	rdf:type bd:SdtmModelVariable ;
	isoC:label "Sequence Number"^^xsd:string ;
	bd:rule ""^^xsd:string ;
	bd:ordinal "6"^^xsd:positiveInteger ;
	bd:name "COSEQ"^^xsd:string ;
	bd:prefixed "false"^^xsd:boolean ;
	bd:description "The sequence number must be unique for each record within a USUBJID or POOLID, whichever applies for the record."^^xsd:string ;
	bd:typedAs <http://www.assero.co.uk/CSN#8b16536d-2667-4282-86b4-8724a00b8f9f> ;
	bd:classifiedAs <http://www.assero.co.uk/CSN#31553bfb-458e-4356-8f78-9d84ca25f745> ;
.
<http://www.cdisc.org/CO/V4#CL_MVIDVAR>
	rdf:type bd:SdtmModelVariable ;
	isoC:label "Identifying Variable"^^xsd:string ;
	bd:rule ""^^xsd:string ;
	bd:ordinal "7"^^xsd:positiveInteger ;
	bd:name "IDVAR"^^xsd:string ;
	bd:prefixed "false"^^xsd:boolean ;
	bd:description "Variable in the parent dataset that identifies the record(s) to which the comment applies, which is contained in IDVAR. Examples: BWSEQ or CLGRPID. Used only when individual comments are related to domain records."^^xsd:string ;
	bd:typedAs <http://www.assero.co.uk/CSN#f9caeead-091c-442a-acdf-6f56a64c4dff> ;
	bd:classifiedAs <http://www.assero.co.uk/CSN#c87fdb01-a54e-44b2-b4e7-2aadbe8ada87> ;
.
<http://www.cdisc.org/CO/V4#CL_MVIDVARVAL>
	rdf:type bd:SdtmModelVariable ;
	isoC:label "Identifying Variable Value"^^xsd:string ;
	bd:rule ""^^xsd:string ;
	bd:ordinal "8"^^xsd:positiveInteger ;
	bd:name "IDVARVAL"^^xsd:string ;
	bd:prefixed "false"^^xsd:boolean ;
	bd:description "Value of identifying variable of the parent record(s). Used only when individual comments are related to domain records. Cannot be populated if IDVAR is null."^^xsd:string ;
	bd:typedAs <http://www.assero.co.uk/CSN#f9caeead-091c-442a-acdf-6f56a64c4dff> ;
	bd:classifiedAs <http://www.assero.co.uk/CSN#c87fdb01-a54e-44b2-b4e7-2aadbe8ada87> ;
.
<http://www.cdisc.org/CO/V4#CL_MVCOREF>
	rdf:type bd:SdtmModelVariable ;
	isoC:label "Comment Reference"^^xsd:string ;
	bd:rule ""^^xsd:string ;
	bd:ordinal "9"^^xsd:positiveInteger ;
	bd:name "COREF"^^xsd:string ;
	bd:prefixed "false"^^xsd:boolean ;
	bd:description "Sponsor-defined reference associated with the comment. May be the logbook page number, name (e.g., Logbook), or a combination of information that identifies the reference (e.g., Logbook, page 650, Day 28, morning)."^^xsd:string ;
	bd:typedAs <http://www.assero.co.uk/CSN#f9caeead-091c-442a-acdf-6f56a64c4dff> ;
	bd:classifiedAs <http://www.assero.co.uk/CSN#c87fdb01-a54e-44b2-b4e7-2aadbe8ada87> ;
.
<http://www.cdisc.org/CO/V4#CL_MVCOVAL>
	rdf:type bd:SdtmModelVariable ;
	isoC:label "Comment"^^xsd:string ;
	bd:rule ""^^xsd:string ;
	bd:ordinal "10"^^xsd:positiveInteger ;
	bd:name "COVAL"^^xsd:string ;
	bd:prefixed "false"^^xsd:boolean ;
	bd:description "The text of the comment. Text over 200 characters can be added to additional columns COVAL1-COVALn. See Assumption 4 in Section 5.2.1.1."^^xsd:string ;
	bd:typedAs <http://www.assero.co.uk/CSN#f9caeead-091c-442a-acdf-6f56a64c4dff> ;
	bd:classifiedAs <http://www.assero.co.uk/CSN#4f6c8f78-280e-42b3-8289-a146dd5e47f0> ;
.
<http://www.cdisc.org/CO/V4#CL_MVCOEVAL>
	rdf:type bd:SdtmModelVariable ;
	isoC:label "Evaluator"^^xsd:string ;
	bd:rule ""^^xsd:string ;
	bd:ordinal "11"^^xsd:positiveInteger ;
	bd:name "COEVAL"^^xsd:string ;
	bd:prefixed "false"^^xsd:boolean ;
	bd:description "Used to describe the originator of the comment. Examples: TECHNICIAN, STUDY DIRECTOR, VET."^^xsd:string ;
	bd:typedAs <http://www.assero.co.uk/CSN#f9caeead-091c-442a-acdf-6f56a64c4dff> ;
	bd:classifiedAs <http://www.assero.co.uk/CSN#c87fdb01-a54e-44b2-b4e7-2aadbe8ada87> ;
.
<http://www.cdisc.org/CO/V4#CL_MVCODTC>
	rdf:type bd:SdtmModelVariable ;
	isoC:label "Date/Time of Comment"^^xsd:string ;
	bd:rule ""^^xsd:string ;
	bd:ordinal "12"^^xsd:positiveInteger ;
	bd:name "CODTC"^^xsd:string ;
	bd:prefixed "false"^^xsd:boolean ;
	bd:description "Date/Time of the comment, in ISO 8601 format. May be null if this is a child record of another domain or if the comment date was not collected. In all other cases, this represents the date/time of the comment in ISO 8601 format."^^xsd:string ;
	bd:typedAs <http://www.assero.co.uk/CSN#f9caeead-091c-442a-acdf-6f56a64c4dff> ;
	bd:classifiedAs <http://www.assero.co.uk/CSN#ef6281db-14c7-44d8-b41e-4b6c96de1b79> ;
.
<http://www.cdisc.org/CO/V4#CL_MVCODY>
	rdf:type bd:SdtmModelVariable ;
	isoC:label "Study Day of Comment"^^xsd:string ;
	bd:rule ""^^xsd:string ;
	bd:ordinal "13"^^xsd:positiveInteger ;
	bd:name "CODY"^^xsd:string ;
	bd:prefixed "false"^^xsd:boolean ;
	bd:description "Study day of the comment, in integer days. May be null if this is a child record of another domain or if the comment date was not collected. The algorithm for calculations must be relative to the sponsor-defined RFSTDTC variable in the Demographics (DM) domain."^^xsd:string ;
	bd:typedAs <http://www.assero.co.uk/CSN#8b16536d-2667-4282-86b4-8724a00b8f9f> ;
	bd:classifiedAs <http://www.assero.co.uk/CSN#ef6281db-14c7-44d8-b41e-4b6c96de1b79> ;
.
<http://www.cdisc.org/DM/V4#CL>
	rdf:type bd:SdtmClass ;
	isoC:label "DM"^^xsd:string ;
	isoT:hasState <http://www.cdisc.org/DM/V4#CL_RS> ;
	isoT:hasIdentifier <http://www.cdisc.org/DM/V4#CL_SI> ;
	isoT:origin ""^^xsd:string ;
	isoT:changeDescription ""^^xsd:string ;
	isoT:creationDate "2016-07-05T00:00:00+00:00"^^xsd:dateTime ;
	isoT:lastChangeDate "2016-07-05T00:00:00+00:00"^^xsd:dateTime ;
	isoT:explanatoryComment ""^^xsd:string ;
	bd:rule ""^^xsd:string ;
	bd:ordinal "1"^^xsd:positiveInteger ;
	bd:includesColumn <http://www.cdisc.org/DM/V1#CL_MVSTUDYID> ;
	bd:includesColumn <http://www.cdisc.org/DM/V1#CL_MVDOMAIN> ;
	bd:includesColumn <http://www.cdisc.org/DM/V4#CL_MVUSUBJID> ;
	bd:includesColumn <http://www.cdisc.org/DM/V4#CL_MVSUBJID> ;
	bd:includesColumn <http://www.cdisc.org/DM/V4#CL_MVRFSTDTC> ;
	bd:includesColumn <http://www.cdisc.org/DM/V4#CL_MVRFENDTC> ;
	bd:includesColumn <http://www.cdisc.org/DM/V4#CL_MVRFXSTDTC> ;
	bd:includesColumn <http://www.cdisc.org/DM/V4#CL_MVRFXENDTC> ;
	bd:includesColumn <http://www.cdisc.org/DM/V4#CL_MVSITEID> ;
	bd:includesColumn <http://www.cdisc.org/DM/V4#CL_MVBRTHDTC> ;
	bd:includesColumn <http://www.cdisc.org/DM/V4#CL_MVAGE> ;
	bd:includesColumn <http://www.cdisc.org/DM/V4#CL_MVAGETXT> ;
	bd:includesColumn <http://www.cdisc.org/DM/V4#CL_MVAGEU> ;
	bd:includesColumn <http://www.cdisc.org/DM/V4#CL_MVSEX> ;
	bd:includesColumn <http://www.cdisc.org/DM/V4#CL_MVSPECIES> ;
	bd:includesColumn <http://www.cdisc.org/DM/V4#CL_MVSTRAIN> ;
	bd:includesColumn <http://www.cdisc.org/DM/V4#CL_MVSBSTRAIN> ;
	bd:includesColumn <http://www.cdisc.org/DM/V4#CL_MVARMCD> ;
	bd:includesColumn <http://www.cdisc.org/DM/V4#CL_MVARM> ;
	bd:includesColumn <http://www.cdisc.org/DM/V4#CL_MVSETCD> ;
.
<http://www.cdisc.org/DM/V4#CL_RS>
	rdf:type isoR:RegistrationState ;
	isoR:registrationStatus "Standard"^^xsd:string ;
	isoR:administrativeNote ""^^xsd:string ;
	isoR:effectiveDate "2016-01-01T00:00:00+00:00"^^xsd:dateTime ;
	isoR:untilDate "2016-01-01T00:00:00+00:00"^^xsd:dateTime ;
	isoR:unresolvedIssue ""^^xsd:string ;
	isoR:administrativeStatus ""^^xsd:string ;
	isoR:previousState "Standard"^^xsd:string ;
	isoR:multipleEdit "false"^^xsd:boolean ;
	isoR:byAuthority <http://www.assero.co.uk/RA#DUNS084433759> ;
.
<http://www.cdisc.org/DM/V4#CL_SI>
	rdf:type isoI:ScopedIdentifier ;
	isoI:identifier "DM"^^xsd:string ;
	isoI:versionLabel "2016-07-05 Release"^^xsd:string ;
	isoI:version "4"^^xsd:positiveInteger ;
	isoI:semanticVersion "4.0.0"^^xsd:string ;
	isoI:hasScope <http://www.assero.co.uk/NS#CDISC> ;
.
<http://www.cdisc.org/DM/V4#CL_MVUSUBJID>
	rdf:type bd:SdtmModelVariable ;
	isoC:label "Unique Subject Identifier"^^xsd:string ;
	bd:rule ""^^xsd:string ;
	bd:ordinal "3"^^xsd:positiveInteger ;
	bd:name "USUBJID"^^xsd:string ;
	bd:prefixed "false"^^xsd:boolean ;
	bd:description "Identifier used to uniquely identify a subject across all studies for all applications or submissions involving the product."^^xsd:string ;
	bd:typedAs <http://www.assero.co.uk/CSN#f9caeead-091c-442a-acdf-6f56a64c4dff> ;
	bd:classifiedAs <http://www.assero.co.uk/CSN#31553bfb-458e-4356-8f78-9d84ca25f745> ;
.
<http://www.cdisc.org/DM/V4#CL_MVSUBJID>
	rdf:type bd:SdtmModelVariable ;
	isoC:label "Subject Identifier for the Study"^^xsd:string ;
	bd:rule ""^^xsd:string ;
	bd:ordinal "4"^^xsd:positiveInteger ;
	bd:name "SUBJID"^^xsd:string ;
	bd:prefixed "false"^^xsd:boolean ;
	bd:description "Subject (i.e., Animal) identifier used within the study."^^xsd:string ;
	bd:typedAs <http://www.assero.co.uk/CSN#f9caeead-091c-442a-acdf-6f56a64c4dff> ;
	bd:classifiedAs <http://www.assero.co.uk/CSN#4f6c8f78-280e-42b3-8289-a146dd5e47f0> ;
.
<http://www.cdisc.org/DM/V4#CL_MVRFSTDTC>
	rdf:type bd:SdtmModelVariable ;
	isoC:label "Subject Reference Start Date/Time"^^xsd:string ;
	bd:rule ""^^xsd:string ;
	bd:ordinal "5"^^xsd:positiveInteger ;
	bd:name "RFSTDTC"^^xsd:string ;
	bd:prefixed "false"^^xsd:boolean ;
	bd:description "Reference start date/time for the subject in ISO 8601 format. Usually equivalent to date/time when subject was first exposed to study treatment. Study day calculation (the --DY variable) in all domains will be based on this date. The sponsor must define what collected date is used to populate RFSTDTC in the data definition file."^^xsd:string ;
	bd:typedAs <http://www.assero.co.uk/CSN#f9caeead-091c-442a-acdf-6f56a64c4dff> ;
	bd:classifiedAs <http://www.assero.co.uk/CSN#c87fdb01-a54e-44b2-b4e7-2aadbe8ada87> ;
.
<http://www.cdisc.org/DM/V4#CL_MVRFENDTC>
	rdf:type bd:SdtmModelVariable ;
	isoC:label "Subject Reference End Date/Time"^^xsd:string ;
	bd:rule ""^^xsd:string ;
	bd:ordinal "6"^^xsd:positiveInteger ;
	bd:name "RFENDTC"^^xsd:string ;
	bd:prefixed "false"^^xsd:boolean ;
	bd:description "Reference end date/time for the subject in ISO 8601 format. Usually equivalent to the date/time when the subject was determined to have left the study. The sponsor must define what collected date is used to populate RFENDTC in the data definition file."^^xsd:string ;
	bd:typedAs <http://www.assero.co.uk/CSN#f9caeead-091c-442a-acdf-6f56a64c4dff> ;
	bd:classifiedAs <http://www.assero.co.uk/CSN#c87fdb01-a54e-44b2-b4e7-2aadbe8ada87> ;
.
<http://www.cdisc.org/DM/V4#CL_MVRFXSTDTC>
	rdf:type bd:SdtmModelVariable ;
	isoC:label "Date/Time of First Study Treatment"^^xsd:string ;
	bd:rule ""^^xsd:string ;
	bd:ordinal "7"^^xsd:positiveInteger ;
	bd:name "RFXSTDTC"^^xsd:string ;
	bd:prefixed "false"^^xsd:boolean ;
	bd:description "First date/time of exposure to any protocol-specified treatment or therapy, equal to the earliest value of EXSTDTC. Note: Absolute first."^^xsd:string ;
	bd:typedAs <http://www.assero.co.uk/CSN#f9caeead-091c-442a-acdf-6f56a64c4dff> ;
	bd:classifiedAs <http://www.assero.co.uk/CSN#c87fdb01-a54e-44b2-b4e7-2aadbe8ada87> ;
.
<http://www.cdisc.org/DM/V4#CL_MVRFXENDTC>
	rdf:type bd:SdtmModelVariable ;
	isoC:label "Date/Time of Last Study Treatment"^^xsd:string ;
	bd:rule ""^^xsd:string ;
	bd:ordinal "8"^^xsd:positiveInteger ;
	bd:name "RFXENDTC"^^xsd:string ;
	bd:prefixed "false"^^xsd:boolean ;
	bd:description "Last date/time of exposure to any protocol-specified treatment or therapy, equal to the latest value of EXENDTC (or the latest value of EXSTDTC if EXENDTC was not collected or is missing). Note: Absolute last"^^xsd:string ;
	bd:typedAs <http://www.assero.co.uk/CSN#f9caeead-091c-442a-acdf-6f56a64c4dff> ;
	bd:classifiedAs <http://www.assero.co.uk/CSN#c87fdb01-a54e-44b2-b4e7-2aadbe8ada87> ;
.
<http://www.cdisc.org/DM/V4#CL_MVSITEID>
	rdf:type bd:SdtmModelVariable ;
	isoC:label "Study Site Identifier"^^xsd:string ;
	bd:rule ""^^xsd:string ;
	bd:ordinal "9"^^xsd:positiveInteger ;
	bd:name "SITEID"^^xsd:string ;
	bd:prefixed "false"^^xsd:boolean ;
	bd:description "Unique identifier for a study site within a submission. Use only if subjects are housed at different sites."^^xsd:string ;
	bd:typedAs <http://www.assero.co.uk/CSN#f9caeead-091c-442a-acdf-6f56a64c4dff> ;
	bd:classifiedAs <http://www.assero.co.uk/CSN#c87fdb01-a54e-44b2-b4e7-2aadbe8ada87> ;
.
<http://www.cdisc.org/DM/V4#CL_MVBRTHDTC>
	rdf:type bd:SdtmModelVariable ;
	isoC:label "Date/Time of Birth"^^xsd:string ;
	bd:rule ""^^xsd:string ;
	bd:ordinal "10"^^xsd:positiveInteger ;
	bd:name "BRTHDTC"^^xsd:string ;
	bd:prefixed "false"^^xsd:boolean ;
	bd:description "Date/Time of birth of the subject, in ISO 8601 format."^^xsd:string ;
	bd:typedAs <http://www.assero.co.uk/CSN#f9caeead-091c-442a-acdf-6f56a64c4dff> ;
	bd:classifiedAs <http://www.assero.co.uk/CSN#c87fdb01-a54e-44b2-b4e7-2aadbe8ada87> ;
.
<http://www.cdisc.org/DM/V4#CL_MVAGE>
	rdf:type bd:SdtmModelVariable ;
	isoC:label "Age"^^xsd:string ;
	bd:rule ""^^xsd:string ;
	bd:ordinal "11"^^xsd:positiveInteger ;
	bd:name "AGE"^^xsd:string ;
	bd:prefixed "false"^^xsd:boolean ;
	bd:description "May be derived (RFSTDTC - BRTHDTC), but BRTHDTC may not be available in all cases. Age may also be collected."^^xsd:string ;
	bd:typedAs <http://www.assero.co.uk/CSN#8b16536d-2667-4282-86b4-8724a00b8f9f> ;
	bd:classifiedAs <http://www.assero.co.uk/CSN#c87fdb01-a54e-44b2-b4e7-2aadbe8ada87> ;
.
<http://www.cdisc.org/DM/V4#CL_MVAGETXT>
	rdf:type bd:SdtmModelVariable ;
	isoC:label "Age Range"^^xsd:string ;
	bd:rule ""^^xsd:string ;
	bd:ordinal "12"^^xsd:positiveInteger ;
	bd:name "AGETXT"^^xsd:string ;
	bd:prefixed "false"^^xsd:boolean ;
	bd:description "Used when the age is a range and the exact birthdate is not known. This variable is a character field for the purposes of defining age ranges, e.g., if the information available for the age of the subject is 6-8 and AGEU is WEEKS. Populate only when BRTHDTC or AGE is not specified. The format for AGETXT is \"number-number\" (e.g., 6-8)."^^xsd:string ;
	bd:typedAs <http://www.assero.co.uk/CSN#f9caeead-091c-442a-acdf-6f56a64c4dff> ;
	bd:classifiedAs <http://www.assero.co.uk/CSN#c87fdb01-a54e-44b2-b4e7-2aadbe8ada87> ;
.
<http://www.cdisc.org/DM/V4#CL_MVAGEU>
	rdf:type bd:SdtmModelVariable ;
	isoC:label "Age Unit"^^xsd:string ;
	bd:rule ""^^xsd:string ;
	bd:ordinal "13"^^xsd:positiveInteger ;
	bd:name "AGEU"^^xsd:string ;
	bd:prefixed "false"^^xsd:boolean ;
	bd:description "Units associated with AGE and AGETXT."^^xsd:string ;
	bd:typedAs <http://www.assero.co.uk/CSN#f9caeead-091c-442a-acdf-6f56a64c4dff> ;
.
<http://www.cdisc.org/DM/V4#CL_MVSEX>
	rdf:type bd:SdtmModelVariable ;
	isoC:label "Sex"^^xsd:string ;
	bd:rule ""^^xsd:string ;
	bd:ordinal "14"^^xsd:positiveInteger ;
	bd:name "SEX"^^xsd:string ;
	bd:prefixed "false"^^xsd:boolean ;
	bd:description "The sex of the subject."^^xsd:string ;
	bd:typedAs <http://www.assero.co.uk/CSN#f9caeead-091c-442a-acdf-6f56a64c4dff> ;
	bd:classifiedAs <http://www.assero.co.uk/CSN#c87fdb01-a54e-44b2-b4e7-2aadbe8ada87> ;
.
<http://www.cdisc.org/DM/V4#CL_MVSPECIES>
	rdf:type bd:SdtmModelVariable ;
	isoC:label "Species"^^xsd:string ;
	bd:rule ""^^xsd:string ;
	bd:ordinal "15"^^xsd:positiveInteger ;
	bd:name "SPECIES"^^xsd:string ;
	bd:prefixed "false"^^xsd:boolean ;
	bd:description "If this variable is excluded in the DM domain, the information must be present at a higher level (either Trial Sets or Trial Summary)."^^xsd:string ;
	bd:typedAs <http://www.assero.co.uk/CSN#f9caeead-091c-442a-acdf-6f56a64c4dff> ;
	bd:classifiedAs <http://www.assero.co.uk/CSN#c87fdb01-a54e-44b2-b4e7-2aadbe8ada87> ;
.
<http://www.cdisc.org/DM/V4#CL_MVSTRAIN>
	rdf:type bd:SdtmModelVariable ;
	isoC:label "Strain/Substrain"^^xsd:string ;
	bd:rule ""^^xsd:string ;
	bd:ordinal "16"^^xsd:positiveInteger ;
	bd:name "STRAIN"^^xsd:string ;
	bd:prefixed "false"^^xsd:boolean ;
	bd:description "Used to identify the vendor-supplied strain, substrain, or breed designation for the test system under study. It may combine the background strain, substrain, and associated genetic modifications as supplied by the vendor (e.g., C57BL/6, A/J, B6.129-Pparg<tm2Rev>/J, FISCHER 344, SPRAGUE-DAWLEY IGS, WISTAR Kyoto, BEAGLE, CYNOMOLGUS, and CHIMPANZEE). The SEND Controlled Terminology codelist consists of commonly used wild type strains. It is extensible to accommodate strains not listed and genetically modified substrains. If this variable is excluded in the DM domain, the information must be present at a higher level (either Trial Sets or Trial Summary). Country of origin for non-human primates should not go into STRAIN. In general, details related to coat color (e.g., White and Red designations for New Zealand Rabbits) should not go into STRAIN."^^xsd:string ;
	bd:typedAs <http://www.assero.co.uk/CSN#f9caeead-091c-442a-acdf-6f56a64c4dff> ;
	bd:classifiedAs <http://www.assero.co.uk/CSN#c87fdb01-a54e-44b2-b4e7-2aadbe8ada87> ;
.
<http://www.cdisc.org/DM/V4#CL_MVSBSTRAIN>
	rdf:type bd:SdtmModelVariable ;
	isoC:label "Strain/Substrain Details"^^xsd:string ;
	bd:rule ""^^xsd:string ;
	bd:ordinal "17"^^xsd:positiveInteger ;
	bd:name "SBSTRAIN"^^xsd:string ;
	bd:prefixed "false"^^xsd:boolean ;
	bd:description "Free-text field that allows the sponsor to enter further details qualifiying the SPECIES and/or STRAIN, depending on the level to which these variables were defined. Examples include the description of a specific genetic alteration, country of origin for non-human primates, details related to coat color (e.g., White and Red designations for New Zealand Rabbits), and important animal husbandry information (e.g., SPF, BR, VAF)."^^xsd:string ;
	bd:typedAs <http://www.assero.co.uk/CSN#f9caeead-091c-442a-acdf-6f56a64c4dff> ;
	bd:classifiedAs <http://www.assero.co.uk/CSN#c87fdb01-a54e-44b2-b4e7-2aadbe8ada87> ;
.
<http://www.cdisc.org/DM/V4#CL_MVARMCD>
	rdf:type bd:SdtmModelVariable ;
	isoC:label "Planned Arm Code"^^xsd:string ;
	bd:rule ""^^xsd:string ;
	bd:ordinal "18"^^xsd:positiveInteger ;
	bd:name "ARMCD"^^xsd:string ;
	bd:prefixed "false"^^xsd:boolean ;
	bd:description "Short name for ARM (may be up to 20 characters) used for sorting and programming. Should be populated when Arms have been defined in the TA domain."^^xsd:string ;
	bd:typedAs <http://www.assero.co.uk/CSN#f9caeead-091c-442a-acdf-6f56a64c4dff> ;
	bd:classifiedAs <http://www.assero.co.uk/CSN#c87fdb01-a54e-44b2-b4e7-2aadbe8ada87> ;
.
<http://www.cdisc.org/DM/V4#CL_MVARM>
	rdf:type bd:SdtmModelVariable ;
	isoC:label "Description of Planned Arm"^^xsd:string ;
	bd:rule ""^^xsd:string ;
	bd:ordinal "19"^^xsd:positiveInteger ;
	bd:name "ARM"^^xsd:string ;
	bd:prefixed "false"^^xsd:boolean ;
	bd:description "Descriptive name given to a specific Trial Arm (e.g., Low Dose, Mid Dose, 10 mg/kg/day dose, Third Arm) to which the subject was assigned."^^xsd:string ;
	bd:typedAs <http://www.assero.co.uk/CSN#f9caeead-091c-442a-acdf-6f56a64c4dff> ;
	bd:classifiedAs <http://www.assero.co.uk/CSN#9e246430-42c2-476a-8c1a-07ba9e698024> ;
.
<http://www.cdisc.org/DM/V4#CL_MVSETCD>
	rdf:type bd:SdtmModelVariable ;
	isoC:label "Set Code"^^xsd:string ;
	bd:rule ""^^xsd:string ;
	bd:ordinal "20"^^xsd:positiveInteger ;
	bd:name "SETCD"^^xsd:string ;
	bd:prefixed "false"^^xsd:boolean ;
	bd:description "Short name of a specific Trial Set to which the subject was assigned, as defined by the sponsor. Maximum of 8 characters. This represents the Trial Set for which parameters are being submitted."^^xsd:string ;
	bd:typedAs <http://www.assero.co.uk/CSN#f9caeead-091c-442a-acdf-6f56a64c4dff> ;
	bd:classifiedAs <http://www.assero.co.uk/CSN#c87fdb01-a54e-44b2-b4e7-2aadbe8ada87> ;
.
<http://www.cdisc.org/SE/V4#CL>
	rdf:type bd:SdtmClass ;
	isoC:label "SE"^^xsd:string ;
	isoT:hasState <http://www.cdisc.org/SE/V4#CL_RS> ;
	isoT:hasIdentifier <http://www.cdisc.org/SE/V4#CL_SI> ;
	isoT:origin ""^^xsd:string ;
	isoT:changeDescription ""^^xsd:string ;
	isoT:creationDate "2016-07-05T00:00:00+00:00"^^xsd:dateTime ;
	isoT:lastChangeDate "2016-07-05T00:00:00+00:00"^^xsd:dateTime ;
	isoT:explanatoryComment ""^^xsd:string ;
	bd:rule ""^^xsd:string ;
	bd:ordinal "1"^^xsd:positiveInteger ;
	bd:includesColumn <http://www.cdisc.org/SE/V1#CL_MVSTUDYID> ;
	bd:includesColumn <http://www.cdisc.org/SE/V1#CL_MVDOMAIN> ;
	bd:includesColumn <http://www.cdisc.org/SE/V1#CL_MVUSUBJID> ;
	bd:includesColumn <http://www.cdisc.org/SE/V4#CL_MVSESEQ> ;
	bd:includesColumn <http://www.cdisc.org/SE/V4#CL_MVETCD> ;
	bd:includesColumn <http://www.cdisc.org/SE/V4#CL_MVELEMENT> ;
	bd:includesColumn <http://www.cdisc.org/SE/V4#CL_MVSESTDTC> ;
	bd:includesColumn <http://www.cdisc.org/SE/V4#CL_MVSEENDTC> ;
	bd:includesColumn <http://www.cdisc.org/SE/V4#CL_MVSEUPDES> ;
.
<http://www.cdisc.org/SE/V4#CL_RS>
	rdf:type isoR:RegistrationState ;
	isoR:registrationStatus "Standard"^^xsd:string ;
	isoR:administrativeNote ""^^xsd:string ;
	isoR:effectiveDate "2016-01-01T00:00:00+00:00"^^xsd:dateTime ;
	isoR:untilDate "2016-01-01T00:00:00+00:00"^^xsd:dateTime ;
	isoR:unresolvedIssue ""^^xsd:string ;
	isoR:administrativeStatus ""^^xsd:string ;
	isoR:previousState "Standard"^^xsd:string ;
	isoR:multipleEdit "false"^^xsd:boolean ;
	isoR:byAuthority <http://www.assero.co.uk/RA#DUNS084433759> ;
.
<http://www.cdisc.org/SE/V4#CL_SI>
	rdf:type isoI:ScopedIdentifier ;
	isoI:identifier "SE"^^xsd:string ;
	isoI:versionLabel "2016-07-05 Release"^^xsd:string ;
	isoI:version "4"^^xsd:positiveInteger ;
	isoI:semanticVersion "4.0.0"^^xsd:string ;
	isoI:hasScope <http://www.assero.co.uk/NS#CDISC> ;
.
<http://www.cdisc.org/SE/V4#CL_MVSESEQ>
	rdf:type bd:SdtmModelVariable ;
	isoC:label "Sequence Number"^^xsd:string ;
	bd:rule ""^^xsd:string ;
	bd:ordinal "4"^^xsd:positiveInteger ;
	bd:name "SESEQ"^^xsd:string ;
	bd:prefixed "false"^^xsd:boolean ;
	bd:description "Sequence number given to ensure uniqueness of subject records within a USUBJID within a domain. May be any valid number."^^xsd:string ;
	bd:typedAs <http://www.assero.co.uk/CSN#8b16536d-2667-4282-86b4-8724a00b8f9f> ;
	bd:classifiedAs <http://www.assero.co.uk/CSN#31553bfb-458e-4356-8f78-9d84ca25f745> ;
.
<http://www.cdisc.org/SE/V4#CL_MVETCD>
	rdf:type bd:SdtmModelVariable ;
	isoC:label "Element Code"^^xsd:string ;
	bd:rule ""^^xsd:string ;
	bd:ordinal "5"^^xsd:positiveInteger ;
	bd:name "ETCD"^^xsd:string ;
	bd:prefixed "false"^^xsd:boolean ;
	bd:description "ETCD (the companion to ELEMENT) is limited to 8 characters and does not have special character restrictions."^^xsd:string ;
	bd:typedAs <http://www.assero.co.uk/CSN#f9caeead-091c-442a-acdf-6f56a64c4dff> ;
	bd:classifiedAs <http://www.assero.co.uk/CSN#4f6c8f78-280e-42b3-8289-a146dd5e47f0> ;
.
<http://www.cdisc.org/SE/V4#CL_MVELEMENT>
	rdf:type bd:SdtmModelVariable ;
	isoC:label "Description of Element"^^xsd:string ;
	bd:rule ""^^xsd:string ;
	bd:ordinal "6"^^xsd:positiveInteger ;
	bd:name "ELEMENT"^^xsd:string ;
	bd:prefixed "false"^^xsd:boolean ;
	bd:description "The name of the Element.."^^xsd:string ;
	bd:typedAs <http://www.assero.co.uk/CSN#f9caeead-091c-442a-acdf-6f56a64c4dff> ;
	bd:classifiedAs <http://www.assero.co.uk/CSN#9e246430-42c2-476a-8c1a-07ba9e698024> ;
.
<http://www.cdisc.org/SE/V4#CL_MVSESTDTC>
	rdf:type bd:SdtmModelVariable ;
	isoC:label "Start Date/Time of Element"^^xsd:string ;
	bd:rule ""^^xsd:string ;
	bd:ordinal "7"^^xsd:positiveInteger ;
	bd:name "SESTDTC"^^xsd:string ;
	bd:prefixed "false"^^xsd:boolean ;
	bd:description "Start date/time for an Element for each subject, in ISO 8601 format."^^xsd:string ;
	bd:typedAs <http://www.assero.co.uk/CSN#f9caeead-091c-442a-acdf-6f56a64c4dff> ;
	bd:classifiedAs <http://www.assero.co.uk/CSN#ef6281db-14c7-44d8-b41e-4b6c96de1b79> ;
.
<http://www.cdisc.org/SE/V4#CL_MVSEENDTC>
	rdf:type bd:SdtmModelVariable ;
	isoC:label "End Date/Time of Element"^^xsd:string ;
	bd:rule ""^^xsd:string ;
	bd:ordinal "8"^^xsd:positiveInteger ;
	bd:name "SEENDTC"^^xsd:string ;
	bd:prefixed "false"^^xsd:boolean ;
	bd:description "End date/time for an Element for each subject, in ISO 8601 format."^^xsd:string ;
	bd:typedAs <http://www.assero.co.uk/CSN#f9caeead-091c-442a-acdf-6f56a64c4dff> ;
	bd:classifiedAs <http://www.assero.co.uk/CSN#ef6281db-14c7-44d8-b41e-4b6c96de1b79> ;
.
<http://www.cdisc.org/SE/V4#CL_MVSEUPDES>
	rdf:type bd:SdtmModelVariable ;
	isoC:label "Description of Unplanned Element"^^xsd:string ;
	bd:rule ""^^xsd:string ;
	bd:ordinal "9"^^xsd:positiveInteger ;
	bd:name "SEUPDES"^^xsd:string ;
	bd:prefixed "false"^^xsd:boolean ;
	bd:description "Description of what happened to the subject during an unplanned Element. Used only if ETCD has the value of UNPLAN."^^xsd:string ;
	bd:typedAs <http://www.assero.co.uk/CSN#f9caeead-091c-442a-acdf-6f56a64c4dff> ;
	bd:classifiedAs <http://www.assero.co.uk/CSN#9e246430-42c2-476a-8c1a-07ba9e698024> ;
.
<http://www.cdisc.org/TA/V4#CL>
	rdf:type bd:SdtmClass ;
	isoC:label "TA"^^xsd:string ;
	isoT:hasState <http://www.cdisc.org/TA/V4#CL_RS> ;
	isoT:hasIdentifier <http://www.cdisc.org/TA/V4#CL_SI> ;
	isoT:origin ""^^xsd:string ;
	isoT:changeDescription ""^^xsd:string ;
	isoT:creationDate "2016-07-05T00:00:00+00:00"^^xsd:dateTime ;
	isoT:lastChangeDate "2016-07-05T00:00:00+00:00"^^xsd:dateTime ;
	isoT:explanatoryComment ""^^xsd:string ;
	bd:rule ""^^xsd:string ;
	bd:ordinal "1"^^xsd:positiveInteger ;
	bd:includesColumn <http://www.cdisc.org/TA/V1#CL_MVSTUDYID> ;
	bd:includesColumn <http://www.cdisc.org/TA/V1#CL_MVDOMAIN> ;
	bd:includesColumn <http://www.cdisc.org/TA/V4#CL_MVARMCD> ;
	bd:includesColumn <http://www.cdisc.org/TA/V4#CL_MVARM> ;
	bd:includesColumn <http://www.cdisc.org/TA/V4#CL_MVTAETORD> ;
	bd:includesColumn <http://www.cdisc.org/TA/V4#CL_MVETCD> ;
	bd:includesColumn <http://www.cdisc.org/TA/V4#CL_MVELEMENT> ;
	bd:includesColumn <http://www.cdisc.org/TA/V4#CL_MVTABRANCH> ;
	bd:includesColumn <http://www.cdisc.org/TA/V4#CL_MVTATRANS> ;
	bd:includesColumn <http://www.cdisc.org/TA/V4#CL_MVEPOCH> ;
.
<http://www.cdisc.org/TA/V4#CL_RS>
	rdf:type isoR:RegistrationState ;
	isoR:registrationStatus "Standard"^^xsd:string ;
	isoR:administrativeNote ""^^xsd:string ;
	isoR:effectiveDate "2016-01-01T00:00:00+00:00"^^xsd:dateTime ;
	isoR:untilDate "2016-01-01T00:00:00+00:00"^^xsd:dateTime ;
	isoR:unresolvedIssue ""^^xsd:string ;
	isoR:administrativeStatus ""^^xsd:string ;
	isoR:previousState "Standard"^^xsd:string ;
	isoR:multipleEdit "false"^^xsd:boolean ;
	isoR:byAuthority <http://www.assero.co.uk/RA#DUNS084433759> ;
.
<http://www.cdisc.org/TA/V4#CL_SI>
	rdf:type isoI:ScopedIdentifier ;
	isoI:identifier "TA"^^xsd:string ;
	isoI:versionLabel "2016-07-05 Release"^^xsd:string ;
	isoI:version "4"^^xsd:positiveInteger ;
	isoI:semanticVersion "4.0.0"^^xsd:string ;
	isoI:hasScope <http://www.assero.co.uk/NS#CDISC> ;
.
<http://www.cdisc.org/TA/V4#CL_MVARMCD>
	rdf:type bd:SdtmModelVariable ;
	isoC:label "Planned Arm Code"^^xsd:string ;
	bd:rule ""^^xsd:string ;
	bd:ordinal "3"^^xsd:positiveInteger ;
	bd:name "ARMCD"^^xsd:string ;
	bd:prefixed "false"^^xsd:boolean ;
	bd:description "Short name of a specific ARM (may be up to 20 characters) used for sorting and programming. Should be populated in Demographics when Arms have been defined in this domain."^^xsd:string ;
	bd:typedAs <http://www.assero.co.uk/CSN#f9caeead-091c-442a-acdf-6f56a64c4dff> ;
	bd:classifiedAs <http://www.assero.co.uk/CSN#4f6c8f78-280e-42b3-8289-a146dd5e47f0> ;
.
<http://www.cdisc.org/TA/V4#CL_MVARM>
	rdf:type bd:SdtmModelVariable ;
	isoC:label "Description of Planned Arm"^^xsd:string ;
	bd:rule ""^^xsd:string ;
	bd:ordinal "4"^^xsd:positiveInteger ;
	bd:name "ARM"^^xsd:string ;
	bd:prefixed "false"^^xsd:boolean ;
	bd:description "Descriptive name given to a specific Trial Arm (e.g., Low Dose, Mid Dose, 10 mg/kg/day dose)."^^xsd:string ;
	bd:typedAs <http://www.assero.co.uk/CSN#f9caeead-091c-442a-acdf-6f56a64c4dff> ;
	bd:classifiedAs <http://www.assero.co.uk/CSN#9e246430-42c2-476a-8c1a-07ba9e698024> ;
.
<http://www.cdisc.org/TA/V4#CL_MVTAETORD>
	rdf:type bd:SdtmModelVariable ;
	isoC:label "Order of Element within Arm"^^xsd:string ;
	bd:rule ""^^xsd:string ;
	bd:ordinal "5"^^xsd:positiveInteger ;
	bd:name "TAETORD"^^xsd:string ;
	bd:prefixed "false"^^xsd:boolean ;
	bd:description "Number that provides the order of the planned Element within the Arm. This value should be an integer."^^xsd:string ;
	bd:typedAs <http://www.assero.co.uk/CSN#8b16536d-2667-4282-86b4-8724a00b8f9f> ;
	bd:classifiedAs <http://www.assero.co.uk/CSN#ef6281db-14c7-44d8-b41e-4b6c96de1b79> ;
.
<http://www.cdisc.org/TA/V4#CL_MVETCD>
	rdf:type bd:SdtmModelVariable ;
	isoC:label "Element Code"^^xsd:string ;
	bd:rule ""^^xsd:string ;
	bd:ordinal "6"^^xsd:positiveInteger ;
	bd:name "ETCD"^^xsd:string ;
	bd:prefixed "false"^^xsd:boolean ;
	bd:description "ETCD (the companion to ELEMENT) is limited to 8 characters and does not have special character restrictions."^^xsd:string ;
	bd:typedAs <http://www.assero.co.uk/CSN#f9caeead-091c-442a-acdf-6f56a64c4dff> ;
	bd:classifiedAs <http://www.assero.co.uk/CSN#c87fdb01-a54e-44b2-b4e7-2aadbe8ada87> ;
.
<http://www.cdisc.org/TA/V4#CL_MVELEMENT>
	rdf:type bd:SdtmModelVariable ;
	isoC:label "Description of Element"^^xsd:string ;
	bd:rule ""^^xsd:string ;
	bd:ordinal "7"^^xsd:positiveInteger ;
	bd:name "ELEMENT"^^xsd:string ;
	bd:prefixed "false"^^xsd:boolean ;
	bd:description "The name of the Element."^^xsd:string ;
	bd:typedAs <http://www.assero.co.uk/CSN#f9caeead-091c-442a-acdf-6f56a64c4dff> ;
	bd:classifiedAs <http://www.assero.co.uk/CSN#9e246430-42c2-476a-8c1a-07ba9e698024> ;
.
<http://www.cdisc.org/TA/V4#CL_MVTABRANCH>
	rdf:type bd:SdtmModelVariable ;
	isoC:label "Branch"^^xsd:string ;
	bd:rule ""^^xsd:string ;
	bd:ordinal "8"^^xsd:positiveInteger ;
	bd:name "TABRANCH"^^xsd:string ;
	bd:prefixed "false"^^xsd:boolean ;
	bd:description "Conditions subjects meet, occurring at the end of an Element, which cause an Arm to branch off from other Arms (e.g., randomization to control group)."^^xsd:string ;
	bd:typedAs <http://www.assero.co.uk/CSN#f9caeead-091c-442a-acdf-6f56a64c4dff> ;
	bd:classifiedAs <http://www.assero.co.uk/CSN#b7fb26b2-f61f-4483-a4b2-68cce9de42b4> ;
.
<http://www.cdisc.org/TA/V4#CL_MVTATRANS>
	rdf:type bd:SdtmModelVariable ;
	isoC:label "Transition Rule"^^xsd:string ;
	bd:rule ""^^xsd:string ;
	bd:ordinal "9"^^xsd:positiveInteger ;
	bd:name "TATRANS"^^xsd:string ;
	bd:prefixed "false"^^xsd:boolean ;
	bd:description "If the study design allows for a subject to transition to an Element other than the next sequential Element, as defined by TAETORD, then the conditions for transitioning to those other Elements, as well as the alternative Element sequences, are specified in this rule (e.g., TATRANS = 'Subject with Hypoactivity Transitions to Rest Period to Treatment 2')."^^xsd:string ;
	bd:typedAs <http://www.assero.co.uk/CSN#f9caeead-091c-442a-acdf-6f56a64c4dff> ;
	bd:classifiedAs <http://www.assero.co.uk/CSN#b7fb26b2-f61f-4483-a4b2-68cce9de42b4> ;
.
<http://www.cdisc.org/TA/V4#CL_MVEPOCH>
	rdf:type bd:SdtmModelVariable ;
	isoC:label "Trial Epoch"^^xsd:string ;
	bd:rule ""^^xsd:string ;
	bd:ordinal "10"^^xsd:positiveInteger ;
	bd:name "EPOCH"^^xsd:string ;
	bd:prefixed "false"^^xsd:boolean ;
	bd:description "Name of the study Epoch with which this Element of the Arm is associated (e.g., Treatment, Screen). Equivalent to 'Phase' or 'Period.'"^^xsd:string ;
	bd:typedAs <http://www.assero.co.uk/CSN#f9caeead-091c-442a-acdf-6f56a64c4dff> ;
	bd:classifiedAs <http://www.assero.co.uk/CSN#ef6281db-14c7-44d8-b41e-4b6c96de1b79> ;
.
<http://www.cdisc.org/TE/V4#CL>
	rdf:type bd:SdtmClass ;
	isoC:label "TE"^^xsd:string ;
	isoT:hasState <http://www.cdisc.org/TE/V4#CL_RS> ;
	isoT:hasIdentifier <http://www.cdisc.org/TE/V4#CL_SI> ;
	isoT:origin ""^^xsd:string ;
	isoT:changeDescription ""^^xsd:string ;
	isoT:creationDate "2016-07-05T00:00:00+00:00"^^xsd:dateTime ;
	isoT:lastChangeDate "2016-07-05T00:00:00+00:00"^^xsd:dateTime ;
	isoT:explanatoryComment ""^^xsd:string ;
	bd:rule ""^^xsd:string ;
	bd:ordinal "1"^^xsd:positiveInteger ;
	bd:includesColumn <http://www.cdisc.org/TE/V1#CL_MVSTUDYID> ;
	bd:includesColumn <http://www.cdisc.org/TE/V1#CL_MVDOMAIN> ;
	bd:includesColumn <http://www.cdisc.org/TE/V4#CL_MVETCD> ;
	bd:includesColumn <http://www.cdisc.org/TE/V2#CL_MVELEMENT> ;
	bd:includesColumn <http://www.cdisc.org/TE/V1#CL_MVTESTRL> ;
	bd:includesColumn <http://www.cdisc.org/TE/V4#CL_MVTEENRL> ;
	bd:includesColumn <http://www.cdisc.org/TE/V4#CL_MVTEDUR> ;
.
<http://www.cdisc.org/TE/V4#CL_RS>
	rdf:type isoR:RegistrationState ;
	isoR:registrationStatus "Standard"^^xsd:string ;
	isoR:administrativeNote ""^^xsd:string ;
	isoR:effectiveDate "2016-01-01T00:00:00+00:00"^^xsd:dateTime ;
	isoR:untilDate "2016-01-01T00:00:00+00:00"^^xsd:dateTime ;
	isoR:unresolvedIssue ""^^xsd:string ;
	isoR:administrativeStatus ""^^xsd:string ;
	isoR:previousState "Standard"^^xsd:string ;
	isoR:multipleEdit "false"^^xsd:boolean ;
	isoR:byAuthority <http://www.assero.co.uk/RA#DUNS084433759> ;
.
<http://www.cdisc.org/TE/V4#CL_SI>
	rdf:type isoI:ScopedIdentifier ;
	isoI:identifier "TE"^^xsd:string ;
	isoI:versionLabel "2016-07-05 Release"^^xsd:string ;
	isoI:version "4"^^xsd:positiveInteger ;
	isoI:semanticVersion "4.0.0"^^xsd:string ;
	isoI:hasScope <http://www.assero.co.uk/NS#CDISC> ;
.
<http://www.cdisc.org/TE/V4#CL_MVETCD>
	rdf:type bd:SdtmModelVariable ;
	isoC:label "Element Code"^^xsd:string ;
	bd:rule ""^^xsd:string ;
	bd:ordinal "3"^^xsd:positiveInteger ;
	bd:name "ETCD"^^xsd:string ;
	bd:prefixed "false"^^xsd:boolean ;
	bd:description "ETCD (the short form of ELEMENT) is limited to 8 characters and does not have special character restrictions."^^xsd:string ;
	bd:typedAs <http://www.assero.co.uk/CSN#f9caeead-091c-442a-acdf-6f56a64c4dff> ;
	bd:classifiedAs <http://www.assero.co.uk/CSN#4f6c8f78-280e-42b3-8289-a146dd5e47f0> ;
.
<http://www.cdisc.org/TE/V4#CL_MVTEENRL>
	rdf:type bd:SdtmModelVariable ;
	isoC:label "Rule for End of Element"^^xsd:string ;
	bd:rule ""^^xsd:string ;
	bd:ordinal "6"^^xsd:positiveInteger ;
	bd:name "TEENRL"^^xsd:string ;
	bd:prefixed "false"^^xsd:boolean ;
	bd:description "Expresses rule for ending Element. Either TEENRL or TEDUR must be present for each Element; both may be present."^^xsd:string ;
	bd:typedAs <http://www.assero.co.uk/CSN#f9caeead-091c-442a-acdf-6f56a64c4dff> ;
	bd:classifiedAs <http://www.assero.co.uk/CSN#b7fb26b2-f61f-4483-a4b2-68cce9de42b4> ;
.
<http://www.cdisc.org/TE/V4#CL_MVTEDUR>
	rdf:type bd:SdtmModelVariable ;
	isoC:label "Planned Duration of Element"^^xsd:string ;
	bd:rule ""^^xsd:string ;
	bd:ordinal "7"^^xsd:positiveInteger ;
	bd:name "TEDUR"^^xsd:string ;
	bd:prefixed "false"^^xsd:boolean ;
	bd:description "Planned duration of Element in ISO 8601 format. Use when an Element represents a fixed duration. TEENRL or TEDUR must be present for each Element; both may be present."^^xsd:string ;
	bd:typedAs <http://www.assero.co.uk/CSN#f9caeead-091c-442a-acdf-6f56a64c4dff> ;
	bd:classifiedAs <http://www.assero.co.uk/CSN#ef6281db-14c7-44d8-b41e-4b6c96de1b79> ;
.
<http://www.cdisc.org/TS/V4#CL>
	rdf:type bd:SdtmClass ;
	isoC:label "TS"^^xsd:string ;
	isoT:hasState <http://www.cdisc.org/TS/V4#CL_RS> ;
	isoT:hasIdentifier <http://www.cdisc.org/TS/V4#CL_SI> ;
	isoT:origin ""^^xsd:string ;
	isoT:changeDescription ""^^xsd:string ;
	isoT:creationDate "2016-07-05T00:00:00+00:00"^^xsd:dateTime ;
	isoT:lastChangeDate "2016-07-05T00:00:00+00:00"^^xsd:dateTime ;
	isoT:explanatoryComment ""^^xsd:string ;
	bd:rule ""^^xsd:string ;
	bd:ordinal "1"^^xsd:positiveInteger ;
	bd:includesColumn <http://www.cdisc.org/TS/V4#CL_MVSTUDYID> ;
	bd:includesColumn <http://www.cdisc.org/TS/V4#CL_MVDOMAIN> ;
	bd:includesColumn <http://www.cdisc.org/TS/V4#CL_MVTSSEQ> ;
	bd:includesColumn <http://www.cdisc.org/TS/V4#CL_MVTSGRPID> ;
	bd:includesColumn <http://www.cdisc.org/TS/V4#CL_MVTSPARMCD> ;
	bd:includesColumn <http://www.cdisc.org/TS/V4#CL_MVTSPARM> ;
	bd:includesColumn <http://www.cdisc.org/TS/V4#CL_MVTSVAL> ;
	bd:includesColumn <http://www.cdisc.org/TS/V4#CL_MVTSVALNF> ;
.
<http://www.cdisc.org/TS/V4#CL_RS>
	rdf:type isoR:RegistrationState ;
	isoR:registrationStatus "Standard"^^xsd:string ;
	isoR:administrativeNote ""^^xsd:string ;
	isoR:effectiveDate "2016-01-01T00:00:00+00:00"^^xsd:dateTime ;
	isoR:untilDate "2016-01-01T00:00:00+00:00"^^xsd:dateTime ;
	isoR:unresolvedIssue ""^^xsd:string ;
	isoR:administrativeStatus ""^^xsd:string ;
	isoR:previousState "Standard"^^xsd:string ;
	isoR:multipleEdit "false"^^xsd:boolean ;
	isoR:byAuthority <http://www.assero.co.uk/RA#DUNS084433759> ;
.
<http://www.cdisc.org/TS/V4#CL_SI>
	rdf:type isoI:ScopedIdentifier ;
	isoI:identifier "TS"^^xsd:string ;
	isoI:versionLabel "2016-07-05 Release"^^xsd:string ;
	isoI:version "4"^^xsd:positiveInteger ;
	isoI:semanticVersion "4.0.0"^^xsd:string ;
	isoI:hasScope <http://www.assero.co.uk/NS#CDISC> ;
.
<http://www.cdisc.org/TS/V4#CL_MVSTUDYID>
	rdf:type bd:SdtmModelVariable ;
	isoC:label "Study Identifier"^^xsd:string ;
	bd:rule ""^^xsd:string ;
	bd:ordinal "1"^^xsd:positiveInteger ;
	bd:name "STUDYID"^^xsd:string ;
	bd:prefixed "false"^^xsd:boolean ;
	bd:description "Unique identifier for a study within the submission."^^xsd:string ;
	bd:typedAs <http://www.assero.co.uk/CSN#f9caeead-091c-442a-acdf-6f56a64c4dff> ;
	bd:classifiedAs <http://www.assero.co.uk/CSN#31553bfb-458e-4356-8f78-9d84ca25f745> ;
.
<http://www.cdisc.org/TS/V4#CL_MVDOMAIN>
	rdf:type bd:SdtmModelVariable ;
	isoC:label "Domain Abbreviation"^^xsd:string ;
	bd:rule ""^^xsd:string ;
	bd:ordinal "2"^^xsd:positiveInteger ;
	bd:name "DOMAIN"^^xsd:string ;
	bd:prefixed "false"^^xsd:boolean ;
	bd:description "Two-character abbreviation for the domain most relevant to the observation."^^xsd:string ;
	bd:typedAs <http://www.assero.co.uk/CSN#f9caeead-091c-442a-acdf-6f56a64c4dff> ;
	bd:classifiedAs <http://www.assero.co.uk/CSN#31553bfb-458e-4356-8f78-9d84ca25f745> ;
.
<http://www.cdisc.org/TS/V4#CL_MVTSSEQ>
	rdf:type bd:SdtmModelVariable ;
	isoC:label "Sequence Number"^^xsd:string ;
	bd:rule ""^^xsd:string ;
	bd:ordinal "3"^^xsd:positiveInteger ;
	bd:name "TSSEQ"^^xsd:string ;
	bd:prefixed "false"^^xsd:boolean ;
	bd:description "Sequence number used to ensure uniqueness within a TSPARMCD. Allows inclusion of multiple records for the same TSPARMCD, and can be used to join related records."^^xsd:string ;
	bd:typedAs <http://www.assero.co.uk/CSN#8b16536d-2667-4282-86b4-8724a00b8f9f> ;
	bd:classifiedAs <http://www.assero.co.uk/CSN#31553bfb-458e-4356-8f78-9d84ca25f745> ;
.
<http://www.cdisc.org/TS/V4#CL_MVTSGRPID>
	rdf:type bd:SdtmModelVariable ;
	isoC:label "Group Identifier"^^xsd:string ;
	bd:rule ""^^xsd:string ;
	bd:ordinal "4"^^xsd:positiveInteger ;
	bd:name "TSGRPID"^^xsd:string ;
	bd:prefixed "false"^^xsd:boolean ;
	bd:description "Used to tie together a group of related records. This is not the sponsor-defined protocol group number."^^xsd:string ;
	bd:typedAs <http://www.assero.co.uk/CSN#f9caeead-091c-442a-acdf-6f56a64c4dff> ;
	bd:classifiedAs <http://www.assero.co.uk/CSN#31553bfb-458e-4356-8f78-9d84ca25f745> ;
.
<http://www.cdisc.org/TS/V4#CL_MVTSPARMCD>
	rdf:type bd:SdtmModelVariable ;
	isoC:label "Trial Summary Parameter Short Name"^^xsd:string ;
	bd:rule ""^^xsd:string ;
	bd:ordinal "5"^^xsd:positiveInteger ;
	bd:name "TSPARMCD"^^xsd:string ;
	bd:prefixed "false"^^xsd:boolean ;
	bd:description "Short character value for the trial design characteristic described in TSPARM. Value must be 8 characters or less."^^xsd:string ;
	bd:typedAs <http://www.assero.co.uk/CSN#f9caeead-091c-442a-acdf-6f56a64c4dff> ;
	bd:classifiedAs <http://www.assero.co.uk/CSN#4f6c8f78-280e-42b3-8289-a146dd5e47f0> ;
.
<http://www.cdisc.org/TS/V4#CL_MVTSPARM>
	rdf:type bd:SdtmModelVariable ;
	isoC:label "Trial Summary Parameter"^^xsd:string ;
	bd:rule ""^^xsd:string ;
	bd:ordinal "6"^^xsd:positiveInteger ;
	bd:name "TSPARM"^^xsd:string ;
	bd:prefixed "false"^^xsd:boolean ;
	bd:description "Term for the trial parameter. Value must be 40 characters or less."^^xsd:string ;
	bd:typedAs <http://www.assero.co.uk/CSN#f9caeead-091c-442a-acdf-6f56a64c4dff> ;
	bd:classifiedAs <http://www.assero.co.uk/CSN#9e246430-42c2-476a-8c1a-07ba9e698024> ;
.
<http://www.cdisc.org/TS/V4#CL_MVTSVAL>
	rdf:type bd:SdtmModelVariable ;
	isoC:label "Parameter Value"^^xsd:string ;
	bd:rule ""^^xsd:string ;
	bd:ordinal "7"^^xsd:positiveInteger ;
	bd:name "TSVAL"^^xsd:string ;
	bd:prefixed "false"^^xsd:boolean ;
	bd:description "Value of the TS parameter (e.g., \"FDA\" when TSPARM is GLP Type). The values for some parameters may be subject to controlled terminology. See the Controlled Terms, Codelist, or Format column in Section 7.6.3 that lists all defined parameters. TSVAL can only be null if TSVALNF is populated."^^xsd:string ;
	bd:typedAs <http://www.assero.co.uk/CSN#f9caeead-091c-442a-acdf-6f56a64c4dff> ;
	bd:classifiedAs <http://www.assero.co.uk/CSN#a5cd53b6-ceca-4325-aa4e-71267169582f> ;
.
<http://www.cdisc.org/TS/V4#CL_MVTSVALNF>
	rdf:type bd:SdtmModelVariable ;
	isoC:label "Parameter Null Flavor"^^xsd:string ;
	bd:rule ""^^xsd:string ;
	bd:ordinal "8"^^xsd:positiveInteger ;
	bd:name "TSVALNF"^^xsd:string ;
	bd:prefixed "false"^^xsd:boolean ;
	bd:description "Null flavor for the value of the TSPARMs, which should be included according to the trial summary code table below if and only if TSVAL is null."^^xsd:string ;
	bd:typedAs <http://www.assero.co.uk/CSN#f9caeead-091c-442a-acdf-6f56a64c4dff> ;
	bd:classifiedAs <http://www.assero.co.uk/CSN#c87fdb01-a54e-44b2-b4e7-2aadbe8ada87> ;
.
<http://www.cdisc.org/TX/V4#CL>
	rdf:type bd:SdtmClass ;
	isoC:label "TX"^^xsd:string ;
	isoT:hasState <http://www.cdisc.org/TX/V4#CL_RS> ;
	isoT:hasIdentifier <http://www.cdisc.org/TX/V4#CL_SI> ;
	isoT:origin ""^^xsd:string ;
	isoT:changeDescription ""^^xsd:string ;
	isoT:creationDate "2016-07-05T00:00:00+00:00"^^xsd:dateTime ;
	isoT:lastChangeDate "2016-07-05T00:00:00+00:00"^^xsd:dateTime ;
	isoT:explanatoryComment ""^^xsd:string ;
	bd:rule ""^^xsd:string ;
	bd:ordinal "1"^^xsd:positiveInteger ;
	bd:includesColumn <http://www.cdisc.org/TX/V4#CL_MVSTUDYID> ;
	bd:includesColumn <http://www.cdisc.org/TX/V4#CL_MVDOMAIN> ;
	bd:includesColumn <http://www.cdisc.org/TX/V4#CL_MVSETCD> ;
	bd:includesColumn <http://www.cdisc.org/TX/V4#CL_MVSET> ;
	bd:includesColumn <http://www.cdisc.org/TX/V4#CL_MVTXSEQ> ;
	bd:includesColumn <http://www.cdisc.org/TX/V4#CL_MVTXPARMCD> ;
	bd:includesColumn <http://www.cdisc.org/TX/V4#CL_MVTXPARM> ;
	bd:includesColumn <http://www.cdisc.org/TX/V4#CL_MVTXVAL> ;
.
<http://www.cdisc.org/TX/V4#CL_RS>
	rdf:type isoR:RegistrationState ;
	isoR:registrationStatus "Standard"^^xsd:string ;
	isoR:administrativeNote ""^^xsd:string ;
	isoR:effectiveDate "2016-01-01T00:00:00+00:00"^^xsd:dateTime ;
	isoR:untilDate "2016-01-01T00:00:00+00:00"^^xsd:dateTime ;
	isoR:unresolvedIssue ""^^xsd:string ;
	isoR:administrativeStatus ""^^xsd:string ;
	isoR:previousState "Standard"^^xsd:string ;
	isoR:multipleEdit "false"^^xsd:boolean ;
	isoR:byAuthority <http://www.assero.co.uk/RA#DUNS084433759> ;
.
<http://www.cdisc.org/TX/V4#CL_SI>
	rdf:type isoI:ScopedIdentifier ;
	isoI:identifier "TX"^^xsd:string ;
	isoI:versionLabel "2016-07-05 Release"^^xsd:string ;
	isoI:version "4"^^xsd:positiveInteger ;
	isoI:semanticVersion "4.0.0"^^xsd:string ;
	isoI:hasScope <http://www.assero.co.uk/NS#CDISC> ;
.
<http://www.cdisc.org/TX/V4#CL_MVSTUDYID>
	rdf:type bd:SdtmModelVariable ;
	isoC:label "Study Identifier"^^xsd:string ;
	bd:rule ""^^xsd:string ;
	bd:ordinal "1"^^xsd:positiveInteger ;
	bd:name "STUDYID"^^xsd:string ;
	bd:prefixed "false"^^xsd:boolean ;
	bd:description "Unique identifier for a study."^^xsd:string ;
	bd:typedAs <http://www.assero.co.uk/CSN#f9caeead-091c-442a-acdf-6f56a64c4dff> ;
	bd:classifiedAs <http://www.assero.co.uk/CSN#31553bfb-458e-4356-8f78-9d84ca25f745> ;
.
<http://www.cdisc.org/TX/V4#CL_MVDOMAIN>
	rdf:type bd:SdtmModelVariable ;
	isoC:label "Domain Abbreviation"^^xsd:string ;
	bd:rule ""^^xsd:string ;
	bd:ordinal "2"^^xsd:positiveInteger ;
	bd:name "DOMAIN"^^xsd:string ;
	bd:prefixed "false"^^xsd:boolean ;
	bd:description "Two-character abbreviation for the domain."^^xsd:string ;
	bd:typedAs <http://www.assero.co.uk/CSN#f9caeead-091c-442a-acdf-6f56a64c4dff> ;
	bd:classifiedAs <http://www.assero.co.uk/CSN#31553bfb-458e-4356-8f78-9d84ca25f745> ;
.
<http://www.cdisc.org/TX/V4#CL_MVSETCD>
	rdf:type bd:SdtmModelVariable ;
	isoC:label "Set Code"^^xsd:string ;
	bd:rule ""^^xsd:string ;
	bd:ordinal "3"^^xsd:positiveInteger ;
	bd:name "SETCD"^^xsd:string ;
	bd:prefixed "false"^^xsd:boolean ;
	bd:description "Short name of the Trial Set. The same element may occur more than once within an Arm. Maximum 8 characters. This represents the Trial Set for which parameters are being submitted."^^xsd:string ;
	bd:typedAs <http://www.assero.co.uk/CSN#f9caeead-091c-442a-acdf-6f56a64c4dff> ;
	bd:classifiedAs <http://www.assero.co.uk/CSN#31553bfb-458e-4356-8f78-9d84ca25f745> ;
.
<http://www.cdisc.org/TX/V4#CL_MVSET>
	rdf:type bd:SdtmModelVariable ;
	isoC:label "Set Description"^^xsd:string ;
	bd:rule ""^^xsd:string ;
	bd:ordinal "4"^^xsd:positiveInteger ;
	bd:name "SET"^^xsd:string ;
	bd:prefixed "false"^^xsd:boolean ;
	bd:description "Long description of a specific Trial Set, as defined by the sponsor."^^xsd:string ;
	bd:typedAs <http://www.assero.co.uk/CSN#f9caeead-091c-442a-acdf-6f56a64c4dff> ;
	bd:classifiedAs <http://www.assero.co.uk/CSN#9e246430-42c2-476a-8c1a-07ba9e698024> ;
.
<http://www.cdisc.org/TX/V4#CL_MVTXSEQ>
	rdf:type bd:SdtmModelVariable ;
	isoC:label "Sequence Number"^^xsd:string ;
	bd:rule ""^^xsd:string ;
	bd:ordinal "5"^^xsd:positiveInteger ;
	bd:name "TXSEQ"^^xsd:string ;
	bd:prefixed "false"^^xsd:boolean ;
	bd:description "Unique number for this record within this dataset. (This sequence should be unique within the entire dataset because there is no USUBJID.)"^^xsd:string ;
	bd:typedAs <http://www.assero.co.uk/CSN#8b16536d-2667-4282-86b4-8724a00b8f9f> ;
	bd:classifiedAs <http://www.assero.co.uk/CSN#31553bfb-458e-4356-8f78-9d84ca25f745> ;
.
<http://www.cdisc.org/TX/V4#CL_MVTXPARMCD>
	rdf:type bd:SdtmModelVariable ;
	isoC:label "Trial Set Parameter Short Name"^^xsd:string ;
	bd:rule ""^^xsd:string ;
	bd:ordinal "6"^^xsd:positiveInteger ;
	bd:name "TXPARMCD"^^xsd:string ;
	bd:prefixed "false"^^xsd:boolean ;
	bd:description "Short character value for the Trial Set parameter described in TXPARM. Maximum 8 characters."^^xsd:string ;
	bd:typedAs <http://www.assero.co.uk/CSN#f9caeead-091c-442a-acdf-6f56a64c4dff> ;
	bd:classifiedAs <http://www.assero.co.uk/CSN#4f6c8f78-280e-42b3-8289-a146dd5e47f0> ;
.
<http://www.cdisc.org/TX/V4#CL_MVTXPARM>
	rdf:type bd:SdtmModelVariable ;
	isoC:label "Trial Set Parameter"^^xsd:string ;
	bd:rule ""^^xsd:string ;
	bd:ordinal "7"^^xsd:positiveInteger ;
	bd:name "TXPARM"^^xsd:string ;
	bd:prefixed "false"^^xsd:boolean ;
	bd:description "Term for the Trial Set parameter. Maximum 40 characters."^^xsd:string ;
	bd:typedAs <http://www.assero.co.uk/CSN#f9caeead-091c-442a-acdf-6f56a64c4dff> ;
	bd:classifiedAs <http://www.assero.co.uk/CSN#9e246430-42c2-476a-8c1a-07ba9e698024> ;
.
<http://www.cdisc.org/TX/V4#CL_MVTXVAL>
	rdf:type bd:SdtmModelVariable ;
	isoC:label "Trial Set Parameter Value"^^xsd:string ;
	bd:rule ""^^xsd:string ;
	bd:ordinal "8"^^xsd:positiveInteger ;
	bd:name "TXVAL"^^xsd:string ;
	bd:prefixed "false"^^xsd:boolean ;
	bd:description "Value of the Trial Set parameter (e.g., Fed ad libitum or Restricted Feeding when TXPARM is FEEDREG). Some parameters may be subject to controlled terminology. See the Controlled Terms, Codelist, or Format column in Section 7.4.2 that lists all defined Trial Set parameters."^^xsd:string ;
	bd:typedAs <http://www.assero.co.uk/CSN#f9caeead-091c-442a-acdf-6f56a64c4dff> ;
	bd:classifiedAs <http://www.assero.co.uk/CSN#a5cd53b6-ceca-4325-aa4e-71267169582f> ;
.