# baseURI: http://www.assero.co.uk/MDRCDISCSDTM
# imports: http://www.assero.co.uk/CDISCSDTM

@prefix : <http://www.assero.co.uk/MDRCDISCSDTM#> .
@prefix sdtm: <http://www.assero.co.uk/CDISCSDTM#> .
@prefix rc: <http://www.assero.co.uk/MDRCDISCResearchConcepts#> .
@prefix owl: <http://www.w3.org/2002/07/owl#> .
@prefix rdf: <http://www.w3.org/1999/02/22-rdf-syntax-ns#> .
@prefix rdfs: <http://www.w3.org/2000/01/rdf-schema#> .
@prefix xsd: <http://www.w3.org/2001/XMLSchema#> .

<http://www.assero.co.uk/MDRCDISCSDTM>
	rdf:type owl:Ontology ;
	owl:imports <http://www.assero.co.uk/CDISCSDTM> ;
.
:Domain.http://rdf.cdisc.org/std/sdtm-1-2#EventVariables
	rdf:type sdtm:Domain ;
.
:Domain.http://rdf.cdisc.org/std/sdtm-1-2#FindingVariables
	rdf:type sdtm:Domain ;
.
:Domain.http://rdf.cdisc.org/std/sdtm-1-2#FindingsAboutVariables
	rdf:type sdtm:Domain ;
.
:Domain.http://rdf.cdisc.org/std/sdtm-1-2#IdentifierVariables
	rdf:type sdtm:Domain ;
.
:Domain.http://rdf.cdisc.org/std/sdtm-1-2#InterventionVariables
	rdf:type sdtm:Domain ;
.
:Domain.http://rdf.cdisc.org/std/sdtm-1-2#TimingVariables
	rdf:type sdtm:Domain ;
.
:Variable..--RELNST
	rdf:type sdtm:Variable ;
.
:Variable..--BODSYS
	rdf:type sdtm:Variable ;
.
:Variable..--LOC
	rdf:type sdtm:Variable ;
.
:Variable..--ACN
	rdf:type sdtm:Variable ;
.
:Variable..--ACNOTH
	rdf:type sdtm:Variable ;
.
:Variable..--OUT
	rdf:type sdtm:Variable ;
.
:Variable..--TOX
	rdf:type sdtm:Variable ;
.
:Variable..--DECOD
	rdf:type sdtm:Variable ;
.
:Variable..--SOD
	rdf:type sdtm:Variable ;
.
:Variable..--SHOSP
	rdf:type sdtm:Variable ;
.
:Variable..--SDTH
	rdf:type sdtm:Variable ;
.
:Variable..--SDISAB
	rdf:type sdtm:Variable ;
.
:Variable..--SMIE
	rdf:type sdtm:Variable ;
.
:Variable..--MODIFY
	rdf:type sdtm:Variable ;
.
:Variable..--SER
	rdf:type sdtm:Variable ;
.
:Variable..--REASND
	rdf:type sdtm:Variable ;
.
:Variable..--REL
	rdf:type sdtm:Variable ;
.
:Variable..--TOXGR
	rdf:type sdtm:Variable ;
.
:Variable..--SEV
	rdf:type sdtm:Variable ;
.
:Variable..--TERM
	rdf:type sdtm:Variable ;
.
:Variable..--CAT
	rdf:type sdtm:Variable ;
.
:Variable..--SCAT
	rdf:type sdtm:Variable ;
.
:Variable..--PATT
	rdf:type sdtm:Variable ;
.
:Variable..--STAT
	rdf:type sdtm:Variable ;
.
:Variable..--PRESP
	rdf:type sdtm:Variable ;
.
:Variable..--OCCUR
	rdf:type sdtm:Variable ;
.
:Variable..--CONTRT
	rdf:type sdtm:Variable ;
.
:Variable..--SCONG
	rdf:type sdtm:Variable ;
.
:Variable..--SCAN
	rdf:type sdtm:Variable ;
.
:Variable..--SLIFE
	rdf:type sdtm:Variable ;
.
:Variable..--BODSYS
	rdf:type sdtm:Variable ;
.
:Variable..--STRESC
	rdf:type sdtm:Variable ;
.
:Variable..--SPCCND
	rdf:type sdtm:Variable ;
.
:Variable..--SPEC
	rdf:type sdtm:Variable ;
.
:Variable..--DTHREL
	rdf:type sdtm:Variable ;
.
:Variable..--SEV
	rdf:type sdtm:Variable ;
.
:Variable..--TOX
	rdf:type sdtm:Variable ;
.
:Variable..--XFN
	rdf:type sdtm:Variable ;
.
:Variable..--MODIFY
	rdf:type sdtm:Variable ;
.
:Variable..--LLOQ
	rdf:type sdtm:Variable ;
.
:Variable..--BLFL
	rdf:type sdtm:Variable ;
.
:Variable..--FAST
	rdf:type sdtm:Variable ;
.
:Variable..--LOC
	rdf:type sdtm:Variable ;
.
:Variable..--LOINC
	rdf:type sdtm:Variable ;
.
:Variable..--TEST
	rdf:type sdtm:Variable ;
.
:Variable..--ORNRLO
	rdf:type sdtm:Variable ;
.
:Variable..--STNRLO
	rdf:type sdtm:Variable ;
.
:Variable..--METHOD
	rdf:type sdtm:Variable ;
.
:Variable..--NAM
	rdf:type sdtm:Variable ;
.
:Variable..--STNRC
	rdf:type sdtm:Variable ;
.
:Variable..--POS
	rdf:type sdtm:Variable ;
.
:Variable..--REASND
	rdf:type sdtm:Variable ;
.
:Variable..--TOXGR
	rdf:type sdtm:Variable ;
.
:Variable..--ORRES
	rdf:type sdtm:Variable ;
.
:Variable..--EVAL
	rdf:type sdtm:Variable ;
.
:Variable..--TESTCD
	rdf:type sdtm:Variable ;
.
:Variable..--STRESU
	rdf:type sdtm:Variable ;
.
:Variable..--ORRESU
	rdf:type sdtm:Variable ;
.
:Variable..--ORNRHI
	rdf:type sdtm:Variable ;
.
:Variable..--STNRHI
	rdf:type sdtm:Variable ;
.
:Variable..--STRESN
	rdf:type sdtm:Variable ;
.
:Variable..--RESCAT
	rdf:type sdtm:Variable ;
.
:Variable..--CAT
	rdf:type sdtm:Variable ;
.
:Variable..--SCAT
	rdf:type sdtm:Variable ;
.
:Variable..--DRVFL
	rdf:type sdtm:Variable ;
.
:Variable..--STAT
	rdf:type sdtm:Variable ;
.
:Variable..--NRIND
	rdf:type sdtm:Variable ;
.
:Variable..--OBJ
	rdf:type sdtm:Variable ;
.
:Variable..USUBJID
	rdf:type sdtm:Variable ;
.
:Variable..--GRPID
	rdf:type sdtm:Variable ;
.
:Variable..--REFID
	rdf:type sdtm:Variable ;
.
:Variable..--SEQ
	rdf:type sdtm:Variable ;
.
:Variable..--SPID
	rdf:type sdtm:Variable ;
.
:Variable..DOMAIN
	rdf:type sdtm:Variable ;
.
:Variable..STUDYID
	rdf:type sdtm:Variable ;
.
:Variable..--DOSE
	rdf:type sdtm:Variable ;
.
:Variable..--VAMT
	rdf:type sdtm:Variable ;
.
:Variable..--LOC
	rdf:type sdtm:Variable ;
.
:Variable..--CLAS
	rdf:type sdtm:Variable ;
.
:Variable..--INDC
	rdf:type sdtm:Variable ;
.
:Variable..--ADJ
	rdf:type sdtm:Variable ;
.
:Variable..--DOSFRM
	rdf:type sdtm:Variable ;
.
:Variable..--DOSTXT
	rdf:type sdtm:Variable ;
.
:Variable..--MODIFY
	rdf:type sdtm:Variable ;
.
:Variable..--LOT
	rdf:type sdtm:Variable ;
.
:Variable..--REASND
	rdf:type sdtm:Variable ;
.
:Variable..--ROUTE
	rdf:type sdtm:Variable ;
.
:Variable..--DECOD
	rdf:type sdtm:Variable ;
.
:Variable..--DOSRGM
	rdf:type sdtm:Variable ;
.
:Variable..--TRT
	rdf:type sdtm:Variable ;
.
:Variable..--DOSTOT
	rdf:type sdtm:Variable ;
.
:Variable..--DOSU
	rdf:type sdtm:Variable ;
.
:Variable..--VAMTU
	rdf:type sdtm:Variable ;
.
:Variable..--CAT
	rdf:type sdtm:Variable ;
.
:Variable..--SCAT
	rdf:type sdtm:Variable ;
.
:Variable..--STAT
	rdf:type sdtm:Variable ;
.
:Variable..--OCCUR
	rdf:type sdtm:Variable ;
.
:Variable..--CLASCD
	rdf:type sdtm:Variable ;
.
:Variable..--PRESP
	rdf:type sdtm:Variable ;
.
:Variable..--DOSFRQ
	rdf:type sdtm:Variable ;
.
:Variable..--TRTV
	rdf:type sdtm:Variable ;
.
:Variable..--ENDY
	rdf:type sdtm:Variable ;
.
:Variable..--STDY
	rdf:type sdtm:Variable ;
.
:Variable..--DY
	rdf:type sdtm:Variable ;
.
:Variable..VISITNUM
	rdf:type sdtm:Variable ;
.
:Variable..--DUR
	rdf:type sdtm:Variable ;
.
:Variable..--DTC
	rdf:type sdtm:Variable ;
.
:Variable..--RFTDTC
	rdf:type sdtm:Variable ;
.
:Variable..--TPTREF
	rdf:type sdtm:Variable ;
.
:Variable..--ENTPT
	rdf:type sdtm:Variable ;
.
:Variable..--STTPT
	rdf:type sdtm:Variable ;
.
:Variable..--ENDTC
	rdf:type sdtm:Variable ;
.
:Variable..EPOCH
	rdf:type sdtm:Variable ;
.
:Variable..--EVLINT
	rdf:type sdtm:Variable ;
.
:Variable..--ENRTPT
	rdf:type sdtm:Variable ;
.
:Variable..--ENRF
	rdf:type sdtm:Variable ;
.
:Variable..--STRTPT
	rdf:type sdtm:Variable ;
.
:Variable..--STRF
	rdf:type sdtm:Variable ;
.
:Variable..TAETORD
	rdf:type sdtm:Variable ;
.
:Variable..--TPTNUM
	rdf:type sdtm:Variable ;
.
:Variable..--ELTM
	rdf:type sdtm:Variable ;
.
:Variable..VISITDY
	rdf:type sdtm:Variable ;
.
:Variable..VISIT
	rdf:type sdtm:Variable ;
.
:Variable..--STDTC
	rdf:type sdtm:Variable ;
.
:Variable..--TPT
	rdf:type sdtm:Variable ;
.
