---
:versions:
- '2008-09-24'
- '2008-09-30'
- '2008-10-09'
- '2008-10-15'
:items:
  :C74561:
    :key: C74561
    :label: Skin Type
    :notation: SKINTYP
    :status:
    - :status: :no_change
    - :status: :no_change
    - :status: :no_change
    - :status: :no_change
  :C66729:
    :key: C66729
    :label: Route of Administration
    :notation: ROUTE
    :status:
    - :status: :no_change
    - :status: :no_change
    - :status: :no_change
    - :status: :no_change
  :C66788:
    :key: C66788
    :label: Dictionary Name
    :notation: DICTNAM
    :status:
    - :status: :no_change
    - :status: :no_change
    - :status: :no_change
    - :status: :no_change
  :C66783:
    :key: C66783
    :label: CDISC System Organ Class
    :notation: SOC
    :status:
    - :status: :no_change
    - :status: :no_change
    - :status: :no_change
    - :status: :no_change
  :C66736:
    :key: C66736
    :label: Trial Indication Type
    :notation: TINDTP
    :status:
    - :status: :no_change
    - :status: :no_change
    - :status: :no_change
    - :status: :no_change
  :C71150:
    :key: C71150
    :label: ECG Result
    :notation: EGSTRESC
    :status:
    - :status: :no_change
    - :status: :no_change
    - :status: :no_change
    - :status: :no_change
  :C67153:
    :key: C67153
    :label: Vital Signs Test Name
    :notation: VSTEST
    :status:
    - :status: :no_change
    - :status: :no_change
    - :status: :no_change
    - :status: :no_change
  :C74560:
    :key: C74560
    :label: Skin Classification
    :notation: SKINCLAS
    :status:
    - :status: :deleted
    - &1
      :status: :not_present
    - *1
    - *1
  :C66728:
    :key: C66728
    :label: Relation to Reference Period
    :notation: STENRF
    :status:
    - :status: :no_change
    - :status: :no_change
    - :status: :no_change
    - :status: :no_change
  :C66770:
    :key: C66770
    :label: Units for Vital Signs Results
    :notation: VSRESU
    :status:
    - :status: :no_change
    - :status: :no_change
    - :status: :no_change
    - :status: :no_change
  :C66787:
    :key: C66787
    :label: Diagnosis Group
    :notation: TDIGRP
    :status:
    - :status: :no_change
    - :status: :no_change
    - :status: :no_change
    - :status: :no_change
  :C66797:
    :key: C66797
    :label: Category for Inclusion/Exclusion
    :notation: IECAT
    :status:
    - :status: :no_change
    - :status: :no_change
    - :status: :no_change
    - :status: :updated
  :C66735:
    :key: C66735
    :label: Trial Blinding Schema
    :notation: TBLIND
    :status:
    - :status: :no_change
    - :status: :no_change
    - :status: :no_change
    - :status: :no_change
  :C71148:
    :key: C71148
    :label: Position
    :notation: POSITION
    :status:
    - :status: :no_change
    - :status: :no_change
    - :status: :no_change
    - :status: :no_change
  :C66741:
    :key: C66741
    :label: Vital Signs Test Code
    :notation: VSTESTCD
    :status:
    - :status: :no_change
    - :status: :no_change
    - :status: :no_change
    - :status: :no_change
  :C74558:
    :key: C74558
    :label: Category for Disposition Event
    :notation: DSCAT
    :status:
    - :status: :no_change
    - :status: :no_change
    - :status: :no_change
    - :status: :no_change
  :C66727:
    :key: C66727
    :label: Completion/Reason for Non-Completion
    :notation: NCOMPLT
    :status:
    - :status: :no_change
    - :status: :no_change
    - :status: :no_change
    - :status: :no_change
  :C66739:
    :key: C66739
    :label: Trial Type
    :notation: TTYPE
    :status:
    - :status: :no_change
    - :status: :no_change
    - :status: :no_change
    - :status: :no_change
  :C66781:
    :key: C66781
    :label: Age Unit
    :notation: AGEU
    :status:
    - :status: :no_change
    - :status: :no_change
    - :status: :no_change
    - :status: :updated
  :C66734:
    :key: C66734
    :label: Domain Abbreviation
    :notation: DOMAIN
    :status:
    - :status: :no_change
    - :status: :no_change
    - :status: :no_change
    - :status: :no_change
  :C71113:
    :key: C71113
    :label: Frequency
    :notation: FREQ
    :status:
    - :status: :no_change
    - :status: :no_change
    - :status: :no_change
    - :status: :no_change
  :C74456:
    :key: C74456
    :label: Anatomical Location
    :notation: LOC
    :status:
    - :status: :no_change
    - :status: :no_change
    - :status: :no_change
    - :status: :no_change
  :C66726:
    :key: C66726
    :label: Pharmaceutical Dosage Form
    :notation: FRM
    :status:
    - :status: :no_change
    - :status: :no_change
    - :status: :no_change
    - :status: :updated
  :C66786:
    :key: C66786
    :label: Country
    :notation: COUNTRY
    :status:
    - :status: :no_change
    - :status: :no_change
    - :status: :no_change
    - :status: :no_change
  :C67152:
    :key: C67152
    :label: Trial Summary Parameter Test Name
    :notation: TSPARM
    :status:
    - :status: :no_change
    - :status: :no_change
    - :status: :no_change
    - :status: :no_change
  :C74559:
    :key: C74559
    :label: Subject Characteristic Code
    :notation: SCCD
    :status:
    - :status: :updated
    - :status: :no_change
    - :status: :no_change
    - :status: :no_change
  :C66784:
    :key: C66784
    :label: Common Terminology Criteria for Adverse Events
    :notation: TOXGR
    :status:
    - :status: :no_change
    - :status: :no_change
    - :status: :no_change
    - :status: :updated
  :C66789:
    :key: C66789
    :label: Not Done
    :notation: ND
    :status:
    - :status: :no_change
    - :status: :no_change
    - :status: :no_change
    - :status: :updated
  :C66737:
    :key: C66737
    :label: Trial Phase
    :notation: TPHASE
    :status:
    - :status: :no_change
    - :status: :no_change
    - :status: :no_change
    - :status: :no_change
  :C66768:
    :key: C66768
    :label: Outcome of Event
    :notation: OUT
    :status:
    - :status: :no_change
    - :status: :no_change
    - :status: :no_change
    - :status: :no_change
  :C71151:
    :key: C71151
    :label: ECG Test Method
    :notation: EGMETHOD
    :status:
    - :status: :no_change
    - :status: :no_change
    - :status: :no_change
    - :status: :no_change
  :C66742:
    :key: C66742
    :label: No Yes Response
    :notation: NY
    :status:
    - :status: :no_change
    - :status: :no_change
    - :status: :no_change
    - :status: :no_change
  :C25188:
    :key: C25188
    :label: Marital Status
    :notation: MARISTAT
    :status:
    - :status: :deleted
    - *1
    - *1
    - *1
  :C66785:
    :key: C66785
    :label: Control Type
    :notation: TCNTRL
    :status:
    - :status: :no_change
    - :status: :no_change
    - :status: :no_change
    - :status: :no_change
  :C66733:
    :key: C66733
    :label: Size
    :notation: SIZE
    :status:
    - :status: :no_change
    - :status: :no_change
    - :status: :no_change
    - :status: :no_change
  :C67154:
    :key: C67154
    :label: Laboratory Test Name
    :notation: LBTEST
    :status:
    - :status: :no_change
    - :status: :no_change
    - :status: :no_change
    - :status: :no_change
  :C71153:
    :key: C71153
    :label: ECG Test Code
    :notation: EGTESTCD
    :status:
    - :status: :no_change
    - :status: :no_change
    - :status: :no_change
    - :status: :no_change
  :C66738:
    :key: C66738
    :label: Trial Summary Parameter Test Code
    :notation: TSPARMCD
    :status:
    - :status: :no_change
    - :status: :no_change
    - :status: :no_change
    - :status: :no_change
  :C66780:
    :key: C66780
    :label: Age Span
    :notation: AGESPAN
    :status:
    - :status: :no_change
    - :status: :no_change
    - :status: :no_change
    - :status: :updated
  :C66769:
    :key: C66769
    :label: Severity/Intensity Scale for Adverse Events
    :notation: AESEV
    :status:
    - :status: :no_change
    - :status: :no_change
    - :status: :no_change
    - :status: :no_change
  :C66767:
    :key: C66767
    :label: Action Taken with Study Treatment
    :notation: ACN
    :status:
    - :status: :no_change
    - :status: :no_change
    - :status: :no_change
    - :status: :no_change
  :C66790:
    :key: C66790
    :label: Patient Ethnic Group
    :notation: ETHNIC
    :status:
    - :status: :no_change
    - :status: :no_change
    - :status: :no_change
    - :status: :updated
  :C66732:
    :key: C66732
    :label: Sex of Participants
    :notation: SEXPOP
    :status:
    - :status: :no_change
    - :status: :no_change
    - :status: :no_change
    - :status: :no_change
  :C65047:
    :key: C65047
    :label: Laboratory Test Code
    :notation: LBTESTCD
    :status:
    - :status: :no_change
    - :status: :no_change
    - :status: :no_change
    - :status: :no_change
  :C71152:
    :key: C71152
    :label: ECG Test Name
    :notation: EGTEST
    :status:
    - :status: :no_change
    - :status: :no_change
    - :status: :no_change
    - :status: :no_change
  :C71620:
    :key: C71620
    :label: Unit
    :notation: UNIT
    :status:
    - :status: :no_change
    - :status: :updated
    - :status: :no_change
    - :status: :no_change
  :C66731:
    :key: C66731
    :label: Sex
    :notation: SEX
    :status:
    - :status: :no_change
    - :status: :no_change
    - :status: :no_change
    - :status: :no_change
  :C76348:
    :key: C76348
    :label: Marital Status
    :notation: MARISTAT
    :status:
    - :status: :created
    - :status: :no_change
    - :status: :no_change
    - :status: :no_change
  :C74457:
    :key: C74457
    :label: Race
    :notation: RACE
    :status:
    - :status: :created
    - :status: :no_change
    - :status: :no_change
    - :status: :no_change
  :C76351:
    :key: C76351
    :label: Skin Classification
    :notation: SKINCLAS
    :status:
    - :status: :created
    - :status: :no_change
    - :status: :no_change
    - :status: :no_change
