---
- :uri: http://www.cdisc.org/BDS/V1#ADS_AVSTUDYID
  :ordinal: 1
  :rdf_type: http://www.assero.co.uk/Tabulation#ADaMDatasetVariable
  :label: Study Identifier
  :name: STUDYID
  :ct: ''
  :notes: SDTM DM.STUDYID
  :compliance: ''
  :typed_as: Character
- :uri: http://www.cdisc.org/BDS/V1#ADS_AVUSUBJID
  :ordinal: 2
  :rdf_type: http://www.assero.co.uk/Tabulation#ADaMDatasetVariable
  :label: Unique Subject Identifier
  :name: USUBJID
  :ct: ''
  :notes: SDTM DM.USUBJID
  :compliance: ''
  :typed_as: Character
- :uri: http://www.cdisc.org/BDS/V1#ADS_AVSUBJID
  :ordinal: 3
  :rdf_type: http://www.assero.co.uk/Tabulation#ADaMDatasetVariable
  :label: Subject Identifier for the Study
  :name: SUBJID
  :ct: ''
  :notes: SDTM DM.SUBJID. SUBJID is required in ADSL, but permissible in other datasets.
  :compliance: ''
  :typed_as: Character
- :uri: http://www.cdisc.org/BDS/V1#ADS_AVSITEID
  :ordinal: 4
  :rdf_type: http://www.assero.co.uk/Tabulation#ADaMDatasetVariable
  :label: Study Site Identifier
  :name: SITEID
  :ct: ''
  :notes: SDTM DM.SITEID. SITEID is required in ADSL, but permissible in other datasets.
  :compliance: ''
  :typed_as: Character
- :uri: http://www.cdisc.org/BDS/V1#ADS_AVTRTP
  :ordinal: 5
  :rdf_type: http://www.assero.co.uk/Tabulation#ADaMDatasetVariable
  :label: Planned Treatment
  :name: TRTP
  :ct: ''
  :notes: TRTP is a record-level identifier that represents the planned treatment
    attributed to a record for analysis purposes. TRTP indicates how treatment varies
    by record within a subject and enables analysis of crossover and other designs.
    TRTxxP (copied from ADSL) may also be needed for some analysis purposes, and may
    be useful for traceability and to provide context.
  :compliance: ''
  :typed_as: Character
- :uri: http://www.cdisc.org/BDS/V1#ADS_AVTRTPN
  :ordinal: 6
  :rdf_type: http://www.assero.co.uk/Tabulation#ADaMDatasetVariable
  :label: Planned Treatment (N)
  :name: TRTPN
  :ct: ''
  :notes: The numeric code for TRTP. One-to-one map to TRTP.
  :compliance: ''
  :typed_as: Numeric
- :uri: http://www.cdisc.org/BDS/V1#ADS_AVTRTA
  :ordinal: 7
  :rdf_type: http://www.assero.co.uk/Tabulation#ADaMDatasetVariable
  :label: Actual Treatment
  :name: TRTA
  :ct: ''
  :notes: TRTA is a record-level identifier that represents the actual treatment attributed
    to a record for analysis purposes. TRTA indicates how treatment varies by record
    within a subject and enables analysis of crossover and other multi-period designs.
    TRTxxA (copied from ADSL) may also be needed for some analysis purposes, and may
    be useful for traceability and to provide context. TRTA is required when there
    is an analysis of data as treated and at least one subject has any data associated
    with a treatment other than the planned treatment.
  :compliance: ''
  :typed_as: Character
- :uri: http://www.cdisc.org/BDS/V1#ADS_AVTRTAN
  :ordinal: 8
  :rdf_type: http://www.assero.co.uk/Tabulation#ADaMDatasetVariable
  :label: Actual Treatment (N)
  :name: TRTAN
  :ct: ''
  :notes: The numeric code for TRTA. One-to-one map to TRTA.
  :compliance: ''
  :typed_as: Numeric
- :uri: http://www.cdisc.org/BDS/V1#ADS_AVTRTPGy
  :ordinal: 9
  :rdf_type: http://www.assero.co.uk/Tabulation#ADaMDatasetVariable
  :label: Planned Pooled Treatment y
  :name: TRTPGy
  :ct: ''
  :notes: Planned pooled treatment y. 'y' represents an integer [1-9] corresponding
    to a particular pooling scheme. Useful when planned treatments (TRTP) are pooled
    together for analysis, for example when all doses of Drug A (TRTPG1=All doses
    of Drug A) are compared to all doses of Drug B (TRTPG1=All doses of Drug B). Each
    value of TRTP is pooled within at most one value of TRTPGy. May vary by record
    within a subject.
  :compliance: ''
  :typed_as: Character
- :uri: http://www.cdisc.org/BDS/V1#ADS_AVTRTPGyN
  :ordinal: 10
  :rdf_type: http://www.assero.co.uk/Tabulation#ADaMDatasetVariable
  :label: Planned Pooled Treatment y (N)
  :name: TRTPGyN
  :ct: ''
  :notes: The numeric code for TRTPGy. One-to-one map to TRTPGy.
  :compliance: ''
  :typed_as: Numeric
- :uri: http://www.cdisc.org/BDS/V1#ADS_AVTRTAGy
  :ordinal: 11
  :rdf_type: http://www.assero.co.uk/Tabulation#ADaMDatasetVariable
  :label: Actual Pooled Treatment y
  :name: TRTAGy
  :ct: ''
  :notes: Actual pooled treatment y. 'y' represents an integer [1-9] corresponding
    to a particular pooling scheme. Required when TRTPGy is present and TRTA is present.
    May vary by record within a subject.
  :compliance: ''
  :typed_as: Character
- :uri: http://www.cdisc.org/BDS/V1#ADS_AVTRTAGyN
  :ordinal: 12
  :rdf_type: http://www.assero.co.uk/Tabulation#ADaMDatasetVariable
  :label: Actual Pooled Treatment y (N)
  :name: TRTAGyN
  :ct: ''
  :notes: The numeric code for TRTAGy. One-to-one map to TRTAGy.
  :compliance: ''
  :typed_as: Numeric
- :uri: http://www.cdisc.org/BDS/V1#ADS_AVADT
  :ordinal: 13
  :rdf_type: http://www.assero.co.uk/Tabulation#ADaMDatasetVariable
  :label: Analysis Date
  :name: ADT
  :ct: ''
  :notes: The date associated with AVAL and/or AVALC in numeric format.
  :compliance: ''
  :typed_as: Numeric
- :uri: http://www.cdisc.org/BDS/V1#ADS_AVATM
  :ordinal: 14
  :rdf_type: http://www.assero.co.uk/Tabulation#ADaMDatasetVariable
  :label: Analysis Time
  :name: ATM
  :ct: ''
  :notes: The time associated with AVAL and/or AVALC in numeric format.
  :compliance: ''
  :typed_as: Numeric
- :uri: http://www.cdisc.org/BDS/V1#ADS_AVADTM
  :ordinal: 15
  :rdf_type: http://www.assero.co.uk/Tabulation#ADaMDatasetVariable
  :label: Analysis Date/Time
  :name: ADTM
  :ct: ''
  :notes: The date/time associated with AVAL and/or AVALC in numeric format.
  :compliance: ''
  :typed_as: Numeric
- :uri: http://www.cdisc.org/BDS/V1#ADS_AVADY
  :ordinal: 16
  :rdf_type: http://www.assero.co.uk/Tabulation#ADaMDatasetVariable
  :label: Analysis Relative Day
  :name: ADY
  :ct: ''
  :notes: The relative day of AVAL and/or AVALC. The number of days from a reference
    date (not necessarily DM.RFSTDTC) to ADT. The reference date should be indicated
    in the variable-level metadata for ADY and the reference date should be included
    as a variable in the given analysis dataset or alternatively in ADSL.
  :compliance: ''
  :typed_as: Numeric
- :uri: http://www.cdisc.org/BDS/V1#ADS_AVADTF
  :ordinal: 17
  :rdf_type: http://www.assero.co.uk/Tabulation#ADaMDatasetVariable
  :label: Analysis Date Imputation Flag
  :name: ADTF
  :ct: "(DATEFL)"
  :notes: 'The level of imputation of ADT based on the source SDTM DTC variable. See
    General Timing Variable Convention #6.'
  :compliance: ''
  :typed_as: Character
- :uri: http://www.cdisc.org/BDS/V1#ADS_AVATMF
  :ordinal: 18
  :rdf_type: http://www.assero.co.uk/Tabulation#ADaMDatasetVariable
  :label: Analysis Time Imputation Flag
  :name: ATMF
  :ct: "(TIMEFL)"
  :notes: 'The level of imputation of ATM based on the source SDTM DTC variable. See
    General Timing Variable Convention #7.'
  :compliance: ''
  :typed_as: Character
- :uri: http://www.cdisc.org/BDS/V1#ADS_AVASTDT
  :ordinal: 19
  :rdf_type: http://www.assero.co.uk/Tabulation#ADaMDatasetVariable
  :label: Analysis Start Date
  :name: ASTDT
  :ct: ''
  :notes: The start date associated with AVAL and/or AVALC. ASTDT and AENDT may be
    useful for traceability when AVAL summarizes data collected over an interval of
    time, or when AVAL is a duration.
  :compliance: ''
  :typed_as: Numeric
- :uri: http://www.cdisc.org/BDS/V1#ADS_AVASTTM
  :ordinal: 20
  :rdf_type: http://www.assero.co.uk/Tabulation#ADaMDatasetVariable
  :label: Analysis Start Time
  :name: ASTTM
  :ct: ''
  :notes: The start time associated with AVAL and/or AVALC. ASTTM and AENTM may be
    useful for traceability when AVAL summarizes data collected over an interval of
    time, or when AVAL is a duration.
  :compliance: ''
  :typed_as: Numeric
- :uri: http://www.cdisc.org/BDS/V1#ADS_AVASTDTM
  :ordinal: 21
  :rdf_type: http://www.assero.co.uk/Tabulation#ADaMDatasetVariable
  :label: Analysis Start Date/Time
  :name: ASTDTM
  :ct: ''
  :notes: The start datetime associated with AVAL and/or AVALC. ASTDTM and AENDTM
    may be useful for traceability when AVAL summarizes data collected over an interval
    of time, or when AVAL is a duration.
  :compliance: ''
  :typed_as: Numeric
- :uri: http://www.cdisc.org/BDS/V1#ADS_AVASTDY
  :ordinal: 22
  :rdf_type: http://www.assero.co.uk/Tabulation#ADaMDatasetVariable
  :label: Analysis Start Relative Day
  :name: ASTDY
  :ct: ''
  :notes: The number of days from a reference date (not necessarily DM.RFSTDTC) to
    ASTDT. The reference date variable should be indicated in the variable-level metadata
    for ASTDY and the reference date variable should be included as a variable in
    an analysis dataset (typically, but not necessarily, ADSL).
  :compliance: ''
  :typed_as: Numeric
- :uri: http://www.cdisc.org/BDS/V1#ADS_AVASTDTF
  :ordinal: 23
  :rdf_type: http://www.assero.co.uk/Tabulation#ADaMDatasetVariable
  :label: Analysis Start Date Imputation Flag
  :name: ASTDTF
  :ct: "(DATEFL)"
  :notes: 'The level of imputation of ASTDT based on the source SDTM DTC variable.
    See General Timing Variable Convention #6.'
  :compliance: ''
  :typed_as: Character
- :uri: http://www.cdisc.org/BDS/V1#ADS_AVASTTMF
  :ordinal: 24
  :rdf_type: http://www.assero.co.uk/Tabulation#ADaMDatasetVariable
  :label: Analysis Start Time Imputation Flag
  :name: ASTTMF
  :ct: "(TIMEFL)"
  :notes: 'The level of imputation of ASTTM based on the source SDTM DTC variable.
    See General Timing Variable Convention #7.'
  :compliance: ''
  :typed_as: Character
- :uri: http://www.cdisc.org/BDS/V1#ADS_AVAENDT
  :ordinal: 25
  :rdf_type: http://www.assero.co.uk/Tabulation#ADaMDatasetVariable
  :label: Analysis End Date
  :name: AENDT
  :ct: ''
  :notes: The end date associated with AVAL and/or AVALC. See also ASTDT.
  :compliance: ''
  :typed_as: Numeric
- :uri: http://www.cdisc.org/BDS/V1#ADS_AVAENTM
  :ordinal: 26
  :rdf_type: http://www.assero.co.uk/Tabulation#ADaMDatasetVariable
  :label: Analysis End Time
  :name: AENTM
  :ct: ''
  :notes: The end time associated with AVAL and/or AVALC. See also ASTTM.
  :compliance: ''
  :typed_as: Numeric
- :uri: http://www.cdisc.org/BDS/V1#ADS_AVAENDTM
  :ordinal: 27
  :rdf_type: http://www.assero.co.uk/Tabulation#ADaMDatasetVariable
  :label: Analysis End Date/Time
  :name: AENDTM
  :ct: ''
  :notes: The end datetime associated with AVAL and/or AVALC. See also ASTDTM.
  :compliance: ''
  :typed_as: Numeric
- :uri: http://www.cdisc.org/BDS/V1#ADS_AVAENDY
  :ordinal: 28
  :rdf_type: http://www.assero.co.uk/Tabulation#ADaMDatasetVariable
  :label: Analysis End Relative Day
  :name: AENDY
  :ct: ''
  :notes: The number of days from a reference date (not necessarily DM.RFSTDTC) to
    AENDT. See also ASTDY.
  :compliance: ''
  :typed_as: Numeric
- :uri: http://www.cdisc.org/BDS/V1#ADS_AVAENDTF
  :ordinal: 29
  :rdf_type: http://www.assero.co.uk/Tabulation#ADaMDatasetVariable
  :label: Analysis End Date Imputation Flag
  :name: AENDTF
  :ct: "(DATEFL)"
  :notes: 'The level of imputation of AENDT based on the source SDTM DTC variable.
    See General Timing Variable Convention #6.'
  :compliance: ''
  :typed_as: Character
- :uri: http://www.cdisc.org/BDS/V1#ADS_AVAENTMF
  :ordinal: 30
  :rdf_type: http://www.assero.co.uk/Tabulation#ADaMDatasetVariable
  :label: Analysis End Time Imputation Flag
  :name: AENTMF
  :ct: "(TIMEFL)"
  :notes: 'The level of imputation of AENTM based on the source SDTM DTC variable.
    See General Timing Variable Convention #7.'
  :compliance: ''
  :typed_as: Character
- :uri: http://www.cdisc.org/BDS/V1#ADS_AVAVISIT
  :ordinal: 31
  :rdf_type: http://www.assero.co.uk/Tabulation#ADaMDatasetVariable
  :label: Analysis Visit
  :name: AVISIT
  :ct: ''
  :notes: AVISIT may contain the visit names as observe d (i.e., from SDTM VISIT),
    derived visit names, time window names, conceptual descriptions (such as Average,
    Endpoint, etc.), or a combination of any of these. AVISIT is a derived field and
    does not have to map to VISIT from the SDTM. AVISIT represents the analysis visit
    of the record, but it does not mean that the record was analyzed. There are often
    multiple records for the same subject and parameter that have the same value of
    AVISIT. ANLzzFL and other variables may be needed to identify the records selected
    for any given analysis. See Section 3.2.6 for metadata about flag variables. AVISIT
    should be unique for a given analysis visit window. In the event that a record
    does not fall within any predefined analysis timepoint window, AVISIT can be populated
    in any way that the sponsor chooses to indicate this fact (i.e., blank or 'Not
    Windowed'). The way that AVISIT is calculated, including the variables used in
    its derivation, should be indicated in the variable metadata for AVISIT. The values
    and the rules for deriving AVISIT may be different for different parameters within
    the same dataset. Values of AVISIT are sponsor-defined, and are often directly
    usable in Clinical Study Report displays.
  :compliance: ''
  :typed_as: Character
- :uri: http://www.cdisc.org/BDS/V1#ADS_AVAVISITN
  :ordinal: 32
  :rdf_type: http://www.assero.co.uk/Tabulation#ADaMDatasetVariable
  :label: Analysis Visit (N)
  :name: AVISITN
  :ct: ''
  :notes: A numeric representation of AVISIT. This may be a protocol visit number,
    a week or cycle number, an analysis visit number, or any other number logically
    related to AVISIT or useful for sorting that is needed for analysis. Within a
    parameter, there is a one-to-one mapping between AVISITN and AVISIT so that AVISITN
    has the same value for each distinct AVISIT. In the event that a record does not
    fall within any predefined analysis timepoint window, AVISITN can be populated
    in any way that the sponsor chooses to indicate this fact (e.g., may be null).
    Values of AVISITN are sponsor-defined.
  :compliance: ''
  :typed_as: Numeric
- :uri: http://www.cdisc.org/BDS/V1#ADS_AVATPT
  :ordinal: 33
  :rdf_type: http://www.assero.co.uk/Tabulation#ADaMDatasetVariable
  :label: Analysis Timepoint
  :name: ATPT
  :ct: ''
  :notes: The analysis time point description which is required if analysis times
    are derived. Timepoints are relative to ATPTREF. ATPT can be within an analysis
    visit (e.g., blood pressure assessments at 10 min, 20 min, and 30 min post-dose
    at AVISIT=Week 1) or can be unrelated to AVISIT (e.g., migraine symptoms 30 min,
    60 min, and 120 min post-dose for attack 1).
  :compliance: ''
  :typed_as: Character
- :uri: http://www.cdisc.org/BDS/V1#ADS_AVATPTN
  :ordinal: 34
  :rdf_type: http://www.assero.co.uk/Tabulation#ADaMDatasetVariable
  :label: Analysis Timepoint (N)
  :name: ATPTN
  :ct: ''
  :notes: ATPTN provides a numeric representation of ATPT. Within the same parameter,
    there is a one-to-one mapping between ATPT and ATPTN.
  :compliance: ''
  :typed_as: Numeric
- :uri: http://www.cdisc.org/BDS/V1#ADS_AVATPTREF
  :ordinal: 35
  :rdf_type: http://www.assero.co.uk/Tabulation#ADaMDatasetVariable
  :label: Analysis Timepoint Reference
  :name: ATPTREF
  :ct: ''
  :notes: Description of the fixed reference point referred to by ATPT/ATPTN.
  :compliance: ''
  :typed_as: Character
- :uri: http://www.cdisc.org/BDS/V1#ADS_AVAPERIOD
  :ordinal: 36
  :rdf_type: http://www.assero.co.uk/Tabulation#ADaMDatasetVariable
  :label: Period
  :name: APERIOD
  :ct: ''
  :notes: The numeric value characterizing the period to which the record belongs.
    The value of APERIOD must be consistent with the xx value in TRTxxP, TRTxxA, and
    all variables whose names begin with TRxx and APxx.
  :compliance: ''
  :typed_as: Numeric
- :uri: http://www.cdisc.org/BDS/V1#ADS_AVAPERIODC
  :ordinal: 37
  :rdf_type: http://www.assero.co.uk/Tabulation#ADaMDatasetVariable
  :label: Period (C)
  :name: APERIODC
  :ct: ''
  :notes: Text characterizing to which period the record belongs. One-to-one map to
    APERIOD.
  :compliance: ''
  :typed_as: Character
- :uri: http://www.cdisc.org/BDS/V1#ADS_AVAPHASE
  :ordinal: 38
  :rdf_type: http://www.assero.co.uk/Tabulation#ADaMDatasetVariable
  :label: Phase
  :name: APHASE
  :ct: ''
  :notes: Generally, a higher-level categorization of APERIOD. Does not replace APERIOD,
    because APERIOD provides the indexing for the TRxx and APxx variables.
  :compliance: ''
  :typed_as: Character
- :uri: http://www.cdisc.org/BDS/V1#ADS_AVARELTM
  :ordinal: 39
  :rdf_type: http://www.assero.co.uk/Tabulation#ADaMDatasetVariable
  :label: Analysis Relative Time
  :name: ARELTM
  :ct: ''
  :notes: The time relative to an anchor time. When ARELTM is present, the anchor
    time variable and ARELTMU must also be included in the dataset, and the anchor
    time variable must be identified in the metadata for ARELTM.
  :compliance: ''
  :typed_as: Numeric
- :uri: http://www.cdisc.org/BDS/V1#ADS_AVARELTMU
  :ordinal: 40
  :rdf_type: http://www.assero.co.uk/Tabulation#ADaMDatasetVariable
  :label: Analysis Relative Time Unit
  :name: ARELTMU
  :ct: ''
  :notes: The units of ARELTM. For example, 'HOURS' or 'MINUTES.' ARELTMU is required
    if ARELTM is present.
  :compliance: ''
  :typed_as: Character
- :uri: http://www.cdisc.org/BDS/V1#ADS_AVAPERSDT
  :ordinal: 41
  :rdf_type: http://www.assero.co.uk/Tabulation#ADaMDatasetVariable
  :label: Period Start Date
  :name: APERSDT
  :ct: ''
  :notes: The starting date for the period defined by APERIOD.
  :compliance: ''
  :typed_as: Numeric
- :uri: http://www.cdisc.org/BDS/V1#ADS_AVAPERSTM
  :ordinal: 42
  :rdf_type: http://www.assero.co.uk/Tabulation#ADaMDatasetVariable
  :label: Period Start Time
  :name: APERSTM
  :ct: ''
  :notes: The starting time for the period defined by APERIOD.
  :compliance: ''
  :typed_as: Numeric
- :uri: http://www.cdisc.org/BDS/V1#ADS_AVAPERSDTM
  :ordinal: 43
  :rdf_type: http://www.assero.co.uk/Tabulation#ADaMDatasetVariable
  :label: Period Start Date/Time
  :name: APERSDTM
  :ct: ''
  :notes: The starting datetime for the period defined by APERIOD.
  :compliance: ''
  :typed_as: Numeric
- :uri: http://www.cdisc.org/BDS/V1#ADS_AVAPERSDTF
  :ordinal: 44
  :rdf_type: http://www.assero.co.uk/Tabulation#ADaMDatasetVariable
  :label: Period Start Date Imput. Flag
  :name: APERSDTF
  :ct: "(DATEFL)"
  :notes: 'The level of imputation of APERSDT based on the source SDTM DTC variable.
    See General Timing Variable Convention #6.'
  :compliance: ''
  :typed_as: Character
- :uri: http://www.cdisc.org/BDS/V1#ADS_AVAPERSTMF
  :ordinal: 45
  :rdf_type: http://www.assero.co.uk/Tabulation#ADaMDatasetVariable
  :label: Period Start Time Imput. Flag
  :name: APERSTMF
  :ct: "(TIMEFL)"
  :notes: 'The level of imputation of APERSTM based on the source SDTM DTC variable.
    See General Timing Variable Convention #7.'
  :compliance: ''
  :typed_as: Character
- :uri: http://www.cdisc.org/BDS/V1#ADS_AVAPEREDT
  :ordinal: 46
  :rdf_type: http://www.assero.co.uk/Tabulation#ADaMDatasetVariable
  :label: Period End Date
  :name: APEREDT
  :ct: ''
  :notes: The ending date for the period defined by APERIOD.
  :compliance: ''
  :typed_as: Numeric
- :uri: http://www.cdisc.org/BDS/V1#ADS_AVAPERETM
  :ordinal: 47
  :rdf_type: http://www.assero.co.uk/Tabulation#ADaMDatasetVariable
  :label: Period End Time
  :name: APERETM
  :ct: ''
  :notes: The ending time for the period defined by APERIOD.
  :compliance: ''
  :typed_as: Numeric
- :uri: http://www.cdisc.org/BDS/V1#ADS_AVAPEREDTM
  :ordinal: 48
  :rdf_type: http://www.assero.co.uk/Tabulation#ADaMDatasetVariable
  :label: Period End Date/Time
  :name: APEREDTM
  :ct: ''
  :notes: The ending datetime for the period defined by APERIOD.
  :compliance: ''
  :typed_as: Numeric
- :uri: http://www.cdisc.org/BDS/V1#ADS_AVAPEREDTF
  :ordinal: 49
  :rdf_type: http://www.assero.co.uk/Tabulation#ADaMDatasetVariable
  :label: Period End Date Imput. Flag
  :name: APEREDTF
  :ct: "(DATEFL)"
  :notes: 'The level of imputation of APEREDT based on the source SDTM DTC variable.
    See General Timing Variable Convention #6.'
  :compliance: ''
  :typed_as: Character
- :uri: http://www.cdisc.org/BDS/V1#ADS_AVAPERETMF
  :ordinal: 50
  :rdf_type: http://www.assero.co.uk/Tabulation#ADaMDatasetVariable
  :label: Period End Time Imput. Flag
  :name: APERETMF
  :ct: "(TIMEFL)"
  :notes: 'The level of imputation of APERETM based on the source SDTM DTC variable.
    See General Timing Variable Convention #7.'
  :compliance: ''
  :typed_as: Character
- :uri: http://www.cdisc.org/BDS/V1#ADS_AVsDT
  :ordinal: 51
  :rdf_type: http://www.assero.co.uk/Tabulation#ADaMDatasetVariable
  :label: Date of
  :name: sDT
  :ct: ''
  :notes: Analysis date not directly characterizing AVAL and/or AVALC in numeric format.
  :compliance: ''
  :typed_as: Numeric
- :uri: http://www.cdisc.org/BDS/V1#ADS_AVsTM
  :ordinal: 52
  :rdf_type: http://www.assero.co.uk/Tabulation#ADaMDatasetVariable
  :label: Time of
  :name: sTM
  :ct: ''
  :notes: Analysis time not directly characterizing AVAL and/or AVALC in numeric format.
  :compliance: ''
  :typed_as: Numeric
- :uri: http://www.cdisc.org/BDS/V1#ADS_AVsDTM
  :ordinal: 53
  :rdf_type: http://www.assero.co.uk/Tabulation#ADaMDatasetVariable
  :label: Date/Time of
  :name: sDTM
  :ct: ''
  :notes: Analysis date/time not directly characterizing AVAL and/or AVALC in numeric
    format.
  :compliance: ''
  :typed_as: Numeric
- :uri: http://www.cdisc.org/BDS/V1#ADS_AVsADY
  :ordinal: 54
  :rdf_type: http://www.assero.co.uk/Tabulation#ADaMDatasetVariable
  :label: Relative Day of
  :name: sADY
  :ct: ''
  :notes: Analysis relative day not directly characterizing AVAL and/or AVALC.
  :compliance: ''
  :typed_as: Numeric
- :uri: http://www.cdisc.org/BDS/V1#ADS_AVsDTF
  :ordinal: 55
  :rdf_type: http://www.assero.co.uk/Tabulation#ADaMDatasetVariable
  :label: Date Imputation Qual of
  :name: sDTF
  :ct: "(DATEFL)"
  :notes: 'The level of imputation of *DT based on the source SDTM DTC variable. See
    General Timing Variable Convention #6.'
  :compliance: ''
  :typed_as: Character
- :uri: http://www.cdisc.org/BDS/V1#ADS_AVsTMF
  :ordinal: 56
  :rdf_type: http://www.assero.co.uk/Tabulation#ADaMDatasetVariable
  :label: Time Imputation Flag of
  :name: sTMF
  :ct: "(TIMEFL)"
  :notes: 'The level of imputation of *TM based on the source SDTM DTC variable. See
    General Timing Variable Convention #7.'
  :compliance: ''
  :typed_as: Character
- :uri: http://www.cdisc.org/BDS/V1#ADS_AVsSDT
  :ordinal: 57
  :rdf_type: http://www.assero.co.uk/Tabulation#ADaMDatasetVariable
  :label: Start Date of
  :name: sSDT
  :ct: ''
  :notes: Starting analysis date not directly characterizing AVAL and/or AVALC in
    numeric format.
  :compliance: ''
  :typed_as: Numeric
- :uri: http://www.cdisc.org/BDS/V1#ADS_AVsSTM
  :ordinal: 58
  :rdf_type: http://www.assero.co.uk/Tabulation#ADaMDatasetVariable
  :label: Start Time of
  :name: sSTM
  :ct: ''
  :notes: Starting analysis time not directly characterizing AVAL and/or AVALC in
    numeric format.
  :compliance: ''
  :typed_as: Numeric
- :uri: http://www.cdisc.org/BDS/V1#ADS_AVsSDTM
  :ordinal: 59
  :rdf_type: http://www.assero.co.uk/Tabulation#ADaMDatasetVariable
  :label: Start Date/Time of
  :name: sSDTM
  :ct: ''
  :notes: Starting analysis date/time not directly characterizing AVAL and/or AVALC
    in numeric format.
  :compliance: ''
  :typed_as: Numeric
- :uri: http://www.cdisc.org/BDS/V1#ADS_AVsSDY
  :ordinal: 60
  :rdf_type: http://www.assero.co.uk/Tabulation#ADaMDatasetVariable
  :label: Relative Start Day of
  :name: sSDY
  :ct: ''
  :notes: Starting analysis relative day not directly characterizing AVAL and/or AVALC.
  :compliance: ''
  :typed_as: Numeric
- :uri: http://www.cdisc.org/BDS/V1#ADS_AVsSDTF
  :ordinal: 61
  :rdf_type: http://www.assero.co.uk/Tabulation#ADaMDatasetVariable
  :label: Start Date Imputation Flag of
  :name: sSDTF
  :ct: "(DATEFL)"
  :notes: 'The level of imputation of *SDT based on the source SDTM DTC variable.
    See General Timing Variable Convention #6.'
  :compliance: ''
  :typed_as: Character
- :uri: http://www.cdisc.org/BDS/V1#ADS_AVsSTMF
  :ordinal: 62
  :rdf_type: http://www.assero.co.uk/Tabulation#ADaMDatasetVariable
  :label: Start Time Imputation Qual of
  :name: sSTMF
  :ct: "(TIMEFL)"
  :notes: 'The level of imputation of *STM based on the source SDTM DTC variable.
    See General Timing Variable Convention #7.'
  :compliance: ''
  :typed_as: Character
- :uri: http://www.cdisc.org/BDS/V1#ADS_AVsEDT
  :ordinal: 63
  :rdf_type: http://www.assero.co.uk/Tabulation#ADaMDatasetVariable
  :label: End Date of
  :name: sEDT
  :ct: ''
  :notes: Ending analysis date not directly characterizing AVAL and/or AVALC in numeric
    format.
  :compliance: ''
  :typed_as: Numeric
- :uri: http://www.cdisc.org/BDS/V1#ADS_AVsETM
  :ordinal: 64
  :rdf_type: http://www.assero.co.uk/Tabulation#ADaMDatasetVariable
  :label: End Time of
  :name: sETM
  :ct: ''
  :notes: Ending analysis time not directly characterizing AVAL and/or AVALC in numeric
    format.
  :compliance: ''
  :typed_as: Numeric
- :uri: http://www.cdisc.org/BDS/V1#ADS_AVsEDTM
  :ordinal: 65
  :rdf_type: http://www.assero.co.uk/Tabulation#ADaMDatasetVariable
  :label: End Date/Time of
  :name: sEDTM
  :ct: ''
  :notes: Ending analysis date/time not directly characterizing AVAL and/or AVALC
    in numeric format.
  :compliance: ''
  :typed_as: Numeric
- :uri: http://www.cdisc.org/BDS/V1#ADS_AVsEDY
  :ordinal: 66
  :rdf_type: http://www.assero.co.uk/Tabulation#ADaMDatasetVariable
  :label: Relative End Day of
  :name: sEDY
  :ct: ''
  :notes: Ending analysis relative day not directly characterizing AVAL and/or AVALC.
  :compliance: ''
  :typed_as: Numeric
- :uri: http://www.cdisc.org/BDS/V1#ADS_AVsEDTF
  :ordinal: 67
  :rdf_type: http://www.assero.co.uk/Tabulation#ADaMDatasetVariable
  :label: End Date Imputation Flag of
  :name: sEDTF
  :ct: "(DATEFL)"
  :notes: 'The level of imputation of *EDT based on the source SDTM DTC variable.
    See General Timing Variable Convention #6.'
  :compliance: ''
  :typed_as: Character
- :uri: http://www.cdisc.org/BDS/V1#ADS_AVsETMF
  :ordinal: 68
  :rdf_type: http://www.assero.co.uk/Tabulation#ADaMDatasetVariable
  :label: End Time Imputation Flag of
  :name: sETMF
  :ct: "(TIMEFL)"
  :notes: 'The level of imputation of *ETM based on the source SDTM DTC variable.
    See General Timing Variable Convention #7.'
  :compliance: ''
  :typed_as: Character
- :uri: http://www.cdisc.org/BDS/V1#ADS_AVPARAM
  :ordinal: 69
  :rdf_type: http://www.assero.co.uk/Tabulation#ADaMDatasetVariable
  :label: Parameter
  :name: PARAM
  :ct: ''
  :notes: 'The description of the analysis parameter. Examples include: ''Supine Systolic
    Blood Pressure (mm Hg)'', ''Log10 (Weight (kg))'', ''Time to First Hypertension
    Event (Days)'', ''Estimated Tumor Growth Rate'', etc. PARAM should be sufficient
    to describe unambiguously the contents of AVAL and/or AVALC. PARAM must include
    test, units (if appropriate), specimen type, location, position, and any other
    applicable qualifying information needed, any additional information such as transformation
    function, and indeed any text that is needed. PARAM may be longer than 40 characters
    in length. PARAM is often directly usable in Clinical Study Report displays. Note
    that in the ADaMIG, ''parameter'' is a synonym of ''analysis parameter.'''
  :compliance: ''
  :typed_as: Character
- :uri: http://www.cdisc.org/BDS/V1#ADS_AVPARAMCD
  :ordinal: 70
  :rdf_type: http://www.assero.co.uk/Tabulation#ADaMDatasetVariable
  :label: Parameter Code
  :name: PARAMCD
  :ct: ''
  :notes: 'The short name of the analysis parameter in PARAM. Values of PARAMCD should
    follow SAS 5 variable naming conventions (8 characters or less; starts with a
    letter; contains only letters and digits). There must be a one-to-one mapping
    with PARAM. Examples: SYSBP, LWEIGHT, HYPEREVT.'
  :compliance: ''
  :typed_as: Character
- :uri: http://www.cdisc.org/BDS/V1#ADS_AVPARAMN
  :ordinal: 71
  :rdf_type: http://www.assero.co.uk/Tabulation#ADaMDatasetVariable
  :label: Parameter (N)
  :name: PARAMN
  :ct: ''
  :notes: Useful for ordering and programmatic manipulation. There must be a one-to-one
    mapping with PARAM. Must be an integer.
  :compliance: ''
  :typed_as: Numeric
- :uri: http://www.cdisc.org/BDS/V1#ADS_AVPARAMTYP
  :ordinal: 72
  :rdf_type: http://www.assero.co.uk/Tabulation#ADaMDatasetVariable
  :label: Parameter Type
  :name: PARAMTYP
  :ct: "(PARAMTYP)"
  :notes: Indicator of whether the parameter is derived as a function of one or more
    other parameters. This should not be confused with DTYPE which is relevant to
    derived AVAL and/or AVALC values.
  :compliance: ''
  :typed_as: Character
- :uri: http://www.cdisc.org/BDS/V1#ADS_AVPARCATy
  :ordinal: 73
  :rdf_type: http://www.assero.co.uk/Tabulation#ADaMDatasetVariable
  :label: Parameter Category y
  :name: PARCATy
  :ct: ''
  :notes: A categorization of PARAM. For example, value of PARCAT1 might group the
    parameters having to do with a particular questionnaire, lab specimen type, or
    area of investigation.
  :compliance: ''
  :typed_as: Character
- :uri: http://www.cdisc.org/BDS/V1#ADS_AVPARCATyN
  :ordinal: 74
  :rdf_type: http://www.assero.co.uk/Tabulation#ADaMDatasetVariable
  :label: Parameter Category y (N)
  :name: PARCATyN
  :ct: ''
  :notes: A numeric representation of PARCATy. This can be used for operations on
    PARCATy. There should be a one to one relationship between PARCATy and PARCATyN.
  :compliance: ''
  :typed_as: Numeric
- :uri: http://www.cdisc.org/BDS/V1#ADS_AVAVAL
  :ordinal: 75
  :rdf_type: http://www.assero.co.uk/Tabulation#ADaMDatasetVariable
  :label: Analysis Value
  :name: AVAL
  :ct: ''
  :notes: Numeric analysis value described by PARAM.
  :compliance: ''
  :typed_as: Numeric
- :uri: http://www.cdisc.org/BDS/V1#ADS_AVAVALC
  :ordinal: 76
  :rdf_type: http://www.assero.co.uk/Tabulation#ADaMDatasetVariable
  :label: Analysis Value (C)
  :name: AVALC
  :ct: ''
  :notes: Character analysis value described by PARAM. AVALC can be a character string
    mapping to AVAL, but if so there must be a one-to-one map between AVAL and AVALC
    within a given PARAM. AVALC should not be used to categorize the values of AVAL.
  :compliance: ''
  :typed_as: Character
- :uri: http://www.cdisc.org/BDS/V1#ADS_AVAVALCATy
  :ordinal: 77
  :rdf_type: http://www.assero.co.uk/Tabulation#ADaMDatasetVariable
  :label: Analysis Category y
  :name: AVALCATy
  :ct: ''
  :notes: A categorical representation of AVAL and/or AVALC. Not necessarily a one-to-one
    mapping to AVAL and/or AVALC. For example, if PARAM is 'Headache Severity' and
    AVAL has values 0, 1, 2, or 3, AVALCAT1 can categorize AVAL into 'None or Mild'
    (for AVAL 1 or 2) and 'Moderate or Severe' (for AVAL 3 or 4)
  :compliance: ''
  :typed_as: Character
- :uri: http://www.cdisc.org/BDS/V1#ADS_AVBASE
  :ordinal: 78
  :rdf_type: http://www.assero.co.uk/Tabulation#ADaMDatasetVariable
  :label: Baseline Value
  :name: BASE
  :ct: ''
  :notes: Baseline analysis value. Required if dataset supports analysis or review
    of baseline value or functions of baseline value. A baseline record may be derived
    (e.g., it may be an average) in which case DTYPE must also be populated. If BASE
    is populated for a parameter, and BASE is non-null for a subject for that parameter,
    then there must be a record flagged by ABLFL for that subject and parameter.
  :compliance: ''
  :typed_as: Numeric
- :uri: http://www.cdisc.org/BDS/V1#ADS_AVBASEC
  :ordinal: 79
  :rdf_type: http://www.assero.co.uk/Tabulation#ADaMDatasetVariable
  :label: Baseline Value (C)
  :name: BASEC
  :ct: ''
  :notes: Baseline value of AVALC. May be needed when AVALC is of interest. There
    must be a one-to-one map between BASE and BASEC within a given PARAM if both are
    populated. The baseline record for AVALC must be the same as that for AVAL.
  :compliance: ''
  :typed_as: Character
- :uri: http://www.cdisc.org/BDS/V1#ADS_AVBASECATy
  :ordinal: 80
  :rdf_type: http://www.assero.co.uk/Tabulation#ADaMDatasetVariable
  :label: Baseline Category y
  :name: BASECATy
  :ct: ''
  :notes: A categorical representation of BASE. Not necessarily a one-to-one map to
    BASE. For example, if PARAM is 'Headache Severity' and AVAL has values 0, 1, 2,
    or 3, BASECAT1 can categorize BASE into 'None or Mild' (for BASE 1 or 2) and 'Moderate
    or Severe' (for BASE 3 or 4)
  :compliance: ''
  :typed_as: Character
- :uri: http://www.cdisc.org/BDS/V1#ADS_AVBASETYPE
  :ordinal: 81
  :rdf_type: http://www.assero.co.uk/Tabulation#ADaMDatasetVariable
  :label: Baseline Type
  :name: BASETYPE
  :ct: ''
  :notes: Sponsor-defined text describing the definition of baseline relevant to the
    value of BASE on the current record. Required when there are multiple ways that
    baseline is defined. If used for a given PARAM, should be populated for all records
    of that PARAM. Refer to Section 4.2.1, Rule 6, for an example.
  :compliance: ''
  :typed_as: Character
- :uri: http://www.cdisc.org/BDS/V1#ADS_AVCHG
  :ordinal: 82
  :rdf_type: http://www.assero.co.uk/Tabulation#ADaMDatasetVariable
  :label: Change from Baseline
  :name: CHG
  :ct: ''
  :notes: Change from baseline analysis value. Equal to AVAL-BASE. If used for a given
    PARAM, should be populated for all post-baseline records of that PARAM. The decision
    on how to populate pre-baseline and baseline values of CHG are left to sponsor
    choice.
  :compliance: ''
  :typed_as: Numeric
- :uri: http://www.cdisc.org/BDS/V1#ADS_AVCHGCATy
  :ordinal: 83
  :rdf_type: http://www.assero.co.uk/Tabulation#ADaMDatasetVariable
  :label: Change from Baseline Category y
  :name: CHGCATy
  :ct: ''
  :notes: A categorical representation of CHG. Not necessarily a one-to-one mapping
    to CHG. The definition of CHGCATy may vary by PARAM. For example, CHGCAT1 may
    be used to categorize CHG with respect to ranges of change in SYSBP; '-10 to -5
    mm Hg', '-5 to 0 mm Hg' categories.
  :compliance: ''
  :typed_as: Character
- :uri: http://www.cdisc.org/BDS/V1#ADS_AVPCHG
  :ordinal: 84
  :rdf_type: http://www.assero.co.uk/Tabulation#ADaMDatasetVariable
  :label: Percent Change from Baseline
  :name: PCHG
  :ct: ''
  :notes: Percent change from baseline analysis value. Equal to ((AVAL-BASE)/BASE)*100.
    If used for a given PARAM, should be populated (when calculable) for all records
    of that PARAM. The decision on how to populate pre-baseline and baseline values
    of PCHG are left to sponsor choice.
  :compliance: ''
  :typed_as: Numeric
- :uri: http://www.cdisc.org/BDS/V1#ADS_AVPCHGCATy
  :ordinal: 85
  :rdf_type: http://www.assero.co.uk/Tabulation#ADaMDatasetVariable
  :label: Percent Change from Baseline y
  :name: PCHGCATy
  :ct: ''
  :notes: A categorical representation of PCHG. Not necessarily a one-to-one mapping
    to PCHG. The definition of PCHGCATy may vary by PARAM. For example, PCHGCAT1 may
    be used to categorize PCHG with respect to ranges of change in SYSBP; '>5%', '>10%'
    categories.
  :compliance: ''
  :typed_as: Character
- :uri: http://www.cdisc.org/BDS/V1#ADS_AVR2BASE
  :ordinal: 86
  :rdf_type: http://www.assero.co.uk/Tabulation#ADaMDatasetVariable
  :label: Ratio to Baseline
  :name: R2BASE
  :ct: ''
  :notes: AVAL / BASE
  :compliance: ''
  :typed_as: Numeric
- :uri: http://www.cdisc.org/BDS/V1#ADS_AVR2AyLO
  :ordinal: 87
  :rdf_type: http://www.assero.co.uk/Tabulation#ADaMDatasetVariable
  :label: Ratio to Analysis Range y Lower Limit
  :name: R2AyLO
  :ct: ''
  :notes: AVAL / AyLO. AyLO must exist in the analysis dataset.
  :compliance: ''
  :typed_as: Numeric
- :uri: http://www.cdisc.org/BDS/V1#ADS_AVR2AyHI
  :ordinal: 88
  :rdf_type: http://www.assero.co.uk/Tabulation#ADaMDatasetVariable
  :label: Ratio to Analysis Range y Upper Limit
  :name: R2AyHI
  :ct: ''
  :notes: AVAL / AyHI. AyHI must exist in the analysis dataset.
  :compliance: ''
  :typed_as: Numeric
- :uri: http://www.cdisc.org/BDS/V1#ADS_AVSHIFTy
  :ordinal: 89
  :rdf_type: http://www.assero.co.uk/Tabulation#ADaMDatasetVariable
  :label: Shift y
  :name: SHIFTy
  :ct: ''
  :notes: A shift in values depending on the defined pairing for group 'y'. SHIFTy
    can be based on the change in value of any of the following pairs (BASECATy, AVALCATy),
    (BNRIND, ANRIND), (BTOXGR, ATOXGR), (BASE, AVAL) or (BASEC, AVALC). Useful for
    shift tables. For example, 'NORMAL to HIGH'. The decision on how to populate baseline
    and pre-baseline values of SHIFTy are left to sponsor choice.
  :compliance: ''
  :typed_as: Character
- :uri: http://www.cdisc.org/BDS/V1#ADS_AVSHIFTyN
  :ordinal: 90
  :rdf_type: http://www.assero.co.uk/Tabulation#ADaMDatasetVariable
  :label: Shift y (N)
  :name: SHIFTyN
  :ct: ''
  :notes: Numeric version of SHIFT. SHIFTN has a one-to-one mapping relationship with
    SHIFT. The decision on how to populate baseline and pre-baseline values of SHIFTN
    are left to sponsor choice.
  :compliance: ''
  :typed_as: Numeric
- :uri: http://www.cdisc.org/BDS/V1#ADS_AVCRITy
  :ordinal: 91
  :rdf_type: http://www.assero.co.uk/Tabulation#ADaMDatasetVariable
  :label: Analysis Criterion y
  :name: CRITy
  :ct: ''
  :notes: A text string identifying a pre-specified criterion, for example SYSBP >
    90. In some cases, the presence of the text string indicates that the criterion
    is satisfied on this record, while a null value indicates that the criterion is
    not satisfied. In other cases, the text string identifies the criterion being
    evaluated, but whether or not the criterion is satisfied is indicated by the value
    of the variable CRITyFL. See CRITyFL and CRITyFN in Section 3.2.6. Refer to Section
    4.7 for additional discussion of CRITy, CRITyFL and CRITyFN.
  :compliance: ''
  :typed_as: Character
- :uri: http://www.cdisc.org/BDS/V1#ADS_AVDTYPE
  :ordinal: 92
  :rdf_type: http://www.assero.co.uk/Tabulation#ADaMDatasetVariable
  :label: Derivation Type
  :name: DTYPE
  :ct: "(DTYPE)"
  :notes: Analysis value derivation method. DTYPE is used to denote, and is required
    to be populated, when the value of AVAL or AVALC (and thus the entire record)
    has been imputed, derived, or copied from other record(s). DTYPE is required to
    be populated even if AVAL and AVALC are null on the derived record. DTYPE is not
    used to denote that an analysis parameter is derived. PARAMTYP may be used to
    indicate that an entire parameter is derived. For each value of DTYPE, the precise
    derivation algorithm must be defined in analysis variable metadata, even for DTYPE
    values in the controlled terminology. See Section 4 for examples of the use of
    DTYPE. Examples of DTYPE values LOCF = last observation carried forward. WOCF
    = worst observation carried forward. AVERAGE = average of values.
  :compliance: ''
  :typed_as: Character
- :uri: http://www.cdisc.org/BDS/V1#ADS_AVAWRANGE
  :ordinal: 93
  :rdf_type: http://www.assero.co.uk/Tabulation#ADaMDatasetVariable
  :label: Analysis Window Valid Relative Range
  :name: AWRANGE
  :ct: ''
  :notes: The range of values that are valid for a given analysis timepoint (a given
    value of AVISIT). For example, '5-9 DAYS'.
  :compliance: ''
  :typed_as: Character
- :uri: http://www.cdisc.org/BDS/V1#ADS_AVAWTARGET
  :ordinal: 94
  :rdf_type: http://www.assero.co.uk/Tabulation#ADaMDatasetVariable
  :label: Analysis Window Target
  :name: AWTARGET
  :ct: ''
  :notes: The target or most desired analysis relative day (ADY) value or analysis
    relative time (ARELTM) value for a given value of AVISIT.
  :compliance: ''
  :typed_as: Numeric
- :uri: http://www.cdisc.org/BDS/V1#ADS_AVAWTDIFF
  :ordinal: 95
  :rdf_type: http://www.assero.co.uk/Tabulation#ADaMDatasetVariable
  :label: Analysis Window Diff from Target
  :name: AWTDIFF
  :ct: ''
  :notes: Absolute difference between ADY or ARELTM and AWTARGET. It will be necessary
    to adjust for the fact that there is no day 0 in the event that ADY and AWTARGET
    are not of the same sign. If the sign of the difference is important, then AWTDIFF
    might have to be used in conjunction with ADY or ARELTM and possibly AWTARGET
    when choosing among records.
  :compliance: ''
  :typed_as: Numeric
- :uri: http://www.cdisc.org/BDS/V1#ADS_AVAWLO
  :ordinal: 96
  :rdf_type: http://www.assero.co.uk/Tabulation#ADaMDatasetVariable
  :label: Analysis Window Beginning Timepoint
  :name: AWLO
  :ct: ''
  :notes: The value of the beginning timepoint (inclusive) needs to be used in conjunction
    to AWRANGE. For example, if AWRANGE is'5-9 DAYS', then AWLO is '5'.
  :compliance: ''
  :typed_as: Numeric
- :uri: http://www.cdisc.org/BDS/V1#ADS_AVAWHI
  :ordinal: 97
  :rdf_type: http://www.assero.co.uk/Tabulation#ADaMDatasetVariable
  :label: Analysis Window Ending Timepoint
  :name: AWHI
  :ct: ''
  :notes: The value of the ending timepoint (inclusive) needs to be used in conjunction
    to AWRANGE. For example, if AWRANGE is'5-9 DAYS', then AWHI is '9'.
  :compliance: ''
  :typed_as: Numeric
- :uri: http://www.cdisc.org/BDS/V1#ADS_AVAWU
  :ordinal: 98
  :rdf_type: http://www.assero.co.uk/Tabulation#ADaMDatasetVariable
  :label: Analysis Window Unit
  :name: AWU
  :ct: ''
  :notes: 'Unit used for AWLO and AWHI. Examples: DAYS, HOURS.'
  :compliance: ''
  :typed_as: Character
- :uri: http://www.cdisc.org/BDS/V1#ADS_AVSTARTDT
  :ordinal: 99
  :rdf_type: http://www.assero.co.uk/Tabulation#ADaMDatasetVariable
  :label: Time to Event Origin Date for Subject
  :name: STARTDT
  :ct: ''
  :notes: The original date of risk for the time-to-event analysis. This is generally
    the time at which a subject is first at risk of the event of interest (as defined
    in the protocol or Statistical Analysis Plan). For example, this may be the randomization
    date or the date of first study therapy exposure.
  :compliance: ''
  :typed_as: Numeric
- :uri: http://www.cdisc.org/BDS/V1#ADS_AVCNSR
  :ordinal: 100
  :rdf_type: http://www.assero.co.uk/Tabulation#ADaMDatasetVariable
  :label: Censor
  :name: CNSR
  :ct: ''
  :notes: Defines whether the event was censored (period of observation truncated
    prior to event being observed). It is strongly recommended to use 0 as an event
    indicator and positive integers as censoring indicators. It is also recommended
    that unique positive integers be used to indicate coded descriptions of censoring
    reasons. CNSR is required for time-to-event parameters.
  :compliance: ''
  :typed_as: Numeric
- :uri: http://www.cdisc.org/BDS/V1#ADS_AVEVNTDESC
  :ordinal: 101
  :rdf_type: http://www.assero.co.uk/Tabulation#ADaMDatasetVariable
  :label: Event or Censoring Description
  :name: EVNTDESC
  :ct: ''
  :notes: Description of the event of interest or censoring reason.
  :compliance: ''
  :typed_as: Character
- :uri: http://www.cdisc.org/BDS/V1#ADS_AVATOXGR
  :ordinal: 102
  :rdf_type: http://www.assero.co.uk/Tabulation#ADaMDatasetVariable
  :label: Analysis Toxicity Grade
  :name: ATOXGR
  :ct: ''
  :notes: Toxicity grade for analysis; may be based on SDTM --TOXGR or an imputed
    or assigned value.
  :compliance: ''
  :typed_as: Character
- :uri: http://www.cdisc.org/BDS/V1#ADS_AVBTOXGR
  :ordinal: 103
  :rdf_type: http://www.assero.co.uk/Tabulation#ADaMDatasetVariable
  :label: Baseline Toxicity Grade
  :name: BTOXGR
  :ct: ''
  :notes: ATOXGR of the baseline record identified by ABLFL.
  :compliance: ''
  :typed_as: Character
- :uri: http://www.cdisc.org/BDS/V1#ADS_AVANRIND
  :ordinal: 104
  :rdf_type: http://www.assero.co.uk/Tabulation#ADaMDatasetVariable
  :label: Analysis Reference Range Indicator
  :name: ANRIND
  :ct: ''
  :notes: Normal range indicator for analysis; may be based on SDTM --NRIND or an
    imputed or assigned value.
  :compliance: ''
  :typed_as: Character
- :uri: http://www.cdisc.org/BDS/V1#ADS_AVBNRIND
  :ordinal: 105
  :rdf_type: http://www.assero.co.uk/Tabulation#ADaMDatasetVariable
  :label: Baseline Reference Range Indicator
  :name: BNRIND
  :ct: ''
  :notes: ANRIND of the baseline record identified by ABLFL.
  :compliance: ''
  :typed_as: Character
- :uri: http://www.cdisc.org/BDS/V1#ADS_AVANRLO
  :ordinal: 106
  :rdf_type: http://www.assero.co.uk/Tabulation#ADaMDatasetVariable
  :label: Analysis Normal Range Lower Limit
  :name: ANRLO
  :ct: ''
  :notes: Normal range lower limit for analysis; may be based on SDTM --NRLO or an
    imputed or assigned value.
  :compliance: ''
  :typed_as: Character
- :uri: http://www.cdisc.org/BDS/V1#ADS_AVANRHI
  :ordinal: 107
  :rdf_type: http://www.assero.co.uk/Tabulation#ADaMDatasetVariable
  :label: Analysis Normal Range Upper Limit
  :name: ANRHI
  :ct: ''
  :notes: Normal range upper limit for analysis; may be based on SDTM --NRHI or an
    imputed or assigned value.
  :compliance: ''
  :typed_as: Character
- :uri: http://www.cdisc.org/BDS/V1#ADS_AVAyLO
  :ordinal: 108
  :rdf_type: http://www.assero.co.uk/Tabulation#ADaMDatasetVariable
  :label: Analysis Range y Lower Limit
  :name: AyLO
  :ct: ''
  :notes: AyLO and/or AyHI are used where there are multiple ranges used for analysis.
    AyLO and/or AyHI are created to capture the different levels of cutoff values
    used to determine whether an analysis is within a clinically acceptable value
    range or outside that value range. AyLO and/or AyHI are usually but not necessarily
    constants, parameter-specific constants, or subject-specific constants. AyLO must
    be included if R2AyLO is included in the dataset.
  :compliance: ''
  :typed_as: Character
- :uri: http://www.cdisc.org/BDS/V1#ADS_AVAyHI
  :ordinal: 109
  :rdf_type: http://www.assero.co.uk/Tabulation#ADaMDatasetVariable
  :label: Analysis Range y Upper Limit
  :name: AyHI
  :ct: ''
  :notes: 'See AyLO. For example, if ECG QTc values are summarized based on values
    450, values >480, and values >500, there is a need for 3 ''hi value'' range variables
    to calculate values against: A1HI=450, A2HI=480, A3HI=500. AyHI must be included
    if R2AyHI is included in the dataset.'
  :compliance: ''
  :typed_as: Character
- :uri: http://www.cdisc.org/BDS/V1#ADS_AVABLFL
  :ordinal: 110
  :rdf_type: http://www.assero.co.uk/Tabulation#ADaMDatasetVariable
  :label: Baseline Record Flag
  :name: ABLFL
  :ct: Y
  :notes: Character indicator to identify the baseline record for each parameter,
    or if there is more than one baseline definition, for each parameter and baseline
    type (BASETYPE). See BASETYPE in Table 3.2.4.1. ABLFL is required if BASE is present
    in the dataset. A baseline record may be derived (e.g., it may be an average),
    in which case DTYPE must also be populated. If BASE is populated for a parameter,
    and BASE is non-null for a subject for that parameter, then there must be a record
    flagged by ABLFL for that subject and parameter.
  :compliance: ''
  :typed_as: Character
- :uri: http://www.cdisc.org/BDS/V1#ADS_AVABLFN
  :ordinal: 111
  :rdf_type: http://www.assero.co.uk/Tabulation#ADaMDatasetVariable
  :label: Baseline Record Flag (N)
  :name: ABLFN
  :ct: '1'
  :notes: Numeric indicator to identify the baseline record for each parameter, or
    if there is more than one baseline definition, for each parameter and baseline
    type (BASETYPE).
  :compliance: ''
  :typed_as: Character
- :uri: http://www.cdisc.org/BDS/V1#ADS_AVANLzzFL
  :ordinal: 112
  :rdf_type: http://www.assero.co.uk/Tabulation#ADaMDatasetVariable
  :label: Analysis Record Flag zz
  :name: ANLzzFL
  :ct: Y
  :notes: ANLzzFL is a conditionally required flag to be used in addition to other
    selection variables when the other selection variables in combination are insufficient
    to identify the exact set of records used for one or more analyses. Often one
    ANLzzFL will serve to support the accurate selection of records for more than
    one analysis. When one is defining the set of records used in a particular analysis
    or family of analyses, ANLzzFL is supplemental to, and is intended to be used
    in conjunction with, other selection variables, such as subject-level, parameter-level
    and record-level population flags, AVISIT, DTYPE, grouping variables such as SITEGRy,
    and others. Every record selection algorithm 'zz' (i.e., every algorithm for populating
    an ANLzzFL) must be defined in variable metadata. When the set of records that
    the algorithm 'zz' operates on is pre-filtered by application of other criteria,
    such as a record-level population flag, then the selection algorithm definition
    in the metadata must so specify. Note that the ANLzzFL value of Y indicates that
    the record fulfilled the requirements of the algorithm, but does not necessarily
    imply that the record was actually used in one or more analyses, as whether or
    not a record is used also depends on the other selection variables applied. The
    ANLzzFL flag is useful in many circumstances; an example is when there is more
    than one record for an analysis timepoint within a subject and parameter, as it
    can be used to identify the record chosen to represent the timepoint for an analysis.
    'zz' is an index for a record selection algorithm, such as 'record closest to
    target relative day for the AVISIT, with ties broken by the latest record, for
    each AVISIT within <list of AVISITS>.'
  :compliance: ''
  :typed_as: Character
- :uri: http://www.cdisc.org/BDS/V1#ADS_AVANLzzFN
  :ordinal: 113
  :rdf_type: http://www.assero.co.uk/Tabulation#ADaMDatasetVariable
  :label: Analyzed Record Flag zz (N)
  :name: ANLzzFN
  :ct: '1'
  :notes: Numeric version of ANLzzFL.
  :compliance: ''
  :typed_as: Character
- :uri: http://www.cdisc.org/BDS/V1#ADS_AVONTRTFL
  :ordinal: 114
  :rdf_type: http://www.assero.co.uk/Tabulation#ADaMDatasetVariable
  :label: On Treatment Record Flag
  :name: ONTRTFL
  :ct: Y
  :notes: Character indicator of whether the observation occurred while the subject
    was on treatment.
  :compliance: ''
  :typed_as: Character
- :uri: http://www.cdisc.org/BDS/V1#ADS_AVONTRTFN
  :ordinal: 115
  :rdf_type: http://www.assero.co.uk/Tabulation#ADaMDatasetVariable
  :label: On Treatment Record Flag (N)
  :name: ONTRTFN
  :ct: '1'
  :notes: Numeric indicator of whether the observation occurred while the subject
    was on treatment.
  :compliance: ''
  :typed_as: Character
- :uri: http://www.cdisc.org/BDS/V1#ADS_AVLVOTFL
  :ordinal: 116
  :rdf_type: http://www.assero.co.uk/Tabulation#ADaMDatasetVariable
  :label: Last Value On Treatment Record Flag
  :name: LVOTFL
  :ct: Y
  :notes: Character indicator of the last non-missing value on treatment for each
    parameter.
  :compliance: ''
  :typed_as: Character
- :uri: http://www.cdisc.org/BDS/V1#ADS_AVLVOTFN
  :ordinal: 117
  :rdf_type: http://www.assero.co.uk/Tabulation#ADaMDatasetVariable
  :label: Last Value On Treatment Record Flag (N)
  :name: LVOTFN
  :ct: '1'
  :notes: Numeric indicator of the last non-missing value on treatment for each parameter.
  :compliance: ''
  :typed_as: Character
- :uri: http://www.cdisc.org/BDS/V1#ADS_AVITTRFL
  :ordinal: 118
  :rdf_type: http://www.assero.co.uk/Tabulation#ADaMDatasetVariable
  :label: Intent-To-Treat Record-Level Flag
  :name: ITTRFL
  :ct: Y
  :notes: Character indicator of whether the subject was in the intent-to-treat analysis
    for the specific record.
  :compliance: ''
  :typed_as: Character
- :uri: http://www.cdisc.org/BDS/V1#ADS_AVITTRFN
  :ordinal: 119
  :rdf_type: http://www.assero.co.uk/Tabulation#ADaMDatasetVariable
  :label: Intent-To-Treat Record-Level Flag (N)
  :name: ITTRFN
  :ct: '1'
  :notes: Numeric indicator of whether the subject was in the intent-to-treat analysis
    for the specific record.
  :compliance: ''
  :typed_as: Character
- :uri: http://www.cdisc.org/BDS/V1#ADS_AVITTPFL
  :ordinal: 120
  :rdf_type: http://www.assero.co.uk/Tabulation#ADaMDatasetVariable
  :label: Intent-To-Treat Parameter-Level Flag
  :name: ITTPFL
  :ct: Y
  :notes: Character indicator of whether the subject was in the intent-to-treat analysis
    for the specific parameter.
  :compliance: ''
  :typed_as: Character
- :uri: http://www.cdisc.org/BDS/V1#ADS_AVITTPFN
  :ordinal: 121
  :rdf_type: http://www.assero.co.uk/Tabulation#ADaMDatasetVariable
  :label: Intent-To-Treat Param-Level Flag (N)
  :name: ITTPFN
  :ct: '1'
  :notes: Numeric indicator of whether the subject was in the intent-to-treat analysis
    for the specific parameter.
  :compliance: ''
  :typed_as: Character
- :uri: http://www.cdisc.org/BDS/V1#ADS_AVSAFRFL
  :ordinal: 122
  :rdf_type: http://www.assero.co.uk/Tabulation#ADaMDatasetVariable
  :label: Safety Analysis Record-Level Flag
  :name: SAFRFL
  :ct: Y
  :notes: Character indicator of whether the subject was in the safety analysis for
    the specific record.
  :compliance: ''
  :typed_as: Character
- :uri: http://www.cdisc.org/BDS/V1#ADS_AVSAFRFN
  :ordinal: 123
  :rdf_type: http://www.assero.co.uk/Tabulation#ADaMDatasetVariable
  :label: Safety Analysis Record-Level Flag (N)
  :name: SAFRFN
  :ct: '1'
  :notes: Numeric indicator of whether the subject was in the safety analysis for
    the specific record.
  :compliance: ''
  :typed_as: Character
- :uri: http://www.cdisc.org/BDS/V1#ADS_AVSAFPFL
  :ordinal: 124
  :rdf_type: http://www.assero.co.uk/Tabulation#ADaMDatasetVariable
  :label: Safety Analysis Parameter-Level Flag
  :name: SAFPFL
  :ct: Y
  :notes: Character indicator of whether the subject was in the safety analysis for
    the specific parameter.
  :compliance: ''
  :typed_as: Character
- :uri: http://www.cdisc.org/BDS/V1#ADS_AVSAFPFN
  :ordinal: 125
  :rdf_type: http://www.assero.co.uk/Tabulation#ADaMDatasetVariable
  :label: Safety Analysis Param-Level Flag (N)
  :name: SAFPFN
  :ct: '1'
  :notes: Numeric indicator of whether the subject was in the safety analysis for
    the specific parameter.
  :compliance: ''
  :typed_as: Character
- :uri: http://www.cdisc.org/BDS/V1#ADS_AVFASRFL
  :ordinal: 126
  :rdf_type: http://www.assero.co.uk/Tabulation#ADaMDatasetVariable
  :label: Full Analysis Set Record-Level Flag
  :name: FASRFL
  :ct: Y
  :notes: Character indicator of whether the subject was in the full analysis set
    analysis for the specific record.
  :compliance: ''
  :typed_as: Character
- :uri: http://www.cdisc.org/BDS/V1#ADS_AVFASRFN
  :ordinal: 127
  :rdf_type: http://www.assero.co.uk/Tabulation#ADaMDatasetVariable
  :label: Full Analysis Set Record-Level Flag (N)
  :name: FASRFN
  :ct: '1'
  :notes: Numeric indicator of whether the subject was in the full analysis set analysis
    for the specific record.
  :compliance: ''
  :typed_as: Character
- :uri: http://www.cdisc.org/BDS/V1#ADS_AVFASPFL
  :ordinal: 128
  :rdf_type: http://www.assero.co.uk/Tabulation#ADaMDatasetVariable
  :label: Full Analysis Set Parameter-Level Flag
  :name: FASPFL
  :ct: Y
  :notes: Character indicator of whether the subject was in the full analysis set
    analysis for the specific parameter.
  :compliance: ''
  :typed_as: Character
- :uri: http://www.cdisc.org/BDS/V1#ADS_AVFASPFN
  :ordinal: 129
  :rdf_type: http://www.assero.co.uk/Tabulation#ADaMDatasetVariable
  :label: Full Analysis Set Param-Level Flag (N)
  :name: FASPFN
  :ct: '1'
  :notes: Numeric indicator of whether the subject was in the full analysis set analysis
    for the specific parameter.
  :compliance: ''
  :typed_as: Character
- :uri: http://www.cdisc.org/BDS/V1#ADS_AVPPROTRFL
  :ordinal: 130
  :rdf_type: http://www.assero.co.uk/Tabulation#ADaMDatasetVariable
  :label: Per-Protocol Record-Level Flag
  :name: PPROTRFL
  :ct: Y
  :notes: Character indicator of whether the subject was in the per-protocol analysis
    for the specific record.
  :compliance: ''
  :typed_as: Character
- :uri: http://www.cdisc.org/BDS/V1#ADS_AVPPROTRFN
  :ordinal: 131
  :rdf_type: http://www.assero.co.uk/Tabulation#ADaMDatasetVariable
  :label: Per-Protocol Record-Level Flag (N)
  :name: PPROTRFN
  :ct: '1'
  :notes: Numeric indicator of whether the subject was in the per-protocol analysis
    for the specific record.
  :compliance: ''
  :typed_as: Character
- :uri: http://www.cdisc.org/BDS/V1#ADS_AVPPROTPFL
  :ordinal: 132
  :rdf_type: http://www.assero.co.uk/Tabulation#ADaMDatasetVariable
  :label: Per-Protocol Parameter-Level Flag
  :name: PPROTPFL
  :ct: Y
  :notes: Character indicator of whether the subject was in the per-protocol analysis
    for the specific parameter.
  :compliance: ''
  :typed_as: Character
- :uri: http://www.cdisc.org/BDS/V1#ADS_AVPPROTPFN
  :ordinal: 133
  :rdf_type: http://www.assero.co.uk/Tabulation#ADaMDatasetVariable
  :label: Per-Protocol Parameter-Level Flag (N)
  :name: PPROTPFN
  :ct: '1'
  :notes: Numeric indicator of whether the subject was in the per-protocol analysis
    for the specific parameter.
  :compliance: ''
  :typed_as: Character
- :uri: http://www.cdisc.org/BDS/V1#ADS_AVCOMPRFL
  :ordinal: 134
  :rdf_type: http://www.assero.co.uk/Tabulation#ADaMDatasetVariable
  :label: Completers Record-Level Flag
  :name: COMPRFL
  :ct: Y
  :notes: Character indicator of whether the subject was in the completed subjects
    analysis for the specific record.
  :compliance: ''
  :typed_as: Character
- :uri: http://www.cdisc.org/BDS/V1#ADS_AVCOMPRFN
  :ordinal: 135
  :rdf_type: http://www.assero.co.uk/Tabulation#ADaMDatasetVariable
  :label: Completers Record-Level Flag (N)
  :name: COMPRFN
  :ct: '1'
  :notes: Numeric indicator of whether the subject was in the completed subjects analysis
    for the specific record.
  :compliance: ''
  :typed_as: Character
- :uri: http://www.cdisc.org/BDS/V1#ADS_AVCOMPPFL
  :ordinal: 136
  :rdf_type: http://www.assero.co.uk/Tabulation#ADaMDatasetVariable
  :label: Completers Parameter-Level Flag
  :name: COMPPFL
  :ct: Y
  :notes: Character indicator of whether the subject was in the completed subjects
    analysis for the specific parameter.
  :compliance: ''
  :typed_as: Character
- :uri: http://www.cdisc.org/BDS/V1#ADS_AVCOMPPFN
  :ordinal: 137
  :rdf_type: http://www.assero.co.uk/Tabulation#ADaMDatasetVariable
  :label: Completers Parameter-Level Flag (N)
  :name: COMPPFN
  :ct: '1'
  :notes: Numeric indicator of whether the subject was in the completed subjects analysis
    for the specific parameter.
  :compliance: ''
  :typed_as: Character
- :uri: http://www.cdisc.org/BDS/V1#ADS_AVCRITyFL
  :ordinal: 138
  :rdf_type: http://www.assero.co.uk/Tabulation#ADaMDatasetVariable
  :label: Criterion y Evaluation Result Flag
  :name: CRITyFL
  :ct: N, Y
  :notes: Character indicator of whether the criterion defined in CRITy was met. See
    also CRITy in Section 3.2.4. Required if CRITy exists. Refer to Section 4.7 for
    additional discussion.
  :compliance: ''
  :typed_as: Character
- :uri: http://www.cdisc.org/BDS/V1#ADS_AVCRITyFN
  :ordinal: 139
  :rdf_type: http://www.assero.co.uk/Tabulation#ADaMDatasetVariable
  :label: Criterion y Evaluation Result Flag (N)
  :name: CRITyFN
  :ct: 0, 1
  :notes: Numeric indicator of whether the criterion defined in CRITy was met.
  :compliance: ''
  :typed_as: Character
- :uri: http://www.cdisc.org/BDS/V1#ADS_AVSRCDOM
  :ordinal: 140
  :rdf_type: http://www.assero.co.uk/Tabulation#ADaMDatasetVariable
  :label: Source Domain
  :name: SRCDOM
  :ct: ''
  :notes: The 2-character identifier of the SDTM domain that relates to AVAL or AVALC.
  :compliance: ''
  :typed_as: Character
- :uri: http://www.cdisc.org/BDS/V1#ADS_AVSRCVAR
  :ordinal: 141
  :rdf_type: http://www.assero.co.uk/Tabulation#ADaMDatasetVariable
  :label: Source Variable
  :name: SRCVAR
  :ct: ''
  :notes: The name of the column (in the SDTM domain identified by SRCDOM) that relates
    to AVAL or AVALC.
  :compliance: ''
  :typed_as: Character
- :uri: http://www.cdisc.org/BDS/V1#ADS_AVSRCSEQ
  :ordinal: 142
  :rdf_type: http://www.assero.co.uk/Tabulation#ADaMDatasetVariable
  :label: Source Sequence Number
  :name: SRCSEQ
  :ct: ''
  :notes: The sequence number SEQ of the row (in the SDTM domain identified by SRCDOM)
    that relates to AVAL or AVALC.
  :compliance: ''
  :typed_as: Numeric
