<html><head></head><body><div style="vertical-align:middle; text-align:center"><img height="75" src="http://localhost:3000/images/acme.jpg"></div><h3 class="text-center col-md-12">ACME Test</h3><br><br><br><br><br><br><br><br><br><br><div class="text-center col-md-12"><h1>CDISC Submission Value Change Report<h1><h3></h3></div><br><br><br><br><br><div class="text-center col-md-12"><p>Run at: 2021-Apr-22, 12:32:08</p></div><div class="text-center col-md-12"><p>Run by: wicked@example.com</p></div><div style='page-break-after:always;'></div><h3>Conventions</h3><p>In the following table each page contains two tables. The first table indicates when a change took place while the second table details the change. The changes are releated by the index thus [n].</p><h3>Changes</h3><table class="table table-striped table-bordered table-condensed"><thead><tr><th>Code</th><th>Item</th><th>Label</th><th>Original Submission Value</th><th>2007-04-20</th><th>2007-04-26</th><th>2007-05-31</th><th>2007-06-05</th><th>2008-01-15</th><th>2008-01-25</th><th>2008-08-26</th><th>2008-09-22</th><th>2008-09-24</th><th>2008-09-30</th></tr></thead><tbody><tr><td>C65047</td><td>C64809</td><td>Sodium Measurement</td><td>SODIUM</td><td>[1]</td><td>&nbsp;</td><td>&nbsp;</td><td>&nbsp;</td><td>&nbsp;</td><td>&nbsp;</td><td>&nbsp;</td><td>&nbsp;</td><td>&nbsp;</td><td>&nbsp;</td></tr><tr><td>C66737</td><td>C49687</td><td>Phase IIIa Trial</td><td>Phase IIIaTrial</td><td>&nbsp;</td><td>[2]</td><td>&nbsp;</td><td>&nbsp;</td><td>&nbsp;</td><td>&nbsp;</td><td>&nbsp;</td><td>&nbsp;</td><td>&nbsp;</td><td>&nbsp;</td></tr><tr><td>C66737</td><td>C49688</td><td>Phase IIb Trial</td><td>Phase IIb Trial</td><td>&nbsp;</td><td>[3]</td><td>&nbsp;</td><td>&nbsp;</td><td>&nbsp;</td><td>&nbsp;</td><td>&nbsp;</td><td>&nbsp;</td><td>&nbsp;</td><td>&nbsp;</td></tr><tr><td>C66737</td><td>C49686</td><td>Phase IIa Trial</td><td>Phase IIa Trial</td><td>&nbsp;</td><td>[4]</td><td>&nbsp;</td><td>&nbsp;</td><td>&nbsp;</td><td>&nbsp;</td><td>&nbsp;</td><td>&nbsp;</td><td>&nbsp;</td><td>&nbsp;</td></tr></tbody></table><br/><br/><table class="table table-striped table-bordered table-condensed"><thead><tr><th>Index</th><th>From</th><th>To</th></tr></thead><tbody><tr><td>[1]</td><td>NA</td><td>SODIUM</td></tr><tr></tr><tr></tr><tr></tr><tr></tr><tr></tr><tr></tr><tr></tr><tr></tr><tr></tr><tr></tr><tr><td>[2]</td><td>Phase IIIA Trial</td><td>Phase IIIaTrial</td></tr><tr></tr><tr></tr><tr></tr><tr></tr><tr></tr><tr></tr><tr></tr><tr></tr><tr></tr><tr><td>[3]</td><td>Phase II B Trial</td><td>Phase IIb Trial</td></tr><tr></tr><tr></tr><tr></tr><tr></tr><tr></tr><tr></tr><tr></tr><tr></tr><tr></tr><tr><td>[4]</td><td>Phase II A Trial</td><td>Phase IIa Trial</td></tr><tr></tr><tr></tr><tr></tr><tr></tr><tr></tr><tr></tr><tr></tr><tr></tr></tbody></table><div style='page-break-after:always;'></div><table class="table table-striped table-bordered table-condensed"><thead><tr><th>Code</th><th>Item</th><th>Label</th><th>Original Submission Value</th><th>2007-04-20</th><th>2007-04-26</th><th>2007-05-31</th><th>2007-06-05</th><th>2008-01-15</th><th>2008-01-25</th><th>2008-08-26</th><th>2008-09-22</th><th>2008-09-24</th><th>2008-09-30</th></tr></thead><tbody><tr><td>C66737</td><td>C49689</td><td>Phase IIIb Trial</td><td>Phase IIIb Trial</td><td>&nbsp;</td><td>[1]</td><td>&nbsp;</td><td>&nbsp;</td><td>&nbsp;</td><td>&nbsp;</td><td>&nbsp;</td><td>&nbsp;</td><td>&nbsp;</td><td>&nbsp;</td></tr><tr><td>C67152</td><td>C20587</td><td>Age Group</td><td>Age Group</td><td>&nbsp;</td><td>&nbsp;</td><td>[2]</td><td>&nbsp;</td><td>&nbsp;</td><td>&nbsp;</td><td>&nbsp;</td><td>&nbsp;</td><td>&nbsp;</td><td>&nbsp;</td></tr><tr><td>C66790</td><td>C43234</td><td>Not Stated</td><td>NOT REPORTED</td><td>&nbsp;</td><td>&nbsp;</td><td>[3]</td><td>&nbsp;</td><td>&nbsp;</td><td>&nbsp;</td><td>&nbsp;</td><td>&nbsp;</td><td>&nbsp;</td><td>&nbsp;</td></tr><tr><td>C67153</td><td>C49680</td><td>Body Frame Size</td><td>Body Frame Size</td><td>&nbsp;</td><td>&nbsp;</td><td>[4]</td><td>&nbsp;</td><td>&nbsp;</td><td>&nbsp;</td><td>&nbsp;</td><td>&nbsp;</td><td>&nbsp;</td><td>&nbsp;</td></tr><tr><td>C67153</td><td>C12472</td><td>Adipose Tissue</td><td>Adipose Tissue</td><td>&nbsp;</td><td>&nbsp;</td><td>[5]</td><td>&nbsp;</td><td>&nbsp;</td><td>&nbsp;</td><td>&nbsp;</td><td>&nbsp;</td><td>&nbsp;</td><td>&nbsp;</td></tr></tbody></table><br/><br/><table class="table table-striped table-bordered table-condensed"><thead><tr><th>Index</th><th>From</th><th>To</th></tr></thead><tbody><tr></tr><tr><td>[1]</td><td>Phase III B Trial</td><td>Phase IIIb Trial</td></tr><tr></tr><tr></tr><tr></tr><tr></tr><tr></tr><tr></tr><tr></tr><tr></tr><tr></tr><tr></tr><tr><td>[2]</td><td>Age Span</td><td>Age Group</td></tr><tr></tr><tr></tr><tr></tr><tr></tr><tr></tr><tr></tr><tr></tr><tr></tr><tr></tr><tr><td>[3]</td><td>Not reported</td><td>NOT REPORTED</td></tr><tr></tr><tr></tr><tr></tr><tr></tr><tr></tr><tr></tr><tr></tr><tr></tr><tr></tr><tr><td>[4]</td><td>Frame Size</td><td>Body Frame Size</td></tr><tr></tr><tr></tr><tr></tr><tr></tr><tr></tr><tr></tr><tr></tr><tr></tr><tr></tr><tr><td>[5]</td><td>Body Fat</td><td>Adipose Tissue</td></tr><tr></tr><tr></tr><tr></tr><tr></tr><tr></tr><tr></tr><tr></tr></tbody></table><div style='page-break-after:always;'></div><table class="table table-striped table-bordered table-condensed"><thead><tr><th>Code</th><th>Item</th><th>Label</th><th>Original Submission Value</th><th>2007-04-20</th><th>2007-04-26</th><th>2007-05-31</th><th>2007-06-05</th><th>2008-01-15</th><th>2008-01-25</th><th>2008-08-26</th><th>2008-09-22</th><th>2008-09-24</th><th>2008-09-30</th></tr></thead><tbody><tr><td>C67152</td><td>C62113</td><td>QTcF-Fridericia's Correction Formula</td><td>QTcF - Fridericias Correction Formula</td><td>&nbsp;</td><td>&nbsp;</td><td>&nbsp;</td><td>&nbsp;</td><td>&nbsp;</td><td>&nbsp;</td><td>[1]</td><td>[2]</td><td>&nbsp;</td><td>&nbsp;</td></tr><tr><td>C71152</td><td>C62119</td><td>JTcF-Fridericia's Correction Formula</td><td>JTcF - Fridericias Correction Formula</td><td>&nbsp;</td><td>&nbsp;</td><td>&nbsp;</td><td>&nbsp;</td><td>&nbsp;</td><td>&nbsp;</td><td>[3]</td><td>[4]</td><td>&nbsp;</td><td>&nbsp;</td></tr></tbody></table><table class="table table-striped table-bordered table-condensed"><thead><tr><th>Index</th><th>From</th><th>To</th></tr></thead><tbody><tr></tr><tr></tr><tr></tr><tr></tr><tr></tr><tr></tr><tr><td>[1]</td><td>QTcF - Fridericia’s Correction Formula</td><td>QTcF - Fridericias Correction Formula</td></tr><tr><td>[2]</td><td>QTcF - Fridericias Correction Formula</td><td>QTcF - Fridericia's Correction Formula</td></tr><tr></tr><tr></tr><tr></tr><tr></tr><tr></tr><tr></tr><tr></tr><tr></tr><tr><td>[3]</td><td>JTcF - Fridericia’s Correction Formula</td><td>JTcF - Fridericias Correction Formula</td></tr><tr><td>[4]</td><td>JTcF - Fridericias Correction Formula</td><td>JTcF - Fridericia's Correction Formula</td></tr><tr></tr><tr></tr></tbody></table></body></html>