<html><head></head><body><div style="vertical-align:middle; text-align:center"><img height="75" src="http://localhost:3000/images/acme.jpg"></div><h3 class="text-center col-md-12">ACME Test</h3><br><br><br><br><br><br><br><br><br><br><div class="text-center col-md-12"><h1>CDISC Submission Value Change Report<h1><h3></h3></div><br><br><br><br><br><div class="text-center col-md-12"><p>Run at: 2021-Apr-22, 12:32:08</p></div><div class="text-center col-md-12"><p>Run by: wicked@example.com</p></div><div style='page-break-after:always;'></div><h3>Conventions</h3><p>In the following table each page contains two tables. The first table indicates when a change took place while the second table details the change. The changes are releated by the index thus [n].</p><h3>Changes</h3><table class="table table-striped table-bordered table-condensed"><thead><tr><th>Code</th><th>Item</th><th>Label</th><th>Original Submission Value</th><th>2009-05-01</th><th>2009-07-06</th><th>2009-10-06</th><th>2010-03-05</th></tr></thead><tbody><tr><td>CXXXXX</td><td>C42708</td><td>Parent</td><td>CHILD</td><td>[1]</td><td>[2]</td><td>[3]</td><td>&nbsp;</td></tr><tr><td>CXXXXX</td><td>C49687</td><td>Phase IIIa Trial</td><td>Phase IIIa Trial</td><td>[4]</td><td>&nbsp;</td><td>&nbsp;</td><td>&nbsp;</td></tr><tr><td>CXXXXX</td><td>C74688</td><td>Barbiturate Drug Class Measurement</td><td>Barbiturates</td><td>[5]</td><td>&nbsp;</td><td>&nbsp;</td><td>&nbsp;</td></tr><tr><td>CXXXXX</td><td>C74753</td><td>Blood Urea Nitrogen To Creatinine Ratio Measurement</td><td>BUN/Creatinine</td><td>[6]</td><td>&nbsp;</td><td>&nbsp;</td><td>&nbsp;</td></tr></tbody></table><br/><br/><table class="table table-striped table-bordered table-condensed"><thead><tr><th>Index</th><th>From</th><th>To</th></tr></thead><tbody><tr><td>[1]</td><td>CHILD</td><td>PARENT</td></tr><tr><td>[2]</td><td>CHILD</td><td>PARENT</td></tr><tr><td>[3]</td><td>PARENT</td><td>CHILD</td></tr><tr></tr><tr><td>[4]</td><td>Phase IIIaTrial</td><td>Phase IIIa Trial</td></tr><tr></tr><tr></tr><tr></tr><tr><td>[5]</td><td>Barbiturate</td><td>Barbiturates</td></tr><tr></tr><tr></tr><tr></tr><tr><td>[6]</td><td>BUN/Creatinine Ratio</td><td>BUN/Creatinine</td></tr><tr></tr><tr></tr><tr></tr></tbody></table><div style='page-break-after:always;'></div><table class="table table-striped table-bordered table-condensed"><thead><tr><th>Code</th><th>Item</th><th>Label</th><th>Original Submission Value</th><th>2009-05-01</th><th>2009-07-06</th><th>2009-10-06</th><th>2010-03-05</th></tr></thead><tbody><tr><td>CXXXXX</td><td>C74761</td><td>Albumin To Creatinine Protein Ratio Measurement</td><td>Albumin/Creatinine</td><td>[1]</td><td>&nbsp;</td><td>&nbsp;</td><td>&nbsp;</td></tr><tr><td>CXXXXX</td><td>C74786</td><td>Free Thyroxine Measurement</td><td>Thyroxine, Free</td><td>[2]</td><td>&nbsp;</td><td>&nbsp;</td><td>&nbsp;</td></tr><tr><td>CXXXXX</td><td>C74894</td><td>Albumin to Globulin Ratio Measurement</td><td>Albumin/Globulin</td><td>[3]</td><td>&nbsp;</td><td>&nbsp;</td><td>&nbsp;</td></tr><tr><td>CXXXXX</td><td>C64798</td><td>Erythrocyte Mean Corpuscular Hemoglobin Concentration</td><td>Ery. Mean Corpuscular HGB Concentration</td><td>&nbsp;</td><td>[4]</td><td>&nbsp;</td><td>&nbsp;</td></tr><tr><td>CXXXXX</td><td>C74676</td><td>Folic Acid Measurement</td><td>VITB9</td><td>&nbsp;</td><td>[5]</td><td>&nbsp;</td><td>&nbsp;</td></tr></tbody></table><br/><br/><table class="table table-striped table-bordered table-condensed"><thead><tr><th>Index</th><th>From</th><th>To</th></tr></thead><tbody><tr><td>[1]</td><td>Albumin/Creatinine Ratio</td><td>Albumin/Creatinine</td></tr><tr></tr><tr></tr><tr></tr><tr><td>[2]</td><td>Thyroxin, Free</td><td>Thyroxine, Free</td></tr><tr></tr><tr></tr><tr></tr><tr><td>[3]</td><td>Albumin/Globulin Ratio</td><td>Albumin/Globulin</td></tr><tr></tr><tr></tr><tr></tr><tr></tr><tr><td>[4]</td><td>Ery. Mean Corpuscular HB Concentration</td><td>Ery. Mean Corpuscular HGB Concentration</td></tr><tr></tr><tr></tr><tr></tr><tr><td>[5]</td><td>FOLICAC</td><td>VITB9</td></tr><tr></tr><tr></tr></tbody></table><div style='page-break-after:always;'></div><table class="table table-striped table-bordered table-condensed"><thead><tr><th>Code</th><th>Item</th><th>Label</th><th>Original Submission Value</th><th>2009-05-01</th><th>2009-07-06</th><th>2009-10-06</th><th>2010-03-05</th></tr></thead><tbody><tr><td>CXXXXX</td><td>C74676</td><td>Folic Acid Measurement</td><td>Vitamin B9</td><td>&nbsp;</td><td>[1]</td><td>&nbsp;</td><td>&nbsp;</td></tr><tr><td>CXXXXX</td><td>C64802</td><td>Hypochromia</td><td>HPOCROM</td><td>&nbsp;</td><td>&nbsp;</td><td>[2]</td><td>&nbsp;</td></tr></tbody></table><table class="table table-striped table-bordered table-condensed"><thead><tr><th>Index</th><th>From</th><th>To</th></tr></thead><tbody><tr></tr><tr><td>[1]</td><td>Folic Acid</td><td>Vitamin B9</td></tr><tr></tr><tr></tr><tr></tr><tr></tr><tr><td>[2]</td><td>HYPO</td><td>HPOCROM</td></tr><tr></tr></tbody></table></body></html>