---
:id: aHR0cDovL3d3dy5hY21lLXBoYXJtYS5jb20vRl9CQVNFTElORS9WMSNG
:uri: http://www.acme-pharma.com/F_BASELINE/V1#F
:rdf_type: http://www.assero.co.uk/BusinessForm#Form
:label: Baseline Visit Form
:has_state:
  :id: aHR0cDovL3d3dy5hY21lLXBoYXJtYS5jb20vRl9CQVNFTElORS9WMSNGX1JT
  :uri: http://www.acme-pharma.com/F_BASELINE/V1#F_RS
  :rdf_type: http://www.assero.co.uk/ISO11179Registration#RegistrationState
  :registration_status: Incomplete
  :administrative_note: ''
  :effective_date: '2016-01-01T00:00:00+00:00'
  :until_date: '2016-01-01T00:00:00+00:00'
  :unresolved_issue: ''
  :administrative_status: ''
  :previous_state: Incomplete
  :multiple_edit: false
  :by_authority:
    :id: aHR0cDovL3d3dy5hc3Nlcm8uY28udWsvUkEjRFVOUzEyMzQ1Njc4OQ==
    :uri: http://www.assero.co.uk/RA#DUNS123456789
    :rdf_type: http://www.assero.co.uk/ISO11179Registration#RegistrationAuthority
    :organization_identifier: '123456789'
    :international_code_designator: DUNS
    :owner: true
    :ra_namespace:
      :id: aHR0cDovL3d3dy5hc3Nlcm8uY28udWsvTlMjQUNNRQ==
      :uri: http://www.assero.co.uk/NS#ACME
      :rdf_type: http://www.assero.co.uk/ISO11179Identification#Namespace
      :short_name: ACME
      :name: ACME Pharma
      :authority: www.acme-pharma.com
:has_identifier:
  :id: aHR0cDovL3d3dy5hY21lLXBoYXJtYS5jb20vRl9CQVNFTElORS9WMSNGX1NJ
  :uri: http://www.acme-pharma.com/F_BASELINE/V1#F_SI
  :rdf_type: http://www.assero.co.uk/ISO11179Identification#ScopedIdentifier
  :identifier: F BASELINE
  :version_label: ''
  :version: 1
  :semantic_version: 0.1.0
  :has_scope:
    :id: aHR0cDovL3d3dy5hc3Nlcm8uY28udWsvTlMjQUNNRQ==
    :uri: http://www.assero.co.uk/NS#ACME
    :rdf_type: http://www.assero.co.uk/ISO11179Identification#Namespace
    :short_name: ACME
    :name: ACME Pharma
    :authority: www.acme-pharma.com
:has_previous_version: 
:origin: ''
:change_description: ''
:creation_date: '2019-09-21T11:18:11+02:00'
:last_change_date: '2021-02-28T14:01:47+01:00'
:explanatory_comment: ''
:note: ''
:completion: ''
:has_group:
- :id: 
  :uri: {}
  :rdf_type: http://www.assero.co.uk/BusinessForm#NormalGroup
  :label: Common
  :ordinal: 1
  :note: ''
  :completion: ''
  :optional: false
  :has_item:
  - :id: 
    :uri: {}
    :rdf_type: http://www.assero.co.uk/BusinessForm#Question
    :label: Site Number
    :ordinal: 1
    :note: ''
    :completion: ''
    :optional: false
    :datatype: string
    :format: '3'
    :mapping: SITEID
    :question_text: 'Site #'
    :has_coded_value: []
  - :id: 
    :uri: {}
    :rdf_type: http://www.assero.co.uk/BusinessForm#Question
    :label: Subject ID
    :ordinal: 2
    :note: ''
    :completion: ''
    :optional: false
    :datatype: string
    :format: '11'
    :mapping: USUBJID
    :question_text: 'Subject ID #'
    :has_coded_value: []
  - :id: 
    :uri: {}
    :rdf_type: http://www.assero.co.uk/BusinessForm#Question
    :label: Visit Date
    :ordinal: 3
    :note: ''
    :completion: ''
    :optional: false
    :datatype: date
    :format: ''
    :mapping: RFSTDTC
    :question_text: Visit Date
    :has_coded_value: []
  :repeating: false
  :has_sub_group: []
  :has_common: []
- :id: 
  :uri: {}
  :rdf_type: http://www.assero.co.uk/BusinessForm#NormalGroup
  :label: Demographics
  :ordinal: 2
  :note: ''
  :completion: ''
  :optional: false
  :has_item:
  - :id: 
    :uri: {}
    :rdf_type: http://www.assero.co.uk/BusinessForm#Question
    :label: Date of Birth
    :ordinal: 1
    :note: ''
    :completion: ''
    :optional: false
    :datatype: date
    :format: ''
    :mapping: BRTHDTC
    :question_text: Date of Birth
    :has_coded_value: []
  - :id: 
    :uri: {}
    :rdf_type: http://www.assero.co.uk/BusinessForm#Question
    :label: DM - Sex
    :ordinal: 2
    :note: ''
    :completion: ''
    :optional: false
    :datatype: string
    :format: '1'
    :mapping: SEX
    :question_text: Sex
    :has_coded_value:
    - :id: 
      :uri: {}
      :rdf_type: http://www.assero.co.uk/BusinessOperational#TucReference
      :label: ''
      :enabled: true
      :optional: false
      :ordinal: 1
      :reference: http://www.cdisc.org/C66731/V16#C66731_C20197
      :context: http://www.cdisc.org/C66731/V39#C66731
      :local_label: Male
    - :id: 
      :uri: {}
      :rdf_type: http://www.assero.co.uk/BusinessOperational#TucReference
      :label: ''
      :enabled: true
      :optional: false
      :ordinal: 2
      :reference: http://www.cdisc.org/C66731/V4#C66731_C16576
      :context: http://www.cdisc.org/C66731/V39#C66731
      :local_label: Female
  - :id: 
    :uri: {}
    :rdf_type: http://www.assero.co.uk/BusinessForm#Question
    :label: DM - Race
    :ordinal: 3
    :note: ''
    :completion: ''
    :optional: false
    :datatype: string
    :format: '20'
    :mapping: RACE
    :question_text: Race
    :has_coded_value:
    - :id: 
      :uri: {}
      :rdf_type: http://www.assero.co.uk/BusinessOperational#TucReference
      :label: ''
      :enabled: true
      :optional: false
      :ordinal: 1
      :reference: http://www.cdisc.org/C74457/V10#C74457_C41260
      :context: http://www.cdisc.org/C74457/V49#C74457
      :local_label: Asian
  :repeating: false
  :has_sub_group: []
  :has_common: []
- :id: 
  :uri: {}
  :rdf_type: http://www.assero.co.uk/BusinessForm#NormalGroup
  :label: Smoking History
  :ordinal: 3
  :note: ''
  :completion: ''
  :optional: false
  :has_item:
  - :id: 
    :uri: {}
    :rdf_type: http://www.assero.co.uk/BusinessForm#Question
    :label: Smoking
    :ordinal: 1
    :note: |2-


      Terminology Search:
      ["* No entries found for code list, parameters ['notation=SMOKE'].\n", "* No entries found for code list, parameters ['notation=CLSMOKING'].\n", "* No entries found for code list, parameters ['identifier='].\n", "* No entries found for code list, parameters ['label=Smoking'].\n"]
    :completion: ''
    :optional: false
    :datatype: string
    :format: '20'
    :mapping: SUDOSE
    :question_text: Number of cigarettes per day
    :has_coded_value: []
  :repeating: false
  :has_sub_group: []
  :has_common: []
- :id: 
  :uri: {}
  :rdf_type: http://www.assero.co.uk/BusinessForm#NormalGroup
  :label: Drinking History
  :ordinal: 4
  :note: ''
  :completion: ''
  :optional: false
  :has_item:
  - :id: 
    :uri: {}
    :rdf_type: http://www.assero.co.uk/BusinessForm#Question
    :label: Drinking
    :ordinal: 1
    :note: |2-


      Terminology Search:
      ["* No entries found for code list, parameters ['notation=DRINK'].\n", "* No entries found for code list, parameters ['notation=CLDRINKING'].\n", "* No entries found for code list, parameters ['identifier='].\n", "* No entries found for code list, parameters ['label=Drinking'].\n"]
    :completion: ''
    :optional: false
    :datatype: string
    :format: '20'
    :mapping: SUDOSE
    :question_text: Number of alcoholic drinks per day
    :has_coded_value: []
  :repeating: false
  :has_sub_group: []
  :has_common: []
- :id: 
  :uri: {}
  :rdf_type: http://www.assero.co.uk/BusinessForm#NormalGroup
  :label: Physical Exam
  :ordinal: 5
  :note: ''
  :completion: ''
  :optional: false
  :has_item:
  - :id: 
    :uri: {}
    :rdf_type: http://www.assero.co.uk/BusinessForm#Question
    :label: Height
    :ordinal: 1
    :note: ''
    :completion: ''
    :optional: false
    :datatype: integer
    :format: '3'
    :mapping: VSORRES
    :question_text: Height
    :has_coded_value: []
  - :id: 
    :uri: {}
    :rdf_type: http://www.assero.co.uk/BusinessForm#Question
    :label: Height units
    :ordinal: 2
    :note: "* Multiple entries [C48500,C48500] found for parameters ['notation=in'],
      using first found.\n"
    :completion: ''
    :optional: false
    :datatype: string
    :format: '20'
    :mapping: "[NO MAPPING]"
    :question_text: Height units
    :has_coded_value:
    - :id: 
      :uri: {}
      :rdf_type: http://www.assero.co.uk/BusinessOperational#TucReference
      :label: ''
      :enabled: true
      :optional: false
      :ordinal: 1
      :reference: http://www.cdisc.org/C71620/V42#C71620_C48500
      :context: http://www.cdisc.org/C71620/V49#C71620
      :local_label: Inch
  - :id: 
    :uri: {}
    :rdf_type: http://www.assero.co.uk/BusinessForm#Question
    :label: Weight
    :ordinal: 3
    :note: ''
    :completion: ''
    :optional: false
    :datatype: integer
    :format: '3'
    :mapping: VSORRES
    :question_text: Weight
    :has_coded_value: []
  - :id: 
    :uri: {}
    :rdf_type: http://www.assero.co.uk/BusinessForm#Question
    :label: Weight units
    :ordinal: 4
    :note: "* No entries found for parameters ['notation=lbs'].\n"
    :completion: ''
    :optional: false
    :datatype: string
    :format: '20'
    :mapping: "[NO MAPPING]"
    :question_text: Weight units
    :has_coded_value: []
  - :id: 
    :uri: {}
    :rdf_type: http://www.assero.co.uk/BusinessForm#Question
    :label: Systolic BP
    :ordinal: 5
    :note: ''
    :completion: ''
    :optional: false
    :datatype: integer
    :format: '3'
    :mapping: VSORRES
    :question_text: Systolic BP
    :has_coded_value: []
  - :id: 
    :uri: {}
    :rdf_type: http://www.assero.co.uk/BusinessForm#Question
    :label: Systolic BP units
    :ordinal: 6
    :note: "* No entries found for parameters ['notation=mm Hg'].\n"
    :completion: ''
    :optional: false
    :datatype: string
    :format: '20'
    :mapping: "[NO MAPPING]"
    :question_text: Systolic BP units
    :has_coded_value: []
  - :id: 
    :uri: {}
    :rdf_type: http://www.assero.co.uk/BusinessForm#Question
    :label: Diastolic BP
    :ordinal: 7
    :note: ''
    :completion: ''
    :optional: false
    :datatype: integer
    :format: '3'
    :mapping: VSORRES
    :question_text: Diastolic BP
    :has_coded_value: []
  - :id: 
    :uri: {}
    :rdf_type: http://www.assero.co.uk/BusinessForm#Question
    :label: Diastolic BP units
    :ordinal: 8
    :note: "* No entries found for parameters ['notation=mm Hg'].\n"
    :completion: ''
    :optional: false
    :datatype: string
    :format: '20'
    :mapping: "[NO MAPPING]"
    :question_text: Diastolic BP units
    :has_coded_value: []
  :repeating: false
  :has_sub_group: []
  :has_common: []
