---
:id: aHR0cDovL3d3dy5hY21lLXBoYXJtYS5jb20vRl9BRS9WMSNG
:uri: http://www.acme-pharma.com/F_AE/V1#F
:rdf_type: http://www.assero.co.uk/BusinessForm#Form
:label: Adverse Event Form (ACRO)
:has_state:
  :id: aHR0cDovL3d3dy5hY21lLXBoYXJtYS5jb20vRl9BRS9WMSNGX1JT
  :uri: http://www.acme-pharma.com/F_AE/V1#F_RS
  :rdf_type: http://www.assero.co.uk/ISO11179Registration#RegistrationState
  :registration_status: Incomplete
  :administrative_note: ''
  :effective_date: '2016-01-01T00:00:00+00:00'
  :until_date: '2016-01-01T00:00:00+00:00'
  :unresolved_issue: ''
  :administrative_status: ''
  :previous_state: Incomplete
  :multiple_edit: false
  :by_authority:
    :id: aHR0cDovL3d3dy5hc3Nlcm8uY28udWsvUkEjRFVOUzEyMzQ1Njc4OQ==
    :uri: http://www.assero.co.uk/RA#DUNS123456789
    :rdf_type: http://www.assero.co.uk/ISO11179Registration#RegistrationAuthority
    :organization_identifier: '123456789'
    :international_code_designator: DUNS
    :owner: true
    :ra_namespace:
      :id: aHR0cDovL3d3dy5hc3Nlcm8uY28udWsvTlMjQUNNRQ==
      :uri: http://www.assero.co.uk/NS#ACME
      :rdf_type: http://www.assero.co.uk/ISO11179Identification#Namespace
      :short_name: ACME
      :name: ACME Pharma
      :authority: www.acme-pharma.com
:has_identifier:
  :id: aHR0cDovL3d3dy5hY21lLXBoYXJtYS5jb20vRl9BRS9WMSNGX1NJ
  :uri: http://www.acme-pharma.com/F_AE/V1#F_SI
  :rdf_type: http://www.assero.co.uk/ISO11179Identification#ScopedIdentifier
  :identifier: F AE
  :version_label: ''
  :version: 1
  :semantic_version: 0.1.0
  :has_scope:
    :id: aHR0cDovL3d3dy5hc3Nlcm8uY28udWsvTlMjQUNNRQ==
    :uri: http://www.assero.co.uk/NS#ACME
    :rdf_type: http://www.assero.co.uk/ISO11179Identification#Namespace
    :short_name: ACME
    :name: ACME Pharma
    :authority: www.acme-pharma.com
:has_previous_version: 
:origin: ''
:change_description: ''
:creation_date: '2016-01-01T00:00:00+00:00'
:last_change_date: '2021-02-28T14:01:49+01:00'
:explanatory_comment: ''
:note: ''
:completion: ''
:has_group:
- :id: 
  :uri: {}
  :rdf_type: http://www.assero.co.uk/BusinessForm#NormalGroup
  :label: Common
  :ordinal: 1
  :note: ''
  :completion: ''
  :optional: false
  :has_item:
  - :id: 
    :uri: {}
    :rdf_type: http://www.assero.co.uk/BusinessForm#Question
    :label: Site Number
    :ordinal: 1
    :note: ''
    :completion: ''
    :optional: false
    :datatype: string
    :format: '3'
    :mapping: SITEID
    :question_text: 'Site #'
    :has_coded_value: []
  - :id: 
    :uri: {}
    :rdf_type: http://www.assero.co.uk/BusinessForm#Question
    :label: Subject ID
    :ordinal: 2
    :note: ''
    :completion: ''
    :optional: false
    :datatype: string
    :format: '11'
    :mapping: USUBJID
    :question_text: 'Subject ID #'
    :has_coded_value: []
  - :id: 
    :uri: {}
    :rdf_type: http://www.assero.co.uk/BusinessForm#Question
    :label: Visit Date
    :ordinal: 3
    :note: ''
    :completion: ''
    :optional: false
    :datatype: date
    :format: ''
    :mapping: RFSTDTC
    :question_text: Visit Date
    :has_coded_value: []
  :repeating: false
  :has_sub_group: []
  :has_common: []
- :id: 
  :uri: {}
  :rdf_type: http://www.assero.co.uk/BusinessForm#NormalGroup
  :label: Adverse Events Occurred
  :ordinal: 2
  :note: ''
  :completion: ''
  :optional: false
  :has_item:
  - :id: 
    :uri: {}
    :rdf_type: http://www.assero.co.uk/BusinessForm#Question
    :label: Adverse Event Experienced
    :ordinal: 1
    :note: |2-


      Terminology Search:
      * No entries found for code list, parameters ['notation=NOYES'].
      * No entries found for code list, parameters ['notation=CLNOYES'].
      * No entries found for code list, parameters ['identifier='].
      * No entries found for code list, parameters ['label=No Yes'].
    :completion: ''
    :optional: false
    :datatype: string
    :format: '1'
    :mapping: "[NO MAPPING]"
    :question_text: Has the subject experienced any adverse events
    :has_coded_value: []
  :repeating: false
  :has_sub_group: []
  :has_common: []
- :id: 
  :uri: {}
  :rdf_type: http://www.assero.co.uk/BusinessForm#NormalGroup
  :label: Adverse Event
  :ordinal: 3
  :note: ''
  :completion: ''
  :optional: false
  :has_item:
  - :id: 
    :uri: {}
    :rdf_type: http://www.assero.co.uk/BusinessForm#Question
    :label: Adverse Event Number
    :ordinal: 1
    :note: ''
    :completion: ''
    :optional: false
    :datatype: integer
    :format: '3'
    :mapping: AESPID
    :question_text: Event No.
    :has_coded_value: []
  - :id: 
    :uri: {}
    :rdf_type: http://www.assero.co.uk/BusinessForm#Question
    :label: Adverse Event Term
    :ordinal: 2
    :note: ''
    :completion: ''
    :optional: false
    :datatype: string
    :format: '255'
    :mapping: AETERM
    :question_text: Adverse event
    :has_coded_value: []
  - :id: 
    :uri: {}
    :rdf_type: http://www.assero.co.uk/BusinessForm#Question
    :label: Adverse Event Start Date
    :ordinal: 3
    :note: ''
    :completion: ''
    :optional: false
    :datatype: date
    :format: ''
    :mapping: AESTDTC
    :question_text: Start Date
    :has_coded_value: []
  - :id: 
    :uri: {}
    :rdf_type: http://www.assero.co.uk/BusinessForm#Question
    :label: Adverse Event Stop Date
    :ordinal: 4
    :note: ''
    :completion: ''
    :optional: false
    :datatype: date
    :format: ''
    :mapping: AEENDTC
    :question_text: Stop Date
    :has_coded_value: []
  - :id: 
    :uri: {}
    :rdf_type: http://www.assero.co.uk/BusinessForm#Question
    :label: Adverse Event Continues
    :ordinal: 5
    :note: |2-


      Terminology Search:
      * No entries found for code list, parameters ['notation=NOYES'].
      * No entries found for code list, parameters ['notation=CLNOYES'].
      * No entries found for code list, parameters ['identifier='].
      * No entries found for code list, parameters ['label=No Yes'].
    :completion: ''
    :optional: false
    :datatype: string
    :format: '1'
    :mapping: AEENRF
    :question_text: Mark if event is still continuing
    :has_coded_value: []
  - :id: 
    :uri: {}
    :rdf_type: http://www.assero.co.uk/BusinessForm#Question
    :label: Adverse Event Serious
    :ordinal: 6
    :note: |2-


      Terminology Search:
      * No entries found for code list, parameters ['notation=NOYES'].
      * No entries found for code list, parameters ['notation=CLNOYES'].
      * No entries found for code list, parameters ['identifier='].
      * No entries found for code list, parameters ['label=No Yes'].
    :completion: ''
    :optional: false
    :datatype: string
    :format: '1'
    :mapping: AESER
    :question_text: Was event serious
    :has_coded_value: []
  - :id: 
    :uri: {}
    :rdf_type: http://www.assero.co.uk/BusinessForm#Question
    :label: Adverse Event Severity
    :ordinal: 7
    :note: ''
    :completion: ''
    :optional: false
    :datatype: string
    :format: '1'
    :mapping: AESEV
    :question_text: Severity
    :has_coded_value: []
  - :id: 
    :uri: {}
    :rdf_type: http://www.assero.co.uk/BusinessForm#Question
    :label: Adverse Event Related
    :ordinal: 8
    :note: |2-


      Terminology Search:
      * No entries found for code list, parameters ['notation=NOYES'].
      * No entries found for code list, parameters ['notation=CLNOYES'].
      * No entries found for code list, parameters ['identifier='].
      * No entries found for code list, parameters ['label=No Yes'].
    :completion: ''
    :optional: false
    :datatype: string
    :format: '1'
    :mapping: AEREL
    :question_text: Is there a reasonable possibility that the AE may have been caused
      by the study drug
    :has_coded_value: []
  - :id: 
    :uri: {}
    :rdf_type: http://www.assero.co.uk/BusinessForm#Question
    :label: Adverse Event Action Taken
    :ordinal: 9
    :note: |2-


      Terminology Search:
      * No entries found for code list, parameters ['notation=AEACTION'].
      * No entries found for code list, parameters ['notation=CLAEACTION'].
      * No entries found for code list, parameters ['identifier='].
      * No entries found for code list, parameters ['label=Adverse Event Action Taken'].
    :completion: ''
    :optional: false
    :datatype: string
    :format: '1'
    :mapping: AEACN
    :question_text: Action taken with study drug
    :has_coded_value: []
  - :id: 
    :uri: {}
    :rdf_type: http://www.assero.co.uk/BusinessForm#Question
    :label: Adverse Event Subject Outcome
    :ordinal: 10
    :note: |2-


      Terminology Search:
      * No entries found for code list, parameters ['notation=AEOUT'].
      * No entries found for code list, parameters ['notation=CLAEOUTCOME'].
      * No entries found for code list, parameters ['identifier='].
      * No entries found for code list, parameters ['label=Adverse Event Action Taken'].
    :completion: ''
    :optional: false
    :datatype: string
    :format: '1'
    :mapping: AEOUT
    :question_text: Subject outcome
    :has_coded_value: []
  :repeating: false
  :has_sub_group: []
  :has_common: []
