@prefix : <http://www.assero.co.uk/MDRAdamIgT/CDISC/V2#> .
@prefix rdf: <http://www.w3.org/1999/02/22-rdf-syntax-ns#> .
@prefix rdfs: <http://www.w3.org/2000/01/rdf-schema#> .
@prefix isoR: <http://www.assero.co.uk/ISO11179Registration#> .
@prefix mdrItems: <http://www.assero.co.uk/MDRItems#> .
@prefix isoI: <http://www.assero.co.uk/ISO11179Identification#> .
@prefix isoT: <http://www.assero.co.uk/ISO11179Types#> .
@prefix bo: <http://www.assero.co.uk/BusinessOperational#> .
@prefix bd: <http://www.assero.co.uk/BusinessDomain#> .
@prefix owl: <http://www.w3.org/2002/07/owl#> .
@prefix xsd: <http://www.w3.org/2001/XMLSchema#> .
@prefix skos: <http://www.w3.org/2004/02/skos/core#> .

<http://www.assero.co.uk/MDRAdamIgT/CDISC/V2>
	rdf:type owl:Ontology ;
.
<http://www.assero.co.uk/MDRAdamIg/CDISC/V2#AIG-CDISC_ADAMIG_DT_CHARACTER>
	rdf:type <http://www.assero.co.uk/BusinessDomain#VariableType> ;
	rdfs:label "Character"^^xsd:string ;
.
<http://www.assero.co.uk/MDRAdamIg/CDISC/V2#AIG-CDISC_ADAMIG_DT_NUMERIC>
	rdf:type <http://www.assero.co.uk/BusinessDomain#VariableType> ;
	rdfs:label "Numeric"^^xsd:string ;
.
<http://www.assero.co.uk/MDRAdamIg/CDISC/V2#AIG-CDISC_ADAMIG_C_REQUIRED>
	rdf:type <http://www.assero.co.uk/BusinessDomain#VariableCompliance> ;
	rdfs:label "Required"^^xsd:string ;
.
<http://www.assero.co.uk/MDRAdamIg/CDISC/V2#AIG-CDISC_ADAMIG_C_PERMISSIBLE>
	rdf:type <http://www.assero.co.uk/BusinessDomain#VariableCompliance> ;
	rdfs:label "Permissible"^^xsd:string ;
.
<http://www.assero.co.uk/MDRAdamIg/CDISC/V2#AIG-CDISC_ADAMIG_C_CONDITIONAL>
	rdf:type <http://www.assero.co.uk/BusinessDomain#VariableCompliance> ;
	rdfs:label "Conditional"^^xsd:string ;
.
:AIG-CDISC_ADAMIG
	rdf:type <http://www.assero.co.uk/BusinessDomain#ADaMImplementationGuide> ;
	rdfs:label "ADaM Implementation Guide"^^xsd:string ;
	isoI:hasIdentifier <http://www.assero.co.uk/MDRItems#SI-CDISC_ADAMIG-2> ;
	isoR:hasState <http://www.assero.co.uk/MDRItems#RS-CDISC_ADAMIG-2> ;
	isoT:creationDate "2019-01-23T00:00:00+00:00"^^xsd:dateTime ;
	isoT:lastChangeDate "2019-01-23T00:00:00+00:00"^^xsd:dateTime ;
	isoT:changeDescription ""^^xsd:string ;
	isoT:explanatoryComment ""^^xsd:string ;
	isoT:origin ""^^xsd:string ;
	bd:includesTabulation :AIG-CDISC_ADAMIG_TR1 ;
	bd:includesTabulation :AIG-CDISC_ADAMIG_TR2 ;
.
<http://www.assero.co.uk/MDRItems#RS-CDISC_ADAMIG-2>
	rdf:type isoR:RegistrationState ;
	isoR:byAuthority mdrItems:RA-084433759 ;
	isoR:registrationStatus "Standard"^^xsd:string ;
	isoR:administrativeNote ""^^xsd:string ;
	isoR:effectiveDate "2016-01-01T00:00:00+00:00"^^xsd:dateTime ;
	isoR:untilDate "2016-01-01T00:00:00+00:00"^^xsd:dateTime ;
	isoR:unresolvedIssue ""^^xsd:string ;
	isoR:administrativeStatus ""^^xsd:string ;
	isoR:previousState "Incomplete"^^xsd:string ;
.
<http://www.assero.co.uk/MDRItems#SI-CDISC_ADAMIG-2>
	isoI:identifier "ADAM IG"^^xsd:string ;
	rdf:type isoI:ScopedIdentifier ;
	isoI:version "2"^^xsd:positiveInteger ;
	isoI:versionLabel "1.1.0"^^xsd:string ;
	isoI:semantic_version "1.1.0"^^xsd:string ;
	isoI:hasScope mdrItems:NS-CDISC ;
.
:AIG-CDISC_ADAMIG_TR1
	rdf:type <http://www.assero.co.uk/BusinessOperational#TReference> ;
	rdfs:label "Tabulation Reference"^^xsd:string ;
	bo:hasTabulation <http://www.assero.co.uk/MDRAdamIgT/CDISC/V2#AIG-CDISC_ADAMIGADSL> ;
	bo:enabled "true"^^xsd:boolean ;
	bo:optional "false"^^xsd:boolean ;
	bo:ordinal "1"^^xsd:positiveInteger ;
	bo:local_label ""^^xsd:string ;
.
:AIG-CDISC_ADAMIG_TR2
	rdf:type <http://www.assero.co.uk/BusinessOperational#TReference> ;
	rdfs:label "Tabulation Reference"^^xsd:string ;
	bo:hasTabulation <http://www.assero.co.uk/MDRAdamIgT/CDISC/V2#AIG-CDISC_ADAMIGBDS> ;
	bo:enabled "true"^^xsd:boolean ;
	bo:optional "false"^^xsd:boolean ;
	bo:ordinal "2"^^xsd:positiveInteger ;
	bo:local_label ""^^xsd:string ;
.
:AIG-CDISC_ADAMIGADSL
	rdf:type <http://www.assero.co.uk/BusinessDomain#IgDataset> ;
	rdfs:label "Subject Level Analysis Dataset"^^xsd:string ;
	isoI:hasIdentifier <http://www.assero.co.uk/MDRItems#SI-CDISC_ADAMIGADSL-2> ;
	isoR:hasState <http://www.assero.co.uk/MDRItems#RS-CDISC_ADAMIGADSL-2> ;
	isoT:creationDate "2019-01-23T00:00:00+00:00"^^xsd:dateTime ;
	isoT:lastChangeDate "2019-01-23T00:00:00+00:00"^^xsd:dateTime ;
	isoT:changeDescription ""^^xsd:string ;
	isoT:explanatoryComment ""^^xsd:string ;
	isoT:origin ""^^xsd:string ;
	bd:ordinal "1"^^xsd:positiveInteger ;
	bd:rule ""^^xsd:string ;
	bd:prefix "--"^^xsd:string ;
	bd:structure ""^^xsd:string ;
	bd:includesColumn :AIG-CDISC_ADAMIGADSL_STUDYID ;
	bd:includesColumn :AIG-CDISC_ADAMIGADSL_USUBJID ;
	bd:includesColumn :AIG-CDISC_ADAMIGADSL_SUBJID ;
	bd:includesColumn :AIG-CDISC_ADAMIGADSL_SITEID ;
	bd:includesColumn :AIG-CDISC_ADAMIGADSL_SITEGRy ;
	bd:includesColumn :AIG-CDISC_ADAMIGADSL_SITEGRyN ;
	bd:includesColumn :AIG-CDISC_ADAMIGADSL_REGIONy ;
	bd:includesColumn :AIG-CDISC_ADAMIGADSL_REGIONyN ;
	bd:includesColumn :AIG-CDISC_ADAMIGADSL_AGE ;
	bd:includesColumn :AIG-CDISC_ADAMIGADSL_AGEU ;
	bd:includesColumn :AIG-CDISC_ADAMIGADSL_AGEGRy ;
	bd:includesColumn :AIG-CDISC_ADAMIGADSL_AGEGRyN ;
	bd:includesColumn :AIG-CDISC_ADAMIGADSL_AAGE ;
	bd:includesColumn :AIG-CDISC_ADAMIGADSL_SEX ;
	bd:includesColumn :AIG-CDISC_ADAMIGADSL_RACE ;
	bd:includesColumn :AIG-CDISC_ADAMIGADSL_RACEGRy ;
	bd:includesColumn :AIG-CDISC_ADAMIGADSL_RACEGRyN ;
	bd:includesColumn :AIG-CDISC_ADAMIGADSL_FASFL ;
	bd:includesColumn :AIG-CDISC_ADAMIGADSL_SAFFL ;
	bd:includesColumn :AIG-CDISC_ADAMIGADSL_ITTFL ;
	bd:includesColumn :AIG-CDISC_ADAMIGADSL_PPROTFL ;
	bd:includesColumn :AIG-CDISC_ADAMIGADSL_COMPLFL ;
	bd:includesColumn :AIG-CDISC_ADAMIGADSL_RANDFL ;
	bd:includesColumn :AIG-CDISC_ADAMIGADSL_ENRLFL ;
	bd:includesColumn :AIG-CDISC_ADAMIGADSL_ARM ;
	bd:includesColumn :AIG-CDISC_ADAMIGADSL_ACTARM ;
	bd:includesColumn :AIG-CDISC_ADAMIGADSL_TRTxxP ;
	bd:includesColumn :AIG-CDISC_ADAMIGADSL_TRTxxPN ;
	bd:includesColumn :AIG-CDISC_ADAMIGADSL_TRTxxA ;
	bd:includesColumn :AIG-CDISC_ADAMIGADSL_TRTxxAN ;
	bd:includesColumn :AIG-CDISC_ADAMIGADSL_TRTSEQP ;
	bd:includesColumn :AIG-CDISC_ADAMIGADSL_TRTSEQPN ;
	bd:includesColumn :AIG-CDISC_ADAMIGADSL_TRTSEQA ;
	bd:includesColumn :AIG-CDISC_ADAMIGADSL_TRTSEQAN ;
	bd:includesColumn :AIG-CDISC_ADAMIGADSL_TRxxPGy ;
	bd:includesColumn :AIG-CDISC_ADAMIGADSL_TRxxPGyN ;
	bd:includesColumn :AIG-CDISC_ADAMIGADSL_TRxxAGy ;
	bd:includesColumn :AIG-CDISC_ADAMIGADSL_TRxxAGyN ;
	bd:includesColumn :AIG-CDISC_ADAMIGADSL_TSEQPGy ;
	bd:includesColumn :AIG-CDISC_ADAMIGADSL_TSEQPGyN ;
	bd:includesColumn :AIG-CDISC_ADAMIGADSL_TSEQAGy ;
	bd:includesColumn :AIG-CDISC_ADAMIGADSL_TSEQAGyN ;
	bd:includesColumn :AIG-CDISC_ADAMIGADSL_DOSExxP ;
	bd:includesColumn :AIG-CDISC_ADAMIGADSL_DOSExxA ;
	bd:includesColumn :AIG-CDISC_ADAMIGADSL_DOSExxU ;
	bd:includesColumn :AIG-CDISC_ADAMIGADSL_TRTSDT ;
	bd:includesColumn :AIG-CDISC_ADAMIGADSL_TRTSTM ;
	bd:includesColumn :AIG-CDISC_ADAMIGADSL_TRTSDTM ;
	bd:includesColumn :AIG-CDISC_ADAMIGADSL_TRTSDTF ;
	bd:includesColumn :AIG-CDISC_ADAMIGADSL_TRTSTMF ;
	bd:includesColumn :AIG-CDISC_ADAMIGADSL_TRTEDT ;
	bd:includesColumn :AIG-CDISC_ADAMIGADSL_TRTETM ;
	bd:includesColumn :AIG-CDISC_ADAMIGADSL_TRTEDTM ;
	bd:includesColumn :AIG-CDISC_ADAMIGADSL_TRTEDTF ;
	bd:includesColumn :AIG-CDISC_ADAMIGADSL_TRTETMF ;
	bd:includesColumn :AIG-CDISC_ADAMIGADSL_TRxxSDT ;
	bd:includesColumn :AIG-CDISC_ADAMIGADSL_TRxxSTM ;
	bd:includesColumn :AIG-CDISC_ADAMIGADSL_TRxxSDTM ;
	bd:includesColumn :AIG-CDISC_ADAMIGADSL_TRxxSDTF ;
	bd:includesColumn :AIG-CDISC_ADAMIGADSL_TRxxSTMF ;
	bd:includesColumn :AIG-CDISC_ADAMIGADSL_TRxxEDT ;
	bd:includesColumn :AIG-CDISC_ADAMIGADSL_TRxxETM ;
	bd:includesColumn :AIG-CDISC_ADAMIGADSL_TRxxEDTM ;
	bd:includesColumn :AIG-CDISC_ADAMIGADSL_TRxxEDTF ;
	bd:includesColumn :AIG-CDISC_ADAMIGADSL_TRxxETMF ;
	bd:includesColumn :AIG-CDISC_ADAMIGADSL_APxxSDT ;
	bd:includesColumn :AIG-CDISC_ADAMIGADSL_APxxSTM ;
	bd:includesColumn :AIG-CDISC_ADAMIGADSL_APxxSDTM ;
	bd:includesColumn :AIG-CDISC_ADAMIGADSL_APxxSDTF ;
	bd:includesColumn :AIG-CDISC_ADAMIGADSL_APxxSTMF ;
	bd:includesColumn :AIG-CDISC_ADAMIGADSL_APxxEDT ;
	bd:includesColumn :AIG-CDISC_ADAMIGADSL_APxxETM ;
	bd:includesColumn :AIG-CDISC_ADAMIGADSL_APxxEDTM ;
	bd:includesColumn :AIG-CDISC_ADAMIGADSL_APxxEDTF ;
	bd:includesColumn :AIG-CDISC_ADAMIGADSL_APxxETMF ;
	bd:includesColumn :AIG-CDISC_ADAMIGADSL_PxxSw ;
	bd:includesColumn :AIG-CDISC_ADAMIGADSL_PxxSwSDT ;
	bd:includesColumn :AIG-CDISC_ADAMIGADSL_PxxSwSTM ;
	bd:includesColumn :AIG-CDISC_ADAMIGADSL_PxxSwSDM ;
	bd:includesColumn :AIG-CDISC_ADAMIGADSL_PxxSwSDF ;
	bd:includesColumn :AIG-CDISC_ADAMIGADSL_PxxSwSTF ;
	bd:includesColumn :AIG-CDISC_ADAMIGADSL_PxxSwEDT ;
	bd:includesColumn :AIG-CDISC_ADAMIGADSL_PxxSwETM ;
	bd:includesColumn :AIG-CDISC_ADAMIGADSL_PxxSwEDM ;
	bd:includesColumn :AIG-CDISC_ADAMIGADSL_PxxSwEDF ;
	bd:includesColumn :AIG-CDISC_ADAMIGADSL_PxxSwETF ;
	bd:includesColumn :AIG-CDISC_ADAMIGADSL_APHASEw ;
	bd:includesColumn :AIG-CDISC_ADAMIGADSL_PHwSDT ;
	bd:includesColumn :AIG-CDISC_ADAMIGADSL_PHwSTM ;
	bd:includesColumn :AIG-CDISC_ADAMIGADSL_PHwSDTM ;
	bd:includesColumn :AIG-CDISC_ADAMIGADSL_PHwSDTF ;
	bd:includesColumn :AIG-CDISC_ADAMIGADSL_PHwSTMF ;
	bd:includesColumn :AIG-CDISC_ADAMIGADSL_PHwEDT ;
	bd:includesColumn :AIG-CDISC_ADAMIGADSL_PHwETM ;
	bd:includesColumn :AIG-CDISC_ADAMIGADSL_PHwEDTM ;
	bd:includesColumn :AIG-CDISC_ADAMIGADSL_PHwEDTF ;
	bd:includesColumn :AIG-CDISC_ADAMIGADSL_PHwETMF ;
	bd:includesColumn :AIG-CDISC_ADAMIGADSL_EOSSTT ;
	bd:includesColumn :AIG-CDISC_ADAMIGADSL_EOSDT ;
	bd:includesColumn :AIG-CDISC_ADAMIGADSL_DCSREAS ;
	bd:includesColumn :AIG-CDISC_ADAMIGADSL_DCSREASP ;
	bd:includesColumn :AIG-CDISC_ADAMIGADSL_EOTSTT ;
	bd:includesColumn :AIG-CDISC_ADAMIGADSL_DCTREAS ;
	bd:includesColumn :AIG-CDISC_ADAMIGADSL_DCTREASP ;
	bd:includesColumn :AIG-CDISC_ADAMIGADSL_EOTxxSTT ;
	bd:includesColumn :AIG-CDISC_ADAMIGADSL_DCTxxRS ;
	bd:includesColumn :AIG-CDISC_ADAMIGADSL_DCTxxRSP ;
	bd:includesColumn :AIG-CDISC_ADAMIGADSL_EOPxxSTT ;
	bd:includesColumn :AIG-CDISC_ADAMIGADSL_DCPxxRS ;
	bd:includesColumn :AIG-CDISC_ADAMIGADSL_DCPxxRSP ;
	bd:includesColumn :AIG-CDISC_ADAMIGADSL_RFICDT ;
	bd:includesColumn :AIG-CDISC_ADAMIGADSL_ENRLDT ;
	bd:includesColumn :AIG-CDISC_ADAMIGADSL_RANDDT ;
	bd:includesColumn :AIG-CDISC_ADAMIGADSL_RFICyDT ;
	bd:includesColumn :AIG-CDISC_ADAMIGADSL_ENRLyDT ;
	bd:includesColumn :AIG-CDISC_ADAMIGADSL_RANDyDT ;
	bd:includesColumn :AIG-CDISC_ADAMIGADSL_LSTALVDT ;
	bd:includesColumn :AIG-CDISC_ADAMIGADSL_TRCMP ;
	bd:includesColumn :AIG-CDISC_ADAMIGADSL_TRCMPGy ;
	bd:includesColumn :AIG-CDISC_ADAMIGADSL_TRCMPGyN ;
	bd:includesColumn :AIG-CDISC_ADAMIGADSL_TRxxDURD ;
	bd:includesColumn :AIG-CDISC_ADAMIGADSL_TRxxDURM ;
	bd:includesColumn :AIG-CDISC_ADAMIGADSL_TRxxDURY ;
	bd:includesColumn :AIG-CDISC_ADAMIGADSL_TRTDURD ;
	bd:includesColumn :AIG-CDISC_ADAMIGADSL_TRTDURM ;
	bd:includesColumn :AIG-CDISC_ADAMIGADSL_TRTDURY ;
	bd:includesColumn :AIG-CDISC_ADAMIGADSL_DTHDT ;
	bd:includesColumn :AIG-CDISC_ADAMIGADSL_DTHDTF ;
	bd:includesColumn :AIG-CDISC_ADAMIGADSL_DTHCAUS ;
	bd:includesColumn :AIG-CDISC_ADAMIGADSL_DTHCAUSN ;
	bd:includesColumn :AIG-CDISC_ADAMIGADSL_DTHCGRy ;
	bd:includesColumn :AIG-CDISC_ADAMIGADSL_DTHCGRyN ;
.
<http://www.assero.co.uk/MDRItems#RS-CDISC_ADAMIGADSL-2>
	rdf:type isoR:RegistrationState ;
	isoR:byAuthority mdrItems:RA-084433759 ;
	isoR:registrationStatus "Standard"^^xsd:string ;
	isoR:administrativeNote ""^^xsd:string ;
	isoR:effectiveDate "2016-01-01T00:00:00+00:00"^^xsd:dateTime ;
	isoR:untilDate "2016-01-01T00:00:00+00:00"^^xsd:dateTime ;
	isoR:unresolvedIssue ""^^xsd:string ;
	isoR:administrativeStatus ""^^xsd:string ;
	isoR:previousState "Incomplete"^^xsd:string ;
.
<http://www.assero.co.uk/MDRItems#SI-CDISC_ADAMIGADSL-2>
	isoI:identifier "ADAMIG ADSL"^^xsd:string ;
	rdf:type isoI:ScopedIdentifier ;
	isoI:version "2"^^xsd:positiveInteger ;
	isoI:versionLabel "1.1.0"^^xsd:string ;
	isoI:semantic_version "1.1.0"^^xsd:string ;
	isoI:hasScope mdrItems:NS-CDISC ;
.
:AIG-CDISC_ADAMIGADSL_STUDYID
	rdf:type <http://www.assero.co.uk/BusinessDomain#IgVariable> ;
	rdfs:label "Study Identifier"^^xsd:string ;
	bd:ordinal "1"^^xsd:positiveInteger ;
	bd:rule ""^^xsd:string ;
	bd:name "STUDYID"^^xsd:string ;
	bd:ct ""^^xsd:string ;
	bd:ct_notes ""^^xsd:string ;
	bd:notes "DM.STUDYID"^^xsd:string ;
	bd:compliance <http://www.assero.co.uk/MDRAdamIg/CDISC/V2#AIG-CDISC_ADAMIG_C_REQUIRED> ;
	bd:typedAs <http://www.assero.co.uk/MDRAdamIg/CDISC/V2#AIG-CDISC_ADAMIG_DT_CHARACTER> ;
.
:AIG-CDISC_ADAMIGADSL_USUBJID
	rdf:type <http://www.assero.co.uk/BusinessDomain#IgVariable> ;
	rdfs:label "Unique Subject Identifier"^^xsd:string ;
	bd:ordinal "2"^^xsd:positiveInteger ;
	bd:rule ""^^xsd:string ;
	bd:name "USUBJID"^^xsd:string ;
	bd:ct ""^^xsd:string ;
	bd:ct_notes ""^^xsd:string ;
	bd:notes "DM.USUBJID"^^xsd:string ;
	bd:compliance <http://www.assero.co.uk/MDRAdamIg/CDISC/V2#AIG-CDISC_ADAMIG_C_REQUIRED> ;
	bd:typedAs <http://www.assero.co.uk/MDRAdamIg/CDISC/V2#AIG-CDISC_ADAMIG_DT_CHARACTER> ;
.
:AIG-CDISC_ADAMIGADSL_SUBJID
	rdf:type <http://www.assero.co.uk/BusinessDomain#IgVariable> ;
	rdfs:label "Subject Identifier for the Study"^^xsd:string ;
	bd:ordinal "3"^^xsd:positiveInteger ;
	bd:rule ""^^xsd:string ;
	bd:name "SUBJID"^^xsd:string ;
	bd:ct ""^^xsd:string ;
	bd:ct_notes ""^^xsd:string ;
	bd:notes "DM.SUBJID. SUBJID is required in ADSL, but permissible in other datasets."^^xsd:string ;
	bd:compliance <http://www.assero.co.uk/MDRAdamIg/CDISC/V2#AIG-CDISC_ADAMIG_C_REQUIRED> ;
	bd:typedAs <http://www.assero.co.uk/MDRAdamIg/CDISC/V2#AIG-CDISC_ADAMIG_DT_CHARACTER> ;
.
:AIG-CDISC_ADAMIGADSL_SITEID
	rdf:type <http://www.assero.co.uk/BusinessDomain#IgVariable> ;
	rdfs:label "Study Site Identifier"^^xsd:string ;
	bd:ordinal "4"^^xsd:positiveInteger ;
	bd:rule ""^^xsd:string ;
	bd:name "SITEID"^^xsd:string ;
	bd:ct ""^^xsd:string ;
	bd:ct_notes ""^^xsd:string ;
	bd:notes "DM.SITEID. SITEID is required in ADSL, but permissible in other datasets."^^xsd:string ;
	bd:compliance <http://www.assero.co.uk/MDRAdamIg/CDISC/V2#AIG-CDISC_ADAMIG_C_REQUIRED> ;
	bd:typedAs <http://www.assero.co.uk/MDRAdamIg/CDISC/V2#AIG-CDISC_ADAMIG_DT_CHARACTER> ;
.
:AIG-CDISC_ADAMIGADSL_SITEGRy
	rdf:type <http://www.assero.co.uk/BusinessDomain#IgVariable> ;
	rdfs:label "Pooled Site Group y"^^xsd:string ;
	bd:ordinal "5"^^xsd:positiveInteger ;
	bd:rule ""^^xsd:string ;
	bd:name "SITEGRy"^^xsd:string ;
	bd:ct ""^^xsd:string ;
	bd:ct_notes ""^^xsd:string ;
	bd:notes "Character description of a grouping or pooling of clinical sites for analysis purposes. For example, SITEGR3 is the name of a variable containing site group (pooled site) names, where the grouping has been done according to the third site grouping algorithm, defined in variable metadata; SITEGR3 does not mean the third group of sites."^^xsd:string ;
	bd:compliance <http://www.assero.co.uk/MDRAdamIg/CDISC/V2#AIG-CDISC_ADAMIG_C_PERMISSIBLE> ;
	bd:typedAs <http://www.assero.co.uk/MDRAdamIg/CDISC/V2#AIG-CDISC_ADAMIG_DT_CHARACTER> ;
.
:AIG-CDISC_ADAMIGADSL_SITEGRyN
	rdf:type <http://www.assero.co.uk/BusinessDomain#IgVariable> ;
	rdfs:label "Pooled Site Group y (N)"^^xsd:string ;
	bd:ordinal "6"^^xsd:positiveInteger ;
	bd:rule ""^^xsd:string ;
	bd:name "SITEGRyN"^^xsd:string ;
	bd:ct ""^^xsd:string ;
	bd:ct_notes ""^^xsd:string ;
	bd:notes "The numeric code for SITEGRy. One-to-one mapping to SITEGRy within a study."^^xsd:string ;
	bd:compliance <http://www.assero.co.uk/MDRAdamIg/CDISC/V2#AIG-CDISC_ADAMIG_C_PERMISSIBLE> ;
	bd:typedAs <http://www.assero.co.uk/MDRAdamIg/CDISC/V2#AIG-CDISC_ADAMIG_DT_NUMERIC> ;
.
:AIG-CDISC_ADAMIGADSL_REGIONy
	rdf:type <http://www.assero.co.uk/BusinessDomain#IgVariable> ;
	rdfs:label "Geographic Region y"^^xsd:string ;
	bd:ordinal "7"^^xsd:positiveInteger ;
	bd:rule ""^^xsd:string ;
	bd:name "REGIONy"^^xsd:string ;
	bd:ct ""^^xsd:string ;
	bd:ct_notes ""^^xsd:string ;
	bd:notes "Character description of geographical region. For example, REGION1 might have values of ‘Asia’, ‘Europe’, ‘North America’, ‘Rest of World’; REGION2 might have values of ‘United States’, ‘Rest of World’."^^xsd:string ;
	bd:compliance <http://www.assero.co.uk/MDRAdamIg/CDISC/V2#AIG-CDISC_ADAMIG_C_PERMISSIBLE> ;
	bd:typedAs <http://www.assero.co.uk/MDRAdamIg/CDISC/V2#AIG-CDISC_ADAMIG_DT_CHARACTER> ;
.
:AIG-CDISC_ADAMIGADSL_REGIONyN
	rdf:type <http://www.assero.co.uk/BusinessDomain#IgVariable> ;
	rdfs:label "Geographic Region y (N)"^^xsd:string ;
	bd:ordinal "8"^^xsd:positiveInteger ;
	bd:rule ""^^xsd:string ;
	bd:name "REGIONyN"^^xsd:string ;
	bd:ct ""^^xsd:string ;
	bd:ct_notes ""^^xsd:string ;
	bd:notes "The numeric code for REGIONy. Orders REGIONy for analysis and reporting. One-to-one mapping to REGIONy within a study."^^xsd:string ;
	bd:compliance <http://www.assero.co.uk/MDRAdamIg/CDISC/V2#AIG-CDISC_ADAMIG_C_PERMISSIBLE> ;
	bd:typedAs <http://www.assero.co.uk/MDRAdamIg/CDISC/V2#AIG-CDISC_ADAMIG_DT_NUMERIC> ;
.
:AIG-CDISC_ADAMIGADSL_AGE
	rdf:type <http://www.assero.co.uk/BusinessDomain#IgVariable> ;
	rdfs:label "Age"^^xsd:string ;
	bd:ordinal "9"^^xsd:positiveInteger ;
	bd:rule ""^^xsd:string ;
	bd:name "AGE"^^xsd:string ;
	bd:ct ""^^xsd:string ;
	bd:ct_notes ""^^xsd:string ;
	bd:notes "DM.AGE. If analysis needs require a derived age that does not match DM.AGE, then AAGE must be added"^^xsd:string ;
	bd:compliance <http://www.assero.co.uk/MDRAdamIg/CDISC/V2#AIG-CDISC_ADAMIG_C_REQUIRED> ;
	bd:typedAs <http://www.assero.co.uk/MDRAdamIg/CDISC/V2#AIG-CDISC_ADAMIG_DT_NUMERIC> ;
.
:AIG-CDISC_ADAMIGADSL_AGEU
	rdf:type <http://www.assero.co.uk/BusinessDomain#IgVariable> ;
	rdfs:label "Age Units"^^xsd:string ;
	bd:ordinal "10"^^xsd:positiveInteger ;
	bd:rule ""^^xsd:string ;
	bd:name "AGEU"^^xsd:string ;
	bd:ct "AGEU"^^xsd:string ;
	bd:ct_notes ""^^xsd:string ;
	bd:notes "DM.AGEU"^^xsd:string ;
	bd:compliance <http://www.assero.co.uk/MDRAdamIg/CDISC/V2#AIG-CDISC_ADAMIG_C_REQUIRED> ;
	bd:typedAs <http://www.assero.co.uk/MDRAdamIg/CDISC/V2#AIG-CDISC_ADAMIG_DT_CHARACTER> ;
.
:AIG-CDISC_ADAMIGADSL_AGEGRy
	rdf:type <http://www.assero.co.uk/BusinessDomain#IgVariable> ;
	rdfs:label "Pooled Age Group y"^^xsd:string ;
	bd:ordinal "11"^^xsd:positiveInteger ;
	bd:rule ""^^xsd:string ;
	bd:name "AGEGRy"^^xsd:string ;
	bd:ct ""^^xsd:string ;
	bd:ct_notes ""^^xsd:string ;
	bd:notes "Character description of a grouping or pooling of the subject's age for analysis purposes. For example, AGEGR1 might have values of \"<18\", \"18-65\", and \">65\"; AGEGR2 might have values of \"Less than 35 y old\" and \"At least 35 y old\"."^^xsd:string ;
	bd:compliance <http://www.assero.co.uk/MDRAdamIg/CDISC/V2#AIG-CDISC_ADAMIG_C_PERMISSIBLE> ;
	bd:typedAs <http://www.assero.co.uk/MDRAdamIg/CDISC/V2#AIG-CDISC_ADAMIG_DT_CHARACTER> ;
.
:AIG-CDISC_ADAMIGADSL_AGEGRyN
	rdf:type <http://www.assero.co.uk/BusinessDomain#IgVariable> ;
	rdfs:label "Pooled Age Group y (N)"^^xsd:string ;
	bd:ordinal "12"^^xsd:positiveInteger ;
	bd:rule ""^^xsd:string ;
	bd:name "AGEGRyN"^^xsd:string ;
	bd:ct ""^^xsd:string ;
	bd:ct_notes ""^^xsd:string ;
	bd:notes "The numeric code for AGEGRy. Orders the grouping or pooling of subject age for analysis and reporting. One-to-one mapping to AGEGRy within a study."^^xsd:string ;
	bd:compliance <http://www.assero.co.uk/MDRAdamIg/CDISC/V2#AIG-CDISC_ADAMIG_C_PERMISSIBLE> ;
	bd:typedAs <http://www.assero.co.uk/MDRAdamIg/CDISC/V2#AIG-CDISC_ADAMIG_DT_NUMERIC> ;
.
:AIG-CDISC_ADAMIGADSL_AAGE
	rdf:type <http://www.assero.co.uk/BusinessDomain#IgVariable> ;
	rdfs:label "Analysis Age"^^xsd:string ;
	bd:ordinal "13"^^xsd:positiveInteger ;
	bd:rule ""^^xsd:string ;
	bd:name "AAGE"^^xsd:string ;
	bd:ct ""^^xsd:string ;
	bd:ct_notes ""^^xsd:string ;
	bd:notes "Age used for analysis that is derived differently from DM.AGE. AAGE is required if age is calculated differently than in SDTM."^^xsd:string ;
	bd:compliance <http://www.assero.co.uk/MDRAdamIg/CDISC/V2#AIG-CDISC_ADAMIG_C_CONDITIONAL> ;
	bd:typedAs <http://www.assero.co.uk/MDRAdamIg/CDISC/V2#AIG-CDISC_ADAMIG_DT_NUMERIC> ;
.
:AIG-CDISC_ADAMIGADSL_SEX
	rdf:type <http://www.assero.co.uk/BusinessDomain#IgVariable> ;
	rdfs:label "Sex"^^xsd:string ;
	bd:ordinal "14"^^xsd:positiveInteger ;
	bd:rule ""^^xsd:string ;
	bd:name "SEX"^^xsd:string ;
	bd:ct "SEX"^^xsd:string ;
	bd:ct_notes ""^^xsd:string ;
	bd:notes "The sex of the subject is a required variable in ADSL; must be identical to DM.SEX."^^xsd:string ;
	bd:compliance <http://www.assero.co.uk/MDRAdamIg/CDISC/V2#AIG-CDISC_ADAMIG_C_REQUIRED> ;
	bd:typedAs <http://www.assero.co.uk/MDRAdamIg/CDISC/V2#AIG-CDISC_ADAMIG_DT_CHARACTER> ;
.
:AIG-CDISC_ADAMIGADSL_RACE
	rdf:type <http://www.assero.co.uk/BusinessDomain#IgVariable> ;
	rdfs:label "Race"^^xsd:string ;
	bd:ordinal "15"^^xsd:positiveInteger ;
	bd:rule ""^^xsd:string ;
	bd:name "RACE"^^xsd:string ;
	bd:ct "RACE"^^xsd:string ;
	bd:ct_notes ""^^xsd:string ;
	bd:notes "The race of the subject is a required variable in ADSL; must be identical to DM.RACE."^^xsd:string ;
	bd:compliance <http://www.assero.co.uk/MDRAdamIg/CDISC/V2#AIG-CDISC_ADAMIG_C_REQUIRED> ;
	bd:typedAs <http://www.assero.co.uk/MDRAdamIg/CDISC/V2#AIG-CDISC_ADAMIG_DT_CHARACTER> ;
.
:AIG-CDISC_ADAMIGADSL_RACEGRy
	rdf:type <http://www.assero.co.uk/BusinessDomain#IgVariable> ;
	rdfs:label "Pooled Race Group y"^^xsd:string ;
	bd:ordinal "16"^^xsd:positiveInteger ;
	bd:rule ""^^xsd:string ;
	bd:name "RACEGRy"^^xsd:string ;
	bd:ct ""^^xsd:string ;
	bd:ct_notes ""^^xsd:string ;
	bd:notes "Character description of a grouping or pooling of the subject's race for analysis purposes."^^xsd:string ;
	bd:compliance <http://www.assero.co.uk/MDRAdamIg/CDISC/V2#AIG-CDISC_ADAMIG_C_PERMISSIBLE> ;
	bd:typedAs <http://www.assero.co.uk/MDRAdamIg/CDISC/V2#AIG-CDISC_ADAMIG_DT_CHARACTER> ;
.
:AIG-CDISC_ADAMIGADSL_RACEGRyN
	rdf:type <http://www.assero.co.uk/BusinessDomain#IgVariable> ;
	rdfs:label "Pooled Race Group y (N)"^^xsd:string ;
	bd:ordinal "17"^^xsd:positiveInteger ;
	bd:rule ""^^xsd:string ;
	bd:name "RACEGRyN"^^xsd:string ;
	bd:ct ""^^xsd:string ;
	bd:ct_notes ""^^xsd:string ;
	bd:notes "The numeric code for RACEGRy. Orders the grouping or pooling of subject race for analysis and reporting. One-to-one mapping to RACEGRy within a study."^^xsd:string ;
	bd:compliance <http://www.assero.co.uk/MDRAdamIg/CDISC/V2#AIG-CDISC_ADAMIG_C_PERMISSIBLE> ;
	bd:typedAs <http://www.assero.co.uk/MDRAdamIg/CDISC/V2#AIG-CDISC_ADAMIG_DT_NUMERIC> ;
.
:AIG-CDISC_ADAMIGADSL_FASFL
	rdf:type <http://www.assero.co.uk/BusinessDomain#IgVariable> ;
	rdfs:label "Full Analysis Set Population Flag"^^xsd:string ;
	bd:ordinal "18"^^xsd:positiveInteger ;
	bd:rule ""^^xsd:string ;
	bd:name "FASFL"^^xsd:string ;
	bd:ct ""^^xsd:string ;
	bd:ct_notes "Y, N"^^xsd:string ;
	bd:notes "These flags identify whether or not the subject is included in the specified population. A minimum of one subject-level population flag variable is required in ADSL."^^xsd:string ;
	bd:compliance <http://www.assero.co.uk/MDRAdamIg/CDISC/V2#AIG-CDISC_ADAMIG_C_CONDITIONAL> ;
	bd:typedAs <http://www.assero.co.uk/MDRAdamIg/CDISC/V2#AIG-CDISC_ADAMIG_DT_CHARACTER> ;
.
:AIG-CDISC_ADAMIGADSL_SAFFL
	rdf:type <http://www.assero.co.uk/BusinessDomain#IgVariable> ;
	rdfs:label "Safety Population Flag"^^xsd:string ;
	bd:ordinal "19"^^xsd:positiveInteger ;
	bd:rule ""^^xsd:string ;
	bd:name "SAFFL"^^xsd:string ;
	bd:ct ""^^xsd:string ;
	bd:ct_notes "Y, N"^^xsd:string ;
	bd:notes "Not all of the indicators listed here need to be included in ADSL. As stated in Section 3.1.4, Item 2, only those indicators corresponding to populations defined in the statistical analysis plan or populations used as a basis for analysis need be included in ADSL."^^xsd:string ;
	bd:compliance <http://www.assero.co.uk/MDRAdamIg/CDISC/V2#AIG-CDISC_ADAMIG_C_CONDITIONAL> ;
	bd:typedAs <http://www.assero.co.uk/MDRAdamIg/CDISC/V2#AIG-CDISC_ADAMIG_DT_CHARACTER> ;
.
:AIG-CDISC_ADAMIGADSL_ITTFL
	rdf:type <http://www.assero.co.uk/BusinessDomain#IgVariable> ;
	rdfs:label "Intent-To-Treat Population Flag"^^xsd:string ;
	bd:ordinal "20"^^xsd:positiveInteger ;
	bd:rule ""^^xsd:string ;
	bd:name "ITTFL"^^xsd:string ;
	bd:ct ""^^xsd:string ;
	bd:ct_notes "Y, N"^^xsd:string ;
	bd:notes "This list of flags is not meant to be all-inclusive. Additional population flags may be added."^^xsd:string ;
	bd:compliance <http://www.assero.co.uk/MDRAdamIg/CDISC/V2#AIG-CDISC_ADAMIG_C_CONDITIONAL> ;
	bd:typedAs <http://www.assero.co.uk/MDRAdamIg/CDISC/V2#AIG-CDISC_ADAMIG_DT_CHARACTER> ;
.
:AIG-CDISC_ADAMIGADSL_PPROTFL
	rdf:type <http://www.assero.co.uk/BusinessDomain#IgVariable> ;
	rdfs:label "Per-Protocol Population Flag"^^xsd:string ;
	bd:ordinal "21"^^xsd:positiveInteger ;
	bd:rule ""^^xsd:string ;
	bd:name "PPROTFL"^^xsd:string ;
	bd:ct ""^^xsd:string ;
	bd:ct_notes "Y, N"^^xsd:string ;
	bd:notes "The values of subject-level population flags cannot be blank. If a flag is used, the corresponding numeric version (*FN, where 0=no and 1=yes) of the population flag can also be included. Please also refer to Section 3.1.4."^^xsd:string ;
	bd:compliance <http://www.assero.co.uk/MDRAdamIg/CDISC/V2#AIG-CDISC_ADAMIG_C_CONDITIONAL> ;
	bd:typedAs <http://www.assero.co.uk/MDRAdamIg/CDISC/V2#AIG-CDISC_ADAMIG_DT_CHARACTER> ;
.
:AIG-CDISC_ADAMIGADSL_COMPLFL
	rdf:type <http://www.assero.co.uk/BusinessDomain#IgVariable> ;
	rdfs:label "Completers Population Flag"^^xsd:string ;
	bd:ordinal "22"^^xsd:positiveInteger ;
	bd:rule ""^^xsd:string ;
	bd:name "COMPLFL"^^xsd:string ;
	bd:ct ""^^xsd:string ;
	bd:ct_notes "Y, N"^^xsd:string ;
	bd:notes "The values of subject-level population flags cannot be blank. If a flag is used, the corresponding numeric version (*FN, where 0=no and 1=yes) of the population flag can also be included. Please also refer to Section 3.1.4."^^xsd:string ;
	bd:compliance <http://www.assero.co.uk/MDRAdamIg/CDISC/V2#AIG-CDISC_ADAMIG_C_CONDITIONAL> ;
	bd:typedAs <http://www.assero.co.uk/MDRAdamIg/CDISC/V2#AIG-CDISC_ADAMIG_DT_CHARACTER> ;
.
:AIG-CDISC_ADAMIGADSL_RANDFL
	rdf:type <http://www.assero.co.uk/BusinessDomain#IgVariable> ;
	rdfs:label "Randomized Population Flag"^^xsd:string ;
	bd:ordinal "23"^^xsd:positiveInteger ;
	bd:rule ""^^xsd:string ;
	bd:name "RANDFL"^^xsd:string ;
	bd:ct ""^^xsd:string ;
	bd:ct_notes "Y, N"^^xsd:string ;
	bd:notes "The values of subject-level population flags cannot be blank. If a flag is used, the corresponding numeric version (*FN, where 0=no and 1=yes) of the population flag can also be included. Please also refer to Section 3.1.4."^^xsd:string ;
	bd:compliance <http://www.assero.co.uk/MDRAdamIg/CDISC/V2#AIG-CDISC_ADAMIG_C_CONDITIONAL> ;
	bd:typedAs <http://www.assero.co.uk/MDRAdamIg/CDISC/V2#AIG-CDISC_ADAMIG_DT_CHARACTER> ;
.
:AIG-CDISC_ADAMIGADSL_ENRLFL
	rdf:type <http://www.assero.co.uk/BusinessDomain#IgVariable> ;
	rdfs:label "Enrolled Population Flag"^^xsd:string ;
	bd:ordinal "24"^^xsd:positiveInteger ;
	bd:rule ""^^xsd:string ;
	bd:name "ENRLFL"^^xsd:string ;
	bd:ct ""^^xsd:string ;
	bd:ct_notes "Y, N"^^xsd:string ;
	bd:notes "The values of subject-level population flags cannot be blank. If a flag is used, the corresponding numeric version (*FN, where 0=no and 1=yes) of the population flag can also be included. Please also refer to Section 3.1.4."^^xsd:string ;
	bd:compliance <http://www.assero.co.uk/MDRAdamIg/CDISC/V2#AIG-CDISC_ADAMIG_C_CONDITIONAL> ;
	bd:typedAs <http://www.assero.co.uk/MDRAdamIg/CDISC/V2#AIG-CDISC_ADAMIG_DT_CHARACTER> ;
.
:AIG-CDISC_ADAMIGADSL_ARM
	rdf:type <http://www.assero.co.uk/BusinessDomain#IgVariable> ;
	rdfs:label "Description of Planned Arm"^^xsd:string ;
	bd:ordinal "25"^^xsd:positiveInteger ;
	bd:rule ""^^xsd:string ;
	bd:name "ARM"^^xsd:string ;
	bd:ct ""^^xsd:string ;
	bd:ct_notes ""^^xsd:string ;
	bd:notes "DM.ARM"^^xsd:string ;
	bd:compliance <http://www.assero.co.uk/MDRAdamIg/CDISC/V2#AIG-CDISC_ADAMIG_C_REQUIRED> ;
	bd:typedAs <http://www.assero.co.uk/MDRAdamIg/CDISC/V2#AIG-CDISC_ADAMIG_DT_CHARACTER> ;
.
:AIG-CDISC_ADAMIGADSL_ACTARM
	rdf:type <http://www.assero.co.uk/BusinessDomain#IgVariable> ;
	rdfs:label "Description of Actual Arm"^^xsd:string ;
	bd:ordinal "26"^^xsd:positiveInteger ;
	bd:rule ""^^xsd:string ;
	bd:name "ACTARM"^^xsd:string ;
	bd:ct ""^^xsd:string ;
	bd:ct_notes ""^^xsd:string ;
	bd:notes "DM.ACTARM"^^xsd:string ;
	bd:compliance <http://www.assero.co.uk/MDRAdamIg/CDISC/V2#AIG-CDISC_ADAMIG_C_PERMISSIBLE> ;
	bd:typedAs <http://www.assero.co.uk/MDRAdamIg/CDISC/V2#AIG-CDISC_ADAMIG_DT_CHARACTER> ;
.
:AIG-CDISC_ADAMIGADSL_TRTxxP
	rdf:type <http://www.assero.co.uk/BusinessDomain#IgVariable> ;
	rdfs:label "Planned Treatment for Period xx"^^xsd:string ;
	bd:ordinal "27"^^xsd:positiveInteger ;
	bd:rule ""^^xsd:string ;
	bd:name "TRTxxP"^^xsd:string ;
	bd:ct ""^^xsd:string ;
	bd:ct_notes ""^^xsd:string ;
	bd:notes "Subject-level identifier that represents the planned treatment for period xx. In a one-period randomized trial, TRT01P would be the treatment to which the subject was randomized. TRTxxP might be derived from the SDTM DM variable ARM. At least TRT01P is required."^^xsd:string ;
	bd:compliance <http://www.assero.co.uk/MDRAdamIg/CDISC/V2#AIG-CDISC_ADAMIG_C_REQUIRED> ;
	bd:typedAs <http://www.assero.co.uk/MDRAdamIg/CDISC/V2#AIG-CDISC_ADAMIG_DT_CHARACTER> ;
.
:AIG-CDISC_ADAMIGADSL_TRTxxPN
	rdf:type <http://www.assero.co.uk/BusinessDomain#IgVariable> ;
	rdfs:label "Planned Treatment for Period xx (N)"^^xsd:string ;
	bd:ordinal "28"^^xsd:positiveInteger ;
	bd:rule ""^^xsd:string ;
	bd:name "TRTxxPN"^^xsd:string ;
	bd:ct ""^^xsd:string ;
	bd:ct_notes ""^^xsd:string ;
	bd:notes "The numeric code variable for TRTxxP. One-to-one mapping to TRTxxP within a study."^^xsd:string ;
	bd:compliance <http://www.assero.co.uk/MDRAdamIg/CDISC/V2#AIG-CDISC_ADAMIG_C_PERMISSIBLE> ;
	bd:typedAs <http://www.assero.co.uk/MDRAdamIg/CDISC/V2#AIG-CDISC_ADAMIG_DT_NUMERIC> ;
.
:AIG-CDISC_ADAMIGADSL_TRTxxA
	rdf:type <http://www.assero.co.uk/BusinessDomain#IgVariable> ;
	rdfs:label "Actual Treatment for Period xx"^^xsd:string ;
	bd:ordinal "29"^^xsd:positiveInteger ;
	bd:rule ""^^xsd:string ;
	bd:name "TRTxxA"^^xsd:string ;
	bd:ct ""^^xsd:string ;
	bd:ct_notes ""^^xsd:string ;
	bd:notes "Subject-level identifier that represents the actual treatment for the subject for period xx. Required when actual treatment does not match planned and there is an analysis of the data as treated."^^xsd:string ;
	bd:compliance <http://www.assero.co.uk/MDRAdamIg/CDISC/V2#AIG-CDISC_ADAMIG_C_CONDITIONAL> ;
	bd:typedAs <http://www.assero.co.uk/MDRAdamIg/CDISC/V2#AIG-CDISC_ADAMIG_DT_CHARACTER> ;
.
:AIG-CDISC_ADAMIGADSL_TRTxxAN
	rdf:type <http://www.assero.co.uk/BusinessDomain#IgVariable> ;
	rdfs:label "Actual Treatment for Period xx (N)"^^xsd:string ;
	bd:ordinal "30"^^xsd:positiveInteger ;
	bd:rule ""^^xsd:string ;
	bd:name "TRTxxAN"^^xsd:string ;
	bd:ct ""^^xsd:string ;
	bd:ct_notes ""^^xsd:string ;
	bd:notes "The numeric code variable for TRTxxA. One-to-one mapping to TRTxxA within a study."^^xsd:string ;
	bd:compliance <http://www.assero.co.uk/MDRAdamIg/CDISC/V2#AIG-CDISC_ADAMIG_C_PERMISSIBLE> ;
	bd:typedAs <http://www.assero.co.uk/MDRAdamIg/CDISC/V2#AIG-CDISC_ADAMIG_DT_NUMERIC> ;
.
:AIG-CDISC_ADAMIGADSL_TRTSEQP
	rdf:type <http://www.assero.co.uk/BusinessDomain#IgVariable> ;
	rdfs:label "Planned Sequence of Treatments"^^xsd:string ;
	bd:ordinal "31"^^xsd:positiveInteger ;
	bd:rule ""^^xsd:string ;
	bd:name "TRTSEQP"^^xsd:string ;
	bd:ct ""^^xsd:string ;
	bd:ct_notes ""^^xsd:string ;
	bd:notes "Required when there is an analysis based on the sequence of treatments, for example in a crossover design. TRTSEQP is not necessarily equal to ARM, for example if ARM contains elements that are not relevant to analysis of treatments or ARM is not fully descriptive (e.g., “GROUP 1,” “GROUP 2”). When analyzing based on the sequence of treatments, TRTSEQP is required even if identical to ARM."^^xsd:string ;
	bd:compliance <http://www.assero.co.uk/MDRAdamIg/CDISC/V2#AIG-CDISC_ADAMIG_C_CONDITIONAL> ;
	bd:typedAs <http://www.assero.co.uk/MDRAdamIg/CDISC/V2#AIG-CDISC_ADAMIG_DT_CHARACTER> ;
.
:AIG-CDISC_ADAMIGADSL_TRTSEQPN
	rdf:type <http://www.assero.co.uk/BusinessDomain#IgVariable> ;
	rdfs:label "Planned Sequence of Treatments (N)"^^xsd:string ;
	bd:ordinal "32"^^xsd:positiveInteger ;
	bd:rule ""^^xsd:string ;
	bd:name "TRTSEQPN"^^xsd:string ;
	bd:ct ""^^xsd:string ;
	bd:ct_notes ""^^xsd:string ;
	bd:notes "Numeric version of TRTSEQP. One-to-one mapping to TRTSEQP within a study."^^xsd:string ;
	bd:compliance <http://www.assero.co.uk/MDRAdamIg/CDISC/V2#AIG-CDISC_ADAMIG_C_PERMISSIBLE> ;
	bd:typedAs <http://www.assero.co.uk/MDRAdamIg/CDISC/V2#AIG-CDISC_ADAMIG_DT_NUMERIC> ;
.
:AIG-CDISC_ADAMIGADSL_TRTSEQA
	rdf:type <http://www.assero.co.uk/BusinessDomain#IgVariable> ;
	rdfs:label "Actual Sequence of Treatments"^^xsd:string ;
	bd:ordinal "33"^^xsd:positiveInteger ;
	bd:rule ""^^xsd:string ;
	bd:name "TRTSEQA"^^xsd:string ;
	bd:ct ""^^xsd:string ;
	bd:ct_notes ""^^xsd:string ;
	bd:notes "TRTSEQA is required if a situation occurred in the conduct of the trial where a subject received a sequence of treatments other than what was planned and there is an analysis based on the sequence of treatments."^^xsd:string ;
	bd:compliance <http://www.assero.co.uk/MDRAdamIg/CDISC/V2#AIG-CDISC_ADAMIG_C_CONDITIONAL> ;
	bd:typedAs <http://www.assero.co.uk/MDRAdamIg/CDISC/V2#AIG-CDISC_ADAMIG_DT_CHARACTER> ;
.
:AIG-CDISC_ADAMIGADSL_TRTSEQAN
	rdf:type <http://www.assero.co.uk/BusinessDomain#IgVariable> ;
	rdfs:label "Actual Sequence of Treatments (N)"^^xsd:string ;
	bd:ordinal "34"^^xsd:positiveInteger ;
	bd:rule ""^^xsd:string ;
	bd:name "TRTSEQAN"^^xsd:string ;
	bd:ct ""^^xsd:string ;
	bd:ct_notes ""^^xsd:string ;
	bd:notes "Numeric version of TRTSEQA. One-to-one mapping to TRTSEQA within a study."^^xsd:string ;
	bd:compliance <http://www.assero.co.uk/MDRAdamIg/CDISC/V2#AIG-CDISC_ADAMIG_C_PERMISSIBLE> ;
	bd:typedAs <http://www.assero.co.uk/MDRAdamIg/CDISC/V2#AIG-CDISC_ADAMIG_DT_NUMERIC> ;
.
:AIG-CDISC_ADAMIGADSL_TRxxPGy
	rdf:type <http://www.assero.co.uk/BusinessDomain#IgVariable> ;
	rdfs:label "Planned Pooled Treatment y for Period xx"^^xsd:string ;
	bd:ordinal "35"^^xsd:positiveInteger ;
	bd:rule ""^^xsd:string ;
	bd:name "TRxxPGy"^^xsd:string ;
	bd:ct ""^^xsd:string ;
	bd:ct_notes ""^^xsd:string ;
	bd:notes "Planned pooled treatment y for period xx. Useful when planned treatments (TRTxxP) in the specified period xx are pooled together for analysis according to pooling algorithm y. For example when in period 2 the first pooling algorithm dictates that all doses of Drug A (TR02PG1=“All doses of Drug A”) are pooled together for comparison to all doses of Drug B (TR02PG1=“All doses of Drug B”). Each value of TRTxxP is pooled within at most one value of TRxxPGy."^^xsd:string ;
	bd:compliance <http://www.assero.co.uk/MDRAdamIg/CDISC/V2#AIG-CDISC_ADAMIG_C_PERMISSIBLE> ;
	bd:typedAs <http://www.assero.co.uk/MDRAdamIg/CDISC/V2#AIG-CDISC_ADAMIG_DT_CHARACTER> ;
.
:AIG-CDISC_ADAMIGADSL_TRxxPGyN
	rdf:type <http://www.assero.co.uk/BusinessDomain#IgVariable> ;
	rdfs:label "Planned Pooled Trt y for Period xx (N)"^^xsd:string ;
	bd:ordinal "36"^^xsd:positiveInteger ;
	bd:rule ""^^xsd:string ;
	bd:name "TRxxPGyN"^^xsd:string ;
	bd:ct ""^^xsd:string ;
	bd:ct_notes ""^^xsd:string ;
	bd:notes "The numeric code for TRxxPGy. One-to-one mapping to TRxxPGy within a study."^^xsd:string ;
	bd:compliance <http://www.assero.co.uk/MDRAdamIg/CDISC/V2#AIG-CDISC_ADAMIG_C_PERMISSIBLE> ;
	bd:typedAs <http://www.assero.co.uk/MDRAdamIg/CDISC/V2#AIG-CDISC_ADAMIG_DT_NUMERIC> ;
.
:AIG-CDISC_ADAMIGADSL_TRxxAGy
	rdf:type <http://www.assero.co.uk/BusinessDomain#IgVariable> ;
	rdfs:label "Actual Pooled Treatment y for Period xx"^^xsd:string ;
	bd:ordinal "37"^^xsd:positiveInteger ;
	bd:rule ""^^xsd:string ;
	bd:name "TRxxAGy"^^xsd:string ;
	bd:ct ""^^xsd:string ;
	bd:ct_notes ""^^xsd:string ;
	bd:notes "Actual pooled treatment y for period xx. Required when TRxxPGy is present and TRTxxA is present."^^xsd:string ;
	bd:compliance <http://www.assero.co.uk/MDRAdamIg/CDISC/V2#AIG-CDISC_ADAMIG_C_CONDITIONAL> ;
	bd:typedAs <http://www.assero.co.uk/MDRAdamIg/CDISC/V2#AIG-CDISC_ADAMIG_DT_CHARACTER> ;
.
:AIG-CDISC_ADAMIGADSL_TRxxAGyN
	rdf:type <http://www.assero.co.uk/BusinessDomain#IgVariable> ;
	rdfs:label "Actual Pooled Trt y for Period xx (N)"^^xsd:string ;
	bd:ordinal "38"^^xsd:positiveInteger ;
	bd:rule ""^^xsd:string ;
	bd:name "TRxxAGyN"^^xsd:string ;
	bd:ct ""^^xsd:string ;
	bd:ct_notes ""^^xsd:string ;
	bd:notes "The numeric code for TRxxAGy. One-to-one mapping to TRxxAGy within a study."^^xsd:string ;
	bd:compliance <http://www.assero.co.uk/MDRAdamIg/CDISC/V2#AIG-CDISC_ADAMIG_C_PERMISSIBLE> ;
	bd:typedAs <http://www.assero.co.uk/MDRAdamIg/CDISC/V2#AIG-CDISC_ADAMIG_DT_NUMERIC> ;
.
:AIG-CDISC_ADAMIGADSL_TSEQPGy
	rdf:type <http://www.assero.co.uk/BusinessDomain#IgVariable> ;
	rdfs:label "Planned Pooled Treatment Sequence y"^^xsd:string ;
	bd:ordinal "39"^^xsd:positiveInteger ;
	bd:rule ""^^xsd:string ;
	bd:name "TSEQPGy"^^xsd:string ;
	bd:ct ""^^xsd:string ;
	bd:ct_notes ""^^xsd:string ;
	bd:notes "Planned pooled treatment sequence y. Useful when planned treatment sequences (TRTSEQP) are pooled together for analysis according to pooling algorithm y. For example, this might be used in an analysis of an extension study when the analysis is based on what the subject received in the parent study as well as in the extension study."^^xsd:string ;
	bd:compliance <http://www.assero.co.uk/MDRAdamIg/CDISC/V2#AIG-CDISC_ADAMIG_C_PERMISSIBLE> ;
	bd:typedAs <http://www.assero.co.uk/MDRAdamIg/CDISC/V2#AIG-CDISC_ADAMIG_DT_CHARACTER> ;
.
:AIG-CDISC_ADAMIGADSL_TSEQPGyN
	rdf:type <http://www.assero.co.uk/BusinessDomain#IgVariable> ;
	rdfs:label "Planned Pooled Treatment Sequence y (N)"^^xsd:string ;
	bd:ordinal "40"^^xsd:positiveInteger ;
	bd:rule ""^^xsd:string ;
	bd:name "TSEQPGyN"^^xsd:string ;
	bd:ct ""^^xsd:string ;
	bd:ct_notes ""^^xsd:string ;
	bd:notes "Numeric version of TSEQPGy. One-to-one mapping to TSEQPGy within a study."^^xsd:string ;
	bd:compliance <http://www.assero.co.uk/MDRAdamIg/CDISC/V2#AIG-CDISC_ADAMIG_C_PERMISSIBLE> ;
	bd:typedAs <http://www.assero.co.uk/MDRAdamIg/CDISC/V2#AIG-CDISC_ADAMIG_DT_NUMERIC> ;
.
:AIG-CDISC_ADAMIGADSL_TSEQAGy
	rdf:type <http://www.assero.co.uk/BusinessDomain#IgVariable> ;
	rdfs:label "Actual Pooled Treatment Sequence y"^^xsd:string ;
	bd:ordinal "41"^^xsd:positiveInteger ;
	bd:rule ""^^xsd:string ;
	bd:name "TSEQAGy"^^xsd:string ;
	bd:ct ""^^xsd:string ;
	bd:ct_notes ""^^xsd:string ;
	bd:notes "Actual pooled treatment sequence y. Required when TSEQPGy is present and TRTSEQA is present."^^xsd:string ;
	bd:compliance <http://www.assero.co.uk/MDRAdamIg/CDISC/V2#AIG-CDISC_ADAMIG_C_CONDITIONAL> ;
	bd:typedAs <http://www.assero.co.uk/MDRAdamIg/CDISC/V2#AIG-CDISC_ADAMIG_DT_CHARACTER> ;
.
:AIG-CDISC_ADAMIGADSL_TSEQAGyN
	rdf:type <http://www.assero.co.uk/BusinessDomain#IgVariable> ;
	rdfs:label "Actual Pooled Treatment Sequence y (N)"^^xsd:string ;
	bd:ordinal "42"^^xsd:positiveInteger ;
	bd:rule ""^^xsd:string ;
	bd:name "TSEQAGyN"^^xsd:string ;
	bd:ct ""^^xsd:string ;
	bd:ct_notes ""^^xsd:string ;
	bd:notes "Numeric version of TSEQAGy. One-to-one mapping to TSEQAGy within a study."^^xsd:string ;
	bd:compliance <http://www.assero.co.uk/MDRAdamIg/CDISC/V2#AIG-CDISC_ADAMIG_C_PERMISSIBLE> ;
	bd:typedAs <http://www.assero.co.uk/MDRAdamIg/CDISC/V2#AIG-CDISC_ADAMIG_DT_NUMERIC> ;
.
:AIG-CDISC_ADAMIGADSL_DOSExxP
	rdf:type <http://www.assero.co.uk/BusinessDomain#IgVariable> ;
	rdfs:label "Planned Treatment Dose for Period xx"^^xsd:string ;
	bd:ordinal "43"^^xsd:positiveInteger ;
	bd:rule ""^^xsd:string ;
	bd:name "DOSExxP"^^xsd:string ;
	bd:ct ""^^xsd:string ;
	bd:ct_notes ""^^xsd:string ;
	bd:notes "Subject-level identifier that represents the planned treatment dosage for period xx."^^xsd:string ;
	bd:compliance <http://www.assero.co.uk/MDRAdamIg/CDISC/V2#AIG-CDISC_ADAMIG_C_PERMISSIBLE> ;
	bd:typedAs <http://www.assero.co.uk/MDRAdamIg/CDISC/V2#AIG-CDISC_ADAMIG_DT_NUMERIC> ;
.
:AIG-CDISC_ADAMIGADSL_DOSExxA
	rdf:type <http://www.assero.co.uk/BusinessDomain#IgVariable> ;
	rdfs:label "Actual Treatment Dose for Period xx"^^xsd:string ;
	bd:ordinal "44"^^xsd:positiveInteger ;
	bd:rule ""^^xsd:string ;
	bd:name "DOSExxA"^^xsd:string ;
	bd:ct ""^^xsd:string ;
	bd:ct_notes ""^^xsd:string ;
	bd:notes "Subject-level identifier that represents the actual treatment dosage for period xx."^^xsd:string ;
	bd:compliance <http://www.assero.co.uk/MDRAdamIg/CDISC/V2#AIG-CDISC_ADAMIG_C_PERMISSIBLE> ;
	bd:typedAs <http://www.assero.co.uk/MDRAdamIg/CDISC/V2#AIG-CDISC_ADAMIG_DT_NUMERIC> ;
.
:AIG-CDISC_ADAMIGADSL_DOSExxU
	rdf:type <http://www.assero.co.uk/BusinessDomain#IgVariable> ;
	rdfs:label "Units for Dose for Period xx"^^xsd:string ;
	bd:ordinal "45"^^xsd:positiveInteger ;
	bd:rule ""^^xsd:string ;
	bd:name "DOSExxU"^^xsd:string ;
	bd:ct ""^^xsd:string ;
	bd:ct_notes ""^^xsd:string ;
	bd:notes "The units for DOSExxP and DOSExxA. It is permissible to use suffixes such as “P” and “A” if needed, with labels modified accordingly."^^xsd:string ;
	bd:compliance <http://www.assero.co.uk/MDRAdamIg/CDISC/V2#AIG-CDISC_ADAMIG_C_PERMISSIBLE> ;
	bd:typedAs <http://www.assero.co.uk/MDRAdamIg/CDISC/V2#AIG-CDISC_ADAMIG_DT_CHARACTER> ;
.
:AIG-CDISC_ADAMIGADSL_TRTSDT
	rdf:type <http://www.assero.co.uk/BusinessDomain#IgVariable> ;
	rdfs:label "Date of First Exposure to Treatment"^^xsd:string ;
	bd:ordinal "46"^^xsd:positiveInteger ;
	bd:rule ""^^xsd:string ;
	bd:name "TRTSDT"^^xsd:string ;
	bd:ct ""^^xsd:string ;
	bd:ct_notes ""^^xsd:string ;
	bd:notes "Date of first exposure to treatment for a subject in a study. TRTSDT and/or TRTSDTM are required if there is an investigational product. Note that TRTSDT is not required to have the same value as the SDTM DM variable RFXSTDTC. While both of these dates reflect the concept of first exposure, the ADaM date may be derived to support the analysis which may not necessarily be the very first date in the SDTM EX domain."^^xsd:string ;
	bd:compliance <http://www.assero.co.uk/MDRAdamIg/CDISC/V2#AIG-CDISC_ADAMIG_C_CONDITIONAL> ;
	bd:typedAs <http://www.assero.co.uk/MDRAdamIg/CDISC/V2#AIG-CDISC_ADAMIG_DT_NUMERIC> ;
.
:AIG-CDISC_ADAMIGADSL_TRTSTM
	rdf:type <http://www.assero.co.uk/BusinessDomain#IgVariable> ;
	rdfs:label "Time of First Exposure to Treatment"^^xsd:string ;
	bd:ordinal "47"^^xsd:positiveInteger ;
	bd:rule ""^^xsd:string ;
	bd:name "TRTSTM"^^xsd:string ;
	bd:ct ""^^xsd:string ;
	bd:ct_notes ""^^xsd:string ;
	bd:notes "Time of first exposure to treatment for a subject in a study."^^xsd:string ;
	bd:compliance <http://www.assero.co.uk/MDRAdamIg/CDISC/V2#AIG-CDISC_ADAMIG_C_PERMISSIBLE> ;
	bd:typedAs <http://www.assero.co.uk/MDRAdamIg/CDISC/V2#AIG-CDISC_ADAMIG_DT_NUMERIC> ;
.
:AIG-CDISC_ADAMIGADSL_TRTSDTM
	rdf:type <http://www.assero.co.uk/BusinessDomain#IgVariable> ;
	rdfs:label "Datetime of First Exposure to Treatment"^^xsd:string ;
	bd:ordinal "48"^^xsd:positiveInteger ;
	bd:rule ""^^xsd:string ;
	bd:name "TRTSDTM"^^xsd:string ;
	bd:ct ""^^xsd:string ;
	bd:ct_notes ""^^xsd:string ;
	bd:notes "Datetime of first exposure to treatment for a subject in a study. TRTSDT and/or TRTSDTM are required if there is an investigational product."^^xsd:string ;
	bd:compliance <http://www.assero.co.uk/MDRAdamIg/CDISC/V2#AIG-CDISC_ADAMIG_C_CONDITIONAL> ;
	bd:typedAs <http://www.assero.co.uk/MDRAdamIg/CDISC/V2#AIG-CDISC_ADAMIG_DT_NUMERIC> ;
.
:AIG-CDISC_ADAMIGADSL_TRTSDTF
	rdf:type <http://www.assero.co.uk/BusinessDomain#IgVariable> ;
	rdfs:label "Date of First Exposure Imput. Flag"^^xsd:string ;
	bd:ordinal "49"^^xsd:positiveInteger ;
	bd:rule ""^^xsd:string ;
	bd:name "TRTSDTF"^^xsd:string ;
	bd:ct "DATEFL"^^xsd:string ;
	bd:ct_notes ""^^xsd:string ;
	bd:notes "The level of imputation of date of first exposure to treatment. If TRTSDT (or the date part of TRTSDTM) was imputed, TRTSDTF must be populated and is required. See Section 3.1.3."^^xsd:string ;
	bd:compliance <http://www.assero.co.uk/MDRAdamIg/CDISC/V2#AIG-CDISC_ADAMIG_C_CONDITIONAL> ;
	bd:typedAs <http://www.assero.co.uk/MDRAdamIg/CDISC/V2#AIG-CDISC_ADAMIG_DT_CHARACTER> ;
.
:AIG-CDISC_ADAMIGADSL_TRTSTMF
	rdf:type <http://www.assero.co.uk/BusinessDomain#IgVariable> ;
	rdfs:label "Time of First Exposure Imput. Flag"^^xsd:string ;
	bd:ordinal "50"^^xsd:positiveInteger ;
	bd:rule ""^^xsd:string ;
	bd:name "TRTSTMF"^^xsd:string ;
	bd:ct "TIMEFL"^^xsd:string ;
	bd:ct_notes ""^^xsd:string ;
	bd:notes "The level of imputation of time of first exposure to treatment. If TRTSTM (or the time part of TRTSDTM) was imputed, TRTSTMF must be populated and is required. See Section 3.1.3."^^xsd:string ;
	bd:compliance <http://www.assero.co.uk/MDRAdamIg/CDISC/V2#AIG-CDISC_ADAMIG_C_CONDITIONAL> ;
	bd:typedAs <http://www.assero.co.uk/MDRAdamIg/CDISC/V2#AIG-CDISC_ADAMIG_DT_CHARACTER> ;
.
:AIG-CDISC_ADAMIGADSL_TRTEDT
	rdf:type <http://www.assero.co.uk/BusinessDomain#IgVariable> ;
	rdfs:label "Date of Last Exposure to Treatment"^^xsd:string ;
	bd:ordinal "51"^^xsd:positiveInteger ;
	bd:rule ""^^xsd:string ;
	bd:name "TRTEDT"^^xsd:string ;
	bd:ct ""^^xsd:string ;
	bd:ct_notes ""^^xsd:string ;
	bd:notes "Date of last exposure to treatment for a subject in a study. TRTEDT and/or TRTEDTM are required if there is an investigational product. Note that TRTEDT is not required to have the same value as the SDTM DM variable RFXENDTC. While both of these dates reflect the concept of last exposure, the ADaM date may be derived to support the analysis which may not necessarily be the very last date in the SDTM EX domain."^^xsd:string ;
	bd:compliance <http://www.assero.co.uk/MDRAdamIg/CDISC/V2#AIG-CDISC_ADAMIG_C_CONDITIONAL> ;
	bd:typedAs <http://www.assero.co.uk/MDRAdamIg/CDISC/V2#AIG-CDISC_ADAMIG_DT_NUMERIC> ;
.
:AIG-CDISC_ADAMIGADSL_TRTETM
	rdf:type <http://www.assero.co.uk/BusinessDomain#IgVariable> ;
	rdfs:label "Time of Last Exposure to Treatment"^^xsd:string ;
	bd:ordinal "52"^^xsd:positiveInteger ;
	bd:rule ""^^xsd:string ;
	bd:name "TRTETM"^^xsd:string ;
	bd:ct ""^^xsd:string ;
	bd:ct_notes ""^^xsd:string ;
	bd:notes "Time of last exposure to treatment for a subject in a study."^^xsd:string ;
	bd:compliance <http://www.assero.co.uk/MDRAdamIg/CDISC/V2#AIG-CDISC_ADAMIG_C_PERMISSIBLE> ;
	bd:typedAs <http://www.assero.co.uk/MDRAdamIg/CDISC/V2#AIG-CDISC_ADAMIG_DT_NUMERIC> ;
.
:AIG-CDISC_ADAMIGADSL_TRTEDTM
	rdf:type <http://www.assero.co.uk/BusinessDomain#IgVariable> ;
	rdfs:label "Datetime of Last Exposure to Treatment"^^xsd:string ;
	bd:ordinal "53"^^xsd:positiveInteger ;
	bd:rule ""^^xsd:string ;
	bd:name "TRTEDTM"^^xsd:string ;
	bd:ct ""^^xsd:string ;
	bd:ct_notes ""^^xsd:string ;
	bd:notes "Datetime of last exposure to treatment for a subject in a study. TRTEDT and/or TRTEDTM are required if there is an investigational product."^^xsd:string ;
	bd:compliance <http://www.assero.co.uk/MDRAdamIg/CDISC/V2#AIG-CDISC_ADAMIG_C_CONDITIONAL> ;
	bd:typedAs <http://www.assero.co.uk/MDRAdamIg/CDISC/V2#AIG-CDISC_ADAMIG_DT_NUMERIC> ;
.
:AIG-CDISC_ADAMIGADSL_TRTEDTF
	rdf:type <http://www.assero.co.uk/BusinessDomain#IgVariable> ;
	rdfs:label "Date of Last Exposure Imput. Flag"^^xsd:string ;
	bd:ordinal "54"^^xsd:positiveInteger ;
	bd:rule ""^^xsd:string ;
	bd:name "TRTEDTF"^^xsd:string ;
	bd:ct "DATEFL"^^xsd:string ;
	bd:ct_notes ""^^xsd:string ;
	bd:notes "The level of imputation of date of last exposure to treatment. If TRTEDT (or the date part of TRTEDTM) was imputed, TRTEDTF must be populated and is required. See Section 3.1.3."^^xsd:string ;
	bd:compliance <http://www.assero.co.uk/MDRAdamIg/CDISC/V2#AIG-CDISC_ADAMIG_C_CONDITIONAL> ;
	bd:typedAs <http://www.assero.co.uk/MDRAdamIg/CDISC/V2#AIG-CDISC_ADAMIG_DT_CHARACTER> ;
.
:AIG-CDISC_ADAMIGADSL_TRTETMF
	rdf:type <http://www.assero.co.uk/BusinessDomain#IgVariable> ;
	rdfs:label "Time of Last Exposure Imput. Flag"^^xsd:string ;
	bd:ordinal "55"^^xsd:positiveInteger ;
	bd:rule ""^^xsd:string ;
	bd:name "TRTETMF"^^xsd:string ;
	bd:ct "TIMEFL"^^xsd:string ;
	bd:ct_notes ""^^xsd:string ;
	bd:notes "The level of imputation of time of last exposure to treatment. If TRTETM (or the time part of TRTEDTM) was imputed, TRTETMF must be populated and is required. See Section 3.1.3."^^xsd:string ;
	bd:compliance <http://www.assero.co.uk/MDRAdamIg/CDISC/V2#AIG-CDISC_ADAMIG_C_CONDITIONAL> ;
	bd:typedAs <http://www.assero.co.uk/MDRAdamIg/CDISC/V2#AIG-CDISC_ADAMIG_DT_CHARACTER> ;
.
:AIG-CDISC_ADAMIGADSL_TRxxSDT
	rdf:type <http://www.assero.co.uk/BusinessDomain#IgVariable> ;
	rdfs:label "Date of First Exposure in Period xx"^^xsd:string ;
	bd:ordinal "56"^^xsd:positiveInteger ;
	bd:rule ""^^xsd:string ;
	bd:name "TRxxSDT"^^xsd:string ;
	bd:ct ""^^xsd:string ;
	bd:ct_notes ""^^xsd:string ;
	bd:notes "Date of first exposure to treatment in period xx. TRxxSDT and/or TRxxSDTM are only required in trial designs where multiple treatments are given to the same subject, such as a crossover design, but are permissible for other trial designs. Also useful in designs where multiple periods exist for the same treatment (i.e., multiple cycles of the same study treatment)."^^xsd:string ;
	bd:compliance <http://www.assero.co.uk/MDRAdamIg/CDISC/V2#AIG-CDISC_ADAMIG_C_CONDITIONAL> ;
	bd:typedAs <http://www.assero.co.uk/MDRAdamIg/CDISC/V2#AIG-CDISC_ADAMIG_DT_NUMERIC> ;
.
:AIG-CDISC_ADAMIGADSL_TRxxSTM
	rdf:type <http://www.assero.co.uk/BusinessDomain#IgVariable> ;
	rdfs:label "Time of First Exposure in Period xx"^^xsd:string ;
	bd:ordinal "57"^^xsd:positiveInteger ;
	bd:rule ""^^xsd:string ;
	bd:name "TRxxSTM"^^xsd:string ;
	bd:ct ""^^xsd:string ;
	bd:ct_notes ""^^xsd:string ;
	bd:notes "The starting time of exposure to treatment in period xx. TRxxSTM and/or TRxxSDTM are only required in trial designs where multiple treatments are given to the same subject, such as a crossover design (but are permissible for other trial designs), and time is important to the analysis."^^xsd:string ;
	bd:compliance <http://www.assero.co.uk/MDRAdamIg/CDISC/V2#AIG-CDISC_ADAMIG_C_CONDITIONAL> ;
	bd:typedAs <http://www.assero.co.uk/MDRAdamIg/CDISC/V2#AIG-CDISC_ADAMIG_DT_NUMERIC> ;
.
:AIG-CDISC_ADAMIGADSL_TRxxSDTM
	rdf:type <http://www.assero.co.uk/BusinessDomain#IgVariable> ;
	rdfs:label "Datetime of First Exposure in Period xx"^^xsd:string ;
	bd:ordinal "58"^^xsd:positiveInteger ;
	bd:rule ""^^xsd:string ;
	bd:name "TRxxSDTM"^^xsd:string ;
	bd:ct ""^^xsd:string ;
	bd:ct_notes ""^^xsd:string ;
	bd:notes "Datetime of first exposure to treatment in period xx. TRxxSDT and/or TRxxSDTM are only required in trial designs where multiple treatments are given to the same subject, such as a crossover design, but are permissible for other trial designs."^^xsd:string ;
	bd:compliance <http://www.assero.co.uk/MDRAdamIg/CDISC/V2#AIG-CDISC_ADAMIG_C_CONDITIONAL> ;
	bd:typedAs <http://www.assero.co.uk/MDRAdamIg/CDISC/V2#AIG-CDISC_ADAMIG_DT_NUMERIC> ;
.
:AIG-CDISC_ADAMIGADSL_TRxxSDTF
	rdf:type <http://www.assero.co.uk/BusinessDomain#IgVariable> ;
	rdfs:label "Date 1st Exposure Period xx Imput. Flag"^^xsd:string ;
	bd:ordinal "59"^^xsd:positiveInteger ;
	bd:rule ""^^xsd:string ;
	bd:name "TRxxSDTF"^^xsd:string ;
	bd:ct "DATEFL"^^xsd:string ;
	bd:ct_notes ""^^xsd:string ;
	bd:notes "The level of imputation of date of first exposure to treatment in period xx. If TRxxSDT (or the date part of TRxxSDTM) was imputed, TRxxSDTF must be populated and is required. See Section 3.1.3."^^xsd:string ;
	bd:compliance <http://www.assero.co.uk/MDRAdamIg/CDISC/V2#AIG-CDISC_ADAMIG_C_CONDITIONAL> ;
	bd:typedAs <http://www.assero.co.uk/MDRAdamIg/CDISC/V2#AIG-CDISC_ADAMIG_DT_CHARACTER> ;
.
:AIG-CDISC_ADAMIGADSL_TRxxSTMF
	rdf:type <http://www.assero.co.uk/BusinessDomain#IgVariable> ;
	rdfs:label "Time 1st Exposure Period xx Imput. Flag"^^xsd:string ;
	bd:ordinal "60"^^xsd:positiveInteger ;
	bd:rule ""^^xsd:string ;
	bd:name "TRxxSTMF"^^xsd:string ;
	bd:ct "TIMEFL"^^xsd:string ;
	bd:ct_notes ""^^xsd:string ;
	bd:notes "The level of imputation of time of first exposure to treatment in period xx. If TRxxSTM (or the time part of TRxxSDTM) was imputed, TRxxSTMF must be populated and is required. See Section 3.1.3."^^xsd:string ;
	bd:compliance <http://www.assero.co.uk/MDRAdamIg/CDISC/V2#AIG-CDISC_ADAMIG_C_CONDITIONAL> ;
	bd:typedAs <http://www.assero.co.uk/MDRAdamIg/CDISC/V2#AIG-CDISC_ADAMIG_DT_CHARACTER> ;
.
:AIG-CDISC_ADAMIGADSL_TRxxEDT
	rdf:type <http://www.assero.co.uk/BusinessDomain#IgVariable> ;
	rdfs:label "Date of Last Exposure in Period xx"^^xsd:string ;
	bd:ordinal "61"^^xsd:positiveInteger ;
	bd:rule ""^^xsd:string ;
	bd:name "TRxxEDT"^^xsd:string ;
	bd:ct ""^^xsd:string ;
	bd:ct_notes ""^^xsd:string ;
	bd:notes "Date of last exposure to treatment in period xx. TRxxEDT and/or TRxxEDTM are only required in trial designs where multiple treatments are given to the same subject, such as a crossover design, but are permissible for other trial designs."^^xsd:string ;
	bd:compliance <http://www.assero.co.uk/MDRAdamIg/CDISC/V2#AIG-CDISC_ADAMIG_C_CONDITIONAL> ;
	bd:typedAs <http://www.assero.co.uk/MDRAdamIg/CDISC/V2#AIG-CDISC_ADAMIG_DT_NUMERIC> ;
.
:AIG-CDISC_ADAMIGADSL_TRxxETM
	rdf:type <http://www.assero.co.uk/BusinessDomain#IgVariable> ;
	rdfs:label "Time of Last Exposure in Period xx"^^xsd:string ;
	bd:ordinal "62"^^xsd:positiveInteger ;
	bd:rule ""^^xsd:string ;
	bd:name "TRxxETM"^^xsd:string ;
	bd:ct ""^^xsd:string ;
	bd:ct_notes ""^^xsd:string ;
	bd:notes "The ending time of exposure to treatment in period xx. TRxxETM and/or TRxxEDTM are only required in trial designs where multiple treatments are given to the same subject, such as a crossover design, and ending time is important to the analysis, but are permissible for other trial designs."^^xsd:string ;
	bd:compliance <http://www.assero.co.uk/MDRAdamIg/CDISC/V2#AIG-CDISC_ADAMIG_C_CONDITIONAL> ;
	bd:typedAs <http://www.assero.co.uk/MDRAdamIg/CDISC/V2#AIG-CDISC_ADAMIG_DT_NUMERIC> ;
.
:AIG-CDISC_ADAMIGADSL_TRxxEDTM
	rdf:type <http://www.assero.co.uk/BusinessDomain#IgVariable> ;
	rdfs:label "Datetime of Last Exposure in Period xx"^^xsd:string ;
	bd:ordinal "63"^^xsd:positiveInteger ;
	bd:rule ""^^xsd:string ;
	bd:name "TRxxEDTM"^^xsd:string ;
	bd:ct ""^^xsd:string ;
	bd:ct_notes ""^^xsd:string ;
	bd:notes "The datetime of last exposure to treatment in period xx. TRxxEDT and/or TRxxEDTM are only required in trial designs where multiple treatments are given to the same subject, such as a crossover design, but are permissible for other trial designs."^^xsd:string ;
	bd:compliance <http://www.assero.co.uk/MDRAdamIg/CDISC/V2#AIG-CDISC_ADAMIG_C_CONDITIONAL> ;
	bd:typedAs <http://www.assero.co.uk/MDRAdamIg/CDISC/V2#AIG-CDISC_ADAMIG_DT_NUMERIC> ;
.
:AIG-CDISC_ADAMIGADSL_TRxxEDTF
	rdf:type <http://www.assero.co.uk/BusinessDomain#IgVariable> ;
	rdfs:label "Date Last Exposure Period xx Imput. Flag"^^xsd:string ;
	bd:ordinal "64"^^xsd:positiveInteger ;
	bd:rule ""^^xsd:string ;
	bd:name "TRxxEDTF"^^xsd:string ;
	bd:ct "DATEFL"^^xsd:string ;
	bd:ct_notes ""^^xsd:string ;
	bd:notes "The level of imputation of date of last exposure to treatment in period xx. If TRxxEDT (or the date part of TRxxEDTM) was imputed, TRxxEDTF must be populated and is required. See Section 3.1.3."^^xsd:string ;
	bd:compliance <http://www.assero.co.uk/MDRAdamIg/CDISC/V2#AIG-CDISC_ADAMIG_C_CONDITIONAL> ;
	bd:typedAs <http://www.assero.co.uk/MDRAdamIg/CDISC/V2#AIG-CDISC_ADAMIG_DT_CHARACTER> ;
.
:AIG-CDISC_ADAMIGADSL_TRxxETMF
	rdf:type <http://www.assero.co.uk/BusinessDomain#IgVariable> ;
	rdfs:label "Time Last Exposure Period xx Imput. Flag"^^xsd:string ;
	bd:ordinal "65"^^xsd:positiveInteger ;
	bd:rule ""^^xsd:string ;
	bd:name "TRxxETMF"^^xsd:string ;
	bd:ct "TIMEFL"^^xsd:string ;
	bd:ct_notes ""^^xsd:string ;
	bd:notes "The level of imputation of time of last exposure to treatment in period xx. If TRxxETM (or the time part of TRxxEDTM) was imputed, TRxxETMF must be populated and is required. See Section 3.1.3."^^xsd:string ;
	bd:compliance <http://www.assero.co.uk/MDRAdamIg/CDISC/V2#AIG-CDISC_ADAMIG_C_CONDITIONAL> ;
	bd:typedAs <http://www.assero.co.uk/MDRAdamIg/CDISC/V2#AIG-CDISC_ADAMIG_DT_CHARACTER> ;
.
:AIG-CDISC_ADAMIGADSL_APxxSDT
	rdf:type <http://www.assero.co.uk/BusinessDomain#IgVariable> ;
	rdfs:label "Period xx Start Date"^^xsd:string ;
	bd:ordinal "66"^^xsd:positiveInteger ;
	bd:rule ""^^xsd:string ;
	bd:name "APxxSDT"^^xsd:string ;
	bd:ct ""^^xsd:string ;
	bd:ct_notes ""^^xsd:string ;
	bd:notes "The starting date of period xx."^^xsd:string ;
	bd:compliance <http://www.assero.co.uk/MDRAdamIg/CDISC/V2#AIG-CDISC_ADAMIG_C_PERMISSIBLE> ;
	bd:typedAs <http://www.assero.co.uk/MDRAdamIg/CDISC/V2#AIG-CDISC_ADAMIG_DT_NUMERIC> ;
.
:AIG-CDISC_ADAMIGADSL_APxxSTM
	rdf:type <http://www.assero.co.uk/BusinessDomain#IgVariable> ;
	rdfs:label "Period xx Start Time"^^xsd:string ;
	bd:ordinal "67"^^xsd:positiveInteger ;
	bd:rule ""^^xsd:string ;
	bd:name "APxxSTM"^^xsd:string ;
	bd:ct ""^^xsd:string ;
	bd:ct_notes ""^^xsd:string ;
	bd:notes "The starting time of period xx."^^xsd:string ;
	bd:compliance <http://www.assero.co.uk/MDRAdamIg/CDISC/V2#AIG-CDISC_ADAMIG_C_PERMISSIBLE> ;
	bd:typedAs <http://www.assero.co.uk/MDRAdamIg/CDISC/V2#AIG-CDISC_ADAMIG_DT_NUMERIC> ;
.
:AIG-CDISC_ADAMIGADSL_APxxSDTM
	rdf:type <http://www.assero.co.uk/BusinessDomain#IgVariable> ;
	rdfs:label "Period xx Start Datetime"^^xsd:string ;
	bd:ordinal "68"^^xsd:positiveInteger ;
	bd:rule ""^^xsd:string ;
	bd:name "APxxSDTM"^^xsd:string ;
	bd:ct ""^^xsd:string ;
	bd:ct_notes ""^^xsd:string ;
	bd:notes "The starting datetime of period xx."^^xsd:string ;
	bd:compliance <http://www.assero.co.uk/MDRAdamIg/CDISC/V2#AIG-CDISC_ADAMIG_C_PERMISSIBLE> ;
	bd:typedAs <http://www.assero.co.uk/MDRAdamIg/CDISC/V2#AIG-CDISC_ADAMIG_DT_NUMERIC> ;
.
:AIG-CDISC_ADAMIGADSL_APxxSDTF
	rdf:type <http://www.assero.co.uk/BusinessDomain#IgVariable> ;
	rdfs:label "Period xx Start Date Imput. Flag"^^xsd:string ;
	bd:ordinal "69"^^xsd:positiveInteger ;
	bd:rule ""^^xsd:string ;
	bd:name "APxxSDTF"^^xsd:string ;
	bd:ct "DATEFL"^^xsd:string ;
	bd:ct_notes ""^^xsd:string ;
	bd:notes "The level of imputation of period xx start date. See Section 3.1.3."^^xsd:string ;
	bd:compliance <http://www.assero.co.uk/MDRAdamIg/CDISC/V2#AIG-CDISC_ADAMIG_C_CONDITIONAL> ;
	bd:typedAs <http://www.assero.co.uk/MDRAdamIg/CDISC/V2#AIG-CDISC_ADAMIG_DT_CHARACTER> ;
.
:AIG-CDISC_ADAMIGADSL_APxxSTMF
	rdf:type <http://www.assero.co.uk/BusinessDomain#IgVariable> ;
	rdfs:label "Period xx Start Time Imput. Flag"^^xsd:string ;
	bd:ordinal "70"^^xsd:positiveInteger ;
	bd:rule ""^^xsd:string ;
	bd:name "APxxSTMF"^^xsd:string ;
	bd:ct "TIMEFL"^^xsd:string ;
	bd:ct_notes ""^^xsd:string ;
	bd:notes "The level of imputation of period xx start time. See Section 3.1.3."^^xsd:string ;
	bd:compliance <http://www.assero.co.uk/MDRAdamIg/CDISC/V2#AIG-CDISC_ADAMIG_C_CONDITIONAL> ;
	bd:typedAs <http://www.assero.co.uk/MDRAdamIg/CDISC/V2#AIG-CDISC_ADAMIG_DT_CHARACTER> ;
.
:AIG-CDISC_ADAMIGADSL_APxxEDT
	rdf:type <http://www.assero.co.uk/BusinessDomain#IgVariable> ;
	rdfs:label "Period xx End Date"^^xsd:string ;
	bd:ordinal "71"^^xsd:positiveInteger ;
	bd:rule ""^^xsd:string ;
	bd:name "APxxEDT"^^xsd:string ;
	bd:ct ""^^xsd:string ;
	bd:ct_notes ""^^xsd:string ;
	bd:notes "The ending date of period xx."^^xsd:string ;
	bd:compliance <http://www.assero.co.uk/MDRAdamIg/CDISC/V2#AIG-CDISC_ADAMIG_C_PERMISSIBLE> ;
	bd:typedAs <http://www.assero.co.uk/MDRAdamIg/CDISC/V2#AIG-CDISC_ADAMIG_DT_NUMERIC> ;
.
:AIG-CDISC_ADAMIGADSL_APxxETM
	rdf:type <http://www.assero.co.uk/BusinessDomain#IgVariable> ;
	rdfs:label "Period xx End Time"^^xsd:string ;
	bd:ordinal "72"^^xsd:positiveInteger ;
	bd:rule ""^^xsd:string ;
	bd:name "APxxETM"^^xsd:string ;
	bd:ct ""^^xsd:string ;
	bd:ct_notes ""^^xsd:string ;
	bd:notes "The ending time of period xx."^^xsd:string ;
	bd:compliance <http://www.assero.co.uk/MDRAdamIg/CDISC/V2#AIG-CDISC_ADAMIG_C_PERMISSIBLE> ;
	bd:typedAs <http://www.assero.co.uk/MDRAdamIg/CDISC/V2#AIG-CDISC_ADAMIG_DT_NUMERIC> ;
.
:AIG-CDISC_ADAMIGADSL_APxxEDTM
	rdf:type <http://www.assero.co.uk/BusinessDomain#IgVariable> ;
	rdfs:label "Period xx End Datetime"^^xsd:string ;
	bd:ordinal "73"^^xsd:positiveInteger ;
	bd:rule ""^^xsd:string ;
	bd:name "APxxEDTM"^^xsd:string ;
	bd:ct ""^^xsd:string ;
	bd:ct_notes ""^^xsd:string ;
	bd:notes "The ending datetime of period xx."^^xsd:string ;
	bd:compliance <http://www.assero.co.uk/MDRAdamIg/CDISC/V2#AIG-CDISC_ADAMIG_C_PERMISSIBLE> ;
	bd:typedAs <http://www.assero.co.uk/MDRAdamIg/CDISC/V2#AIG-CDISC_ADAMIG_DT_NUMERIC> ;
.
:AIG-CDISC_ADAMIGADSL_APxxEDTF
	rdf:type <http://www.assero.co.uk/BusinessDomain#IgVariable> ;
	rdfs:label "Period xx End Date Imput. Flag"^^xsd:string ;
	bd:ordinal "74"^^xsd:positiveInteger ;
	bd:rule ""^^xsd:string ;
	bd:name "APxxEDTF"^^xsd:string ;
	bd:ct "DATEFL"^^xsd:string ;
	bd:ct_notes ""^^xsd:string ;
	bd:notes "The level of imputation of period xx end date. See Section 3.1.3."^^xsd:string ;
	bd:compliance <http://www.assero.co.uk/MDRAdamIg/CDISC/V2#AIG-CDISC_ADAMIG_C_CONDITIONAL> ;
	bd:typedAs <http://www.assero.co.uk/MDRAdamIg/CDISC/V2#AIG-CDISC_ADAMIG_DT_CHARACTER> ;
.
:AIG-CDISC_ADAMIGADSL_APxxETMF
	rdf:type <http://www.assero.co.uk/BusinessDomain#IgVariable> ;
	rdfs:label "Period xx End Time Imput. Flag"^^xsd:string ;
	bd:ordinal "75"^^xsd:positiveInteger ;
	bd:rule ""^^xsd:string ;
	bd:name "APxxETMF"^^xsd:string ;
	bd:ct "TIMEFL"^^xsd:string ;
	bd:ct_notes ""^^xsd:string ;
	bd:notes "The level of imputation of period xx end time. See Section 3.1.3."^^xsd:string ;
	bd:compliance <http://www.assero.co.uk/MDRAdamIg/CDISC/V2#AIG-CDISC_ADAMIG_C_CONDITIONAL> ;
	bd:typedAs <http://www.assero.co.uk/MDRAdamIg/CDISC/V2#AIG-CDISC_ADAMIG_DT_CHARACTER> ;
.
:AIG-CDISC_ADAMIGADSL_PxxSw
	rdf:type <http://www.assero.co.uk/BusinessDomain#IgVariable> ;
	rdfs:label "Description of  Period xx Subperiod w"^^xsd:string ;
	bd:ordinal "76"^^xsd:positiveInteger ;
	bd:rule ""^^xsd:string ;
	bd:name "PxxSw"^^xsd:string ;
	bd:ct ""^^xsd:string ;
	bd:ct_notes ""^^xsd:string ;
	bd:notes "Description of analysis subperiod w within period xx."^^xsd:string ;
	bd:compliance <http://www.assero.co.uk/MDRAdamIg/CDISC/V2#AIG-CDISC_ADAMIG_C_PERMISSIBLE> ;
	bd:typedAs <http://www.assero.co.uk/MDRAdamIg/CDISC/V2#AIG-CDISC_ADAMIG_DT_CHARACTER> ;
.
:AIG-CDISC_ADAMIGADSL_PxxSwSDT
	rdf:type <http://www.assero.co.uk/BusinessDomain#IgVariable> ;
	rdfs:label "Period xx Subperiod w Start Date"^^xsd:string ;
	bd:ordinal "77"^^xsd:positiveInteger ;
	bd:rule ""^^xsd:string ;
	bd:name "PxxSwSDT"^^xsd:string ;
	bd:ct ""^^xsd:string ;
	bd:ct_notes ""^^xsd:string ;
	bd:notes "The starting date of subperiod w within period xx."^^xsd:string ;
	bd:compliance <http://www.assero.co.uk/MDRAdamIg/CDISC/V2#AIG-CDISC_ADAMIG_C_PERMISSIBLE> ;
	bd:typedAs <http://www.assero.co.uk/MDRAdamIg/CDISC/V2#AIG-CDISC_ADAMIG_DT_NUMERIC> ;
.
:AIG-CDISC_ADAMIGADSL_PxxSwSTM
	rdf:type <http://www.assero.co.uk/BusinessDomain#IgVariable> ;
	rdfs:label "Period xx Subperiod w Start Time"^^xsd:string ;
	bd:ordinal "78"^^xsd:positiveInteger ;
	bd:rule ""^^xsd:string ;
	bd:name "PxxSwSTM"^^xsd:string ;
	bd:ct ""^^xsd:string ;
	bd:ct_notes ""^^xsd:string ;
	bd:notes "The starting time of subperiod w within period xx."^^xsd:string ;
	bd:compliance <http://www.assero.co.uk/MDRAdamIg/CDISC/V2#AIG-CDISC_ADAMIG_C_PERMISSIBLE> ;
	bd:typedAs <http://www.assero.co.uk/MDRAdamIg/CDISC/V2#AIG-CDISC_ADAMIG_DT_NUMERIC> ;
.
:AIG-CDISC_ADAMIGADSL_PxxSwSDM
	rdf:type <http://www.assero.co.uk/BusinessDomain#IgVariable> ;
	rdfs:label "Period xx Subperiod w Start Datetime"^^xsd:string ;
	bd:ordinal "79"^^xsd:positiveInteger ;
	bd:rule ""^^xsd:string ;
	bd:name "PxxSwSDM"^^xsd:string ;
	bd:ct ""^^xsd:string ;
	bd:ct_notes ""^^xsd:string ;
	bd:notes "The starting datetime of subperiod w within period xx."^^xsd:string ;
	bd:compliance <http://www.assero.co.uk/MDRAdamIg/CDISC/V2#AIG-CDISC_ADAMIG_C_PERMISSIBLE> ;
	bd:typedAs <http://www.assero.co.uk/MDRAdamIg/CDISC/V2#AIG-CDISC_ADAMIG_DT_NUMERIC> ;
.
:AIG-CDISC_ADAMIGADSL_PxxSwSDF
	rdf:type <http://www.assero.co.uk/BusinessDomain#IgVariable> ;
	rdfs:label "Period xx Subper w Start Date Imput Flag"^^xsd:string ;
	bd:ordinal "80"^^xsd:positiveInteger ;
	bd:rule ""^^xsd:string ;
	bd:name "PxxSwSDF"^^xsd:string ;
	bd:ct "DATEFL"^^xsd:string ;
	bd:ct_notes ""^^xsd:string ;
	bd:notes "The level of imputation of the start date for subperiod w within period xx. See Section 3.1.3."^^xsd:string ;
	bd:compliance <http://www.assero.co.uk/MDRAdamIg/CDISC/V2#AIG-CDISC_ADAMIG_C_CONDITIONAL> ;
	bd:typedAs <http://www.assero.co.uk/MDRAdamIg/CDISC/V2#AIG-CDISC_ADAMIG_DT_CHARACTER> ;
.
:AIG-CDISC_ADAMIGADSL_PxxSwSTF
	rdf:type <http://www.assero.co.uk/BusinessDomain#IgVariable> ;
	rdfs:label "Period xx Subper w Start Time Imput Flag"^^xsd:string ;
	bd:ordinal "81"^^xsd:positiveInteger ;
	bd:rule ""^^xsd:string ;
	bd:name "PxxSwSTF"^^xsd:string ;
	bd:ct "TIMEFL"^^xsd:string ;
	bd:ct_notes ""^^xsd:string ;
	bd:notes "The level of imputation of the start time for subperiod w within period xx. See Section 3.1.3."^^xsd:string ;
	bd:compliance <http://www.assero.co.uk/MDRAdamIg/CDISC/V2#AIG-CDISC_ADAMIG_C_CONDITIONAL> ;
	bd:typedAs <http://www.assero.co.uk/MDRAdamIg/CDISC/V2#AIG-CDISC_ADAMIG_DT_CHARACTER> ;
.
:AIG-CDISC_ADAMIGADSL_PxxSwEDT
	rdf:type <http://www.assero.co.uk/BusinessDomain#IgVariable> ;
	rdfs:label "Period xx Subperiod w End Date"^^xsd:string ;
	bd:ordinal "82"^^xsd:positiveInteger ;
	bd:rule ""^^xsd:string ;
	bd:name "PxxSwEDT"^^xsd:string ;
	bd:ct ""^^xsd:string ;
	bd:ct_notes ""^^xsd:string ;
	bd:notes "The ending date of subperiod w within period xx."^^xsd:string ;
	bd:compliance <http://www.assero.co.uk/MDRAdamIg/CDISC/V2#AIG-CDISC_ADAMIG_C_PERMISSIBLE> ;
	bd:typedAs <http://www.assero.co.uk/MDRAdamIg/CDISC/V2#AIG-CDISC_ADAMIG_DT_NUMERIC> ;
.
:AIG-CDISC_ADAMIGADSL_PxxSwETM
	rdf:type <http://www.assero.co.uk/BusinessDomain#IgVariable> ;
	rdfs:label "Period xx Subperiod w End Time"^^xsd:string ;
	bd:ordinal "83"^^xsd:positiveInteger ;
	bd:rule ""^^xsd:string ;
	bd:name "PxxSwETM"^^xsd:string ;
	bd:ct ""^^xsd:string ;
	bd:ct_notes ""^^xsd:string ;
	bd:notes "The ending time of subperiod w within period xx."^^xsd:string ;
	bd:compliance <http://www.assero.co.uk/MDRAdamIg/CDISC/V2#AIG-CDISC_ADAMIG_C_PERMISSIBLE> ;
	bd:typedAs <http://www.assero.co.uk/MDRAdamIg/CDISC/V2#AIG-CDISC_ADAMIG_DT_NUMERIC> ;
.
:AIG-CDISC_ADAMIGADSL_PxxSwEDM
	rdf:type <http://www.assero.co.uk/BusinessDomain#IgVariable> ;
	rdfs:label "Period xx Subperiod w End Datetime"^^xsd:string ;
	bd:ordinal "84"^^xsd:positiveInteger ;
	bd:rule ""^^xsd:string ;
	bd:name "PxxSwEDM"^^xsd:string ;
	bd:ct ""^^xsd:string ;
	bd:ct_notes ""^^xsd:string ;
	bd:notes "The ending datetime of subperiod w within period xx."^^xsd:string ;
	bd:compliance <http://www.assero.co.uk/MDRAdamIg/CDISC/V2#AIG-CDISC_ADAMIG_C_PERMISSIBLE> ;
	bd:typedAs <http://www.assero.co.uk/MDRAdamIg/CDISC/V2#AIG-CDISC_ADAMIG_DT_NUMERIC> ;
.
:AIG-CDISC_ADAMIGADSL_PxxSwEDF
	rdf:type <http://www.assero.co.uk/BusinessDomain#IgVariable> ;
	rdfs:label "Period xx Subper w End Date Imput Flag"^^xsd:string ;
	bd:ordinal "85"^^xsd:positiveInteger ;
	bd:rule ""^^xsd:string ;
	bd:name "PxxSwEDF"^^xsd:string ;
	bd:ct "DATEFL"^^xsd:string ;
	bd:ct_notes ""^^xsd:string ;
	bd:notes "The level of imputation of the end date for subperiod w within period xx. See Section 3.1.3."^^xsd:string ;
	bd:compliance <http://www.assero.co.uk/MDRAdamIg/CDISC/V2#AIG-CDISC_ADAMIG_C_CONDITIONAL> ;
	bd:typedAs <http://www.assero.co.uk/MDRAdamIg/CDISC/V2#AIG-CDISC_ADAMIG_DT_CHARACTER> ;
.
:AIG-CDISC_ADAMIGADSL_PxxSwETF
	rdf:type <http://www.assero.co.uk/BusinessDomain#IgVariable> ;
	rdfs:label "Period xx Subper w End Time Imput Flag"^^xsd:string ;
	bd:ordinal "86"^^xsd:positiveInteger ;
	bd:rule ""^^xsd:string ;
	bd:name "PxxSwETF"^^xsd:string ;
	bd:ct "TIMEFL"^^xsd:string ;
	bd:ct_notes ""^^xsd:string ;
	bd:notes "The level of imputation of the end time for subperiod w within period xx. See Section 3.1.3."^^xsd:string ;
	bd:compliance <http://www.assero.co.uk/MDRAdamIg/CDISC/V2#AIG-CDISC_ADAMIG_C_CONDITIONAL> ;
	bd:typedAs <http://www.assero.co.uk/MDRAdamIg/CDISC/V2#AIG-CDISC_ADAMIG_DT_CHARACTER> ;
.
:AIG-CDISC_ADAMIGADSL_APHASEw
	rdf:type <http://www.assero.co.uk/BusinessDomain#IgVariable> ;
	rdfs:label "Description of Phase w"^^xsd:string ;
	bd:ordinal "87"^^xsd:positiveInteger ;
	bd:rule ""^^xsd:string ;
	bd:name "APHASEw"^^xsd:string ;
	bd:ct ""^^xsd:string ;
	bd:ct_notes ""^^xsd:string ;
	bd:notes "Description of analysis phase w."^^xsd:string ;
	bd:compliance <http://www.assero.co.uk/MDRAdamIg/CDISC/V2#AIG-CDISC_ADAMIG_C_PERMISSIBLE> ;
	bd:typedAs <http://www.assero.co.uk/MDRAdamIg/CDISC/V2#AIG-CDISC_ADAMIG_DT_CHARACTER> ;
.
:AIG-CDISC_ADAMIGADSL_PHwSDT
	rdf:type <http://www.assero.co.uk/BusinessDomain#IgVariable> ;
	rdfs:label "Phase w Start Date"^^xsd:string ;
	bd:ordinal "88"^^xsd:positiveInteger ;
	bd:rule ""^^xsd:string ;
	bd:name "PHwSDT"^^xsd:string ;
	bd:ct ""^^xsd:string ;
	bd:ct_notes ""^^xsd:string ;
	bd:notes "The starting date of phase w."^^xsd:string ;
	bd:compliance <http://www.assero.co.uk/MDRAdamIg/CDISC/V2#AIG-CDISC_ADAMIG_C_PERMISSIBLE> ;
	bd:typedAs <http://www.assero.co.uk/MDRAdamIg/CDISC/V2#AIG-CDISC_ADAMIG_DT_NUMERIC> ;
.
:AIG-CDISC_ADAMIGADSL_PHwSTM
	rdf:type <http://www.assero.co.uk/BusinessDomain#IgVariable> ;
	rdfs:label "Phase w Start Time"^^xsd:string ;
	bd:ordinal "89"^^xsd:positiveInteger ;
	bd:rule ""^^xsd:string ;
	bd:name "PHwSTM"^^xsd:string ;
	bd:ct ""^^xsd:string ;
	bd:ct_notes ""^^xsd:string ;
	bd:notes "The starting time of phase w."^^xsd:string ;
	bd:compliance <http://www.assero.co.uk/MDRAdamIg/CDISC/V2#AIG-CDISC_ADAMIG_C_PERMISSIBLE> ;
	bd:typedAs <http://www.assero.co.uk/MDRAdamIg/CDISC/V2#AIG-CDISC_ADAMIG_DT_NUMERIC> ;
.
:AIG-CDISC_ADAMIGADSL_PHwSDTM
	rdf:type <http://www.assero.co.uk/BusinessDomain#IgVariable> ;
	rdfs:label "Phase w Start Datetime"^^xsd:string ;
	bd:ordinal "90"^^xsd:positiveInteger ;
	bd:rule ""^^xsd:string ;
	bd:name "PHwSDTM"^^xsd:string ;
	bd:ct ""^^xsd:string ;
	bd:ct_notes ""^^xsd:string ;
	bd:notes "The starting datetime of phase w."^^xsd:string ;
	bd:compliance <http://www.assero.co.uk/MDRAdamIg/CDISC/V2#AIG-CDISC_ADAMIG_C_PERMISSIBLE> ;
	bd:typedAs <http://www.assero.co.uk/MDRAdamIg/CDISC/V2#AIG-CDISC_ADAMIG_DT_NUMERIC> ;
.
:AIG-CDISC_ADAMIGADSL_PHwSDTF
	rdf:type <http://www.assero.co.uk/BusinessDomain#IgVariable> ;
	rdfs:label "Phase w Start Date Imputation Flag"^^xsd:string ;
	bd:ordinal "91"^^xsd:positiveInteger ;
	bd:rule ""^^xsd:string ;
	bd:name "PHwSDTF"^^xsd:string ;
	bd:ct "DATEFL"^^xsd:string ;
	bd:ct_notes ""^^xsd:string ;
	bd:notes "The level of imputation of the start date for phase w. See Section 3.1.3."^^xsd:string ;
	bd:compliance <http://www.assero.co.uk/MDRAdamIg/CDISC/V2#AIG-CDISC_ADAMIG_C_CONDITIONAL> ;
	bd:typedAs <http://www.assero.co.uk/MDRAdamIg/CDISC/V2#AIG-CDISC_ADAMIG_DT_CHARACTER> ;
.
:AIG-CDISC_ADAMIGADSL_PHwSTMF
	rdf:type <http://www.assero.co.uk/BusinessDomain#IgVariable> ;
	rdfs:label "Phase w Start Time Imputation Flag"^^xsd:string ;
	bd:ordinal "92"^^xsd:positiveInteger ;
	bd:rule ""^^xsd:string ;
	bd:name "PHwSTMF"^^xsd:string ;
	bd:ct "TIMEFL"^^xsd:string ;
	bd:ct_notes ""^^xsd:string ;
	bd:notes "The level of imputation of the start time for phase w. See Section 3.1.3."^^xsd:string ;
	bd:compliance <http://www.assero.co.uk/MDRAdamIg/CDISC/V2#AIG-CDISC_ADAMIG_C_CONDITIONAL> ;
	bd:typedAs <http://www.assero.co.uk/MDRAdamIg/CDISC/V2#AIG-CDISC_ADAMIG_DT_CHARACTER> ;
.
:AIG-CDISC_ADAMIGADSL_PHwEDT
	rdf:type <http://www.assero.co.uk/BusinessDomain#IgVariable> ;
	rdfs:label "Phase w End Date"^^xsd:string ;
	bd:ordinal "93"^^xsd:positiveInteger ;
	bd:rule ""^^xsd:string ;
	bd:name "PHwEDT"^^xsd:string ;
	bd:ct ""^^xsd:string ;
	bd:ct_notes ""^^xsd:string ;
	bd:notes "The ending date of phase w."^^xsd:string ;
	bd:compliance <http://www.assero.co.uk/MDRAdamIg/CDISC/V2#AIG-CDISC_ADAMIG_C_PERMISSIBLE> ;
	bd:typedAs <http://www.assero.co.uk/MDRAdamIg/CDISC/V2#AIG-CDISC_ADAMIG_DT_NUMERIC> ;
.
:AIG-CDISC_ADAMIGADSL_PHwETM
	rdf:type <http://www.assero.co.uk/BusinessDomain#IgVariable> ;
	rdfs:label "Phase w End Time"^^xsd:string ;
	bd:ordinal "94"^^xsd:positiveInteger ;
	bd:rule ""^^xsd:string ;
	bd:name "PHwETM"^^xsd:string ;
	bd:ct ""^^xsd:string ;
	bd:ct_notes ""^^xsd:string ;
	bd:notes "The ending time of phase w."^^xsd:string ;
	bd:compliance <http://www.assero.co.uk/MDRAdamIg/CDISC/V2#AIG-CDISC_ADAMIG_C_PERMISSIBLE> ;
	bd:typedAs <http://www.assero.co.uk/MDRAdamIg/CDISC/V2#AIG-CDISC_ADAMIG_DT_NUMERIC> ;
.
:AIG-CDISC_ADAMIGADSL_PHwEDTM
	rdf:type <http://www.assero.co.uk/BusinessDomain#IgVariable> ;
	rdfs:label "Phase w End Datetime"^^xsd:string ;
	bd:ordinal "95"^^xsd:positiveInteger ;
	bd:rule ""^^xsd:string ;
	bd:name "PHwEDTM"^^xsd:string ;
	bd:ct ""^^xsd:string ;
	bd:ct_notes ""^^xsd:string ;
	bd:notes "The ending datetime of phase w."^^xsd:string ;
	bd:compliance <http://www.assero.co.uk/MDRAdamIg/CDISC/V2#AIG-CDISC_ADAMIG_C_PERMISSIBLE> ;
	bd:typedAs <http://www.assero.co.uk/MDRAdamIg/CDISC/V2#AIG-CDISC_ADAMIG_DT_NUMERIC> ;
.
:AIG-CDISC_ADAMIGADSL_PHwEDTF
	rdf:type <http://www.assero.co.uk/BusinessDomain#IgVariable> ;
	rdfs:label "Phase w End Date Imputation Flag"^^xsd:string ;
	bd:ordinal "96"^^xsd:positiveInteger ;
	bd:rule ""^^xsd:string ;
	bd:name "PHwEDTF"^^xsd:string ;
	bd:ct "DATEFL"^^xsd:string ;
	bd:ct_notes ""^^xsd:string ;
	bd:notes "The level of imputation of the end date for phase w. See Section 3.1.3."^^xsd:string ;
	bd:compliance <http://www.assero.co.uk/MDRAdamIg/CDISC/V2#AIG-CDISC_ADAMIG_C_CONDITIONAL> ;
	bd:typedAs <http://www.assero.co.uk/MDRAdamIg/CDISC/V2#AIG-CDISC_ADAMIG_DT_CHARACTER> ;
.
:AIG-CDISC_ADAMIGADSL_PHwETMF
	rdf:type <http://www.assero.co.uk/BusinessDomain#IgVariable> ;
	rdfs:label "Phase w End Time Imputation Flag"^^xsd:string ;
	bd:ordinal "97"^^xsd:positiveInteger ;
	bd:rule ""^^xsd:string ;
	bd:name "PHwETMF"^^xsd:string ;
	bd:ct "TIMEFL"^^xsd:string ;
	bd:ct_notes ""^^xsd:string ;
	bd:notes "The level of imputation of the end time for phase w. See Section 3.1.3."^^xsd:string ;
	bd:compliance <http://www.assero.co.uk/MDRAdamIg/CDISC/V2#AIG-CDISC_ADAMIG_C_CONDITIONAL> ;
	bd:typedAs <http://www.assero.co.uk/MDRAdamIg/CDISC/V2#AIG-CDISC_ADAMIG_DT_CHARACTER> ;
.
:AIG-CDISC_ADAMIGADSL_EOSSTT
	rdf:type <http://www.assero.co.uk/BusinessDomain#IgVariable> ;
	rdfs:label "End of Study Status"^^xsd:string ;
	bd:ordinal "98"^^xsd:positiveInteger ;
	bd:rule ""^^xsd:string ;
	bd:name "EOSSTT"^^xsd:string ;
	bd:ct ""^^xsd:string ;
	bd:ct_notes ""^^xsd:string ;
	bd:notes "The subject’s status as of the end of study or data cutoff. Examples: COMPLETED, DISCONTINUED, ONGOING."^^xsd:string ;
	bd:compliance <http://www.assero.co.uk/MDRAdamIg/CDISC/V2#AIG-CDISC_ADAMIG_C_PERMISSIBLE> ;
	bd:typedAs <http://www.assero.co.uk/MDRAdamIg/CDISC/V2#AIG-CDISC_ADAMIG_DT_CHARACTER> ;
.
:AIG-CDISC_ADAMIGADSL_EOSDT
	rdf:type <http://www.assero.co.uk/BusinessDomain#IgVariable> ;
	rdfs:label "End of Study Date"^^xsd:string ;
	bd:ordinal "99"^^xsd:positiveInteger ;
	bd:rule ""^^xsd:string ;
	bd:name "EOSDT"^^xsd:string ;
	bd:ct ""^^xsd:string ;
	bd:ct_notes ""^^xsd:string ;
	bd:notes "Date subject ended the study – either date of completion or date of discontinuation or data cutoff date for interim analyses."^^xsd:string ;
	bd:compliance <http://www.assero.co.uk/MDRAdamIg/CDISC/V2#AIG-CDISC_ADAMIG_C_PERMISSIBLE> ;
	bd:typedAs <http://www.assero.co.uk/MDRAdamIg/CDISC/V2#AIG-CDISC_ADAMIG_DT_NUMERIC> ;
.
:AIG-CDISC_ADAMIGADSL_DCSREAS
	rdf:type <http://www.assero.co.uk/BusinessDomain#IgVariable> ;
	rdfs:label "Reason for Discontinuation from Study"^^xsd:string ;
	bd:ordinal "100"^^xsd:positiveInteger ;
	bd:rule ""^^xsd:string ;
	bd:name "DCSREAS"^^xsd:string ;
	bd:ct ""^^xsd:string ;
	bd:ct_notes ""^^xsd:string ;
	bd:notes "Reason for subject’s discontinuation from study. The source would most likely be the SDTM DS dataset. Null for subjects who completed the study."^^xsd:string ;
	bd:compliance <http://www.assero.co.uk/MDRAdamIg/CDISC/V2#AIG-CDISC_ADAMIG_C_PERMISSIBLE> ;
	bd:typedAs <http://www.assero.co.uk/MDRAdamIg/CDISC/V2#AIG-CDISC_ADAMIG_DT_CHARACTER> ;
.
:AIG-CDISC_ADAMIGADSL_DCSREASP
	rdf:type <http://www.assero.co.uk/BusinessDomain#IgVariable> ;
	rdfs:label "Reason Spec for Discont from Study"^^xsd:string ;
	bd:ordinal "101"^^xsd:positiveInteger ;
	bd:rule ""^^xsd:string ;
	bd:name "DCSREASP"^^xsd:string ;
	bd:ct ""^^xsd:string ;
	bd:ct_notes ""^^xsd:string ;
	bd:notes "Additional detail regarding subject’s discontinuation from study (e.g., description of “other”)."^^xsd:string ;
	bd:compliance <http://www.assero.co.uk/MDRAdamIg/CDISC/V2#AIG-CDISC_ADAMIG_C_PERMISSIBLE> ;
	bd:typedAs <http://www.assero.co.uk/MDRAdamIg/CDISC/V2#AIG-CDISC_ADAMIG_DT_CHARACTER> ;
.
:AIG-CDISC_ADAMIGADSL_EOTSTT
	rdf:type <http://www.assero.co.uk/BusinessDomain#IgVariable> ;
	rdfs:label "End of Treatment Status"^^xsd:string ;
	bd:ordinal "102"^^xsd:positiveInteger ;
	bd:rule ""^^xsd:string ;
	bd:name "EOTSTT"^^xsd:string ;
	bd:ct ""^^xsd:string ;
	bd:ct_notes ""^^xsd:string ;
	bd:notes "The subject’s status as of the end of treatment or data cutoff. Examples: COMPLETED, DISCONTINUED, ONGOING."^^xsd:string ;
	bd:compliance <http://www.assero.co.uk/MDRAdamIg/CDISC/V2#AIG-CDISC_ADAMIG_C_PERMISSIBLE> ;
	bd:typedAs <http://www.assero.co.uk/MDRAdamIg/CDISC/V2#AIG-CDISC_ADAMIG_DT_CHARACTER> ;
.
:AIG-CDISC_ADAMIGADSL_DCTREAS
	rdf:type <http://www.assero.co.uk/BusinessDomain#IgVariable> ;
	rdfs:label "Reason for Discontinuation of Treatment"^^xsd:string ;
	bd:ordinal "103"^^xsd:positiveInteger ;
	bd:rule ""^^xsd:string ;
	bd:name "DCTREAS"^^xsd:string ;
	bd:ct ""^^xsd:string ;
	bd:ct_notes ""^^xsd:string ;
	bd:notes "If a subject discontinued treatment in the study, then this variable indicates the reason for discontinuation. This is for discontinuation of treatment in the overall study and not to be used for discontinuation reason within individual treatment periods."^^xsd:string ;
	bd:compliance <http://www.assero.co.uk/MDRAdamIg/CDISC/V2#AIG-CDISC_ADAMIG_C_PERMISSIBLE> ;
	bd:typedAs <http://www.assero.co.uk/MDRAdamIg/CDISC/V2#AIG-CDISC_ADAMIG_DT_CHARACTER> ;
.
:AIG-CDISC_ADAMIGADSL_DCTREASP
	rdf:type <http://www.assero.co.uk/BusinessDomain#IgVariable> ;
	rdfs:label "Reason Specify for Discont of Treatment"^^xsd:string ;
	bd:ordinal "104"^^xsd:positiveInteger ;
	bd:rule ""^^xsd:string ;
	bd:name "DCTREASP"^^xsd:string ;
	bd:ct ""^^xsd:string ;
	bd:ct_notes ""^^xsd:string ;
	bd:notes "Additional detail regarding subject’s discontinuation from treatment (e.g., description of “other”)."^^xsd:string ;
	bd:compliance <http://www.assero.co.uk/MDRAdamIg/CDISC/V2#AIG-CDISC_ADAMIG_C_PERMISSIBLE> ;
	bd:typedAs <http://www.assero.co.uk/MDRAdamIg/CDISC/V2#AIG-CDISC_ADAMIG_DT_CHARACTER> ;
.
:AIG-CDISC_ADAMIGADSL_EOTxxSTT
	rdf:type <http://www.assero.co.uk/BusinessDomain#IgVariable> ;
	rdfs:label "End of Treatment Status in Period xx"^^xsd:string ;
	bd:ordinal "105"^^xsd:positiveInteger ;
	bd:rule ""^^xsd:string ;
	bd:name "EOTxxSTT"^^xsd:string ;
	bd:ct ""^^xsd:string ;
	bd:ct_notes ""^^xsd:string ;
	bd:notes "The subject’s treatment status as of the end of period xx, or data cutoff if within period xx. Examples: COMPLETED, DISCONTINUED, ONGOING."^^xsd:string ;
	bd:compliance <http://www.assero.co.uk/MDRAdamIg/CDISC/V2#AIG-CDISC_ADAMIG_C_PERMISSIBLE> ;
	bd:typedAs <http://www.assero.co.uk/MDRAdamIg/CDISC/V2#AIG-CDISC_ADAMIG_DT_CHARACTER> ;
.
:AIG-CDISC_ADAMIGADSL_DCTxxRS
	rdf:type <http://www.assero.co.uk/BusinessDomain#IgVariable> ;
	rdfs:label "Reason for Discont of Treat in Period xx"^^xsd:string ;
	bd:ordinal "106"^^xsd:positiveInteger ;
	bd:rule ""^^xsd:string ;
	bd:name "DCTxxRS"^^xsd:string ;
	bd:ct ""^^xsd:string ;
	bd:ct_notes ""^^xsd:string ;
	bd:notes "Reason for discontinuing treatment in period xx."^^xsd:string ;
	bd:compliance <http://www.assero.co.uk/MDRAdamIg/CDISC/V2#AIG-CDISC_ADAMIG_C_PERMISSIBLE> ;
	bd:typedAs <http://www.assero.co.uk/MDRAdamIg/CDISC/V2#AIG-CDISC_ADAMIG_DT_CHARACTER> ;
.
:AIG-CDISC_ADAMIGADSL_DCTxxRSP
	rdf:type <http://www.assero.co.uk/BusinessDomain#IgVariable> ;
	rdfs:label "Reason Spec for Disc of Trt in Period xx"^^xsd:string ;
	bd:ordinal "107"^^xsd:positiveInteger ;
	bd:rule ""^^xsd:string ;
	bd:name "DCTxxRSP"^^xsd:string ;
	bd:ct ""^^xsd:string ;
	bd:ct_notes ""^^xsd:string ;
	bd:notes "Additional detail regarding subject’s discontinuation of treatment in period xx (e.g., description of “other”)."^^xsd:string ;
	bd:compliance <http://www.assero.co.uk/MDRAdamIg/CDISC/V2#AIG-CDISC_ADAMIG_C_PERMISSIBLE> ;
	bd:typedAs <http://www.assero.co.uk/MDRAdamIg/CDISC/V2#AIG-CDISC_ADAMIG_DT_CHARACTER> ;
.
:AIG-CDISC_ADAMIGADSL_EOPxxSTT
	rdf:type <http://www.assero.co.uk/BusinessDomain#IgVariable> ;
	rdfs:label "End of Period xx Status"^^xsd:string ;
	bd:ordinal "108"^^xsd:positiveInteger ;
	bd:rule ""^^xsd:string ;
	bd:name "EOPxxSTT"^^xsd:string ;
	bd:ct ""^^xsd:string ;
	bd:ct_notes ""^^xsd:string ;
	bd:notes "The subject’s status as of the end of period xx, or data cutoff if within period xx. Examples: COMPLETED, DISCONTINUED, ONGOING."^^xsd:string ;
	bd:compliance <http://www.assero.co.uk/MDRAdamIg/CDISC/V2#AIG-CDISC_ADAMIG_C_PERMISSIBLE> ;
	bd:typedAs <http://www.assero.co.uk/MDRAdamIg/CDISC/V2#AIG-CDISC_ADAMIG_DT_CHARACTER> ;
.
:AIG-CDISC_ADAMIGADSL_DCPxxRS
	rdf:type <http://www.assero.co.uk/BusinessDomain#IgVariable> ;
	rdfs:label "Reason for Discont from Period xx"^^xsd:string ;
	bd:ordinal "109"^^xsd:positiveInteger ;
	bd:rule ""^^xsd:string ;
	bd:name "DCPxxRS"^^xsd:string ;
	bd:ct ""^^xsd:string ;
	bd:ct_notes ""^^xsd:string ;
	bd:notes "Reason for discontinuing analysis period xx."^^xsd:string ;
	bd:compliance <http://www.assero.co.uk/MDRAdamIg/CDISC/V2#AIG-CDISC_ADAMIG_C_PERMISSIBLE> ;
	bd:typedAs <http://www.assero.co.uk/MDRAdamIg/CDISC/V2#AIG-CDISC_ADAMIG_DT_CHARACTER> ;
.
:AIG-CDISC_ADAMIGADSL_DCPxxRSP
	rdf:type <http://www.assero.co.uk/BusinessDomain#IgVariable> ;
	rdfs:label "Reason Spec for Discont from Period xx"^^xsd:string ;
	bd:ordinal "110"^^xsd:positiveInteger ;
	bd:rule ""^^xsd:string ;
	bd:name "DCPxxRSP"^^xsd:string ;
	bd:ct ""^^xsd:string ;
	bd:ct_notes ""^^xsd:string ;
	bd:notes "Additional detail regarding subject’s discontinuation from period xx (e.g., description of “other”)."^^xsd:string ;
	bd:compliance <http://www.assero.co.uk/MDRAdamIg/CDISC/V2#AIG-CDISC_ADAMIG_C_PERMISSIBLE> ;
	bd:typedAs <http://www.assero.co.uk/MDRAdamIg/CDISC/V2#AIG-CDISC_ADAMIG_DT_CHARACTER> ;
.
:AIG-CDISC_ADAMIGADSL_RFICDT
	rdf:type <http://www.assero.co.uk/BusinessDomain#IgVariable> ;
	rdfs:label "Date of Informed Consent"^^xsd:string ;
	bd:ordinal "111"^^xsd:positiveInteger ;
	bd:rule ""^^xsd:string ;
	bd:name "RFICDT"^^xsd:string ;
	bd:ct ""^^xsd:string ;
	bd:ct_notes ""^^xsd:string ;
	bd:notes "Date subject gave informed consent. Generally equivalent to DM.RFICDTC."^^xsd:string ;
	bd:compliance <http://www.assero.co.uk/MDRAdamIg/CDISC/V2#AIG-CDISC_ADAMIG_C_PERMISSIBLE> ;
	bd:typedAs <http://www.assero.co.uk/MDRAdamIg/CDISC/V2#AIG-CDISC_ADAMIG_DT_NUMERIC> ;
.
:AIG-CDISC_ADAMIGADSL_ENRLDT
	rdf:type <http://www.assero.co.uk/BusinessDomain#IgVariable> ;
	rdfs:label "Date of Enrollment"^^xsd:string ;
	bd:ordinal "112"^^xsd:positiveInteger ;
	bd:rule ""^^xsd:string ;
	bd:name "ENRLDT"^^xsd:string ;
	bd:ct ""^^xsd:string ;
	bd:ct_notes ""^^xsd:string ;
	bd:notes "Date of subject’s enrollment into trial."^^xsd:string ;
	bd:compliance <http://www.assero.co.uk/MDRAdamIg/CDISC/V2#AIG-CDISC_ADAMIG_C_PERMISSIBLE> ;
	bd:typedAs <http://www.assero.co.uk/MDRAdamIg/CDISC/V2#AIG-CDISC_ADAMIG_DT_NUMERIC> ;
.
:AIG-CDISC_ADAMIGADSL_RANDDT
	rdf:type <http://www.assero.co.uk/BusinessDomain#IgVariable> ;
	rdfs:label "Date of Randomization"^^xsd:string ;
	bd:ordinal "113"^^xsd:positiveInteger ;
	bd:rule ""^^xsd:string ;
	bd:name "RANDDT"^^xsd:string ;
	bd:ct ""^^xsd:string ;
	bd:ct_notes ""^^xsd:string ;
	bd:notes "Required in randomized trials."^^xsd:string ;
	bd:compliance <http://www.assero.co.uk/MDRAdamIg/CDISC/V2#AIG-CDISC_ADAMIG_C_CONDITIONAL> ;
	bd:typedAs <http://www.assero.co.uk/MDRAdamIg/CDISC/V2#AIG-CDISC_ADAMIG_DT_NUMERIC> ;
.
:AIG-CDISC_ADAMIGADSL_RFICyDT
	rdf:type <http://www.assero.co.uk/BusinessDomain#IgVariable> ;
	rdfs:label "Date of Informed Consent y"^^xsd:string ;
	bd:ordinal "114"^^xsd:positiveInteger ;
	bd:rule ""^^xsd:string ;
	bd:name "RFICyDT"^^xsd:string ;
	bd:ct ""^^xsd:string ;
	bd:ct_notes ""^^xsd:string ;
	bd:notes "This variable may be used in the case where there are multiple consent dates within a study. This date does not need to repeat the date in RFICDT. ‘y’ can start with 1 but it is not required to start with 1."^^xsd:string ;
	bd:compliance <http://www.assero.co.uk/MDRAdamIg/CDISC/V2#AIG-CDISC_ADAMIG_C_PERMISSIBLE> ;
	bd:typedAs <http://www.assero.co.uk/MDRAdamIg/CDISC/V2#AIG-CDISC_ADAMIG_DT_NUMERIC> ;
.
:AIG-CDISC_ADAMIGADSL_ENRLyDT
	rdf:type <http://www.assero.co.uk/BusinessDomain#IgVariable> ;
	rdfs:label "Date of Enrollment y"^^xsd:string ;
	bd:ordinal "115"^^xsd:positiveInteger ;
	bd:rule ""^^xsd:string ;
	bd:name "ENRLyDT"^^xsd:string ;
	bd:ct ""^^xsd:string ;
	bd:ct_notes ""^^xsd:string ;
	bd:notes "This variable may be used in the case where there are multiple enrollment dates within a study. This date does not need to repeat the date in ENRLDT. ‘y’ can start with 1 but it is not required to start with 1."^^xsd:string ;
	bd:compliance <http://www.assero.co.uk/MDRAdamIg/CDISC/V2#AIG-CDISC_ADAMIG_C_PERMISSIBLE> ;
	bd:typedAs <http://www.assero.co.uk/MDRAdamIg/CDISC/V2#AIG-CDISC_ADAMIG_DT_NUMERIC> ;
.
:AIG-CDISC_ADAMIGADSL_RANDyDT
	rdf:type <http://www.assero.co.uk/BusinessDomain#IgVariable> ;
	rdfs:label "Date of Randomization y"^^xsd:string ;
	bd:ordinal "116"^^xsd:positiveInteger ;
	bd:rule ""^^xsd:string ;
	bd:name "RANDyDT"^^xsd:string ;
	bd:ct ""^^xsd:string ;
	bd:ct_notes ""^^xsd:string ;
	bd:notes "This variable may be used in the case where there are multiple randomization dates within a study. This date does not need to repeat the date in RANDDT. ‘y’ can start with 1 but it is not required to start with 1."^^xsd:string ;
	bd:compliance <http://www.assero.co.uk/MDRAdamIg/CDISC/V2#AIG-CDISC_ADAMIG_C_PERMISSIBLE> ;
	bd:typedAs <http://www.assero.co.uk/MDRAdamIg/CDISC/V2#AIG-CDISC_ADAMIG_DT_NUMERIC> ;
.
:AIG-CDISC_ADAMIGADSL_LSTALVDT
	rdf:type <http://www.assero.co.uk/BusinessDomain#IgVariable> ;
	rdfs:label "Date Last Known Alive"^^xsd:string ;
	bd:ordinal "117"^^xsd:positiveInteger ;
	bd:rule ""^^xsd:string ;
	bd:name "LSTALVDT"^^xsd:string ;
	bd:ct ""^^xsd:string ;
	bd:ct_notes ""^^xsd:string ;
	bd:notes "If this variable is included in ADSL, the best practice is to populate it for everyone. If the derivation for subjects who died differs from the derivation for subjects who are not known to have died, the differences should be noted in metadata."^^xsd:string ;
	bd:compliance <http://www.assero.co.uk/MDRAdamIg/CDISC/V2#AIG-CDISC_ADAMIG_C_PERMISSIBLE> ;
	bd:typedAs <http://www.assero.co.uk/MDRAdamIg/CDISC/V2#AIG-CDISC_ADAMIG_DT_NUMERIC> ;
.
:AIG-CDISC_ADAMIGADSL_TRCMP
	rdf:type <http://www.assero.co.uk/BusinessDomain#IgVariable> ;
	rdfs:label "Treatment Compliance (%)"^^xsd:string ;
	bd:ordinal "118"^^xsd:positiveInteger ;
	bd:rule ""^^xsd:string ;
	bd:name "TRCMP"^^xsd:string ;
	bd:ct ""^^xsd:string ;
	bd:ct_notes ""^^xsd:string ;
	bd:notes "Overall percent compliance with treatment in the trial. TRCMP may be useful for inclusion in ADSL for reasons such as defining subgroups and/or populations."^^xsd:string ;
	bd:compliance <http://www.assero.co.uk/MDRAdamIg/CDISC/V2#AIG-CDISC_ADAMIG_C_PERMISSIBLE> ;
	bd:typedAs <http://www.assero.co.uk/MDRAdamIg/CDISC/V2#AIG-CDISC_ADAMIG_DT_NUMERIC> ;
.
:AIG-CDISC_ADAMIGADSL_TRCMPGy
	rdf:type <http://www.assero.co.uk/BusinessDomain#IgVariable> ;
	rdfs:label "Treatment Compliance (%) Group y"^^xsd:string ;
	bd:ordinal "119"^^xsd:positiveInteger ;
	bd:rule ""^^xsd:string ;
	bd:name "TRCMPGy"^^xsd:string ;
	bd:ct ""^^xsd:string ;
	bd:ct_notes ""^^xsd:string ;
	bd:notes "Grouping ‘y’ of TRCMP, treatment compliance percentage."^^xsd:string ;
	bd:compliance <http://www.assero.co.uk/MDRAdamIg/CDISC/V2#AIG-CDISC_ADAMIG_C_PERMISSIBLE> ;
	bd:typedAs <http://www.assero.co.uk/MDRAdamIg/CDISC/V2#AIG-CDISC_ADAMIG_DT_CHARACTER> ;
.
:AIG-CDISC_ADAMIGADSL_TRCMPGyN
	rdf:type <http://www.assero.co.uk/BusinessDomain#IgVariable> ;
	rdfs:label "Treatment Compliance (%) Group y (N)"^^xsd:string ;
	bd:ordinal "120"^^xsd:positiveInteger ;
	bd:rule ""^^xsd:string ;
	bd:name "TRCMPGyN"^^xsd:string ;
	bd:ct ""^^xsd:string ;
	bd:ct_notes ""^^xsd:string ;
	bd:notes "Numeric version of treatment compliance (%) grouping ‘y’. Must have a one-to-one mapping to TRCMPGy."^^xsd:string ;
	bd:compliance <http://www.assero.co.uk/MDRAdamIg/CDISC/V2#AIG-CDISC_ADAMIG_C_PERMISSIBLE> ;
	bd:typedAs <http://www.assero.co.uk/MDRAdamIg/CDISC/V2#AIG-CDISC_ADAMIG_DT_NUMERIC> ;
.
:AIG-CDISC_ADAMIGADSL_TRxxDURD
	rdf:type <http://www.assero.co.uk/BusinessDomain#IgVariable> ;
	rdfs:label "Treatment Duration in Period xx (Days)"^^xsd:string ;
	bd:ordinal "121"^^xsd:positiveInteger ;
	bd:rule ""^^xsd:string ;
	bd:name "TRxxDURD"^^xsd:string ;
	bd:ct ""^^xsd:string ;
	bd:ct_notes ""^^xsd:string ;
	bd:notes "Treatment duration for period xx as measured in days. More than one of TRxxDURD, TRxxDURM, and TRxxDURY can be populated, but each represents the entire duration in its respective units."^^xsd:string ;
	bd:compliance <http://www.assero.co.uk/MDRAdamIg/CDISC/V2#AIG-CDISC_ADAMIG_C_PERMISSIBLE> ;
	bd:typedAs <http://www.assero.co.uk/MDRAdamIg/CDISC/V2#AIG-CDISC_ADAMIG_DT_NUMERIC> ;
.
:AIG-CDISC_ADAMIGADSL_TRxxDURM
	rdf:type <http://www.assero.co.uk/BusinessDomain#IgVariable> ;
	rdfs:label "Treatment Duration in Period xx (Months)"^^xsd:string ;
	bd:ordinal "122"^^xsd:positiveInteger ;
	bd:rule ""^^xsd:string ;
	bd:name "TRxxDURM"^^xsd:string ;
	bd:ct ""^^xsd:string ;
	bd:ct_notes ""^^xsd:string ;
	bd:notes "Treatment duration for period xx, as measure in months. More than one of TRxxDURD, TRxxDURM, and TRxxDURY can be populated, but each represents the entire duration in its respective units."^^xsd:string ;
	bd:compliance <http://www.assero.co.uk/MDRAdamIg/CDISC/V2#AIG-CDISC_ADAMIG_C_PERMISSIBLE> ;
	bd:typedAs <http://www.assero.co.uk/MDRAdamIg/CDISC/V2#AIG-CDISC_ADAMIG_DT_NUMERIC> ;
.
:AIG-CDISC_ADAMIGADSL_TRxxDURY
	rdf:type <http://www.assero.co.uk/BusinessDomain#IgVariable> ;
	rdfs:label "Treatment Duration in Period xx (Years)"^^xsd:string ;
	bd:ordinal "123"^^xsd:positiveInteger ;
	bd:rule ""^^xsd:string ;
	bd:name "TRxxDURY"^^xsd:string ;
	bd:ct ""^^xsd:string ;
	bd:ct_notes ""^^xsd:string ;
	bd:notes "Treatment duration for period xx, as measured in years. More than one of TRxxDURD, TRxxDURM, and TRxxDURY can be populated, but each represents the entire duration in its respective units."^^xsd:string ;
	bd:compliance <http://www.assero.co.uk/MDRAdamIg/CDISC/V2#AIG-CDISC_ADAMIG_C_PERMISSIBLE> ;
	bd:typedAs <http://www.assero.co.uk/MDRAdamIg/CDISC/V2#AIG-CDISC_ADAMIG_DT_NUMERIC> ;
.
:AIG-CDISC_ADAMIGADSL_TRTDURD
	rdf:type <http://www.assero.co.uk/BusinessDomain#IgVariable> ;
	rdfs:label "Total Treatment Duration (Days)"^^xsd:string ;
	bd:ordinal "124"^^xsd:positiveInteger ;
	bd:rule ""^^xsd:string ;
	bd:name "TRTDURD"^^xsd:string ;
	bd:ct ""^^xsd:string ;
	bd:ct_notes ""^^xsd:string ;
	bd:notes "Total treatment duration, as measured in days. More than one of TRTDURD, TRTDURM, and TRTDURY can be populated, but each represents the entire duration in its respective units."^^xsd:string ;
	bd:compliance <http://www.assero.co.uk/MDRAdamIg/CDISC/V2#AIG-CDISC_ADAMIG_C_PERMISSIBLE> ;
	bd:typedAs <http://www.assero.co.uk/MDRAdamIg/CDISC/V2#AIG-CDISC_ADAMIG_DT_NUMERIC> ;
.
:AIG-CDISC_ADAMIGADSL_TRTDURM
	rdf:type <http://www.assero.co.uk/BusinessDomain#IgVariable> ;
	rdfs:label "Total Treatment Duration (Months)"^^xsd:string ;
	bd:ordinal "125"^^xsd:positiveInteger ;
	bd:rule ""^^xsd:string ;
	bd:name "TRTDURM"^^xsd:string ;
	bd:ct ""^^xsd:string ;
	bd:ct_notes ""^^xsd:string ;
	bd:notes "Total treatment duration, as measured in months. More than one of TRTDURD, TRTDURM, and TRTDURY can be populated, but each represents the entire duration in its respective units."^^xsd:string ;
	bd:compliance <http://www.assero.co.uk/MDRAdamIg/CDISC/V2#AIG-CDISC_ADAMIG_C_PERMISSIBLE> ;
	bd:typedAs <http://www.assero.co.uk/MDRAdamIg/CDISC/V2#AIG-CDISC_ADAMIG_DT_NUMERIC> ;
.
:AIG-CDISC_ADAMIGADSL_TRTDURY
	rdf:type <http://www.assero.co.uk/BusinessDomain#IgVariable> ;
	rdfs:label "Total Treatment Duration (Years)"^^xsd:string ;
	bd:ordinal "126"^^xsd:positiveInteger ;
	bd:rule ""^^xsd:string ;
	bd:name "TRTDURY"^^xsd:string ;
	bd:ct ""^^xsd:string ;
	bd:ct_notes ""^^xsd:string ;
	bd:notes "Total treatment duration, as measured in years. More than one of TRTDURD, TRTDURM, and TRTDURY can be populated, but each represents the entire duration in its respective units."^^xsd:string ;
	bd:compliance <http://www.assero.co.uk/MDRAdamIg/CDISC/V2#AIG-CDISC_ADAMIG_C_PERMISSIBLE> ;
	bd:typedAs <http://www.assero.co.uk/MDRAdamIg/CDISC/V2#AIG-CDISC_ADAMIG_DT_NUMERIC> ;
.
:AIG-CDISC_ADAMIGADSL_DTHDT
	rdf:type <http://www.assero.co.uk/BusinessDomain#IgVariable> ;
	rdfs:label "Date of Death"^^xsd:string ;
	bd:ordinal "127"^^xsd:positiveInteger ;
	bd:rule ""^^xsd:string ;
	bd:name "DTHDT"^^xsd:string ;
	bd:ct ""^^xsd:string ;
	bd:ct_notes ""^^xsd:string ;
	bd:notes "Date of subject’s death. Derived from DM.DTHDTC."^^xsd:string ;
	bd:compliance <http://www.assero.co.uk/MDRAdamIg/CDISC/V2#AIG-CDISC_ADAMIG_C_PERMISSIBLE> ;
	bd:typedAs <http://www.assero.co.uk/MDRAdamIg/CDISC/V2#AIG-CDISC_ADAMIG_DT_NUMERIC> ;
.
:AIG-CDISC_ADAMIGADSL_DTHDTF
	rdf:type <http://www.assero.co.uk/BusinessDomain#IgVariable> ;
	rdfs:label "Date of Death Imputation Flag"^^xsd:string ;
	bd:ordinal "128"^^xsd:positiveInteger ;
	bd:rule ""^^xsd:string ;
	bd:name "DTHDTF"^^xsd:string ;
	bd:ct ""^^xsd:string ;
	bd:ct_notes ""^^xsd:string ;
	bd:notes "Imputation flag for date of subject’s death. If DTHDT was imputed, DTHDTF must be populated and is required. See Section 3.1.3."^^xsd:string ;
	bd:compliance <http://www.assero.co.uk/MDRAdamIg/CDISC/V2#AIG-CDISC_ADAMIG_C_CONDITIONAL> ;
	bd:typedAs <http://www.assero.co.uk/MDRAdamIg/CDISC/V2#AIG-CDISC_ADAMIG_DT_CHARACTER> ;
.
:AIG-CDISC_ADAMIGADSL_DTHCAUS
	rdf:type <http://www.assero.co.uk/BusinessDomain#IgVariable> ;
	rdfs:label "Cause of Death"^^xsd:string ;
	bd:ordinal "129"^^xsd:positiveInteger ;
	bd:rule ""^^xsd:string ;
	bd:name "DTHCAUS"^^xsd:string ;
	bd:ct ""^^xsd:string ;
	bd:ct_notes ""^^xsd:string ;
	bd:notes "Cause of Death."^^xsd:string ;
	bd:compliance <http://www.assero.co.uk/MDRAdamIg/CDISC/V2#AIG-CDISC_ADAMIG_C_PERMISSIBLE> ;
	bd:typedAs <http://www.assero.co.uk/MDRAdamIg/CDISC/V2#AIG-CDISC_ADAMIG_DT_CHARACTER> ;
.
:AIG-CDISC_ADAMIGADSL_DTHCAUSN
	rdf:type <http://www.assero.co.uk/BusinessDomain#IgVariable> ;
	rdfs:label "Cause of Death (N)"^^xsd:string ;
	bd:ordinal "130"^^xsd:positiveInteger ;
	bd:rule ""^^xsd:string ;
	bd:name "DTHCAUSN"^^xsd:string ;
	bd:ct ""^^xsd:string ;
	bd:ct_notes ""^^xsd:string ;
	bd:notes "Numeric representation of cause of death. Must have a one-to-one mapping to DTHCAUS."^^xsd:string ;
	bd:compliance <http://www.assero.co.uk/MDRAdamIg/CDISC/V2#AIG-CDISC_ADAMIG_C_PERMISSIBLE> ;
	bd:typedAs <http://www.assero.co.uk/MDRAdamIg/CDISC/V2#AIG-CDISC_ADAMIG_DT_NUMERIC> ;
.
:AIG-CDISC_ADAMIGADSL_DTHCGRy
	rdf:type <http://www.assero.co.uk/BusinessDomain#IgVariable> ;
	rdfs:label "Cause of Death Group y"^^xsd:string ;
	bd:ordinal "131"^^xsd:positiveInteger ;
	bd:rule ""^^xsd:string ;
	bd:name "DTHCGRy"^^xsd:string ;
	bd:ct ""^^xsd:string ;
	bd:ct_notes ""^^xsd:string ;
	bd:notes "Grouping ‘y’ of DTHCAUS, the subject’s cause of death."^^xsd:string ;
	bd:compliance <http://www.assero.co.uk/MDRAdamIg/CDISC/V2#AIG-CDISC_ADAMIG_C_PERMISSIBLE> ;
	bd:typedAs <http://www.assero.co.uk/MDRAdamIg/CDISC/V2#AIG-CDISC_ADAMIG_DT_CHARACTER> ;
.
:AIG-CDISC_ADAMIGADSL_DTHCGRyN
	rdf:type <http://www.assero.co.uk/BusinessDomain#IgVariable> ;
	rdfs:label "Cause of Death Group y (N)"^^xsd:string ;
	bd:ordinal "132"^^xsd:positiveInteger ;
	bd:rule ""^^xsd:string ;
	bd:name "DTHCGRyN"^^xsd:string ;
	bd:ct ""^^xsd:string ;
	bd:ct_notes ""^^xsd:string ;
	bd:notes "Numeric version of grouping ‘y’ of the subject’s cause of death. Must have a one-to-one mapping to DTHCGRy."^^xsd:string ;
	bd:compliance <http://www.assero.co.uk/MDRAdamIg/CDISC/V2#AIG-CDISC_ADAMIG_C_PERMISSIBLE> ;
	bd:typedAs <http://www.assero.co.uk/MDRAdamIg/CDISC/V2#AIG-CDISC_ADAMIG_DT_NUMERIC> ;
.
:AIG-CDISC_ADAMIGBDS
	rdf:type <http://www.assero.co.uk/BusinessDomain#IgDataset> ;
	rdfs:label "Basic Data Structure"^^xsd:string ;
	isoI:hasIdentifier <http://www.assero.co.uk/MDRItems#SI-CDISC_ADAMIGBDS-2> ;
	isoR:hasState <http://www.assero.co.uk/MDRItems#RS-CDISC_ADAMIGBDS-2> ;
	isoT:creationDate "2019-01-23T00:00:00+00:00"^^xsd:dateTime ;
	isoT:lastChangeDate "2019-01-23T00:00:00+00:00"^^xsd:dateTime ;
	isoT:changeDescription ""^^xsd:string ;
	isoT:explanatoryComment ""^^xsd:string ;
	isoT:origin ""^^xsd:string ;
	bd:ordinal "2"^^xsd:positiveInteger ;
	bd:rule ""^^xsd:string ;
	bd:prefix "--"^^xsd:string ;
	bd:structure ""^^xsd:string ;
	bd:includesColumn :AIG-CDISC_ADAMIGBDS_STUDYID ;
	bd:includesColumn :AIG-CDISC_ADAMIGBDS_USUBJID ;
	bd:includesColumn :AIG-CDISC_ADAMIGBDS_SUBJID ;
	bd:includesColumn :AIG-CDISC_ADAMIGBDS_SITEID ;
	bd:includesColumn :AIG-CDISC_ADAMIGBDS_ASEQ ;
	bd:includesColumn :AIG-CDISC_ADAMIGBDS_TRTP ;
	bd:includesColumn :AIG-CDISC_ADAMIGBDS_TRTPN ;
	bd:includesColumn :AIG-CDISC_ADAMIGBDS_TRTA ;
	bd:includesColumn :AIG-CDISC_ADAMIGBDS_TRTAN ;
	bd:includesColumn :AIG-CDISC_ADAMIGBDS_TRTPGy ;
	bd:includesColumn :AIG-CDISC_ADAMIGBDS_TRTPGyN ;
	bd:includesColumn :AIG-CDISC_ADAMIGBDS_TRTAGy ;
	bd:includesColumn :AIG-CDISC_ADAMIGBDS_TRTAGyN ;
	bd:includesColumn :AIG-CDISC_ADAMIGBDS_DOSEP ;
	bd:includesColumn :AIG-CDISC_ADAMIGBDS_DOSCUMP ;
	bd:includesColumn :AIG-CDISC_ADAMIGBDS_DOSEA ;
	bd:includesColumn :AIG-CDISC_ADAMIGBDS_DOSCUMA ;
	bd:includesColumn :AIG-CDISC_ADAMIGBDS_DOSEU ;
	bd:includesColumn :AIG-CDISC_ADAMIGBDS_ADT ;
	bd:includesColumn :AIG-CDISC_ADAMIGBDS_ATM ;
	bd:includesColumn :AIG-CDISC_ADAMIGBDS_ADTM ;
	bd:includesColumn :AIG-CDISC_ADAMIGBDS_ADY ;
	bd:includesColumn :AIG-CDISC_ADAMIGBDS_ADTF ;
	bd:includesColumn :AIG-CDISC_ADAMIGBDS_ATMF ;
	bd:includesColumn :AIG-CDISC_ADAMIGBDS_ASTDT ;
	bd:includesColumn :AIG-CDISC_ADAMIGBDS_ASTTM ;
	bd:includesColumn :AIG-CDISC_ADAMIGBDS_ASTDTM ;
	bd:includesColumn :AIG-CDISC_ADAMIGBDS_ASTDY ;
	bd:includesColumn :AIG-CDISC_ADAMIGBDS_ASTDTF ;
	bd:includesColumn :AIG-CDISC_ADAMIGBDS_ASTTMF ;
	bd:includesColumn :AIG-CDISC_ADAMIGBDS_AENDT ;
	bd:includesColumn :AIG-CDISC_ADAMIGBDS_AENTM ;
	bd:includesColumn :AIG-CDISC_ADAMIGBDS_AENDTM ;
	bd:includesColumn :AIG-CDISC_ADAMIGBDS_AENDY ;
	bd:includesColumn :AIG-CDISC_ADAMIGBDS_AENDTF ;
	bd:includesColumn :AIG-CDISC_ADAMIGBDS_AENTMF ;
	bd:includesColumn :AIG-CDISC_ADAMIGBDS_AVISIT ;
	bd:includesColumn :AIG-CDISC_ADAMIGBDS_AVISITN ;
	bd:includesColumn :AIG-CDISC_ADAMIGBDS_ATPT ;
	bd:includesColumn :AIG-CDISC_ADAMIGBDS_ATPTN ;
	bd:includesColumn :AIG-CDISC_ADAMIGBDS_ATPTREF ;
	bd:includesColumn :AIG-CDISC_ADAMIGBDS_APHASE ;
	bd:includesColumn :AIG-CDISC_ADAMIGBDS_APHASEN ;
	bd:includesColumn :AIG-CDISC_ADAMIGBDS_APERIOD ;
	bd:includesColumn :AIG-CDISC_ADAMIGBDS_APERIODC ;
	bd:includesColumn :AIG-CDISC_ADAMIGBDS_ASPER ;
	bd:includesColumn :AIG-CDISC_ADAMIGBDS_ASPERC ;
	bd:includesColumn :AIG-CDISC_ADAMIGBDS_ARELTM ;
	bd:includesColumn :AIG-CDISC_ADAMIGBDS_ARELTMU ;
	bd:includesColumn :AIG-CDISC_ADAMIGBDS_APERSDT ;
	bd:includesColumn :AIG-CDISC_ADAMIGBDS_APERSTM ;
	bd:includesColumn :AIG-CDISC_ADAMIGBDS_APERSDTM ;
	bd:includesColumn :AIG-CDISC_ADAMIGBDS_APERSDTF ;
	bd:includesColumn :AIG-CDISC_ADAMIGBDS_APERSTMF ;
	bd:includesColumn :AIG-CDISC_ADAMIGBDS_APEREDT ;
	bd:includesColumn :AIG-CDISC_ADAMIGBDS_APERETM ;
	bd:includesColumn :AIG-CDISC_ADAMIGBDS_APEREDTM ;
	bd:includesColumn :AIG-CDISC_ADAMIGBDS_APEREDTF ;
	bd:includesColumn :AIG-CDISC_ADAMIGBDS_APERETMF ;
	bd:includesColumn :AIG-CDISC_ADAMIGBDS_ASPRSDT ;
	bd:includesColumn :AIG-CDISC_ADAMIGBDS_ASPRSTM ;
	bd:includesColumn :AIG-CDISC_ADAMIGBDS_ASPRSDTM ;
	bd:includesColumn :AIG-CDISC_ADAMIGBDS_ASPRSDTF ;
	bd:includesColumn :AIG-CDISC_ADAMIGBDS_ASPRSTMF ;
	bd:includesColumn :AIG-CDISC_ADAMIGBDS_ASPREDT ;
	bd:includesColumn :AIG-CDISC_ADAMIGBDS_ASPRETM ;
	bd:includesColumn :AIG-CDISC_ADAMIGBDS_ASPREDTM ;
	bd:includesColumn :AIG-CDISC_ADAMIGBDS_ASPREDTF ;
	bd:includesColumn :AIG-CDISC_ADAMIGBDS_ASPRETMF ;
	bd:includesColumn :AIG-CDISC_ADAMIGBDS_PHSDT ;
	bd:includesColumn :AIG-CDISC_ADAMIGBDS_PHSTM ;
	bd:includesColumn :AIG-CDISC_ADAMIGBDS_PHSDTM ;
	bd:includesColumn :AIG-CDISC_ADAMIGBDS_PHSDTF ;
	bd:includesColumn :AIG-CDISC_ADAMIGBDS_PHSTMF ;
	bd:includesColumn :AIG-CDISC_ADAMIGBDS_PHEDT ;
	bd:includesColumn :AIG-CDISC_ADAMIGBDS_PHETM ;
	bd:includesColumn :AIG-CDISC_ADAMIGBDS_PHEDTM ;
	bd:includesColumn :AIG-CDISC_ADAMIGBDS_PHEDTF ;
	bd:includesColumn :AIG-CDISC_ADAMIGBDS_PHETMF ;
	bd:includesColumn :AIG-CDISC_ADAMIGBDS_DT ;
	bd:includesColumn :AIG-CDISC_ADAMIGBDS_TM ;
	bd:includesColumn :AIG-CDISC_ADAMIGBDS_DTM ;
	bd:includesColumn :AIG-CDISC_ADAMIGBDS_ADY ;
	bd:includesColumn :AIG-CDISC_ADAMIGBDS_DTF ;
	bd:includesColumn :AIG-CDISC_ADAMIGBDS_TMF ;
	bd:includesColumn :AIG-CDISC_ADAMIGBDS_SDT ;
	bd:includesColumn :AIG-CDISC_ADAMIGBDS_STM ;
	bd:includesColumn :AIG-CDISC_ADAMIGBDS_SDTM ;
	bd:includesColumn :AIG-CDISC_ADAMIGBDS_SDY ;
	bd:includesColumn :AIG-CDISC_ADAMIGBDS_SDTF ;
	bd:includesColumn :AIG-CDISC_ADAMIGBDS_STMF ;
	bd:includesColumn :AIG-CDISC_ADAMIGBDS_EDT ;
	bd:includesColumn :AIG-CDISC_ADAMIGBDS_ETM ;
	bd:includesColumn :AIG-CDISC_ADAMIGBDS_EDTM ;
	bd:includesColumn :AIG-CDISC_ADAMIGBDS_EDY ;
	bd:includesColumn :AIG-CDISC_ADAMIGBDS_EDTF ;
	bd:includesColumn :AIG-CDISC_ADAMIGBDS_ETMF ;
	bd:includesColumn :AIG-CDISC_ADAMIGBDS_PARAM ;
	bd:includesColumn :AIG-CDISC_ADAMIGBDS_PARAMCD ;
	bd:includesColumn :AIG-CDISC_ADAMIGBDS_PARAMN ;
	bd:includesColumn :AIG-CDISC_ADAMIGBDS_PARAMTYP ;
	bd:includesColumn :AIG-CDISC_ADAMIGBDS_PARCATy ;
	bd:includesColumn :AIG-CDISC_ADAMIGBDS_PARCATyN ;
	bd:includesColumn :AIG-CDISC_ADAMIGBDS_AVAL ;
	bd:includesColumn :AIG-CDISC_ADAMIGBDS_AVALC ;
	bd:includesColumn :AIG-CDISC_ADAMIGBDS_AVALCATy ;
	bd:includesColumn :AIG-CDISC_ADAMIGBDS_AVALCAyN ;
	bd:includesColumn :AIG-CDISC_ADAMIGBDS_BASE ;
	bd:includesColumn :AIG-CDISC_ADAMIGBDS_BASEC ;
	bd:includesColumn :AIG-CDISC_ADAMIGBDS_BASECATy ;
	bd:includesColumn :AIG-CDISC_ADAMIGBDS_BASECAyN ;
	bd:includesColumn :AIG-CDISC_ADAMIGBDS_BASETYPE ;
	bd:includesColumn :AIG-CDISC_ADAMIGBDS_CHG ;
	bd:includesColumn :AIG-CDISC_ADAMIGBDS_CHGCATy ;
	bd:includesColumn :AIG-CDISC_ADAMIGBDS_CHGCATyN ;
	bd:includesColumn :AIG-CDISC_ADAMIGBDS_PCHG ;
	bd:includesColumn :AIG-CDISC_ADAMIGBDS_PCHGCATy ;
	bd:includesColumn :AIG-CDISC_ADAMIGBDS_PCHGCAyN ;
	bd:includesColumn :AIG-CDISC_ADAMIGBDS_R2BASE ;
	bd:includesColumn :AIG-CDISC_ADAMIGBDS_R2AyLO ;
	bd:includesColumn :AIG-CDISC_ADAMIGBDS_R2AyHI ;
	bd:includesColumn :AIG-CDISC_ADAMIGBDS_SHIFTy ;
	bd:includesColumn :AIG-CDISC_ADAMIGBDS_SHIFTyN ;
	bd:includesColumn :AIG-CDISC_ADAMIGBDS_CRITy ;
	bd:includesColumn :AIG-CDISC_ADAMIGBDS_CRITyFL ;
	bd:includesColumn :AIG-CDISC_ADAMIGBDS_CRITyFN ;
	bd:includesColumn :AIG-CDISC_ADAMIGBDS_MCRITy ;
	bd:includesColumn :AIG-CDISC_ADAMIGBDS_MCRITyML ;
	bd:includesColumn :AIG-CDISC_ADAMIGBDS_MCRITyMN ;
	bd:includesColumn :AIG-CDISC_ADAMIGBDS_DTYPE ;
	bd:includesColumn :AIG-CDISC_ADAMIGBDS_AWRANGE ;
	bd:includesColumn :AIG-CDISC_ADAMIGBDS_AWTARGET ;
	bd:includesColumn :AIG-CDISC_ADAMIGBDS_AWTDIFF ;
	bd:includesColumn :AIG-CDISC_ADAMIGBDS_AWLO ;
	bd:includesColumn :AIG-CDISC_ADAMIGBDS_AWHI ;
	bd:includesColumn :AIG-CDISC_ADAMIGBDS_AWU ;
	bd:includesColumn :AIG-CDISC_ADAMIGBDS_STARTDT ;
	bd:includesColumn :AIG-CDISC_ADAMIGBDS_STARTDTM ;
	bd:includesColumn :AIG-CDISC_ADAMIGBDS_STARTDTF ;
	bd:includesColumn :AIG-CDISC_ADAMIGBDS_STARTTMF ;
	bd:includesColumn :AIG-CDISC_ADAMIGBDS_CNSR ;
	bd:includesColumn :AIG-CDISC_ADAMIGBDS_EVNTDESC ;
	bd:includesColumn :AIG-CDISC_ADAMIGBDS_CNSDTDSC ;
	bd:includesColumn :AIG-CDISC_ADAMIGBDS_ATOXGR ;
	bd:includesColumn :AIG-CDISC_ADAMIGBDS_BTOXGR ;
	bd:includesColumn :AIG-CDISC_ADAMIGBDS_ANRIND ;
	bd:includesColumn :AIG-CDISC_ADAMIGBDS_BNRIND ;
	bd:includesColumn :AIG-CDISC_ADAMIGBDS_ANRLO ;
	bd:includesColumn :AIG-CDISC_ADAMIGBDS_ANRLOC ;
	bd:includesColumn :AIG-CDISC_ADAMIGBDS_ANRHI ;
	bd:includesColumn :AIG-CDISC_ADAMIGBDS_ANRHIC ;
	bd:includesColumn :AIG-CDISC_ADAMIGBDS_AyLO ;
	bd:includesColumn :AIG-CDISC_ADAMIGBDS_AyLOC ;
	bd:includesColumn :AIG-CDISC_ADAMIGBDS_AyHI ;
	bd:includesColumn :AIG-CDISC_ADAMIGBDS_AyHIC ;
	bd:includesColumn :AIG-CDISC_ADAMIGBDS_AyIND ;
	bd:includesColumn :AIG-CDISC_ADAMIGBDS_ByIND ;
	bd:includesColumn :AIG-CDISC_ADAMIGBDS_ABLFL ;
	bd:includesColumn :AIG-CDISC_ADAMIGBDS_ABLFN ;
	bd:includesColumn :AIG-CDISC_ADAMIGBDS_ANLzzFL ;
	bd:includesColumn :AIG-CDISC_ADAMIGBDS_ANLzzFN ;
	bd:includesColumn :AIG-CDISC_ADAMIGBDS_ONTRTFL ;
	bd:includesColumn :AIG-CDISC_ADAMIGBDS_ONTRTFN ;
	bd:includesColumn :AIG-CDISC_ADAMIGBDS_LVOTFL ;
	bd:includesColumn :AIG-CDISC_ADAMIGBDS_LVOTFN ;
	bd:includesColumn :AIG-CDISC_ADAMIGBDS_ITTRFL ;
	bd:includesColumn :AIG-CDISC_ADAMIGBDS_SAFRFL ;
	bd:includesColumn :AIG-CDISC_ADAMIGBDS_FASRFL ;
	bd:includesColumn :AIG-CDISC_ADAMIGBDS_PPROTRFL ;
	bd:includesColumn :AIG-CDISC_ADAMIGBDS_COMPLRFL ;
	bd:includesColumn :AIG-CDISC_ADAMIGBDS_ITTPFL ;
	bd:includesColumn :AIG-CDISC_ADAMIGBDS_SAFPFL ;
	bd:includesColumn :AIG-CDISC_ADAMIGBDS_FASPFL ;
	bd:includesColumn :AIG-CDISC_ADAMIGBDS_PPROTPFL ;
	bd:includesColumn :AIG-CDISC_ADAMIGBDS_COMPLPFL ;
	bd:includesColumn :AIG-CDISC_ADAMIGBDS_SRCDOM ;
	bd:includesColumn :AIG-CDISC_ADAMIGBDS_SRCVAR ;
	bd:includesColumn :AIG-CDISC_ADAMIGBDS_SRCSEQ ;
.
<http://www.assero.co.uk/MDRItems#RS-CDISC_ADAMIGBDS-2>
	rdf:type isoR:RegistrationState ;
	isoR:byAuthority mdrItems:RA-084433759 ;
	isoR:registrationStatus "Standard"^^xsd:string ;
	isoR:administrativeNote ""^^xsd:string ;
	isoR:effectiveDate "2016-01-01T00:00:00+00:00"^^xsd:dateTime ;
	isoR:untilDate "2016-01-01T00:00:00+00:00"^^xsd:dateTime ;
	isoR:unresolvedIssue ""^^xsd:string ;
	isoR:administrativeStatus ""^^xsd:string ;
	isoR:previousState "Incomplete"^^xsd:string ;
.
<http://www.assero.co.uk/MDRItems#SI-CDISC_ADAMIGBDS-2>
	isoI:identifier "ADAMIG BDS"^^xsd:string ;
	rdf:type isoI:ScopedIdentifier ;
	isoI:version "2"^^xsd:positiveInteger ;
	isoI:versionLabel "1.1.0"^^xsd:string ;
	isoI:semantic_version "1.1.0"^^xsd:string ;
	isoI:hasScope mdrItems:NS-CDISC ;
.
:AIG-CDISC_ADAMIGBDS_STUDYID
	rdf:type <http://www.assero.co.uk/BusinessDomain#IgVariable> ;
	rdfs:label "Study Identifier"^^xsd:string ;
	bd:ordinal "1"^^xsd:positiveInteger ;
	bd:rule ""^^xsd:string ;
	bd:name "STUDYID"^^xsd:string ;
	bd:ct ""^^xsd:string ;
	bd:ct_notes ""^^xsd:string ;
	bd:notes "DM.STUDYID"^^xsd:string ;
	bd:compliance <http://www.assero.co.uk/MDRAdamIg/CDISC/V2#AIG-CDISC_ADAMIG_C_REQUIRED> ;
	bd:typedAs <http://www.assero.co.uk/MDRAdamIg/CDISC/V2#AIG-CDISC_ADAMIG_DT_CHARACTER> ;
.
:AIG-CDISC_ADAMIGBDS_USUBJID
	rdf:type <http://www.assero.co.uk/BusinessDomain#IgVariable> ;
	rdfs:label "Unique Subject Identifier"^^xsd:string ;
	bd:ordinal "2"^^xsd:positiveInteger ;
	bd:rule ""^^xsd:string ;
	bd:name "USUBJID"^^xsd:string ;
	bd:ct ""^^xsd:string ;
	bd:ct_notes ""^^xsd:string ;
	bd:notes "DM.USUBJID"^^xsd:string ;
	bd:compliance <http://www.assero.co.uk/MDRAdamIg/CDISC/V2#AIG-CDISC_ADAMIG_C_REQUIRED> ;
	bd:typedAs <http://www.assero.co.uk/MDRAdamIg/CDISC/V2#AIG-CDISC_ADAMIG_DT_CHARACTER> ;
.
:AIG-CDISC_ADAMIGBDS_SUBJID
	rdf:type <http://www.assero.co.uk/BusinessDomain#IgVariable> ;
	rdfs:label "Subject Identifier for the Study"^^xsd:string ;
	bd:ordinal "3"^^xsd:positiveInteger ;
	bd:rule ""^^xsd:string ;
	bd:name "SUBJID"^^xsd:string ;
	bd:ct ""^^xsd:string ;
	bd:ct_notes ""^^xsd:string ;
	bd:notes "DM.SUBJID. SUBJID is required in ADSL, but permissible in other datasets."^^xsd:string ;
	bd:compliance <http://www.assero.co.uk/MDRAdamIg/CDISC/V2#AIG-CDISC_ADAMIG_C_PERMISSIBLE> ;
	bd:typedAs <http://www.assero.co.uk/MDRAdamIg/CDISC/V2#AIG-CDISC_ADAMIG_DT_CHARACTER> ;
.
:AIG-CDISC_ADAMIGBDS_SITEID
	rdf:type <http://www.assero.co.uk/BusinessDomain#IgVariable> ;
	rdfs:label "Study Site Identifier"^^xsd:string ;
	bd:ordinal "4"^^xsd:positiveInteger ;
	bd:rule ""^^xsd:string ;
	bd:name "SITEID"^^xsd:string ;
	bd:ct ""^^xsd:string ;
	bd:ct_notes ""^^xsd:string ;
	bd:notes "DM.SITEID. SITEID is required in ADSL, but permissible in other datasets."^^xsd:string ;
	bd:compliance <http://www.assero.co.uk/MDRAdamIg/CDISC/V2#AIG-CDISC_ADAMIG_C_PERMISSIBLE> ;
	bd:typedAs <http://www.assero.co.uk/MDRAdamIg/CDISC/V2#AIG-CDISC_ADAMIG_DT_CHARACTER> ;
.
:AIG-CDISC_ADAMIGBDS_ASEQ
	rdf:type <http://www.assero.co.uk/BusinessDomain#IgVariable> ;
	rdfs:label "Analysis Sequence Number"^^xsd:string ;
	bd:ordinal "5"^^xsd:positiveInteger ;
	bd:rule ""^^xsd:string ;
	bd:name "ASEQ"^^xsd:string ;
	bd:ct ""^^xsd:string ;
	bd:ct_notes ""^^xsd:string ;
	bd:notes "Sequence number given to ensure uniqueness of subject records within an ADaM dataset. As long as values are unique within a subject within the dataset, any valid number can be used for ASEQ. ASEQ uniquely indexes records within a subject within an ADaM dataset.\n\nASEQ is useful for traceability when the dataset is used as input to another ADaM dataset. To refer to a record in a predecessor ADaM dataset, set SRCDOM to the name of the predecessor dataset, and set SRCSEQ to the value of ASEQ in the predecessor dataset. \nnumber can be used for ASEQ. ASEQ uniquely indexes records within a subject within an ADaM dataset."^^xsd:string ;
	bd:compliance <http://www.assero.co.uk/MDRAdamIg/CDISC/V2#AIG-CDISC_ADAMIG_C_PERMISSIBLE> ;
	bd:typedAs <http://www.assero.co.uk/MDRAdamIg/CDISC/V2#AIG-CDISC_ADAMIG_DT_NUMERIC> ;
.
:AIG-CDISC_ADAMIGBDS_TRTP
	rdf:type <http://www.assero.co.uk/BusinessDomain#IgVariable> ;
	rdfs:label "Planned Treatment"^^xsd:string ;
	bd:ordinal "6"^^xsd:positiveInteger ;
	bd:rule ""^^xsd:string ;
	bd:name "TRTP"^^xsd:string ;
	bd:ct ""^^xsd:string ;
	bd:ct_notes ""^^xsd:string ;
	bd:notes "TRTP is a record-level identifier that represents the planned treatment attributed to a record for analysis purposes. TRTP indicates how treatment varies by record within a subject and enables analysis of crossover and other designs. Though there is no requirement that TRTP will correspond to the TRTxxP as defined by the record’s value of APERIOD, if populated, TRTP must match at least one value of the character planned treatment variables in ADSL (e.g., TRTxxP, TRTSEQP, TRxxPGy).\n\nAs noted previously, at least one treatment variable is required even in non-randomized trials. This requirement is satisfied by any subject-level or record-level treatment variables (e.g., TRTxxP, TRTP, TRTA). Even if not used for analysis, any ADSL treatment variable may be included in the BDS dataset."^^xsd:string ;
	bd:compliance <http://www.assero.co.uk/MDRAdamIg/CDISC/V2#AIG-CDISC_ADAMIG_C_CONDITIONAL> ;
	bd:typedAs <http://www.assero.co.uk/MDRAdamIg/CDISC/V2#AIG-CDISC_ADAMIG_DT_CHARACTER> ;
.
:AIG-CDISC_ADAMIGBDS_TRTPN
	rdf:type <http://www.assero.co.uk/BusinessDomain#IgVariable> ;
	rdfs:label "Planned Treatment (N)"^^xsd:string ;
	bd:ordinal "7"^^xsd:positiveInteger ;
	bd:rule ""^^xsd:string ;
	bd:name "TRTPN"^^xsd:string ;
	bd:ct ""^^xsd:string ;
	bd:ct_notes ""^^xsd:string ;
	bd:notes "The numeric code for TRTP. One-to-one mapping within a study to TRTP."^^xsd:string ;
	bd:compliance <http://www.assero.co.uk/MDRAdamIg/CDISC/V2#AIG-CDISC_ADAMIG_C_PERMISSIBLE> ;
	bd:typedAs <http://www.assero.co.uk/MDRAdamIg/CDISC/V2#AIG-CDISC_ADAMIG_DT_NUMERIC> ;
.
:AIG-CDISC_ADAMIGBDS_TRTA
	rdf:type <http://www.assero.co.uk/BusinessDomain#IgVariable> ;
	rdfs:label "Actual Treatment"^^xsd:string ;
	bd:ordinal "8"^^xsd:positiveInteger ;
	bd:rule ""^^xsd:string ;
	bd:name "TRTA"^^xsd:string ;
	bd:ct ""^^xsd:string ;
	bd:ct_notes ""^^xsd:string ;
	bd:notes "TRTA is a record-level identifier that represents the actual treatment attributed to a record for analysis purposes. TRTA indicates how treatment varies by record within a subject and enables analysis of crossover and other multi-period designs. Though there is no requirement that TRTA will correspond to the TRTxxA as defined by the record’s value of APERIOD, TRTA must match at least one value of the character actual treatment variables in ADSL (e.g., TRTxxA, TRTSEQA, TRxxAGy). \n\nAs noted previously, at least one treatment variable is required. This requirement is satisfied by any subject-level or record-level treatment variables (e.g., TRTxxP, TRTP, TRTA). Even if not used for analysis, any ADSL treatment variable may be included in the BDS dataset."^^xsd:string ;
	bd:compliance <http://www.assero.co.uk/MDRAdamIg/CDISC/V2#AIG-CDISC_ADAMIG_C_CONDITIONAL> ;
	bd:typedAs <http://www.assero.co.uk/MDRAdamIg/CDISC/V2#AIG-CDISC_ADAMIG_DT_CHARACTER> ;
.
:AIG-CDISC_ADAMIGBDS_TRTAN
	rdf:type <http://www.assero.co.uk/BusinessDomain#IgVariable> ;
	rdfs:label "Actual Treatment (N)"^^xsd:string ;
	bd:ordinal "9"^^xsd:positiveInteger ;
	bd:rule ""^^xsd:string ;
	bd:name "TRTAN"^^xsd:string ;
	bd:ct ""^^xsd:string ;
	bd:ct_notes ""^^xsd:string ;
	bd:notes "The numeric code for TRTA. One-to-one mapping within a study to TRTA."^^xsd:string ;
	bd:compliance <http://www.assero.co.uk/MDRAdamIg/CDISC/V2#AIG-CDISC_ADAMIG_C_PERMISSIBLE> ;
	bd:typedAs <http://www.assero.co.uk/MDRAdamIg/CDISC/V2#AIG-CDISC_ADAMIG_DT_NUMERIC> ;
.
:AIG-CDISC_ADAMIGBDS_TRTPGy
	rdf:type <http://www.assero.co.uk/BusinessDomain#IgVariable> ;
	rdfs:label "Planned Pooled Treatment y"^^xsd:string ;
	bd:ordinal "10"^^xsd:positiveInteger ;
	bd:rule ""^^xsd:string ;
	bd:name "TRTPGy"^^xsd:string ;
	bd:ct ""^^xsd:string ;
	bd:ct_notes ""^^xsd:string ;
	bd:notes "TRTPGy is the planned pooled treatment y attributed to a record for analysis purposes. “y” represents an integer [1-99, not zero-padded] corresponding to a particular pooling scheme. Useful when planned treatments (TRTP) are pooled together for analysis, for example when all doses of Drug A (TRTPG1=All doses of Drug A) are compared to all doses of Drug B (TRTPG1=All doses of Drug B). Each value of TRTP is pooled within at most one value of TRTPGy."^^xsd:string ;
	bd:compliance <http://www.assero.co.uk/MDRAdamIg/CDISC/V2#AIG-CDISC_ADAMIG_C_PERMISSIBLE> ;
	bd:typedAs <http://www.assero.co.uk/MDRAdamIg/CDISC/V2#AIG-CDISC_ADAMIG_DT_CHARACTER> ;
.
:AIG-CDISC_ADAMIGBDS_TRTPGyN
	rdf:type <http://www.assero.co.uk/BusinessDomain#IgVariable> ;
	rdfs:label "Planned Pooled Treatment y (N)"^^xsd:string ;
	bd:ordinal "11"^^xsd:positiveInteger ;
	bd:rule ""^^xsd:string ;
	bd:name "TRTPGyN"^^xsd:string ;
	bd:ct ""^^xsd:string ;
	bd:ct_notes ""^^xsd:string ;
	bd:notes "The numeric code for TRTPGy. One-to-one mapping within a study to TRTPGy."^^xsd:string ;
	bd:compliance <http://www.assero.co.uk/MDRAdamIg/CDISC/V2#AIG-CDISC_ADAMIG_C_PERMISSIBLE> ;
	bd:typedAs <http://www.assero.co.uk/MDRAdamIg/CDISC/V2#AIG-CDISC_ADAMIG_DT_NUMERIC> ;
.
:AIG-CDISC_ADAMIGBDS_TRTAGy
	rdf:type <http://www.assero.co.uk/BusinessDomain#IgVariable> ;
	rdfs:label "Actual Pooled Treatment y"^^xsd:string ;
	bd:ordinal "12"^^xsd:positiveInteger ;
	bd:rule ""^^xsd:string ;
	bd:name "TRTAGy"^^xsd:string ;
	bd:ct ""^^xsd:string ;
	bd:ct_notes ""^^xsd:string ;
	bd:notes "TRTAGy is the actual pooled treatment y attributed to a record for analysis purposes. “y” represents an integer [1-99, not zero-padded] corresponding to a particular pooling scheme. Required when TRTPGy is present and TRTA is present."^^xsd:string ;
	bd:compliance <http://www.assero.co.uk/MDRAdamIg/CDISC/V2#AIG-CDISC_ADAMIG_C_CONDITIONAL> ;
	bd:typedAs <http://www.assero.co.uk/MDRAdamIg/CDISC/V2#AIG-CDISC_ADAMIG_DT_CHARACTER> ;
.
:AIG-CDISC_ADAMIGBDS_TRTAGyN
	rdf:type <http://www.assero.co.uk/BusinessDomain#IgVariable> ;
	rdfs:label "Actual Pooled Treatment y (N)"^^xsd:string ;
	bd:ordinal "13"^^xsd:positiveInteger ;
	bd:rule ""^^xsd:string ;
	bd:name "TRTAGyN"^^xsd:string ;
	bd:ct ""^^xsd:string ;
	bd:ct_notes ""^^xsd:string ;
	bd:notes "The numeric code for TRTAGy. One-to-one mapping within a study to TRTAGy."^^xsd:string ;
	bd:compliance <http://www.assero.co.uk/MDRAdamIg/CDISC/V2#AIG-CDISC_ADAMIG_C_PERMISSIBLE> ;
	bd:typedAs <http://www.assero.co.uk/MDRAdamIg/CDISC/V2#AIG-CDISC_ADAMIG_DT_NUMERIC> ;
.
:AIG-CDISC_ADAMIGBDS_DOSEP
	rdf:type <http://www.assero.co.uk/BusinessDomain#IgVariable> ;
	rdfs:label "Planned Treatment Dose"^^xsd:string ;
	bd:ordinal "14"^^xsd:positiveInteger ;
	bd:rule ""^^xsd:string ;
	bd:name "DOSEP"^^xsd:string ;
	bd:ct ""^^xsd:string ;
	bd:ct_notes ""^^xsd:string ;
	bd:notes "DOSEP represents the planned treatment dosage associated with the record."^^xsd:string ;
	bd:compliance <http://www.assero.co.uk/MDRAdamIg/CDISC/V2#AIG-CDISC_ADAMIG_C_PERMISSIBLE> ;
	bd:typedAs <http://www.assero.co.uk/MDRAdamIg/CDISC/V2#AIG-CDISC_ADAMIG_DT_NUMERIC> ;
.
:AIG-CDISC_ADAMIGBDS_DOSCUMP
	rdf:type <http://www.assero.co.uk/BusinessDomain#IgVariable> ;
	rdfs:label "Cumulative Planned Treatment Dose"^^xsd:string ;
	bd:ordinal "15"^^xsd:positiveInteger ;
	bd:rule ""^^xsd:string ;
	bd:name "DOSCUMP"^^xsd:string ;
	bd:ct ""^^xsd:string ;
	bd:ct_notes ""^^xsd:string ;
	bd:notes "Cumulative planned dosage of treatment for the subject at the point in time of the record (e.g., ADT)."^^xsd:string ;
	bd:compliance <http://www.assero.co.uk/MDRAdamIg/CDISC/V2#AIG-CDISC_ADAMIG_C_PERMISSIBLE> ;
	bd:typedAs <http://www.assero.co.uk/MDRAdamIg/CDISC/V2#AIG-CDISC_ADAMIG_DT_NUMERIC> ;
.
:AIG-CDISC_ADAMIGBDS_DOSEA
	rdf:type <http://www.assero.co.uk/BusinessDomain#IgVariable> ;
	rdfs:label "Actual Treatment Dose"^^xsd:string ;
	bd:ordinal "16"^^xsd:positiveInteger ;
	bd:rule ""^^xsd:string ;
	bd:name "DOSEA"^^xsd:string ;
	bd:ct ""^^xsd:string ;
	bd:ct_notes ""^^xsd:string ;
	bd:notes "DOSEA represents the actual treatment dosage associated with the record."^^xsd:string ;
	bd:compliance <http://www.assero.co.uk/MDRAdamIg/CDISC/V2#AIG-CDISC_ADAMIG_C_PERMISSIBLE> ;
	bd:typedAs <http://www.assero.co.uk/MDRAdamIg/CDISC/V2#AIG-CDISC_ADAMIG_DT_NUMERIC> ;
.
:AIG-CDISC_ADAMIGBDS_DOSCUMA
	rdf:type <http://www.assero.co.uk/BusinessDomain#IgVariable> ;
	rdfs:label "Cumulative Actual Treatment Dose"^^xsd:string ;
	bd:ordinal "17"^^xsd:positiveInteger ;
	bd:rule ""^^xsd:string ;
	bd:name "DOSCUMA"^^xsd:string ;
	bd:ct ""^^xsd:string ;
	bd:ct_notes ""^^xsd:string ;
	bd:notes "Cumulative actual dosage of treatment for the subject at the point in time of the record (e.g., ADT)."^^xsd:string ;
	bd:compliance <http://www.assero.co.uk/MDRAdamIg/CDISC/V2#AIG-CDISC_ADAMIG_C_PERMISSIBLE> ;
	bd:typedAs <http://www.assero.co.uk/MDRAdamIg/CDISC/V2#AIG-CDISC_ADAMIG_DT_NUMERIC> ;
.
:AIG-CDISC_ADAMIGBDS_DOSEU
	rdf:type <http://www.assero.co.uk/BusinessDomain#IgVariable> ;
	rdfs:label "Treatment Dose Units"^^xsd:string ;
	bd:ordinal "18"^^xsd:positiveInteger ;
	bd:rule ""^^xsd:string ;
	bd:name "DOSEU"^^xsd:string ;
	bd:ct ""^^xsd:string ;
	bd:ct_notes ""^^xsd:string ;
	bd:notes "The units for DOSEP, DOSCUMP, DOSEA, and DOSCUMA. It is permissible to use suffixes such as “P” and “A” if needed, with labels modified accordingly."^^xsd:string ;
	bd:compliance <http://www.assero.co.uk/MDRAdamIg/CDISC/V2#AIG-CDISC_ADAMIG_C_PERMISSIBLE> ;
	bd:typedAs <http://www.assero.co.uk/MDRAdamIg/CDISC/V2#AIG-CDISC_ADAMIG_DT_CHARACTER> ;
.
:AIG-CDISC_ADAMIGBDS_ADT
	rdf:type <http://www.assero.co.uk/BusinessDomain#IgVariable> ;
	rdfs:label "Analysis Date"^^xsd:string ;
	bd:ordinal "19"^^xsd:positiveInteger ;
	bd:rule ""^^xsd:string ;
	bd:name "ADT"^^xsd:string ;
	bd:ct ""^^xsd:string ;
	bd:ct_notes ""^^xsd:string ;
	bd:notes "The date associated with AVAL and/or AVALC in numeric format."^^xsd:string ;
	bd:compliance <http://www.assero.co.uk/MDRAdamIg/CDISC/V2#AIG-CDISC_ADAMIG_C_PERMISSIBLE> ;
	bd:typedAs <http://www.assero.co.uk/MDRAdamIg/CDISC/V2#AIG-CDISC_ADAMIG_DT_NUMERIC> ;
.
:AIG-CDISC_ADAMIGBDS_ATM
	rdf:type <http://www.assero.co.uk/BusinessDomain#IgVariable> ;
	rdfs:label "Analysis Time"^^xsd:string ;
	bd:ordinal "20"^^xsd:positiveInteger ;
	bd:rule ""^^xsd:string ;
	bd:name "ATM"^^xsd:string ;
	bd:ct ""^^xsd:string ;
	bd:ct_notes ""^^xsd:string ;
	bd:notes "The time associated with AVAL and/or AVALC in numeric format."^^xsd:string ;
	bd:compliance <http://www.assero.co.uk/MDRAdamIg/CDISC/V2#AIG-CDISC_ADAMIG_C_PERMISSIBLE> ;
	bd:typedAs <http://www.assero.co.uk/MDRAdamIg/CDISC/V2#AIG-CDISC_ADAMIG_DT_NUMERIC> ;
.
:AIG-CDISC_ADAMIGBDS_ADTM
	rdf:type <http://www.assero.co.uk/BusinessDomain#IgVariable> ;
	rdfs:label "Analysis Datetime"^^xsd:string ;
	bd:ordinal "21"^^xsd:positiveInteger ;
	bd:rule ""^^xsd:string ;
	bd:name "ADTM"^^xsd:string ;
	bd:ct ""^^xsd:string ;
	bd:ct_notes ""^^xsd:string ;
	bd:notes "The datetime associated with AVAL and/or AVALC in numeric format."^^xsd:string ;
	bd:compliance <http://www.assero.co.uk/MDRAdamIg/CDISC/V2#AIG-CDISC_ADAMIG_C_PERMISSIBLE> ;
	bd:typedAs <http://www.assero.co.uk/MDRAdamIg/CDISC/V2#AIG-CDISC_ADAMIG_DT_NUMERIC> ;
.
:AIG-CDISC_ADAMIGBDS_ADY
	rdf:type <http://www.assero.co.uk/BusinessDomain#IgVariable> ;
	rdfs:label "Analysis Relative Day"^^xsd:string ;
	bd:ordinal "22"^^xsd:positiveInteger ;
	bd:rule ""^^xsd:string ;
	bd:name "ADY"^^xsd:string ;
	bd:ct ""^^xsd:string ;
	bd:ct_notes ""^^xsd:string ;
	bd:notes "The relative day of AVAL and/or AVALC. The number of days from an anchor date (not necessarily DM.RFSTDTC) to ADT. See Section 3.1.2."^^xsd:string ;
	bd:compliance <http://www.assero.co.uk/MDRAdamIg/CDISC/V2#AIG-CDISC_ADAMIG_C_PERMISSIBLE> ;
	bd:typedAs <http://www.assero.co.uk/MDRAdamIg/CDISC/V2#AIG-CDISC_ADAMIG_DT_NUMERIC> ;
	rdf:type <http://www.assero.co.uk/BusinessDomain#IgVariable> ;
	rdfs:label "{Relative Day}"^^xsd:string ;
	bd:ordinal "83"^^xsd:positiveInteger ;
	bd:rule ""^^xsd:string ;
	bd:name "*ADY"^^xsd:string ;
	bd:ct ""^^xsd:string ;
	bd:ct_notes ""^^xsd:string ;
	bd:notes "Analysis relative day not directly characterizing AVAL and/or AVALC."^^xsd:string ;
	bd:compliance <http://www.assero.co.uk/MDRAdamIg/CDISC/V2#AIG-CDISC_ADAMIG_C_PERMISSIBLE> ;
	bd:typedAs <http://www.assero.co.uk/MDRAdamIg/CDISC/V2#AIG-CDISC_ADAMIG_DT_NUMERIC> ;
.
:AIG-CDISC_ADAMIGBDS_ADTF
	rdf:type <http://www.assero.co.uk/BusinessDomain#IgVariable> ;
	rdfs:label "Analysis Date Imputation Flag"^^xsd:string ;
	bd:ordinal "23"^^xsd:positiveInteger ;
	bd:rule ""^^xsd:string ;
	bd:name "ADTF"^^xsd:string ;
	bd:ct "DATEFL"^^xsd:string ;
	bd:ct_notes ""^^xsd:string ;
	bd:notes "The level of imputation of analysis date. If ADT (or the date part of ADTM) was imputed, ADTF must be populated and is required. See Section 3.1.3."^^xsd:string ;
	bd:compliance <http://www.assero.co.uk/MDRAdamIg/CDISC/V2#AIG-CDISC_ADAMIG_C_CONDITIONAL> ;
	bd:typedAs <http://www.assero.co.uk/MDRAdamIg/CDISC/V2#AIG-CDISC_ADAMIG_DT_CHARACTER> ;
.
:AIG-CDISC_ADAMIGBDS_ATMF
	rdf:type <http://www.assero.co.uk/BusinessDomain#IgVariable> ;
	rdfs:label "Analysis Time Imputation Flag"^^xsd:string ;
	bd:ordinal "24"^^xsd:positiveInteger ;
	bd:rule ""^^xsd:string ;
	bd:name "ATMF"^^xsd:string ;
	bd:ct "TIMEFL"^^xsd:string ;
	bd:ct_notes ""^^xsd:string ;
	bd:notes "The level of imputation of analysis time. If ATM (or the time part of ADTM) was imputed, ATMF must be populated and is required. See Section 3.1.3."^^xsd:string ;
	bd:compliance <http://www.assero.co.uk/MDRAdamIg/CDISC/V2#AIG-CDISC_ADAMIG_C_CONDITIONAL> ;
	bd:typedAs <http://www.assero.co.uk/MDRAdamIg/CDISC/V2#AIG-CDISC_ADAMIG_DT_CHARACTER> ;
.
:AIG-CDISC_ADAMIGBDS_ASTDT
	rdf:type <http://www.assero.co.uk/BusinessDomain#IgVariable> ;
	rdfs:label "Analysis Start Date"^^xsd:string ;
	bd:ordinal "25"^^xsd:positiveInteger ;
	bd:rule ""^^xsd:string ;
	bd:name "ASTDT"^^xsd:string ;
	bd:ct ""^^xsd:string ;
	bd:ct_notes ""^^xsd:string ;
	bd:notes "The start date associated with AVAL and/or AVALC. ASTDT and AENDT may be useful for traceability when AVAL summarizes data collected over an interval of time, or when AVAL is a duration."^^xsd:string ;
	bd:compliance <http://www.assero.co.uk/MDRAdamIg/CDISC/V2#AIG-CDISC_ADAMIG_C_PERMISSIBLE> ;
	bd:typedAs <http://www.assero.co.uk/MDRAdamIg/CDISC/V2#AIG-CDISC_ADAMIG_DT_NUMERIC> ;
.
:AIG-CDISC_ADAMIGBDS_ASTTM
	rdf:type <http://www.assero.co.uk/BusinessDomain#IgVariable> ;
	rdfs:label "Analysis Start Time"^^xsd:string ;
	bd:ordinal "26"^^xsd:positiveInteger ;
	bd:rule ""^^xsd:string ;
	bd:name "ASTTM"^^xsd:string ;
	bd:ct ""^^xsd:string ;
	bd:ct_notes ""^^xsd:string ;
	bd:notes "The start time associated with AVAL and/or AVALC. ASTTM and AENTM may be useful for traceability when AVAL summarizes data collected over an interval of time, or when AVAL is a duration."^^xsd:string ;
	bd:compliance <http://www.assero.co.uk/MDRAdamIg/CDISC/V2#AIG-CDISC_ADAMIG_C_PERMISSIBLE> ;
	bd:typedAs <http://www.assero.co.uk/MDRAdamIg/CDISC/V2#AIG-CDISC_ADAMIG_DT_NUMERIC> ;
.
:AIG-CDISC_ADAMIGBDS_ASTDTM
	rdf:type <http://www.assero.co.uk/BusinessDomain#IgVariable> ;
	rdfs:label "Analysis Start Datetime"^^xsd:string ;
	bd:ordinal "27"^^xsd:positiveInteger ;
	bd:rule ""^^xsd:string ;
	bd:name "ASTDTM"^^xsd:string ;
	bd:ct ""^^xsd:string ;
	bd:ct_notes ""^^xsd:string ;
	bd:notes "The start datetime associated with AVAL and/or AVALC. ASTDTM and AENDTM may be useful for traceability when AVAL summarizes data collected over an interval of time, or when AVAL is a duration."^^xsd:string ;
	bd:compliance <http://www.assero.co.uk/MDRAdamIg/CDISC/V2#AIG-CDISC_ADAMIG_C_PERMISSIBLE> ;
	bd:typedAs <http://www.assero.co.uk/MDRAdamIg/CDISC/V2#AIG-CDISC_ADAMIG_DT_NUMERIC> ;
.
:AIG-CDISC_ADAMIGBDS_ASTDY
	rdf:type <http://www.assero.co.uk/BusinessDomain#IgVariable> ;
	rdfs:label "Analysis Start Relative Day"^^xsd:string ;
	bd:ordinal "28"^^xsd:positiveInteger ;
	bd:rule ""^^xsd:string ;
	bd:name "ASTDY"^^xsd:string ;
	bd:ct ""^^xsd:string ;
	bd:ct_notes ""^^xsd:string ;
	bd:notes "The number of days from an anchor date (not necessarily DM.RFSTDTC) to ASTDT. See Section 3.1.2."^^xsd:string ;
	bd:compliance <http://www.assero.co.uk/MDRAdamIg/CDISC/V2#AIG-CDISC_ADAMIG_C_PERMISSIBLE> ;
	bd:typedAs <http://www.assero.co.uk/MDRAdamIg/CDISC/V2#AIG-CDISC_ADAMIG_DT_NUMERIC> ;
.
:AIG-CDISC_ADAMIGBDS_ASTDTF
	rdf:type <http://www.assero.co.uk/BusinessDomain#IgVariable> ;
	rdfs:label "Analysis Start Date Imputation Flag"^^xsd:string ;
	bd:ordinal "29"^^xsd:positiveInteger ;
	bd:rule ""^^xsd:string ;
	bd:name "ASTDTF"^^xsd:string ;
	bd:ct "DATEFL"^^xsd:string ;
	bd:ct_notes ""^^xsd:string ;
	bd:notes "The level of imputation of analysis start date. If ASTDT (or the date part of ASTDTM) was imputed, ASTDTF must be populated and is required. See Section 3.1.3."^^xsd:string ;
	bd:compliance <http://www.assero.co.uk/MDRAdamIg/CDISC/V2#AIG-CDISC_ADAMIG_C_CONDITIONAL> ;
	bd:typedAs <http://www.assero.co.uk/MDRAdamIg/CDISC/V2#AIG-CDISC_ADAMIG_DT_CHARACTER> ;
.
:AIG-CDISC_ADAMIGBDS_ASTTMF
	rdf:type <http://www.assero.co.uk/BusinessDomain#IgVariable> ;
	rdfs:label "Analysis Start Time Imputation Flag"^^xsd:string ;
	bd:ordinal "30"^^xsd:positiveInteger ;
	bd:rule ""^^xsd:string ;
	bd:name "ASTTMF"^^xsd:string ;
	bd:ct "TIMEFL"^^xsd:string ;
	bd:ct_notes ""^^xsd:string ;
	bd:notes "The level of imputation of analysis start time. If ASTTM (or the time part of ASTDTM) was imputed, ASTTMF must be populated and is required. See Section 3.1.3."^^xsd:string ;
	bd:compliance <http://www.assero.co.uk/MDRAdamIg/CDISC/V2#AIG-CDISC_ADAMIG_C_CONDITIONAL> ;
	bd:typedAs <http://www.assero.co.uk/MDRAdamIg/CDISC/V2#AIG-CDISC_ADAMIG_DT_CHARACTER> ;
.
:AIG-CDISC_ADAMIGBDS_AENDT
	rdf:type <http://www.assero.co.uk/BusinessDomain#IgVariable> ;
	rdfs:label "Analysis End Date"^^xsd:string ;
	bd:ordinal "31"^^xsd:positiveInteger ;
	bd:rule ""^^xsd:string ;
	bd:name "AENDT"^^xsd:string ;
	bd:ct ""^^xsd:string ;
	bd:ct_notes ""^^xsd:string ;
	bd:notes "The end date associated with AVAL and/or AVALC. See also ASTDT."^^xsd:string ;
	bd:compliance <http://www.assero.co.uk/MDRAdamIg/CDISC/V2#AIG-CDISC_ADAMIG_C_PERMISSIBLE> ;
	bd:typedAs <http://www.assero.co.uk/MDRAdamIg/CDISC/V2#AIG-CDISC_ADAMIG_DT_NUMERIC> ;
.
:AIG-CDISC_ADAMIGBDS_AENTM
	rdf:type <http://www.assero.co.uk/BusinessDomain#IgVariable> ;
	rdfs:label "Analysis End Time"^^xsd:string ;
	bd:ordinal "32"^^xsd:positiveInteger ;
	bd:rule ""^^xsd:string ;
	bd:name "AENTM"^^xsd:string ;
	bd:ct ""^^xsd:string ;
	bd:ct_notes ""^^xsd:string ;
	bd:notes "The end time associated with AVAL and/or AVALC. See also ASTTM."^^xsd:string ;
	bd:compliance <http://www.assero.co.uk/MDRAdamIg/CDISC/V2#AIG-CDISC_ADAMIG_C_PERMISSIBLE> ;
	bd:typedAs <http://www.assero.co.uk/MDRAdamIg/CDISC/V2#AIG-CDISC_ADAMIG_DT_NUMERIC> ;
.
:AIG-CDISC_ADAMIGBDS_AENDTM
	rdf:type <http://www.assero.co.uk/BusinessDomain#IgVariable> ;
	rdfs:label "Analysis End Datetime"^^xsd:string ;
	bd:ordinal "33"^^xsd:positiveInteger ;
	bd:rule ""^^xsd:string ;
	bd:name "AENDTM"^^xsd:string ;
	bd:ct ""^^xsd:string ;
	bd:ct_notes ""^^xsd:string ;
	bd:notes "The end datetime associated with AVAL and/or AVALC. See also ASTDTM."^^xsd:string ;
	bd:compliance <http://www.assero.co.uk/MDRAdamIg/CDISC/V2#AIG-CDISC_ADAMIG_C_PERMISSIBLE> ;
	bd:typedAs <http://www.assero.co.uk/MDRAdamIg/CDISC/V2#AIG-CDISC_ADAMIG_DT_NUMERIC> ;
.
:AIG-CDISC_ADAMIGBDS_AENDY
	rdf:type <http://www.assero.co.uk/BusinessDomain#IgVariable> ;
	rdfs:label "Analysis End Relative Day"^^xsd:string ;
	bd:ordinal "34"^^xsd:positiveInteger ;
	bd:rule ""^^xsd:string ;
	bd:name "AENDY"^^xsd:string ;
	bd:ct ""^^xsd:string ;
	bd:ct_notes ""^^xsd:string ;
	bd:notes "The number of days from an anchor date (not necessarily DM.RFSTDTC) to AENDT. See Section 3.1.2."^^xsd:string ;
	bd:compliance <http://www.assero.co.uk/MDRAdamIg/CDISC/V2#AIG-CDISC_ADAMIG_C_PERMISSIBLE> ;
	bd:typedAs <http://www.assero.co.uk/MDRAdamIg/CDISC/V2#AIG-CDISC_ADAMIG_DT_NUMERIC> ;
.
:AIG-CDISC_ADAMIGBDS_AENDTF
	rdf:type <http://www.assero.co.uk/BusinessDomain#IgVariable> ;
	rdfs:label "Analysis End Date Imputation Flag"^^xsd:string ;
	bd:ordinal "35"^^xsd:positiveInteger ;
	bd:rule ""^^xsd:string ;
	bd:name "AENDTF"^^xsd:string ;
	bd:ct "DATEFL"^^xsd:string ;
	bd:ct_notes ""^^xsd:string ;
	bd:notes "The level of imputation of analysis end date. If AENDT (or the date part of AENDTM) was imputed, AENDTF must be populated and is required. See Section 3.1.3."^^xsd:string ;
	bd:compliance <http://www.assero.co.uk/MDRAdamIg/CDISC/V2#AIG-CDISC_ADAMIG_C_CONDITIONAL> ;
	bd:typedAs <http://www.assero.co.uk/MDRAdamIg/CDISC/V2#AIG-CDISC_ADAMIG_DT_CHARACTER> ;
.
:AIG-CDISC_ADAMIGBDS_AENTMF
	rdf:type <http://www.assero.co.uk/BusinessDomain#IgVariable> ;
	rdfs:label "Analysis End Time Imputation Flag"^^xsd:string ;
	bd:ordinal "36"^^xsd:positiveInteger ;
	bd:rule ""^^xsd:string ;
	bd:name "AENTMF"^^xsd:string ;
	bd:ct "TIMEFL"^^xsd:string ;
	bd:ct_notes ""^^xsd:string ;
	bd:notes "The level of imputation of analysis end time. If AENTM (or the time part of AENDTM) was imputed, AENTMF must be populated and is required. See Section 3.1.3."^^xsd:string ;
	bd:compliance <http://www.assero.co.uk/MDRAdamIg/CDISC/V2#AIG-CDISC_ADAMIG_C_CONDITIONAL> ;
	bd:typedAs <http://www.assero.co.uk/MDRAdamIg/CDISC/V2#AIG-CDISC_ADAMIG_DT_CHARACTER> ;
.
:AIG-CDISC_ADAMIGBDS_AVISIT
	rdf:type <http://www.assero.co.uk/BusinessDomain#IgVariable> ;
	rdfs:label "Analysis Visit"^^xsd:string ;
	bd:ordinal "37"^^xsd:positiveInteger ;
	bd:rule ""^^xsd:string ;
	bd:name "AVISIT"^^xsd:string ;
	bd:ct ""^^xsd:string ;
	bd:ct_notes ""^^xsd:string ;
	bd:notes "The analysis visit description; required if an analysis is done by nominal, assigned or analysis visit. AVISIT may contain the visit names as observed (i.e., from SDTM VISIT), derived visit names, time window names, conceptual descriptions (such as Average, Endpoint, etc.), or a combination of any of these. AVISIT is a derived field and does not have to map to VISIT from the SDTM. AVISIT represents the analysis visit of the record, but it does not mean that the record was analyzed. There are often multiple records for the same subject and parameter that have the same value of AVISIT. ANLzzFL and other variables may be needed to identify the records selected for any given analysis. See Section 3.3.8 for information about flag variables. AVISIT should be unique for a given analysis visit window. In the event that a record does not fall within any predefined analysis timepoint window, AVISIT can be populated in any way that the producer chooses to indicate this fact (i.e., blank or “Not Windowed”). The way that AVISIT is calculated, including the variables used in its derivation, should be indicated in the variable metadata for AVISIT. The values and the rules for deriving AVISIT may be different for different parameters within the same dataset. Values of AVISIT are producer-defined, and are often directly usable in Clinical Study Report displays."^^xsd:string ;
	bd:compliance <http://www.assero.co.uk/MDRAdamIg/CDISC/V2#AIG-CDISC_ADAMIG_C_CONDITIONAL> ;
	bd:typedAs <http://www.assero.co.uk/MDRAdamIg/CDISC/V2#AIG-CDISC_ADAMIG_DT_CHARACTER> ;
.
:AIG-CDISC_ADAMIGBDS_AVISITN
	rdf:type <http://www.assero.co.uk/BusinessDomain#IgVariable> ;
	rdfs:label "Analysis Visit (N)"^^xsd:string ;
	bd:ordinal "38"^^xsd:positiveInteger ;
	bd:rule ""^^xsd:string ;
	bd:name "AVISITN"^^xsd:string ;
	bd:ct ""^^xsd:string ;
	bd:ct_notes ""^^xsd:string ;
	bd:notes "A numeric representation of AVISIT. Since study visits are usually defined by certain timepoints, defining AVISITN so that it represents the timepoint associated with the visit can facilitate plotting and interpretation of the values. Alternatively, AVISITN may be a protocol visit number, a cycle number, an analysis visit number, or any other number logically related to AVISIT or useful for sorting that is needed for analysis.\n\nWithin a parameter, there is a one-to-one mapping between AVISITN and AVISIT so that AVISITN has the same value for each distinct AVISIT. (Best practice would dictate that the mapping would be one-to-one within a study, but that is not an ADaM requirement.) In the event that a record does not fall within any predefined analysis timepoint window, AVISITN can be populated in any way that the producer chooses to indicate this fact (e.g., may be null). Values of AVISITN are producer-defined."^^xsd:string ;
	bd:compliance <http://www.assero.co.uk/MDRAdamIg/CDISC/V2#AIG-CDISC_ADAMIG_C_PERMISSIBLE> ;
	bd:typedAs <http://www.assero.co.uk/MDRAdamIg/CDISC/V2#AIG-CDISC_ADAMIG_DT_NUMERIC> ;
.
:AIG-CDISC_ADAMIGBDS_ATPT
	rdf:type <http://www.assero.co.uk/BusinessDomain#IgVariable> ;
	rdfs:label "Analysis Timepoint"^^xsd:string ;
	bd:ordinal "39"^^xsd:positiveInteger ;
	bd:rule ""^^xsd:string ;
	bd:name "ATPT"^^xsd:string ;
	bd:ct ""^^xsd:string ;
	bd:ct_notes ""^^xsd:string ;
	bd:notes "The analysis timepoint description; required if an analysis is done by nominal, assigned or analysis timepoint (instead of or in addition to by-visit). Timepoints are relative to ATPTREF. ATPT may contain the timepoint names as observed (i.e., from SDTM --TPT), derived timepoint names, time window names, conceptual descriptions (such as Average, Endpoint, etc.), or a combination of any of these. This variable is often used in conjunction with AVISIT. ATPT represents the analysis timepoint of the record. \nATPT can be within an analysis visit (e.g., blood pressure assessments at 10 min, 20 min, and 30 min post-dose at AVISIT=Week 1) or can be unrelated to AVISIT (e.g., migraine symptoms 30 min, 60 min, and 120 min post-dose for attack 1).\n\nThe way that ATPT is calculated, including the variables used in its derivation, should be indicated in the variable metadata for ATPT. The values and the rules for deriving ATPT may be different for different parameters within the same dataset. Values of ATPT are producer-defined, and are often directly usable in Clinical Study Report displays."^^xsd:string ;
	bd:compliance <http://www.assero.co.uk/MDRAdamIg/CDISC/V2#AIG-CDISC_ADAMIG_C_CONDITIONAL> ;
	bd:typedAs <http://www.assero.co.uk/MDRAdamIg/CDISC/V2#AIG-CDISC_ADAMIG_DT_CHARACTER> ;
.
:AIG-CDISC_ADAMIGBDS_ATPTN
	rdf:type <http://www.assero.co.uk/BusinessDomain#IgVariable> ;
	rdfs:label "Analysis Timepoint (N)"^^xsd:string ;
	bd:ordinal "40"^^xsd:positiveInteger ;
	bd:rule ""^^xsd:string ;
	bd:name "ATPTN"^^xsd:string ;
	bd:ct ""^^xsd:string ;
	bd:ct_notes ""^^xsd:string ;
	bd:notes "ATPTN provides a numeric representation of ATPT. Defining ATPTN so that its values represent the planned timepoints (e.g., minutes or hours after dosing) is not required but can facilitate plotting and interpretation of the values. Within the same parameter, there is a one-to-one mapping between ATPT and ATPTN. (Best practice would dictate that the mapping would be one-to-one within a study, but that is not an ADaM requirement.)"^^xsd:string ;
	bd:compliance <http://www.assero.co.uk/MDRAdamIg/CDISC/V2#AIG-CDISC_ADAMIG_C_PERMISSIBLE> ;
	bd:typedAs <http://www.assero.co.uk/MDRAdamIg/CDISC/V2#AIG-CDISC_ADAMIG_DT_NUMERIC> ;
.
:AIG-CDISC_ADAMIGBDS_ATPTREF
	rdf:type <http://www.assero.co.uk/BusinessDomain#IgVariable> ;
	rdfs:label "Analysis Timepoint Reference"^^xsd:string ;
	bd:ordinal "41"^^xsd:positiveInteger ;
	bd:rule ""^^xsd:string ;
	bd:name "ATPTREF"^^xsd:string ;
	bd:ct ""^^xsd:string ;
	bd:ct_notes ""^^xsd:string ;
	bd:notes "Description of the fixed reference point referred to by ATPT/ATPTN (e.g., time of dose)."^^xsd:string ;
	bd:compliance <http://www.assero.co.uk/MDRAdamIg/CDISC/V2#AIG-CDISC_ADAMIG_C_PERMISSIBLE> ;
	bd:typedAs <http://www.assero.co.uk/MDRAdamIg/CDISC/V2#AIG-CDISC_ADAMIG_DT_CHARACTER> ;
.
:AIG-CDISC_ADAMIGBDS_APHASE
	rdf:type <http://www.assero.co.uk/BusinessDomain#IgVariable> ;
	rdfs:label "Phase"^^xsd:string ;
	bd:ordinal "42"^^xsd:positiveInteger ;
	bd:rule ""^^xsd:string ;
	bd:name "APHASE"^^xsd:string ;
	bd:ct ""^^xsd:string ;
	bd:ct_notes ""^^xsd:string ;
	bd:notes "APHASE is a categorization of timing within a study, for example a higher-level categorization of APERIOD or an analysis epoch. For example, APHASE could describe spans of time for SCREENING, ON TREATMENT, and FOLLOW-UP."^^xsd:string ;
	bd:compliance <http://www.assero.co.uk/MDRAdamIg/CDISC/V2#AIG-CDISC_ADAMIG_C_PERMISSIBLE> ;
	bd:typedAs <http://www.assero.co.uk/MDRAdamIg/CDISC/V2#AIG-CDISC_ADAMIG_DT_CHARACTER> ;
.
:AIG-CDISC_ADAMIGBDS_APHASEN
	rdf:type <http://www.assero.co.uk/BusinessDomain#IgVariable> ;
	rdfs:label "Phase (N)"^^xsd:string ;
	bd:ordinal "43"^^xsd:positiveInteger ;
	bd:rule ""^^xsd:string ;
	bd:name "APHASEN"^^xsd:string ;
	bd:ct ""^^xsd:string ;
	bd:ct_notes ""^^xsd:string ;
	bd:notes "APHASEN provides a numeric representation of APHASE. Within a study, there is a one-to-one mapping between APHASE and APHASEN."^^xsd:string ;
	bd:compliance <http://www.assero.co.uk/MDRAdamIg/CDISC/V2#AIG-CDISC_ADAMIG_C_PERMISSIBLE> ;
	bd:typedAs <http://www.assero.co.uk/MDRAdamIg/CDISC/V2#AIG-CDISC_ADAMIG_DT_NUMERIC> ;
.
:AIG-CDISC_ADAMIGBDS_APERIOD
	rdf:type <http://www.assero.co.uk/BusinessDomain#IgVariable> ;
	rdfs:label "Period"^^xsd:string ;
	bd:ordinal "44"^^xsd:positiveInteger ;
	bd:rule ""^^xsd:string ;
	bd:name "APERIOD"^^xsd:string ;
	bd:ct ""^^xsd:string ;
	bd:ct_notes ""^^xsd:string ;
	bd:notes "APERIOD is a record-level timing variable that represents the analysis period within the study associated with the record for analysis purposes. The value of APERIOD (if populated) must be one of the xx values found in the ADSL TRTxxP variables."^^xsd:string ;
	bd:compliance <http://www.assero.co.uk/MDRAdamIg/CDISC/V2#AIG-CDISC_ADAMIG_C_PERMISSIBLE> ;
	bd:typedAs <http://www.assero.co.uk/MDRAdamIg/CDISC/V2#AIG-CDISC_ADAMIG_DT_NUMERIC> ;
.
:AIG-CDISC_ADAMIGBDS_APERIODC
	rdf:type <http://www.assero.co.uk/BusinessDomain#IgVariable> ;
	rdfs:label "Period (C)"^^xsd:string ;
	bd:ordinal "45"^^xsd:positiveInteger ;
	bd:rule ""^^xsd:string ;
	bd:name "APERIODC"^^xsd:string ;
	bd:ct ""^^xsd:string ;
	bd:ct_notes ""^^xsd:string ;
	bd:notes "Text characterizing to which analysis period the record belongs. One-to-one mapping within a dataset to APERIOD."^^xsd:string ;
	bd:compliance <http://www.assero.co.uk/MDRAdamIg/CDISC/V2#AIG-CDISC_ADAMIG_C_PERMISSIBLE> ;
	bd:typedAs <http://www.assero.co.uk/MDRAdamIg/CDISC/V2#AIG-CDISC_ADAMIG_DT_CHARACTER> ;
.
:AIG-CDISC_ADAMIGBDS_ASPER
	rdf:type <http://www.assero.co.uk/BusinessDomain#IgVariable> ;
	rdfs:label "Subperiod within Period"^^xsd:string ;
	bd:ordinal "46"^^xsd:positiveInteger ;
	bd:rule ""^^xsd:string ;
	bd:name "ASPER"^^xsd:string ;
	bd:ct ""^^xsd:string ;
	bd:ct_notes ""^^xsd:string ;
	bd:notes "The numeric value characterizing a sublevel within APERIOD to which the record belongs. Within each APERIOD, the first ASPER is 1 (i.e., it resets to 1 when the APERIOD value changes)."^^xsd:string ;
	bd:compliance <http://www.assero.co.uk/MDRAdamIg/CDISC/V2#AIG-CDISC_ADAMIG_C_PERMISSIBLE> ;
	bd:typedAs <http://www.assero.co.uk/MDRAdamIg/CDISC/V2#AIG-CDISC_ADAMIG_DT_NUMERIC> ;
.
:AIG-CDISC_ADAMIGBDS_ASPERC
	rdf:type <http://www.assero.co.uk/BusinessDomain#IgVariable> ;
	rdfs:label "Subperiod within Period (C)"^^xsd:string ;
	bd:ordinal "47"^^xsd:positiveInteger ;
	bd:rule ""^^xsd:string ;
	bd:name "ASPERC"^^xsd:string ;
	bd:ct ""^^xsd:string ;
	bd:ct_notes ""^^xsd:string ;
	bd:notes "Text characterizing to which subperiod the record belongs. One-to-one mapping within a period to ASPER."^^xsd:string ;
	bd:compliance <http://www.assero.co.uk/MDRAdamIg/CDISC/V2#AIG-CDISC_ADAMIG_C_PERMISSIBLE> ;
	bd:typedAs <http://www.assero.co.uk/MDRAdamIg/CDISC/V2#AIG-CDISC_ADAMIG_DT_CHARACTER> ;
.
:AIG-CDISC_ADAMIGBDS_ARELTM
	rdf:type <http://www.assero.co.uk/BusinessDomain#IgVariable> ;
	rdfs:label "Analysis Relative Time"^^xsd:string ;
	bd:ordinal "48"^^xsd:positiveInteger ;
	bd:rule ""^^xsd:string ;
	bd:name "ARELTM"^^xsd:string ;
	bd:ct ""^^xsd:string ;
	bd:ct_notes ""^^xsd:string ;
	bd:notes "The time relative to an anchor time. The amount of time from an anchor time to ATM. When ARELTM is present, the anchor time variable and ARELTMU must also be included in the dataset, and the anchor time variable must be identified in the metadata for ARELTM."^^xsd:string ;
	bd:compliance <http://www.assero.co.uk/MDRAdamIg/CDISC/V2#AIG-CDISC_ADAMIG_C_PERMISSIBLE> ;
	bd:typedAs <http://www.assero.co.uk/MDRAdamIg/CDISC/V2#AIG-CDISC_ADAMIG_DT_NUMERIC> ;
.
:AIG-CDISC_ADAMIGBDS_ARELTMU
	rdf:type <http://www.assero.co.uk/BusinessDomain#IgVariable> ;
	rdfs:label "Analysis Relative Time Unit"^^xsd:string ;
	bd:ordinal "49"^^xsd:positiveInteger ;
	bd:rule ""^^xsd:string ;
	bd:name "ARELTMU"^^xsd:string ;
	bd:ct ""^^xsd:string ;
	bd:ct_notes ""^^xsd:string ;
	bd:notes "The units of ARELTM. For example, “HOURS” or “MINUTES.” ARELTMU is required if ARELTM is present."^^xsd:string ;
	bd:compliance <http://www.assero.co.uk/MDRAdamIg/CDISC/V2#AIG-CDISC_ADAMIG_C_PERMISSIBLE> ;
	bd:typedAs <http://www.assero.co.uk/MDRAdamIg/CDISC/V2#AIG-CDISC_ADAMIG_DT_CHARACTER> ;
.
:AIG-CDISC_ADAMIGBDS_APERSDT
	rdf:type <http://www.assero.co.uk/BusinessDomain#IgVariable> ;
	rdfs:label "Period Start Date"^^xsd:string ;
	bd:ordinal "50"^^xsd:positiveInteger ;
	bd:rule ""^^xsd:string ;
	bd:name "APERSDT"^^xsd:string ;
	bd:ct ""^^xsd:string ;
	bd:ct_notes ""^^xsd:string ;
	bd:notes "The starting date for the period defined by APERIOD."^^xsd:string ;
	bd:compliance <http://www.assero.co.uk/MDRAdamIg/CDISC/V2#AIG-CDISC_ADAMIG_C_PERMISSIBLE> ;
	bd:typedAs <http://www.assero.co.uk/MDRAdamIg/CDISC/V2#AIG-CDISC_ADAMIG_DT_NUMERIC> ;
.
:AIG-CDISC_ADAMIGBDS_APERSTM
	rdf:type <http://www.assero.co.uk/BusinessDomain#IgVariable> ;
	rdfs:label "Period Start Time"^^xsd:string ;
	bd:ordinal "51"^^xsd:positiveInteger ;
	bd:rule ""^^xsd:string ;
	bd:name "APERSTM"^^xsd:string ;
	bd:ct ""^^xsd:string ;
	bd:ct_notes ""^^xsd:string ;
	bd:notes "The starting time for the period defined by APERIOD."^^xsd:string ;
	bd:compliance <http://www.assero.co.uk/MDRAdamIg/CDISC/V2#AIG-CDISC_ADAMIG_C_PERMISSIBLE> ;
	bd:typedAs <http://www.assero.co.uk/MDRAdamIg/CDISC/V2#AIG-CDISC_ADAMIG_DT_NUMERIC> ;
.
:AIG-CDISC_ADAMIGBDS_APERSDTM
	rdf:type <http://www.assero.co.uk/BusinessDomain#IgVariable> ;
	rdfs:label "Period Start Datetime"^^xsd:string ;
	bd:ordinal "52"^^xsd:positiveInteger ;
	bd:rule ""^^xsd:string ;
	bd:name "APERSDTM"^^xsd:string ;
	bd:ct ""^^xsd:string ;
	bd:ct_notes ""^^xsd:string ;
	bd:notes "The starting datetime for the period defined by APERIOD."^^xsd:string ;
	bd:compliance <http://www.assero.co.uk/MDRAdamIg/CDISC/V2#AIG-CDISC_ADAMIG_C_PERMISSIBLE> ;
	bd:typedAs <http://www.assero.co.uk/MDRAdamIg/CDISC/V2#AIG-CDISC_ADAMIG_DT_NUMERIC> ;
.
:AIG-CDISC_ADAMIGBDS_APERSDTF
	rdf:type <http://www.assero.co.uk/BusinessDomain#IgVariable> ;
	rdfs:label "Period Start Date Imput. Flag"^^xsd:string ;
	bd:ordinal "53"^^xsd:positiveInteger ;
	bd:rule ""^^xsd:string ;
	bd:name "APERSDTF"^^xsd:string ;
	bd:ct "DATEFL"^^xsd:string ;
	bd:ct_notes ""^^xsd:string ;
	bd:notes "The level of imputation of period start date. If APERSDT (or the date part of APERSDTM) was imputed, APERSDTF must be populated and is required. See Section 3.1.3."^^xsd:string ;
	bd:compliance <http://www.assero.co.uk/MDRAdamIg/CDISC/V2#AIG-CDISC_ADAMIG_C_CONDITIONAL> ;
	bd:typedAs <http://www.assero.co.uk/MDRAdamIg/CDISC/V2#AIG-CDISC_ADAMIG_DT_CHARACTER> ;
.
:AIG-CDISC_ADAMIGBDS_APERSTMF
	rdf:type <http://www.assero.co.uk/BusinessDomain#IgVariable> ;
	rdfs:label "Period Start Time Imput. Flag"^^xsd:string ;
	bd:ordinal "54"^^xsd:positiveInteger ;
	bd:rule ""^^xsd:string ;
	bd:name "APERSTMF"^^xsd:string ;
	bd:ct "TIMEFL"^^xsd:string ;
	bd:ct_notes ""^^xsd:string ;
	bd:notes "The level of imputation of period start time. If APERSTM (or the time part of APERSDTM) was imputed, APERSTMF must be populated and is required. See Section 3.1.3."^^xsd:string ;
	bd:compliance <http://www.assero.co.uk/MDRAdamIg/CDISC/V2#AIG-CDISC_ADAMIG_C_CONDITIONAL> ;
	bd:typedAs <http://www.assero.co.uk/MDRAdamIg/CDISC/V2#AIG-CDISC_ADAMIG_DT_CHARACTER> ;
.
:AIG-CDISC_ADAMIGBDS_APEREDT
	rdf:type <http://www.assero.co.uk/BusinessDomain#IgVariable> ;
	rdfs:label "Period End Date"^^xsd:string ;
	bd:ordinal "55"^^xsd:positiveInteger ;
	bd:rule ""^^xsd:string ;
	bd:name "APEREDT"^^xsd:string ;
	bd:ct ""^^xsd:string ;
	bd:ct_notes ""^^xsd:string ;
	bd:notes "The ending date for the period defined by APERIOD."^^xsd:string ;
	bd:compliance <http://www.assero.co.uk/MDRAdamIg/CDISC/V2#AIG-CDISC_ADAMIG_C_PERMISSIBLE> ;
	bd:typedAs <http://www.assero.co.uk/MDRAdamIg/CDISC/V2#AIG-CDISC_ADAMIG_DT_NUMERIC> ;
.
:AIG-CDISC_ADAMIGBDS_APERETM
	rdf:type <http://www.assero.co.uk/BusinessDomain#IgVariable> ;
	rdfs:label "Period End Time"^^xsd:string ;
	bd:ordinal "56"^^xsd:positiveInteger ;
	bd:rule ""^^xsd:string ;
	bd:name "APERETM"^^xsd:string ;
	bd:ct ""^^xsd:string ;
	bd:ct_notes ""^^xsd:string ;
	bd:notes "The ending time for the period defined by APERIOD."^^xsd:string ;
	bd:compliance <http://www.assero.co.uk/MDRAdamIg/CDISC/V2#AIG-CDISC_ADAMIG_C_PERMISSIBLE> ;
	bd:typedAs <http://www.assero.co.uk/MDRAdamIg/CDISC/V2#AIG-CDISC_ADAMIG_DT_NUMERIC> ;
.
:AIG-CDISC_ADAMIGBDS_APEREDTM
	rdf:type <http://www.assero.co.uk/BusinessDomain#IgVariable> ;
	rdfs:label "Period End Datetime"^^xsd:string ;
	bd:ordinal "57"^^xsd:positiveInteger ;
	bd:rule ""^^xsd:string ;
	bd:name "APEREDTM"^^xsd:string ;
	bd:ct ""^^xsd:string ;
	bd:ct_notes ""^^xsd:string ;
	bd:notes "The ending datetime for the period defined by APERIOD."^^xsd:string ;
	bd:compliance <http://www.assero.co.uk/MDRAdamIg/CDISC/V2#AIG-CDISC_ADAMIG_C_PERMISSIBLE> ;
	bd:typedAs <http://www.assero.co.uk/MDRAdamIg/CDISC/V2#AIG-CDISC_ADAMIG_DT_NUMERIC> ;
.
:AIG-CDISC_ADAMIGBDS_APEREDTF
	rdf:type <http://www.assero.co.uk/BusinessDomain#IgVariable> ;
	rdfs:label "Period End Date Imput. Flag"^^xsd:string ;
	bd:ordinal "58"^^xsd:positiveInteger ;
	bd:rule ""^^xsd:string ;
	bd:name "APEREDTF"^^xsd:string ;
	bd:ct "DATEFL"^^xsd:string ;
	bd:ct_notes ""^^xsd:string ;
	bd:notes "The level of imputation of period end date. If APEREDT (or the date part of APEREDTM) was imputed, APEREDTF must be populated and is required. See Section 3.1.3."^^xsd:string ;
	bd:compliance <http://www.assero.co.uk/MDRAdamIg/CDISC/V2#AIG-CDISC_ADAMIG_C_CONDITIONAL> ;
	bd:typedAs <http://www.assero.co.uk/MDRAdamIg/CDISC/V2#AIG-CDISC_ADAMIG_DT_CHARACTER> ;
.
:AIG-CDISC_ADAMIGBDS_APERETMF
	rdf:type <http://www.assero.co.uk/BusinessDomain#IgVariable> ;
	rdfs:label "Period End Time Imput. Flag"^^xsd:string ;
	bd:ordinal "59"^^xsd:positiveInteger ;
	bd:rule ""^^xsd:string ;
	bd:name "APERETMF"^^xsd:string ;
	bd:ct "TIMEFL"^^xsd:string ;
	bd:ct_notes ""^^xsd:string ;
	bd:notes "The level of imputation of period end time. If APERETM (or the time part of APEREDTM) was imputed, APERETMF must be populated and is required. See Section 3.1.3."^^xsd:string ;
	bd:compliance <http://www.assero.co.uk/MDRAdamIg/CDISC/V2#AIG-CDISC_ADAMIG_C_CONDITIONAL> ;
	bd:typedAs <http://www.assero.co.uk/MDRAdamIg/CDISC/V2#AIG-CDISC_ADAMIG_DT_CHARACTER> ;
.
:AIG-CDISC_ADAMIGBDS_ASPRSDT
	rdf:type <http://www.assero.co.uk/BusinessDomain#IgVariable> ;
	rdfs:label "Subperiod Start Date"^^xsd:string ;
	bd:ordinal "60"^^xsd:positiveInteger ;
	bd:rule ""^^xsd:string ;
	bd:name "ASPRSDT"^^xsd:string ;
	bd:ct ""^^xsd:string ;
	bd:ct_notes ""^^xsd:string ;
	bd:notes "The starting date for the subperiod defined by ASPER."^^xsd:string ;
	bd:compliance <http://www.assero.co.uk/MDRAdamIg/CDISC/V2#AIG-CDISC_ADAMIG_C_PERMISSIBLE> ;
	bd:typedAs <http://www.assero.co.uk/MDRAdamIg/CDISC/V2#AIG-CDISC_ADAMIG_DT_NUMERIC> ;
.
:AIG-CDISC_ADAMIGBDS_ASPRSTM
	rdf:type <http://www.assero.co.uk/BusinessDomain#IgVariable> ;
	rdfs:label "Subperiod Start Time"^^xsd:string ;
	bd:ordinal "61"^^xsd:positiveInteger ;
	bd:rule ""^^xsd:string ;
	bd:name "ASPRSTM"^^xsd:string ;
	bd:ct ""^^xsd:string ;
	bd:ct_notes ""^^xsd:string ;
	bd:notes "The starting time for the subperiod defined by ASPER."^^xsd:string ;
	bd:compliance <http://www.assero.co.uk/MDRAdamIg/CDISC/V2#AIG-CDISC_ADAMIG_C_PERMISSIBLE> ;
	bd:typedAs <http://www.assero.co.uk/MDRAdamIg/CDISC/V2#AIG-CDISC_ADAMIG_DT_NUMERIC> ;
.
:AIG-CDISC_ADAMIGBDS_ASPRSDTM
	rdf:type <http://www.assero.co.uk/BusinessDomain#IgVariable> ;
	rdfs:label "Subperiod Start Datetime"^^xsd:string ;
	bd:ordinal "62"^^xsd:positiveInteger ;
	bd:rule ""^^xsd:string ;
	bd:name "ASPRSDTM"^^xsd:string ;
	bd:ct ""^^xsd:string ;
	bd:ct_notes ""^^xsd:string ;
	bd:notes "The starting datetime for the subperiod defined by ASPER."^^xsd:string ;
	bd:compliance <http://www.assero.co.uk/MDRAdamIg/CDISC/V2#AIG-CDISC_ADAMIG_C_PERMISSIBLE> ;
	bd:typedAs <http://www.assero.co.uk/MDRAdamIg/CDISC/V2#AIG-CDISC_ADAMIG_DT_NUMERIC> ;
.
:AIG-CDISC_ADAMIGBDS_ASPRSDTF
	rdf:type <http://www.assero.co.uk/BusinessDomain#IgVariable> ;
	rdfs:label "Subperiod Start Date Imput. Flag"^^xsd:string ;
	bd:ordinal "63"^^xsd:positiveInteger ;
	bd:rule ""^^xsd:string ;
	bd:name "ASPRSDTF"^^xsd:string ;
	bd:ct "DATEFL"^^xsd:string ;
	bd:ct_notes ""^^xsd:string ;
	bd:notes "The level of imputation of subperiod start date. If ASPRSDT (or the date part of ASPRSDTM) was imputed, ASPRSDTF must be populated and is required. See Section 3.1.3."^^xsd:string ;
	bd:compliance <http://www.assero.co.uk/MDRAdamIg/CDISC/V2#AIG-CDISC_ADAMIG_C_CONDITIONAL> ;
	bd:typedAs <http://www.assero.co.uk/MDRAdamIg/CDISC/V2#AIG-CDISC_ADAMIG_DT_CHARACTER> ;
.
:AIG-CDISC_ADAMIGBDS_ASPRSTMF
	rdf:type <http://www.assero.co.uk/BusinessDomain#IgVariable> ;
	rdfs:label "Subperiod Start Time Imput. Flag"^^xsd:string ;
	bd:ordinal "64"^^xsd:positiveInteger ;
	bd:rule ""^^xsd:string ;
	bd:name "ASPRSTMF"^^xsd:string ;
	bd:ct "TIMEFL"^^xsd:string ;
	bd:ct_notes ""^^xsd:string ;
	bd:notes "The level of imputation of subperiod start time. If ASPRSTM (or the time part of ASPRSDTM) was imputed, ASPRSTMF must be populated and is required. See Section 3.1.3."^^xsd:string ;
	bd:compliance <http://www.assero.co.uk/MDRAdamIg/CDISC/V2#AIG-CDISC_ADAMIG_C_CONDITIONAL> ;
	bd:typedAs <http://www.assero.co.uk/MDRAdamIg/CDISC/V2#AIG-CDISC_ADAMIG_DT_CHARACTER> ;
.
:AIG-CDISC_ADAMIGBDS_ASPREDT
	rdf:type <http://www.assero.co.uk/BusinessDomain#IgVariable> ;
	rdfs:label "Subperiod End Date"^^xsd:string ;
	bd:ordinal "65"^^xsd:positiveInteger ;
	bd:rule ""^^xsd:string ;
	bd:name "ASPREDT"^^xsd:string ;
	bd:ct ""^^xsd:string ;
	bd:ct_notes ""^^xsd:string ;
	bd:notes "The ending date for the subperiod defined by ASPER."^^xsd:string ;
	bd:compliance <http://www.assero.co.uk/MDRAdamIg/CDISC/V2#AIG-CDISC_ADAMIG_C_PERMISSIBLE> ;
	bd:typedAs <http://www.assero.co.uk/MDRAdamIg/CDISC/V2#AIG-CDISC_ADAMIG_DT_NUMERIC> ;
.
:AIG-CDISC_ADAMIGBDS_ASPRETM
	rdf:type <http://www.assero.co.uk/BusinessDomain#IgVariable> ;
	rdfs:label "Subperiod End Time"^^xsd:string ;
	bd:ordinal "66"^^xsd:positiveInteger ;
	bd:rule ""^^xsd:string ;
	bd:name "ASPRETM"^^xsd:string ;
	bd:ct ""^^xsd:string ;
	bd:ct_notes ""^^xsd:string ;
	bd:notes "The ending time for the subperiod defined by ASPER."^^xsd:string ;
	bd:compliance <http://www.assero.co.uk/MDRAdamIg/CDISC/V2#AIG-CDISC_ADAMIG_C_PERMISSIBLE> ;
	bd:typedAs <http://www.assero.co.uk/MDRAdamIg/CDISC/V2#AIG-CDISC_ADAMIG_DT_NUMERIC> ;
.
:AIG-CDISC_ADAMIGBDS_ASPREDTM
	rdf:type <http://www.assero.co.uk/BusinessDomain#IgVariable> ;
	rdfs:label "Subperiod End Datetime"^^xsd:string ;
	bd:ordinal "67"^^xsd:positiveInteger ;
	bd:rule ""^^xsd:string ;
	bd:name "ASPREDTM"^^xsd:string ;
	bd:ct ""^^xsd:string ;
	bd:ct_notes ""^^xsd:string ;
	bd:notes "The ending datetime for the subperiod defined by ASPER."^^xsd:string ;
	bd:compliance <http://www.assero.co.uk/MDRAdamIg/CDISC/V2#AIG-CDISC_ADAMIG_C_PERMISSIBLE> ;
	bd:typedAs <http://www.assero.co.uk/MDRAdamIg/CDISC/V2#AIG-CDISC_ADAMIG_DT_NUMERIC> ;
.
:AIG-CDISC_ADAMIGBDS_ASPREDTF
	rdf:type <http://www.assero.co.uk/BusinessDomain#IgVariable> ;
	rdfs:label "Subperiod End Date Imput. Flag"^^xsd:string ;
	bd:ordinal "68"^^xsd:positiveInteger ;
	bd:rule ""^^xsd:string ;
	bd:name "ASPREDTF"^^xsd:string ;
	bd:ct "DATEFL"^^xsd:string ;
	bd:ct_notes ""^^xsd:string ;
	bd:notes "The level of imputation of subperiod end date. If ASPREDT (or the date part of ASPREDTM) was imputed, ASPREDTF must be populated and is required. See Section 3.1.3."^^xsd:string ;
	bd:compliance <http://www.assero.co.uk/MDRAdamIg/CDISC/V2#AIG-CDISC_ADAMIG_C_CONDITIONAL> ;
	bd:typedAs <http://www.assero.co.uk/MDRAdamIg/CDISC/V2#AIG-CDISC_ADAMIG_DT_CHARACTER> ;
.
:AIG-CDISC_ADAMIGBDS_ASPRETMF
	rdf:type <http://www.assero.co.uk/BusinessDomain#IgVariable> ;
	rdfs:label "Subperiod End Time Imput. Flag"^^xsd:string ;
	bd:ordinal "69"^^xsd:positiveInteger ;
	bd:rule ""^^xsd:string ;
	bd:name "ASPRETMF"^^xsd:string ;
	bd:ct "TIMEFL"^^xsd:string ;
	bd:ct_notes ""^^xsd:string ;
	bd:notes "The level of imputation of subperiod end time. If ASPRETM (or the time part of ASPREDTM) was imputed, ASPRETMF must be populated and is required. See Section 3.1.3."^^xsd:string ;
	bd:compliance <http://www.assero.co.uk/MDRAdamIg/CDISC/V2#AIG-CDISC_ADAMIG_C_CONDITIONAL> ;
	bd:typedAs <http://www.assero.co.uk/MDRAdamIg/CDISC/V2#AIG-CDISC_ADAMIG_DT_CHARACTER> ;
.
:AIG-CDISC_ADAMIGBDS_PHSDT
	rdf:type <http://www.assero.co.uk/BusinessDomain#IgVariable> ;
	rdfs:label "Phase Start Date"^^xsd:string ;
	bd:ordinal "70"^^xsd:positiveInteger ;
	bd:rule ""^^xsd:string ;
	bd:name "PHSDT"^^xsd:string ;
	bd:ct ""^^xsd:string ;
	bd:ct_notes ""^^xsd:string ;
	bd:notes "The starting date for the phase defined by APHASE."^^xsd:string ;
	bd:compliance <http://www.assero.co.uk/MDRAdamIg/CDISC/V2#AIG-CDISC_ADAMIG_C_PERMISSIBLE> ;
	bd:typedAs <http://www.assero.co.uk/MDRAdamIg/CDISC/V2#AIG-CDISC_ADAMIG_DT_NUMERIC> ;
.
:AIG-CDISC_ADAMIGBDS_PHSTM
	rdf:type <http://www.assero.co.uk/BusinessDomain#IgVariable> ;
	rdfs:label "Phase Start Time"^^xsd:string ;
	bd:ordinal "71"^^xsd:positiveInteger ;
	bd:rule ""^^xsd:string ;
	bd:name "PHSTM"^^xsd:string ;
	bd:ct ""^^xsd:string ;
	bd:ct_notes ""^^xsd:string ;
	bd:notes "The starting time for the phase defined by APHASE."^^xsd:string ;
	bd:compliance <http://www.assero.co.uk/MDRAdamIg/CDISC/V2#AIG-CDISC_ADAMIG_C_PERMISSIBLE> ;
	bd:typedAs <http://www.assero.co.uk/MDRAdamIg/CDISC/V2#AIG-CDISC_ADAMIG_DT_NUMERIC> ;
.
:AIG-CDISC_ADAMIGBDS_PHSDTM
	rdf:type <http://www.assero.co.uk/BusinessDomain#IgVariable> ;
	rdfs:label "Phase Start Datetime"^^xsd:string ;
	bd:ordinal "72"^^xsd:positiveInteger ;
	bd:rule ""^^xsd:string ;
	bd:name "PHSDTM"^^xsd:string ;
	bd:ct ""^^xsd:string ;
	bd:ct_notes ""^^xsd:string ;
	bd:notes "The starting datetime for the phase defined by APHASE."^^xsd:string ;
	bd:compliance <http://www.assero.co.uk/MDRAdamIg/CDISC/V2#AIG-CDISC_ADAMIG_C_PERMISSIBLE> ;
	bd:typedAs <http://www.assero.co.uk/MDRAdamIg/CDISC/V2#AIG-CDISC_ADAMIG_DT_NUMERIC> ;
.
:AIG-CDISC_ADAMIGBDS_PHSDTF
	rdf:type <http://www.assero.co.uk/BusinessDomain#IgVariable> ;
	rdfs:label "Phase Start Date Imput. Flag"^^xsd:string ;
	bd:ordinal "73"^^xsd:positiveInteger ;
	bd:rule ""^^xsd:string ;
	bd:name "PHSDTF"^^xsd:string ;
	bd:ct "DATEFL"^^xsd:string ;
	bd:ct_notes ""^^xsd:string ;
	bd:notes "The level of imputation of phase start date. If PHSDT (or the date part of PHSDTM) was imputed, PHSDTF must be populated and is required. See Section 3.1.3."^^xsd:string ;
	bd:compliance <http://www.assero.co.uk/MDRAdamIg/CDISC/V2#AIG-CDISC_ADAMIG_C_CONDITIONAL> ;
	bd:typedAs <http://www.assero.co.uk/MDRAdamIg/CDISC/V2#AIG-CDISC_ADAMIG_DT_CHARACTER> ;
.
:AIG-CDISC_ADAMIGBDS_PHSTMF
	rdf:type <http://www.assero.co.uk/BusinessDomain#IgVariable> ;
	rdfs:label "Phase Start Time Imput. Flag"^^xsd:string ;
	bd:ordinal "74"^^xsd:positiveInteger ;
	bd:rule ""^^xsd:string ;
	bd:name "PHSTMF"^^xsd:string ;
	bd:ct "TIMEFL"^^xsd:string ;
	bd:ct_notes ""^^xsd:string ;
	bd:notes "The level of imputation of phase start time. If PHSTM (or the time part of PHSDTM) was imputed, PHSTMF must be populated and is required. See Section 3.1.3."^^xsd:string ;
	bd:compliance <http://www.assero.co.uk/MDRAdamIg/CDISC/V2#AIG-CDISC_ADAMIG_C_CONDITIONAL> ;
	bd:typedAs <http://www.assero.co.uk/MDRAdamIg/CDISC/V2#AIG-CDISC_ADAMIG_DT_CHARACTER> ;
.
:AIG-CDISC_ADAMIGBDS_PHEDT
	rdf:type <http://www.assero.co.uk/BusinessDomain#IgVariable> ;
	rdfs:label "Phase End Date"^^xsd:string ;
	bd:ordinal "75"^^xsd:positiveInteger ;
	bd:rule ""^^xsd:string ;
	bd:name "PHEDT"^^xsd:string ;
	bd:ct ""^^xsd:string ;
	bd:ct_notes ""^^xsd:string ;
	bd:notes "The ending date for the phase defined by APHASE."^^xsd:string ;
	bd:compliance <http://www.assero.co.uk/MDRAdamIg/CDISC/V2#AIG-CDISC_ADAMIG_C_PERMISSIBLE> ;
	bd:typedAs <http://www.assero.co.uk/MDRAdamIg/CDISC/V2#AIG-CDISC_ADAMIG_DT_NUMERIC> ;
.
:AIG-CDISC_ADAMIGBDS_PHETM
	rdf:type <http://www.assero.co.uk/BusinessDomain#IgVariable> ;
	rdfs:label "Phase End Time"^^xsd:string ;
	bd:ordinal "76"^^xsd:positiveInteger ;
	bd:rule ""^^xsd:string ;
	bd:name "PHETM"^^xsd:string ;
	bd:ct ""^^xsd:string ;
	bd:ct_notes ""^^xsd:string ;
	bd:notes "The ending time for the phase defined by APHASE."^^xsd:string ;
	bd:compliance <http://www.assero.co.uk/MDRAdamIg/CDISC/V2#AIG-CDISC_ADAMIG_C_PERMISSIBLE> ;
	bd:typedAs <http://www.assero.co.uk/MDRAdamIg/CDISC/V2#AIG-CDISC_ADAMIG_DT_NUMERIC> ;
.
:AIG-CDISC_ADAMIGBDS_PHEDTM
	rdf:type <http://www.assero.co.uk/BusinessDomain#IgVariable> ;
	rdfs:label "Phase End Datetime"^^xsd:string ;
	bd:ordinal "77"^^xsd:positiveInteger ;
	bd:rule ""^^xsd:string ;
	bd:name "PHEDTM"^^xsd:string ;
	bd:ct ""^^xsd:string ;
	bd:ct_notes ""^^xsd:string ;
	bd:notes "The ending datetime for the phase defined by APHASE."^^xsd:string ;
	bd:compliance <http://www.assero.co.uk/MDRAdamIg/CDISC/V2#AIG-CDISC_ADAMIG_C_PERMISSIBLE> ;
	bd:typedAs <http://www.assero.co.uk/MDRAdamIg/CDISC/V2#AIG-CDISC_ADAMIG_DT_NUMERIC> ;
.
:AIG-CDISC_ADAMIGBDS_PHEDTF
	rdf:type <http://www.assero.co.uk/BusinessDomain#IgVariable> ;
	rdfs:label "Phase End Date Imput. Flag"^^xsd:string ;
	bd:ordinal "78"^^xsd:positiveInteger ;
	bd:rule ""^^xsd:string ;
	bd:name "PHEDTF"^^xsd:string ;
	bd:ct "DATEFL"^^xsd:string ;
	bd:ct_notes ""^^xsd:string ;
	bd:notes "The level of imputation of phase end date. If PHEDT (or the date part of PHEDTM) was imputed, PHEDTF must be populated and is required. See Section 3.1.3."^^xsd:string ;
	bd:compliance <http://www.assero.co.uk/MDRAdamIg/CDISC/V2#AIG-CDISC_ADAMIG_C_CONDITIONAL> ;
	bd:typedAs <http://www.assero.co.uk/MDRAdamIg/CDISC/V2#AIG-CDISC_ADAMIG_DT_CHARACTER> ;
.
:AIG-CDISC_ADAMIGBDS_PHETMF
	rdf:type <http://www.assero.co.uk/BusinessDomain#IgVariable> ;
	rdfs:label "Phase End Time Imput. Flag"^^xsd:string ;
	bd:ordinal "79"^^xsd:positiveInteger ;
	bd:rule ""^^xsd:string ;
	bd:name "PHETMF"^^xsd:string ;
	bd:ct "TIMEFL"^^xsd:string ;
	bd:ct_notes ""^^xsd:string ;
	bd:notes "The level of imputation of phase end time. If PHETM (or the time part of PHEDTM) was imputed, PHETMF must be populated and is required. See Section 3.1.3."^^xsd:string ;
	bd:compliance <http://www.assero.co.uk/MDRAdamIg/CDISC/V2#AIG-CDISC_ADAMIG_C_CONDITIONAL> ;
	bd:typedAs <http://www.assero.co.uk/MDRAdamIg/CDISC/V2#AIG-CDISC_ADAMIG_DT_CHARACTER> ;
.
:AIG-CDISC_ADAMIGBDS_DT
	rdf:type <http://www.assero.co.uk/BusinessDomain#IgVariable> ;
	rdfs:label "{Date}"^^xsd:string ;
	bd:ordinal "80"^^xsd:positiveInteger ;
	bd:rule ""^^xsd:string ;
	bd:name "*DT"^^xsd:string ;
	bd:ct ""^^xsd:string ;
	bd:ct_notes ""^^xsd:string ;
	bd:notes "Analysis date not directly characterizing AVAL and/or AVALC in numeric format."^^xsd:string ;
	bd:compliance <http://www.assero.co.uk/MDRAdamIg/CDISC/V2#AIG-CDISC_ADAMIG_C_PERMISSIBLE> ;
	bd:typedAs <http://www.assero.co.uk/MDRAdamIg/CDISC/V2#AIG-CDISC_ADAMIG_DT_NUMERIC> ;
.
:AIG-CDISC_ADAMIGBDS_TM
	rdf:type <http://www.assero.co.uk/BusinessDomain#IgVariable> ;
	rdfs:label "{Time}"^^xsd:string ;
	bd:ordinal "81"^^xsd:positiveInteger ;
	bd:rule ""^^xsd:string ;
	bd:name "*TM"^^xsd:string ;
	bd:ct ""^^xsd:string ;
	bd:ct_notes ""^^xsd:string ;
	bd:notes "Analysis time not directly characterizing AVAL and/or AVALC in numeric format."^^xsd:string ;
	bd:compliance <http://www.assero.co.uk/MDRAdamIg/CDISC/V2#AIG-CDISC_ADAMIG_C_PERMISSIBLE> ;
	bd:typedAs <http://www.assero.co.uk/MDRAdamIg/CDISC/V2#AIG-CDISC_ADAMIG_DT_NUMERIC> ;
.
:AIG-CDISC_ADAMIGBDS_DTM
	rdf:type <http://www.assero.co.uk/BusinessDomain#IgVariable> ;
	rdfs:label "{Datetime}"^^xsd:string ;
	bd:ordinal "82"^^xsd:positiveInteger ;
	bd:rule ""^^xsd:string ;
	bd:name "*DTM"^^xsd:string ;
	bd:ct ""^^xsd:string ;
	bd:ct_notes ""^^xsd:string ;
	bd:notes "Analysis datetime not directly characterizing AVAL and/or AVALC in numeric format."^^xsd:string ;
	bd:compliance <http://www.assero.co.uk/MDRAdamIg/CDISC/V2#AIG-CDISC_ADAMIG_C_PERMISSIBLE> ;
	bd:typedAs <http://www.assero.co.uk/MDRAdamIg/CDISC/V2#AIG-CDISC_ADAMIG_DT_NUMERIC> ;
.
:AIG-CDISC_ADAMIGBDS_DTF
	rdf:type <http://www.assero.co.uk/BusinessDomain#IgVariable> ;
	rdfs:label "{Date Imputation Flag}"^^xsd:string ;
	bd:ordinal "84"^^xsd:positiveInteger ;
	bd:rule ""^^xsd:string ;
	bd:name "*DTF"^^xsd:string ;
	bd:ct "DATEFL"^^xsd:string ;
	bd:ct_notes ""^^xsd:string ;
	bd:notes "The level of imputation of *DT. If *DT (or the date part of *DTM) was imputed, *DTF must be populated and is required. See Section 3.1.3."^^xsd:string ;
	bd:compliance <http://www.assero.co.uk/MDRAdamIg/CDISC/V2#AIG-CDISC_ADAMIG_C_CONDITIONAL> ;
	bd:typedAs <http://www.assero.co.uk/MDRAdamIg/CDISC/V2#AIG-CDISC_ADAMIG_DT_CHARACTER> ;
.
:AIG-CDISC_ADAMIGBDS_TMF
	rdf:type <http://www.assero.co.uk/BusinessDomain#IgVariable> ;
	rdfs:label "{Time Imputation Flag}"^^xsd:string ;
	bd:ordinal "85"^^xsd:positiveInteger ;
	bd:rule ""^^xsd:string ;
	bd:name "*TMF"^^xsd:string ;
	bd:ct "TIMEFL"^^xsd:string ;
	bd:ct_notes ""^^xsd:string ;
	bd:notes "The level of imputation of *TM. If *TM (or the time part of *DTM) was imputed, *TMF must be populated and is required. See Section 3.1.3."^^xsd:string ;
	bd:compliance <http://www.assero.co.uk/MDRAdamIg/CDISC/V2#AIG-CDISC_ADAMIG_C_CONDITIONAL> ;
	bd:typedAs <http://www.assero.co.uk/MDRAdamIg/CDISC/V2#AIG-CDISC_ADAMIG_DT_CHARACTER> ;
.
:AIG-CDISC_ADAMIGBDS_SDT
	rdf:type <http://www.assero.co.uk/BusinessDomain#IgVariable> ;
	rdfs:label "{Start Date}"^^xsd:string ;
	bd:ordinal "86"^^xsd:positiveInteger ;
	bd:rule ""^^xsd:string ;
	bd:name "*SDT"^^xsd:string ;
	bd:ct ""^^xsd:string ;
	bd:ct_notes ""^^xsd:string ;
	bd:notes "Starting analysis date not directly characterizing AVAL and/or AVALC in numeric format."^^xsd:string ;
	bd:compliance <http://www.assero.co.uk/MDRAdamIg/CDISC/V2#AIG-CDISC_ADAMIG_C_PERMISSIBLE> ;
	bd:typedAs <http://www.assero.co.uk/MDRAdamIg/CDISC/V2#AIG-CDISC_ADAMIG_DT_NUMERIC> ;
.
:AIG-CDISC_ADAMIGBDS_STM
	rdf:type <http://www.assero.co.uk/BusinessDomain#IgVariable> ;
	rdfs:label "{Start Time}"^^xsd:string ;
	bd:ordinal "87"^^xsd:positiveInteger ;
	bd:rule ""^^xsd:string ;
	bd:name "*STM"^^xsd:string ;
	bd:ct ""^^xsd:string ;
	bd:ct_notes ""^^xsd:string ;
	bd:notes "Starting analysis time not directly characterizing AVAL and/or AVALC in numeric format."^^xsd:string ;
	bd:compliance <http://www.assero.co.uk/MDRAdamIg/CDISC/V2#AIG-CDISC_ADAMIG_C_PERMISSIBLE> ;
	bd:typedAs <http://www.assero.co.uk/MDRAdamIg/CDISC/V2#AIG-CDISC_ADAMIG_DT_NUMERIC> ;
.
:AIG-CDISC_ADAMIGBDS_SDTM
	rdf:type <http://www.assero.co.uk/BusinessDomain#IgVariable> ;
	rdfs:label "{Start Datetime}"^^xsd:string ;
	bd:ordinal "88"^^xsd:positiveInteger ;
	bd:rule ""^^xsd:string ;
	bd:name "*SDTM"^^xsd:string ;
	bd:ct ""^^xsd:string ;
	bd:ct_notes ""^^xsd:string ;
	bd:notes "Starting analysis datetime not directly characterizing AVAL and/or AVALC in numeric format."^^xsd:string ;
	bd:compliance <http://www.assero.co.uk/MDRAdamIg/CDISC/V2#AIG-CDISC_ADAMIG_C_PERMISSIBLE> ;
	bd:typedAs <http://www.assero.co.uk/MDRAdamIg/CDISC/V2#AIG-CDISC_ADAMIG_DT_NUMERIC> ;
.
:AIG-CDISC_ADAMIGBDS_SDY
	rdf:type <http://www.assero.co.uk/BusinessDomain#IgVariable> ;
	rdfs:label "{Relative Start Day}"^^xsd:string ;
	bd:ordinal "89"^^xsd:positiveInteger ;
	bd:rule ""^^xsd:string ;
	bd:name "*SDY"^^xsd:string ;
	bd:ct ""^^xsd:string ;
	bd:ct_notes ""^^xsd:string ;
	bd:notes "Starting analysis relative day not directly characterizing AVAL and/or AVALC."^^xsd:string ;
	bd:compliance <http://www.assero.co.uk/MDRAdamIg/CDISC/V2#AIG-CDISC_ADAMIG_C_PERMISSIBLE> ;
	bd:typedAs <http://www.assero.co.uk/MDRAdamIg/CDISC/V2#AIG-CDISC_ADAMIG_DT_NUMERIC> ;
.
:AIG-CDISC_ADAMIGBDS_SDTF
	rdf:type <http://www.assero.co.uk/BusinessDomain#IgVariable> ;
	rdfs:label "{Start Date Imputation Flag}"^^xsd:string ;
	bd:ordinal "90"^^xsd:positiveInteger ;
	bd:rule ""^^xsd:string ;
	bd:name "*SDTF"^^xsd:string ;
	bd:ct "DATEFL"^^xsd:string ;
	bd:ct_notes ""^^xsd:string ;
	bd:notes "The level of imputation of *SDT. If *SDT (or the date part of *SDTM) was imputed, *SDTF must be populated and is required. See Section 3.1.3."^^xsd:string ;
	bd:compliance <http://www.assero.co.uk/MDRAdamIg/CDISC/V2#AIG-CDISC_ADAMIG_C_CONDITIONAL> ;
	bd:typedAs <http://www.assero.co.uk/MDRAdamIg/CDISC/V2#AIG-CDISC_ADAMIG_DT_CHARACTER> ;
.
:AIG-CDISC_ADAMIGBDS_STMF
	rdf:type <http://www.assero.co.uk/BusinessDomain#IgVariable> ;
	rdfs:label "{Start Time Imputation Flag}"^^xsd:string ;
	bd:ordinal "91"^^xsd:positiveInteger ;
	bd:rule ""^^xsd:string ;
	bd:name "*STMF"^^xsd:string ;
	bd:ct "TIMEFL"^^xsd:string ;
	bd:ct_notes ""^^xsd:string ;
	bd:notes "The level of imputation of *STM. If *STM (or the time part of *SDTM) was imputed, *STMF must be populated and is required. See Section 3.1.3."^^xsd:string ;
	bd:compliance <http://www.assero.co.uk/MDRAdamIg/CDISC/V2#AIG-CDISC_ADAMIG_C_CONDITIONAL> ;
	bd:typedAs <http://www.assero.co.uk/MDRAdamIg/CDISC/V2#AIG-CDISC_ADAMIG_DT_CHARACTER> ;
.
:AIG-CDISC_ADAMIGBDS_EDT
	rdf:type <http://www.assero.co.uk/BusinessDomain#IgVariable> ;
	rdfs:label "{End Date}"^^xsd:string ;
	bd:ordinal "92"^^xsd:positiveInteger ;
	bd:rule ""^^xsd:string ;
	bd:name "*EDT"^^xsd:string ;
	bd:ct ""^^xsd:string ;
	bd:ct_notes ""^^xsd:string ;
	bd:notes "Ending analysis date not directly characterizing AVAL and/or AVALC in numeric format."^^xsd:string ;
	bd:compliance <http://www.assero.co.uk/MDRAdamIg/CDISC/V2#AIG-CDISC_ADAMIG_C_PERMISSIBLE> ;
	bd:typedAs <http://www.assero.co.uk/MDRAdamIg/CDISC/V2#AIG-CDISC_ADAMIG_DT_NUMERIC> ;
.
:AIG-CDISC_ADAMIGBDS_ETM
	rdf:type <http://www.assero.co.uk/BusinessDomain#IgVariable> ;
	rdfs:label "{End Time}"^^xsd:string ;
	bd:ordinal "93"^^xsd:positiveInteger ;
	bd:rule ""^^xsd:string ;
	bd:name "*ETM"^^xsd:string ;
	bd:ct ""^^xsd:string ;
	bd:ct_notes ""^^xsd:string ;
	bd:notes "Ending analysis time not directly characterizing AVAL and/or AVALC in numeric format."^^xsd:string ;
	bd:compliance <http://www.assero.co.uk/MDRAdamIg/CDISC/V2#AIG-CDISC_ADAMIG_C_PERMISSIBLE> ;
	bd:typedAs <http://www.assero.co.uk/MDRAdamIg/CDISC/V2#AIG-CDISC_ADAMIG_DT_NUMERIC> ;
.
:AIG-CDISC_ADAMIGBDS_EDTM
	rdf:type <http://www.assero.co.uk/BusinessDomain#IgVariable> ;
	rdfs:label "{End Datetime}"^^xsd:string ;
	bd:ordinal "94"^^xsd:positiveInteger ;
	bd:rule ""^^xsd:string ;
	bd:name "*EDTM"^^xsd:string ;
	bd:ct ""^^xsd:string ;
	bd:ct_notes ""^^xsd:string ;
	bd:notes "Ending analysis datetime not directly characterizing AVAL and/or AVALC in numeric format."^^xsd:string ;
	bd:compliance <http://www.assero.co.uk/MDRAdamIg/CDISC/V2#AIG-CDISC_ADAMIG_C_PERMISSIBLE> ;
	bd:typedAs <http://www.assero.co.uk/MDRAdamIg/CDISC/V2#AIG-CDISC_ADAMIG_DT_NUMERIC> ;
.
:AIG-CDISC_ADAMIGBDS_EDY
	rdf:type <http://www.assero.co.uk/BusinessDomain#IgVariable> ;
	rdfs:label "{Relative End Day}"^^xsd:string ;
	bd:ordinal "95"^^xsd:positiveInteger ;
	bd:rule ""^^xsd:string ;
	bd:name "*EDY"^^xsd:string ;
	bd:ct ""^^xsd:string ;
	bd:ct_notes ""^^xsd:string ;
	bd:notes "Ending analysis relative day not directly characterizing AVAL and/or AVALC."^^xsd:string ;
	bd:compliance <http://www.assero.co.uk/MDRAdamIg/CDISC/V2#AIG-CDISC_ADAMIG_C_PERMISSIBLE> ;
	bd:typedAs <http://www.assero.co.uk/MDRAdamIg/CDISC/V2#AIG-CDISC_ADAMIG_DT_NUMERIC> ;
.
:AIG-CDISC_ADAMIGBDS_EDTF
	rdf:type <http://www.assero.co.uk/BusinessDomain#IgVariable> ;
	rdfs:label "{End Date Imputation Flag}"^^xsd:string ;
	bd:ordinal "96"^^xsd:positiveInteger ;
	bd:rule ""^^xsd:string ;
	bd:name "*EDTF"^^xsd:string ;
	bd:ct "DATEFL"^^xsd:string ;
	bd:ct_notes ""^^xsd:string ;
	bd:notes "The level of imputation of *EDT. If *EDT (or the date part of *EDTM) was imputed, *EDTF must be populated and is required. See Section 3.1.3."^^xsd:string ;
	bd:compliance <http://www.assero.co.uk/MDRAdamIg/CDISC/V2#AIG-CDISC_ADAMIG_C_CONDITIONAL> ;
	bd:typedAs <http://www.assero.co.uk/MDRAdamIg/CDISC/V2#AIG-CDISC_ADAMIG_DT_CHARACTER> ;
.
:AIG-CDISC_ADAMIGBDS_ETMF
	rdf:type <http://www.assero.co.uk/BusinessDomain#IgVariable> ;
	rdfs:label "{End Time Imputation Flag}"^^xsd:string ;
	bd:ordinal "97"^^xsd:positiveInteger ;
	bd:rule ""^^xsd:string ;
	bd:name "*ETMF"^^xsd:string ;
	bd:ct "TIMEFL"^^xsd:string ;
	bd:ct_notes ""^^xsd:string ;
	bd:notes "The level of imputation of *ETM. If *ETM (or the time part of *EDTM) was imputed, *ETMF must be populated and is required. See Section 3.1.3."^^xsd:string ;
	bd:compliance <http://www.assero.co.uk/MDRAdamIg/CDISC/V2#AIG-CDISC_ADAMIG_C_CONDITIONAL> ;
	bd:typedAs <http://www.assero.co.uk/MDRAdamIg/CDISC/V2#AIG-CDISC_ADAMIG_DT_CHARACTER> ;
.
:AIG-CDISC_ADAMIGBDS_PARAM
	rdf:type <http://www.assero.co.uk/BusinessDomain#IgVariable> ;
	rdfs:label "Parameter"^^xsd:string ;
	bd:ordinal "98"^^xsd:positiveInteger ;
	bd:rule ""^^xsd:string ;
	bd:name "PARAM"^^xsd:string ;
	bd:ct ""^^xsd:string ;
	bd:ct_notes ""^^xsd:string ;
	bd:notes "The description of the analysis parameter. Examples include: “Supine Systolic Blood Pressure (mm Hg)”, “Log10 (Weight (kg))”, “Time to First Hypertension Event (Days)”, “Estimated Tumor Growth Rate”, etc. PARAM should be sufficient to describe unambiguously the contents of AVAL and/or AVALC. PARAM must include all descriptive and qualifying information relevant to the analysis purpose of the parameter.\n\nExamples of qualifying information that might be relevant to analysis and therefore are candidates for inclusion in PARAM are units, specimen type, location, position, machine type, and transformation function. There is no need to include qualifiers that are not relevant to the analysis of PARAM. In contrast to SDTM --TEST, no additional variable is needed to further qualify PARAM. \n\nPARAM may be longer than 40 characters in length but is restricted to a maximum of 200 characters. PARAM is often directly usable in Clinical Study Report displays. Note that in the ADaMIG, “parameter” is a synonym of “analysis parameter.”"^^xsd:string ;
	bd:compliance <http://www.assero.co.uk/MDRAdamIg/CDISC/V2#AIG-CDISC_ADAMIG_C_REQUIRED> ;
	bd:typedAs <http://www.assero.co.uk/MDRAdamIg/CDISC/V2#AIG-CDISC_ADAMIG_DT_CHARACTER> ;
.
:AIG-CDISC_ADAMIGBDS_PARAMCD
	rdf:type <http://www.assero.co.uk/BusinessDomain#IgVariable> ;
	rdfs:label "Parameter Code"^^xsd:string ;
	bd:ordinal "99"^^xsd:positiveInteger ;
	bd:rule ""^^xsd:string ;
	bd:name "PARAMCD"^^xsd:string ;
	bd:ct ""^^xsd:string ;
	bd:ct_notes ""^^xsd:string ;
	bd:notes "The short name of the analysis parameter in PARAM. Values of PARAMCD should follow the SAS Version 5 transport file format and Oracle constraints as noted under General Variable Conventions in Section 3.1.1. There must be a one-to-one mapping to PARAM within a dataset."^^xsd:string ;
	bd:compliance <http://www.assero.co.uk/MDRAdamIg/CDISC/V2#AIG-CDISC_ADAMIG_C_REQUIRED> ;
	bd:typedAs <http://www.assero.co.uk/MDRAdamIg/CDISC/V2#AIG-CDISC_ADAMIG_DT_CHARACTER> ;
.
:AIG-CDISC_ADAMIGBDS_PARAMN
	rdf:type <http://www.assero.co.uk/BusinessDomain#IgVariable> ;
	rdfs:label "Parameter (N)"^^xsd:string ;
	bd:ordinal "100"^^xsd:positiveInteger ;
	bd:rule ""^^xsd:string ;
	bd:name "PARAMN"^^xsd:string ;
	bd:ct ""^^xsd:string ;
	bd:ct_notes ""^^xsd:string ;
	bd:notes "A numeric representation of PARAM. Useful for ordering and programmatic manipulation. There must be a one-to-one mapping to PARAM within a dataset."^^xsd:string ;
	bd:compliance <http://www.assero.co.uk/MDRAdamIg/CDISC/V2#AIG-CDISC_ADAMIG_C_PERMISSIBLE> ;
	bd:typedAs <http://www.assero.co.uk/MDRAdamIg/CDISC/V2#AIG-CDISC_ADAMIG_DT_NUMERIC> ;
.
:AIG-CDISC_ADAMIGBDS_PARAMTYP
	rdf:type <http://www.assero.co.uk/BusinessDomain#IgVariable> ;
	rdfs:label "Parameter Type"^^xsd:string ;
	bd:ordinal "101"^^xsd:positiveInteger ;
	bd:rule ""^^xsd:string ;
	bd:name "PARAMTYP"^^xsd:string ;
	bd:ct "PARAMTYP"^^xsd:string ;
	bd:ct_notes ""^^xsd:string ;
	bd:notes "ndicator of whether the parameter is derived as a function of one or more other parameters. \nThis variable will be retired from the ADaMIG in the next version because it was confused with the concept of DTYPE and therefore was being misused. The variable metadata should be adequate to indicate when a parameter is wholly derived."^^xsd:string ;
	bd:compliance <http://www.assero.co.uk/MDRAdamIg/CDISC/V2#AIG-CDISC_ADAMIG_C_PERMISSIBLE> ;
	bd:typedAs <http://www.assero.co.uk/MDRAdamIg/CDISC/V2#AIG-CDISC_ADAMIG_DT_CHARACTER> ;
.
:AIG-CDISC_ADAMIGBDS_PARCATy
	rdf:type <http://www.assero.co.uk/BusinessDomain#IgVariable> ;
	rdfs:label "Parameter Category y"^^xsd:string ;
	bd:ordinal "102"^^xsd:positiveInteger ;
	bd:rule ""^^xsd:string ;
	bd:name "PARCATy"^^xsd:string ;
	bd:ct ""^^xsd:string ;
	bd:ct_notes ""^^xsd:string ;
	bd:notes "A categorization of PARAM within a dataset. For example, values of PARCAT1 might group the parameters having to do with a particular questionnaire, lab specimen type, or area of investigation. Note that PARCATy is not a qualifier for PARAM. PARAM to PARCATy is a many-to-one mapping; any given PARAM may be associated with at most one level of PARCATy (e.g., one level of PARCAT1 and one level of PARCAT2)."^^xsd:string ;
	bd:compliance <http://www.assero.co.uk/MDRAdamIg/CDISC/V2#AIG-CDISC_ADAMIG_C_PERMISSIBLE> ;
	bd:typedAs <http://www.assero.co.uk/MDRAdamIg/CDISC/V2#AIG-CDISC_ADAMIG_DT_CHARACTER> ;
.
:AIG-CDISC_ADAMIGBDS_PARCATyN
	rdf:type <http://www.assero.co.uk/BusinessDomain#IgVariable> ;
	rdfs:label "Parameter Category y (N)"^^xsd:string ;
	bd:ordinal "103"^^xsd:positiveInteger ;
	bd:rule ""^^xsd:string ;
	bd:name "PARCATyN"^^xsd:string ;
	bd:ct ""^^xsd:string ;
	bd:ct_notes ""^^xsd:string ;
	bd:notes "A numeric representation of PARCATy. This can be used for operations on PARCATy. There must be a one-to-one relationship within a dataset between PARCATy and PARCATyN."^^xsd:string ;
	bd:compliance <http://www.assero.co.uk/MDRAdamIg/CDISC/V2#AIG-CDISC_ADAMIG_C_PERMISSIBLE> ;
	bd:typedAs <http://www.assero.co.uk/MDRAdamIg/CDISC/V2#AIG-CDISC_ADAMIG_DT_NUMERIC> ;
.
:AIG-CDISC_ADAMIGBDS_AVAL
	rdf:type <http://www.assero.co.uk/BusinessDomain#IgVariable> ;
	rdfs:label "Analysis Value"^^xsd:string ;
	bd:ordinal "104"^^xsd:positiveInteger ;
	bd:rule ""^^xsd:string ;
	bd:name "AVAL"^^xsd:string ;
	bd:ct ""^^xsd:string ;
	bd:ct_notes ""^^xsd:string ;
	bd:notes "Numeric analysis value described by PARAM. On a given record, it is permissible for AVAL, AVALC, or both to be null. AVAL is required if AVALC is not present, since either AVAL or AVALC must be present in the dataset."^^xsd:string ;
	bd:compliance <http://www.assero.co.uk/MDRAdamIg/CDISC/V2#AIG-CDISC_ADAMIG_C_CONDITIONAL> ;
	bd:typedAs <http://www.assero.co.uk/MDRAdamIg/CDISC/V2#AIG-CDISC_ADAMIG_DT_NUMERIC> ;
.
:AIG-CDISC_ADAMIGBDS_AVALC
	rdf:type <http://www.assero.co.uk/BusinessDomain#IgVariable> ;
	rdfs:label "Analysis Value (C)"^^xsd:string ;
	bd:ordinal "105"^^xsd:positiveInteger ;
	bd:rule ""^^xsd:string ;
	bd:name "AVALC"^^xsd:string ;
	bd:ct ""^^xsd:string ;
	bd:ct_notes ""^^xsd:string ;
	bd:notes "Character analysis value described by PARAM. AVALC can be a character string mapping to AVAL, but if so there must be a one-to-one map between AVAL and AVALC within a given PARAM. AVALC should not be used to categorize the values of AVAL. Within a given parameter, if there exists a row on which both AVALC and AVAL are populated, then there must be a one-to-one mapping between AVALC and AVAL on all rows on which both variables are populated. (In other words, there is no requirement that records with a null value in either AVAL or AVALC be included when determining whether the one-to-one mapping requirement is satisfied.) On a given record, it is permissible for AVAL, AVALC, or both to be null.\n\nAVALC is required if AVAL is not present, since either AVAL or AVALC must be present in the dataset."^^xsd:string ;
	bd:compliance <http://www.assero.co.uk/MDRAdamIg/CDISC/V2#AIG-CDISC_ADAMIG_C_CONDITIONAL> ;
	bd:typedAs <http://www.assero.co.uk/MDRAdamIg/CDISC/V2#AIG-CDISC_ADAMIG_DT_CHARACTER> ;
.
:AIG-CDISC_ADAMIGBDS_AVALCATy
	rdf:type <http://www.assero.co.uk/BusinessDomain#IgVariable> ;
	rdfs:label "Analysis Value Category y"^^xsd:string ;
	bd:ordinal "106"^^xsd:positiveInteger ;
	bd:rule ""^^xsd:string ;
	bd:name "AVALCATy"^^xsd:string ;
	bd:ct ""^^xsd:string ;
	bd:ct_notes ""^^xsd:string ;
	bd:notes "A categorization of AVAL or AVALC within a parameter. Not necessarily a one-to-one mapping to AVAL and/or AVALC. For example, if PARAM is “Headache Severity” and AVAL has values 0, 1, 2, or 3, AVALCAT1 can categorize AVAL into “None or Mild” (for AVAL 0 or 1) and “Moderate or Severe” (for AVAL 2 or 3)."^^xsd:string ;
	bd:compliance <http://www.assero.co.uk/MDRAdamIg/CDISC/V2#AIG-CDISC_ADAMIG_C_PERMISSIBLE> ;
	bd:typedAs <http://www.assero.co.uk/MDRAdamIg/CDISC/V2#AIG-CDISC_ADAMIG_DT_CHARACTER> ;
.
:AIG-CDISC_ADAMIGBDS_AVALCAyN
	rdf:type <http://www.assero.co.uk/BusinessDomain#IgVariable> ;
	rdfs:label "Analysis Value Category y (N)"^^xsd:string ;
	bd:ordinal "107"^^xsd:positiveInteger ;
	bd:rule ""^^xsd:string ;
	bd:name "AVALCAyN"^^xsd:string ;
	bd:ct ""^^xsd:string ;
	bd:ct_notes ""^^xsd:string ;
	bd:notes "A numeric representation of AVALCATy. This can be used for ordering of values of AVALCATy or for other purposes. There must be a one-to-one relationship within a parameter between AVALCATy and AVALCAyN."^^xsd:string ;
	bd:compliance <http://www.assero.co.uk/MDRAdamIg/CDISC/V2#AIG-CDISC_ADAMIG_C_PERMISSIBLE> ;
	bd:typedAs <http://www.assero.co.uk/MDRAdamIg/CDISC/V2#AIG-CDISC_ADAMIG_DT_NUMERIC> ;
.
:AIG-CDISC_ADAMIGBDS_BASE
	rdf:type <http://www.assero.co.uk/BusinessDomain#IgVariable> ;
	rdfs:label "Baseline Value"^^xsd:string ;
	bd:ordinal "108"^^xsd:positiveInteger ;
	bd:rule ""^^xsd:string ;
	bd:name "BASE"^^xsd:string ;
	bd:ct ""^^xsd:string ;
	bd:ct_notes ""^^xsd:string ;
	bd:notes "The subject’s baseline analysis value for a parameter and baseline definition (i.e. BASETYPE) if present. BASE contains the value of AVAL copied from a record within the parameter on which ABLFL = “Y”. Required if dataset supports analysis or review of numeric baseline value or functions of numeric baseline value. If BASE is populated for a parameter, and BASE is non-null for a subject for that parameter, then there must be a record flagged by ABLFL for that subject and parameter. Note that a baseline record may be derived (e.g., it may be an average) in which case DTYPE must be populated on the baseline record."^^xsd:string ;
	bd:compliance <http://www.assero.co.uk/MDRAdamIg/CDISC/V2#AIG-CDISC_ADAMIG_C_CONDITIONAL> ;
	bd:typedAs <http://www.assero.co.uk/MDRAdamIg/CDISC/V2#AIG-CDISC_ADAMIG_DT_NUMERIC> ;
.
:AIG-CDISC_ADAMIGBDS_BASEC
	rdf:type <http://www.assero.co.uk/BusinessDomain#IgVariable> ;
	rdfs:label "Baseline Value (C)"^^xsd:string ;
	bd:ordinal "109"^^xsd:positiveInteger ;
	bd:rule ""^^xsd:string ;
	bd:name "BASEC"^^xsd:string ;
	bd:ct ""^^xsd:string ;
	bd:ct_notes ""^^xsd:string ;
	bd:notes "The subject’s baseline value of AVALC for a parameter and baseline definition (i.e. BASETYPE) if present. May be needed when AVALC is of interest. BASEC contains the value of AVALC copied from a record within the parameter on which ABLFL = “Y”. If both AVAL and AVALC are populated within a parameter, the baseline record for AVALC must be the same record as that for AVAL. \n\nWithin a given parameter, if there exists a row on which both BASEC and BASE are populated, then there must be a one-to-one mapping between BASEC and BASE on all rows on which both variables are populated. (In other words, there is no requirement that records with a null value in either BASE or BASEC be included when determining whether the one-to-one mapping requirement is satisfied.) On a given record, it is permissible for BASE, BASEC, or both to be null."^^xsd:string ;
	bd:compliance <http://www.assero.co.uk/MDRAdamIg/CDISC/V2#AIG-CDISC_ADAMIG_C_PERMISSIBLE> ;
	bd:typedAs <http://www.assero.co.uk/MDRAdamIg/CDISC/V2#AIG-CDISC_ADAMIG_DT_CHARACTER> ;
.
:AIG-CDISC_ADAMIGBDS_BASECATy
	rdf:type <http://www.assero.co.uk/BusinessDomain#IgVariable> ;
	rdfs:label "Baseline Category y"^^xsd:string ;
	bd:ordinal "110"^^xsd:positiveInteger ;
	bd:rule ""^^xsd:string ;
	bd:name "BASECATy"^^xsd:string ;
	bd:ct ""^^xsd:string ;
	bd:ct_notes ""^^xsd:string ;
	bd:notes "A categorization of BASE or BASEC within a parameter. Not necessarily a one-to-one mapping to BASE or BASEC. For example, if PARAM is “Headache Severity” and AVAL has values 0, 1, 2, or 3, BASECAT1 can categorize BASE into “None or Mild” (for BASE 0 or 1) and “Moderate or Severe” (for BASE 2 or 3)."^^xsd:string ;
	bd:compliance <http://www.assero.co.uk/MDRAdamIg/CDISC/V2#AIG-CDISC_ADAMIG_C_PERMISSIBLE> ;
	bd:typedAs <http://www.assero.co.uk/MDRAdamIg/CDISC/V2#AIG-CDISC_ADAMIG_DT_CHARACTER> ;
.
:AIG-CDISC_ADAMIGBDS_BASECAyN
	rdf:type <http://www.assero.co.uk/BusinessDomain#IgVariable> ;
	rdfs:label "Baseline Category y (N)"^^xsd:string ;
	bd:ordinal "111"^^xsd:positiveInteger ;
	bd:rule ""^^xsd:string ;
	bd:name "BASECAyN"^^xsd:string ;
	bd:ct ""^^xsd:string ;
	bd:ct_notes ""^^xsd:string ;
	bd:notes "A numeric representation of BASECATy. This can be used for ordering of values of BASECATy or for other purposes. There must be a one-to-one relationship within a parameter between BASECATy and BASECAyN."^^xsd:string ;
	bd:compliance <http://www.assero.co.uk/MDRAdamIg/CDISC/V2#AIG-CDISC_ADAMIG_C_PERMISSIBLE> ;
	bd:typedAs <http://www.assero.co.uk/MDRAdamIg/CDISC/V2#AIG-CDISC_ADAMIG_DT_NUMERIC> ;
.
:AIG-CDISC_ADAMIGBDS_BASETYPE
	rdf:type <http://www.assero.co.uk/BusinessDomain#IgVariable> ;
	rdfs:label "Baseline Type"^^xsd:string ;
	bd:ordinal "112"^^xsd:positiveInteger ;
	bd:rule ""^^xsd:string ;
	bd:name "BASETYPE"^^xsd:string ;
	bd:ct ""^^xsd:string ;
	bd:ct_notes ""^^xsd:string ;
	bd:notes "Producer-defined text describing the definition of baseline relevant to the value of BASE on the current record. Required when there are multiple ways that baseline is defined. If used for any PARAM within a dataset, should be non-null for all records of that dataset. Refer to Section 4.2.1, Rule 6, for an example."^^xsd:string ;
	bd:compliance <http://www.assero.co.uk/MDRAdamIg/CDISC/V2#AIG-CDISC_ADAMIG_C_CONDITIONAL> ;
	bd:typedAs <http://www.assero.co.uk/MDRAdamIg/CDISC/V2#AIG-CDISC_ADAMIG_DT_CHARACTER> ;
.
:AIG-CDISC_ADAMIGBDS_CHG
	rdf:type <http://www.assero.co.uk/BusinessDomain#IgVariable> ;
	rdfs:label "Change from Baseline"^^xsd:string ;
	bd:ordinal "113"^^xsd:positiveInteger ;
	bd:rule ""^^xsd:string ;
	bd:name "CHG"^^xsd:string ;
	bd:ct ""^^xsd:string ;
	bd:ct_notes ""^^xsd:string ;
	bd:notes "Change from baseline analysis value. Equal to AVAL-BASE. If used for a given PARAM, should be populated for all post-baseline records of that PARAM regardless of whether that record is used for analysis. The decision on how to populate pre-baseline and baseline values of CHG is left to producer choice."^^xsd:string ;
	bd:compliance <http://www.assero.co.uk/MDRAdamIg/CDISC/V2#AIG-CDISC_ADAMIG_C_PERMISSIBLE> ;
	bd:typedAs <http://www.assero.co.uk/MDRAdamIg/CDISC/V2#AIG-CDISC_ADAMIG_DT_NUMERIC> ;
.
:AIG-CDISC_ADAMIGBDS_CHGCATy
	rdf:type <http://www.assero.co.uk/BusinessDomain#IgVariable> ;
	rdfs:label "Change from Baseline Category y"^^xsd:string ;
	bd:ordinal "114"^^xsd:positiveInteger ;
	bd:rule ""^^xsd:string ;
	bd:name "CHGCATy"^^xsd:string ;
	bd:ct ""^^xsd:string ;
	bd:ct_notes ""^^xsd:string ;
	bd:notes "A categorization of CHG within a parameter. Not necessarily a one-to-one mapping to CHG. The definition of CHGCATy may vary by PARAM. For example, CHGCAT1 may be used to categorize CHG with respect to ranges of change in SYSBP; “-10 to -5 mm Hg”, “-5 to 0 mm Hg” categories."^^xsd:string ;
	bd:compliance <http://www.assero.co.uk/MDRAdamIg/CDISC/V2#AIG-CDISC_ADAMIG_C_PERMISSIBLE> ;
	bd:typedAs <http://www.assero.co.uk/MDRAdamIg/CDISC/V2#AIG-CDISC_ADAMIG_DT_CHARACTER> ;
.
:AIG-CDISC_ADAMIGBDS_CHGCATyN
	rdf:type <http://www.assero.co.uk/BusinessDomain#IgVariable> ;
	rdfs:label "Change from Baseline Category y (N)"^^xsd:string ;
	bd:ordinal "115"^^xsd:positiveInteger ;
	bd:rule ""^^xsd:string ;
	bd:name "CHGCATyN"^^xsd:string ;
	bd:ct ""^^xsd:string ;
	bd:ct_notes ""^^xsd:string ;
	bd:notes "A numeric representation of CHGCATy. This can be used for ordering of values of CHGCATy or for other purposes. There must be a one-to-one relationship within a parameter between CHGCATy and CHGCATyN."^^xsd:string ;
	bd:compliance <http://www.assero.co.uk/MDRAdamIg/CDISC/V2#AIG-CDISC_ADAMIG_C_PERMISSIBLE> ;
	bd:typedAs <http://www.assero.co.uk/MDRAdamIg/CDISC/V2#AIG-CDISC_ADAMIG_DT_NUMERIC> ;
.
:AIG-CDISC_ADAMIGBDS_PCHG
	rdf:type <http://www.assero.co.uk/BusinessDomain#IgVariable> ;
	rdfs:label "Percent Change from Baseline"^^xsd:string ;
	bd:ordinal "116"^^xsd:positiveInteger ;
	bd:rule ""^^xsd:string ;
	bd:name "PCHG"^^xsd:string ;
	bd:ct ""^^xsd:string ;
	bd:ct_notes ""^^xsd:string ;
	bd:notes "Percent change from baseline analysis value. Equal to ((AVAL-BASE)/BASE)*100. If used for a given PARAM, should be populated (when calculable) for all post-baseline records of that PARAM regardless of whether that record is used for analysis. The decision on how to populate pre-baseline and baseline values of PCHG is left to producer choice."^^xsd:string ;
	bd:compliance <http://www.assero.co.uk/MDRAdamIg/CDISC/V2#AIG-CDISC_ADAMIG_C_PERMISSIBLE> ;
	bd:typedAs <http://www.assero.co.uk/MDRAdamIg/CDISC/V2#AIG-CDISC_ADAMIG_DT_NUMERIC> ;
.
:AIG-CDISC_ADAMIGBDS_PCHGCATy
	rdf:type <http://www.assero.co.uk/BusinessDomain#IgVariable> ;
	rdfs:label "Percent Chg from Baseline Category y"^^xsd:string ;
	bd:ordinal "117"^^xsd:positiveInteger ;
	bd:rule ""^^xsd:string ;
	bd:name "PCHGCATy"^^xsd:string ;
	bd:ct ""^^xsd:string ;
	bd:ct_notes ""^^xsd:string ;
	bd:notes "A categorization of PCHG within a parameter. Not necessarily a one-to-one mapping to PCHG. The definition of PCHGCATy may vary by PARAM. For example, PCHGCAT1 may be used to categorize PCHG with respect to ranges of change in SYSBP; “>5%”, “>10%” categories."^^xsd:string ;
	bd:compliance <http://www.assero.co.uk/MDRAdamIg/CDISC/V2#AIG-CDISC_ADAMIG_C_PERMISSIBLE> ;
	bd:typedAs <http://www.assero.co.uk/MDRAdamIg/CDISC/V2#AIG-CDISC_ADAMIG_DT_CHARACTER> ;
.
:AIG-CDISC_ADAMIGBDS_PCHGCAyN
	rdf:type <http://www.assero.co.uk/BusinessDomain#IgVariable> ;
	rdfs:label "Percent Chg from Baseline Category y (N)"^^xsd:string ;
	bd:ordinal "118"^^xsd:positiveInteger ;
	bd:rule ""^^xsd:string ;
	bd:name "PCHGCAyN"^^xsd:string ;
	bd:ct ""^^xsd:string ;
	bd:ct_notes ""^^xsd:string ;
	bd:notes "A numeric representation of PCHGCATy. This can be used for ordering of values of PCHGCATy or for other purposes. There must be a one-to-one relationship within a parameter between PCHGCATy and PCHGCAyN."^^xsd:string ;
	bd:compliance <http://www.assero.co.uk/MDRAdamIg/CDISC/V2#AIG-CDISC_ADAMIG_C_PERMISSIBLE> ;
	bd:typedAs <http://www.assero.co.uk/MDRAdamIg/CDISC/V2#AIG-CDISC_ADAMIG_DT_NUMERIC> ;
.
:AIG-CDISC_ADAMIGBDS_R2BASE
	rdf:type <http://www.assero.co.uk/BusinessDomain#IgVariable> ;
	rdfs:label "Ratio to Baseline"^^xsd:string ;
	bd:ordinal "119"^^xsd:positiveInteger ;
	bd:rule ""^^xsd:string ;
	bd:name "R2BASE"^^xsd:string ;
	bd:ct ""^^xsd:string ;
	bd:ct_notes ""^^xsd:string ;
	bd:notes "Ratio to the baseline value. Equal to AVAL / BASE. If used for a given PARAM, should be populated for all post-baseline records of that PARAM regardless of whether that record is used for analysis. The decision on how to populate pre-baseline and baseline values of R2BASE is left to producer choice."^^xsd:string ;
	bd:compliance <http://www.assero.co.uk/MDRAdamIg/CDISC/V2#AIG-CDISC_ADAMIG_C_PERMISSIBLE> ;
	bd:typedAs <http://www.assero.co.uk/MDRAdamIg/CDISC/V2#AIG-CDISC_ADAMIG_DT_NUMERIC> ;
.
:AIG-CDISC_ADAMIGBDS_R2AyLO
	rdf:type <http://www.assero.co.uk/BusinessDomain#IgVariable> ;
	rdfs:label "Ratio to Analysis Range y Lower Limit"^^xsd:string ;
	bd:ordinal "120"^^xsd:positiveInteger ;
	bd:rule ""^^xsd:string ;
	bd:name "R2AyLO"^^xsd:string ;
	bd:ct ""^^xsd:string ;
	bd:ct_notes ""^^xsd:string ;
	bd:notes "Ratio to the lower limit of the analysis range y. Equal to AVAL / AyLO. AyLO must exist in the ADaM dataset. If used for a given PARAM, should be populated for all post-baseline records of that PARAM regardless of whether that record is used for analysis. The decision on how to populate pre-baseline and baseline values of R2AyLO is left to producer choice."^^xsd:string ;
	bd:compliance <http://www.assero.co.uk/MDRAdamIg/CDISC/V2#AIG-CDISC_ADAMIG_C_PERMISSIBLE> ;
	bd:typedAs <http://www.assero.co.uk/MDRAdamIg/CDISC/V2#AIG-CDISC_ADAMIG_DT_NUMERIC> ;
.
:AIG-CDISC_ADAMIGBDS_R2AyHI
	rdf:type <http://www.assero.co.uk/BusinessDomain#IgVariable> ;
	rdfs:label "Ratio to Analysis Range y Upper Limit"^^xsd:string ;
	bd:ordinal "121"^^xsd:positiveInteger ;
	bd:rule ""^^xsd:string ;
	bd:name "R2AyHI"^^xsd:string ;
	bd:ct ""^^xsd:string ;
	bd:ct_notes ""^^xsd:string ;
	bd:notes "Ratio to the upper limit of the analysis range y. Equal to AVAL / AyHI. AyHI must exist in the ADaM dataset. If used for a given PARAM, should be populated for all post-baseline records of that PARAM regardless of whether that record is used for analysis. The decision on how to populate pre-baseline and baseline values of R2AyHI is left to producer choice."^^xsd:string ;
	bd:compliance <http://www.assero.co.uk/MDRAdamIg/CDISC/V2#AIG-CDISC_ADAMIG_C_PERMISSIBLE> ;
	bd:typedAs <http://www.assero.co.uk/MDRAdamIg/CDISC/V2#AIG-CDISC_ADAMIG_DT_NUMERIC> ;
.
:AIG-CDISC_ADAMIGBDS_SHIFTy
	rdf:type <http://www.assero.co.uk/BusinessDomain#IgVariable> ;
	rdfs:label "Shift y"^^xsd:string ;
	bd:ordinal "122"^^xsd:positiveInteger ;
	bd:rule ""^^xsd:string ;
	bd:name "SHIFTy"^^xsd:string ;
	bd:ct ""^^xsd:string ;
	bd:ct_notes ""^^xsd:string ;
	bd:notes "A shift in values depending on the defined pairing for group y. SHIFTy can be based on the change in value of any of the following pairs (BASECATy, AVALCATy), (BNRIND, ANRIND), (ByIND, AyIND), (BTOXGR, ATOXGR), (BASE, AVAL) or (BASEC, AVALC). Useful for shift tables. For example, “NORMAL to HIGH”. If used for a given PARAM, should be populated (when calculable) for all post-baseline records of that PARAM regardless of whether that record is used for analysis. The decision on how to populate baseline and pre-baseline values of SHIFTy is left to producer choice."^^xsd:string ;
	bd:compliance <http://www.assero.co.uk/MDRAdamIg/CDISC/V2#AIG-CDISC_ADAMIG_C_PERMISSIBLE> ;
	bd:typedAs <http://www.assero.co.uk/MDRAdamIg/CDISC/V2#AIG-CDISC_ADAMIG_DT_CHARACTER> ;
.
:AIG-CDISC_ADAMIGBDS_SHIFTyN
	rdf:type <http://www.assero.co.uk/BusinessDomain#IgVariable> ;
	rdfs:label "Shift y (N)"^^xsd:string ;
	bd:ordinal "123"^^xsd:positiveInteger ;
	bd:rule ""^^xsd:string ;
	bd:name "SHIFTyN"^^xsd:string ;
	bd:ct ""^^xsd:string ;
	bd:ct_notes ""^^xsd:string ;
	bd:notes "Numeric version of SHIFTy. SHIFTyN maps one-to-one to SHIFTy within a parameter. If used for a given PARAM, should be populated (when calculable) for all post-baseline records of that PARAM regardless of whether that record is used for analysis. The decision on how to populate baseline and pre-baseline values of SHIFTyN is left to producer choice."^^xsd:string ;
	bd:compliance <http://www.assero.co.uk/MDRAdamIg/CDISC/V2#AIG-CDISC_ADAMIG_C_PERMISSIBLE> ;
	bd:typedAs <http://www.assero.co.uk/MDRAdamIg/CDISC/V2#AIG-CDISC_ADAMIG_DT_NUMERIC> ;
.
:AIG-CDISC_ADAMIGBDS_CRITy
	rdf:type <http://www.assero.co.uk/BusinessDomain#IgVariable> ;
	rdfs:label "Analysis Criterion y"^^xsd:string ;
	bd:ordinal "124"^^xsd:positiveInteger ;
	bd:rule ""^^xsd:string ;
	bd:name "CRITy"^^xsd:string ;
	bd:ct ""^^xsd:string ;
	bd:ct_notes ""^^xsd:string ;
	bd:notes "A text string identifying a pre-specified criterion within a parameter, for example SYSBP > 90. Required if CRITyFL exists. In some cases, the presence of the text string indicates that the criterion is satisfied on this record and CRITyFL is set to Y, while a null value indicates that the criterion is not satisfied or is not evaluable and is accompanied by a null value in CRITyFL. In other cases, the text string identifies the criterion being evaluated and is populated on every row for the parameter, but whether or not the criterion is satisfied is indicated by the value of the variable CRITyFL. See CRITyFL and CRITyFN. Refer to Section 4.7 for additional discussion of CRITy, CRITyFL and CRITyFN."^^xsd:string ;
	bd:compliance <http://www.assero.co.uk/MDRAdamIg/CDISC/V2#AIG-CDISC_ADAMIG_C_PERMISSIBLE> ;
	bd:typedAs <http://www.assero.co.uk/MDRAdamIg/CDISC/V2#AIG-CDISC_ADAMIG_DT_CHARACTER> ;
.
:AIG-CDISC_ADAMIGBDS_CRITyFL
	rdf:type <http://www.assero.co.uk/BusinessDomain#IgVariable> ;
	rdfs:label "Criterion y Evaluation Result Flag"^^xsd:string ;
	bd:ordinal "125"^^xsd:positiveInteger ;
	bd:rule ""^^xsd:string ;
	bd:name "CRITyFL"^^xsd:string ;
	bd:ct ""^^xsd:string ;
	bd:ct_notes "Y \nor\nY, N"^^xsd:string ;
	bd:notes "Character flag variable indicating whether the criterion defined in CRITy was met by the data on the record. See CRITy for more information regarding how to use CRITy and CRITyFL to indicate whether a criterion is met. Required if CRITy exists. Refer to Section 4.7 for additional discussion."^^xsd:string ;
	bd:compliance <http://www.assero.co.uk/MDRAdamIg/CDISC/V2#AIG-CDISC_ADAMIG_C_CONDITIONAL> ;
	bd:typedAs <http://www.assero.co.uk/MDRAdamIg/CDISC/V2#AIG-CDISC_ADAMIG_DT_CHARACTER> ;
.
:AIG-CDISC_ADAMIGBDS_CRITyFN
	rdf:type <http://www.assero.co.uk/BusinessDomain#IgVariable> ;
	rdfs:label "Criterion y Evaluation Result Flag (N)"^^xsd:string ;
	bd:ordinal "126"^^xsd:positiveInteger ;
	bd:rule ""^^xsd:string ;
	bd:name "CRITyFN"^^xsd:string ;
	bd:ct ""^^xsd:string ;
	bd:ct_notes "1\nor\n1, 0"^^xsd:string ;
	bd:notes "Numeric representation of CRITyFL. There is a one-to-one mapping between CRITyFL and CRITyFN. CRITyFN can be included only if CRITyFL is also included."^^xsd:string ;
	bd:compliance <http://www.assero.co.uk/MDRAdamIg/CDISC/V2#AIG-CDISC_ADAMIG_C_PERMISSIBLE> ;
	bd:typedAs <http://www.assero.co.uk/MDRAdamIg/CDISC/V2#AIG-CDISC_ADAMIG_DT_NUMERIC> ;
.
:AIG-CDISC_ADAMIGBDS_MCRITy
	rdf:type <http://www.assero.co.uk/BusinessDomain#IgVariable> ;
	rdfs:label "Analysis Multi-Response Criterion y"^^xsd:string ;
	bd:ordinal "127"^^xsd:positiveInteger ;
	bd:rule ""^^xsd:string ;
	bd:name "MCRITy"^^xsd:string ;
	bd:ct ""^^xsd:string ;
	bd:ct_notes ""^^xsd:string ;
	bd:notes "A text string identifying a pre-specified criterion within a parameter, where the criterion can have multiple responses (as opposed to CRITy which has binary responses). Required if MCRITyML exists. For example, the grade of a lab analyte is compared to the baseline grade, with the possible conditions being 0 to 1, 0 to 2, etc. The text string identifies the criterion being evaluated (for example, “Grade increase”) and is populated on every row for the parameter; which level of the criterion is satisfied is indicated by the value of the variable MCRITyML (for example “0 to 1”, “0 to 2”, etc.) See MCRITyML and MCRITyMN below, and refer to Section 4.7 for additional discussion of MCRITy, MCRITyML, and MCRITyMN."^^xsd:string ;
	bd:compliance <http://www.assero.co.uk/MDRAdamIg/CDISC/V2#AIG-CDISC_ADAMIG_C_PERMISSIBLE> ;
	bd:typedAs <http://www.assero.co.uk/MDRAdamIg/CDISC/V2#AIG-CDISC_ADAMIG_DT_CHARACTER> ;
.
:AIG-CDISC_ADAMIGBDS_MCRITyML
	rdf:type <http://www.assero.co.uk/BusinessDomain#IgVariable> ;
	rdfs:label "Multi-Response Criterion y Evaluation"^^xsd:string ;
	bd:ordinal "128"^^xsd:positiveInteger ;
	bd:rule ""^^xsd:string ;
	bd:name "MCRITyML"^^xsd:string ;
	bd:ct ""^^xsd:string ;
	bd:ct_notes ""^^xsd:string ;
	bd:notes "Character variable indicating which level of the criterion defined in MCRITy was met by the data on the record. See MCRITy for more information regarding how to use MCRITy and MCRITyML to indicate whether a criterion was met. Content is sponsor-defined. Required if MCRITy exists."^^xsd:string ;
	bd:compliance <http://www.assero.co.uk/MDRAdamIg/CDISC/V2#AIG-CDISC_ADAMIG_C_CONDITIONAL> ;
	bd:typedAs <http://www.assero.co.uk/MDRAdamIg/CDISC/V2#AIG-CDISC_ADAMIG_DT_CHARACTER> ;
.
:AIG-CDISC_ADAMIGBDS_MCRITyMN
	rdf:type <http://www.assero.co.uk/BusinessDomain#IgVariable> ;
	rdfs:label "Multi-Response Criterion y Eval (N)"^^xsd:string ;
	bd:ordinal "129"^^xsd:positiveInteger ;
	bd:rule ""^^xsd:string ;
	bd:name "MCRITyMN"^^xsd:string ;
	bd:ct ""^^xsd:string ;
	bd:ct_notes ""^^xsd:string ;
	bd:notes "Numeric representation of MCRITyML. There is a one-to-one mapping between MCRITyML and MCRITyMN. Content is sponsor-defined. MCRITyMN can be included only if MCRITyML is also included."^^xsd:string ;
