@prefix : <http://www.assero.co.uk/CSN#> .
@prefix isoC: <http://www.assero.co.uk/ISO11179Concepts#> .
@prefix owl: <http://www.w3.org/2002/07/owl#> .
@prefix rdf: <http://www.w3.org/1999/02/22-rdf-syntax-ns#> .
@prefix rdfs: <http://www.w3.org/2000/01/rdf-schema#> .
@prefix xsd: <http://www.w3.org/2001/XMLSchema#> .
@prefix skos: <http://www.w3.org/2004/02/skos/core#> .

<http://www.assero.co.uk/CSN>
	rdf:type owl:Ontology ;
.
:8a833915-4ff1-40bc-ae61-573c195c411e
	rdf:type isoC:ConceptSystemNode ;
	isoC:prefLabel "SDTM-STD"^^xsd:string ;
	isoC:description "Information relating to the internal structure of the SDTM standard."^^xsd:string ;
	isoC:narrower :6cd04775-c455-4cf6-903d-bc69610aa343 ;
.
:6cd04775-c455-4cf6-903d-bc69610aa343
	rdf:type isoC:ConceptSystemNode ;
	isoC:prefLabel "Variable"^^xsd:string ;
	isoC:description "Information relating to the variables within SDTM."^^xsd:string ;
	isoC:narrower :3e5adeba-342e-4541-aae4-3b20cd182ead ;
	isoC:narrower :88792ce9-9c94-4f77-8390-eb26e03e0814 ;
	isoC:narrower :c38390eb-ffe9-43dc-bdca-3fc5d1cfcee7 ;
.
:3e5adeba-342e-4541-aae4-3b20cd182ead
	rdf:type isoC:ConceptSystemNode ;
	isoC:prefLabel "Datatype"^^xsd:string ;
	isoC:description "SDTM variable datatypes."^^xsd:string ;
	isoC:narrower :d2f2bbeb-8f79-4fb1-b190-dd864d29f080 ;
	isoC:narrower :178f8dbe-c3ba-4dc0-8a2a-18081644b4c6 ;
.
:d2f2bbeb-8f79-4fb1-b190-dd864d29f080
	rdf:type isoC:ConceptSystemNode ;
	isoC:prefLabel "Character"^^xsd:string ;
	isoC:description "Character datatype"^^xsd:string ;
.
:178f8dbe-c3ba-4dc0-8a2a-18081644b4c6
	rdf:type isoC:ConceptSystemNode ;
	isoC:prefLabel "Numeric"^^xsd:string ;
	isoC:description "Numeric datatype"^^xsd:string ;
.
:88792ce9-9c94-4f77-8390-eb26e03e0814
	rdf:type isoC:ConceptSystemNode ;
	isoC:prefLabel "Compliance"^^xsd:string ;
	isoC:description "SDTM variable compliance."^^xsd:string ;
	isoC:narrower :52070084-cdd3-4ba8-8377-f670e4b0276c ;
	isoC:narrower :046f6c24-9eaf-4f60-8390-f36328c82ec4 ;
	isoC:narrower :f7d9d4e1-a00a-487e-89db-ebece910ba0d ;
.
:52070084-cdd3-4ba8-8377-f670e4b0276c
	rdf:type isoC:ConceptSystemNode ;
	isoC:prefLabel "Required"^^xsd:string ;
	isoC:description "Any variable that is basic to the identification of a data record (i.e., essential key variables and a topic variable) or is necessary to make the record meaningful. Required variables must always be included in the dataset and cannot be null for any record"^^xsd:string ;
.
:046f6c24-9eaf-4f60-8390-f36328c82ec4
	rdf:type isoC:ConceptSystemNode ;
	isoC:prefLabel "Expected"^^xsd:string ;
	isoC:description "Any variable necessary to make a record useful in the context of a specific domain. Expected variables may contain some null values, but in most cases will not contain null values for every record. When no data has been collected for an expected variable, however, a null column must still be included in the dataset, and a comment must be included in the define.xml to state that data was not collected."^^xsd:string ;
.
:f7d9d4e1-a00a-487e-89db-ebece910ba0d
	rdf:type isoC:ConceptSystemNode ;
	isoC:prefLabel "Permissible"^^xsd:string ;
	isoC:description "A variable that should be used in a domain as appropriate when collected or derived. Except where restricted by specific domain assumptions, any SDTM Timing and Identifier variables, and any Qualifier variables from the same general observation class are permissible for use in a domain based on that general observation class. The Sponsor can decide whether a Permissible variable should be included as a column when all values for that variable "^^xsd:string ;
.
:c38390eb-ffe9-43dc-bdca-3fc5d1cfcee7
	rdf:type isoC:ConceptSystemNode ;
	isoC:prefLabel "Classification"^^xsd:string ;
	isoC:description "SDTM variable classifcation."^^xsd:string ;
	isoC:narrower :86cd61e6-d48c-4e42-b994-bee35e2351fe ;
	isoC:narrower :d46bb337-92cd-4250-b50c-9be5079d6ab3 ;
	isoC:narrower :692cafbf-658a-43f0-97a2-f040ecb1a20d ;
	isoC:narrower :2c3ff386-a062-47f5-b594-eef7ead02243 ;
	isoC:narrower :2d0796a2-6891-4d41-91be-41feab4f961a ;
	isoC:narrower :f14b71ab-a38e-41a4-9438-f4eb95f0340c ;
.
:86cd61e6-d48c-4e42-b994-bee35e2351fe
	rdf:type isoC:ConceptSystemNode ;
	isoC:prefLabel "None"^^xsd:string ;
	isoC:description "No role assigned"^^xsd:string ;
.
:d46bb337-92cd-4250-b50c-9be5079d6ab3
	rdf:type isoC:ConceptSystemNode ;
	isoC:prefLabel "Identifier"^^xsd:string ;
	isoC:description "Variables, such as those that identify the study, the subject (individual human or animal or group of individuals) involved in the study, the domain, and the sequence number of the record."^^xsd:string ;
.
:692cafbf-658a-43f0-97a2-f040ecb1a20d
	rdf:type isoC:ConceptSystemNode ;
	isoC:prefLabel "Topic"^^xsd:string ;
	isoC:description "Variables which specify the focus of the observation (such as the name of a lab test)."^^xsd:string ;
.
:2c3ff386-a062-47f5-b594-eef7ead02243
	rdf:type isoC:ConceptSystemNode ;
	isoC:prefLabel "Timing"^^xsd:string ;
	isoC:description "Variables which describe the timing of an observation (such as start date and end date)."^^xsd:string ;
.
:2d0796a2-6891-4d41-91be-41feab4f961a
	rdf:type isoC:ConceptSystemNode ;
	isoC:prefLabel "Qualifier"^^xsd:string ;
	isoC:description "Variables which include additional illustrative text, or numeric values that describe the results or additional traits of the observation (such as units or descriptive adjectives)."^^xsd:string ;
	isoC:narrower :9fb29f8b-505a-4c4f-b550-175fbfec932d ;
	isoC:narrower :4e516e50-4563-4412-aa8d-6e7740d99444 ;
	isoC:narrower :818a9757-1ee5-4bd3-a179-e662e26b5b47 ;
	isoC:narrower :4bb7578c-6705-4d2e-93d6-b56960d9e21e ;
	isoC:narrower :bf2ac4b3-6323-44e4-8796-447e81f2fd83 ;
.
:9fb29f8b-505a-4c4f-b550-175fbfec932d
	rdf:type isoC:ConceptSystemNode ;
	isoC:prefLabel "Grouping"^^xsd:string ;
	isoC:description "Qualifiers used to group together a collection of observations within the same domain. Examples include --CAT and --SCAT."^^xsd:string ;
.
:4e516e50-4563-4412-aa8d-6e7740d99444
	rdf:type isoC:ConceptSystemNode ;
	isoC:prefLabel "Result"^^xsd:string ;
	isoC:description "Qualifiers used to describe the specific results associated with the topic variable in a Findings dataset. They answer the question raised by the topic variable. Result Qualifiers are --ORRES, --STRESC, and --STRESN."^^xsd:string ;
.
:818a9757-1ee5-4bd3-a179-e662e26b5b47
	rdf:type isoC:ConceptSystemNode ;
	isoC:prefLabel "Synonym"^^xsd:string ;
	isoC:description "Qualifiers used to specify an alternative name for a particular variable in an observation. Examples include --MODIFY and --DECOD, which are equivalent terms for a --TRT or --TERM Topic variable, and --TEST for --TESTCD."^^xsd:string ;
.
:4bb7578c-6705-4d2e-93d6-b56960d9e21e
	rdf:type isoC:ConceptSystemNode ;
	isoC:prefLabel "Record"^^xsd:string ;
	isoC:description "Qualifiers used to define additional attributes of the observation record as a whole (rather than describing a particular variable within a record). Examples include --REASND, AESLIFE, and all other SAE flag variables in the AE domain; AGE, SEX, and RACE in the DM domain; and --BLFL, --POS, --LOC, --SPEC, and --NAM in a Findings domain."^^xsd:string ;
.
:bf2ac4b3-6323-44e4-8796-447e81f2fd83
	rdf:type isoC:ConceptSystemNode ;
	isoC:prefLabel "Variable"^^xsd:string ;
	isoC:description "Qualifiers used to further modify or describe a specific variable within an observation and are only meaningful in the context of the variable they qualify. Examples include --ORRESU, --ORNRHI, and --ORNRLO, all of which are Variable Qualifiers of --ORRES; and --DOSU, which is a Variable Qualifier of --DOSE."^^xsd:string ;
.
:f14b71ab-a38e-41a4-9438-f4eb95f0340c
	rdf:type isoC:ConceptSystemNode ;
	isoC:prefLabel "Rule"^^xsd:string ;
	isoC:description "Variables which express an algorithm or executable method to define start, end, or looping conditions in the Trial Design model."^^xsd:string ;
.
:22f1319e-37a9-49ce-9fea-47b1471283a5
	isoC:narrower :8a833915-4ff1-40bc-ae61-573c195c411e ;
.