# baseURI: http://www.assero.co.uk/MDRBCTs/V1
# imports: http://www.assero.co.uk/ISO21090

@prefix : <http://www.assero.co.uk/MDRBCTs/V1#> .
@prefix cbc: <http://www.assero.co.uk/CDISCBiomedicalConcept#> .
@prefix isoI: <http://www.assero.co.uk/ISO11179Identification#> .
@prefix isoR: <http://www.assero.co.uk/ISO11179Registration#> .
@prefix isoT: <http://www.assero.co.uk/ISO11179Types#> .
@prefix mdrBridg: <http://www.assero.co.uk/MDRBRIDG#> .
@prefix mdrItems: <http://www.assero.co.uk/MDRItems#> .
@prefix mdrIso21090: <http://www.assero.co.uk/MDRISO21090#> .
@prefix owl: <http://www.w3.org/2002/07/owl#> .
@prefix rdf: <http://www.w3.org/1999/02/22-rdf-syntax-ns#> .
@prefix rdfs: <http://www.w3.org/2000/01/rdf-schema#> .
@prefix xsd: <http://www.w3.org/2001/XMLSchema#> .

<http://www.assero.co.uk/MDRBCTs/V1>
	rdf:type owl:Ontology ;
	owl:imports <http://www.assero.co.uk/CDISCBiomedicalConcept> ;
.
:BCT-Obs_PQR
	rdf:type cbc:BiomedicalConceptTemplate ;
	cbc:hasItem :BCT-Obs_PQR_nameCode ;
	cbc:hasItem :BCT-Obs_PQR_targetAnatomicSiteCode ;
	cbc:hasItem :BCT-Obs_PQR_methodCode ;
	cbc:hasItem :BCT-Obs_PQR_bodyPositionCode ;
	cbc:hasItem :BCT-Obs_PQR_targetAnatomicSiteLateralityCode ;
	cbc:hasItem :BCT-Obs_PQR_dateRange ;
	cbc:hasItem :BCT-Obs_PQR_negationReason ;
	cbc:hasItem :BCT-Obs_PQR_value ;
	cbc:hasItem :BCT-Obs_PQR_baselineIndicator ;
	rdfs:label "Simple Observation PQR Biomedical Research Concept Template"^^xsd:string ;
	isoI:hasIdentifier mdrItems:SI-Obs_PQR-1 ;
	isoR:hasState mdrItems:RS-Obs_PQR-1 ;
	isoT:origin ""^^xsd:string ;
	isoT:changeDescription ""^^xsd:string ;
	isoT:creationDate "2016-01-01"^^xsd:date ;
	isoT:lastChangeDate "2016-01-01"^^xsd:date ;
	isoT:explanatoryComment ""^^xsd:string ;
.
mdrItems:SI-Obs_PQR-1
	rdf:type isoI:ScopedIdentifier ;
	isoI:identifier "Obs PQR"^^xsd:string ;
	isoI:versionLabel "0.1"^^xsd:string ;
	isoI:version "1"^^xsd:positiveInteger ;
	isoI:semantic_version "1.0.0"^^xsd:string ;
	isoI:hasScope mdrItems:NS-CDISC ;
.
mdrItems:RS-Obs_PQR-1
	rdf:type isoR:RegistrationState ;
	isoR:registrationStatus "Standard"^^xsd:string ;
	isoR:administrativeNote ""^^xsd:string ;
	isoR:effectiveDate "2016-01-01T00:00:00Z"^^xsd:dateTime ;
	isoR:untilDate "2016-01-01T00:00:00Z"^^xsd:dateTime ;
	isoR:unresolvedIssue ""^^xsd:string ;
	isoR:administrativeStatus ""^^xsd:string ;
	isoR:previousState "Qualified"^^xsd:string ;
	isoR:byAuthority mdrItems:RA-084433759 ;
.
:BCT-Obs_PQR_nameCode
	rdf:type cbc:Item ;
	cbc:isItemOf :BCT-Obs_PQR ;
	cbc:ordinal "1"^^xsd:positiveInteger ;
	cbc:bridg_class "DefinedObservation"^^xsd:string ;
	cbc:bridg_attribute "DefinedObservation_nameCode"^^xsd:string ;
	cbc:alias "Test"^^xsd:string ;
	cbc:hasDatatype :BCT-Obs_PQR_DefinedObservation_nameCode_CD ;
.
:BCT-Obs_PQR_DefinedObservation_nameCode_CD
	rdf:type cbc:Datatype ;
	cbc:iso21090_datatype "CD"^^xsd:string ;
	cbc:hasProperty :BCT-Obs_PQR_DefinedObservation_nameCode_CD_code ;
	cbc:hasProperty :BCT-Obs_PQR_DefinedObservation_nameCode_CD_originalText ;
.
:BCT-Obs_PQR_DefinedObservation_nameCode_CD_code
	rdf:type cbc:Property ;
	cbc:alias "Test Code (--TESTCD)"^^xsd:string ;
	cbc:ordinal "1"^^xsd:positiveInteger ;
	cbc:bridg_path "DefinedObservation.nameCode.CD.code"^^xsd:string ;
	cbc:simple_datatype "string"^^xsd:string ;
.
:BCT-Obs_PQR_DefinedObservation_nameCode_CD_originalText
	rdf:type cbc:Property ;
	cbc:alias "Name"^^xsd:string ;
	cbc:hasComplexDatatype :BCT-Obs_PQR_DefinedObservation_nameCode_CD_originalText_ED ;
.
:BCT-Obs_PQR_DefinedObservation_nameCode_CD_originalText_ED
	rdf:type cbc:Datatype ;
	cbc:iso21090_datatype "ED"^^xsd:string ;
	cbc:hasProperty :BCT-Obs_PQR_DefinedObservation_nameCode_CD_originalText_ED_value ;
.
:BCT-Obs_PQR_DefinedObservation_nameCode_CD_originalText_ED_value
	rdf:type cbc:Property ;
	cbc:alias "Test Name (--TEST)"^^xsd:string ;
	cbc:ordinal "1"^^xsd:positiveInteger ;
	cbc:bridg_path "DefinedObservation.nameCode.CD.originalText.ED.value"^^xsd:string ;
	cbc:simple_datatype "string"^^xsd:string ;
.
:BCT-Obs_PQR_targetAnatomicSiteCode
	rdf:type cbc:Item ;
	cbc:isItemOf :BCT-Obs_PQR ;
	cbc:ordinal "2"^^xsd:positiveInteger ;
	cbc:bridg_class "DefinedObservation"^^xsd:string ;
	cbc:bridg_attribute "DefinedObservation_targetAnatomicSiteCode"^^xsd:string ;
	cbc:alias "SiteOfAdministration"^^xsd:string ;
	cbc:hasDatatype :BCT-Obs_PQR_DefinedObservation_targetAnatomicSiteCode_CD ;
.
:BCT-Obs_PQR_DefinedObservation_targetAnatomicSiteCode_CD
	rdf:type cbc:Datatype ;
	cbc:iso21090_datatype "CD"^^xsd:string ;
	cbc:hasProperty :BCT-Obs_PQR_DefinedObservation_targetAnatomicSiteCode_CD_code ;
.
:BCT-Obs_PQR_DefinedObservation_targetAnatomicSiteCode_CD_code
	rdf:type cbc:Property ;
	cbc:alias "Site Of Administration (--LOC)"^^xsd:string ;
	cbc:ordinal "1"^^xsd:positiveInteger ;
	cbc:bridg_path "DefinedObservation.targetAnatomicSiteCode.CD.code"^^xsd:string ;
	cbc:simple_datatype "string"^^xsd:string ;
.
:BCT-Obs_PQR_methodCode
	rdf:type cbc:Item ;
	cbc:isItemOf :BCT-Obs_PQR ;
	cbc:ordinal "3"^^xsd:positiveInteger ;
	cbc:bridg_class "DefinedObservation"^^xsd:string ;
	cbc:bridg_attribute "DefinedObservation_methodCode"^^xsd:string ;
	cbc:alias "Method"^^xsd:string ;
	cbc:hasDatatype :BCT-Obs_PQR_DefinedObservation_methodCode_CD ;
.
:BCT-Obs_PQR_DefinedObservation_methodCode_CD
	rdf:type cbc:Datatype ;
	cbc:iso21090_datatype "CD"^^xsd:string ;
	cbc:hasProperty :BCT-Obs_PQR_DefinedObservation_methodCode_CD_code ;
.
:BCT-Obs_PQR_DefinedObservation_methodCode_CD_code
	rdf:type cbc:Property ;
	cbc:alias "Method (--METHOD)"^^xsd:string ;
	cbc:ordinal "1"^^xsd:positiveInteger ;
	cbc:bridg_path "DefinedObservation.methodCode.CD.code"^^xsd:string ;
	cbc:simple_datatype "string"^^xsd:string ;
.
:BCT-Obs_PQR_bodyPositionCode
	rdf:type cbc:Item ;
	cbc:isItemOf :BCT-Obs_PQR ;
	cbc:ordinal "4"^^xsd:positiveInteger ;
	cbc:bridg_class "PerformedObservation"^^xsd:string ;
	cbc:bridg_attribute "PerformedObservation_bodyPositionCode"^^xsd:string ;
	cbc:alias "Position"^^xsd:string ;
	cbc:hasDatatype :BCT-Obs_PQR_PerformedObservation_bodyPositionCode_CD ;
.
:BCT-Obs_PQR_PerformedObservation_bodyPositionCode_CD
	rdf:type cbc:Datatype ;
	cbc:iso21090_datatype "CD"^^xsd:string ;
	cbc:hasProperty :BCT-Obs_PQR_PerformedObservation_bodyPositionCode_CD_code ;
.
:BCT-Obs_PQR_PerformedObservation_bodyPositionCode_CD_code
	rdf:type cbc:Property ;
	cbc:alias "Body Position (--POS)"^^xsd:string ;
	cbc:ordinal "1"^^xsd:positiveInteger ;
	cbc:bridg_path "PerformedObservation.bodyPositionCode.CD.code"^^xsd:string ;
	cbc:simple_datatype "string"^^xsd:string ;
.
:BCT-Obs_PQR_targetAnatomicSiteLateralityCode
	rdf:type cbc:Item ;
	cbc:isItemOf :BCT-Obs_PQR ;
	cbc:ordinal "5"^^xsd:positiveInteger ;
	cbc:bridg_class "PerformedObservation"^^xsd:string ;
	cbc:bridg_attribute "PerformedObservation_targetAnatomicSiteLateralityCode"^^xsd:string ;
	cbc:alias "Laterality"^^xsd:string ;
	cbc:hasDatatype :BCT-Obs_PQR_PerformedObservation_targetAnatomicSiteLateralityCode_CD ;
.
:BCT-Obs_PQR_PerformedObservation_targetAnatomicSiteLateralityCode_CD
	rdf:type cbc:Datatype ;
	cbc:iso21090_datatype "CD"^^xsd:string ;
	cbc:hasProperty :BCT-Obs_PQR_PerformedObservation_targetAnatomicSiteLateralityCode_CD_code ;
.
:BCT-Obs_PQR_PerformedObservation_targetAnatomicSiteLateralityCode_CD_code
	rdf:type cbc:Property ;
	cbc:alias "Laterality (--LAT)"^^xsd:string ;
	cbc:ordinal "1"^^xsd:positiveInteger ;
	cbc:bridg_path "PerformedObservation.targetAnatomicSiteLateralityCode.CD.code"^^xsd:string ;
	cbc:simple_datatype "string"^^xsd:string ;
.
:BCT-Obs_PQR_dateRange
	rdf:type cbc:Item ;
	cbc:isItemOf :BCT-Obs_PQR ;
	cbc:ordinal "6"^^xsd:positiveInteger ;
	cbc:bridg_class "PerformedObservation"^^xsd:string ;
	cbc:bridg_attribute "PerformedObservation_dateRange"^^xsd:string ;
	cbc:alias "DateTime"^^xsd:string ;
	cbc:hasDatatype :BCT-Obs_PQR_PerformedObservation_dateRange_IVL_TS_DATETIME ;
.
:BCT-Obs_PQR_PerformedObservation_dateRange_IVL_TS_DATETIME
	rdf:type cbc:Datatype ;
	cbc:iso21090_datatype "IVL_TS_DATETIME"^^xsd:string ;
	cbc:hasProperty :BCT-Obs_PQR_PerformedObservation_dateRange_IVL_TS_DATETIME_low ;
.
:BCT-Obs_PQR_PerformedObservation_dateRange_IVL_TS_DATETIME_low
	rdf:type cbc:Property ;
	cbc:alias "Date"^^xsd:string ;
	cbc:hasComplexDatatype :BCT-Obs_PQR_PerformedObservation_dateRange_IVL_TS_DATETIME_low_TS_DATETIME ;
.
:BCT-Obs_PQR_PerformedObservation_dateRange_IVL_TS_DATETIME_low_TS_DATETIME
	rdf:type cbc:Datatype ;
	cbc:iso21090_datatype "TS_DATETIME"^^xsd:string ;
	cbc:hasProperty :BCT-Obs_PQR_PerformedObservation_dateRange_IVL_TS_DATETIME_low_TS_DATETIME_value ;
.
:BCT-Obs_PQR_PerformedObservation_dateRange_IVL_TS_DATETIME_low_TS_DATETIME_value
	rdf:type cbc:Property ;
	cbc:alias "Date Time (--DTC)"^^xsd:string ;
	cbc:ordinal "1"^^xsd:positiveInteger ;
	cbc:bridg_path "PerformedObservation.dateRange.IVL_TS_DATETIME.low.TS_DATETIME.value"^^xsd:string ;
	cbc:simple_datatype "dateTime"^^xsd:string ;
.
:BCT-Obs_PQR_negationReason
	rdf:type cbc:Item ;
	cbc:isItemOf :BCT-Obs_PQR ;
	cbc:ordinal "7"^^xsd:positiveInteger ;
	cbc:bridg_class "PerformedObservation"^^xsd:string ;
	cbc:bridg_attribute "PerformedObservation_negationReason"^^xsd:string ;
	cbc:alias "ReasonNotDone"^^xsd:string ;
	cbc:hasDatatype :BCT-Obs_PQR_PerformedObservation_negationReason_SC ;
.
:BCT-Obs_PQR_PerformedObservation_negationReason_SC
	rdf:type cbc:Datatype ;
	cbc:iso21090_datatype "SC"^^xsd:string ;
	cbc:hasProperty :BCT-Obs_PQR_PerformedObservation_negationReason_SC_code ;
.
:BCT-Obs_PQR_PerformedObservation_negationReason_SC_code
	rdf:type cbc:Property ;
	cbc:alias "Code"^^xsd:string ;
	cbc:hasComplexDatatype :BCT-Obs_PQR_PerformedObservation_negationReason_SC_code_CD ;
.
:BCT-Obs_PQR_PerformedObservation_negationReason_SC_code_CD
	rdf:type cbc:Datatype ;
	cbc:iso21090_datatype "CD"^^xsd:string ;
	cbc:hasProperty :BCT-Obs_PQR_PerformedObservation_negationReason_SC_code_CD_code ;
.
:BCT-Obs_PQR_PerformedObservation_negationReason_SC_code_CD_code
	rdf:type cbc:Property ;
	cbc:alias "Reason Not Done (--REASND)"^^xsd:string ;
	cbc:ordinal "1"^^xsd:positiveInteger ;
	cbc:bridg_path "PerformedObservation.negationReason.SC.code.CD.code"^^xsd:string ;
	cbc:simple_datatype "string"^^xsd:string ;
.
:BCT-Obs_PQR_value
	rdf:type cbc:Item ;
	cbc:isItemOf :BCT-Obs_PQR ;
	cbc:ordinal "8"^^xsd:positiveInteger ;
	cbc:bridg_class "PerformedClinicalResult"^^xsd:string ;
	cbc:bridg_attribute "PerformedClinicalResult_value"^^xsd:string ;
	cbc:alias "Result"^^xsd:string ;
	cbc:hasDatatype :BCT-Obs_PQR_PerformedClinicalResult_value_PQR ;
.
:BCT-Obs_PQR_PerformedClinicalResult_value_PQR
	rdf:type cbc:Datatype ;
	cbc:iso21090_datatype "PQR"^^xsd:string ;
	cbc:hasProperty :BCT-Obs_PQR_PerformedClinicalResult_value_PQR_value ;
	cbc:hasProperty :BCT-Obs_PQR_PerformedClinicalResult_value_PQR_code ;
.
:BCT-Obs_PQR_PerformedClinicalResult_value_PQR_value
	rdf:type cbc:Property ;
	cbc:alias "Result Value (--ORRES)"^^xsd:string ;
	cbc:ordinal "1"^^xsd:positiveInteger ;
	cbc:bridg_path "PerformedClinicalResult.value.PQR.value"^^xsd:string ;
	cbc:simple_datatype "float"^^xsd:string ;
.
:BCT-Obs_PQR_PerformedClinicalResult_value_PQR_code
	rdf:type cbc:Property ;
	cbc:alias "Result Units (--ORRESU)"^^xsd:string ;
	cbc:ordinal "2"^^xsd:positiveInteger ;
	cbc:bridg_path "PerformedClinicalResult.value.PQR.code"^^xsd:string ;
	cbc:simple_datatype "string"^^xsd:string ;
.
:BCT-Obs_PQR_baselineIndicator
	rdf:type cbc:Item ;
	cbc:isItemOf :BCT-Obs_PQR ;
	cbc:ordinal "9"^^xsd:positiveInteger ;
	cbc:bridg_class "PerformedClinicalResult"^^xsd:string ;
	cbc:bridg_attribute "PerformedClinicalResult_baselineIndicator"^^xsd:string ;
	cbc:alias "Baseline"^^xsd:string ;
	cbc:hasDatatype :BCT-Obs_PQR_PerformedClinicalResult_baselineIndicator_BL ;
.
:BCT-Obs_PQR_PerformedClinicalResult_baselineIndicator_BL
	rdf:type cbc:Datatype ;
	cbc:iso21090_datatype "BL"^^xsd:string ;
	cbc:hasProperty :BCT-Obs_PQR_PerformedClinicalResult_baselineIndicator_BL_value ;
.
:BCT-Obs_PQR_PerformedClinicalResult_baselineIndicator_BL_value
	rdf:type cbc:Property ;
	cbc:alias "Baseline (--BLFL)"^^xsd:string ;
	cbc:ordinal "1"^^xsd:positiveInteger ;
	cbc:bridg_path "PerformedClinicalResult.baselineIndicator.BL.value"^^xsd:string ;
	cbc:simple_datatype "boolean"^^xsd:string ;
.
:BCT-Obs_CD
	rdf:type cbc:BiomedicalConceptTemplate ;
	cbc:hasItem :BCT-Obs_CD_nameCode ;
	cbc:hasItem :BCT-Obs_CD_targetAnatomicSiteCode ;
	cbc:hasItem :BCT-Obs_CD_methodCode ;
	cbc:hasItem :BCT-Obs_CD_bodyPositionCode ;
	cbc:hasItem :BCT-Obs_CD_targetAnatomicSiteLateralityCode ;
	cbc:hasItem :BCT-Obs_CD_dateRange ;
	cbc:hasItem :BCT-Obs_CD_negationReason ;
	cbc:hasItem :BCT-Obs_CD_value ;
	cbc:hasItem :BCT-Obs_CD_baselineIndicator ;
	rdfs:label "Simple Observation CD Biomedical Research Concept Template"^^xsd:string ;
	isoI:hasIdentifier mdrItems:SI-Obs_CD-1 ;
	isoR:hasState mdrItems:RS-Obs_CD-1 ;
	isoT:origin ""^^xsd:string ;
	isoT:changeDescription ""^^xsd:string ;
	isoT:creationDate "2016-01-01"^^xsd:date ;
	isoT:lastChangeDate "2016-01-01"^^xsd:date ;
	isoT:explanatoryComment ""^^xsd:string ;
.
mdrItems:SI-Obs_CD-1
	rdf:type isoI:ScopedIdentifier ;
	isoI:identifier "Obs CD"^^xsd:string ;
	isoI:versionLabel "0.1"^^xsd:string ;
	isoI:version "1"^^xsd:positiveInteger ;
	isoI:semantic_version "1.0.0"^^xsd:string ;
	isoI:hasScope mdrItems:NS-CDISC ;
.
mdrItems:RS-Obs_CD-1
	rdf:type isoR:RegistrationState ;
	isoR:registrationStatus "Standard"^^xsd:string ;
	isoR:administrativeNote ""^^xsd:string ;
	isoR:effectiveDate "2016-01-01T00:00:00Z"^^xsd:dateTime ;
	isoR:untilDate "2016-01-01T00:00:00Z"^^xsd:dateTime ;
	isoR:unresolvedIssue ""^^xsd:string ;
	isoR:administrativeStatus ""^^xsd:string ;
	isoR:previousState "Qualified"^^xsd:string ;
	isoR:byAuthority mdrItems:RA-084433759 ;
.
:BCT-Obs_CD_nameCode
	rdf:type cbc:Item ;
	cbc:isItemOf :BCT-Obs_CD ;
	cbc:ordinal "1"^^xsd:positiveInteger ;
	cbc:bridg_class "DefinedObservation"^^xsd:string ;
	cbc:bridg_attribute "DefinedObservation_nameCode"^^xsd:string ;
	cbc:alias "Test"^^xsd:string ;
	cbc:hasDatatype :BCT-Obs_CD_DefinedObservation_nameCode_CD ;
.
:BCT-Obs_CD_DefinedObservation_nameCode_CD
	rdf:type cbc:Datatype ;
	cbc:iso21090_datatype "CD"^^xsd:string ;
	cbc:hasProperty :BCT-Obs_CD_DefinedObservation_nameCode_CD_code ;
	cbc:hasProperty :BCT-Obs_CD_DefinedObservation_nameCode_CD_originalText ;
.
:BCT-Obs_CD_DefinedObservation_nameCode_CD_code
	rdf:type cbc:Property ;
	cbc:alias "Test Code (--TESTCD)"^^xsd:string ;
	cbc:ordinal "1"^^xsd:positiveInteger ;
	cbc:bridg_path "DefinedObservation.nameCode.CD.code"^^xsd:string ;
	cbc:simple_datatype "string"^^xsd:string ;
.
:BCT-Obs_CD_DefinedObservation_nameCode_CD_originalText
	rdf:type cbc:Property ;
	cbc:alias "Name"^^xsd:string ;
	cbc:hasComplexDatatype :BCT-Obs_CD_DefinedObservation_nameCode_CD_originalText_ED ;
.
:BCT-Obs_CD_DefinedObservation_nameCode_CD_originalText_ED
	rdf:type cbc:Datatype ;
	cbc:iso21090_datatype "ED"^^xsd:string ;
	cbc:hasProperty :BCT-Obs_CD_DefinedObservation_nameCode_CD_originalText_ED_value ;
.
:BCT-Obs_CD_DefinedObservation_nameCode_CD_originalText_ED_value
	rdf:type cbc:Property ;
	cbc:alias "Test Name (--TEST)"^^xsd:string ;
	cbc:ordinal "1"^^xsd:positiveInteger ;
	cbc:bridg_path "DefinedObservation.nameCode.CD.originalText.ED.value"^^xsd:string ;
	cbc:simple_datatype "string"^^xsd:string ;
.
:BCT-Obs_CD_targetAnatomicSiteCode
	rdf:type cbc:Item ;
	cbc:isItemOf :BCT-Obs_CD ;
	cbc:ordinal "2"^^xsd:positiveInteger ;
	cbc:bridg_class "DefinedObservation"^^xsd:string ;
	cbc:bridg_attribute "DefinedObservation_targetAnatomicSiteCode"^^xsd:string ;
	cbc:alias "SiteOfAdministration"^^xsd:string ;
	cbc:hasDatatype :BCT-Obs_CD_DefinedObservation_targetAnatomicSiteCode_CD ;
.
:BCT-Obs_CD_DefinedObservation_targetAnatomicSiteCode_CD
	rdf:type cbc:Datatype ;
	cbc:iso21090_datatype "CD"^^xsd:string ;
	cbc:hasProperty :BCT-Obs_CD_DefinedObservation_targetAnatomicSiteCode_CD_code ;
.
:BCT-Obs_CD_DefinedObservation_targetAnatomicSiteCode_CD_code
	rdf:type cbc:Property ;
	cbc:alias "Site Of Administration (--LOC)"^^xsd:string ;
	cbc:ordinal "1"^^xsd:positiveInteger ;
	cbc:bridg_path "DefinedObservation.targetAnatomicSiteCode.CD.code"^^xsd:string ;
	cbc:simple_datatype "string"^^xsd:string ;
.
:BCT-Obs_CD_methodCode
	rdf:type cbc:Item ;
	cbc:isItemOf :BCT-Obs_CD ;
	cbc:ordinal "3"^^xsd:positiveInteger ;
	cbc:bridg_class "DefinedObservation"^^xsd:string ;
	cbc:bridg_attribute "DefinedObservation_methodCode"^^xsd:string ;
	cbc:alias "Method"^^xsd:string ;
	cbc:hasDatatype :BCT-Obs_CD_DefinedObservation_methodCode_CD ;
.
:BCT-Obs_CD_DefinedObservation_methodCode_CD
	rdf:type cbc:Datatype ;
	cbc:iso21090_datatype "CD"^^xsd:string ;
	cbc:hasProperty :BCT-Obs_CD_DefinedObservation_methodCode_CD_code ;
.
:BCT-Obs_CD_DefinedObservation_methodCode_CD_code
	rdf:type cbc:Property ;
	cbc:alias "Method (--METHOD)"^^xsd:string ;
	cbc:ordinal "1"^^xsd:positiveInteger ;
	cbc:bridg_path "DefinedObservation.methodCode.CD.code"^^xsd:string ;
	cbc:simple_datatype "string"^^xsd:string ;
.
:BCT-Obs_CD_bodyPositionCode
	rdf:type cbc:Item ;
	cbc:isItemOf :BCT-Obs_CD ;
	cbc:ordinal "4"^^xsd:positiveInteger ;
	cbc:bridg_class "PerformedObservation"^^xsd:string ;
	cbc:bridg_attribute "PerformedObservation_bodyPositionCode"^^xsd:string ;
	cbc:alias "Position"^^xsd:string ;
	cbc:hasDatatype :BCT-Obs_CD_PerformedObservation_bodyPositionCode_CD ;
.
:BCT-Obs_CD_PerformedObservation_bodyPositionCode_CD
	rdf:type cbc:Datatype ;
	cbc:iso21090_datatype "CD"^^xsd:string ;
	cbc:hasProperty :BCT-Obs_CD_PerformedObservation_bodyPositionCode_CD_code ;
.
:BCT-Obs_CD_PerformedObservation_bodyPositionCode_CD_code
	rdf:type cbc:Property ;
	cbc:alias "Body Position (--POS)"^^xsd:string ;
	cbc:ordinal "1"^^xsd:positiveInteger ;
	cbc:bridg_path "PerformedObservation.bodyPositionCode.CD.code"^^xsd:string ;
	cbc:simple_datatype "string"^^xsd:string ;
.
:BCT-Obs_CD_targetAnatomicSiteLateralityCode
	rdf:type cbc:Item ;
	cbc:isItemOf :BCT-Obs_CD ;
	cbc:ordinal "5"^^xsd:positiveInteger ;
	cbc:bridg_class "PerformedObservation"^^xsd:string ;
	cbc:bridg_attribute "PerformedObservation_targetAnatomicSiteLateralityCode"^^xsd:string ;
	cbc:alias "Laterality"^^xsd:string ;
	cbc:hasDatatype :BCT-Obs_CD_PerformedObservation_targetAnatomicSiteLateralityCode_CD ;
.
:BCT-Obs_CD_PerformedObservation_targetAnatomicSiteLateralityCode_CD
	rdf:type cbc:Datatype ;
	cbc:iso21090_datatype "CD"^^xsd:string ;
	cbc:hasProperty :BCT-Obs_CD_PerformedObservation_targetAnatomicSiteLateralityCode_CD_code ;
.
:BCT-Obs_CD_PerformedObservation_targetAnatomicSiteLateralityCode_CD_code
	rdf:type cbc:Property ;
	cbc:alias "Laterality (--LAT)"^^xsd:string ;
	cbc:ordinal "1"^^xsd:positiveInteger ;
	cbc:bridg_path "PerformedObservation.targetAnatomicSiteLateralityCode.CD.code"^^xsd:string ;
	cbc:simple_datatype "string"^^xsd:string ;
.
:BCT-Obs_CD_dateRange
	rdf:type cbc:Item ;
	cbc:isItemOf :BCT-Obs_CD ;
	cbc:ordinal "6"^^xsd:positiveInteger ;
	cbc:bridg_class "PerformedObservation"^^xsd:string ;
	cbc:bridg_attribute "PerformedObservation_dateRange"^^xsd:string ;
	cbc:alias "DateTime"^^xsd:string ;
	cbc:hasDatatype :BCT-Obs_CD_PerformedObservation_dateRange_IVL_TS_DATETIME ;
.
:BCT-Obs_CD_PerformedObservation_dateRange_IVL_TS_DATETIME
	rdf:type cbc:Datatype ;
	cbc:iso21090_datatype "IVL_TS_DATETIME"^^xsd:string ;
	cbc:hasProperty :BCT-Obs_CD_PerformedObservation_dateRange_IVL_TS_DATETIME_low ;
.
:BCT-Obs_CD_PerformedObservation_dateRange_IVL_TS_DATETIME_low
	rdf:type cbc:Property ;
	cbc:alias "Date"^^xsd:string ;
	cbc:hasComplexDatatype :BCT-Obs_CD_PerformedObservation_dateRange_IVL_TS_DATETIME_low_TS_DATETIME ;
.
:BCT-Obs_CD_PerformedObservation_dateRange_IVL_TS_DATETIME_low_TS_DATETIME
	rdf:type cbc:Datatype ;
	cbc:iso21090_datatype "TS_DATETIME"^^xsd:string ;
	cbc:hasProperty :BCT-Obs_CD_PerformedObservation_dateRange_IVL_TS_DATETIME_low_TS_DATETIME_value ;
.
:BCT-Obs_CD_PerformedObservation_dateRange_IVL_TS_DATETIME_low_TS_DATETIME_value
	rdf:type cbc:Property ;
	cbc:alias "Date Time (--DTC)"^^xsd:string ;
	cbc:ordinal "1"^^xsd:positiveInteger ;
	cbc:bridg_path "PerformedObservation.dateRange.IVL_TS_DATETIME.low.TS_DATETIME.value"^^xsd:string ;
	cbc:simple_datatype "dateTime"^^xsd:string ;
.
:BCT-Obs_CD_negationReason
	rdf:type cbc:Item ;
	cbc:isItemOf :BCT-Obs_CD ;
	cbc:ordinal "7"^^xsd:positiveInteger ;
	cbc:bridg_class "PerformedObservation"^^xsd:string ;
	cbc:bridg_attribute "PerformedObservation_negationReason"^^xsd:string ;
	cbc:alias "ReasonNotDone"^^xsd:string ;
	cbc:hasDatatype :BCT-Obs_CD_PerformedObservation_negationReason_SC ;
.
:BCT-Obs_CD_PerformedObservation_negationReason_SC
	rdf:type cbc:Datatype ;
	cbc:iso21090_datatype "SC"^^xsd:string ;
	cbc:hasProperty :BCT-Obs_CD_PerformedObservation_negationReason_SC_code ;
.
:BCT-Obs_CD_PerformedObservation_negationReason_SC_code
	rdf:type cbc:Property ;
	cbc:alias "Code"^^xsd:string ;
	cbc:hasComplexDatatype :BCT-Obs_CD_PerformedObservation_negationReason_SC_code_CD ;
.
:BCT-Obs_CD_PerformedObservation_negationReason_SC_code_CD
	rdf:type cbc:Datatype ;
	cbc:iso21090_datatype "CD"^^xsd:string ;
	cbc:hasProperty :BCT-Obs_CD_PerformedObservation_negationReason_SC_code_CD_code ;
.
:BCT-Obs_CD_PerformedObservation_negationReason_SC_code_CD_code
	rdf:type cbc:Property ;
	cbc:alias "Reason Not Done (--REASND)"^^xsd:string ;
	cbc:ordinal "1"^^xsd:positiveInteger ;
	cbc:bridg_path "PerformedObservation.negationReason.SC.code.CD.code"^^xsd:string ;
	cbc:simple_datatype "string"^^xsd:string ;
.
:BCT-Obs_CD_value
	rdf:type cbc:Item ;
	cbc:isItemOf :BCT-Obs_CD ;
	cbc:ordinal "8"^^xsd:positiveInteger ;
	cbc:bridg_class "PerformedClinicalResult"^^xsd:string ;
	cbc:bridg_attribute "PerformedClinicalResult_value"^^xsd:string ;
	cbc:alias "Result"^^xsd:string ;
	cbc:hasDatatype :BCT-Obs_CD_PerformedClinicalResult_value_CD ;
.
:BCT-Obs_CD_PerformedClinicalResult_value_CD
	rdf:type cbc:Datatype ;
	cbc:iso21090_datatype "CD"^^xsd:string ;
	cbc:hasProperty :BCT-Obs_CD_PerformedClinicalResult_value_CD_code ;
.
:BCT-Obs_CD_PerformedClinicalResult_value_CD_code
	rdf:type cbc:Property ;
	cbc:alias "Result Value (--ORRES)"^^xsd:string ;
	cbc:ordinal "1"^^xsd:positiveInteger ;
	cbc:bridg_path "PerformedClinicalResult.value.CD.code"^^xsd:string ;
	cbc:simple_datatype "string"^^xsd:string ;
.
:BCT-Obs_CD_baselineIndicator
	rdf:type cbc:Item ;
	cbc:isItemOf :BCT-Obs_CD ;
	cbc:ordinal "9"^^xsd:positiveInteger ;
	cbc:bridg_class "PerformedClinicalResult"^^xsd:string ;
	cbc:bridg_attribute "PerformedClinicalResult_baselineIndicator"^^xsd:string ;
	cbc:alias "Baseline"^^xsd:string ;
	cbc:hasDatatype :BCT-Obs_CD_PerformedClinicalResult_baselineIndicator_BL ;
.
:BCT-Obs_CD_PerformedClinicalResult_baselineIndicator_BL
	rdf:type cbc:Datatype ;
	cbc:iso21090_datatype "BL"^^xsd:string ;
	cbc:hasProperty :BCT-Obs_CD_PerformedClinicalResult_baselineIndicator_BL_value ;
.
:BCT-Obs_CD_PerformedClinicalResult_baselineIndicator_BL_value
	rdf:type cbc:Property ;
	cbc:alias "Baseline (--BLFL)"^^xsd:string ;
	cbc:ordinal "1"^^xsd:positiveInteger ;
	cbc:bridg_path "PerformedClinicalResult.baselineIndicator.BL.value"^^xsd:string ;
	cbc:simple_datatype "boolean"^^xsd:string ;
.
