# baseURI: http://www.assero.co.uk/MDRBCs/V1
# imports: http://www.assero.co.uk/ISO21090

@prefix : <http://www.assero.co.uk/MDRBCs/V1#> .
@prefix cbc: <http://www.assero.co.uk/CDISCBiomedicalConcept#> .
@prefix bo: <http://www.assero.co.uk/BusinessOperational#> .
@prefix isoI: <http://www.assero.co.uk/ISO11179Identification#> .
@prefix isoR: <http://www.assero.co.uk/ISO11179Registration#> .
@prefix isoT: <http://www.assero.co.uk/ISO11179Types#> .
@prefix mdrBridg: <http://www.assero.co.uk/MDRBRIDG#> .
@prefix mdrIso21090: <http://www.assero.co.uk/MDRISO21090#> .
@prefix mdrItems: <http://www.assero.co.uk/MDRItems#> .
@prefix mdrBcts: <http://www.assero.co.uk/MDRBCTs/V1#> .
@prefix cCt: <http://www.assero.co.uk/MDRThesaurus/CDISC/V42#> .
@prefix aCt: <http://www.assero.co.uk/MDRThesaurus/ACME/V1#> .
@prefix owl: <http://www.w3.org/2002/07/owl#> .
@prefix rdf: <http://www.w3.org/1999/02/22-rdf-syntax-ns#> .
@prefix rdfs: <http://www.w3.org/2000/01/rdf-schema#> .
@prefix xsd: <http://www.w3.org/2001/XMLSchema#> .

<http://www.assero.co.uk/MDRBCs/V1>
	rdf:type owl:Ontology ;
	owl:imports <http://www.assero.co.uk/CDISCBiomedicalConcept> ;
.
:BC-ACME_BC_C25347
	rdf:type cbc:BiomedicalConceptInstance ;
	cbc:basedOnTemplate :BC-ACME_BC_C25347_TPR ;
	cbc:hasItem :BC-ACME_BC_C25347_DefinedObservation_nameCode ;
	cbc:hasItem :BC-ACME_BC_C25347_DefinedObservation_targetAnatomicSiteCode ;
	cbc:hasItem :BC-ACME_BC_C25347_DefinedObservation_methodCode ;
	cbc:hasItem :BC-ACME_BC_C25347_PerformedObservation_dateRange ;
	cbc:hasItem :BC-ACME_BC_C25347_PerformedObservation_negationReason ;
	cbc:hasItem :BC-ACME_BC_C25347_PerformedObservation_bodyPositionCode ;
	cbc:hasItem :BC-ACME_BC_C25347_PerformedObservation_targetAnatomicSiteLateralityCode ;
	cbc:hasItem :BC-ACME_BC_C25347_PerformedClinicalResult_value ;
	cbc:hasItem :BC-ACME_BC_C25347_PerformedClinicalResult_baselineIndicator ;
	rdfs:label "Height (BC_C25347)"^^xsd:string ;
	isoI:hasIdentifier mdrItems:SI-ACME_BC_C25347-1 ;
	isoR:hasState mdrItems:RS-ACME_BC_C25347-1 ;
	isoT:origin ""^^xsd:string ;
	isoT:changeDescription ""^^xsd:string ;
	isoT:creationDate "2016-01-01"^^xsd:date ;
	isoT:lastChangeDate "2016-01-01"^^xsd:date ;
	isoT:explanatoryComment ""^^xsd:string ;
.
:BC-ACME_BC_C25347_TPR
	rdf:type bo:BctReference ;
	rdfs:label "Biomedical Concept Template Reference"^^xsd:string ;
	bo:basedOnTemplate mdrBcts:BCT-Obs_PQR ;
	bo:ordinal "1"^^xsd:positiveInteger ;
	bo:enabled "true"^^xsd:boolean ;
	bo:optional "false"^^xsd:boolean ;
	bo:local_label ""^^xsd:string ;
.
mdrItems:SI-ACME_BC_C25347-1
	rdf:type isoI:ScopedIdentifier ;
	isoI:identifier "BC_C25347"^^xsd:string ;
	isoI:versionLabel "0.1"^^xsd:string ;
	isoI:version "1"^^xsd:positiveInteger ;
	isoI:hasScope mdrItems:NS-ACME ;
.
mdrItems:RS-ACME_BC_C25347-1
	rdf:type isoR:RegistrationState ;
	isoR:registrationStatus "Standard"^^xsd:string ;
	isoR:administrativeNote ""^^xsd:string ;
	isoR:effectiveDate "2016-01-01T00:00:00Z"^^xsd:dateTime ;
	isoR:untilDate "2016-01-01T00:00:00Z"^^xsd:dateTime ;
	isoR:unresolvedIssue ""^^xsd:string ;
	isoR:administrativeStatus ""^^xsd:string ;
	isoR:previousState "Qualified"^^xsd:string ;
	isoR:byAuthority mdrItems:RA-123456789 ;
.
:BC-ACME_BC_C25347_DefinedObservation_nameCode
	rdf:type cbc:Item ;
	cbc:ordinal "1"^^xsd:positiveInteger ;
	cbc:bridg_class "DefinedObservation"^^xsd:string ;
	cbc:bridg_attribute "nameCode"^^xsd:string ;
	cbc:alias "Test"^^xsd:string ;
	cbc:hasDatatype :BC-ACME_BC_C25347_DefinedObservation_nameCode_CD ;
	cbc:iso21090_datatype "CD"^^xsd:string ;
.
:BC-ACME_BC_C25347_DefinedObservation_nameCode_CD
	rdf:type cbc:Datatype ;
	cbc:iso21090_datatype "CD"^^xsd:string ;
	cbc:hasProperty :BC-ACME_BC_C25347_DefinedObservation_nameCode_CD_code ;
	cbc:hasProperty :BC-ACME_BC_C25347_DefinedObservation_nameCode_CD_originalText ;
.
:BC-ACME_BC_C25347_DefinedObservation_nameCode_CD_code
	rdf:type cbc:Property ;
	cbc:alias "Test Code (--TESTCD)"^^xsd:string ;
	cbc:hasThesaurusConcept :BC-ACME_BC_C25347_DefinedObservation_nameCode_CD_code_TR_1 ;
	cbc:ordinal "1"^^xsd:positiveInteger ;
	cbc:question_text ""^^xsd:string ;
	cbc:prompt_text ""^^xsd:string ;
	cbc:enabled "true"^^xsd:boolean ;
	cbc:collect "false"^^xsd:boolean ;
	cbc:bridg_path "DefinedObservation.nameCode.CD.code"^^xsd:string ;
	cbc:simple_datatype "string"^^xsd:string ;
	cbc:format ""^^xsd:string ;
.
:BC-ACME_BC_C25347_DefinedObservation_nameCode_CD_code_TR_1
	rdf:type bo:TcReference ;
	rdfs:label "Thesaurus Concept Reference"^^xsd:string ;
	bo:hasThesaurusConcept cCt:CLI-C66741_C25347 ;
	bo:ordinal "1"^^xsd:positiveInteger ;
	bo:enabled "true"^^xsd:boolean ;
	bo:optional "true"^^xsd:boolean ;
	bo:local_label ""^^xsd:string ;
.
:BC-ACME_BC_C25347_DefinedObservation_nameCode_CD_originalText
	rdf:type cbc:Property ;
	cbc:alias "Name"^^xsd:string ;
	cbc:hasComplexDatatype :BC-ACME_BC_C25347_DefinedObservation_nameCode_CD_originalText_ED ;
.
:BC-ACME_BC_C25347_DefinedObservation_nameCode_CD_originalText_ED
	rdf:type cbc:Datatype ;
	cbc:iso21090_datatype "ED"^^xsd:string ;
	cbc:hasProperty :BC-ACME_BC_C25347_DefinedObservation_nameCode_CD_originalText_ED_value ;
.
:BC-ACME_BC_C25347_DefinedObservation_nameCode_CD_originalText_ED_value
	rdf:type cbc:Property ;
	cbc:alias "Test Name (--TEST)"^^xsd:string ;
	cbc:hasThesaurusConcept :BC-ACME_BC_C25347_DefinedObservation_nameCode_CD_originalText_ED_value_TR_1 ;
	cbc:ordinal "1"^^xsd:positiveInteger ;
	cbc:question_text ""^^xsd:string ;
	cbc:prompt_text ""^^xsd:string ;
	cbc:enabled "true"^^xsd:boolean ;
	cbc:collect "false"^^xsd:boolean ;
	cbc:bridg_path "DefinedObservation.nameCode.CD.originalText.ED.value"^^xsd:string ;
	cbc:simple_datatype "string"^^xsd:string ;
	cbc:format ""^^xsd:string ;
.
:BC-ACME_BC_C25347_DefinedObservation_nameCode_CD_originalText_ED_value_TR_1
	rdf:type bo:TcReference ;
	rdfs:label "Thesaurus Concept Reference"^^xsd:string ;
	bo:hasThesaurusConcept cCt:CLI-C67153_C25347 ;
	bo:ordinal "1"^^xsd:positiveInteger ;
	bo:enabled "true"^^xsd:boolean ;
	bo:optional "true"^^xsd:boolean ;
	bo:local_label ""^^xsd:string ;
.
:BC-ACME_BC_C25347_DefinedObservation_targetAnatomicSiteCode
	rdf:type cbc:Item ;
	cbc:ordinal "2"^^xsd:positiveInteger ;
	cbc:bridg_class "DefinedObservation"^^xsd:string ;
	cbc:bridg_attribute "targetAnatomicSiteCode"^^xsd:string ;
	cbc:alias "SiteOfAdministration"^^xsd:string ;
	cbc:hasDatatype :BC-ACME_BC_C25347_DefinedObservation_targetAnatomicSiteCode_CD ;
	cbc:iso21090_datatype "CD"^^xsd:string ;
.
:BC-ACME_BC_C25347_DefinedObservation_targetAnatomicSiteCode_CD
	rdf:type cbc:Datatype ;
	cbc:iso21090_datatype "CD"^^xsd:string ;
	cbc:hasProperty :BC-ACME_BC_C25347_DefinedObservation_targetAnatomicSiteCode_CD_code ;
.
:BC-ACME_BC_C25347_DefinedObservation_targetAnatomicSiteCode_CD_code
	rdf:type cbc:Property ;
	cbc:alias "Location (--LOC)"^^xsd:string ;
	cbc:ordinal "1"^^xsd:positiveInteger ;
	cbc:question_text "Question text"^^xsd:string ;
	cbc:prompt_text "Prompt text"^^xsd:string ;
	cbc:enabled "false"^^xsd:boolean ;
	cbc:collect "true"^^xsd:boolean ;
	cbc:bridg_path "DefinedObservation.targetAnatomicSiteCode.CD.code"^^xsd:string ;
	cbc:simple_datatype "string"^^xsd:string ;
	cbc:format ""^^xsd:string ;
.
:BC-ACME_BC_C25347_DefinedObservation_methodCode
	rdf:type cbc:Item ;
	cbc:ordinal "3"^^xsd:positiveInteger ;
	cbc:bridg_class "DefinedObservation"^^xsd:string ;
	cbc:bridg_attribute "methodCode"^^xsd:string ;
	cbc:alias "Method"^^xsd:string ;
	cbc:hasDatatype :BC-ACME_BC_C25347_DefinedObservation_methodCode_CD ;
	cbc:iso21090_datatype "CD"^^xsd:string ;
.
:BC-ACME_BC_C25347_DefinedObservation_methodCode_CD
	rdf:type cbc:Datatype ;
	cbc:iso21090_datatype "CD"^^xsd:string ;
	cbc:hasProperty :BC-ACME_BC_C25347_DefinedObservation_methodCode_CD_code ;
.
:BC-ACME_BC_C25347_DefinedObservation_methodCode_CD_code
	rdf:type cbc:Property ;
	cbc:alias "Method Code (--METHOD)"^^xsd:string ;
	cbc:ordinal "1"^^xsd:positiveInteger ;
	cbc:question_text "Question text"^^xsd:string ;
	cbc:prompt_text "Prompt text"^^xsd:string ;
	cbc:enabled "false"^^xsd:boolean ;
	cbc:collect "true"^^xsd:boolean ;
	cbc:bridg_path "DefinedObservation.methodCode.CD.code"^^xsd:string ;
	cbc:simple_datatype "string"^^xsd:string ;
	cbc:format ""^^xsd:string ;
.
:BC-ACME_BC_C25347_PerformedObservation_dateRange
	rdf:type cbc:Item ;
	cbc:ordinal "4"^^xsd:positiveInteger ;
	cbc:bridg_class "PerformedObservation"^^xsd:string ;
	cbc:bridg_attribute "dateRange"^^xsd:string ;
	cbc:alias "DateTime"^^xsd:string ;
	cbc:hasDatatype :BC-ACME_BC_C25347_PerformedObservation_dateRange_IVL_TS_DATETIME ;
	cbc:iso21090_datatype "IVL_TS_DATETIME"^^xsd:string ;
.
:BC-ACME_BC_C25347_PerformedObservation_dateRange_IVL_TS_DATETIME
	rdf:type cbc:Datatype ;
	cbc:iso21090_datatype "IVL_TS_DATETIME"^^xsd:string ;
	cbc:hasProperty :BC-ACME_BC_C25347_PerformedObservation_dateRange_IVL_TS_DATETIME_low ;
.
:BC-ACME_BC_C25347_PerformedObservation_dateRange_IVL_TS_DATETIME_low
	rdf:type cbc:Property ;
	cbc:alias "Date"^^xsd:string ;
	cbc:hasComplexDatatype :BC-ACME_BC_C25347_PerformedObservation_dateRange_IVL_TS_DATETIME_low_TS_DATETIME ;
.
:BC-ACME_BC_C25347_PerformedObservation_dateRange_IVL_TS_DATETIME_low_TS_DATETIME
	rdf:type cbc:Datatype ;
	cbc:iso21090_datatype "TS_DATETIME"^^xsd:string ;
	cbc:hasProperty :BC-ACME_BC_C25347_PerformedObservation_dateRange_IVL_TS_DATETIME_low_TS_DATETIME_value ;
.
:BC-ACME_BC_C25347_PerformedObservation_dateRange_IVL_TS_DATETIME_low_TS_DATETIME_value
	rdf:type cbc:Property ;
	cbc:alias "Date and Time (--DTC)"^^xsd:string ;
	cbc:ordinal "1"^^xsd:positiveInteger ;
	cbc:question_text "Question text"^^xsd:string ;
	cbc:prompt_text "Prompt text"^^xsd:string ;
	cbc:enabled "true"^^xsd:boolean ;
	cbc:collect "true"^^xsd:boolean ;
	cbc:bridg_path "PerformedObservation.dateRange.IVL_TS_DATETIME.low.TS_DATETIME.value"^^xsd:string ;
	cbc:simple_datatype "dateTime"^^xsd:string ;
	cbc:format ""^^xsd:string ;
.
:BC-ACME_BC_C25347_PerformedObservation_negationReason
	rdf:type cbc:Item ;
	cbc:ordinal "5"^^xsd:positiveInteger ;
	cbc:bridg_class "PerformedObservation"^^xsd:string ;
	cbc:bridg_attribute "negationReason"^^xsd:string ;
	cbc:alias "ReasonNotDone"^^xsd:string ;
	cbc:hasDatatype :BC-ACME_BC_C25347_PerformedObservation_negationReason_SC ;
	cbc:iso21090_datatype "SC"^^xsd:string ;
.
:BC-ACME_BC_C25347_PerformedObservation_negationReason_SC
	rdf:type cbc:Datatype ;
	cbc:iso21090_datatype "SC"^^xsd:string ;
	cbc:hasProperty :BC-ACME_BC_C25347_PerformedObservation_negationReason_SC_code ;
.
:BC-ACME_BC_C25347_PerformedObservation_negationReason_SC_code
	rdf:type cbc:Property ;
	cbc:alias "Code"^^xsd:string ;
	cbc:hasComplexDatatype :BC-ACME_BC_C25347_PerformedObservation_negationReason_SC_code_CD ;
.
:BC-ACME_BC_C25347_PerformedObservation_negationReason_SC_code_CD
	rdf:type cbc:Datatype ;
	cbc:iso21090_datatype "CD"^^xsd:string ;
.
:BC-ACME_BC_C25347_PerformedObservation_bodyPositionCode
	rdf:type cbc:Item ;
	cbc:ordinal "6"^^xsd:positiveInteger ;
	cbc:bridg_class "PerformedObservation"^^xsd:string ;
	cbc:bridg_attribute "bodyPositionCode"^^xsd:string ;
	cbc:alias "Position"^^xsd:string ;
	cbc:hasDatatype :BC-ACME_BC_C25347_PerformedObservation_bodyPositionCode_CD ;
	cbc:iso21090_datatype "CD"^^xsd:string ;
.
:BC-ACME_BC_C25347_PerformedObservation_bodyPositionCode_CD
	rdf:type cbc:Datatype ;
	cbc:iso21090_datatype "CD"^^xsd:string ;
	cbc:hasProperty :BC-ACME_BC_C25347_PerformedObservation_bodyPositionCode_CD_code ;
.
:BC-ACME_BC_C25347_PerformedObservation_bodyPositionCode_CD_code
	rdf:type cbc:Property ;
	cbc:alias "Body Position (--POS)"^^xsd:string ;
	cbc:ordinal "1"^^xsd:positiveInteger ;
	cbc:question_text "Question text"^^xsd:string ;
	cbc:prompt_text "Prompt text"^^xsd:string ;
	cbc:enabled "false"^^xsd:boolean ;
	cbc:collect "false"^^xsd:boolean ;
	cbc:bridg_path "PerformedObservation.bodyPositionCode.CD.code"^^xsd:string ;
	cbc:simple_datatype "string"^^xsd:string ;
	cbc:format ""^^xsd:string ;
.
:BC-ACME_BC_C25347_PerformedObservation_targetAnatomicSiteLateralityCode
	rdf:type cbc:Item ;
	cbc:ordinal "7"^^xsd:positiveInteger ;
	cbc:bridg_class "PerformedObservation"^^xsd:string ;
	cbc:bridg_attribute "targetAnatomicSiteLateralityCode"^^xsd:string ;
	cbc:alias "Laterality"^^xsd:string ;
	cbc:hasDatatype :BC-ACME_BC_C25347_PerformedObservation_targetAnatomicSiteLateralityCode_CD ;
	cbc:iso21090_datatype "CD"^^xsd:string ;
.
:BC-ACME_BC_C25347_PerformedObservation_targetAnatomicSiteLateralityCode_CD
	rdf:type cbc:Datatype ;
	cbc:iso21090_datatype "CD"^^xsd:string ;
	cbc:hasProperty :BC-ACME_BC_C25347_PerformedObservation_targetAnatomicSiteLateralityCode_CD_code ;
.
:BC-ACME_BC_C25347_PerformedObservation_targetAnatomicSiteLateralityCode_CD_code
	rdf:type cbc:Property ;
	cbc:alias "Laterality (--LAT)"^^xsd:string ;
	cbc:ordinal "1"^^xsd:positiveInteger ;
	cbc:question_text "Question text"^^xsd:string ;
	cbc:prompt_text "Prompt text"^^xsd:string ;
	cbc:enabled "false"^^xsd:boolean ;
	cbc:collect "true"^^xsd:boolean ;
	cbc:bridg_path "PerformedObservation.targetAnatomicSiteLateralityCode.CD.code"^^xsd:string ;
	cbc:simple_datatype "string"^^xsd:string ;
	cbc:format ""^^xsd:string ;
.
:BC-ACME_BC_C25347_PerformedClinicalResult_value
	rdf:type cbc:Item ;
	cbc:ordinal "8"^^xsd:positiveInteger ;
	cbc:bridg_class "PerformedClinicalResult"^^xsd:string ;
	cbc:bridg_attribute "value"^^xsd:string ;
	cbc:alias "Result"^^xsd:string ;
	cbc:hasDatatype :BC-ACME_BC_C25347_PerformedClinicalResult_value_PQR ;
	cbc:iso21090_datatype "PQR"^^xsd:string ;
.
:BC-ACME_BC_C25347_PerformedClinicalResult_value_PQR
	rdf:type cbc:Datatype ;
	cbc:iso21090_datatype "PQR"^^xsd:string ;
	cbc:hasProperty :BC-ACME_BC_C25347_PerformedClinicalResult_value_PQR_value ;
	cbc:hasProperty :BC-ACME_BC_C25347_PerformedClinicalResult_value_PQR_code ;
.
:BC-ACME_BC_C25347_PerformedClinicalResult_value_PQR_value
	rdf:type cbc:Property ;
	cbc:alias "Result Value (--ORRES)"^^xsd:string ;
	cbc:ordinal "1"^^xsd:positiveInteger ;
	cbc:question_text "Result value?"^^xsd:string ;
	cbc:prompt_text "Result"^^xsd:string ;
	cbc:enabled "true"^^xsd:boolean ;
	cbc:collect "true"^^xsd:boolean ;
	cbc:bridg_path "PerformedClinicalResult.value.PQR.value"^^xsd:string ;
	cbc:simple_datatype "float"^^xsd:string ;
	cbc:format ""^^xsd:string ;
.
:BC-ACME_BC_C25347_PerformedClinicalResult_value_PQR_code
	rdf:type cbc:Property ;
	cbc:alias "Result Units (--ORRESU)"^^xsd:string ;
	cbc:hasThesaurusConcept :BC-ACME_BC_C25347_PerformedClinicalResult_value_PQR_code_TR_1 ;
	cbc:hasThesaurusConcept :BC-ACME_BC_C25347_PerformedClinicalResult_value_PQR_code_TR_2 ;
	cbc:hasThesaurusConcept :BC-ACME_BC_C25347_PerformedClinicalResult_value_PQR_code_TR_3 ;
	cbc:hasThesaurusConcept :BC-ACME_BC_C25347_PerformedClinicalResult_value_PQR_code_TR_4 ;
	cbc:ordinal "2"^^xsd:positiveInteger ;
	cbc:question_text "Result units?"^^xsd:string ;
	cbc:prompt_text "Units"^^xsd:string ;
	cbc:enabled "true"^^xsd:boolean ;
	cbc:collect "true"^^xsd:boolean ;
	cbc:bridg_path "PerformedClinicalResult.value.PQR.code"^^xsd:string ;
	cbc:simple_datatype "string"^^xsd:string ;
	cbc:format ""^^xsd:string ;
.
:BC-ACME_BC_C25347_PerformedClinicalResult_value_PQR_code_TR_1
	rdf:type bo:TcReference ;
	rdfs:label "Thesaurus Concept Reference"^^xsd:string ;
	bo:hasThesaurusConcept cCt:CLI-C66770_C49668 ;
	bo:ordinal "1"^^xsd:positiveInteger ;
	bo:enabled "true"^^xsd:boolean ;
	bo:optional "true"^^xsd:boolean ;
	bo:local_label ""^^xsd:string ;
.
:BC-ACME_BC_C25347_PerformedClinicalResult_value_PQR_code_TR_2
	rdf:type bo:TcReference ;
	rdfs:label "Thesaurus Concept Reference"^^xsd:string ;
	bo:hasThesaurusConcept cCt:CLI-C66770_C48500 ;
	bo:ordinal "2"^^xsd:positiveInteger ;
	bo:enabled "true"^^xsd:boolean ;
	bo:optional "true"^^xsd:boolean ;
	bo:local_label ""^^xsd:string ;
.
:BC-ACME_BC_C25347_PerformedClinicalResult_value_PQR_code_TR_3
	rdf:type bo:TcReference ;
	rdfs:label "Thesaurus Concept Reference"^^xsd:string ;
	bo:hasThesaurusConcept cCt:CLI-C71620_C41139 ;
	bo:ordinal "3"^^xsd:positiveInteger ;
	bo:enabled "true"^^xsd:boolean ;
	bo:optional "true"^^xsd:boolean ;
	bo:local_label ""^^xsd:string ;
.
:BC-ACME_BC_C25347_PerformedClinicalResult_value_PQR_code_TR_4
	rdf:type bo:TcReference ;
	rdfs:label "Thesaurus Concept Reference"^^xsd:string ;
	bo:hasThesaurusConcept cCt:CLI-C71620_C71253 ;
	bo:ordinal "4"^^xsd:positiveInteger ;
	bo:enabled "true"^^xsd:boolean ;
	bo:optional "true"^^xsd:boolean ;
	bo:local_label ""^^xsd:string ;
.
:BC-ACME_BC_C25347_PerformedClinicalResult_baselineIndicator
	rdf:type cbc:Item ;
	cbc:ordinal "9"^^xsd:positiveInteger ;
	cbc:bridg_class "PerformedClinicalResult"^^xsd:string ;
	cbc:bridg_attribute "baselineIndicator"^^xsd:string ;
	cbc:alias "Baseline"^^xsd:string ;
	cbc:hasDatatype :BC-ACME_BC_C25347_PerformedClinicalResult_baselineIndicator_BL ;
	cbc:iso21090_datatype "BL"^^xsd:string ;
.
:BC-ACME_BC_C25347_PerformedClinicalResult_baselineIndicator_BL
	rdf:type cbc:Datatype ;
	cbc:iso21090_datatype "BL"^^xsd:string ;
	cbc:hasProperty :BC-ACME_BC_C25347_PerformedClinicalResult_baselineIndicator_BL_value ;
.
:BC-ACME_BC_C25347_PerformedClinicalResult_baselineIndicator_BL_value
	rdf:type cbc:Property ;
	cbc:alias "Baseline (--BLFL)"^^xsd:string ;
	cbc:hasThesaurusConcept :BC-ACME_BC_C25347_PerformedClinicalResult_baselineIndicator_BL_value_TR_1 ;
	cbc:hasThesaurusConcept :BC-ACME_BC_C25347_PerformedClinicalResult_baselineIndicator_BL_value_TR_2 ;
	cbc:ordinal "1"^^xsd:positiveInteger ;
	cbc:question_text "Question text"^^xsd:string ;
	cbc:prompt_text "Prompt text"^^xsd:string ;
	cbc:enabled "false"^^xsd:boolean ;
	cbc:collect "true"^^xsd:boolean ;
	cbc:bridg_path "PerformedClinicalResult.baselineIndicator.BL.value"^^xsd:string ;
	cbc:simple_datatype "boolean"^^xsd:string ;
	cbc:format ""^^xsd:string ;
.
:BC-ACME_BC_C25347_PerformedClinicalResult_baselineIndicator_BL_value_TR_1
	rdf:type bo:TcReference ;
	rdfs:label "Thesaurus Concept Reference"^^xsd:string ;
	bo:hasThesaurusConcept cCt:CLI-C66742_C49487 ;
	bo:ordinal "1"^^xsd:positiveInteger ;
	bo:enabled "true"^^xsd:boolean ;
	bo:optional "true"^^xsd:boolean ;
	bo:local_label ""^^xsd:string ;
.
:BC-ACME_BC_C25347_PerformedClinicalResult_baselineIndicator_BL_value_TR_2
	rdf:type bo:TcReference ;
	rdfs:label "Thesaurus Concept Reference"^^xsd:string ;
	bo:hasThesaurusConcept cCt:CLI-C66742_C49488 ;
	bo:ordinal "2"^^xsd:positiveInteger ;
	bo:enabled "true"^^xsd:boolean ;
	bo:optional "true"^^xsd:boolean ;
	bo:local_label ""^^xsd:string ;
.
:BC-ACME_BC_C25208
	rdf:type cbc:BiomedicalConceptInstance ;
	cbc:basedOnTemplate :BC-ACME_BC_C25208_TPR ;
	cbc:hasItem :BC-ACME_BC_C25208_DefinedObservation_nameCode ;
	cbc:hasItem :BC-ACME_BC_C25208_DefinedObservation_targetAnatomicSiteCode ;
	cbc:hasItem :BC-ACME_BC_C25208_DefinedObservation_methodCode ;
	cbc:hasItem :BC-ACME_BC_C25208_PerformedObservation_dateRange ;
	cbc:hasItem :BC-ACME_BC_C25208_PerformedObservation_negationReason ;
	cbc:hasItem :BC-ACME_BC_C25208_PerformedObservation_bodyPositionCode ;
	cbc:hasItem :BC-ACME_BC_C25208_PerformedObservation_targetAnatomicSiteLateralityCode ;
	cbc:hasItem :BC-ACME_BC_C25208_PerformedClinicalResult_value ;
	cbc:hasItem :BC-ACME_BC_C25208_PerformedClinicalResult_baselineIndicator ;
	rdfs:label "Weight (BC_C25208)"^^xsd:string ;
	isoI:hasIdentifier mdrItems:SI-ACME_BC_C25208-1 ;
	isoR:hasState mdrItems:RS-ACME_BC_C25208-1 ;
	isoT:origin ""^^xsd:string ;
	isoT:changeDescription ""^^xsd:string ;
	isoT:creationDate "2016-01-01"^^xsd:date ;
	isoT:lastChangeDate "2016-01-01"^^xsd:date ;
	isoT:explanatoryComment ""^^xsd:string ;
.
:BC-ACME_BC_C25208_TPR
	rdf:type bo:BctReference ;
	rdfs:label "Biomedical Concept Template Reference"^^xsd:string ;
	bo:basedOnTemplate mdrBcts:BCT-Obs_PQR ;
	bo:ordinal "1"^^xsd:positiveInteger ;
	bo:enabled "true"^^xsd:boolean ;
	bo:optional "false"^^xsd:boolean ;
	bo:local_label ""^^xsd:string ;
.
mdrItems:SI-ACME_BC_C25208-1
	rdf:type isoI:ScopedIdentifier ;
	isoI:identifier "BC_C25208"^^xsd:string ;
	isoI:versionLabel "0.1"^^xsd:string ;
	isoI:version "1"^^xsd:positiveInteger ;
	isoI:hasScope mdrItems:NS-ACME ;
.
mdrItems:RS-ACME_BC_C25208-1
	rdf:type isoR:RegistrationState ;
	isoR:registrationStatus "Standard"^^xsd:string ;
	isoR:administrativeNote ""^^xsd:string ;
	isoR:effectiveDate "2016-01-01T00:00:00Z"^^xsd:dateTime ;
	isoR:untilDate "2016-01-01T00:00:00Z"^^xsd:dateTime ;
	isoR:unresolvedIssue ""^^xsd:string ;
	isoR:administrativeStatus ""^^xsd:string ;
	isoR:previousState "Qualified"^^xsd:string ;
	isoR:byAuthority mdrItems:RA-123456789 ;
.
:BC-ACME_BC_C25208_DefinedObservation_nameCode
	rdf:type cbc:Item ;
	cbc:ordinal "1"^^xsd:positiveInteger ;
	cbc:bridg_class "DefinedObservation"^^xsd:string ;
	cbc:bridg_attribute "nameCode"^^xsd:string ;
	cbc:alias "Test"^^xsd:string ;
	cbc:hasDatatype :BC-ACME_BC_C25208_DefinedObservation_nameCode_CD ;
	cbc:iso21090_datatype "CD"^^xsd:string ;
.
:BC-ACME_BC_C25208_DefinedObservation_nameCode_CD
	rdf:type cbc:Datatype ;
	cbc:iso21090_datatype "CD"^^xsd:string ;
	cbc:hasProperty :BC-ACME_BC_C25208_DefinedObservation_nameCode_CD_code ;
	cbc:hasProperty :BC-ACME_BC_C25208_DefinedObservation_nameCode_CD_originalText ;
.
:BC-ACME_BC_C25208_DefinedObservation_nameCode_CD_code
	rdf:type cbc:Property ;
	cbc:alias "Test Code (--TESTCD)"^^xsd:string ;
	cbc:hasThesaurusConcept :BC-ACME_BC_C25208_DefinedObservation_nameCode_CD_code_TR_1 ;
	cbc:ordinal "1"^^xsd:positiveInteger ;
	cbc:question_text ""^^xsd:string ;
	cbc:prompt_text ""^^xsd:string ;
	cbc:enabled "true"^^xsd:boolean ;
	cbc:collect "false"^^xsd:boolean ;
	cbc:bridg_path "DefinedObservation.nameCode.CD.code"^^xsd:string ;
	cbc:simple_datatype "string"^^xsd:string ;
	cbc:format ""^^xsd:string ;
.
:BC-ACME_BC_C25208_DefinedObservation_nameCode_CD_code_TR_1
	rdf:type bo:TcReference ;
	rdfs:label "Thesaurus Concept Reference"^^xsd:string ;
	bo:hasThesaurusConcept cCt:CLI-C66741_C25208 ;
	bo:ordinal "1"^^xsd:positiveInteger ;
	bo:enabled "true"^^xsd:boolean ;
	bo:optional "true"^^xsd:boolean ;
	bo:local_label ""^^xsd:string ;
.
:BC-ACME_BC_C25208_DefinedObservation_nameCode_CD_originalText
	rdf:type cbc:Property ;
	cbc:alias "Name"^^xsd:string ;
	cbc:hasComplexDatatype :BC-ACME_BC_C25208_DefinedObservation_nameCode_CD_originalText_ED ;
.
:BC-ACME_BC_C25208_DefinedObservation_nameCode_CD_originalText_ED
	rdf:type cbc:Datatype ;
	cbc:iso21090_datatype "ED"^^xsd:string ;
	cbc:hasProperty :BC-ACME_BC_C25208_DefinedObservation_nameCode_CD_originalText_ED_value ;
.
:BC-ACME_BC_C25208_DefinedObservation_nameCode_CD_originalText_ED_value
	rdf:type cbc:Property ;
	cbc:alias "Test Name (--TEST)"^^xsd:string ;
	cbc:hasThesaurusConcept :BC-ACME_BC_C25208_DefinedObservation_nameCode_CD_originalText_ED_value_TR_1 ;
	cbc:ordinal "1"^^xsd:positiveInteger ;
	cbc:question_text ""^^xsd:string ;
	cbc:prompt_text ""^^xsd:string ;
	cbc:enabled "true"^^xsd:boolean ;
	cbc:collect "false"^^xsd:boolean ;
	cbc:bridg_path "DefinedObservation.nameCode.CD.originalText.ED.value"^^xsd:string ;
	cbc:simple_datatype "string"^^xsd:string ;
	cbc:format ""^^xsd:string ;
.
:BC-ACME_BC_C25208_DefinedObservation_nameCode_CD_originalText_ED_value_TR_1
	rdf:type bo:TcReference ;
	rdfs:label "Thesaurus Concept Reference"^^xsd:string ;
	bo:hasThesaurusConcept cCt:CLI-C67153_C25208 ;
	bo:ordinal "1"^^xsd:positiveInteger ;
	bo:enabled "true"^^xsd:boolean ;
	bo:optional "true"^^xsd:boolean ;
	bo:local_label ""^^xsd:string ;
.
:BC-ACME_BC_C25208_DefinedObservation_targetAnatomicSiteCode
	rdf:type cbc:Item ;
	cbc:ordinal "2"^^xsd:positiveInteger ;
	cbc:bridg_class "DefinedObservation"^^xsd:string ;
	cbc:bridg_attribute "targetAnatomicSiteCode"^^xsd:string ;
	cbc:alias "SiteOfAdministration"^^xsd:string ;
	cbc:hasDatatype :BC-ACME_BC_C25208_DefinedObservation_targetAnatomicSiteCode_CD ;
	cbc:iso21090_datatype "CD"^^xsd:string ;
.
:BC-ACME_BC_C25208_DefinedObservation_targetAnatomicSiteCode_CD
	rdf:type cbc:Datatype ;
	cbc:iso21090_datatype "CD"^^xsd:string ;
	cbc:hasProperty :BC-ACME_BC_C25208_DefinedObservation_targetAnatomicSiteCode_CD_code ;
.
:BC-ACME_BC_C25208_DefinedObservation_targetAnatomicSiteCode_CD_code
	rdf:type cbc:Property ;
	cbc:alias "Location (--LOC)"^^xsd:string ;
	cbc:ordinal "1"^^xsd:positiveInteger ;
	cbc:question_text "Question text"^^xsd:string ;
	cbc:prompt_text "Prompt text"^^xsd:string ;
	cbc:enabled "false"^^xsd:boolean ;
	cbc:collect "true"^^xsd:boolean ;
	cbc:bridg_path "DefinedObservation.targetAnatomicSiteCode.CD.code"^^xsd:string ;
	cbc:simple_datatype "string"^^xsd:string ;
	cbc:format ""^^xsd:string ;
.
:BC-ACME_BC_C25208_DefinedObservation_methodCode
	rdf:type cbc:Item ;
	cbc:ordinal "3"^^xsd:positiveInteger ;
	cbc:bridg_class "DefinedObservation"^^xsd:string ;
	cbc:bridg_attribute "methodCode"^^xsd:string ;
	cbc:alias "Method"^^xsd:string ;
	cbc:hasDatatype :BC-ACME_BC_C25208_DefinedObservation_methodCode_CD ;
	cbc:iso21090_datatype "CD"^^xsd:string ;
.
:BC-ACME_BC_C25208_DefinedObservation_methodCode_CD
	rdf:type cbc:Datatype ;
	cbc:iso21090_datatype "CD"^^xsd:string ;
	cbc:hasProperty :BC-ACME_BC_C25208_DefinedObservation_methodCode_CD_code ;
.
:BC-ACME_BC_C25208_DefinedObservation_methodCode_CD_code
	rdf:type cbc:Property ;
	cbc:alias "Method Code (--METHOD)"^^xsd:string ;
	cbc:ordinal "1"^^xsd:positiveInteger ;
	cbc:question_text "Question text"^^xsd:string ;
	cbc:prompt_text "Prompt text"^^xsd:string ;
	cbc:enabled "false"^^xsd:boolean ;
	cbc:collect "true"^^xsd:boolean ;
	cbc:bridg_path "DefinedObservation.methodCode.CD.code"^^xsd:string ;
	cbc:simple_datatype "string"^^xsd:string ;
	cbc:format ""^^xsd:string ;
.
:BC-ACME_BC_C25208_PerformedObservation_dateRange
	rdf:type cbc:Item ;
	cbc:ordinal "4"^^xsd:positiveInteger ;
	cbc:bridg_class "PerformedObservation"^^xsd:string ;
	cbc:bridg_attribute "dateRange"^^xsd:string ;
	cbc:alias "DateTime"^^xsd:string ;
	cbc:hasDatatype :BC-ACME_BC_C25208_PerformedObservation_dateRange_IVL_TS_DATETIME ;
	cbc:iso21090_datatype "IVL_TS_DATETIME"^^xsd:string ;
.
:BC-ACME_BC_C25208_PerformedObservation_dateRange_IVL_TS_DATETIME
	rdf:type cbc:Datatype ;
	cbc:iso21090_datatype "IVL_TS_DATETIME"^^xsd:string ;
	cbc:hasProperty :BC-ACME_BC_C25208_PerformedObservation_dateRange_IVL_TS_DATETIME_low ;
.
:BC-ACME_BC_C25208_PerformedObservation_dateRange_IVL_TS_DATETIME_low
	rdf:type cbc:Property ;
	cbc:alias "Date"^^xsd:string ;
	cbc:hasComplexDatatype :BC-ACME_BC_C25208_PerformedObservation_dateRange_IVL_TS_DATETIME_low_TS_DATETIME ;
.
:BC-ACME_BC_C25208_PerformedObservation_dateRange_IVL_TS_DATETIME_low_TS_DATETIME
	rdf:type cbc:Datatype ;
	cbc:iso21090_datatype "TS_DATETIME"^^xsd:string ;
	cbc:hasProperty :BC-ACME_BC_C25208_PerformedObservation_dateRange_IVL_TS_DATETIME_low_TS_DATETIME_value ;
.
:BC-ACME_BC_C25208_PerformedObservation_dateRange_IVL_TS_DATETIME_low_TS_DATETIME_value
	rdf:type cbc:Property ;
	cbc:alias "Date and Time (--DTC)"^^xsd:string ;
	cbc:ordinal "1"^^xsd:positiveInteger ;
	cbc:question_text "Question text"^^xsd:string ;
	cbc:prompt_text "Prompt text"^^xsd:string ;
	cbc:enabled "true"^^xsd:boolean ;
	cbc:collect "true"^^xsd:boolean ;
	cbc:bridg_path "PerformedObservation.dateRange.IVL_TS_DATETIME.low.TS_DATETIME.value"^^xsd:string ;
	cbc:simple_datatype "dateTime"^^xsd:string ;
	cbc:format ""^^xsd:string ;
.
:BC-ACME_BC_C25208_PerformedObservation_negationReason
	rdf:type cbc:Item ;
	cbc:ordinal "5"^^xsd:positiveInteger ;
	cbc:bridg_class "PerformedObservation"^^xsd:string ;
	cbc:bridg_attribute "negationReason"^^xsd:string ;
	cbc:alias "ReasonNotDone"^^xsd:string ;
	cbc:hasDatatype :BC-ACME_BC_C25208_PerformedObservation_negationReason_SC ;
	cbc:iso21090_datatype "SC"^^xsd:string ;
.
:BC-ACME_BC_C25208_PerformedObservation_negationReason_SC
	rdf:type cbc:Datatype ;
	cbc:iso21090_datatype "SC"^^xsd:string ;
	cbc:hasProperty :BC-ACME_BC_C25208_PerformedObservation_negationReason_SC_code ;
.
:BC-ACME_BC_C25208_PerformedObservation_negationReason_SC_code
	rdf:type cbc:Property ;
	cbc:alias "Code"^^xsd:string ;
	cbc:hasComplexDatatype :BC-ACME_BC_C25208_PerformedObservation_negationReason_SC_code_CD ;
.
:BC-ACME_BC_C25208_PerformedObservation_negationReason_SC_code_CD
	rdf:type cbc:Datatype ;
	cbc:iso21090_datatype "CD"^^xsd:string ;
.
:BC-ACME_BC_C25208_PerformedObservation_bodyPositionCode
	rdf:type cbc:Item ;
	cbc:ordinal "6"^^xsd:positiveInteger ;
	cbc:bridg_class "PerformedObservation"^^xsd:string ;
	cbc:bridg_attribute "bodyPositionCode"^^xsd:string ;
	cbc:alias "Position"^^xsd:string ;
	cbc:hasDatatype :BC-ACME_BC_C25208_PerformedObservation_bodyPositionCode_CD ;
	cbc:iso21090_datatype "CD"^^xsd:string ;
.
:BC-ACME_BC_C25208_PerformedObservation_bodyPositionCode_CD
	rdf:type cbc:Datatype ;
	cbc:iso21090_datatype "CD"^^xsd:string ;
	cbc:hasProperty :BC-ACME_BC_C25208_PerformedObservation_bodyPositionCode_CD_code ;
.
:BC-ACME_BC_C25208_PerformedObservation_bodyPositionCode_CD_code
	rdf:type cbc:Property ;
	cbc:alias "Body Position (--POS)"^^xsd:string ;
	cbc:ordinal "1"^^xsd:positiveInteger ;
	cbc:question_text "Question text"^^xsd:string ;
	cbc:prompt_text "Prompt text"^^xsd:string ;
	cbc:enabled "true"^^xsd:boolean ;
	cbc:collect "false"^^xsd:boolean ;
	cbc:bridg_path "PerformedObservation.bodyPositionCode.CD.code"^^xsd:string ;
	cbc:simple_datatype "string"^^xsd:string ;
	cbc:format ""^^xsd:string ;
.
:BC-ACME_BC_C25208_PerformedObservation_targetAnatomicSiteLateralityCode
	rdf:type cbc:Item ;
	cbc:ordinal "7"^^xsd:positiveInteger ;
	cbc:bridg_class "PerformedObservation"^^xsd:string ;
	cbc:bridg_attribute "targetAnatomicSiteLateralityCode"^^xsd:string ;
	cbc:alias "Laterality"^^xsd:string ;
	cbc:hasDatatype :BC-ACME_BC_C25208_PerformedObservation_targetAnatomicSiteLateralityCode_CD ;
	cbc:iso21090_datatype "CD"^^xsd:string ;
.
:BC-ACME_BC_C25208_PerformedObservation_targetAnatomicSiteLateralityCode_CD
	rdf:type cbc:Datatype ;
	cbc:iso21090_datatype "CD"^^xsd:string ;
	cbc:hasProperty :BC-ACME_BC_C25208_PerformedObservation_targetAnatomicSiteLateralityCode_CD_code ;
.
:BC-ACME_BC_C25208_PerformedObservation_targetAnatomicSiteLateralityCode_CD_code
	rdf:type cbc:Property ;
	cbc:alias "Laterality (--LAT)"^^xsd:string ;
	cbc:ordinal "1"^^xsd:positiveInteger ;
	cbc:question_text "Question text"^^xsd:string ;
	cbc:prompt_text "Prompt text"^^xsd:string ;
	cbc:enabled "false"^^xsd:boolean ;
	cbc:collect "true"^^xsd:boolean ;
	cbc:bridg_path "PerformedObservation.targetAnatomicSiteLateralityCode.CD.code"^^xsd:string ;
	cbc:simple_datatype "string"^^xsd:string ;
	cbc:format ""^^xsd:string ;
.
:BC-ACME_BC_C25208_PerformedClinicalResult_value
	rdf:type cbc:Item ;
	cbc:ordinal "8"^^xsd:positiveInteger ;
	cbc:bridg_class "PerformedClinicalResult"^^xsd:string ;
	cbc:bridg_attribute "value"^^xsd:string ;
	cbc:alias "Result"^^xsd:string ;
	cbc:hasDatatype :BC-ACME_BC_C25208_PerformedClinicalResult_value_PQR ;
	cbc:iso21090_datatype "PQR"^^xsd:string ;
.
:BC-ACME_BC_C25208_PerformedClinicalResult_value_PQR
	rdf:type cbc:Datatype ;
	cbc:iso21090_datatype "PQR"^^xsd:string ;
	cbc:hasProperty :BC-ACME_BC_C25208_PerformedClinicalResult_value_PQR_value ;
	cbc:hasProperty :BC-ACME_BC_C25208_PerformedClinicalResult_value_PQR_code ;
.
:BC-ACME_BC_C25208_PerformedClinicalResult_value_PQR_value
	rdf:type cbc:Property ;
	cbc:alias "Result Value (--ORRES)"^^xsd:string ;
	cbc:ordinal "1"^^xsd:positiveInteger ;
	cbc:question_text "Result value?"^^xsd:string ;
	cbc:prompt_text "Result"^^xsd:string ;
	cbc:enabled "true"^^xsd:boolean ;
	cbc:collect "true"^^xsd:boolean ;
	cbc:bridg_path "PerformedClinicalResult.value.PQR.value"^^xsd:string ;
	cbc:simple_datatype "float"^^xsd:string ;
	cbc:format ""^^xsd:string ;
.
:BC-ACME_BC_C25208_PerformedClinicalResult_value_PQR_code
	rdf:type cbc:Property ;
	cbc:alias "Result Units (--ORRESU)"^^xsd:string ;
	cbc:hasThesaurusConcept :BC-ACME_BC_C25208_PerformedClinicalResult_value_PQR_code_TR_1 ;
	cbc:hasThesaurusConcept :BC-ACME_BC_C25208_PerformedClinicalResult_value_PQR_code_TR_2 ;
	cbc:hasThesaurusConcept :BC-ACME_BC_C25208_PerformedClinicalResult_value_PQR_code_TR_3 ;
	cbc:hasThesaurusConcept :BC-ACME_BC_C25208_PerformedClinicalResult_value_PQR_code_TR_4 ;
	cbc:ordinal "2"^^xsd:positiveInteger ;
	cbc:question_text "Result units?"^^xsd:string ;
	cbc:prompt_text "Units"^^xsd:string ;
	cbc:enabled "true"^^xsd:boolean ;
	cbc:collect "true"^^xsd:boolean ;
	cbc:bridg_path "PerformedClinicalResult.value.PQR.code"^^xsd:string ;
	cbc:simple_datatype "string"^^xsd:string ;
	cbc:format ""^^xsd:string ;
.
:BC-ACME_BC_C25208_PerformedClinicalResult_value_PQR_code_TR_1
	rdf:type bo:TcReference ;
	rdfs:label "Thesaurus Concept Reference"^^xsd:string ;
	bo:hasThesaurusConcept cCt:CLI-C66770_C28252 ;
	bo:ordinal "1"^^xsd:positiveInteger ;
	bo:enabled "true"^^xsd:boolean ;
	bo:optional "true"^^xsd:boolean ;
	bo:local_label ""^^xsd:string ;
.
:BC-ACME_BC_C25208_PerformedClinicalResult_value_PQR_code_TR_2
	rdf:type bo:TcReference ;
	rdfs:label "Thesaurus Concept Reference"^^xsd:string ;
	bo:hasThesaurusConcept cCt:CLI-C66770_C48531 ;
	bo:ordinal "2"^^xsd:positiveInteger ;
	bo:enabled "true"^^xsd:boolean ;
	bo:optional "true"^^xsd:boolean ;
	bo:local_label ""^^xsd:string ;
.
:BC-ACME_BC_C25208_PerformedClinicalResult_value_PQR_code_TR_3
	rdf:type bo:TcReference ;
	rdfs:label "Thesaurus Concept Reference"^^xsd:string ;
	bo:hasThesaurusConcept cCt:CLI-C66770_C48155 ;
	bo:ordinal "3"^^xsd:positiveInteger ;
	bo:enabled "true"^^xsd:boolean ;
	bo:optional "true"^^xsd:boolean ;
	bo:local_label ""^^xsd:string ;
.
:BC-ACME_BC_C25208_PerformedClinicalResult_value_PQR_code_TR_4
	rdf:type bo:TcReference ;
	rdfs:label "Thesaurus Concept Reference"^^xsd:string ;
	bo:hasThesaurusConcept cCt:CLI-C71620_C48519 ;
	bo:ordinal "4"^^xsd:positiveInteger ;
	bo:enabled "true"^^xsd:boolean ;
	bo:optional "true"^^xsd:boolean ;
	bo:local_label ""^^xsd:string ;
.
:BC-ACME_BC_C25208_PerformedClinicalResult_baselineIndicator
	rdf:type cbc:Item ;
	cbc:ordinal "9"^^xsd:positiveInteger ;
	cbc:bridg_class "PerformedClinicalResult"^^xsd:string ;
	cbc:bridg_attribute "baselineIndicator"^^xsd:string ;
	cbc:alias "Baseline"^^xsd:string ;
	cbc:hasDatatype :BC-ACME_BC_C25208_PerformedClinicalResult_baselineIndicator_BL ;
	cbc:iso21090_datatype "BL"^^xsd:string ;
.
:BC-ACME_BC_C25208_PerformedClinicalResult_baselineIndicator_BL
	rdf:type cbc:Datatype ;
	cbc:iso21090_datatype "BL"^^xsd:string ;
	cbc:hasProperty :BC-ACME_BC_C25208_PerformedClinicalResult_baselineIndicator_BL_value ;
.
:BC-ACME_BC_C25208_PerformedClinicalResult_baselineIndicator_BL_value
	rdf:type cbc:Property ;
	cbc:alias "Baseline (--BLFL)"^^xsd:string ;
	cbc:hasThesaurusConcept :BC-ACME_BC_C25208_PerformedClinicalResult_baselineIndicator_BL_value_TR_1 ;
	cbc:hasThesaurusConcept :BC-ACME_BC_C25208_PerformedClinicalResult_baselineIndicator_BL_value_TR_2 ;
	cbc:ordinal "1"^^xsd:positiveInteger ;
	cbc:question_text "Question text"^^xsd:string ;
	cbc:prompt_text "Prompt text"^^xsd:string ;
	cbc:enabled "false"^^xsd:boolean ;
	cbc:collect "true"^^xsd:boolean ;
	cbc:bridg_path "PerformedClinicalResult.baselineIndicator.BL.value"^^xsd:string ;
	cbc:simple_datatype "boolean"^^xsd:string ;
	cbc:format ""^^xsd:string ;
.
:BC-ACME_BC_C25208_PerformedClinicalResult_baselineIndicator_BL_value_TR_1
	rdf:type bo:TcReference ;
	rdfs:label "Thesaurus Concept Reference"^^xsd:string ;
	bo:hasThesaurusConcept cCt:CLI-C66742_C49487 ;
	bo:ordinal "1"^^xsd:positiveInteger ;
	bo:enabled "true"^^xsd:boolean ;
	bo:optional "true"^^xsd:boolean ;
	bo:local_label ""^^xsd:string ;
.
:BC-ACME_BC_C25208_PerformedClinicalResult_baselineIndicator_BL_value_TR_2
	rdf:type bo:TcReference ;
	rdfs:label "Thesaurus Concept Reference"^^xsd:string ;
	bo:hasThesaurusConcept cCt:CLI-C66742_C49488 ;
	bo:ordinal "2"^^xsd:positiveInteger ;
	bo:enabled "true"^^xsd:boolean ;
	bo:optional "true"^^xsd:boolean ;
	bo:local_label ""^^xsd:string ;
.
:BC-ACME_BC_C16358
	rdf:type cbc:BiomedicalConceptInstance ;
	cbc:basedOnTemplate :BC-ACME_BC_C16358_TPR ;
	cbc:hasItem :BC-ACME_BC_C16358_DefinedObservation_nameCode ;
	cbc:hasItem :BC-ACME_BC_C16358_DefinedObservation_targetAnatomicSiteCode ;
	cbc:hasItem :BC-ACME_BC_C16358_DefinedObservation_methodCode ;
	cbc:hasItem :BC-ACME_BC_C16358_PerformedObservation_dateRange ;
	cbc:hasItem :BC-ACME_BC_C16358_PerformedObservation_negationReason ;
	cbc:hasItem :BC-ACME_BC_C16358_PerformedObservation_bodyPositionCode ;
	cbc:hasItem :BC-ACME_BC_C16358_PerformedObservation_targetAnatomicSiteLateralityCode ;
	cbc:hasItem :BC-ACME_BC_C16358_PerformedClinicalResult_value ;
	cbc:hasItem :BC-ACME_BC_C16358_PerformedClinicalResult_baselineIndicator ;
	rdfs:label "Body Mass Index (BC_C16358)"^^xsd:string ;
	isoI:hasIdentifier mdrItems:SI-ACME_BC_C16358-1 ;
	isoR:hasState mdrItems:RS-ACME_BC_C16358-1 ;
	isoT:origin ""^^xsd:string ;
	isoT:changeDescription ""^^xsd:string ;
	isoT:creationDate "2016-01-01"^^xsd:date ;
	isoT:lastChangeDate "2016-01-01"^^xsd:date ;
	isoT:explanatoryComment ""^^xsd:string ;
.
:BC-ACME_BC_C16358_TPR
	rdf:type bo:BctReference ;
	rdfs:label "Biomedical Concept Template Reference"^^xsd:string ;
	bo:basedOnTemplate mdrBcts:BCT-Obs_PQR ;
	bo:ordinal "1"^^xsd:positiveInteger ;
	bo:enabled "true"^^xsd:boolean ;
	bo:optional "false"^^xsd:boolean ;
	bo:local_label ""^^xsd:string ;
.
mdrItems:SI-ACME_BC_C16358-1
	rdf:type isoI:ScopedIdentifier ;
	isoI:identifier "BC_C16358"^^xsd:string ;
	isoI:versionLabel "0.1"^^xsd:string ;
	isoI:version "1"^^xsd:positiveInteger ;
	isoI:hasScope mdrItems:NS-ACME ;
.
mdrItems:RS-ACME_BC_C16358-1
	rdf:type isoR:RegistrationState ;
	isoR:registrationStatus "Standard"^^xsd:string ;
	isoR:administrativeNote ""^^xsd:string ;
	isoR:effectiveDate "2016-01-01T00:00:00Z"^^xsd:dateTime ;
	isoR:untilDate "2016-01-01T00:00:00Z"^^xsd:dateTime ;
	isoR:unresolvedIssue ""^^xsd:string ;
	isoR:administrativeStatus ""^^xsd:string ;
	isoR:previousState "Qualified"^^xsd:string ;
	isoR:byAuthority mdrItems:RA-123456789 ;
.
:BC-ACME_BC_C16358_DefinedObservation_nameCode
	rdf:type cbc:Item ;
	cbc:ordinal "1"^^xsd:positiveInteger ;
	cbc:bridg_class "DefinedObservation"^^xsd:string ;
	cbc:bridg_attribute "nameCode"^^xsd:string ;
	cbc:alias "Test"^^xsd:string ;
	cbc:hasDatatype :BC-ACME_BC_C16358_DefinedObservation_nameCode_CD ;
	cbc:iso21090_datatype "CD"^^xsd:string ;
.
:BC-ACME_BC_C16358_DefinedObservation_nameCode_CD
	rdf:type cbc:Datatype ;
	cbc:iso21090_datatype "CD"^^xsd:string ;
	cbc:hasProperty :BC-ACME_BC_C16358_DefinedObservation_nameCode_CD_code ;
	cbc:hasProperty :BC-ACME_BC_C16358_DefinedObservation_nameCode_CD_originalText ;
.
:BC-ACME_BC_C16358_DefinedObservation_nameCode_CD_code
	rdf:type cbc:Property ;
	cbc:alias "Test Code (--TESTCD)"^^xsd:string ;
	cbc:hasThesaurusConcept :BC-ACME_BC_C16358_DefinedObservation_nameCode_CD_code_TR_1 ;
	cbc:ordinal "1"^^xsd:positiveInteger ;
	cbc:question_text "Question text"^^xsd:string ;
	cbc:prompt_text "Prompt text"^^xsd:string ;
	cbc:enabled "true"^^xsd:boolean ;
	cbc:collect "false"^^xsd:boolean ;
	cbc:bridg_path "DefinedObservation.nameCode.CD.code"^^xsd:string ;
	cbc:simple_datatype "string"^^xsd:string ;
	cbc:format ""^^xsd:string ;
.
:BC-ACME_BC_C16358_DefinedObservation_nameCode_CD_code_TR_1
	rdf:type bo:TcReference ;
	rdfs:label "Thesaurus Concept Reference"^^xsd:string ;
	bo:hasThesaurusConcept cCt:CLI-C66741_C16358 ;
	bo:ordinal "1"^^xsd:positiveInteger ;
	bo:enabled "true"^^xsd:boolean ;
	bo:optional "true"^^xsd:boolean ;
	bo:local_label ""^^xsd:string ;
.
:BC-ACME_BC_C16358_DefinedObservation_nameCode_CD_originalText
	rdf:type cbc:Property ;
	cbc:alias "Name"^^xsd:string ;
	cbc:hasComplexDatatype :BC-ACME_BC_C16358_DefinedObservation_nameCode_CD_originalText_ED ;
.
:BC-ACME_BC_C16358_DefinedObservation_nameCode_CD_originalText_ED
	rdf:type cbc:Datatype ;
	cbc:iso21090_datatype "ED"^^xsd:string ;
	cbc:hasProperty :BC-ACME_BC_C16358_DefinedObservation_nameCode_CD_originalText_ED_value ;
.
:BC-ACME_BC_C16358_DefinedObservation_nameCode_CD_originalText_ED_value
	rdf:type cbc:Property ;
	cbc:alias "Test Name (--TEST)"^^xsd:string ;
	cbc:hasThesaurusConcept :BC-ACME_BC_C16358_DefinedObservation_nameCode_CD_originalText_ED_value_TR_1 ;
	cbc:ordinal "1"^^xsd:positiveInteger ;
	cbc:question_text "Question text"^^xsd:string ;
	cbc:prompt_text "Prompt text"^^xsd:string ;
	cbc:enabled "true"^^xsd:boolean ;
	cbc:collect "false"^^xsd:boolean ;
	cbc:bridg_path "DefinedObservation.nameCode.CD.originalText.ED.value"^^xsd:string ;
	cbc:simple_datatype "string"^^xsd:string ;
	cbc:format ""^^xsd:string ;
.
:BC-ACME_BC_C16358_DefinedObservation_nameCode_CD_originalText_ED_value_TR_1
	rdf:type bo:TcReference ;
	rdfs:label "Thesaurus Concept Reference"^^xsd:string ;
	bo:hasThesaurusConcept cCt:CLI-C67153_C16358 ;
	bo:ordinal "1"^^xsd:positiveInteger ;
	bo:enabled "true"^^xsd:boolean ;
	bo:optional "true"^^xsd:boolean ;
	bo:local_label ""^^xsd:string ;
.
:BC-ACME_BC_C16358_DefinedObservation_targetAnatomicSiteCode
	rdf:type cbc:Item ;
	cbc:ordinal "2"^^xsd:positiveInteger ;
	cbc:bridg_class "DefinedObservation"^^xsd:string ;
	cbc:bridg_attribute "targetAnatomicSiteCode"^^xsd:string ;
	cbc:alias "SiteOfAdministration"^^xsd:string ;
	cbc:hasDatatype :BC-ACME_BC_C16358_DefinedObservation_targetAnatomicSiteCode_CD ;
	cbc:iso21090_datatype "CD"^^xsd:string ;
.
:BC-ACME_BC_C16358_DefinedObservation_targetAnatomicSiteCode_CD
	rdf:type cbc:Datatype ;
	cbc:iso21090_datatype "CD"^^xsd:string ;
	cbc:hasProperty :BC-ACME_BC_C16358_DefinedObservation_targetAnatomicSiteCode_CD_code ;
.
:BC-ACME_BC_C16358_DefinedObservation_targetAnatomicSiteCode_CD_code
	rdf:type cbc:Property ;
	cbc:alias "Location (--LOC)"^^xsd:string ;
	cbc:ordinal "1"^^xsd:positiveInteger ;
	cbc:question_text "Question text"^^xsd:string ;
	cbc:prompt_text "Prompt text"^^xsd:string ;
	cbc:enabled "false"^^xsd:boolean ;
	cbc:collect "true"^^xsd:boolean ;
	cbc:bridg_path "DefinedObservation.targetAnatomicSiteCode.CD.code"^^xsd:string ;
	cbc:simple_datatype "string"^^xsd:string ;
	cbc:format ""^^xsd:string ;
.
:BC-ACME_BC_C16358_DefinedObservation_methodCode
	rdf:type cbc:Item ;
	cbc:ordinal "3"^^xsd:positiveInteger ;
	cbc:bridg_class "DefinedObservation"^^xsd:string ;
	cbc:bridg_attribute "methodCode"^^xsd:string ;
	cbc:alias "Method"^^xsd:string ;
	cbc:hasDatatype :BC-ACME_BC_C16358_DefinedObservation_methodCode_CD ;
	cbc:iso21090_datatype "CD"^^xsd:string ;
.
:BC-ACME_BC_C16358_DefinedObservation_methodCode_CD
	rdf:type cbc:Datatype ;
	cbc:iso21090_datatype "CD"^^xsd:string ;
	cbc:hasProperty :BC-ACME_BC_C16358_DefinedObservation_methodCode_CD_code ;
.
:BC-ACME_BC_C16358_DefinedObservation_methodCode_CD_code
	rdf:type cbc:Property ;
	cbc:alias "Method Code (--METHOD)"^^xsd:string ;
	cbc:ordinal "1"^^xsd:positiveInteger ;
	cbc:question_text "Question text"^^xsd:string ;
	cbc:prompt_text "Prompt text"^^xsd:string ;
	cbc:enabled "false"^^xsd:boolean ;
	cbc:collect "true"^^xsd:boolean ;
	cbc:bridg_path "DefinedObservation.methodCode.CD.code"^^xsd:string ;
	cbc:simple_datatype "string"^^xsd:string ;
	cbc:format ""^^xsd:string ;
.
:BC-ACME_BC_C16358_PerformedObservation_dateRange
	rdf:type cbc:Item ;
	cbc:ordinal "4"^^xsd:positiveInteger ;
	cbc:bridg_class "PerformedObservation"^^xsd:string ;
	cbc:bridg_attribute "dateRange"^^xsd:string ;
	cbc:alias "DateTime"^^xsd:string ;
	cbc:hasDatatype :BC-ACME_BC_C16358_PerformedObservation_dateRange_IVL_TS_DATETIME ;
	cbc:iso21090_datatype "IVL_TS_DATETIME"^^xsd:string ;
.
:BC-ACME_BC_C16358_PerformedObservation_dateRange_IVL_TS_DATETIME
	rdf:type cbc:Datatype ;
	cbc:iso21090_datatype "IVL_TS_DATETIME"^^xsd:string ;
	cbc:hasProperty :BC-ACME_BC_C16358_PerformedObservation_dateRange_IVL_TS_DATETIME_low ;
.
:BC-ACME_BC_C16358_PerformedObservation_dateRange_IVL_TS_DATETIME_low
	rdf:type cbc:Property ;
	cbc:alias "Date"^^xsd:string ;
	cbc:hasComplexDatatype :BC-ACME_BC_C16358_PerformedObservation_dateRange_IVL_TS_DATETIME_low_TS_DATETIME ;
.
:BC-ACME_BC_C16358_PerformedObservation_dateRange_IVL_TS_DATETIME_low_TS_DATETIME
	rdf:type cbc:Datatype ;
	cbc:iso21090_datatype "TS_DATETIME"^^xsd:string ;
	cbc:hasProperty :BC-ACME_BC_C16358_PerformedObservation_dateRange_IVL_TS_DATETIME_low_TS_DATETIME_value ;
.
:BC-ACME_BC_C16358_PerformedObservation_dateRange_IVL_TS_DATETIME_low_TS_DATETIME_value
	rdf:type cbc:Property ;
	cbc:alias "Date and Time (--DTC)"^^xsd:string ;
	cbc:ordinal "1"^^xsd:positiveInteger ;
	cbc:question_text "Question text"^^xsd:string ;
	cbc:prompt_text "Prompt text"^^xsd:string ;
	cbc:enabled "true"^^xsd:boolean ;
	cbc:collect "true"^^xsd:boolean ;
	cbc:bridg_path "PerformedObservation.dateRange.IVL_TS_DATETIME.low.TS_DATETIME.value"^^xsd:string ;
	cbc:simple_datatype "dateTime"^^xsd:string ;
	cbc:format ""^^xsd:string ;
.
:BC-ACME_BC_C16358_PerformedObservation_negationReason
	rdf:type cbc:Item ;
	cbc:ordinal "5"^^xsd:positiveInteger ;
	cbc:bridg_class "PerformedObservation"^^xsd:string ;
	cbc:bridg_attribute "negationReason"^^xsd:string ;
	cbc:alias "ReasonNotDone"^^xsd:string ;
	cbc:hasDatatype :BC-ACME_BC_C16358_PerformedObservation_negationReason_SC ;
	cbc:iso21090_datatype "SC"^^xsd:string ;
.
:BC-ACME_BC_C16358_PerformedObservation_negationReason_SC
	rdf:type cbc:Datatype ;
	cbc:iso21090_datatype "SC"^^xsd:string ;
	cbc:hasProperty :BC-ACME_BC_C16358_PerformedObservation_negationReason_SC_code ;
.
:BC-ACME_BC_C16358_PerformedObservation_negationReason_SC_code
	rdf:type cbc:Property ;
	cbc:alias "Code"^^xsd:string ;
	cbc:hasComplexDatatype :BC-ACME_BC_C16358_PerformedObservation_negationReason_SC_code_CD ;
.
:BC-ACME_BC_C16358_PerformedObservation_negationReason_SC_code_CD
	rdf:type cbc:Datatype ;
	cbc:iso21090_datatype "CD"^^xsd:string ;
.
:BC-ACME_BC_C16358_PerformedObservation_bodyPositionCode
	rdf:type cbc:Item ;
	cbc:ordinal "6"^^xsd:positiveInteger ;
	cbc:bridg_class "PerformedObservation"^^xsd:string ;
	cbc:bridg_attribute "bodyPositionCode"^^xsd:string ;
	cbc:alias "Position"^^xsd:string ;
	cbc:hasDatatype :BC-ACME_BC_C16358_PerformedObservation_bodyPositionCode_CD ;
	cbc:iso21090_datatype "CD"^^xsd:string ;
.
:BC-ACME_BC_C16358_PerformedObservation_bodyPositionCode_CD
	rdf:type cbc:Datatype ;
	cbc:iso21090_datatype "CD"^^xsd:string ;
	cbc:hasProperty :BC-ACME_BC_C16358_PerformedObservation_bodyPositionCode_CD_code ;
.
:BC-ACME_BC_C16358_PerformedObservation_bodyPositionCode_CD_code
	rdf:type cbc:Property ;
	cbc:alias "Body Position (--POS)"^^xsd:string ;
	cbc:ordinal "1"^^xsd:positiveInteger ;
	cbc:question_text "Question text"^^xsd:string ;
	cbc:prompt_text "Prompt text"^^xsd:string ;
	cbc:enabled "true"^^xsd:boolean ;
	cbc:collect "false"^^xsd:boolean ;
	cbc:bridg_path "PerformedObservation.bodyPositionCode.CD.code"^^xsd:string ;
	cbc:simple_datatype "string"^^xsd:string ;
	cbc:format ""^^xsd:string ;
.
:BC-ACME_BC_C16358_PerformedObservation_targetAnatomicSiteLateralityCode
	rdf:type cbc:Item ;
	cbc:ordinal "7"^^xsd:positiveInteger ;
	cbc:bridg_class "PerformedObservation"^^xsd:string ;
	cbc:bridg_attribute "targetAnatomicSiteLateralityCode"^^xsd:string ;
	cbc:alias "Laterality"^^xsd:string ;
	cbc:hasDatatype :BC-ACME_BC_C16358_PerformedObservation_targetAnatomicSiteLateralityCode_CD ;
	cbc:iso21090_datatype "CD"^^xsd:string ;
.
:BC-ACME_BC_C16358_PerformedObservation_targetAnatomicSiteLateralityCode_CD
	rdf:type cbc:Datatype ;
	cbc:iso21090_datatype "CD"^^xsd:string ;
	cbc:hasProperty :BC-ACME_BC_C16358_PerformedObservation_targetAnatomicSiteLateralityCode_CD_code ;
.
:BC-ACME_BC_C16358_PerformedObservation_targetAnatomicSiteLateralityCode_CD_code
	rdf:type cbc:Property ;
	cbc:alias "Laterality (--LAT)"^^xsd:string ;
	cbc:ordinal "1"^^xsd:positiveInteger ;
	cbc:question_text "Question text"^^xsd:string ;
	cbc:prompt_text "Prompt text"^^xsd:string ;
	cbc:enabled "false"^^xsd:boolean ;
	cbc:collect "true"^^xsd:boolean ;
	cbc:bridg_path "PerformedObservation.targetAnatomicSiteLateralityCode.CD.code"^^xsd:string ;
	cbc:simple_datatype "string"^^xsd:string ;
	cbc:format ""^^xsd:string ;
.
:BC-ACME_BC_C16358_PerformedClinicalResult_value
	rdf:type cbc:Item ;
	cbc:ordinal "8"^^xsd:positiveInteger ;
	cbc:bridg_class "PerformedClinicalResult"^^xsd:string ;
	cbc:bridg_attribute "value"^^xsd:string ;
	cbc:alias "Result"^^xsd:string ;
	cbc:hasDatatype :BC-ACME_BC_C16358_PerformedClinicalResult_value_PQR ;
	cbc:iso21090_datatype "PQR"^^xsd:string ;
.
:BC-ACME_BC_C16358_PerformedClinicalResult_value_PQR
	rdf:type cbc:Datatype ;
	cbc:iso21090_datatype "PQR"^^xsd:string ;
	cbc:hasProperty :BC-ACME_BC_C16358_PerformedClinicalResult_value_PQR_value ;
	cbc:hasProperty :BC-ACME_BC_C16358_PerformedClinicalResult_value_PQR_code ;
.
:BC-ACME_BC_C16358_PerformedClinicalResult_value_PQR_value
	rdf:type cbc:Property ;
	cbc:alias "Result Value (--ORRES)"^^xsd:string ;
	cbc:ordinal "1"^^xsd:positiveInteger ;
	cbc:question_text "Question text"^^xsd:string ;
	cbc:prompt_text "Prompt text"^^xsd:string ;
	cbc:enabled "true"^^xsd:boolean ;
	cbc:collect "true"^^xsd:boolean ;
	cbc:bridg_path "PerformedClinicalResult.value.PQR.value"^^xsd:string ;
	cbc:simple_datatype "float"^^xsd:string ;
	cbc:format ""^^xsd:string ;
.
:BC-ACME_BC_C16358_PerformedClinicalResult_value_PQR_code
	rdf:type cbc:Property ;
	cbc:alias "Result Units (--ORRESU)"^^xsd:string ;
	cbc:hasThesaurusConcept :BC-ACME_BC_C16358_PerformedClinicalResult_value_PQR_code_TR_1 ;
	cbc:ordinal "2"^^xsd:positiveInteger ;
	cbc:question_text "Question text"^^xsd:string ;
	cbc:prompt_text "Prompt text"^^xsd:string ;
	cbc:enabled "true"^^xsd:boolean ;
	cbc:collect "true"^^xsd:boolean ;
	cbc:bridg_path "PerformedClinicalResult.value.PQR.code"^^xsd:string ;
	cbc:simple_datatype "string"^^xsd:string ;
	cbc:format ""^^xsd:string ;
.
:BC-ACME_BC_C16358_PerformedClinicalResult_value_PQR_code_TR_1
	rdf:type bo:TcReference ;
	rdfs:label "Thesaurus Concept Reference"^^xsd:string ;
	bo:hasThesaurusConcept cCt:CLI-C66770_C49671 ;
	bo:ordinal "1"^^xsd:positiveInteger ;
	bo:enabled "true"^^xsd:boolean ;
	bo:optional "true"^^xsd:boolean ;
	bo:local_label ""^^xsd:string ;
.
:BC-ACME_BC_C16358_PerformedClinicalResult_baselineIndicator
	rdf:type cbc:Item ;
	cbc:ordinal "9"^^xsd:positiveInteger ;
	cbc:bridg_class "PerformedClinicalResult"^^xsd:string ;
	cbc:bridg_attribute "baselineIndicator"^^xsd:string ;
	cbc:alias "Baseline"^^xsd:string ;
	cbc:hasDatatype :BC-ACME_BC_C16358_PerformedClinicalResult_baselineIndicator_BL ;
	cbc:iso21090_datatype "BL"^^xsd:string ;
.
:BC-ACME_BC_C16358_PerformedClinicalResult_baselineIndicator_BL
	rdf:type cbc:Datatype ;
	cbc:iso21090_datatype "BL"^^xsd:string ;
	cbc:hasProperty :BC-ACME_BC_C16358_PerformedClinicalResult_baselineIndicator_BL_value ;
.
:BC-ACME_BC_C16358_PerformedClinicalResult_baselineIndicator_BL_value
	rdf:type cbc:Property ;
	cbc:alias "Baseline (--BLFL)"^^xsd:string ;
	cbc:hasThesaurusConcept :BC-ACME_BC_C16358_PerformedClinicalResult_baselineIndicator_BL_value_TR_1 ;
	cbc:hasThesaurusConcept :BC-ACME_BC_C16358_PerformedClinicalResult_baselineIndicator_BL_value_TR_2 ;
	cbc:ordinal "1"^^xsd:positiveInteger ;
	cbc:question_text "Question text"^^xsd:string ;
	cbc:prompt_text "Prompt text"^^xsd:string ;
	cbc:enabled "false"^^xsd:boolean ;
	cbc:collect "true"^^xsd:boolean ;
	cbc:bridg_path "PerformedClinicalResult.baselineIndicator.BL.value"^^xsd:string ;
	cbc:simple_datatype "boolean"^^xsd:string ;
	cbc:format ""^^xsd:string ;
.
:BC-ACME_BC_C16358_PerformedClinicalResult_baselineIndicator_BL_value_TR_1
	rdf:type bo:TcReference ;
	rdfs:label "Thesaurus Concept Reference"^^xsd:string ;
	bo:hasThesaurusConcept cCt:CLI-C66742_C49487 ;
	bo:ordinal "1"^^xsd:positiveInteger ;
	bo:enabled "true"^^xsd:boolean ;
	bo:optional "true"^^xsd:boolean ;
	bo:local_label ""^^xsd:string ;
.
:BC-ACME_BC_C16358_PerformedClinicalResult_baselineIndicator_BL_value_TR_2
	rdf:type bo:TcReference ;
	rdfs:label "Thesaurus Concept Reference"^^xsd:string ;
	bo:hasThesaurusConcept cCt:CLI-C66742_C49488 ;
	bo:ordinal "2"^^xsd:positiveInteger ;
	bo:enabled "true"^^xsd:boolean ;
	bo:optional "true"^^xsd:boolean ;
	bo:local_label ""^^xsd:string ;
.
:BC-ACME_BC_C49677
	rdf:type cbc:BiomedicalConceptInstance ;
	cbc:basedOnTemplate :BC-ACME_BC_C49677_TPR ;
	cbc:hasItem :BC-ACME_BC_C49677_DefinedObservation_nameCode ;
	cbc:hasItem :BC-ACME_BC_C49677_DefinedObservation_targetAnatomicSiteCode ;
	cbc:hasItem :BC-ACME_BC_C49677_DefinedObservation_methodCode ;
	cbc:hasItem :BC-ACME_BC_C49677_PerformedObservation_dateRange ;
	cbc:hasItem :BC-ACME_BC_C49677_PerformedObservation_negationReason ;
	cbc:hasItem :BC-ACME_BC_C49677_PerformedObservation_bodyPositionCode ;
	cbc:hasItem :BC-ACME_BC_C49677_PerformedObservation_targetAnatomicSiteLateralityCode ;
	cbc:hasItem :BC-ACME_BC_C49677_PerformedClinicalResult_value ;
	cbc:hasItem :BC-ACME_BC_C49677_PerformedClinicalResult_baselineIndicator ;
	rdfs:label "Heart Rate (BC_C49677)"^^xsd:string ;
	isoI:hasIdentifier mdrItems:SI-ACME_BC_C49677-1 ;
	isoR:hasState mdrItems:RS-ACME_BC_C49677-1 ;
	isoT:origin ""^^xsd:string ;
	isoT:changeDescription ""^^xsd:string ;
	isoT:creationDate "2016-01-01"^^xsd:date ;
	isoT:lastChangeDate "2016-01-01"^^xsd:date ;
	isoT:explanatoryComment ""^^xsd:string ;
.
:BC-ACME_BC_C49677_TPR
	rdf:type bo:BctReference ;
	rdfs:label "Biomedical Concept Template Reference"^^xsd:string ;
	bo:basedOnTemplate mdrBcts:BCT-Obs_PQR ;
	bo:ordinal "1"^^xsd:positiveInteger ;
	bo:enabled "true"^^xsd:boolean ;
	bo:optional "false"^^xsd:boolean ;
	bo:local_label ""^^xsd:string ;
.
mdrItems:SI-ACME_BC_C49677-1
	rdf:type isoI:ScopedIdentifier ;
	isoI:identifier "BC_C49677"^^xsd:string ;
	isoI:versionLabel "0.1"^^xsd:string ;
	isoI:version "1"^^xsd:positiveInteger ;
	isoI:hasScope mdrItems:NS-ACME ;
.
mdrItems:RS-ACME_BC_C49677-1
	rdf:type isoR:RegistrationState ;
	isoR:registrationStatus "Standard"^^xsd:string ;
	isoR:administrativeNote ""^^xsd:string ;
	isoR:effectiveDate "2016-01-01T00:00:00Z"^^xsd:dateTime ;
	isoR:untilDate "2016-01-01T00:00:00Z"^^xsd:dateTime ;
	isoR:unresolvedIssue ""^^xsd:string ;
	isoR:administrativeStatus ""^^xsd:string ;
	isoR:previousState "Qualified"^^xsd:string ;
	isoR:byAuthority mdrItems:RA-123456789 ;
.
:BC-ACME_BC_C49677_DefinedObservation_nameCode
	rdf:type cbc:Item ;
	cbc:ordinal "1"^^xsd:positiveInteger ;
	cbc:bridg_class "DefinedObservation"^^xsd:string ;
	cbc:bridg_attribute "nameCode"^^xsd:string ;
	cbc:alias "Test"^^xsd:string ;
	cbc:hasDatatype :BC-ACME_BC_C49677_DefinedObservation_nameCode_CD ;
	cbc:iso21090_datatype "CD"^^xsd:string ;
.
:BC-ACME_BC_C49677_DefinedObservation_nameCode_CD
	rdf:type cbc:Datatype ;
	cbc:iso21090_datatype "CD"^^xsd:string ;
	cbc:hasProperty :BC-ACME_BC_C49677_DefinedObservation_nameCode_CD_code ;
	cbc:hasProperty :BC-ACME_BC_C49677_DefinedObservation_nameCode_CD_originalText ;
.
:BC-ACME_BC_C49677_DefinedObservation_nameCode_CD_code
	rdf:type cbc:Property ;
	cbc:alias "Test Code (--TESTCD)"^^xsd:string ;
	cbc:hasThesaurusConcept :BC-ACME_BC_C49677_DefinedObservation_nameCode_CD_code_TR_1 ;
	cbc:ordinal "1"^^xsd:positiveInteger ;
	cbc:question_text "Question text"^^xsd:string ;
	cbc:prompt_text "Prompt text"^^xsd:string ;
	cbc:enabled "true"^^xsd:boolean ;
	cbc:collect "false"^^xsd:boolean ;
	cbc:bridg_path "DefinedObservation.nameCode.CD.code"^^xsd:string ;
	cbc:simple_datatype "string"^^xsd:string ;
	cbc:format ""^^xsd:string ;
.
:BC-ACME_BC_C49677_DefinedObservation_nameCode_CD_code_TR_1
	rdf:type bo:TcReference ;
	rdfs:label "Thesaurus Concept Reference"^^xsd:string ;
	bo:hasThesaurusConcept cCt:CLI-C66741_C49677 ;
	bo:ordinal "1"^^xsd:positiveInteger ;
	bo:enabled "true"^^xsd:boolean ;
	bo:optional "true"^^xsd:boolean ;
	bo:local_label ""^^xsd:string ;
.
:BC-ACME_BC_C49677_DefinedObservation_nameCode_CD_originalText
	rdf:type cbc:Property ;
	cbc:alias "Name"^^xsd:string ;
	cbc:hasComplexDatatype :BC-ACME_BC_C49677_DefinedObservation_nameCode_CD_originalText_ED ;
.
:BC-ACME_BC_C49677_DefinedObservation_nameCode_CD_originalText_ED
	rdf:type cbc:Datatype ;
	cbc:iso21090_datatype "ED"^^xsd:string ;
	cbc:hasProperty :BC-ACME_BC_C49677_DefinedObservation_nameCode_CD_originalText_ED_value ;
.
:BC-ACME_BC_C49677_DefinedObservation_nameCode_CD_originalText_ED_value
	rdf:type cbc:Property ;
	cbc:alias "Test Name (--TEST)"^^xsd:string ;
	cbc:hasThesaurusConcept :BC-ACME_BC_C49677_DefinedObservation_nameCode_CD_originalText_ED_value_TR_1 ;
	cbc:ordinal "1"^^xsd:positiveInteger ;
	cbc:question_text "Question text"^^xsd:string ;
	cbc:prompt_text "Prompt text"^^xsd:string ;
	cbc:enabled "true"^^xsd:boolean ;
	cbc:collect "false"^^xsd:boolean ;
	cbc:bridg_path "DefinedObservation.nameCode.CD.originalText.ED.value"^^xsd:string ;
	cbc:simple_datatype "string"^^xsd:string ;
	cbc:format ""^^xsd:string ;
.
:BC-ACME_BC_C49677_DefinedObservation_nameCode_CD_originalText_ED_value_TR_1
	rdf:type bo:TcReference ;
	rdfs:label "Thesaurus Concept Reference"^^xsd:string ;
	bo:hasThesaurusConcept cCt:CLI-C67153_C49677 ;
	bo:ordinal "1"^^xsd:positiveInteger ;
	bo:enabled "true"^^xsd:boolean ;
	bo:optional "true"^^xsd:boolean ;
	bo:local_label ""^^xsd:string ;
.
:BC-ACME_BC_C49677_DefinedObservation_targetAnatomicSiteCode
	rdf:type cbc:Item ;
	cbc:ordinal "2"^^xsd:positiveInteger ;
	cbc:bridg_class "DefinedObservation"^^xsd:string ;
	cbc:bridg_attribute "targetAnatomicSiteCode"^^xsd:string ;
	cbc:alias "SiteOfAdministration"^^xsd:string ;
	cbc:hasDatatype :BC-ACME_BC_C49677_DefinedObservation_targetAnatomicSiteCode_CD ;
	cbc:iso21090_datatype "CD"^^xsd:string ;
.
:BC-ACME_BC_C49677_DefinedObservation_targetAnatomicSiteCode_CD
	rdf:type cbc:Datatype ;
	cbc:iso21090_datatype "CD"^^xsd:string ;
	cbc:hasProperty :BC-ACME_BC_C49677_DefinedObservation_targetAnatomicSiteCode_CD_code ;
.
:BC-ACME_BC_C49677_DefinedObservation_targetAnatomicSiteCode_CD_code
	rdf:type cbc:Property ;
	cbc:alias "Location (--LOC)"^^xsd:string ;
	cbc:ordinal "1"^^xsd:positiveInteger ;
	cbc:question_text "Question text"^^xsd:string ;
	cbc:prompt_text "Prompt text"^^xsd:string ;
	cbc:enabled "false"^^xsd:boolean ;
	cbc:collect "true"^^xsd:boolean ;
	cbc:bridg_path "DefinedObservation.targetAnatomicSiteCode.CD.code"^^xsd:string ;
	cbc:simple_datatype "string"^^xsd:string ;
	cbc:format ""^^xsd:string ;
.
:BC-ACME_BC_C49677_DefinedObservation_methodCode
	rdf:type cbc:Item ;
	cbc:ordinal "3"^^xsd:positiveInteger ;
	cbc:bridg_class "DefinedObservation"^^xsd:string ;
	cbc:bridg_attribute "methodCode"^^xsd:string ;
	cbc:alias "Method"^^xsd:string ;
	cbc:hasDatatype :BC-ACME_BC_C49677_DefinedObservation_methodCode_CD ;
	cbc:iso21090_datatype "CD"^^xsd:string ;
.
:BC-ACME_BC_C49677_DefinedObservation_methodCode_CD
	rdf:type cbc:Datatype ;
	cbc:iso21090_datatype "CD"^^xsd:string ;
	cbc:hasProperty :BC-ACME_BC_C49677_DefinedObservation_methodCode_CD_code ;
.
:BC-ACME_BC_C49677_DefinedObservation_methodCode_CD_code
	rdf:type cbc:Property ;
	cbc:alias "Method Code (--METHOD)"^^xsd:string ;
	cbc:ordinal "1"^^xsd:positiveInteger ;
	cbc:question_text "Question text"^^xsd:string ;
	cbc:prompt_text "Prompt text"^^xsd:string ;
	cbc:enabled "false"^^xsd:boolean ;
	cbc:collect "true"^^xsd:boolean ;
	cbc:bridg_path "DefinedObservation.methodCode.CD.code"^^xsd:string ;
	cbc:simple_datatype "string"^^xsd:string ;
	cbc:format ""^^xsd:string ;
.
:BC-ACME_BC_C49677_PerformedObservation_dateRange
	rdf:type cbc:Item ;
	cbc:ordinal "4"^^xsd:positiveInteger ;
	cbc:bridg_class "PerformedObservation"^^xsd:string ;
	cbc:bridg_attribute "dateRange"^^xsd:string ;
	cbc:alias "DateTime"^^xsd:string ;
	cbc:hasDatatype :BC-ACME_BC_C49677_PerformedObservation_dateRange_IVL_TS_DATETIME ;
	cbc:iso21090_datatype "IVL_TS_DATETIME"^^xsd:string ;
.
:BC-ACME_BC_C49677_PerformedObservation_dateRange_IVL_TS_DATETIME
	rdf:type cbc:Datatype ;
	cbc:iso21090_datatype "IVL_TS_DATETIME"^^xsd:string ;
	cbc:hasProperty :BC-ACME_BC_C49677_PerformedObservation_dateRange_IVL_TS_DATETIME_low ;
.
:BC-ACME_BC_C49677_PerformedObservation_dateRange_IVL_TS_DATETIME_low
	rdf:type cbc:Property ;
	cbc:alias "Date"^^xsd:string ;
	cbc:hasComplexDatatype :BC-ACME_BC_C49677_PerformedObservation_dateRange_IVL_TS_DATETIME_low_TS_DATETIME ;
.
:BC-ACME_BC_C49677_PerformedObservation_dateRange_IVL_TS_DATETIME_low_TS_DATETIME
	rdf:type cbc:Datatype ;
	cbc:iso21090_datatype "TS_DATETIME"^^xsd:string ;
	cbc:hasProperty :BC-ACME_BC_C49677_PerformedObservation_dateRange_IVL_TS_DATETIME_low_TS_DATETIME_value ;
.
:BC-ACME_BC_C49677_PerformedObservation_dateRange_IVL_TS_DATETIME_low_TS_DATETIME_value
	rdf:type cbc:Property ;
	cbc:alias "Date and Time (--DTC)"^^xsd:string ;
	cbc:ordinal "1"^^xsd:positiveInteger ;
	cbc:question_text "Question text"^^xsd:string ;
	cbc:prompt_text "Prompt text"^^xsd:string ;
	cbc:enabled "true"^^xsd:boolean ;
	cbc:collect "true"^^xsd:boolean ;
	cbc:bridg_path "PerformedObservation.dateRange.IVL_TS_DATETIME.low.TS_DATETIME.value"^^xsd:string ;
	cbc:simple_datatype "dateTime"^^xsd:string ;
	cbc:format ""^^xsd:string ;
.
:BC-ACME_BC_C49677_PerformedObservation_negationReason
	rdf:type cbc:Item ;
	cbc:ordinal "5"^^xsd:positiveInteger ;
	cbc:bridg_class "PerformedObservation"^^xsd:string ;
	cbc:bridg_attribute "negationReason"^^xsd:string ;
	cbc:alias "ReasonNotDone"^^xsd:string ;
	cbc:hasDatatype :BC-ACME_BC_C49677_PerformedObservation_negationReason_SC ;
	cbc:iso21090_datatype "SC"^^xsd:string ;
.
:BC-ACME_BC_C49677_PerformedObservation_negationReason_SC
	rdf:type cbc:Datatype ;
	cbc:iso21090_datatype "SC"^^xsd:string ;
	cbc:hasProperty :BC-ACME_BC_C49677_PerformedObservation_negationReason_SC_code ;
.
:BC-ACME_BC_C49677_PerformedObservation_negationReason_SC_code
	rdf:type cbc:Property ;
	cbc:alias "Code"^^xsd:string ;
	cbc:hasComplexDatatype :BC-ACME_BC_C49677_PerformedObservation_negationReason_SC_code_CD ;
.
:BC-ACME_BC_C49677_PerformedObservation_negationReason_SC_code_CD
	rdf:type cbc:Datatype ;
	cbc:iso21090_datatype "CD"^^xsd:string ;
.
:BC-ACME_BC_C49677_PerformedObservation_bodyPositionCode
	rdf:type cbc:Item ;
	cbc:ordinal "6"^^xsd:positiveInteger ;
	cbc:bridg_class "PerformedObservation"^^xsd:string ;
	cbc:bridg_attribute "bodyPositionCode"^^xsd:string ;
	cbc:alias "Position"^^xsd:string ;
	cbc:hasDatatype :BC-ACME_BC_C49677_PerformedObservation_bodyPositionCode_CD ;
	cbc:iso21090_datatype "CD"^^xsd:string ;
.
:BC-ACME_BC_C49677_PerformedObservation_bodyPositionCode_CD
	rdf:type cbc:Datatype ;
	cbc:iso21090_datatype "CD"^^xsd:string ;
	cbc:hasProperty :BC-ACME_BC_C49677_PerformedObservation_bodyPositionCode_CD_code ;
.
:BC-ACME_BC_C49677_PerformedObservation_bodyPositionCode_CD_code
	rdf:type cbc:Property ;
	cbc:alias "Body Position (--POS)"^^xsd:string ;
	cbc:hasThesaurusConcept :BC-ACME_BC_C49677_PerformedObservation_bodyPositionCode_CD_code_TR_1 ;
	cbc:hasThesaurusConcept :BC-ACME_BC_C49677_PerformedObservation_bodyPositionCode_CD_code_TR_2 ;
	cbc:hasThesaurusConcept :BC-ACME_BC_C49677_PerformedObservation_bodyPositionCode_CD_code_TR_3 ;
	cbc:ordinal "1"^^xsd:positiveInteger ;
	cbc:question_text "Question text"^^xsd:string ;
	cbc:prompt_text "Prompt text"^^xsd:string ;
	cbc:enabled "true"^^xsd:boolean ;
	cbc:collect "true"^^xsd:boolean ;
	cbc:bridg_path "PerformedObservation.bodyPositionCode.CD.code"^^xsd:string ;
	cbc:simple_datatype "string"^^xsd:string ;
	cbc:format ""^^xsd:string ;
.
:BC-ACME_BC_C49677_PerformedObservation_bodyPositionCode_CD_code_TR_1
	rdf:type bo:TcReference ;
	rdfs:label "Thesaurus Concept Reference"^^xsd:string ;
	bo:hasThesaurusConcept cCt:CLI-C71148_C62122 ;
	bo:ordinal "1"^^xsd:positiveInteger ;
	bo:enabled "true"^^xsd:boolean ;
	bo:optional "true"^^xsd:boolean ;
	bo:local_label ""^^xsd:string ;
.
:BC-ACME_BC_C49677_PerformedObservation_bodyPositionCode_CD_code_TR_2
	rdf:type bo:TcReference ;
	rdfs:label "Thesaurus Concept Reference"^^xsd:string ;
	bo:hasThesaurusConcept cCt:CLI-C71148_C62166 ;
	bo:ordinal "2"^^xsd:positiveInteger ;
	bo:enabled "true"^^xsd:boolean ;
	bo:optional "true"^^xsd:boolean ;
	bo:local_label ""^^xsd:string ;
.
:BC-ACME_BC_C49677_PerformedObservation_bodyPositionCode_CD_code_TR_3
	rdf:type bo:TcReference ;
	rdfs:label "Thesaurus Concept Reference"^^xsd:string ;
	bo:hasThesaurusConcept cCt:CLI-C71148_C62167 ;
	bo:ordinal "3"^^xsd:positiveInteger ;
	bo:enabled "true"^^xsd:boolean ;
	bo:optional "true"^^xsd:boolean ;
	bo:local_label ""^^xsd:string ;
.
:BC-ACME_BC_C49677_PerformedObservation_targetAnatomicSiteLateralityCode
	rdf:type cbc:Item ;
	cbc:ordinal "7"^^xsd:positiveInteger ;
	cbc:bridg_class "PerformedObservation"^^xsd:string ;
	cbc:bridg_attribute "targetAnatomicSiteLateralityCode"^^xsd:string ;
	cbc:alias "Laterality"^^xsd:string ;
	cbc:hasDatatype :BC-ACME_BC_C49677_PerformedObservation_targetAnatomicSiteLateralityCode_CD ;
	cbc:iso21090_datatype "CD"^^xsd:string ;
.
:BC-ACME_BC_C49677_PerformedObservation_targetAnatomicSiteLateralityCode_CD
	rdf:type cbc:Datatype ;
	cbc:iso21090_datatype "CD"^^xsd:string ;
	cbc:hasProperty :BC-ACME_BC_C49677_PerformedObservation_targetAnatomicSiteLateralityCode_CD_code ;
.
:BC-ACME_BC_C49677_PerformedObservation_targetAnatomicSiteLateralityCode_CD_code
	rdf:type cbc:Property ;
	cbc:alias "Laterality (--LAT)"^^xsd:string ;
	cbc:ordinal "1"^^xsd:positiveInteger ;
	cbc:question_text "Question text"^^xsd:string ;
	cbc:prompt_text "Prompt text"^^xsd:string ;
	cbc:enabled "false"^^xsd:boolean ;
	cbc:collect "true"^^xsd:boolean ;
	cbc:bridg_path "PerformedObservation.targetAnatomicSiteLateralityCode.CD.code"^^xsd:string ;
	cbc:simple_datatype "string"^^xsd:string ;
	cbc:format ""^^xsd:string ;
.
:BC-ACME_BC_C49677_PerformedClinicalResult_value
	rdf:type cbc:Item ;
	cbc:ordinal "8"^^xsd:positiveInteger ;
	cbc:bridg_class "PerformedClinicalResult"^^xsd:string ;
	cbc:bridg_attribute "value"^^xsd:string ;
	cbc:alias "Result"^^xsd:string ;
	cbc:hasDatatype :BC-ACME_BC_C49677_PerformedClinicalResult_value_PQR ;
	cbc:iso21090_datatype "PQR"^^xsd:string ;
.
:BC-ACME_BC_C49677_PerformedClinicalResult_value_PQR
	rdf:type cbc:Datatype ;
	cbc:iso21090_datatype "PQR"^^xsd:string ;
	cbc:hasProperty :BC-ACME_BC_C49677_PerformedClinicalResult_value_PQR_value ;
	cbc:hasProperty :BC-ACME_BC_C49677_PerformedClinicalResult_value_PQR_code ;
.
:BC-ACME_BC_C49677_PerformedClinicalResult_value_PQR_value
	rdf:type cbc:Property ;
	cbc:alias "Result Value (--ORRES)"^^xsd:string ;
	cbc:ordinal "1"^^xsd:positiveInteger ;
	cbc:question_text "Question text"^^xsd:string ;
	cbc:prompt_text "Prompt text"^^xsd:string ;
	cbc:enabled "true"^^xsd:boolean ;
	cbc:collect "true"^^xsd:boolean ;
	cbc:bridg_path "PerformedClinicalResult.value.PQR.value"^^xsd:string ;
	cbc:simple_datatype "float"^^xsd:string ;
	cbc:format ""^^xsd:string ;
.
:BC-ACME_BC_C49677_PerformedClinicalResult_value_PQR_code
	rdf:type cbc:Property ;
	cbc:alias "Result Units (--ORRESU)"^^xsd:string ;
	cbc:hasThesaurusConcept :BC-ACME_BC_C49677_PerformedClinicalResult_value_PQR_code_TR_1 ;
	cbc:ordinal "2"^^xsd:positiveInteger ;
	cbc:question_text "Question text"^^xsd:string ;
	cbc:prompt_text "Prompt text"^^xsd:string ;
	cbc:enabled "true"^^xsd:boolean ;
	cbc:collect "true"^^xsd:boolean ;
	cbc:bridg_path "PerformedClinicalResult.value.PQR.code"^^xsd:string ;
	cbc:simple_datatype "string"^^xsd:string ;
	cbc:format ""^^xsd:string ;
.
:BC-ACME_BC_C49677_PerformedClinicalResult_value_PQR_code_TR_1
	rdf:type bo:TcReference ;
	rdfs:label "Thesaurus Concept Reference"^^xsd:string ;
	bo:hasThesaurusConcept cCt:CLI-C66770_C49673 ;
	bo:ordinal "1"^^xsd:positiveInteger ;
	bo:enabled "true"^^xsd:boolean ;
	bo:optional "true"^^xsd:boolean ;
	bo:local_label ""^^xsd:string ;
.
:BC-ACME_BC_C49677_PerformedClinicalResult_baselineIndicator
	rdf:type cbc:Item ;
	cbc:ordinal "9"^^xsd:positiveInteger ;
	cbc:bridg_class "PerformedClinicalResult"^^xsd:string ;
	cbc:bridg_attribute "baselineIndicator"^^xsd:string ;
	cbc:alias "Baseline"^^xsd:string ;
	cbc:hasDatatype :BC-ACME_BC_C49677_PerformedClinicalResult_baselineIndicator_BL ;
	cbc:iso21090_datatype "BL"^^xsd:string ;
.
:BC-ACME_BC_C49677_PerformedClinicalResult_baselineIndicator_BL
	rdf:type cbc:Datatype ;
	cbc:iso21090_datatype "BL"^^xsd:string ;
	cbc:hasProperty :BC-ACME_BC_C49677_PerformedClinicalResult_baselineIndicator_BL_value ;
.
:BC-ACME_BC_C49677_PerformedClinicalResult_baselineIndicator_BL_value
	rdf:type cbc:Property ;
	cbc:alias "Baseline (--BLFL)"^^xsd:string ;
	cbc:hasThesaurusConcept :BC-ACME_BC_C49677_PerformedClinicalResult_baselineIndicator_BL_value_TR_1 ;
	cbc:hasThesaurusConcept :BC-ACME_BC_C49677_PerformedClinicalResult_baselineIndicator_BL_value_TR_2 ;
	cbc:ordinal "1"^^xsd:positiveInteger ;
	cbc:question_text "Question text"^^xsd:string ;
	cbc:prompt_text "Prompt text"^^xsd:string ;
	cbc:enabled "false"^^xsd:boolean ;
	cbc:collect "true"^^xsd:boolean ;
	cbc:bridg_path "PerformedClinicalResult.baselineIndicator.BL.value"^^xsd:string ;
	cbc:simple_datatype "boolean"^^xsd:string ;
	cbc:format ""^^xsd:string ;
.
:BC-ACME_BC_C49677_PerformedClinicalResult_baselineIndicator_BL_value_TR_1
	rdf:type bo:TcReference ;
	rdfs:label "Thesaurus Concept Reference"^^xsd:string ;
	bo:hasThesaurusConcept cCt:CLI-C66742_C49487 ;
	bo:ordinal "1"^^xsd:positiveInteger ;
	bo:enabled "true"^^xsd:boolean ;
	bo:optional "true"^^xsd:boolean ;
	bo:local_label ""^^xsd:string ;
.
:BC-ACME_BC_C49677_PerformedClinicalResult_baselineIndicator_BL_value_TR_2
	rdf:type bo:TcReference ;
	rdfs:label "Thesaurus Concept Reference"^^xsd:string ;
	bo:hasThesaurusConcept cCt:CLI-C66742_C49488 ;
	bo:ordinal "2"^^xsd:positiveInteger ;
	bo:enabled "true"^^xsd:boolean ;
	bo:optional "true"^^xsd:boolean ;
	bo:local_label ""^^xsd:string ;
.
:BC-ACME_BC_C25298
	rdf:type cbc:BiomedicalConceptInstance ;
	cbc:basedOnTemplate :BC-ACME_BC_C25298_TPR ;
	cbc:hasItem :BC-ACME_BC_C25298_DefinedObservation_nameCode ;
	cbc:hasItem :BC-ACME_BC_C25298_DefinedObservation_targetAnatomicSiteCode ;
	cbc:hasItem :BC-ACME_BC_C25298_DefinedObservation_methodCode ;
	cbc:hasItem :BC-ACME_BC_C25298_PerformedObservation_dateRange ;
	cbc:hasItem :BC-ACME_BC_C25298_PerformedObservation_negationReason ;
	cbc:hasItem :BC-ACME_BC_C25298_PerformedObservation_bodyPositionCode ;
	cbc:hasItem :BC-ACME_BC_C25298_PerformedObservation_targetAnatomicSiteLateralityCode ;
	cbc:hasItem :BC-ACME_BC_C25298_PerformedClinicalResult_value ;
	cbc:hasItem :BC-ACME_BC_C25298_PerformedClinicalResult_baselineIndicator ;
	rdfs:label "Systolic Blood Pressure (BC_C25298)"^^xsd:string ;
	isoI:hasIdentifier mdrItems:SI-ACME_BC_C25298-1 ;
	isoR:hasState mdrItems:RS-ACME_BC_C25298-1 ;
	isoT:origin ""^^xsd:string ;
	isoT:changeDescription ""^^xsd:string ;
	isoT:creationDate "2016-01-01"^^xsd:date ;
	isoT:lastChangeDate "2016-01-01"^^xsd:date ;
	isoT:explanatoryComment ""^^xsd:string ;
.
:BC-ACME_BC_C25298_TPR
	rdf:type bo:BctReference ;
	rdfs:label "Biomedical Concept Template Reference"^^xsd:string ;
	bo:basedOnTemplate mdrBcts:BCT-Obs_PQR ;
	bo:ordinal "1"^^xsd:positiveInteger ;
	bo:enabled "true"^^xsd:boolean ;
	bo:optional "false"^^xsd:boolean ;
	bo:local_label ""^^xsd:string ;
.
mdrItems:SI-ACME_BC_C25298-1
	rdf:type isoI:ScopedIdentifier ;
	isoI:identifier "BC_C25298"^^xsd:string ;
	isoI:versionLabel "0.1"^^xsd:string ;
	isoI:version "1"^^xsd:positiveInteger ;
	isoI:hasScope mdrItems:NS-ACME ;
.
mdrItems:RS-ACME_BC_C25298-1
	rdf:type isoR:RegistrationState ;
	isoR:registrationStatus "Standard"^^xsd:string ;
	isoR:administrativeNote ""^^xsd:string ;
	isoR:effectiveDate "2016-01-01T00:00:00Z"^^xsd:dateTime ;
	isoR:untilDate "2016-01-01T00:00:00Z"^^xsd:dateTime ;
	isoR:unresolvedIssue ""^^xsd:string ;
	isoR:administrativeStatus ""^^xsd:string ;
	isoR:previousState "Qualified"^^xsd:string ;
	isoR:byAuthority mdrItems:RA-123456789 ;
.
:BC-ACME_BC_C25298_DefinedObservation_nameCode
	rdf:type cbc:Item ;
	cbc:ordinal "1"^^xsd:positiveInteger ;
	cbc:bridg_class "DefinedObservation"^^xsd:string ;
	cbc:bridg_attribute "nameCode"^^xsd:string ;
	cbc:alias "Test"^^xsd:string ;
	cbc:hasDatatype :BC-ACME_BC_C25298_DefinedObservation_nameCode_CD ;
	cbc:iso21090_datatype "CD"^^xsd:string ;
.
:BC-ACME_BC_C25298_DefinedObservation_nameCode_CD
	rdf:type cbc:Datatype ;
	cbc:iso21090_datatype "CD"^^xsd:string ;
	cbc:hasProperty :BC-ACME_BC_C25298_DefinedObservation_nameCode_CD_code ;
	cbc:hasProperty :BC-ACME_BC_C25298_DefinedObservation_nameCode_CD_originalText ;
.
:BC-ACME_BC_C25298_DefinedObservation_nameCode_CD_code
	rdf:type cbc:Property ;
	cbc:alias "Test Code (--TESTCD)"^^xsd:string ;
	cbc:hasThesaurusConcept :BC-ACME_BC_C25298_DefinedObservation_nameCode_CD_code_TR_1 ;
	cbc:ordinal "1"^^xsd:positiveInteger ;
	cbc:question_text ""^^xsd:string ;
	cbc:prompt_text ""^^xsd:string ;
	cbc:enabled "true"^^xsd:boolean ;
	cbc:collect "false"^^xsd:boolean ;
	cbc:bridg_path "DefinedObservation.nameCode.CD.code"^^xsd:string ;
	cbc:simple_datatype "string"^^xsd:string ;
	cbc:format ""^^xsd:string ;
.
:BC-ACME_BC_C25298_DefinedObservation_nameCode_CD_code_TR_1
	rdf:type bo:TcReference ;
	rdfs:label "Thesaurus Concept Reference"^^xsd:string ;
	bo:hasThesaurusConcept cCt:CLI-C66741_C25298 ;
	bo:ordinal "1"^^xsd:positiveInteger ;
	bo:enabled "true"^^xsd:boolean ;
	bo:optional "true"^^xsd:boolean ;
	bo:local_label ""^^xsd:string ;
.
:BC-ACME_BC_C25298_DefinedObservation_nameCode_CD_originalText
	rdf:type cbc:Property ;
	cbc:alias "Name"^^xsd:string ;
	cbc:hasComplexDatatype :BC-ACME_BC_C25298_DefinedObservation_nameCode_CD_originalText_ED ;
.
:BC-ACME_BC_C25298_DefinedObservation_nameCode_CD_originalText_ED
	rdf:type cbc:Datatype ;
	cbc:iso21090_datatype "ED"^^xsd:string ;
	cbc:hasProperty :BC-ACME_BC_C25298_DefinedObservation_nameCode_CD_originalText_ED_value ;
.
:BC-ACME_BC_C25298_DefinedObservation_nameCode_CD_originalText_ED_value
	rdf:type cbc:Property ;
	cbc:alias "Test Name (--TEST)"^^xsd:string ;
	cbc:hasThesaurusConcept :BC-ACME_BC_C25298_DefinedObservation_nameCode_CD_originalText_ED_value_TR_1 ;
	cbc:ordinal "1"^^xsd:positiveInteger ;
	cbc:question_text ""^^xsd:string ;
	cbc:prompt_text ""^^xsd:string ;
	cbc:enabled "true"^^xsd:boolean ;
	cbc:collect "false"^^xsd:boolean ;
	cbc:bridg_path "DefinedObservation.nameCode.CD.originalText.ED.value"^^xsd:string ;
	cbc:simple_datatype "string"^^xsd:string ;
	cbc:format ""^^xsd:string ;
.
:BC-ACME_BC_C25298_DefinedObservation_nameCode_CD_originalText_ED_value_TR_1
	rdf:type bo:TcReference ;
	rdfs:label "Thesaurus Concept Reference"^^xsd:string ;
	bo:hasThesaurusConcept cCt:CLI-C67153_C25298 ;
	bo:ordinal "1"^^xsd:positiveInteger ;
	bo:enabled "true"^^xsd:boolean ;
	bo:optional "true"^^xsd:boolean ;
	bo:local_label ""^^xsd:string ;
.
:BC-ACME_BC_C25298_DefinedObservation_targetAnatomicSiteCode
	rdf:type cbc:Item ;
	cbc:ordinal "2"^^xsd:positiveInteger ;
	cbc:bridg_class "DefinedObservation"^^xsd:string ;
	cbc:bridg_attribute "targetAnatomicSiteCode"^^xsd:string ;
	cbc:alias "SiteOfAdministration"^^xsd:string ;
	cbc:hasDatatype :BC-ACME_BC_C25298_DefinedObservation_targetAnatomicSiteCode_CD ;
	cbc:iso21090_datatype "CD"^^xsd:string ;
.
:BC-ACME_BC_C25298_DefinedObservation_targetAnatomicSiteCode_CD
	rdf:type cbc:Datatype ;
	cbc:iso21090_datatype "CD"^^xsd:string ;
	cbc:hasProperty :BC-ACME_BC_C25298_DefinedObservation_targetAnatomicSiteCode_CD_code ;
.
:BC-ACME_BC_C25298_DefinedObservation_targetAnatomicSiteCode_CD_code
	rdf:type cbc:Property ;
	cbc:alias "Location (--LOC)"^^xsd:string ;
	cbc:ordinal "1"^^xsd:positiveInteger ;
	cbc:question_text "Location of test"^^xsd:string ;
	cbc:prompt_text "Location"^^xsd:string ;
	cbc:enabled "false"^^xsd:boolean ;
	cbc:collect "true"^^xsd:boolean ;
	cbc:bridg_path "DefinedObservation.targetAnatomicSiteCode.CD.code"^^xsd:string ;
	cbc:simple_datatype "string"^^xsd:string ;
	cbc:format ""^^xsd:string ;
.
:BC-ACME_BC_C25298_DefinedObservation_methodCode
	rdf:type cbc:Item ;
	cbc:ordinal "3"^^xsd:positiveInteger ;
	cbc:bridg_class "DefinedObservation"^^xsd:string ;
	cbc:bridg_attribute "methodCode"^^xsd:string ;
	cbc:alias "Method"^^xsd:string ;
	cbc:hasDatatype :BC-ACME_BC_C25298_DefinedObservation_methodCode_CD ;
	cbc:iso21090_datatype "CD"^^xsd:string ;
.
:BC-ACME_BC_C25298_DefinedObservation_methodCode_CD
	rdf:type cbc:Datatype ;
	cbc:iso21090_datatype "CD"^^xsd:string ;
	cbc:hasProperty :BC-ACME_BC_C25298_DefinedObservation_methodCode_CD_code ;
.
:BC-ACME_BC_C25298_DefinedObservation_methodCode_CD_code
	rdf:type cbc:Property ;
	cbc:alias "Method Code (--METHOD)"^^xsd:string ;
	cbc:ordinal "1"^^xsd:positiveInteger ;
	cbc:question_text "Question text"^^xsd:string ;
	cbc:prompt_text "Prompt text"^^xsd:string ;
	cbc:enabled "false"^^xsd:boolean ;
	cbc:collect "true"^^xsd:boolean ;
	cbc:bridg_path "DefinedObservation.methodCode.CD.code"^^xsd:string ;
	cbc:simple_datatype "string"^^xsd:string ;
	cbc:format ""^^xsd:string ;
.
:BC-ACME_BC_C25298_PerformedObservation_dateRange
	rdf:type cbc:Item ;
	cbc:ordinal "4"^^xsd:positiveInteger ;
	cbc:bridg_class "PerformedObservation"^^xsd:string ;
	cbc:bridg_attribute "dateRange"^^xsd:string ;
	cbc:alias "DateTime"^^xsd:string ;
	cbc:hasDatatype :BC-ACME_BC_C25298_PerformedObservation_dateRange_IVL_TS_DATETIME ;
	cbc:iso21090_datatype "IVL_TS_DATETIME"^^xsd:string ;
.
:BC-ACME_BC_C25298_PerformedObservation_dateRange_IVL_TS_DATETIME
	rdf:type cbc:Datatype ;
	cbc:iso21090_datatype "IVL_TS_DATETIME"^^xsd:string ;
	cbc:hasProperty :BC-ACME_BC_C25298_PerformedObservation_dateRange_IVL_TS_DATETIME_low ;
.
:BC-ACME_BC_C25298_PerformedObservation_dateRange_IVL_TS_DATETIME_low
	rdf:type cbc:Property ;
	cbc:alias "Date"^^xsd:string ;
	cbc:hasComplexDatatype :BC-ACME_BC_C25298_PerformedObservation_dateRange_IVL_TS_DATETIME_low_TS_DATETIME ;
.
:BC-ACME_BC_C25298_PerformedObservation_dateRange_IVL_TS_DATETIME_low_TS_DATETIME
	rdf:type cbc:Datatype ;
	cbc:iso21090_datatype "TS_DATETIME"^^xsd:string ;
	cbc:hasProperty :BC-ACME_BC_C25298_PerformedObservation_dateRange_IVL_TS_DATETIME_low_TS_DATETIME_value ;
.
:BC-ACME_BC_C25298_PerformedObservation_dateRange_IVL_TS_DATETIME_low_TS_DATETIME_value
	rdf:type cbc:Property ;
	cbc:alias "Date and Time (--DTC)"^^xsd:string ;
	cbc:ordinal "1"^^xsd:positiveInteger ;
	cbc:question_text "Question text"^^xsd:string ;
	cbc:prompt_text "Prompt text"^^xsd:string ;
	cbc:enabled "true"^^xsd:boolean ;
	cbc:collect "true"^^xsd:boolean ;
	cbc:bridg_path "PerformedObservation.dateRange.IVL_TS_DATETIME.low.TS_DATETIME.value"^^xsd:string ;
	cbc:simple_datatype "dateTime"^^xsd:string ;
	cbc:format ""^^xsd:string ;
.
:BC-ACME_BC_C25298_PerformedObservation_negationReason
	rdf:type cbc:Item ;
	cbc:ordinal "5"^^xsd:positiveInteger ;
	cbc:bridg_class "PerformedObservation"^^xsd:string ;
	cbc:bridg_attribute "negationReason"^^xsd:string ;
	cbc:alias "ReasonNotDone"^^xsd:string ;
	cbc:hasDatatype :BC-ACME_BC_C25298_PerformedObservation_negationReason_SC ;
	cbc:iso21090_datatype "SC"^^xsd:string ;
.
:BC-ACME_BC_C25298_PerformedObservation_negationReason_SC
	rdf:type cbc:Datatype ;
	cbc:iso21090_datatype "SC"^^xsd:string ;
	cbc:hasProperty :BC-ACME_BC_C25298_PerformedObservation_negationReason_SC_code ;
.
:BC-ACME_BC_C25298_PerformedObservation_negationReason_SC_code
	rdf:type cbc:Property ;
	cbc:alias "Code"^^xsd:string ;
	cbc:hasComplexDatatype :BC-ACME_BC_C25298_PerformedObservation_negationReason_SC_code_CD ;
.
:BC-ACME_BC_C25298_PerformedObservation_negationReason_SC_code_CD
	rdf:type cbc:Datatype ;
	cbc:iso21090_datatype "CD"^^xsd:string ;
.
:BC-ACME_BC_C25298_PerformedObservation_bodyPositionCode
	rdf:type cbc:Item ;
	cbc:ordinal "6"^^xsd:positiveInteger ;
	cbc:bridg_class "PerformedObservation"^^xsd:string ;
	cbc:bridg_attribute "bodyPositionCode"^^xsd:string ;
	cbc:alias "Position"^^xsd:string ;
	cbc:hasDatatype :BC-ACME_BC_C25298_PerformedObservation_bodyPositionCode_CD ;
	cbc:iso21090_datatype "CD"^^xsd:string ;
.
:BC-ACME_BC_C25298_PerformedObservation_bodyPositionCode_CD
	rdf:type cbc:Datatype ;
	cbc:iso21090_datatype "CD"^^xsd:string ;
	cbc:hasProperty :BC-ACME_BC_C25298_PerformedObservation_bodyPositionCode_CD_code ;
.
:BC-ACME_BC_C25298_PerformedObservation_bodyPositionCode_CD_code
	rdf:type cbc:Property ;
	cbc:alias "Body Position (--POS)"^^xsd:string ;
	cbc:hasThesaurusConcept :BC-ACME_BC_C25298_PerformedObservation_bodyPositionCode_CD_code_TR_1 ;
	cbc:hasThesaurusConcept :BC-ACME_BC_C25298_PerformedObservation_bodyPositionCode_CD_code_TR_2 ;
	cbc:hasThesaurusConcept :BC-ACME_BC_C25298_PerformedObservation_bodyPositionCode_CD_code_TR_3 ;
	cbc:ordinal "1"^^xsd:positiveInteger ;
	cbc:question_text "Body position?"^^xsd:string ;
	cbc:prompt_text "Position"^^xsd:string ;
	cbc:enabled "true"^^xsd:boolean ;
	cbc:collect "true"^^xsd:boolean ;
	cbc:bridg_path "PerformedObservation.bodyPositionCode.CD.code"^^xsd:string ;
	cbc:simple_datatype "string"^^xsd:string ;
	cbc:format ""^^xsd:string ;
.
:BC-ACME_BC_C25298_PerformedObservation_bodyPositionCode_CD_code_TR_1
	rdf:type bo:TcReference ;
	rdfs:label "Thesaurus Concept Reference"^^xsd:string ;
	bo:hasThesaurusConcept cCt:CLI-C71148_C62122 ;
	bo:ordinal "1"^^xsd:positiveInteger ;
	bo:enabled "true"^^xsd:boolean ;
	bo:optional "true"^^xsd:boolean ;
	bo:local_label ""^^xsd:string ;
.
:BC-ACME_BC_C25298_PerformedObservation_bodyPositionCode_CD_code_TR_2
	rdf:type bo:TcReference ;
	rdfs:label "Thesaurus Concept Reference"^^xsd:string ;
	bo:hasThesaurusConcept cCt:CLI-C71148_C62166 ;
	bo:ordinal "2"^^xsd:positiveInteger ;
	bo:enabled "true"^^xsd:boolean ;
	bo:optional "true"^^xsd:boolean ;
	bo:local_label ""^^xsd:string ;
.
:BC-ACME_BC_C25298_PerformedObservation_bodyPositionCode_CD_code_TR_3
	rdf:type bo:TcReference ;
	rdfs:label "Thesaurus Concept Reference"^^xsd:string ;
	bo:hasThesaurusConcept cCt:CLI-C71148_C62167 ;
	bo:ordinal "3"^^xsd:positiveInteger ;
	bo:enabled "true"^^xsd:boolean ;
	bo:optional "true"^^xsd:boolean ;
	bo:local_label ""^^xsd:string ;
.
:BC-ACME_BC_C25298_PerformedObservation_targetAnatomicSiteLateralityCode
	rdf:type cbc:Item ;
	cbc:ordinal "7"^^xsd:positiveInteger ;
	cbc:bridg_class "PerformedObservation"^^xsd:string ;
	cbc:bridg_attribute "targetAnatomicSiteLateralityCode"^^xsd:string ;
	cbc:alias "Laterality"^^xsd:string ;
	cbc:hasDatatype :BC-ACME_BC_C25298_PerformedObservation_targetAnatomicSiteLateralityCode_CD ;
	cbc:iso21090_datatype "CD"^^xsd:string ;
.
:BC-ACME_BC_C25298_PerformedObservation_targetAnatomicSiteLateralityCode_CD
	rdf:type cbc:Datatype ;
	cbc:iso21090_datatype "CD"^^xsd:string ;
	cbc:hasProperty :BC-ACME_BC_C25298_PerformedObservation_targetAnatomicSiteLateralityCode_CD_code ;
.
:BC-ACME_BC_C25298_PerformedObservation_targetAnatomicSiteLateralityCode_CD_code
	rdf:type cbc:Property ;
	cbc:alias "Laterality (--LAT)"^^xsd:string ;
	cbc:ordinal "1"^^xsd:positiveInteger ;
	cbc:question_text "Question text"^^xsd:string ;
	cbc:prompt_text "Prompt text"^^xsd:string ;
	cbc:enabled "false"^^xsd:boolean ;
	cbc:collect "true"^^xsd:boolean ;
	cbc:bridg_path "PerformedObservation.targetAnatomicSiteLateralityCode.CD.code"^^xsd:string ;
	cbc:simple_datatype "string"^^xsd:string ;
	cbc:format ""^^xsd:string ;
.
:BC-ACME_BC_C25298_PerformedClinicalResult_value
	rdf:type cbc:Item ;
	cbc:ordinal "8"^^xsd:positiveInteger ;
	cbc:bridg_class "PerformedClinicalResult"^^xsd:string ;
	cbc:bridg_attribute "value"^^xsd:string ;
	cbc:alias "Result"^^xsd:string ;
	cbc:hasDatatype :BC-ACME_BC_C25298_PerformedClinicalResult_value_PQR ;
	cbc:iso21090_datatype "PQR"^^xsd:string ;
.
:BC-ACME_BC_C25298_PerformedClinicalResult_value_PQR
	rdf:type cbc:Datatype ;
	cbc:iso21090_datatype "PQR"^^xsd:string ;
	cbc:hasProperty :BC-ACME_BC_C25298_PerformedClinicalResult_value_PQR_value ;
	cbc:hasProperty :BC-ACME_BC_C25298_PerformedClinicalResult_value_PQR_code ;
.
:BC-ACME_BC_C25298_PerformedClinicalResult_value_PQR_value
	rdf:type cbc:Property ;
	cbc:alias "Result Value (--ORRES)"^^xsd:string ;
	cbc:ordinal "1"^^xsd:positiveInteger ;
	cbc:question_text "Result value?"^^xsd:string ;
	cbc:prompt_text "Result"^^xsd:string ;
	cbc:enabled "true"^^xsd:boolean ;
	cbc:collect "true"^^xsd:boolean ;
	cbc:bridg_path "PerformedClinicalResult.value.PQR.value"^^xsd:string ;
	cbc:simple_datatype "float"^^xsd:string ;
	cbc:format ""^^xsd:string ;
.
:BC-ACME_BC_C25298_PerformedClinicalResult_value_PQR_code
	rdf:type cbc:Property ;
	cbc:alias "Result Units (--ORRESU)"^^xsd:string ;
	cbc:hasThesaurusConcept :BC-ACME_BC_C25298_PerformedClinicalResult_value_PQR_code_TR_1 ;
	cbc:ordinal "2"^^xsd:positiveInteger ;
	cbc:question_text "Result units?"^^xsd:string ;
	cbc:prompt_text "Units"^^xsd:string ;
	cbc:enabled "true"^^xsd:boolean ;
	cbc:collect "true"^^xsd:boolean ;
	cbc:bridg_path "PerformedClinicalResult.value.PQR.code"^^xsd:string ;
	cbc:simple_datatype "string"^^xsd:string ;
	cbc:format ""^^xsd:string ;
.
:BC-ACME_BC_C25298_PerformedClinicalResult_value_PQR_code_TR_1
	rdf:type bo:TcReference ;
	rdfs:label "Thesaurus Concept Reference"^^xsd:string ;
	bo:hasThesaurusConcept cCt:CLI-C66770_C49670 ;
	bo:ordinal "1"^^xsd:positiveInteger ;
	bo:enabled "true"^^xsd:boolean ;
	bo:optional "true"^^xsd:boolean ;
	bo:local_label ""^^xsd:string ;
.
:BC-ACME_BC_C25298_PerformedClinicalResult_baselineIndicator
	rdf:type cbc:Item ;
	cbc:ordinal "9"^^xsd:positiveInteger ;
	cbc:bridg_class "PerformedClinicalResult"^^xsd:string ;
	cbc:bridg_attribute "baselineIndicator"^^xsd:string ;
	cbc:alias "Baseline"^^xsd:string ;
	cbc:hasDatatype :BC-ACME_BC_C25298_PerformedClinicalResult_baselineIndicator_BL ;
	cbc:iso21090_datatype "BL"^^xsd:string ;
.
:BC-ACME_BC_C25298_PerformedClinicalResult_baselineIndicator_BL
	rdf:type cbc:Datatype ;
	cbc:iso21090_datatype "BL"^^xsd:string ;
	cbc:hasProperty :BC-ACME_BC_C25298_PerformedClinicalResult_baselineIndicator_BL_value ;
.
:BC-ACME_BC_C25298_PerformedClinicalResult_baselineIndicator_BL_value
	rdf:type cbc:Property ;
	cbc:alias "Baseline (--BLFL)"^^xsd:string ;
	cbc:hasThesaurusConcept :BC-ACME_BC_C25298_PerformedClinicalResult_baselineIndicator_BL_value_TR_1 ;
	cbc:hasThesaurusConcept :BC-ACME_BC_C25298_PerformedClinicalResult_baselineIndicator_BL_value_TR_2 ;
	cbc:ordinal "1"^^xsd:positiveInteger ;
	cbc:question_text "Question text"^^xsd:string ;
	cbc:prompt_text "Prompt text"^^xsd:string ;
	cbc:enabled "false"^^xsd:boolean ;
	cbc:collect "true"^^xsd:boolean ;
	cbc:bridg_path "PerformedClinicalResult.baselineIndicator.BL.value"^^xsd:string ;
	cbc:simple_datatype "boolean"^^xsd:string ;
	cbc:format ""^^xsd:string ;
.
:BC-ACME_BC_C25298_PerformedClinicalResult_baselineIndicator_BL_value_TR_1
	rdf:type bo:TcReference ;
	rdfs:label "Thesaurus Concept Reference"^^xsd:string ;
	bo:hasThesaurusConcept cCt:CLI-C66742_C49487 ;
	bo:ordinal "1"^^xsd:positiveInteger ;
	bo:enabled "true"^^xsd:boolean ;
	bo:optional "true"^^xsd:boolean ;
	bo:local_label ""^^xsd:string ;
.
:BC-ACME_BC_C25298_PerformedClinicalResult_baselineIndicator_BL_value_TR_2
	rdf:type bo:TcReference ;
	rdfs:label "Thesaurus Concept Reference"^^xsd:string ;
	bo:hasThesaurusConcept cCt:CLI-C66742_C49488 ;
	bo:ordinal "2"^^xsd:positiveInteger ;
	bo:enabled "true"^^xsd:boolean ;
	bo:optional "true"^^xsd:boolean ;
	bo:local_label ""^^xsd:string ;
.
:BC-ACME_BC_C25299
	rdf:type cbc:BiomedicalConceptInstance ;
	cbc:basedOnTemplate :BC-ACME_BC_C25299_TPR ;
	cbc:hasItem :BC-ACME_BC_C25299_DefinedObservation_nameCode ;
	cbc:hasItem :BC-ACME_BC_C25299_DefinedObservation_targetAnatomicSiteCode ;
	cbc:hasItem :BC-ACME_BC_C25299_DefinedObservation_methodCode ;
	cbc:hasItem :BC-ACME_BC_C25299_PerformedObservation_dateRange ;
	cbc:hasItem :BC-ACME_BC_C25299_PerformedObservation_negationReason ;
	cbc:hasItem :BC-ACME_BC_C25299_PerformedObservation_bodyPositionCode ;
	cbc:hasItem :BC-ACME_BC_C25299_PerformedObservation_targetAnatomicSiteLateralityCode ;
	cbc:hasItem :BC-ACME_BC_C25299_PerformedClinicalResult_value ;
	cbc:hasItem :BC-ACME_BC_C25299_PerformedClinicalResult_baselineIndicator ;
	rdfs:label "Diastolic Blood Pressure (BC_C25299)"^^xsd:string ;
	isoI:hasIdentifier mdrItems:SI-ACME_BC_C25299-1 ;
	isoR:hasState mdrItems:RS-ACME_BC_C25299-1 ;
	isoT:origin ""^^xsd:string ;
	isoT:changeDescription ""^^xsd:string ;
	isoT:creationDate "2016-01-01"^^xsd:date ;
	isoT:lastChangeDate "2016-01-01"^^xsd:date ;
	isoT:explanatoryComment ""^^xsd:string ;
.
:BC-ACME_BC_C25299_TPR
	rdf:type bo:BctReference ;
	rdfs:label "Biomedical Concept Template Reference"^^xsd:string ;
	bo:basedOnTemplate mdrBcts:BCT-Obs_PQR ;
	bo:ordinal "1"^^xsd:positiveInteger ;
	bo:enabled "true"^^xsd:boolean ;
	bo:optional "false"^^xsd:boolean ;
	bo:local_label ""^^xsd:string ;
.
mdrItems:SI-ACME_BC_C25299-1
	rdf:type isoI:ScopedIdentifier ;
	isoI:identifier "BC_C25299"^^xsd:string ;
	isoI:versionLabel "0.1"^^xsd:string ;
	isoI:version "1"^^xsd:positiveInteger ;
	isoI:hasScope mdrItems:NS-ACME ;
.
mdrItems:RS-ACME_BC_C25299-1
	rdf:type isoR:RegistrationState ;
	isoR:registrationStatus "Standard"^^xsd:string ;
	isoR:administrativeNote ""^^xsd:string ;
	isoR:effectiveDate "2016-01-01T00:00:00Z"^^xsd:dateTime ;
	isoR:untilDate "2016-01-01T00:00:00Z"^^xsd:dateTime ;
	isoR:unresolvedIssue ""^^xsd:string ;
	isoR:administrativeStatus ""^^xsd:string ;
	isoR:previousState "Qualified"^^xsd:string ;
	isoR:byAuthority mdrItems:RA-123456789 ;
.
:BC-ACME_BC_C25299_DefinedObservation_nameCode
	rdf:type cbc:Item ;
	cbc:ordinal "1"^^xsd:positiveInteger ;
	cbc:bridg_class "DefinedObservation"^^xsd:string ;
	cbc:bridg_attribute "nameCode"^^xsd:string ;
	cbc:alias "Test"^^xsd:string ;
	cbc:hasDatatype :BC-ACME_BC_C25299_DefinedObservation_nameCode_CD ;
	cbc:iso21090_datatype "CD"^^xsd:string ;
.
:BC-ACME_BC_C25299_DefinedObservation_nameCode_CD
	rdf:type cbc:Datatype ;
	cbc:iso21090_datatype "CD"^^xsd:string ;
	cbc:hasProperty :BC-ACME_BC_C25299_DefinedObservation_nameCode_CD_code ;
	cbc:hasProperty :BC-ACME_BC_C25299_DefinedObservation_nameCode_CD_originalText ;
.
:BC-ACME_BC_C25299_DefinedObservation_nameCode_CD_code
	rdf:type cbc:Property ;
	cbc:alias "Test Code (--TESTCD)"^^xsd:string ;
	cbc:hasThesaurusConcept :BC-ACME_BC_C25299_DefinedObservation_nameCode_CD_code_TR_1 ;
	cbc:ordinal "1"^^xsd:positiveInteger ;
	cbc:question_text ""^^xsd:string ;
	cbc:prompt_text "Prompt text"^^xsd:string ;
	cbc:enabled "true"^^xsd:boolean ;
	cbc:collect "false"^^xsd:boolean ;
	cbc:bridg_path "DefinedObservation.nameCode.CD.code"^^xsd:string ;
	cbc:simple_datatype "string"^^xsd:string ;
	cbc:format ""^^xsd:string ;
.
:BC-ACME_BC_C25299_DefinedObservation_nameCode_CD_code_TR_1
	rdf:type bo:TcReference ;
	rdfs:label "Thesaurus Concept Reference"^^xsd:string ;
	bo:hasThesaurusConcept cCt:CLI-C66741_C25299 ;
	bo:ordinal "1"^^xsd:positiveInteger ;
	bo:enabled "true"^^xsd:boolean ;
	bo:optional "true"^^xsd:boolean ;
	bo:local_label ""^^xsd:string ;
.
:BC-ACME_BC_C25299_DefinedObservation_nameCode_CD_originalText
	rdf:type cbc:Property ;
	cbc:alias "Name"^^xsd:string ;
	cbc:hasComplexDatatype :BC-ACME_BC_C25299_DefinedObservation_nameCode_CD_originalText_ED ;
.
:BC-ACME_BC_C25299_DefinedObservation_nameCode_CD_originalText_ED
	rdf:type cbc:Datatype ;
	cbc:iso21090_datatype "ED"^^xsd:string ;
	cbc:hasProperty :BC-ACME_BC_C25299_DefinedObservation_nameCode_CD_originalText_ED_value ;
.
:BC-ACME_BC_C25299_DefinedObservation_nameCode_CD_originalText_ED_value
	rdf:type cbc:Property ;
	cbc:alias "Test Name (--TEST)"^^xsd:string ;
	cbc:hasThesaurusConcept :BC-ACME_BC_C25299_DefinedObservation_nameCode_CD_originalText_ED_value_TR_1 ;
	cbc:ordinal "1"^^xsd:positiveInteger ;
	cbc:question_text ""^^xsd:string ;
	cbc:prompt_text "Prompt text"^^xsd:string ;
	cbc:enabled "true"^^xsd:boolean ;
	cbc:collect "false"^^xsd:boolean ;
	cbc:bridg_path "DefinedObservation.nameCode.CD.originalText.ED.value"^^xsd:string ;
	cbc:simple_datatype "string"^^xsd:string ;
	cbc:format ""^^xsd:string ;
.
:BC-ACME_BC_C25299_DefinedObservation_nameCode_CD_originalText_ED_value_TR_1
	rdf:type bo:TcReference ;
	rdfs:label "Thesaurus Concept Reference"^^xsd:string ;
	bo:hasThesaurusConcept cCt:CLI-C67153_C25299 ;
	bo:ordinal "1"^^xsd:positiveInteger ;
	bo:enabled "true"^^xsd:boolean ;
	bo:optional "true"^^xsd:boolean ;
	bo:local_label ""^^xsd:string ;
.
:BC-ACME_BC_C25299_DefinedObservation_targetAnatomicSiteCode
	rdf:type cbc:Item ;
	cbc:ordinal "2"^^xsd:positiveInteger ;
	cbc:bridg_class "DefinedObservation"^^xsd:string ;
	cbc:bridg_attribute "targetAnatomicSiteCode"^^xsd:string ;
	cbc:alias "SiteOfAdministration"^^xsd:string ;
	cbc:hasDatatype :BC-ACME_BC_C25299_DefinedObservation_targetAnatomicSiteCode_CD ;
	cbc:iso21090_datatype "CD"^^xsd:string ;
.
:BC-ACME_BC_C25299_DefinedObservation_targetAnatomicSiteCode_CD
	rdf:type cbc:Datatype ;
	cbc:iso21090_datatype "CD"^^xsd:string ;
	cbc:hasProperty :BC-ACME_BC_C25299_DefinedObservation_targetAnatomicSiteCode_CD_code ;
.
:BC-ACME_BC_C25299_DefinedObservation_targetAnatomicSiteCode_CD_code
	rdf:type cbc:Property ;
	cbc:alias "Location (--LOC)"^^xsd:string ;
	cbc:ordinal "1"^^xsd:positiveInteger ;
	cbc:question_text "Location of test"^^xsd:string ;
	cbc:prompt_text "Location"^^xsd:string ;
	cbc:enabled "false"^^xsd:boolean ;
	cbc:collect "true"^^xsd:boolean ;
	cbc:bridg_path "DefinedObservation.targetAnatomicSiteCode.CD.code"^^xsd:string ;
	cbc:simple_datatype "string"^^xsd:string ;
	cbc:format ""^^xsd:string ;
.
:BC-ACME_BC_C25299_DefinedObservation_methodCode
	rdf:type cbc:Item ;
	cbc:ordinal "3"^^xsd:positiveInteger ;
	cbc:bridg_class "DefinedObservation"^^xsd:string ;
	cbc:bridg_attribute "methodCode"^^xsd:string ;
	cbc:alias "Method"^^xsd:string ;
	cbc:hasDatatype :BC-ACME_BC_C25299_DefinedObservation_methodCode_CD ;
	cbc:iso21090_datatype "CD"^^xsd:string ;
.
:BC-ACME_BC_C25299_DefinedObservation_methodCode_CD
	rdf:type cbc:Datatype ;
	cbc:iso21090_datatype "CD"^^xsd:string ;
	cbc:hasProperty :BC-ACME_BC_C25299_DefinedObservation_methodCode_CD_code ;
.
:BC-ACME_BC_C25299_DefinedObservation_methodCode_CD_code
	rdf:type cbc:Property ;
	cbc:alias "Method Code (--METHOD)"^^xsd:string ;
	cbc:ordinal "1"^^xsd:positiveInteger ;
	cbc:question_text "Question text"^^xsd:string ;
	cbc:prompt_text "Prompt text"^^xsd:string ;
	cbc:enabled "false"^^xsd:boolean ;
	cbc:collect "true"^^xsd:boolean ;
	cbc:bridg_path "DefinedObservation.methodCode.CD.code"^^xsd:string ;
	cbc:simple_datatype "string"^^xsd:string ;
	cbc:format ""^^xsd:string ;
.
:BC-ACME_BC_C25299_PerformedObservation_dateRange
	rdf:type cbc:Item ;
	cbc:ordinal "4"^^xsd:positiveInteger ;
	cbc:bridg_class "PerformedObservation"^^xsd:string ;
	cbc:bridg_attribute "dateRange"^^xsd:string ;
	cbc:alias "DateTime"^^xsd:string ;
	cbc:hasDatatype :BC-ACME_BC_C25299_PerformedObservation_dateRange_IVL_TS_DATETIME ;
	cbc:iso21090_datatype "IVL_TS_DATETIME"^^xsd:string ;
.
:BC-ACME_BC_C25299_PerformedObservation_dateRange_IVL_TS_DATETIME
	rdf:type cbc:Datatype ;
	cbc:iso21090_datatype "IVL_TS_DATETIME"^^xsd:string ;
	cbc:hasProperty :BC-ACME_BC_C25299_PerformedObservation_dateRange_IVL_TS_DATETIME_low ;
.
:BC-ACME_BC_C25299_PerformedObservation_dateRange_IVL_TS_DATETIME_low
	rdf:type cbc:Property ;
	cbc:alias "Date"^^xsd:string ;
	cbc:hasComplexDatatype :BC-ACME_BC_C25299_PerformedObservation_dateRange_IVL_TS_DATETIME_low_TS_DATETIME ;
.
:BC-ACME_BC_C25299_PerformedObservation_dateRange_IVL_TS_DATETIME_low_TS_DATETIME
	rdf:type cbc:Datatype ;
	cbc:iso21090_datatype "TS_DATETIME"^^xsd:string ;
	cbc:hasProperty :BC-ACME_BC_C25299_PerformedObservation_dateRange_IVL_TS_DATETIME_low_TS_DATETIME_value ;
.
:BC-ACME_BC_C25299_PerformedObservation_dateRange_IVL_TS_DATETIME_low_TS_DATETIME_value
	rdf:type cbc:Property ;
	cbc:alias "Date and Time (--DTC)"^^xsd:string ;
	cbc:ordinal "1"^^xsd:positiveInteger ;
	cbc:question_text "Question text"^^xsd:string ;
	cbc:prompt_text "Prompt text"^^xsd:string ;
	cbc:enabled "true"^^xsd:boolean ;
	cbc:collect "true"^^xsd:boolean ;
	cbc:bridg_path "PerformedObservation.dateRange.IVL_TS_DATETIME.low.TS_DATETIME.value"^^xsd:string ;
	cbc:simple_datatype "dateTime"^^xsd:string ;
	cbc:format ""^^xsd:string ;
.
:BC-ACME_BC_C25299_PerformedObservation_negationReason
	rdf:type cbc:Item ;
	cbc:ordinal "5"^^xsd:positiveInteger ;
	cbc:bridg_class "PerformedObservation"^^xsd:string ;
	cbc:bridg_attribute "negationReason"^^xsd:string ;
	cbc:alias "ReasonNotDone"^^xsd:string ;
	cbc:hasDatatype :BC-ACME_BC_C25299_PerformedObservation_negationReason_SC ;
	cbc:iso21090_datatype "SC"^^xsd:string ;
.
:BC-ACME_BC_C25299_PerformedObservation_negationReason_SC
	rdf:type cbc:Datatype ;
	cbc:iso21090_datatype "SC"^^xsd:string ;
	cbc:hasProperty :BC-ACME_BC_C25299_PerformedObservation_negationReason_SC_code ;
.
:BC-ACME_BC_C25299_PerformedObservation_negationReason_SC_code
	rdf:type cbc:Property ;
	cbc:alias "Code"^^xsd:string ;
	cbc:hasComplexDatatype :BC-ACME_BC_C25299_PerformedObservation_negationReason_SC_code_CD ;
.
:BC-ACME_BC_C25299_PerformedObservation_negationReason_SC_code_CD
	rdf:type cbc:Datatype ;
	cbc:iso21090_datatype "CD"^^xsd:string ;
.
:BC-ACME_BC_C25299_PerformedObservation_bodyPositionCode
	rdf:type cbc:Item ;
	cbc:ordinal "6"^^xsd:positiveInteger ;
	cbc:bridg_class "PerformedObservation"^^xsd:string ;
	cbc:bridg_attribute "bodyPositionCode"^^xsd:string ;
	cbc:alias "Position"^^xsd:string ;
	cbc:hasDatatype :BC-ACME_BC_C25299_PerformedObservation_bodyPositionCode_CD ;
	cbc:iso21090_datatype "CD"^^xsd:string ;
.
:BC-ACME_BC_C25299_PerformedObservation_bodyPositionCode_CD
	rdf:type cbc:Datatype ;
	cbc:iso21090_datatype "CD"^^xsd:string ;
	cbc:hasProperty :BC-ACME_BC_C25299_PerformedObservation_bodyPositionCode_CD_code ;
.
:BC-ACME_BC_C25299_PerformedObservation_bodyPositionCode_CD_code
	rdf:type cbc:Property ;
	cbc:alias "Body Position (--POS)"^^xsd:string ;
	cbc:hasThesaurusConcept :BC-ACME_BC_C25299_PerformedObservation_bodyPositionCode_CD_code_TR_1 ;
	cbc:hasThesaurusConcept :BC-ACME_BC_C25299_PerformedObservation_bodyPositionCode_CD_code_TR_2 ;
	cbc:hasThesaurusConcept :BC-ACME_BC_C25299_PerformedObservation_bodyPositionCode_CD_code_TR_3 ;
	cbc:ordinal "1"^^xsd:positiveInteger ;
	cbc:question_text "Body position?"^^xsd:string ;
	cbc:prompt_text "Position"^^xsd:string ;
	cbc:enabled "true"^^xsd:boolean ;
	cbc:collect "true"^^xsd:boolean ;
	cbc:bridg_path "PerformedObservation.bodyPositionCode.CD.code"^^xsd:string ;
	cbc:simple_datatype "string"^^xsd:string ;
	cbc:format ""^^xsd:string ;
.
:BC-ACME_BC_C25299_PerformedObservation_bodyPositionCode_CD_code_TR_1
	rdf:type bo:TcReference ;
	rdfs:label "Thesaurus Concept Reference"^^xsd:string ;
	bo:hasThesaurusConcept cCt:CLI-C71148_C62122 ;
	bo:ordinal "1"^^xsd:positiveInteger ;
	bo:enabled "true"^^xsd:boolean ;
	bo:optional "true"^^xsd:boolean ;
	bo:local_label ""^^xsd:string ;
.
:BC-ACME_BC_C25299_PerformedObservation_bodyPositionCode_CD_code_TR_2
	rdf:type bo:TcReference ;
	rdfs:label "Thesaurus Concept Reference"^^xsd:string ;
	bo:hasThesaurusConcept cCt:CLI-C71148_C62166 ;
	bo:ordinal "2"^^xsd:positiveInteger ;
	bo:enabled "true"^^xsd:boolean ;
	bo:optional "true"^^xsd:boolean ;
	bo:local_label ""^^xsd:string ;
.
:BC-ACME_BC_C25299_PerformedObservation_bodyPositionCode_CD_code_TR_3
	rdf:type bo:TcReference ;
	rdfs:label "Thesaurus Concept Reference"^^xsd:string ;
	bo:hasThesaurusConcept cCt:CLI-C71148_C62167 ;
	bo:ordinal "3"^^xsd:positiveInteger ;
	bo:enabled "true"^^xsd:boolean ;
	bo:optional "true"^^xsd:boolean ;
	bo:local_label ""^^xsd:string ;
.
:BC-ACME_BC_C25299_PerformedObservation_targetAnatomicSiteLateralityCode
	rdf:type cbc:Item ;
	cbc:ordinal "7"^^xsd:positiveInteger ;
	cbc:bridg_class "PerformedObservation"^^xsd:string ;
	cbc:bridg_attribute "targetAnatomicSiteLateralityCode"^^xsd:string ;
	cbc:alias "Laterality"^^xsd:string ;
	cbc:hasDatatype :BC-ACME_BC_C25299_PerformedObservation_targetAnatomicSiteLateralityCode_CD ;
	cbc:iso21090_datatype "CD"^^xsd:string ;
.
:BC-ACME_BC_C25299_PerformedObservation_targetAnatomicSiteLateralityCode_CD
	rdf:type cbc:Datatype ;
	cbc:iso21090_datatype "CD"^^xsd:string ;
	cbc:hasProperty :BC-ACME_BC_C25299_PerformedObservation_targetAnatomicSiteLateralityCode_CD_code ;
.
:BC-ACME_BC_C25299_PerformedObservation_targetAnatomicSiteLateralityCode_CD_code
	rdf:type cbc:Property ;
	cbc:alias "Laterality (--LAT)"^^xsd:string ;
	cbc:ordinal "1"^^xsd:positiveInteger ;
	cbc:question_text "Question text"^^xsd:string ;
	cbc:prompt_text "Prompt text"^^xsd:string ;
	cbc:enabled "false"^^xsd:boolean ;
	cbc:collect "true"^^xsd:boolean ;
	cbc:bridg_path "PerformedObservation.targetAnatomicSiteLateralityCode.CD.code"^^xsd:string ;
	cbc:simple_datatype "string"^^xsd:string ;
	cbc:format ""^^xsd:string ;
.
:BC-ACME_BC_C25299_PerformedClinicalResult_value
	rdf:type cbc:Item ;
	cbc:ordinal "8"^^xsd:positiveInteger ;
	cbc:bridg_class "PerformedClinicalResult"^^xsd:string ;
	cbc:bridg_attribute "value"^^xsd:string ;
	cbc:alias "Result"^^xsd:string ;
	cbc:hasDatatype :BC-ACME_BC_C25299_PerformedClinicalResult_value_PQR ;
	cbc:iso21090_datatype "PQR"^^xsd:string ;
.
:BC-ACME_BC_C25299_PerformedClinicalResult_value_PQR
	rdf:type cbc:Datatype ;
	cbc:iso21090_datatype "PQR"^^xsd:string ;
	cbc:hasProperty :BC-ACME_BC_C25299_PerformedClinicalResult_value_PQR_value ;
	cbc:hasProperty :BC-ACME_BC_C25299_PerformedClinicalResult_value_PQR_code ;
.
:BC-ACME_BC_C25299_PerformedClinicalResult_value_PQR_value
	rdf:type cbc:Property ;
	cbc:alias "Result Value (--ORRES)"^^xsd:string ;
	cbc:ordinal "1"^^xsd:positiveInteger ;
	cbc:question_text "Result value?"^^xsd:string ;
	cbc:prompt_text "Result"^^xsd:string ;
	cbc:enabled "true"^^xsd:boolean ;
	cbc:collect "true"^^xsd:boolean ;
	cbc:bridg_path "PerformedClinicalResult.value.PQR.value"^^xsd:string ;
	cbc:simple_datatype "float"^^xsd:string ;
	cbc:format ""^^xsd:string ;
.
:BC-ACME_BC_C25299_PerformedClinicalResult_value_PQR_code
	rdf:type cbc:Property ;
	cbc:alias "Result Units (--ORRESU)"^^xsd:string ;
	cbc:hasThesaurusConcept :BC-ACME_BC_C25299_PerformedClinicalResult_value_PQR_code_TR_1 ;
	cbc:ordinal "2"^^xsd:positiveInteger ;
	cbc:question_text "Result units?"^^xsd:string ;
	cbc:prompt_text "Units"^^xsd:string ;
	cbc:enabled "true"^^xsd:boolean ;
	cbc:collect "true"^^xsd:boolean ;
	cbc:bridg_path "PerformedClinicalResult.value.PQR.code"^^xsd:string ;
	cbc:simple_datatype "string"^^xsd:string ;
	cbc:format ""^^xsd:string ;
.
:BC-ACME_BC_C25299_PerformedClinicalResult_value_PQR_code_TR_1
	rdf:type bo:TcReference ;
	rdfs:label "Thesaurus Concept Reference"^^xsd:string ;
	bo:hasThesaurusConcept cCt:CLI-C66770_C49670 ;
	bo:ordinal "1"^^xsd:positiveInteger ;
	bo:enabled "true"^^xsd:boolean ;
	bo:optional "true"^^xsd:boolean ;
	bo:local_label ""^^xsd:string ;
.
:BC-ACME_BC_C25299_PerformedClinicalResult_baselineIndicator
	rdf:type cbc:Item ;
	cbc:ordinal "9"^^xsd:positiveInteger ;
	cbc:bridg_class "PerformedClinicalResult"^^xsd:string ;
	cbc:bridg_attribute "baselineIndicator"^^xsd:string ;
	cbc:alias "Baseline"^^xsd:string ;
	cbc:hasDatatype :BC-ACME_BC_C25299_PerformedClinicalResult_baselineIndicator_BL ;
	cbc:iso21090_datatype "BL"^^xsd:string ;
.
:BC-ACME_BC_C25299_PerformedClinicalResult_baselineIndicator_BL
	rdf:type cbc:Datatype ;
	cbc:iso21090_datatype "BL"^^xsd:string ;
	cbc:hasProperty :BC-ACME_BC_C25299_PerformedClinicalResult_baselineIndicator_BL_value ;
.
:BC-ACME_BC_C25299_PerformedClinicalResult_baselineIndicator_BL_value
	rdf:type cbc:Property ;
	cbc:alias "Baseline (--BLFL)"^^xsd:string ;
	cbc:hasThesaurusConcept :BC-ACME_BC_C25299_PerformedClinicalResult_baselineIndicator_BL_value_TR_1 ;
	cbc:hasThesaurusConcept :BC-ACME_BC_C25299_PerformedClinicalResult_baselineIndicator_BL_value_TR_2 ;
	cbc:ordinal "1"^^xsd:positiveInteger ;
	cbc:question_text "Question text"^^xsd:string ;
	cbc:prompt_text "Prompt text"^^xsd:string ;
	cbc:enabled "false"^^xsd:boolean ;
	cbc:collect "true"^^xsd:boolean ;
	cbc:bridg_path "PerformedClinicalResult.baselineIndicator.BL.value"^^xsd:string ;
	cbc:simple_datatype "boolean"^^xsd:string ;
	cbc:format ""^^xsd:string ;
.
:BC-ACME_BC_C25299_PerformedClinicalResult_baselineIndicator_BL_value_TR_1
	rdf:type bo:TcReference ;
	rdfs:label "Thesaurus Concept Reference"^^xsd:string ;
	bo:hasThesaurusConcept cCt:CLI-C66742_C49487 ;
	bo:ordinal "1"^^xsd:positiveInteger ;
	bo:enabled "true"^^xsd:boolean ;
	bo:optional "true"^^xsd:boolean ;
	bo:local_label ""^^xsd:string ;
.
:BC-ACME_BC_C25299_PerformedClinicalResult_baselineIndicator_BL_value_TR_2
	rdf:type bo:TcReference ;
	rdfs:label "Thesaurus Concept Reference"^^xsd:string ;
	bo:hasThesaurusConcept cCt:CLI-C66742_C49488 ;
	bo:ordinal "2"^^xsd:positiveInteger ;
	bo:enabled "true"^^xsd:boolean ;
	bo:optional "true"^^xsd:boolean ;
	bo:local_label ""^^xsd:string ;
.
:BC-ACME_BC_C98793
	rdf:type cbc:BiomedicalConceptInstance ;
	cbc:basedOnTemplate :BC-ACME_BC_C98793_TPR ;
	cbc:hasItem :BC-ACME_BC_C98793_DefinedObservation_nameCode ;
	cbc:hasItem :BC-ACME_BC_C98793_DefinedObservation_targetAnatomicSiteCode ;
	cbc:hasItem :BC-ACME_BC_C98793_DefinedObservation_methodCode ;
	cbc:hasItem :BC-ACME_BC_C98793_PerformedObservation_dateRange ;
	cbc:hasItem :BC-ACME_BC_C98793_PerformedObservation_negationReason ;
	cbc:hasItem :BC-ACME_BC_C98793_PerformedObservation_bodyPositionCode ;
	cbc:hasItem :BC-ACME_BC_C98793_PerformedObservation_targetAnatomicSiteLateralityCode ;
	cbc:hasItem :BC-ACME_BC_C98793_PerformedClinicalResult_value ;
	cbc:hasItem :BC-ACME_BC_C98793_PerformedClinicalResult_baselineIndicator ;
	rdfs:label "Triceps Skinfold Thickness (BC_C98793)"^^xsd:string ;
	isoI:hasIdentifier mdrItems:SI-ACME_BC_C98793-1 ;
	isoR:hasState mdrItems:RS-ACME_BC_C98793-1 ;
	isoT:origin ""^^xsd:string ;
	isoT:changeDescription ""^^xsd:string ;
	isoT:creationDate "2016-01-01"^^xsd:date ;
	isoT:lastChangeDate "2016-01-01"^^xsd:date ;
	isoT:explanatoryComment ""^^xsd:string ;
.
:BC-ACME_BC_C98793_TPR
	rdf:type bo:BctReference ;
	rdfs:label "Biomedical Concept Template Reference"^^xsd:string ;
	bo:basedOnTemplate mdrBcts:BCT-Obs_PQR ;
	bo:ordinal "1"^^xsd:positiveInteger ;
	bo:enabled "true"^^xsd:boolean ;
	bo:optional "false"^^xsd:boolean ;
	bo:local_label ""^^xsd:string ;
.
mdrItems:SI-ACME_BC_C98793-1
	rdf:type isoI:ScopedIdentifier ;
	isoI:identifier "BC_C98793"^^xsd:string ;
	isoI:versionLabel "0.1"^^xsd:string ;
	isoI:version "1"^^xsd:positiveInteger ;
	isoI:hasScope mdrItems:NS-ACME ;
.
mdrItems:RS-ACME_BC_C98793-1
	rdf:type isoR:RegistrationState ;
	isoR:registrationStatus "Standard"^^xsd:string ;
	isoR:administrativeNote ""^^xsd:string ;
	isoR:effectiveDate "2016-01-01T00:00:00Z"^^xsd:dateTime ;
	isoR:untilDate "2016-01-01T00:00:00Z"^^xsd:dateTime ;
	isoR:unresolvedIssue ""^^xsd:string ;
	isoR:administrativeStatus ""^^xsd:string ;
	isoR:previousState "Qualified"^^xsd:string ;
	isoR:byAuthority mdrItems:RA-123456789 ;
.
:BC-ACME_BC_C98793_DefinedObservation_nameCode
	rdf:type cbc:Item ;
	cbc:ordinal "1"^^xsd:positiveInteger ;
	cbc:bridg_class "DefinedObservation"^^xsd:string ;
	cbc:bridg_attribute "nameCode"^^xsd:string ;
	cbc:alias "Test"^^xsd:string ;
	cbc:hasDatatype :BC-ACME_BC_C98793_DefinedObservation_nameCode_CD ;
	cbc:iso21090_datatype "CD"^^xsd:string ;
.
:BC-ACME_BC_C98793_DefinedObservation_nameCode_CD
	rdf:type cbc:Datatype ;
	cbc:iso21090_datatype "CD"^^xsd:string ;
	cbc:hasProperty :BC-ACME_BC_C98793_DefinedObservation_nameCode_CD_code ;
	cbc:hasProperty :BC-ACME_BC_C98793_DefinedObservation_nameCode_CD_originalText ;
.
:BC-ACME_BC_C98793_DefinedObservation_nameCode_CD_code
	rdf:type cbc:Property ;
	cbc:alias "Test Code (--TESTCD)"^^xsd:string ;
	cbc:hasThesaurusConcept :BC-ACME_BC_C98793_DefinedObservation_nameCode_CD_code_TR_1 ;
	cbc:ordinal "1"^^xsd:positiveInteger ;
	cbc:question_text "Question text"^^xsd:string ;
	cbc:prompt_text "Prompt text"^^xsd:string ;
	cbc:enabled "true"^^xsd:boolean ;
	cbc:collect "false"^^xsd:boolean ;
	cbc:bridg_path "DefinedObservation.nameCode.CD.code"^^xsd:string ;
	cbc:simple_datatype "string"^^xsd:string ;
	cbc:format ""^^xsd:string ;
.
:BC-ACME_BC_C98793_DefinedObservation_nameCode_CD_code_TR_1
	rdf:type bo:TcReference ;
	rdfs:label "Thesaurus Concept Reference"^^xsd:string ;
	bo:hasThesaurusConcept cCt:CLI-C66741_C98793 ;
	bo:ordinal "1"^^xsd:positiveInteger ;
	bo:enabled "true"^^xsd:boolean ;
	bo:optional "true"^^xsd:boolean ;
	bo:local_label ""^^xsd:string ;
.
:BC-ACME_BC_C98793_DefinedObservation_nameCode_CD_originalText
	rdf:type cbc:Property ;
	cbc:alias "Name"^^xsd:string ;
	cbc:hasComplexDatatype :BC-ACME_BC_C98793_DefinedObservation_nameCode_CD_originalText_ED ;
.
:BC-ACME_BC_C98793_DefinedObservation_nameCode_CD_originalText_ED
	rdf:type cbc:Datatype ;
	cbc:iso21090_datatype "ED"^^xsd:string ;
	cbc:hasProperty :BC-ACME_BC_C98793_DefinedObservation_nameCode_CD_originalText_ED_value ;
.
:BC-ACME_BC_C98793_DefinedObservation_nameCode_CD_originalText_ED_value
	rdf:type cbc:Property ;
	cbc:alias "Test Name (--TEST)"^^xsd:string ;
	cbc:hasThesaurusConcept :BC-ACME_BC_C98793_DefinedObservation_nameCode_CD_originalText_ED_value_TR_1 ;
	cbc:ordinal "1"^^xsd:positiveInteger ;
	cbc:question_text "Question text"^^xsd:string ;
	cbc:prompt_text "Prompt text"^^xsd:string ;
	cbc:enabled "true"^^xsd:boolean ;
	cbc:collect "false"^^xsd:boolean ;
	cbc:bridg_path "DefinedObservation.nameCode.CD.originalText.ED.value"^^xsd:string ;
	cbc:simple_datatype "string"^^xsd:string ;
	cbc:format ""^^xsd:string ;
.
:BC-ACME_BC_C98793_DefinedObservation_nameCode_CD_originalText_ED_value_TR_1
	rdf:type bo:TcReference ;
	rdfs:label "Thesaurus Concept Reference"^^xsd:string ;
	bo:hasThesaurusConcept cCt:CLI-C67153_C98793 ;
	bo:ordinal "1"^^xsd:positiveInteger ;
	bo:enabled "true"^^xsd:boolean ;
	bo:optional "true"^^xsd:boolean ;
	bo:local_label ""^^xsd:string ;
.
:BC-ACME_BC_C98793_DefinedObservation_targetAnatomicSiteCode
	rdf:type cbc:Item ;
	cbc:ordinal "2"^^xsd:positiveInteger ;
	cbc:bridg_class "DefinedObservation"^^xsd:string ;
	cbc:bridg_attribute "targetAnatomicSiteCode"^^xsd:string ;
	cbc:alias "SiteOfAdministration"^^xsd:string ;
	cbc:hasDatatype :BC-ACME_BC_C98793_DefinedObservation_targetAnatomicSiteCode_CD ;
	cbc:iso21090_datatype "CD"^^xsd:string ;
.
:BC-ACME_BC_C98793_DefinedObservation_targetAnatomicSiteCode_CD
	rdf:type cbc:Datatype ;
	cbc:iso21090_datatype "CD"^^xsd:string ;
	cbc:hasProperty :BC-ACME_BC_C98793_DefinedObservation_targetAnatomicSiteCode_CD_code ;
.
:BC-ACME_BC_C98793_DefinedObservation_targetAnatomicSiteCode_CD_code
	rdf:type cbc:Property ;
	cbc:alias "Location (--LOC)"^^xsd:string ;
	cbc:ordinal "1"^^xsd:positiveInteger ;
	cbc:question_text "Location of test"^^xsd:string ;
	cbc:prompt_text "Location"^^xsd:string ;
	cbc:enabled "false"^^xsd:boolean ;
	cbc:collect "true"^^xsd:boolean ;
	cbc:bridg_path "DefinedObservation.targetAnatomicSiteCode.CD.code"^^xsd:string ;
	cbc:simple_datatype "string"^^xsd:string ;
	cbc:format ""^^xsd:string ;
.
:BC-ACME_BC_C98793_DefinedObservation_methodCode
	rdf:type cbc:Item ;
	cbc:ordinal "3"^^xsd:positiveInteger ;
	cbc:bridg_class "DefinedObservation"^^xsd:string ;
	cbc:bridg_attribute "methodCode"^^xsd:string ;
	cbc:alias "Method"^^xsd:string ;
	cbc:hasDatatype :BC-ACME_BC_C98793_DefinedObservation_methodCode_CD ;
	cbc:iso21090_datatype "CD"^^xsd:string ;
.
:BC-ACME_BC_C98793_DefinedObservation_methodCode_CD
	rdf:type cbc:Datatype ;
	cbc:iso21090_datatype "CD"^^xsd:string ;
	cbc:hasProperty :BC-ACME_BC_C98793_DefinedObservation_methodCode_CD_code ;
.
:BC-ACME_BC_C98793_DefinedObservation_methodCode_CD_code
	rdf:type cbc:Property ;
	cbc:alias "Method Code (--METHOD)"^^xsd:string ;
	cbc:ordinal "1"^^xsd:positiveInteger ;
	cbc:question_text "Question text"^^xsd:string ;
	cbc:prompt_text "Prompt text"^^xsd:string ;
	cbc:enabled "false"^^xsd:boolean ;
	cbc:collect "true"^^xsd:boolean ;
	cbc:bridg_path "DefinedObservation.methodCode.CD.code"^^xsd:string ;
	cbc:simple_datatype "string"^^xsd:string ;
	cbc:format ""^^xsd:string ;
.
:BC-ACME_BC_C98793_PerformedObservation_dateRange
	rdf:type cbc:Item ;
	cbc:ordinal "4"^^xsd:positiveInteger ;
	cbc:bridg_class "PerformedObservation"^^xsd:string ;
	cbc:bridg_attribute "dateRange"^^xsd:string ;
	cbc:alias "DateTime"^^xsd:string ;
	cbc:hasDatatype :BC-ACME_BC_C98793_PerformedObservation_dateRange_IVL_TS_DATETIME ;
	cbc:iso21090_datatype "IVL_TS_DATETIME"^^xsd:string ;
.
:BC-ACME_BC_C98793_PerformedObservation_dateRange_IVL_TS_DATETIME
	rdf:type cbc:Datatype ;
	cbc:iso21090_datatype "IVL_TS_DATETIME"^^xsd:string ;
	cbc:hasProperty :BC-ACME_BC_C98793_PerformedObservation_dateRange_IVL_TS_DATETIME_low ;
.
:BC-ACME_BC_C98793_PerformedObservation_dateRange_IVL_TS_DATETIME_low
	rdf:type cbc:Property ;
	cbc:alias "Date"^^xsd:string ;
	cbc:hasComplexDatatype :BC-ACME_BC_C98793_PerformedObservation_dateRange_IVL_TS_DATETIME_low_TS_DATETIME ;
.
:BC-ACME_BC_C98793_PerformedObservation_dateRange_IVL_TS_DATETIME_low_TS_DATETIME
	rdf:type cbc:Datatype ;
	cbc:iso21090_datatype "TS_DATETIME"^^xsd:string ;
	cbc:hasProperty :BC-ACME_BC_C98793_PerformedObservation_dateRange_IVL_TS_DATETIME_low_TS_DATETIME_value ;
.
:BC-ACME_BC_C98793_PerformedObservation_dateRange_IVL_TS_DATETIME_low_TS_DATETIME_value
	rdf:type cbc:Property ;
	cbc:alias "Date and Time (--DTC)"^^xsd:string ;
	cbc:ordinal "1"^^xsd:positiveInteger ;
	cbc:question_text "Question text"^^xsd:string ;
	cbc:prompt_text "Prompt text"^^xsd:string ;
	cbc:enabled "true"^^xsd:boolean ;
	cbc:collect "true"^^xsd:boolean ;
	cbc:bridg_path "PerformedObservation.dateRange.IVL_TS_DATETIME.low.TS_DATETIME.value"^^xsd:string ;
	cbc:simple_datatype "dateTime"^^xsd:string ;
	cbc:format ""^^xsd:string ;
.
:BC-ACME_BC_C98793_PerformedObservation_negationReason
	rdf:type cbc:Item ;
	cbc:ordinal "5"^^xsd:positiveInteger ;
	cbc:bridg_class "PerformedObservation"^^xsd:string ;
	cbc:bridg_attribute "negationReason"^^xsd:string ;
	cbc:alias "ReasonNotDone"^^xsd:string ;
	cbc:hasDatatype :BC-ACME_BC_C98793_PerformedObservation_negationReason_SC ;
	cbc:iso21090_datatype "SC"^^xsd:string ;
.
:BC-ACME_BC_C98793_PerformedObservation_negationReason_SC
	rdf:type cbc:Datatype ;
	cbc:iso21090_datatype "SC"^^xsd:string ;
	cbc:hasProperty :BC-ACME_BC_C98793_PerformedObservation_negationReason_SC_code ;
.
:BC-ACME_BC_C98793_PerformedObservation_negationReason_SC_code
	rdf:type cbc:Property ;
	cbc:alias "Code"^^xsd:string ;
	cbc:hasComplexDatatype :BC-ACME_BC_C98793_PerformedObservation_negationReason_SC_code_CD ;
.
:BC-ACME_BC_C98793_PerformedObservation_negationReason_SC_code_CD
	rdf:type cbc:Datatype ;
	cbc:iso21090_datatype "CD"^^xsd:string ;
.
:BC-ACME_BC_C98793_PerformedObservation_bodyPositionCode
	rdf:type cbc:Item ;
	cbc:ordinal "6"^^xsd:positiveInteger ;
	cbc:bridg_class "PerformedObservation"^^xsd:string ;
	cbc:bridg_attribute "bodyPositionCode"^^xsd:string ;
	cbc:alias "Position"^^xsd:string ;
	cbc:hasDatatype :BC-ACME_BC_C98793_PerformedObservation_bodyPositionCode_CD ;
	cbc:iso21090_datatype "CD"^^xsd:string ;
.
:BC-ACME_BC_C98793_PerformedObservation_bodyPositionCode_CD
	rdf:type cbc:Datatype ;
	cbc:iso21090_datatype "CD"^^xsd:string ;
	cbc:hasProperty :BC-ACME_BC_C98793_PerformedObservation_bodyPositionCode_CD_code ;
.
:BC-ACME_BC_C98793_PerformedObservation_bodyPositionCode_CD_code
	rdf:type cbc:Property ;
	cbc:alias "Body Position (--POS)"^^xsd:string ;
	cbc:ordinal "1"^^xsd:positiveInteger ;
	cbc:question_text "Question text"^^xsd:string ;
	cbc:prompt_text "Prompt text"^^xsd:string ;
	cbc:enabled "false"^^xsd:boolean ;
	cbc:collect "true"^^xsd:boolean ;
	cbc:bridg_path "PerformedObservation.bodyPositionCode.CD.code"^^xsd:string ;
	cbc:simple_datatype "string"^^xsd:string ;
	cbc:format ""^^xsd:string ;
.
:BC-ACME_BC_C98793_PerformedObservation_targetAnatomicSiteLateralityCode
	rdf:type cbc:Item ;
	cbc:ordinal "7"^^xsd:positiveInteger ;
	cbc:bridg_class "PerformedObservation"^^xsd:string ;
	cbc:bridg_attribute "targetAnatomicSiteLateralityCode"^^xsd:string ;
	cbc:alias "Laterality"^^xsd:string ;
	cbc:hasDatatype :BC-ACME_BC_C98793_PerformedObservation_targetAnatomicSiteLateralityCode_CD ;
	cbc:iso21090_datatype "CD"^^xsd:string ;
.
:BC-ACME_BC_C98793_PerformedObservation_targetAnatomicSiteLateralityCode_CD
	rdf:type cbc:Datatype ;
	cbc:iso21090_datatype "CD"^^xsd:string ;
	cbc:hasProperty :BC-ACME_BC_C98793_PerformedObservation_targetAnatomicSiteLateralityCode_CD_code ;
.
:BC-ACME_BC_C98793_PerformedObservation_targetAnatomicSiteLateralityCode_CD_code
	rdf:type cbc:Property ;
	cbc:alias "Laterality (--LAT)"^^xsd:string ;
	cbc:ordinal "1"^^xsd:positiveInteger ;
	cbc:question_text "Question text"^^xsd:string ;
	cbc:prompt_text "Prompt text"^^xsd:string ;
	cbc:enabled "false"^^xsd:boolean ;
	cbc:collect "true"^^xsd:boolean ;
	cbc:bridg_path "PerformedObservation.targetAnatomicSiteLateralityCode.CD.code"^^xsd:string ;
	cbc:simple_datatype "string"^^xsd:string ;
	cbc:format ""^^xsd:string ;
.
:BC-ACME_BC_C98793_PerformedClinicalResult_value
	rdf:type cbc:Item ;
	cbc:ordinal "8"^^xsd:positiveInteger ;
	cbc:bridg_class "PerformedClinicalResult"^^xsd:string ;
	cbc:bridg_attribute "value"^^xsd:string ;
	cbc:alias "Result"^^xsd:string ;
	cbc:hasDatatype :BC-ACME_BC_C98793_PerformedClinicalResult_value_PQR ;
	cbc:iso21090_datatype "PQR"^^xsd:string ;
.
:BC-ACME_BC_C98793_PerformedClinicalResult_value_PQR
	rdf:type cbc:Datatype ;
	cbc:iso21090_datatype "PQR"^^xsd:string ;
	cbc:hasProperty :BC-ACME_BC_C98793_PerformedClinicalResult_value_PQR_value ;
	cbc:hasProperty :BC-ACME_BC_C98793_PerformedClinicalResult_value_PQR_code ;
.
:BC-ACME_BC_C98793_PerformedClinicalResult_value_PQR_value
	rdf:type cbc:Property ;
	cbc:alias "Result Value (--ORRES)"^^xsd:string ;
	cbc:ordinal "1"^^xsd:positiveInteger ;
	cbc:question_text "Question text"^^xsd:string ;
	cbc:prompt_text "Prompt text"^^xsd:string ;
	cbc:enabled "true"^^xsd:boolean ;
	cbc:collect "true"^^xsd:boolean ;
	cbc:bridg_path "PerformedClinicalResult.value.PQR.value"^^xsd:string ;
	cbc:simple_datatype "float"^^xsd:string ;
	cbc:format ""^^xsd:string ;
.
:BC-ACME_BC_C98793_PerformedClinicalResult_value_PQR_code
	rdf:type cbc:Property ;
	cbc:alias "Result Units (--ORRESU)"^^xsd:string ;
	cbc:hasThesaurusConcept :BC-ACME_BC_C98793_PerformedClinicalResult_value_PQR_code_TR_1 ;
	cbc:ordinal "2"^^xsd:positiveInteger ;
	cbc:question_text "Question text"^^xsd:string ;
	cbc:prompt_text "Prompt text"^^xsd:string ;
	cbc:enabled "true"^^xsd:boolean ;
	cbc:collect "true"^^xsd:boolean ;
	cbc:bridg_path "PerformedClinicalResult.value.PQR.code"^^xsd:string ;
	cbc:simple_datatype "string"^^xsd:string ;
	cbc:format ""^^xsd:string ;
.
:BC-ACME_BC_C98793_PerformedClinicalResult_value_PQR_code_TR_1
	rdf:type bo:TcReference ;
	rdfs:label "Thesaurus Concept Reference"^^xsd:string ;
	bo:hasThesaurusConcept cCt:CLI-C66770_C28251 ;
	bo:ordinal "1"^^xsd:positiveInteger ;
	bo:enabled "true"^^xsd:boolean ;
	bo:optional "true"^^xsd:boolean ;
	bo:local_label ""^^xsd:string ;
.
:BC-ACME_BC_C98793_PerformedClinicalResult_baselineIndicator
	rdf:type cbc:Item ;
	cbc:ordinal "9"^^xsd:positiveInteger ;
	cbc:bridg_class "PerformedClinicalResult"^^xsd:string ;
	cbc:bridg_attribute "baselineIndicator"^^xsd:string ;
	cbc:alias "Baseline"^^xsd:string ;
	cbc:hasDatatype :BC-ACME_BC_C98793_PerformedClinicalResult_baselineIndicator_BL ;
	cbc:iso21090_datatype "BL"^^xsd:string ;
.
:BC-ACME_BC_C98793_PerformedClinicalResult_baselineIndicator_BL
	rdf:type cbc:Datatype ;
	cbc:iso21090_datatype "BL"^^xsd:string ;
	cbc:hasProperty :BC-ACME_BC_C98793_PerformedClinicalResult_baselineIndicator_BL_value ;
.
:BC-ACME_BC_C98793_PerformedClinicalResult_baselineIndicator_BL_value
	rdf:type cbc:Property ;
	cbc:alias "Baseline (--BLFL)"^^xsd:string ;
	cbc:hasThesaurusConcept :BC-ACME_BC_C98793_PerformedClinicalResult_baselineIndicator_BL_value_TR_1 ;
	cbc:hasThesaurusConcept :BC-ACME_BC_C98793_PerformedClinicalResult_baselineIndicator_BL_value_TR_2 ;
	cbc:ordinal "1"^^xsd:positiveInteger ;
	cbc:question_text "Question text"^^xsd:string ;
	cbc:prompt_text "Prompt text"^^xsd:string ;
	cbc:enabled "false"^^xsd:boolean ;
	cbc:collect "true"^^xsd:boolean ;
	cbc:bridg_path "PerformedClinicalResult.baselineIndicator.BL.value"^^xsd:string ;
	cbc:simple_datatype "boolean"^^xsd:string ;
	cbc:format ""^^xsd:string ;
.
:BC-ACME_BC_C98793_PerformedClinicalResult_baselineIndicator_BL_value_TR_1
	rdf:type bo:TcReference ;
	rdfs:label "Thesaurus Concept Reference"^^xsd:string ;
	bo:hasThesaurusConcept cCt:CLI-C66742_C49487 ;
	bo:ordinal "1"^^xsd:positiveInteger ;
	bo:enabled "true"^^xsd:boolean ;
	bo:optional "true"^^xsd:boolean ;
	bo:local_label ""^^xsd:string ;
.
:BC-ACME_BC_C98793_PerformedClinicalResult_baselineIndicator_BL_value_TR_2
	rdf:type bo:TcReference ;
	rdfs:label "Thesaurus Concept Reference"^^xsd:string ;
	bo:hasThesaurusConcept cCt:CLI-C66742_C49488 ;
	bo:ordinal "2"^^xsd:positiveInteger ;
	bo:enabled "true"^^xsd:boolean ;
	bo:optional "true"^^xsd:boolean ;
	bo:local_label ""^^xsd:string ;
.
:BC-ACME_BC_A00003
	rdf:type cbc:BiomedicalConceptInstance ;
	cbc:basedOnTemplate :BC-ACME_BC_A00003_TPR ;
	cbc:hasItem :BC-ACME_BC_A00003_DefinedObservation_nameCode ;
	cbc:hasItem :BC-ACME_BC_A00003_DefinedObservation_targetAnatomicSiteCode ;
	cbc:hasItem :BC-ACME_BC_A00003_DefinedObservation_methodCode ;
	cbc:hasItem :BC-ACME_BC_A00003_PerformedObservation_dateRange ;
	cbc:hasItem :BC-ACME_BC_A00003_PerformedObservation_negationReason ;
	cbc:hasItem :BC-ACME_BC_A00003_PerformedObservation_bodyPositionCode ;
	cbc:hasItem :BC-ACME_BC_A00003_PerformedObservation_targetAnatomicSiteLateralityCode ;
	cbc:hasItem :BC-ACME_BC_A00003_PerformedClinicalResult_value ;
	cbc:hasItem :BC-ACME_BC_A00003_PerformedClinicalResult_baselineIndicator ;
	rdfs:label "Mid Upper Arm Circumference (BC_A00003)"^^xsd:string ;
	isoI:hasIdentifier mdrItems:SI-ACME_BC_A00003-1 ;
	isoR:hasState mdrItems:RS-ACME_BC_A00003-1 ;
	isoT:origin ""^^xsd:string ;
	isoT:changeDescription ""^^xsd:string ;
	isoT:creationDate "2016-01-01"^^xsd:date ;
	isoT:lastChangeDate "2016-01-01"^^xsd:date ;
	isoT:explanatoryComment ""^^xsd:string ;
.
:BC-ACME_BC_A00003_TPR
	rdf:type bo:BctReference ;
	rdfs:label "Biomedical Concept Template Reference"^^xsd:string ;
	bo:basedOnTemplate mdrBcts:BCT-Obs_PQR ;
	bo:ordinal "1"^^xsd:positiveInteger ;
	bo:enabled "true"^^xsd:boolean ;
	bo:optional "false"^^xsd:boolean ;
	bo:local_label ""^^xsd:string ;
.
mdrItems:SI-ACME_BC_A00003-1
	rdf:type isoI:ScopedIdentifier ;
	isoI:identifier "BC_A00003"^^xsd:string ;
	isoI:versionLabel "0.1"^^xsd:string ;
	isoI:version "1"^^xsd:positiveInteger ;
	isoI:hasScope mdrItems:NS-ACME ;
.
mdrItems:RS-ACME_BC_A00003-1
	rdf:type isoR:RegistrationState ;
	isoR:registrationStatus "Standard"^^xsd:string ;
	isoR:administrativeNote ""^^xsd:string ;
	isoR:effectiveDate "2016-01-01T00:00:00Z"^^xsd:dateTime ;
	isoR:untilDate "2016-01-01T00:00:00Z"^^xsd:dateTime ;
	isoR:unresolvedIssue ""^^xsd:string ;
	isoR:administrativeStatus ""^^xsd:string ;
	isoR:previousState "Qualified"^^xsd:string ;
	isoR:byAuthority mdrItems:RA-123456789 ;
.
:BC-ACME_BC_A00003_DefinedObservation_nameCode
	rdf:type cbc:Item ;
	cbc:ordinal "1"^^xsd:positiveInteger ;
	cbc:bridg_class "DefinedObservation"^^xsd:string ;
	cbc:bridg_attribute "nameCode"^^xsd:string ;
	cbc:alias "Test"^^xsd:string ;
	cbc:hasDatatype :BC-ACME_BC_A00003_DefinedObservation_nameCode_CD ;
	cbc:iso21090_datatype "CD"^^xsd:string ;
.
:BC-ACME_BC_A00003_DefinedObservation_nameCode_CD
	rdf:type cbc:Datatype ;
	cbc:iso21090_datatype "CD"^^xsd:string ;
	cbc:hasProperty :BC-ACME_BC_A00003_DefinedObservation_nameCode_CD_code ;
	cbc:hasProperty :BC-ACME_BC_A00003_DefinedObservation_nameCode_CD_originalText ;
.
:BC-ACME_BC_A00003_DefinedObservation_nameCode_CD_code
	rdf:type cbc:Property ;
	cbc:alias "Test Code (--TESTCD)"^^xsd:string ;
	cbc:hasThesaurusConcept :BC-ACME_BC_A00003_DefinedObservation_nameCode_CD_code_TR_1 ;
	cbc:ordinal "1"^^xsd:positiveInteger ;
	cbc:question_text "Question text"^^xsd:string ;
	cbc:prompt_text "Prompt text"^^xsd:string ;
	cbc:enabled "true"^^xsd:boolean ;
	cbc:collect "false"^^xsd:boolean ;
	cbc:bridg_path "DefinedObservation.nameCode.CD.code"^^xsd:string ;
	cbc:simple_datatype "string"^^xsd:string ;
	cbc:format ""^^xsd:string ;
.
:BC-ACME_BC_A00003_DefinedObservation_nameCode_CD_code_TR_1
	rdf:type bo:TcReference ;
	rdfs:label "Thesaurus Concept Reference"^^xsd:string ;
	bo:hasThesaurusConcept aCt:THC-A00003 ;
	bo:ordinal "1"^^xsd:positiveInteger ;
	bo:enabled "true"^^xsd:boolean ;
	bo:optional "true"^^xsd:boolean ;
	bo:local_label ""^^xsd:string ;
.
:BC-ACME_BC_A00003_DefinedObservation_nameCode_CD_originalText
	rdf:type cbc:Property ;
	cbc:alias "Name"^^xsd:string ;
	cbc:hasComplexDatatype :BC-ACME_BC_A00003_DefinedObservation_nameCode_CD_originalText_ED ;
.
:BC-ACME_BC_A00003_DefinedObservation_nameCode_CD_originalText_ED
	rdf:type cbc:Datatype ;
	cbc:iso21090_datatype "ED"^^xsd:string ;
	cbc:hasProperty :BC-ACME_BC_A00003_DefinedObservation_nameCode_CD_originalText_ED_value ;
.
:BC-ACME_BC_A00003_DefinedObservation_nameCode_CD_originalText_ED_value
	rdf:type cbc:Property ;
	cbc:alias "Test Name (--TEST)"^^xsd:string ;
	cbc:hasThesaurusConcept :BC-ACME_BC_A00003_DefinedObservation_nameCode_CD_originalText_ED_value_TR_1 ;
	cbc:ordinal "1"^^xsd:positiveInteger ;
	cbc:question_text "Question text"^^xsd:string ;
	cbc:prompt_text "Prompt text"^^xsd:string ;
	cbc:enabled "true"^^xsd:boolean ;
	cbc:collect "false"^^xsd:boolean ;
	cbc:bridg_path "DefinedObservation.nameCode.CD.originalText.ED.value"^^xsd:string ;
	cbc:simple_datatype "string"^^xsd:string ;
	cbc:format ""^^xsd:string ;
.
:BC-ACME_BC_A00003_DefinedObservation_nameCode_CD_originalText_ED_value_TR_1
	rdf:type bo:TcReference ;
	rdfs:label "Thesaurus Concept Reference"^^xsd:string ;
	bo:hasThesaurusConcept aCt:THC-A00003 ;
	bo:ordinal "1"^^xsd:positiveInteger ;
	bo:enabled "true"^^xsd:boolean ;
	bo:optional "true"^^xsd:boolean ;
	bo:local_label ""^^xsd:string ;
.
:BC-ACME_BC_A00003_DefinedObservation_targetAnatomicSiteCode
	rdf:type cbc:Item ;
	cbc:ordinal "2"^^xsd:positiveInteger ;
	cbc:bridg_class "DefinedObservation"^^xsd:string ;
	cbc:bridg_attribute "targetAnatomicSiteCode"^^xsd:string ;
	cbc:alias "SiteOfAdministration"^^xsd:string ;
	cbc:hasDatatype :BC-ACME_BC_A00003_DefinedObservation_targetAnatomicSiteCode_CD ;
	cbc:iso21090_datatype "CD"^^xsd:string ;
.
:BC-ACME_BC_A00003_DefinedObservation_targetAnatomicSiteCode_CD
	rdf:type cbc:Datatype ;
	cbc:iso21090_datatype "CD"^^xsd:string ;
	cbc:hasProperty :BC-ACME_BC_A00003_DefinedObservation_targetAnatomicSiteCode_CD_code ;
.
:BC-ACME_BC_A00003_DefinedObservation_targetAnatomicSiteCode_CD_code
	rdf:type cbc:Property ;
	cbc:alias "Location (--LOC)"^^xsd:string ;
	cbc:ordinal "1"^^xsd:positiveInteger ;
	cbc:question_text "Location of test"^^xsd:string ;
	cbc:prompt_text "Location"^^xsd:string ;
	cbc:enabled "false"^^xsd:boolean ;
	cbc:collect "true"^^xsd:boolean ;
	cbc:bridg_path "DefinedObservation.targetAnatomicSiteCode.CD.code"^^xsd:string ;
	cbc:simple_datatype "string"^^xsd:string ;
	cbc:format ""^^xsd:string ;
.
:BC-ACME_BC_A00003_DefinedObservation_methodCode
	rdf:type cbc:Item ;
	cbc:ordinal "3"^^xsd:positiveInteger ;
	cbc:bridg_class "DefinedObservation"^^xsd:string ;
	cbc:bridg_attribute "methodCode"^^xsd:string ;
	cbc:alias "Method"^^xsd:string ;
	cbc:hasDatatype :BC-ACME_BC_A00003_DefinedObservation_methodCode_CD ;
	cbc:iso21090_datatype "CD"^^xsd:string ;
.
:BC-ACME_BC_A00003_DefinedObservation_methodCode_CD
	rdf:type cbc:Datatype ;
	cbc:iso21090_datatype "CD"^^xsd:string ;
	cbc:hasProperty :BC-ACME_BC_A00003_DefinedObservation_methodCode_CD_code ;
.
:BC-ACME_BC_A00003_DefinedObservation_methodCode_CD_code
	rdf:type cbc:Property ;
	cbc:alias "Method Code (--METHOD)"^^xsd:string ;
	cbc:ordinal "1"^^xsd:positiveInteger ;
	cbc:question_text "Question text"^^xsd:string ;
	cbc:prompt_text "Prompt text"^^xsd:string ;
	cbc:enabled "false"^^xsd:boolean ;
	cbc:collect "true"^^xsd:boolean ;
	cbc:bridg_path "DefinedObservation.methodCode.CD.code"^^xsd:string ;
	cbc:simple_datatype "string"^^xsd:string ;
	cbc:format ""^^xsd:string ;
.
:BC-ACME_BC_A00003_PerformedObservation_dateRange
	rdf:type cbc:Item ;
	cbc:ordinal "4"^^xsd:positiveInteger ;
	cbc:bridg_class "PerformedObservation"^^xsd:string ;
	cbc:bridg_attribute "dateRange"^^xsd:string ;
	cbc:alias "DateTime"^^xsd:string ;
	cbc:hasDatatype :BC-ACME_BC_A00003_PerformedObservation_dateRange_IVL_TS_DATETIME ;
	cbc:iso21090_datatype "IVL_TS_DATETIME"^^xsd:string ;
.
:BC-ACME_BC_A00003_PerformedObservation_dateRange_IVL_TS_DATETIME
	rdf:type cbc:Datatype ;
	cbc:iso21090_datatype "IVL_TS_DATETIME"^^xsd:string ;
	cbc:hasProperty :BC-ACME_BC_A00003_PerformedObservation_dateRange_IVL_TS_DATETIME_low ;
.
:BC-ACME_BC_A00003_PerformedObservation_dateRange_IVL_TS_DATETIME_low
	rdf:type cbc:Property ;
	cbc:alias "Date"^^xsd:string ;
	cbc:hasComplexDatatype :BC-ACME_BC_A00003_PerformedObservation_dateRange_IVL_TS_DATETIME_low_TS_DATETIME ;
.
:BC-ACME_BC_A00003_PerformedObservation_dateRange_IVL_TS_DATETIME_low_TS_DATETIME
	rdf:type cbc:Datatype ;
	cbc:iso21090_datatype "TS_DATETIME"^^xsd:string ;
	cbc:hasProperty :BC-ACME_BC_A00003_PerformedObservation_dateRange_IVL_TS_DATETIME_low_TS_DATETIME_value ;
.
:BC-ACME_BC_A00003_PerformedObservation_dateRange_IVL_TS_DATETIME_low_TS_DATETIME_value
	rdf:type cbc:Property ;
	cbc:alias "Date and Time (--DTC)"^^xsd:string ;
	cbc:ordinal "1"^^xsd:positiveInteger ;
	cbc:question_text "Question text"^^xsd:string ;
	cbc:prompt_text "Prompt text"^^xsd:string ;
	cbc:enabled "true"^^xsd:boolean ;
	cbc:collect "true"^^xsd:boolean ;
	cbc:bridg_path "PerformedObservation.dateRange.IVL_TS_DATETIME.low.TS_DATETIME.value"^^xsd:string ;
	cbc:simple_datatype "dateTime"^^xsd:string ;
	cbc:format ""^^xsd:string ;
.
:BC-ACME_BC_A00003_PerformedObservation_negationReason
	rdf:type cbc:Item ;
	cbc:ordinal "5"^^xsd:positiveInteger ;
	cbc:bridg_class "PerformedObservation"^^xsd:string ;
	cbc:bridg_attribute "negationReason"^^xsd:string ;
	cbc:alias "ReasonNotDone"^^xsd:string ;
	cbc:hasDatatype :BC-ACME_BC_A00003_PerformedObservation_negationReason_SC ;
	cbc:iso21090_datatype "SC"^^xsd:string ;
.
:BC-ACME_BC_A00003_PerformedObservation_negationReason_SC
	rdf:type cbc:Datatype ;
	cbc:iso21090_datatype "SC"^^xsd:string ;
	cbc:hasProperty :BC-ACME_BC_A00003_PerformedObservation_negationReason_SC_code ;
.
:BC-ACME_BC_A00003_PerformedObservation_negationReason_SC_code
	rdf:type cbc:Property ;
	cbc:alias "Code"^^xsd:string ;
	cbc:hasComplexDatatype :BC-ACME_BC_A00003_PerformedObservation_negationReason_SC_code_CD ;
.
:BC-ACME_BC_A00003_PerformedObservation_negationReason_SC_code_CD
	rdf:type cbc:Datatype ;
	cbc:iso21090_datatype "CD"^^xsd:string ;
.
:BC-ACME_BC_A00003_PerformedObservation_bodyPositionCode
	rdf:type cbc:Item ;
	cbc:ordinal "6"^^xsd:positiveInteger ;
	cbc:bridg_class "PerformedObservation"^^xsd:string ;
	cbc:bridg_attribute "bodyPositionCode"^^xsd:string ;
	cbc:alias "Position"^^xsd:string ;
	cbc:hasDatatype :BC-ACME_BC_A00003_PerformedObservation_bodyPositionCode_CD ;
	cbc:iso21090_datatype "CD"^^xsd:string ;
.
:BC-ACME_BC_A00003_PerformedObservation_bodyPositionCode_CD
	rdf:type cbc:Datatype ;
	cbc:iso21090_datatype "CD"^^xsd:string ;
	cbc:hasProperty :BC-ACME_BC_A00003_PerformedObservation_bodyPositionCode_CD_code ;
.
:BC-ACME_BC_A00003_PerformedObservation_bodyPositionCode_CD_code
	rdf:type cbc:Property ;
	cbc:alias "Body Position (--POS)"^^xsd:string ;
	cbc:hasThesaurusConcept :BC-ACME_BC_A00003_PerformedObservation_bodyPositionCode_CD_code_TR_1 ;
	cbc:hasThesaurusConcept :BC-ACME_BC_A00003_PerformedObservation_bodyPositionCode_CD_code_TR_2 ;
	cbc:hasThesaurusConcept :BC-ACME_BC_A00003_PerformedObservation_bodyPositionCode_CD_code_TR_3 ;
	cbc:ordinal "1"^^xsd:positiveInteger ;
	cbc:question_text "Question text"^^xsd:string ;
	cbc:prompt_text "Prompt text"^^xsd:string ;
	cbc:enabled "true"^^xsd:boolean ;
	cbc:collect "true"^^xsd:boolean ;
	cbc:bridg_path "PerformedObservation.bodyPositionCode.CD.code"^^xsd:string ;
	cbc:simple_datatype "string"^^xsd:string ;
	cbc:format ""^^xsd:string ;
.
:BC-ACME_BC_A00003_PerformedObservation_bodyPositionCode_CD_code_TR_1
	rdf:type bo:TcReference ;
	rdfs:label "Thesaurus Concept Reference"^^xsd:string ;
	bo:hasThesaurusConcept cCt:CLI-C71148_C62122 ;
	bo:ordinal "1"^^xsd:positiveInteger ;
	bo:enabled "true"^^xsd:boolean ;
	bo:optional "true"^^xsd:boolean ;
	bo:local_label ""^^xsd:string ;
.
:BC-ACME_BC_A00003_PerformedObservation_bodyPositionCode_CD_code_TR_2
	rdf:type bo:TcReference ;
	rdfs:label "Thesaurus Concept Reference"^^xsd:string ;
	bo:hasThesaurusConcept cCt:CLI-C71148_C62166 ;
	bo:ordinal "2"^^xsd:positiveInteger ;
	bo:enabled "true"^^xsd:boolean ;
	bo:optional "true"^^xsd:boolean ;
	bo:local_label ""^^xsd:string ;
.
:BC-ACME_BC_A00003_PerformedObservation_bodyPositionCode_CD_code_TR_3
	rdf:type bo:TcReference ;
	rdfs:label "Thesaurus Concept Reference"^^xsd:string ;
	bo:hasThesaurusConcept cCt:CLI-C71148_C62167 ;
	bo:ordinal "3"^^xsd:positiveInteger ;
	bo:enabled "true"^^xsd:boolean ;
	bo:optional "true"^^xsd:boolean ;
	bo:local_label ""^^xsd:string ;
.
:BC-ACME_BC_A00003_PerformedObservation_targetAnatomicSiteLateralityCode
	rdf:type cbc:Item ;
	cbc:ordinal "7"^^xsd:positiveInteger ;
	cbc:bridg_class "PerformedObservation"^^xsd:string ;
	cbc:bridg_attribute "targetAnatomicSiteLateralityCode"^^xsd:string ;
	cbc:alias "Laterality"^^xsd:string ;
	cbc:hasDatatype :BC-ACME_BC_A00003_PerformedObservation_targetAnatomicSiteLateralityCode_CD ;
	cbc:iso21090_datatype "CD"^^xsd:string ;
.
:BC-ACME_BC_A00003_PerformedObservation_targetAnatomicSiteLateralityCode_CD
	rdf:type cbc:Datatype ;
	cbc:iso21090_datatype "CD"^^xsd:string ;
	cbc:hasProperty :BC-ACME_BC_A00003_PerformedObservation_targetAnatomicSiteLateralityCode_CD_code ;
.
:BC-ACME_BC_A00003_PerformedObservation_targetAnatomicSiteLateralityCode_CD_code
	rdf:type cbc:Property ;
	cbc:alias "Laterality (--LAT)"^^xsd:string ;
	cbc:hasThesaurusConcept :BC-ACME_BC_A00003_PerformedObservation_targetAnatomicSiteLateralityCode_CD_code_TR_1 ;
	cbc:hasThesaurusConcept :BC-ACME_BC_A00003_PerformedObservation_targetAnatomicSiteLateralityCode_CD_code_TR_2 ;
	cbc:ordinal "1"^^xsd:positiveInteger ;
	cbc:question_text "Question text"^^xsd:string ;
	cbc:prompt_text "Prompt text"^^xsd:string ;
	cbc:enabled "true"^^xsd:boolean ;
	cbc:collect "true"^^xsd:boolean ;
	cbc:bridg_path "PerformedObservation.targetAnatomicSiteLateralityCode.CD.code"^^xsd:string ;
	cbc:simple_datatype "string"^^xsd:string ;
	cbc:format ""^^xsd:string ;
.
:BC-ACME_BC_A00003_PerformedObservation_targetAnatomicSiteLateralityCode_CD_code_TR_1
	rdf:type bo:TcReference ;
	rdfs:label "Thesaurus Concept Reference"^^xsd:string ;
	bo:hasThesaurusConcept cCt:CLI-C99073_C25228 ;
	bo:ordinal "1"^^xsd:positiveInteger ;
	bo:enabled "true"^^xsd:boolean ;
	bo:optional "true"^^xsd:boolean ;
	bo:local_label ""^^xsd:string ;
.
:BC-ACME_BC_A00003_PerformedObservation_targetAnatomicSiteLateralityCode_CD_code_TR_2
	rdf:type bo:TcReference ;
	rdfs:label "Thesaurus Concept Reference"^^xsd:string ;
	bo:hasThesaurusConcept cCt:CLI-C99073_C25229 ;
	bo:ordinal "2"^^xsd:positiveInteger ;
	bo:enabled "true"^^xsd:boolean ;
	bo:optional "true"^^xsd:boolean ;
	bo:local_label ""^^xsd:string ;
.
:BC-ACME_BC_A00003_PerformedClinicalResult_value
	rdf:type cbc:Item ;
	cbc:ordinal "8"^^xsd:positiveInteger ;
	cbc:bridg_class "PerformedClinicalResult"^^xsd:string ;
	cbc:bridg_attribute "value"^^xsd:string ;
	cbc:alias "Result"^^xsd:string ;
	cbc:hasDatatype :BC-ACME_BC_A00003_PerformedClinicalResult_value_PQR ;
	cbc:iso21090_datatype "PQR"^^xsd:string ;
.
:BC-ACME_BC_A00003_PerformedClinicalResult_value_PQR
	rdf:type cbc:Datatype ;
	cbc:iso21090_datatype "PQR"^^xsd:string ;
	cbc:hasProperty :BC-ACME_BC_A00003_PerformedClinicalResult_value_PQR_value ;
	cbc:hasProperty :BC-ACME_BC_A00003_PerformedClinicalResult_value_PQR_code ;
.
:BC-ACME_BC_A00003_PerformedClinicalResult_value_PQR_value
	rdf:type cbc:Property ;
	cbc:alias "Result Value (--ORRES)"^^xsd:string ;
	cbc:ordinal "1"^^xsd:positiveInteger ;
	cbc:question_text "Question text"^^xsd:string ;
	cbc:prompt_text "Prompt text"^^xsd:string ;
	cbc:enabled "true"^^xsd:boolean ;
	cbc:collect "true"^^xsd:boolean ;
	cbc:bridg_path "PerformedClinicalResult.value.PQR.value"^^xsd:string ;
	cbc:simple_datatype "float"^^xsd:string ;
	cbc:format ""^^xsd:string ;
.
:BC-ACME_BC_A00003_PerformedClinicalResult_value_PQR_code
	rdf:type cbc:Property ;
	cbc:alias "Result Units (--ORRESU)"^^xsd:string ;
	cbc:hasThesaurusConcept :BC-ACME_BC_A00003_PerformedClinicalResult_value_PQR_code_TR_1 ;
	cbc:ordinal "2"^^xsd:positiveInteger ;
	cbc:question_text "Question text"^^xsd:string ;
	cbc:prompt_text "Prompt text"^^xsd:string ;
	cbc:enabled "true"^^xsd:boolean ;
	cbc:collect "true"^^xsd:boolean ;
	cbc:bridg_path "PerformedClinicalResult.value.PQR.code"^^xsd:string ;
	cbc:simple_datatype "string"^^xsd:string ;
	cbc:format ""^^xsd:string ;
.
:BC-ACME_BC_A00003_PerformedClinicalResult_value_PQR_code_TR_1
	rdf:type bo:TcReference ;
	rdfs:label "Thesaurus Concept Reference"^^xsd:string ;
	bo:hasThesaurusConcept cCt:CLI-C66770_C49668 ;
	bo:ordinal "1"^^xsd:positiveInteger ;
	bo:enabled "true"^^xsd:boolean ;
	bo:optional "true"^^xsd:boolean ;
	bo:local_label ""^^xsd:string ;
.
:BC-ACME_BC_A00003_PerformedClinicalResult_baselineIndicator
	rdf:type cbc:Item ;
	cbc:ordinal "9"^^xsd:positiveInteger ;
	cbc:bridg_class "PerformedClinicalResult"^^xsd:string ;
	cbc:bridg_attribute "baselineIndicator"^^xsd:string ;
	cbc:alias "Baseline"^^xsd:string ;
	cbc:hasDatatype :BC-ACME_BC_A00003_PerformedClinicalResult_baselineIndicator_BL ;
	cbc:iso21090_datatype "BL"^^xsd:string ;
.
:BC-ACME_BC_A00003_PerformedClinicalResult_baselineIndicator_BL
	rdf:type cbc:Datatype ;
	cbc:iso21090_datatype "BL"^^xsd:string ;
	cbc:hasProperty :BC-ACME_BC_A00003_PerformedClinicalResult_baselineIndicator_BL_value ;
.
:BC-ACME_BC_A00003_PerformedClinicalResult_baselineIndicator_BL_value
	rdf:type cbc:Property ;
	cbc:alias "Baseline (--BLFL)"^^xsd:string ;
	cbc:hasThesaurusConcept :BC-ACME_BC_A00003_PerformedClinicalResult_baselineIndicator_BL_value_TR_1 ;
	cbc:hasThesaurusConcept :BC-ACME_BC_A00003_PerformedClinicalResult_baselineIndicator_BL_value_TR_2 ;
	cbc:ordinal "1"^^xsd:positiveInteger ;
	cbc:question_text "Question text"^^xsd:string ;
	cbc:prompt_text "Prompt text"^^xsd:string ;
	cbc:enabled "false"^^xsd:boolean ;
	cbc:collect "true"^^xsd:boolean ;
	cbc:bridg_path "PerformedClinicalResult.baselineIndicator.BL.value"^^xsd:string ;
	cbc:simple_datatype "boolean"^^xsd:string ;
	cbc:format ""^^xsd:string ;
.
:BC-ACME_BC_A00003_PerformedClinicalResult_baselineIndicator_BL_value_TR_1
	rdf:type bo:TcReference ;
	rdfs:label "Thesaurus Concept Reference"^^xsd:string ;
	bo:hasThesaurusConcept cCt:CLI-C66742_C49487 ;
	bo:ordinal "1"^^xsd:positiveInteger ;
	bo:enabled "true"^^xsd:boolean ;
	bo:optional "true"^^xsd:boolean ;
	bo:local_label ""^^xsd:string ;
.
:BC-ACME_BC_A00003_PerformedClinicalResult_baselineIndicator_BL_value_TR_2
	rdf:type bo:TcReference ;
	rdfs:label "Thesaurus Concept Reference"^^xsd:string ;
	bo:hasThesaurusConcept cCt:CLI-C66742_C49488 ;
	bo:ordinal "2"^^xsd:positiveInteger ;
	bo:enabled "true"^^xsd:boolean ;
	bo:optional "true"^^xsd:boolean ;
	bo:local_label ""^^xsd:string ;
.
:BC-ACME_BC_C81255
	rdf:type cbc:BiomedicalConceptInstance ;
	cbc:basedOnTemplate :BC-ACME_BC_C81255_TPR ;
	cbc:hasItem :BC-ACME_BC_C81255_DefinedObservation_nameCode ;
	cbc:hasItem :BC-ACME_BC_C81255_DefinedObservation_targetAnatomicSiteCode ;
	cbc:hasItem :BC-ACME_BC_C81255_DefinedObservation_methodCode ;
	cbc:hasItem :BC-ACME_BC_C81255_PerformedObservation_dateRange ;
	cbc:hasItem :BC-ACME_BC_C81255_PerformedObservation_negationReason ;
	cbc:hasItem :BC-ACME_BC_C81255_PerformedObservation_bodyPositionCode ;
	cbc:hasItem :BC-ACME_BC_C81255_PerformedObservation_targetAnatomicSiteLateralityCode ;
	cbc:hasItem :BC-ACME_BC_C81255_PerformedClinicalResult_value ;
	cbc:hasItem :BC-ACME_BC_C81255_PerformedClinicalResult_baselineIndicator ;
	rdfs:label "Head Circumference (BC_C81255)"^^xsd:string ;
	isoI:hasIdentifier mdrItems:SI-ACME_BC_C81255-1 ;
	isoR:hasState mdrItems:RS-ACME_BC_C81255-1 ;
	isoT:origin ""^^xsd:string ;
	isoT:changeDescription ""^^xsd:string ;
	isoT:creationDate "2016-01-01"^^xsd:date ;
	isoT:lastChangeDate "2016-01-01"^^xsd:date ;
	isoT:explanatoryComment ""^^xsd:string ;
.
:BC-ACME_BC_C81255_TPR
	rdf:type bo:BctReference ;
	rdfs:label "Biomedical Concept Template Reference"^^xsd:string ;
	bo:basedOnTemplate mdrBcts:BCT-Obs_PQR ;
	bo:ordinal "1"^^xsd:positiveInteger ;
	bo:enabled "true"^^xsd:boolean ;
	bo:optional "false"^^xsd:boolean ;
	bo:local_label ""^^xsd:string ;
.
mdrItems:SI-ACME_BC_C81255-1
	rdf:type isoI:ScopedIdentifier ;
	isoI:identifier "BC_C81255"^^xsd:string ;
	isoI:versionLabel "0.1"^^xsd:string ;
	isoI:version "1"^^xsd:positiveInteger ;
	isoI:hasScope mdrItems:NS-ACME ;
.
mdrItems:RS-ACME_BC_C81255-1
	rdf:type isoR:RegistrationState ;
	isoR:registrationStatus "Standard"^^xsd:string ;
	isoR:administrativeNote ""^^xsd:string ;
	isoR:effectiveDate "2016-01-01T00:00:00Z"^^xsd:dateTime ;
	isoR:untilDate "2016-01-01T00:00:00Z"^^xsd:dateTime ;
	isoR:unresolvedIssue ""^^xsd:string ;
	isoR:administrativeStatus ""^^xsd:string ;
	isoR:previousState "Qualified"^^xsd:string ;
	isoR:byAuthority mdrItems:RA-123456789 ;
.
:BC-ACME_BC_C81255_DefinedObservation_nameCode
	rdf:type cbc:Item ;
	cbc:ordinal "1"^^xsd:positiveInteger ;
	cbc:bridg_class "DefinedObservation"^^xsd:string ;
	cbc:bridg_attribute "nameCode"^^xsd:string ;
	cbc:alias "Test"^^xsd:string ;
	cbc:hasDatatype :BC-ACME_BC_C81255_DefinedObservation_nameCode_CD ;
	cbc:iso21090_datatype "CD"^^xsd:string ;
.
:BC-ACME_BC_C81255_DefinedObservation_nameCode_CD
	rdf:type cbc:Datatype ;
	cbc:iso21090_datatype "CD"^^xsd:string ;
	cbc:hasProperty :BC-ACME_BC_C81255_DefinedObservation_nameCode_CD_code ;
	cbc:hasProperty :BC-ACME_BC_C81255_DefinedObservation_nameCode_CD_originalText ;
.
:BC-ACME_BC_C81255_DefinedObservation_nameCode_CD_code
	rdf:type cbc:Property ;
	cbc:alias "Test Code (--TESTCD)"^^xsd:string ;
	cbc:hasThesaurusConcept :BC-ACME_BC_C81255_DefinedObservation_nameCode_CD_code_TR_1 ;
	cbc:ordinal "1"^^xsd:positiveInteger ;
	cbc:question_text "Question text"^^xsd:string ;
	cbc:prompt_text "Prompt text"^^xsd:string ;
	cbc:enabled "true"^^xsd:boolean ;
	cbc:collect "false"^^xsd:boolean ;
	cbc:bridg_path "DefinedObservation.nameCode.CD.code"^^xsd:string ;
	cbc:simple_datatype "string"^^xsd:string ;
	cbc:format ""^^xsd:string ;
.
:BC-ACME_BC_C81255_DefinedObservation_nameCode_CD_code_TR_1
	rdf:type bo:TcReference ;
	rdfs:label "Thesaurus Concept Reference"^^xsd:string ;
	bo:hasThesaurusConcept cCt:CLI-C66741_C81255 ;
	bo:ordinal "1"^^xsd:positiveInteger ;
	bo:enabled "true"^^xsd:boolean ;
	bo:optional "true"^^xsd:boolean ;
	bo:local_label ""^^xsd:string ;
.
:BC-ACME_BC_C81255_DefinedObservation_nameCode_CD_originalText
	rdf:type cbc:Property ;
	cbc:alias "Name"^^xsd:string ;
	cbc:hasComplexDatatype :BC-ACME_BC_C81255_DefinedObservation_nameCode_CD_originalText_ED ;
.
:BC-ACME_BC_C81255_DefinedObservation_nameCode_CD_originalText_ED
	rdf:type cbc:Datatype ;
	cbc:iso21090_datatype "ED"^^xsd:string ;
	cbc:hasProperty :BC-ACME_BC_C81255_DefinedObservation_nameCode_CD_originalText_ED_value ;
.
:BC-ACME_BC_C81255_DefinedObservation_nameCode_CD_originalText_ED_value
	rdf:type cbc:Property ;
	cbc:alias "Test Name (--TEST)"^^xsd:string ;
	cbc:hasThesaurusConcept :BC-ACME_BC_C81255_DefinedObservation_nameCode_CD_originalText_ED_value_TR_1 ;
	cbc:ordinal "1"^^xsd:positiveInteger ;
	cbc:question_text "Question text"^^xsd:string ;
	cbc:prompt_text "Prompt text"^^xsd:string ;
	cbc:enabled "true"^^xsd:boolean ;
	cbc:collect "false"^^xsd:boolean ;
	cbc:bridg_path "DefinedObservation.nameCode.CD.originalText.ED.value"^^xsd:string ;
	cbc:simple_datatype "string"^^xsd:string ;
	cbc:format ""^^xsd:string ;
.
:BC-ACME_BC_C81255_DefinedObservation_nameCode_CD_originalText_ED_value_TR_1
	rdf:type bo:TcReference ;
	rdfs:label "Thesaurus Concept Reference"^^xsd:string ;
	bo:hasThesaurusConcept cCt:CLI-C67153_C81255 ;
	bo:ordinal "1"^^xsd:positiveInteger ;
	bo:enabled "true"^^xsd:boolean ;
	bo:optional "true"^^xsd:boolean ;
	bo:local_label ""^^xsd:string ;
.
:BC-ACME_BC_C81255_DefinedObservation_targetAnatomicSiteCode
	rdf:type cbc:Item ;
	cbc:ordinal "2"^^xsd:positiveInteger ;
	cbc:bridg_class "DefinedObservation"^^xsd:string ;
	cbc:bridg_attribute "targetAnatomicSiteCode"^^xsd:string ;
	cbc:alias "SiteOfAdministration"^^xsd:string ;
	cbc:hasDatatype :BC-ACME_BC_C81255_DefinedObservation_targetAnatomicSiteCode_CD ;
	cbc:iso21090_datatype "CD"^^xsd:string ;
.
:BC-ACME_BC_C81255_DefinedObservation_targetAnatomicSiteCode_CD
	rdf:type cbc:Datatype ;
	cbc:iso21090_datatype "CD"^^xsd:string ;
	cbc:hasProperty :BC-ACME_BC_C81255_DefinedObservation_targetAnatomicSiteCode_CD_code ;
.
:BC-ACME_BC_C81255_DefinedObservation_targetAnatomicSiteCode_CD_code
	rdf:type cbc:Property ;
	cbc:alias "Location (--LOC)"^^xsd:string ;
	cbc:ordinal "1"^^xsd:positiveInteger ;
	cbc:question_text "Location of test"^^xsd:string ;
	cbc:prompt_text "Location"^^xsd:string ;
	cbc:enabled "false"^^xsd:boolean ;
	cbc:collect "true"^^xsd:boolean ;
	cbc:bridg_path "DefinedObservation.targetAnatomicSiteCode.CD.code"^^xsd:string ;
	cbc:simple_datatype "string"^^xsd:string ;
	cbc:format ""^^xsd:string ;
.
:BC-ACME_BC_C81255_DefinedObservation_methodCode
	rdf:type cbc:Item ;
	cbc:ordinal "3"^^xsd:positiveInteger ;
	cbc:bridg_class "DefinedObservation"^^xsd:string ;
	cbc:bridg_attribute "methodCode"^^xsd:string ;
	cbc:alias "Method"^^xsd:string ;
	cbc:hasDatatype :BC-ACME_BC_C81255_DefinedObservation_methodCode_CD ;
	cbc:iso21090_datatype "CD"^^xsd:string ;
.
:BC-ACME_BC_C81255_DefinedObservation_methodCode_CD
	rdf:type cbc:Datatype ;
	cbc:iso21090_datatype "CD"^^xsd:string ;
	cbc:hasProperty :BC-ACME_BC_C81255_DefinedObservation_methodCode_CD_code ;
.
:BC-ACME_BC_C81255_DefinedObservation_methodCode_CD_code
	rdf:type cbc:Property ;
	cbc:alias "Method Code (--METHOD)"^^xsd:string ;
	cbc:ordinal "1"^^xsd:positiveInteger ;
	cbc:question_text "Question text"^^xsd:string ;
	cbc:prompt_text "Prompt text"^^xsd:string ;
	cbc:enabled "false"^^xsd:boolean ;
	cbc:collect "true"^^xsd:boolean ;
	cbc:bridg_path "DefinedObservation.methodCode.CD.code"^^xsd:string ;
	cbc:simple_datatype "string"^^xsd:string ;
	cbc:format ""^^xsd:string ;
.
:BC-ACME_BC_C81255_PerformedObservation_dateRange
	rdf:type cbc:Item ;
	cbc:ordinal "4"^^xsd:positiveInteger ;
	cbc:bridg_class "PerformedObservation"^^xsd:string ;
	cbc:bridg_attribute "dateRange"^^xsd:string ;
	cbc:alias "DateTime"^^xsd:string ;
	cbc:hasDatatype :BC-ACME_BC_C81255_PerformedObservation_dateRange_IVL_TS_DATETIME ;
	cbc:iso21090_datatype "IVL_TS_DATETIME"^^xsd:string ;
.
:BC-ACME_BC_C81255_PerformedObservation_dateRange_IVL_TS_DATETIME
	rdf:type cbc:Datatype ;
	cbc:iso21090_datatype "IVL_TS_DATETIME"^^xsd:string ;
	cbc:hasProperty :BC-ACME_BC_C81255_PerformedObservation_dateRange_IVL_TS_DATETIME_low ;
.
:BC-ACME_BC_C81255_PerformedObservation_dateRange_IVL_TS_DATETIME_low
	rdf:type cbc:Property ;
	cbc:alias "Date"^^xsd:string ;
	cbc:hasComplexDatatype :BC-ACME_BC_C81255_PerformedObservation_dateRange_IVL_TS_DATETIME_low_TS_DATETIME ;
.
:BC-ACME_BC_C81255_PerformedObservation_dateRange_IVL_TS_DATETIME_low_TS_DATETIME
	rdf:type cbc:Datatype ;
	cbc:iso21090_datatype "TS_DATETIME"^^xsd:string ;
	cbc:hasProperty :BC-ACME_BC_C81255_PerformedObservation_dateRange_IVL_TS_DATETIME_low_TS_DATETIME_value ;
.
:BC-ACME_BC_C81255_PerformedObservation_dateRange_IVL_TS_DATETIME_low_TS_DATETIME_value
	rdf:type cbc:Property ;
	cbc:alias "Date and Time (--DTC)"^^xsd:string ;
	cbc:ordinal "1"^^xsd:positiveInteger ;
	cbc:question_text "Question text"^^xsd:string ;
	cbc:prompt_text "Prompt text"^^xsd:string ;
	cbc:enabled "true"^^xsd:boolean ;
	cbc:collect "true"^^xsd:boolean ;
	cbc:bridg_path "PerformedObservation.dateRange.IVL_TS_DATETIME.low.TS_DATETIME.value"^^xsd:string ;
	cbc:simple_datatype "dateTime"^^xsd:string ;
	cbc:format ""^^xsd:string ;
.
:BC-ACME_BC_C81255_PerformedObservation_negationReason
	rdf:type cbc:Item ;
	cbc:ordinal "5"^^xsd:positiveInteger ;
	cbc:bridg_class "PerformedObservation"^^xsd:string ;
	cbc:bridg_attribute "negationReason"^^xsd:string ;
	cbc:alias "ReasonNotDone"^^xsd:string ;
	cbc:hasDatatype :BC-ACME_BC_C81255_PerformedObservation_negationReason_SC ;
	cbc:iso21090_datatype "SC"^^xsd:string ;
.
:BC-ACME_BC_C81255_PerformedObservation_negationReason_SC
	rdf:type cbc:Datatype ;
	cbc:iso21090_datatype "SC"^^xsd:string ;
	cbc:hasProperty :BC-ACME_BC_C81255_PerformedObservation_negationReason_SC_code ;
.
:BC-ACME_BC_C81255_PerformedObservation_negationReason_SC_code
	rdf:type cbc:Property ;
	cbc:alias "Code"^^xsd:string ;
	cbc:hasComplexDatatype :BC-ACME_BC_C81255_PerformedObservation_negationReason_SC_code_CD ;
.
:BC-ACME_BC_C81255_PerformedObservation_negationReason_SC_code_CD
	rdf:type cbc:Datatype ;
	cbc:iso21090_datatype "CD"^^xsd:string ;
.
:BC-ACME_BC_C81255_PerformedObservation_bodyPositionCode
	rdf:type cbc:Item ;
	cbc:ordinal "6"^^xsd:positiveInteger ;
	cbc:bridg_class "PerformedObservation"^^xsd:string ;
	cbc:bridg_attribute "bodyPositionCode"^^xsd:string ;
	cbc:alias "Position"^^xsd:string ;
	cbc:hasDatatype :BC-ACME_BC_C81255_PerformedObservation_bodyPositionCode_CD ;
	cbc:iso21090_datatype "CD"^^xsd:string ;
.
:BC-ACME_BC_C81255_PerformedObservation_bodyPositionCode_CD
	rdf:type cbc:Datatype ;
	cbc:iso21090_datatype "CD"^^xsd:string ;
	cbc:hasProperty :BC-ACME_BC_C81255_PerformedObservation_bodyPositionCode_CD_code ;
.
:BC-ACME_BC_C81255_PerformedObservation_bodyPositionCode_CD_code
	rdf:type cbc:Property ;
	cbc:alias "Body Position (--POS)"^^xsd:string ;
	cbc:ordinal "1"^^xsd:positiveInteger ;
	cbc:question_text "Question text"^^xsd:string ;
	cbc:prompt_text "Prompt text"^^xsd:string ;
	cbc:enabled "false"^^xsd:boolean ;
	cbc:collect "true"^^xsd:boolean ;
	cbc:bridg_path "PerformedObservation.bodyPositionCode.CD.code"^^xsd:string ;
	cbc:simple_datatype "string"^^xsd:string ;
	cbc:format ""^^xsd:string ;
.
:BC-ACME_BC_C81255_PerformedObservation_targetAnatomicSiteLateralityCode
	rdf:type cbc:Item ;
	cbc:ordinal "7"^^xsd:positiveInteger ;
	cbc:bridg_class "PerformedObservation"^^xsd:string ;
	cbc:bridg_attribute "targetAnatomicSiteLateralityCode"^^xsd:string ;
	cbc:alias "Laterality"^^xsd:string ;
	cbc:hasDatatype :BC-ACME_BC_C81255_PerformedObservation_targetAnatomicSiteLateralityCode_CD ;
	cbc:iso21090_datatype "CD"^^xsd:string ;
.
:BC-ACME_BC_C81255_PerformedObservation_targetAnatomicSiteLateralityCode_CD
	rdf:type cbc:Datatype ;
	cbc:iso21090_datatype "CD"^^xsd:string ;
	cbc:hasProperty :BC-ACME_BC_C81255_PerformedObservation_targetAnatomicSiteLateralityCode_CD_code ;
.
:BC-ACME_BC_C81255_PerformedObservation_targetAnatomicSiteLateralityCode_CD_code
	rdf:type cbc:Property ;
	cbc:alias "Laterality (--LAT)"^^xsd:string ;
	cbc:ordinal "1"^^xsd:positiveInteger ;
	cbc:question_text "Question text"^^xsd:string ;
	cbc:prompt_text "Prompt text"^^xsd:string ;
	cbc:enabled "false"^^xsd:boolean ;
	cbc:collect "true"^^xsd:boolean ;
	cbc:bridg_path "PerformedObservation.targetAnatomicSiteLateralityCode.CD.code"^^xsd:string ;
	cbc:simple_datatype "string"^^xsd:string ;
	cbc:format ""^^xsd:string ;
.
:BC-ACME_BC_C81255_PerformedClinicalResult_value
	rdf:type cbc:Item ;
	cbc:ordinal "8"^^xsd:positiveInteger ;
	cbc:bridg_class "PerformedClinicalResult"^^xsd:string ;
	cbc:bridg_attribute "value"^^xsd:string ;
	cbc:alias "Result"^^xsd:string ;
	cbc:hasDatatype :BC-ACME_BC_C81255_PerformedClinicalResult_value_PQR ;
	cbc:iso21090_datatype "PQR"^^xsd:string ;
.
:BC-ACME_BC_C81255_PerformedClinicalResult_value_PQR
	rdf:type cbc:Datatype ;
	cbc:iso21090_datatype "PQR"^^xsd:string ;
	cbc:hasProperty :BC-ACME_BC_C81255_PerformedClinicalResult_value_PQR_value ;
	cbc:hasProperty :BC-ACME_BC_C81255_PerformedClinicalResult_value_PQR_code ;
.
:BC-ACME_BC_C81255_PerformedClinicalResult_value_PQR_value
	rdf:type cbc:Property ;
	cbc:alias "Result Value (--ORRES)"^^xsd:string ;
	cbc:ordinal "1"^^xsd:positiveInteger ;
	cbc:question_text "Question text"^^xsd:string ;
	cbc:prompt_text "Prompt text"^^xsd:string ;
	cbc:enabled "true"^^xsd:boolean ;
	cbc:collect "true"^^xsd:boolean ;
	cbc:bridg_path "PerformedClinicalResult.value.PQR.value"^^xsd:string ;
	cbc:simple_datatype "float"^^xsd:string ;
	cbc:format ""^^xsd:string ;
.
:BC-ACME_BC_C81255_PerformedClinicalResult_value_PQR_code
	rdf:type cbc:Property ;
	cbc:alias "Result Units (--ORRESU)"^^xsd:string ;
	cbc:hasThesaurusConcept :BC-ACME_BC_C81255_PerformedClinicalResult_value_PQR_code_TR_1 ;
	cbc:ordinal "2"^^xsd:positiveInteger ;
	cbc:question_text "Question text"^^xsd:string ;
	cbc:prompt_text "Prompt text"^^xsd:string ;
	cbc:enabled "true"^^xsd:boolean ;
	cbc:collect "true"^^xsd:boolean ;
	cbc:bridg_path "PerformedClinicalResult.value.PQR.code"^^xsd:string ;
	cbc:simple_datatype "string"^^xsd:string ;
	cbc:format ""^^xsd:string ;
.
:BC-ACME_BC_C81255_PerformedClinicalResult_value_PQR_code_TR_1
	rdf:type bo:TcReference ;
	rdfs:label "Thesaurus Concept Reference"^^xsd:string ;
	bo:hasThesaurusConcept cCt:CLI-C66770_C49668 ;
	bo:ordinal "1"^^xsd:positiveInteger ;
	bo:enabled "true"^^xsd:boolean ;
	bo:optional "true"^^xsd:boolean ;
	bo:local_label ""^^xsd:string ;
.
:BC-ACME_BC_C81255_PerformedClinicalResult_baselineIndicator
	rdf:type cbc:Item ;
	cbc:ordinal "9"^^xsd:positiveInteger ;
	cbc:bridg_class "PerformedClinicalResult"^^xsd:string ;
	cbc:bridg_attribute "baselineIndicator"^^xsd:string ;
	cbc:alias "Baseline"^^xsd:string ;
	cbc:hasDatatype :BC-ACME_BC_C81255_PerformedClinicalResult_baselineIndicator_BL ;
	cbc:iso21090_datatype "BL"^^xsd:string ;
.
:BC-ACME_BC_C81255_PerformedClinicalResult_baselineIndicator_BL
	rdf:type cbc:Datatype ;
	cbc:iso21090_datatype "BL"^^xsd:string ;
	cbc:hasProperty :BC-ACME_BC_C81255_PerformedClinicalResult_baselineIndicator_BL_value ;
.
:BC-ACME_BC_C81255_PerformedClinicalResult_baselineIndicator_BL_value
	rdf:type cbc:Property ;
	cbc:alias "Baseline (--BLFL)"^^xsd:string ;
	cbc:hasThesaurusConcept :BC-ACME_BC_C81255_PerformedClinicalResult_baselineIndicator_BL_value_TR_1 ;
	cbc:hasThesaurusConcept :BC-ACME_BC_C81255_PerformedClinicalResult_baselineIndicator_BL_value_TR_2 ;
	cbc:ordinal "1"^^xsd:positiveInteger ;
	cbc:question_text "Question text"^^xsd:string ;
	cbc:prompt_text "Prompt text"^^xsd:string ;
	cbc:enabled "false"^^xsd:boolean ;
	cbc:collect "true"^^xsd:boolean ;
	cbc:bridg_path "PerformedClinicalResult.baselineIndicator.BL.value"^^xsd:string ;
	cbc:simple_datatype "boolean"^^xsd:string ;
	cbc:format ""^^xsd:string ;
.
:BC-ACME_BC_C81255_PerformedClinicalResult_baselineIndicator_BL_value_TR_1
	rdf:type bo:TcReference ;
	rdfs:label "Thesaurus Concept Reference"^^xsd:string ;
	bo:hasThesaurusConcept cCt:CLI-C66742_C49487 ;
	bo:ordinal "1"^^xsd:positiveInteger ;
	bo:enabled "true"^^xsd:boolean ;
	bo:optional "true"^^xsd:boolean ;
	bo:local_label ""^^xsd:string ;
.
:BC-ACME_BC_C81255_PerformedClinicalResult_baselineIndicator_BL_value_TR_2
	rdf:type bo:TcReference ;
	rdfs:label "Thesaurus Concept Reference"^^xsd:string ;
	bo:hasThesaurusConcept cCt:CLI-C66742_C49488 ;
	bo:ordinal "2"^^xsd:positiveInteger ;
	bo:enabled "true"^^xsd:boolean ;
	bo:optional "true"^^xsd:boolean ;
	bo:local_label ""^^xsd:string ;
.
:BC-ACME_BC_C49678
	rdf:type cbc:BiomedicalConceptInstance ;
	cbc:basedOnTemplate :BC-ACME_BC_C49678_TPR ;
	cbc:hasItem :BC-ACME_BC_C49678_DefinedObservation_nameCode ;
	cbc:hasItem :BC-ACME_BC_C49678_DefinedObservation_targetAnatomicSiteCode ;
	cbc:hasItem :BC-ACME_BC_C49678_DefinedObservation_methodCode ;
	cbc:hasItem :BC-ACME_BC_C49678_PerformedObservation_dateRange ;
	cbc:hasItem :BC-ACME_BC_C49678_PerformedObservation_negationReason ;
	cbc:hasItem :BC-ACME_BC_C49678_PerformedObservation_bodyPositionCode ;
	cbc:hasItem :BC-ACME_BC_C49678_PerformedObservation_targetAnatomicSiteLateralityCode ;
	cbc:hasItem :BC-ACME_BC_C49678_PerformedClinicalResult_value ;
	cbc:hasItem :BC-ACME_BC_C49678_PerformedClinicalResult_baselineIndicator ;
	rdfs:label "Respiratory Rate (BC_C49678)"^^xsd:string ;
	isoI:hasIdentifier mdrItems:SI-ACME_BC_C49678-1 ;
	isoR:hasState mdrItems:RS-ACME_BC_C49678-1 ;
	isoT:origin ""^^xsd:string ;
	isoT:changeDescription ""^^xsd:string ;
	isoT:creationDate "2016-01-01"^^xsd:date ;
	isoT:lastChangeDate "2016-01-01"^^xsd:date ;
	isoT:explanatoryComment ""^^xsd:string ;
.
:BC-ACME_BC_C49678_TPR
	rdf:type bo:BctReference ;
	rdfs:label "Biomedical Concept Template Reference"^^xsd:string ;
	bo:basedOnTemplate mdrBcts:BCT-Obs_PQR ;
	bo:ordinal "1"^^xsd:positiveInteger ;
	bo:enabled "true"^^xsd:boolean ;
	bo:optional "false"^^xsd:boolean ;
	bo:local_label ""^^xsd:string ;
.
mdrItems:SI-ACME_BC_C49678-1
	rdf:type isoI:ScopedIdentifier ;
	isoI:identifier "BC_C49678"^^xsd:string ;
	isoI:versionLabel "0.1"^^xsd:string ;
	isoI:version "1"^^xsd:positiveInteger ;
	isoI:hasScope mdrItems:NS-ACME ;
.
mdrItems:RS-ACME_BC_C49678-1
	rdf:type isoR:RegistrationState ;
	isoR:registrationStatus "Standard"^^xsd:string ;
	isoR:administrativeNote ""^^xsd:string ;
	isoR:effectiveDate "2016-01-01T00:00:00Z"^^xsd:dateTime ;
	isoR:untilDate "2016-01-01T00:00:00Z"^^xsd:dateTime ;
	isoR:unresolvedIssue ""^^xsd:string ;
	isoR:administrativeStatus ""^^xsd:string ;
	isoR:previousState "Qualified"^^xsd:string ;
	isoR:byAuthority mdrItems:RA-123456789 ;
.
:BC-ACME_BC_C49678_DefinedObservation_nameCode
	rdf:type cbc:Item ;
	cbc:ordinal "1"^^xsd:positiveInteger ;
	cbc:bridg_class "DefinedObservation"^^xsd:string ;
	cbc:bridg_attribute "nameCode"^^xsd:string ;
	cbc:alias "Test"^^xsd:string ;
	cbc:hasDatatype :BC-ACME_BC_C49678_DefinedObservation_nameCode_CD ;
	cbc:iso21090_datatype "CD"^^xsd:string ;
.
:BC-ACME_BC_C49678_DefinedObservation_nameCode_CD
	rdf:type cbc:Datatype ;
	cbc:iso21090_datatype "CD"^^xsd:string ;
	cbc:hasProperty :BC-ACME_BC_C49678_DefinedObservation_nameCode_CD_code ;
	cbc:hasProperty :BC-ACME_BC_C49678_DefinedObservation_nameCode_CD_originalText ;
.
:BC-ACME_BC_C49678_DefinedObservation_nameCode_CD_code
	rdf:type cbc:Property ;
	cbc:alias "Test Code (--TESTCD)"^^xsd:string ;
	cbc:hasThesaurusConcept :BC-ACME_BC_C49678_DefinedObservation_nameCode_CD_code_TR_1 ;
	cbc:ordinal "1"^^xsd:positiveInteger ;
	cbc:question_text "Question text"^^xsd:string ;
	cbc:prompt_text "Prompt text"^^xsd:string ;
	cbc:enabled "true"^^xsd:boolean ;
	cbc:collect "false"^^xsd:boolean ;
	cbc:bridg_path "DefinedObservation.nameCode.CD.code"^^xsd:string ;
	cbc:simple_datatype "string"^^xsd:string ;
	cbc:format ""^^xsd:string ;
.
:BC-ACME_BC_C49678_DefinedObservation_nameCode_CD_code_TR_1
	rdf:type bo:TcReference ;
	rdfs:label "Thesaurus Concept Reference"^^xsd:string ;
	bo:hasThesaurusConcept cCt:CLI-C66741_C49678 ;
	bo:ordinal "1"^^xsd:positiveInteger ;
	bo:enabled "true"^^xsd:boolean ;
	bo:optional "true"^^xsd:boolean ;
	bo:local_label ""^^xsd:string ;
.
:BC-ACME_BC_C49678_DefinedObservation_nameCode_CD_originalText
	rdf:type cbc:Property ;
	cbc:alias "Name"^^xsd:string ;
	cbc:hasComplexDatatype :BC-ACME_BC_C49678_DefinedObservation_nameCode_CD_originalText_ED ;
.
:BC-ACME_BC_C49678_DefinedObservation_nameCode_CD_originalText_ED
	rdf:type cbc:Datatype ;
	cbc:iso21090_datatype "ED"^^xsd:string ;
	cbc:hasProperty :BC-ACME_BC_C49678_DefinedObservation_nameCode_CD_originalText_ED_value ;
.
:BC-ACME_BC_C49678_DefinedObservation_nameCode_CD_originalText_ED_value
	rdf:type cbc:Property ;
	cbc:alias "Test Name (--TEST)"^^xsd:string ;
	cbc:hasThesaurusConcept :BC-ACME_BC_C49678_DefinedObservation_nameCode_CD_originalText_ED_value_TR_1 ;
	cbc:ordinal "1"^^xsd:positiveInteger ;
	cbc:question_text "Question text"^^xsd:string ;
	cbc:prompt_text "Prompt text"^^xsd:string ;
	cbc:enabled "true"^^xsd:boolean ;
	cbc:collect "false"^^xsd:boolean ;
	cbc:bridg_path "DefinedObservation.nameCode.CD.originalText.ED.value"^^xsd:string ;
	cbc:simple_datatype "string"^^xsd:string ;
	cbc:format ""^^xsd:string ;
.
:BC-ACME_BC_C49678_DefinedObservation_nameCode_CD_originalText_ED_value_TR_1
	rdf:type bo:TcReference ;
	rdfs:label "Thesaurus Concept Reference"^^xsd:string ;
	bo:hasThesaurusConcept cCt:CLI-C67153_C49678 ;
	bo:ordinal "1"^^xsd:positiveInteger ;
	bo:enabled "true"^^xsd:boolean ;
	bo:optional "true"^^xsd:boolean ;
	bo:local_label ""^^xsd:string ;
.
:BC-ACME_BC_C49678_DefinedObservation_targetAnatomicSiteCode
	rdf:type cbc:Item ;
	cbc:ordinal "2"^^xsd:positiveInteger ;
	cbc:bridg_class "DefinedObservation"^^xsd:string ;
	cbc:bridg_attribute "targetAnatomicSiteCode"^^xsd:string ;
	cbc:alias "SiteOfAdministration"^^xsd:string ;
	cbc:hasDatatype :BC-ACME_BC_C49678_DefinedObservation_targetAnatomicSiteCode_CD ;
	cbc:iso21090_datatype "CD"^^xsd:string ;
.
:BC-ACME_BC_C49678_DefinedObservation_targetAnatomicSiteCode_CD
	rdf:type cbc:Datatype ;
	cbc:iso21090_datatype "CD"^^xsd:string ;
	cbc:hasProperty :BC-ACME_BC_C49678_DefinedObservation_targetAnatomicSiteCode_CD_code ;
.
:BC-ACME_BC_C49678_DefinedObservation_targetAnatomicSiteCode_CD_code
	rdf:type cbc:Property ;
	cbc:alias "Location (--LOC)"^^xsd:string ;
	cbc:ordinal "1"^^xsd:positiveInteger ;
	cbc:question_text "Location of test"^^xsd:string ;
	cbc:prompt_text "Location"^^xsd:string ;
	cbc:enabled "false"^^xsd:boolean ;
	cbc:collect "true"^^xsd:boolean ;
	cbc:bridg_path "DefinedObservation.targetAnatomicSiteCode.CD.code"^^xsd:string ;
	cbc:simple_datatype "string"^^xsd:string ;
	cbc:format ""^^xsd:string ;
.
:BC-ACME_BC_C49678_DefinedObservation_methodCode
	rdf:type cbc:Item ;
	cbc:ordinal "3"^^xsd:positiveInteger ;
	cbc:bridg_class "DefinedObservation"^^xsd:string ;
	cbc:bridg_attribute "methodCode"^^xsd:string ;
	cbc:alias "Method"^^xsd:string ;
	cbc:hasDatatype :BC-ACME_BC_C49678_DefinedObservation_methodCode_CD ;
	cbc:iso21090_datatype "CD"^^xsd:string ;
.
:BC-ACME_BC_C49678_DefinedObservation_methodCode_CD
	rdf:type cbc:Datatype ;
	cbc:iso21090_datatype "CD"^^xsd:string ;
	cbc:hasProperty :BC-ACME_BC_C49678_DefinedObservation_methodCode_CD_code ;
.
:BC-ACME_BC_C49678_DefinedObservation_methodCode_CD_code
	rdf:type cbc:Property ;
	cbc:alias "Method Code (--METHOD)"^^xsd:string ;
	cbc:ordinal "1"^^xsd:positiveInteger ;
	cbc:question_text "Question text"^^xsd:string ;
	cbc:prompt_text "Prompt text"^^xsd:string ;
	cbc:enabled "false"^^xsd:boolean ;
	cbc:collect "true"^^xsd:boolean ;
	cbc:bridg_path "DefinedObservation.methodCode.CD.code"^^xsd:string ;
	cbc:simple_datatype "string"^^xsd:string ;
	cbc:format ""^^xsd:string ;
.
:BC-ACME_BC_C49678_PerformedObservation_dateRange
	rdf:type cbc:Item ;
	cbc:ordinal "4"^^xsd:positiveInteger ;
	cbc:bridg_class "PerformedObservation"^^xsd:string ;
	cbc:bridg_attribute "dateRange"^^xsd:string ;
	cbc:alias "DateTime"^^xsd:string ;
	cbc:hasDatatype :BC-ACME_BC_C49678_PerformedObservation_dateRange_IVL_TS_DATETIME ;
	cbc:iso21090_datatype "IVL_TS_DATETIME"^^xsd:string ;
.
:BC-ACME_BC_C49678_PerformedObservation_dateRange_IVL_TS_DATETIME
	rdf:type cbc:Datatype ;
	cbc:iso21090_datatype "IVL_TS_DATETIME"^^xsd:string ;
	cbc:hasProperty :BC-ACME_BC_C49678_PerformedObservation_dateRange_IVL_TS_DATETIME_low ;
.
:BC-ACME_BC_C49678_PerformedObservation_dateRange_IVL_TS_DATETIME_low
	rdf:type cbc:Property ;
	cbc:alias "Date"^^xsd:string ;
	cbc:hasComplexDatatype :BC-ACME_BC_C49678_PerformedObservation_dateRange_IVL_TS_DATETIME_low_TS_DATETIME ;
.
:BC-ACME_BC_C49678_PerformedObservation_dateRange_IVL_TS_DATETIME_low_TS_DATETIME
	rdf:type cbc:Datatype ;
	cbc:iso21090_datatype "TS_DATETIME"^^xsd:string ;
	cbc:hasProperty :BC-ACME_BC_C49678_PerformedObservation_dateRange_IVL_TS_DATETIME_low_TS_DATETIME_value ;
.
:BC-ACME_BC_C49678_PerformedObservation_dateRange_IVL_TS_DATETIME_low_TS_DATETIME_value
	rdf:type cbc:Property ;
	cbc:alias "Date and Time (--DTC)"^^xsd:string ;
	cbc:ordinal "1"^^xsd:positiveInteger ;
	cbc:question_text "Question text"^^xsd:string ;
	cbc:prompt_text "Prompt text"^^xsd:string ;
	cbc:enabled "true"^^xsd:boolean ;
	cbc:collect "true"^^xsd:boolean ;
	cbc:bridg_path "PerformedObservation.dateRange.IVL_TS_DATETIME.low.TS_DATETIME.value"^^xsd:string ;
	cbc:simple_datatype "dateTime"^^xsd:string ;
	cbc:format ""^^xsd:string ;
.
:BC-ACME_BC_C49678_PerformedObservation_negationReason
	rdf:type cbc:Item ;
	cbc:ordinal "5"^^xsd:positiveInteger ;
	cbc:bridg_class "PerformedObservation"^^xsd:string ;
	cbc:bridg_attribute "negationReason"^^xsd:string ;
	cbc:alias "ReasonNotDone"^^xsd:string ;
	cbc:hasDatatype :BC-ACME_BC_C49678_PerformedObservation_negationReason_SC ;
	cbc:iso21090_datatype "SC"^^xsd:string ;
.
:BC-ACME_BC_C49678_PerformedObservation_negationReason_SC
	rdf:type cbc:Datatype ;
	cbc:iso21090_datatype "SC"^^xsd:string ;
	cbc:hasProperty :BC-ACME_BC_C49678_PerformedObservation_negationReason_SC_code ;
.
:BC-ACME_BC_C49678_PerformedObservation_negationReason_SC_code
	rdf:type cbc:Property ;
	cbc:alias "Code"^^xsd:string ;
	cbc:hasComplexDatatype :BC-ACME_BC_C49678_PerformedObservation_negationReason_SC_code_CD ;
.
:BC-ACME_BC_C49678_PerformedObservation_negationReason_SC_code_CD
	rdf:type cbc:Datatype ;
	cbc:iso21090_datatype "CD"^^xsd:string ;
.
:BC-ACME_BC_C49678_PerformedObservation_bodyPositionCode
	rdf:type cbc:Item ;
	cbc:ordinal "6"^^xsd:positiveInteger ;
	cbc:bridg_class "PerformedObservation"^^xsd:string ;
	cbc:bridg_attribute "bodyPositionCode"^^xsd:string ;
	cbc:alias "Position"^^xsd:string ;
	cbc:hasDatatype :BC-ACME_BC_C49678_PerformedObservation_bodyPositionCode_CD ;
	cbc:iso21090_datatype "CD"^^xsd:string ;
.
:BC-ACME_BC_C49678_PerformedObservation_bodyPositionCode_CD
	rdf:type cbc:Datatype ;
	cbc:iso21090_datatype "CD"^^xsd:string ;
	cbc:hasProperty :BC-ACME_BC_C49678_PerformedObservation_bodyPositionCode_CD_code ;
.
:BC-ACME_BC_C49678_PerformedObservation_bodyPositionCode_CD_code
	rdf:type cbc:Property ;
	cbc:alias "Body Position (--POS)"^^xsd:string ;
	cbc:ordinal "1"^^xsd:positiveInteger ;
	cbc:question_text "Question text"^^xsd:string ;
	cbc:prompt_text "Prompt text"^^xsd:string ;
	cbc:enabled "false"^^xsd:boolean ;
	cbc:collect "true"^^xsd:boolean ;
	cbc:bridg_path "PerformedObservation.bodyPositionCode.CD.code"^^xsd:string ;
	cbc:simple_datatype "string"^^xsd:string ;
	cbc:format ""^^xsd:string ;
.
:BC-ACME_BC_C49678_PerformedObservation_targetAnatomicSiteLateralityCode
	rdf:type cbc:Item ;
	cbc:ordinal "7"^^xsd:positiveInteger ;
	cbc:bridg_class "PerformedObservation"^^xsd:string ;
	cbc:bridg_attribute "targetAnatomicSiteLateralityCode"^^xsd:string ;
	cbc:alias "Laterality"^^xsd:string ;
	cbc:hasDatatype :BC-ACME_BC_C49678_PerformedObservation_targetAnatomicSiteLateralityCode_CD ;
	cbc:iso21090_datatype "CD"^^xsd:string ;
.
:BC-ACME_BC_C49678_PerformedObservation_targetAnatomicSiteLateralityCode_CD
	rdf:type cbc:Datatype ;
	cbc:iso21090_datatype "CD"^^xsd:string ;
	cbc:hasProperty :BC-ACME_BC_C49678_PerformedObservation_targetAnatomicSiteLateralityCode_CD_code ;
.
:BC-ACME_BC_C49678_PerformedObservation_targetAnatomicSiteLateralityCode_CD_code
	rdf:type cbc:Property ;
	cbc:alias "Laterality (--LAT)"^^xsd:string ;
	cbc:ordinal "1"^^xsd:positiveInteger ;
	cbc:question_text "Question text"^^xsd:string ;
	cbc:prompt_text "Prompt text"^^xsd:string ;
	cbc:enabled "false"^^xsd:boolean ;
	cbc:collect "true"^^xsd:boolean ;
	cbc:bridg_path "PerformedObservation.targetAnatomicSiteLateralityCode.CD.code"^^xsd:string ;
	cbc:simple_datatype "string"^^xsd:string ;
	cbc:format ""^^xsd:string ;
.
:BC-ACME_BC_C49678_PerformedClinicalResult_value
	rdf:type cbc:Item ;
	cbc:ordinal "8"^^xsd:positiveInteger ;
	cbc:bridg_class "PerformedClinicalResult"^^xsd:string ;
	cbc:bridg_attribute "value"^^xsd:string ;
	cbc:alias "Result"^^xsd:string ;
	cbc:hasDatatype :BC-ACME_BC_C49678_PerformedClinicalResult_value_PQR ;
	cbc:iso21090_datatype "PQR"^^xsd:string ;
.
:BC-ACME_BC_C49678_PerformedClinicalResult_value_PQR
	rdf:type cbc:Datatype ;
	cbc:iso21090_datatype "PQR"^^xsd:string ;
	cbc:hasProperty :BC-ACME_BC_C49678_PerformedClinicalResult_value_PQR_value ;
	cbc:hasProperty :BC-ACME_BC_C49678_PerformedClinicalResult_value_PQR_code ;
.
:BC-ACME_BC_C49678_PerformedClinicalResult_value_PQR_value
	rdf:type cbc:Property ;
	cbc:alias "Result Value (--ORRES)"^^xsd:string ;
	cbc:ordinal "1"^^xsd:positiveInteger ;
	cbc:question_text "Question text"^^xsd:string ;
	cbc:prompt_text "Prompt text"^^xsd:string ;
	cbc:enabled "true"^^xsd:boolean ;
	cbc:collect "true"^^xsd:boolean ;
	cbc:bridg_path "PerformedClinicalResult.value.PQR.value"^^xsd:string ;
	cbc:simple_datatype "float"^^xsd:string ;
	cbc:format ""^^xsd:string ;
.
:BC-ACME_BC_C49678_PerformedClinicalResult_value_PQR_code
	rdf:type cbc:Property ;
	cbc:alias "Result Units (--ORRESU)"^^xsd:string ;
	cbc:hasThesaurusConcept :BC-ACME_BC_C49678_PerformedClinicalResult_value_PQR_code_TR_1 ;
	cbc:ordinal "2"^^xsd:positiveInteger ;
	cbc:question_text "Question text"^^xsd:string ;
	cbc:prompt_text "Prompt text"^^xsd:string ;
	cbc:enabled "true"^^xsd:boolean ;
	cbc:collect "true"^^xsd:boolean ;
	cbc:bridg_path "PerformedClinicalResult.value.PQR.code"^^xsd:string ;
	cbc:simple_datatype "string"^^xsd:string ;
	cbc:format ""^^xsd:string ;
.
:BC-ACME_BC_C49678_PerformedClinicalResult_value_PQR_code_TR_1
	rdf:type bo:TcReference ;
	rdfs:label "Thesaurus Concept Reference"^^xsd:string ;
	bo:hasThesaurusConcept cCt:CLI-C66770_C49674 ;
	bo:ordinal "1"^^xsd:positiveInteger ;
	bo:enabled "true"^^xsd:boolean ;
	bo:optional "true"^^xsd:boolean ;
	bo:local_label ""^^xsd:string ;
.
:BC-ACME_BC_C49678_PerformedClinicalResult_baselineIndicator
	rdf:type cbc:Item ;
	cbc:ordinal "9"^^xsd:positiveInteger ;
	cbc:bridg_class "PerformedClinicalResult"^^xsd:string ;
	cbc:bridg_attribute "baselineIndicator"^^xsd:string ;
	cbc:alias "Baseline"^^xsd:string ;
	cbc:hasDatatype :BC-ACME_BC_C49678_PerformedClinicalResult_baselineIndicator_BL ;
	cbc:iso21090_datatype "BL"^^xsd:string ;
.
:BC-ACME_BC_C49678_PerformedClinicalResult_baselineIndicator_BL
	rdf:type cbc:Datatype ;
	cbc:iso21090_datatype "BL"^^xsd:string ;
	cbc:hasProperty :BC-ACME_BC_C49678_PerformedClinicalResult_baselineIndicator_BL_value ;
.
:BC-ACME_BC_C49678_PerformedClinicalResult_baselineIndicator_BL_value
	rdf:type cbc:Property ;
	cbc:alias "Baseline (--BLFL)"^^xsd:string ;
	cbc:hasThesaurusConcept :BC-ACME_BC_C49678_PerformedClinicalResult_baselineIndicator_BL_value_TR_1 ;
	cbc:hasThesaurusConcept :BC-ACME_BC_C49678_PerformedClinicalResult_baselineIndicator_BL_value_TR_2 ;
	cbc:ordinal "1"^^xsd:positiveInteger ;
	cbc:question_text "Question text"^^xsd:string ;
	cbc:prompt_text "Prompt text"^^xsd:string ;
	cbc:enabled "false"^^xsd:boolean ;
	cbc:collect "true"^^xsd:boolean ;
	cbc:bridg_path "PerformedClinicalResult.baselineIndicator.BL.value"^^xsd:string ;
	cbc:simple_datatype "boolean"^^xsd:string ;
	cbc:format ""^^xsd:string ;
.
:BC-ACME_BC_C49678_PerformedClinicalResult_baselineIndicator_BL_value_TR_1
	rdf:type bo:TcReference ;
	rdfs:label "Thesaurus Concept Reference"^^xsd:string ;
	bo:hasThesaurusConcept cCt:CLI-C66742_C49487 ;
	bo:ordinal "1"^^xsd:positiveInteger ;
	bo:enabled "true"^^xsd:boolean ;
	bo:optional "true"^^xsd:boolean ;
	bo:local_label ""^^xsd:string ;
.
:BC-ACME_BC_C49678_PerformedClinicalResult_baselineIndicator_BL_value_TR_2
	rdf:type bo:TcReference ;
	rdfs:label "Thesaurus Concept Reference"^^xsd:string ;
	bo:hasThesaurusConcept cCt:CLI-C66742_C49488 ;
	bo:ordinal "2"^^xsd:positiveInteger ;
	bo:enabled "true"^^xsd:boolean ;
	bo:optional "true"^^xsd:boolean ;
	bo:local_label ""^^xsd:string ;
.
:BC-ACME_BC_C98785
	rdf:type cbc:BiomedicalConceptInstance ;
	cbc:basedOnTemplate :BC-ACME_BC_C98785_TPR ;
	cbc:hasItem :BC-ACME_BC_C98785_DefinedObservation_nameCode ;
	cbc:hasItem :BC-ACME_BC_C98785_DefinedObservation_targetAnatomicSiteCode ;
	cbc:hasItem :BC-ACME_BC_C98785_DefinedObservation_methodCode ;
	cbc:hasItem :BC-ACME_BC_C98785_PerformedObservation_dateRange ;
	cbc:hasItem :BC-ACME_BC_C98785_PerformedObservation_negationReason ;
	cbc:hasItem :BC-ACME_BC_C98785_PerformedObservation_bodyPositionCode ;
	cbc:hasItem :BC-ACME_BC_C98785_PerformedObservation_targetAnatomicSiteLateralityCode ;
	cbc:hasItem :BC-ACME_BC_C98785_PerformedClinicalResult_value ;
	cbc:hasItem :BC-ACME_BC_C98785_PerformedClinicalResult_baselineIndicator ;
	rdfs:label "Subscapular Skinfold Thickness (BC_C98785)"^^xsd:string ;
	isoI:hasIdentifier mdrItems:SI-ACME_BC_C98785-1 ;
	isoR:hasState mdrItems:RS-ACME_BC_C98785-1 ;
	isoT:origin ""^^xsd:string ;
	isoT:changeDescription ""^^xsd:string ;
	isoT:creationDate "2016-01-01"^^xsd:date ;
	isoT:lastChangeDate "2016-01-01"^^xsd:date ;
	isoT:explanatoryComment ""^^xsd:string ;
.
:BC-ACME_BC_C98785_TPR
	rdf:type bo:BctReference ;
	rdfs:label "Biomedical Concept Template Reference"^^xsd:string ;
	bo:basedOnTemplate mdrBcts:BCT-Obs_PQR ;
	bo:ordinal "1"^^xsd:positiveInteger ;
	bo:enabled "true"^^xsd:boolean ;
	bo:optional "false"^^xsd:boolean ;
	bo:local_label ""^^xsd:string ;
.
mdrItems:SI-ACME_BC_C98785-1
	rdf:type isoI:ScopedIdentifier ;
	isoI:identifier "BC_C98785"^^xsd:string ;
	isoI:versionLabel "0.1"^^xsd:string ;
	isoI:version "1"^^xsd:positiveInteger ;
	isoI:hasScope mdrItems:NS-ACME ;
.
mdrItems:RS-ACME_BC_C98785-1
	rdf:type isoR:RegistrationState ;
	isoR:registrationStatus "Standard"^^xsd:string ;
	isoR:administrativeNote ""^^xsd:string ;
	isoR:effectiveDate "2016-01-01T00:00:00Z"^^xsd:dateTime ;
	isoR:untilDate "2016-01-01T00:00:00Z"^^xsd:dateTime ;
	isoR:unresolvedIssue ""^^xsd:string ;
	isoR:administrativeStatus ""^^xsd:string ;
	isoR:previousState "Qualified"^^xsd:string ;
	isoR:byAuthority mdrItems:RA-123456789 ;
.
:BC-ACME_BC_C98785_DefinedObservation_nameCode
	rdf:type cbc:Item ;
	cbc:ordinal "1"^^xsd:positiveInteger ;
	cbc:bridg_class "DefinedObservation"^^xsd:string ;
	cbc:bridg_attribute "nameCode"^^xsd:string ;
	cbc:alias "Test"^^xsd:string ;
	cbc:hasDatatype :BC-ACME_BC_C98785_DefinedObservation_nameCode_CD ;
	cbc:iso21090_datatype "CD"^^xsd:string ;
.
:BC-ACME_BC_C98785_DefinedObservation_nameCode_CD
	rdf:type cbc:Datatype ;
	cbc:iso21090_datatype "CD"^^xsd:string ;
	cbc:hasProperty :BC-ACME_BC_C98785_DefinedObservation_nameCode_CD_code ;
	cbc:hasProperty :BC-ACME_BC_C98785_DefinedObservation_nameCode_CD_originalText ;
.
:BC-ACME_BC_C98785_DefinedObservation_nameCode_CD_code
	rdf:type cbc:Property ;
	cbc:alias "Test Code (--TESTCD)"^^xsd:string ;
	cbc:hasThesaurusConcept :BC-ACME_BC_C98785_DefinedObservation_nameCode_CD_code_TR_1 ;
	cbc:ordinal "1"^^xsd:positiveInteger ;
	cbc:question_text "Question text"^^xsd:string ;
	cbc:prompt_text "Prompt text"^^xsd:string ;
	cbc:enabled "true"^^xsd:boolean ;
	cbc:collect "false"^^xsd:boolean ;
	cbc:bridg_path "DefinedObservation.nameCode.CD.code"^^xsd:string ;
	cbc:simple_datatype "string"^^xsd:string ;
	cbc:format ""^^xsd:string ;
.
:BC-ACME_BC_C98785_DefinedObservation_nameCode_CD_code_TR_1
	rdf:type bo:TcReference ;
	rdfs:label "Thesaurus Concept Reference"^^xsd:string ;
	bo:hasThesaurusConcept cCt:CLI-C66741_C98785 ;
	bo:ordinal "1"^^xsd:positiveInteger ;
	bo:enabled "true"^^xsd:boolean ;
	bo:optional "true"^^xsd:boolean ;
	bo:local_label ""^^xsd:string ;
.
:BC-ACME_BC_C98785_DefinedObservation_nameCode_CD_originalText
	rdf:type cbc:Property ;
	cbc:alias "Name"^^xsd:string ;
	cbc:hasComplexDatatype :BC-ACME_BC_C98785_DefinedObservation_nameCode_CD_originalText_ED ;
.
:BC-ACME_BC_C98785_DefinedObservation_nameCode_CD_originalText_ED
	rdf:type cbc:Datatype ;
	cbc:iso21090_datatype "ED"^^xsd:string ;
	cbc:hasProperty :BC-ACME_BC_C98785_DefinedObservation_nameCode_CD_originalText_ED_value ;
.
:BC-ACME_BC_C98785_DefinedObservation_nameCode_CD_originalText_ED_value
	rdf:type cbc:Property ;
	cbc:alias "Test Name (--TEST)"^^xsd:string ;
	cbc:hasThesaurusConcept :BC-ACME_BC_C98785_DefinedObservation_nameCode_CD_originalText_ED_value_TR_1 ;
	cbc:ordinal "1"^^xsd:positiveInteger ;
	cbc:question_text "Question text"^^xsd:string ;
	cbc:prompt_text "Prompt text"^^xsd:string ;
	cbc:enabled "true"^^xsd:boolean ;
	cbc:collect "false"^^xsd:boolean ;
	cbc:bridg_path "DefinedObservation.nameCode.CD.originalText.ED.value"^^xsd:string ;
	cbc:simple_datatype "string"^^xsd:string ;
	cbc:format ""^^xsd:string ;
.
:BC-ACME_BC_C98785_DefinedObservation_nameCode_CD_originalText_ED_value_TR_1
	rdf:type bo:TcReference ;
	rdfs:label "Thesaurus Concept Reference"^^xsd:string ;
	bo:hasThesaurusConcept cCt:CLI-C67153_C98785 ;
	bo:ordinal "1"^^xsd:positiveInteger ;
	bo:enabled "true"^^xsd:boolean ;
	bo:optional "true"^^xsd:boolean ;
	bo:local_label ""^^xsd:string ;
.
:BC-ACME_BC_C98785_DefinedObservation_targetAnatomicSiteCode
	rdf:type cbc:Item ;
	cbc:ordinal "2"^^xsd:positiveInteger ;
	cbc:bridg_class "DefinedObservation"^^xsd:string ;
	cbc:bridg_attribute "targetAnatomicSiteCode"^^xsd:string ;
	cbc:alias "SiteOfAdministration"^^xsd:string ;
	cbc:hasDatatype :BC-ACME_BC_C98785_DefinedObservation_targetAnatomicSiteCode_CD ;
	cbc:iso21090_datatype "CD"^^xsd:string ;
.
:BC-ACME_BC_C98785_DefinedObservation_targetAnatomicSiteCode_CD
	rdf:type cbc:Datatype ;
	cbc:iso21090_datatype "CD"^^xsd:string ;
	cbc:hasProperty :BC-ACME_BC_C98785_DefinedObservation_targetAnatomicSiteCode_CD_code ;
.
:BC-ACME_BC_C98785_DefinedObservation_targetAnatomicSiteCode_CD_code
	rdf:type cbc:Property ;
	cbc:alias "Location (--LOC)"^^xsd:string ;
	cbc:ordinal "1"^^xsd:positiveInteger ;
	cbc:question_text "Location of test"^^xsd:string ;
	cbc:prompt_text "Location"^^xsd:string ;
	cbc:enabled "false"^^xsd:boolean ;
	cbc:collect "true"^^xsd:boolean ;
	cbc:bridg_path "DefinedObservation.targetAnatomicSiteCode.CD.code"^^xsd:string ;
	cbc:simple_datatype "string"^^xsd:string ;
	cbc:format ""^^xsd:string ;
.
:BC-ACME_BC_C98785_DefinedObservation_methodCode
	rdf:type cbc:Item ;
	cbc:ordinal "3"^^xsd:positiveInteger ;
	cbc:bridg_class "DefinedObservation"^^xsd:string ;
	cbc:bridg_attribute "methodCode"^^xsd:string ;
	cbc:alias "Method"^^xsd:string ;
	cbc:hasDatatype :BC-ACME_BC_C98785_DefinedObservation_methodCode_CD ;
	cbc:iso21090_datatype "CD"^^xsd:string ;
.
:BC-ACME_BC_C98785_DefinedObservation_methodCode_CD
	rdf:type cbc:Datatype ;
	cbc:iso21090_datatype "CD"^^xsd:string ;
	cbc:hasProperty :BC-ACME_BC_C98785_DefinedObservation_methodCode_CD_code ;
.
:BC-ACME_BC_C98785_DefinedObservation_methodCode_CD_code
	rdf:type cbc:Property ;
	cbc:alias "Method Code (--METHOD)"^^xsd:string ;
	cbc:ordinal "1"^^xsd:positiveInteger ;
	cbc:question_text "Question text"^^xsd:string ;
	cbc:prompt_text "Prompt text"^^xsd:string ;
	cbc:enabled "false"^^xsd:boolean ;
	cbc:collect "true"^^xsd:boolean ;
	cbc:bridg_path "DefinedObservation.methodCode.CD.code"^^xsd:string ;
	cbc:simple_datatype "string"^^xsd:string ;
	cbc:format ""^^xsd:string ;
.
:BC-ACME_BC_C98785_PerformedObservation_dateRange
	rdf:type cbc:Item ;
	cbc:ordinal "4"^^xsd:positiveInteger ;
	cbc:bridg_class "PerformedObservation"^^xsd:string ;
	cbc:bridg_attribute "dateRange"^^xsd:string ;
	cbc:alias "DateTime"^^xsd:string ;
	cbc:hasDatatype :BC-ACME_BC_C98785_PerformedObservation_dateRange_IVL_TS_DATETIME ;
	cbc:iso21090_datatype "IVL_TS_DATETIME"^^xsd:string ;
.
:BC-ACME_BC_C98785_PerformedObservation_dateRange_IVL_TS_DATETIME
	rdf:type cbc:Datatype ;
	cbc:iso21090_datatype "IVL_TS_DATETIME"^^xsd:string ;
	cbc:hasProperty :BC-ACME_BC_C98785_PerformedObservation_dateRange_IVL_TS_DATETIME_low ;
.
:BC-ACME_BC_C98785_PerformedObservation_dateRange_IVL_TS_DATETIME_low
	rdf:type cbc:Property ;
	cbc:alias "Date"^^xsd:string ;
	cbc:hasComplexDatatype :BC-ACME_BC_C98785_PerformedObservation_dateRange_IVL_TS_DATETIME_low_TS_DATETIME ;
.
:BC-ACME_BC_C98785_PerformedObservation_dateRange_IVL_TS_DATETIME_low_TS_DATETIME
	rdf:type cbc:Datatype ;
	cbc:iso21090_datatype "TS_DATETIME"^^xsd:string ;
	cbc:hasProperty :BC-ACME_BC_C98785_PerformedObservation_dateRange_IVL_TS_DATETIME_low_TS_DATETIME_value ;
.
:BC-ACME_BC_C98785_PerformedObservation_dateRange_IVL_TS_DATETIME_low_TS_DATETIME_value
	rdf:type cbc:Property ;
	cbc:alias "Date and Time (--DTC)"^^xsd:string ;
	cbc:ordinal "1"^^xsd:positiveInteger ;
	cbc:question_text "Question text"^^xsd:string ;
	cbc:prompt_text "Prompt text"^^xsd:string ;
	cbc:enabled "true"^^xsd:boolean ;
	cbc:collect "true"^^xsd:boolean ;
	cbc:bridg_path "PerformedObservation.dateRange.IVL_TS_DATETIME.low.TS_DATETIME.value"^^xsd:string ;
	cbc:simple_datatype "dateTime"^^xsd:string ;
	cbc:format ""^^xsd:string ;
.
:BC-ACME_BC_C98785_PerformedObservation_negationReason
	rdf:type cbc:Item ;
	cbc:ordinal "5"^^xsd:positiveInteger ;
	cbc:bridg_class "PerformedObservation"^^xsd:string ;
	cbc:bridg_attribute "negationReason"^^xsd:string ;
	cbc:alias "ReasonNotDone"^^xsd:string ;
	cbc:hasDatatype :BC-ACME_BC_C98785_PerformedObservation_negationReason_SC ;
	cbc:iso21090_datatype "SC"^^xsd:string ;
.
:BC-ACME_BC_C98785_PerformedObservation_negationReason_SC
	rdf:type cbc:Datatype ;
	cbc:iso21090_datatype "SC"^^xsd:string ;
	cbc:hasProperty :BC-ACME_BC_C98785_PerformedObservation_negationReason_SC_code ;
.
:BC-ACME_BC_C98785_PerformedObservation_negationReason_SC_code
	rdf:type cbc:Property ;
	cbc:alias "Code"^^xsd:string ;
	cbc:hasComplexDatatype :BC-ACME_BC_C98785_PerformedObservation_negationReason_SC_code_CD ;
.
:BC-ACME_BC_C98785_PerformedObservation_negationReason_SC_code_CD
	rdf:type cbc:Datatype ;
	cbc:iso21090_datatype "CD"^^xsd:string ;
.
:BC-ACME_BC_C98785_PerformedObservation_bodyPositionCode
	rdf:type cbc:Item ;
	cbc:ordinal "6"^^xsd:positiveInteger ;
	cbc:bridg_class "PerformedObservation"^^xsd:string ;
	cbc:bridg_attribute "bodyPositionCode"^^xsd:string ;
	cbc:alias "Position"^^xsd:string ;
	cbc:hasDatatype :BC-ACME_BC_C98785_PerformedObservation_bodyPositionCode_CD ;
	cbc:iso21090_datatype "CD"^^xsd:string ;
.
:BC-ACME_BC_C98785_PerformedObservation_bodyPositionCode_CD
	rdf:type cbc:Datatype ;
	cbc:iso21090_datatype "CD"^^xsd:string ;
	cbc:hasProperty :BC-ACME_BC_C98785_PerformedObservation_bodyPositionCode_CD_code ;
.
:BC-ACME_BC_C98785_PerformedObservation_bodyPositionCode_CD_code
	rdf:type cbc:Property ;
	cbc:alias "Body Position (--POS)"^^xsd:string ;
	cbc:ordinal "1"^^xsd:positiveInteger ;
	cbc:question_text "Question text"^^xsd:string ;
	cbc:prompt_text "Prompt text"^^xsd:string ;
	cbc:enabled "false"^^xsd:boolean ;
	cbc:collect "true"^^xsd:boolean ;
	cbc:bridg_path "PerformedObservation.bodyPositionCode.CD.code"^^xsd:string ;
	cbc:simple_datatype "string"^^xsd:string ;
	cbc:format ""^^xsd:string ;
.
:BC-ACME_BC_C98785_PerformedObservation_targetAnatomicSiteLateralityCode
	rdf:type cbc:Item ;
	cbc:ordinal "7"^^xsd:positiveInteger ;
	cbc:bridg_class "PerformedObservation"^^xsd:string ;
	cbc:bridg_attribute "targetAnatomicSiteLateralityCode"^^xsd:string ;
	cbc:alias "Laterality"^^xsd:string ;
	cbc:hasDatatype :BC-ACME_BC_C98785_PerformedObservation_targetAnatomicSiteLateralityCode_CD ;
	cbc:iso21090_datatype "CD"^^xsd:string ;
.
:BC-ACME_BC_C98785_PerformedObservation_targetAnatomicSiteLateralityCode_CD
	rdf:type cbc:Datatype ;
	cbc:iso21090_datatype "CD"^^xsd:string ;
	cbc:hasProperty :BC-ACME_BC_C98785_PerformedObservation_targetAnatomicSiteLateralityCode_CD_code ;
.
:BC-ACME_BC_C98785_PerformedObservation_targetAnatomicSiteLateralityCode_CD_code
	rdf:type cbc:Property ;
	cbc:alias "Laterality (--LAT)"^^xsd:string ;
	cbc:hasThesaurusConcept :BC-ACME_BC_C98785_PerformedObservation_targetAnatomicSiteLateralityCode_CD_code_TR_1 ;
	cbc:hasThesaurusConcept :BC-ACME_BC_C98785_PerformedObservation_targetAnatomicSiteLateralityCode_CD_code_TR_2 ;
	cbc:ordinal "1"^^xsd:positiveInteger ;
	cbc:question_text "Question text"^^xsd:string ;
	cbc:prompt_text "Prompt text"^^xsd:string ;
	cbc:enabled "true"^^xsd:boolean ;
	cbc:collect "true"^^xsd:boolean ;
	cbc:bridg_path "PerformedObservation.targetAnatomicSiteLateralityCode.CD.code"^^xsd:string ;
	cbc:simple_datatype "string"^^xsd:string ;
	cbc:format ""^^xsd:string ;
.
:BC-ACME_BC_C98785_PerformedObservation_targetAnatomicSiteLateralityCode_CD_code_TR_1
	rdf:type bo:TcReference ;
	rdfs:label "Thesaurus Concept Reference"^^xsd:string ;
	bo:hasThesaurusConcept cCt:CLI-C99073_C25228 ;
	bo:ordinal "1"^^xsd:positiveInteger ;
	bo:enabled "true"^^xsd:boolean ;
	bo:optional "true"^^xsd:boolean ;
	bo:local_label ""^^xsd:string ;
.
:BC-ACME_BC_C98785_PerformedObservation_targetAnatomicSiteLateralityCode_CD_code_TR_2
	rdf:type bo:TcReference ;
	rdfs:label "Thesaurus Concept Reference"^^xsd:string ;
	bo:hasThesaurusConcept cCt:CLI-C99073_C25229 ;
	bo:ordinal "2"^^xsd:positiveInteger ;
	bo:enabled "true"^^xsd:boolean ;
	bo:optional "true"^^xsd:boolean ;
	bo:local_label ""^^xsd:string ;
.
:BC-ACME_BC_C98785_PerformedClinicalResult_value
	rdf:type cbc:Item ;
	cbc:ordinal "8"^^xsd:positiveInteger ;
	cbc:bridg_class "PerformedClinicalResult"^^xsd:string ;
	cbc:bridg_attribute "value"^^xsd:string ;
	cbc:alias "Result"^^xsd:string ;
	cbc:hasDatatype :BC-ACME_BC_C98785_PerformedClinicalResult_value_PQR ;
	cbc:iso21090_datatype "PQR"^^xsd:string ;
.
:BC-ACME_BC_C98785_PerformedClinicalResult_value_PQR
	rdf:type cbc:Datatype ;
	cbc:iso21090_datatype "PQR"^^xsd:string ;
	cbc:hasProperty :BC-ACME_BC_C98785_PerformedClinicalResult_value_PQR_value ;
	cbc:hasProperty :BC-ACME_BC_C98785_PerformedClinicalResult_value_PQR_code ;
.
:BC-ACME_BC_C98785_PerformedClinicalResult_value_PQR_value
	rdf:type cbc:Property ;
	cbc:alias "Result Value (--ORRES)"^^xsd:string ;
	cbc:ordinal "1"^^xsd:positiveInteger ;
	cbc:question_text "Question text"^^xsd:string ;
	cbc:prompt_text "Prompt text"^^xsd:string ;
	cbc:enabled "true"^^xsd:boolean ;
	cbc:collect "true"^^xsd:boolean ;
	cbc:bridg_path "PerformedClinicalResult.value.PQR.value"^^xsd:string ;
	cbc:simple_datatype "float"^^xsd:string ;
	cbc:format ""^^xsd:string ;
.
:BC-ACME_BC_C98785_PerformedClinicalResult_value_PQR_code
	rdf:type cbc:Property ;
	cbc:alias "Result Units (--ORRESU)"^^xsd:string ;
	cbc:hasThesaurusConcept :BC-ACME_BC_C98785_PerformedClinicalResult_value_PQR_code_TR_1 ;
	cbc:ordinal "2"^^xsd:positiveInteger ;
	cbc:question_text "Question text"^^xsd:string ;
	cbc:prompt_text "Prompt text"^^xsd:string ;
	cbc:enabled "true"^^xsd:boolean ;
	cbc:collect "true"^^xsd:boolean ;
	cbc:bridg_path "PerformedClinicalResult.value.PQR.code"^^xsd:string ;
	cbc:simple_datatype "string"^^xsd:string ;
	cbc:format ""^^xsd:string ;
.
:BC-ACME_BC_C98785_PerformedClinicalResult_value_PQR_code_TR_1
	rdf:type bo:TcReference ;
	rdfs:label "Thesaurus Concept Reference"^^xsd:string ;
	bo:hasThesaurusConcept cCt:CLI-C66770_C28251 ;
	bo:ordinal "1"^^xsd:positiveInteger ;
	bo:enabled "true"^^xsd:boolean ;
	bo:optional "true"^^xsd:boolean ;
	bo:local_label ""^^xsd:string ;
.
:BC-ACME_BC_C98785_PerformedClinicalResult_baselineIndicator
	rdf:type cbc:Item ;
	cbc:ordinal "9"^^xsd:positiveInteger ;
	cbc:bridg_class "PerformedClinicalResult"^^xsd:string ;
	cbc:bridg_attribute "baselineIndicator"^^xsd:string ;
	cbc:alias "Baseline"^^xsd:string ;
	cbc:hasDatatype :BC-ACME_BC_C98785_PerformedClinicalResult_baselineIndicator_BL ;
	cbc:iso21090_datatype "BL"^^xsd:string ;
.
:BC-ACME_BC_C98785_PerformedClinicalResult_baselineIndicator_BL
	rdf:type cbc:Datatype ;
	cbc:iso21090_datatype "BL"^^xsd:string ;
	cbc:hasProperty :BC-ACME_BC_C98785_PerformedClinicalResult_baselineIndicator_BL_value ;
.
:BC-ACME_BC_C98785_PerformedClinicalResult_baselineIndicator_BL_value
	rdf:type cbc:Property ;
	cbc:alias "Baseline (--BLFL)"^^xsd:string ;
	cbc:hasThesaurusConcept :BC-ACME_BC_C98785_PerformedClinicalResult_baselineIndicator_BL_value_TR_1 ;
	cbc:hasThesaurusConcept :BC-ACME_BC_C98785_PerformedClinicalResult_baselineIndicator_BL_value_TR_2 ;
	cbc:ordinal "1"^^xsd:positiveInteger ;
	cbc:question_text "Question text"^^xsd:string ;
	cbc:prompt_text "Prompt text"^^xsd:string ;
	cbc:enabled "false"^^xsd:boolean ;
	cbc:collect "true"^^xsd:boolean ;
	cbc:bridg_path "PerformedClinicalResult.baselineIndicator.BL.value"^^xsd:string ;
	cbc:simple_datatype "boolean"^^xsd:string ;
	cbc:format ""^^xsd:string ;
.
:BC-ACME_BC_C98785_PerformedClinicalResult_baselineIndicator_BL_value_TR_1
	rdf:type bo:TcReference ;
	rdfs:label "Thesaurus Concept Reference"^^xsd:string ;
	bo:hasThesaurusConcept cCt:CLI-C66742_C49487 ;
	bo:ordinal "1"^^xsd:positiveInteger ;
	bo:enabled "true"^^xsd:boolean ;
	bo:optional "true"^^xsd:boolean ;
	bo:local_label ""^^xsd:string ;
.
:BC-ACME_BC_C98785_PerformedClinicalResult_baselineIndicator_BL_value_TR_2
	rdf:type bo:TcReference ;
	rdfs:label "Thesaurus Concept Reference"^^xsd:string ;
	bo:hasThesaurusConcept cCt:CLI-C66742_C49488 ;
	bo:ordinal "2"^^xsd:positiveInteger ;
	bo:enabled "true"^^xsd:boolean ;
	bo:optional "true"^^xsd:boolean ;
	bo:local_label ""^^xsd:string ;
.
:BC-ACME_BC_C25206
	rdf:type cbc:BiomedicalConceptInstance ;
	cbc:basedOnTemplate :BC-ACME_BC_C25206_TPR ;
	cbc:hasItem :BC-ACME_BC_C25206_DefinedObservation_nameCode ;
	cbc:hasItem :BC-ACME_BC_C25206_DefinedObservation_targetAnatomicSiteCode ;
	cbc:hasItem :BC-ACME_BC_C25206_DefinedObservation_methodCode ;
	cbc:hasItem :BC-ACME_BC_C25206_PerformedObservation_dateRange ;
	cbc:hasItem :BC-ACME_BC_C25206_PerformedObservation_negationReason ;
	cbc:hasItem :BC-ACME_BC_C25206_PerformedObservation_bodyPositionCode ;
	cbc:hasItem :BC-ACME_BC_C25206_PerformedObservation_targetAnatomicSiteLateralityCode ;
	cbc:hasItem :BC-ACME_BC_C25206_PerformedClinicalResult_value ;
	cbc:hasItem :BC-ACME_BC_C25206_PerformedClinicalResult_baselineIndicator ;
	rdfs:label "Temperature (BC_C25206)"^^xsd:string ;
	isoI:hasIdentifier mdrItems:SI-ACME_BC_C25206-1 ;
	isoR:hasState mdrItems:RS-ACME_BC_C25206-1 ;
	isoT:origin ""^^xsd:string ;
	isoT:changeDescription ""^^xsd:string ;
	isoT:creationDate "2016-01-01"^^xsd:date ;
	isoT:lastChangeDate "2016-01-01"^^xsd:date ;
	isoT:explanatoryComment ""^^xsd:string ;
.
:BC-ACME_BC_C25206_TPR
	rdf:type bo:BctReference ;
	rdfs:label "Biomedical Concept Template Reference"^^xsd:string ;
	bo:basedOnTemplate mdrBcts:BCT-Obs_PQR ;
	bo:ordinal "1"^^xsd:positiveInteger ;
	bo:enabled "true"^^xsd:boolean ;
	bo:optional "false"^^xsd:boolean ;
	bo:local_label ""^^xsd:string ;
.
mdrItems:SI-ACME_BC_C25206-1
	rdf:type isoI:ScopedIdentifier ;
	isoI:identifier "BC_C25206"^^xsd:string ;
	isoI:versionLabel "0.1"^^xsd:string ;
	isoI:version "1"^^xsd:positiveInteger ;
	isoI:hasScope mdrItems:NS-ACME ;
.
mdrItems:RS-ACME_BC_C25206-1
	rdf:type isoR:RegistrationState ;
	isoR:registrationStatus "Standard"^^xsd:string ;
	isoR:administrativeNote ""^^xsd:string ;
	isoR:effectiveDate "2016-01-01T00:00:00Z"^^xsd:dateTime ;
	isoR:untilDate "2016-01-01T00:00:00Z"^^xsd:dateTime ;
	isoR:unresolvedIssue ""^^xsd:string ;
	isoR:administrativeStatus ""^^xsd:string ;
	isoR:previousState "Qualified"^^xsd:string ;
	isoR:byAuthority mdrItems:RA-123456789 ;
.
:BC-ACME_BC_C25206_DefinedObservation_nameCode
	rdf:type cbc:Item ;
	cbc:ordinal "1"^^xsd:positiveInteger ;
	cbc:bridg_class "DefinedObservation"^^xsd:string ;
	cbc:bridg_attribute "nameCode"^^xsd:string ;
	cbc:alias "Test"^^xsd:string ;
	cbc:hasDatatype :BC-ACME_BC_C25206_DefinedObservation_nameCode_CD ;
	cbc:iso21090_datatype "CD"^^xsd:string ;
.
:BC-ACME_BC_C25206_DefinedObservation_nameCode_CD
	rdf:type cbc:Datatype ;
	cbc:iso21090_datatype "CD"^^xsd:string ;
	cbc:hasProperty :BC-ACME_BC_C25206_DefinedObservation_nameCode_CD_code ;
	cbc:hasProperty :BC-ACME_BC_C25206_DefinedObservation_nameCode_CD_originalText ;
.
:BC-ACME_BC_C25206_DefinedObservation_nameCode_CD_code
	rdf:type cbc:Property ;
	cbc:alias "Test Code (--TESTCD)"^^xsd:string ;
	cbc:hasThesaurusConcept :BC-ACME_BC_C25206_DefinedObservation_nameCode_CD_code_TR_1 ;
	cbc:ordinal "1"^^xsd:positiveInteger ;
	cbc:question_text "Question text"^^xsd:string ;
	cbc:prompt_text "Prompt text"^^xsd:string ;
	cbc:enabled "true"^^xsd:boolean ;
	cbc:collect "false"^^xsd:boolean ;
	cbc:bridg_path "DefinedObservation.nameCode.CD.code"^^xsd:string ;
	cbc:simple_datatype "string"^^xsd:string ;
	cbc:format ""^^xsd:string ;
.
:BC-ACME_BC_C25206_DefinedObservation_nameCode_CD_code_TR_1
	rdf:type bo:TcReference ;
	rdfs:label "Thesaurus Concept Reference"^^xsd:string ;
	bo:hasThesaurusConcept cCt:CLI-C66741_C25206 ;
	bo:ordinal "1"^^xsd:positiveInteger ;
	bo:enabled "true"^^xsd:boolean ;
	bo:optional "true"^^xsd:boolean ;
	bo:local_label ""^^xsd:string ;
.
:BC-ACME_BC_C25206_DefinedObservation_nameCode_CD_originalText
	rdf:type cbc:Property ;
	cbc:alias "Name"^^xsd:string ;
	cbc:hasComplexDatatype :BC-ACME_BC_C25206_DefinedObservation_nameCode_CD_originalText_ED ;
.
:BC-ACME_BC_C25206_DefinedObservation_nameCode_CD_originalText_ED
	rdf:type cbc:Datatype ;
	cbc:iso21090_datatype "ED"^^xsd:string ;
	cbc:hasProperty :BC-ACME_BC_C25206_DefinedObservation_nameCode_CD_originalText_ED_value ;
.
:BC-ACME_BC_C25206_DefinedObservation_nameCode_CD_originalText_ED_value
	rdf:type cbc:Property ;
	cbc:alias "Test Name (--TEST)"^^xsd:string ;
	cbc:hasThesaurusConcept :BC-ACME_BC_C25206_DefinedObservation_nameCode_CD_originalText_ED_value_TR_1 ;
	cbc:ordinal "1"^^xsd:positiveInteger ;
	cbc:question_text "Question text"^^xsd:string ;
	cbc:prompt_text "Prompt text"^^xsd:string ;
	cbc:enabled "true"^^xsd:boolean ;
	cbc:collect "false"^^xsd:boolean ;
	cbc:bridg_path "DefinedObservation.nameCode.CD.originalText.ED.value"^^xsd:string ;
	cbc:simple_datatype "string"^^xsd:string ;
	cbc:format ""^^xsd:string ;
.
:BC-ACME_BC_C25206_DefinedObservation_nameCode_CD_originalText_ED_value_TR_1
	rdf:type bo:TcReference ;
	rdfs:label "Thesaurus Concept Reference"^^xsd:string ;
	bo:hasThesaurusConcept cCt:CLI-C67153_C25206 ;
	bo:ordinal "1"^^xsd:positiveInteger ;
	bo:enabled "true"^^xsd:boolean ;
	bo:optional "true"^^xsd:boolean ;
	bo:local_label ""^^xsd:string ;
.
:BC-ACME_BC_C25206_DefinedObservation_targetAnatomicSiteCode
	rdf:type cbc:Item ;
	cbc:ordinal "2"^^xsd:positiveInteger ;
	cbc:bridg_class "DefinedObservation"^^xsd:string ;
	cbc:bridg_attribute "targetAnatomicSiteCode"^^xsd:string ;
	cbc:alias "SiteOfAdministration"^^xsd:string ;
	cbc:hasDatatype :BC-ACME_BC_C25206_DefinedObservation_targetAnatomicSiteCode_CD ;
	cbc:iso21090_datatype "CD"^^xsd:string ;
.
:BC-ACME_BC_C25206_DefinedObservation_targetAnatomicSiteCode_CD
	rdf:type cbc:Datatype ;
	cbc:iso21090_datatype "CD"^^xsd:string ;
	cbc:hasProperty :BC-ACME_BC_C25206_DefinedObservation_targetAnatomicSiteCode_CD_code ;
.
:BC-ACME_BC_C25206_DefinedObservation_targetAnatomicSiteCode_CD_code
	rdf:type cbc:Property ;
	cbc:alias "Location (--LOC)"^^xsd:string ;
	cbc:ordinal "1"^^xsd:positiveInteger ;
	cbc:question_text "Location of test"^^xsd:string ;
	cbc:prompt_text "Location"^^xsd:string ;
	cbc:enabled "false"^^xsd:boolean ;
	cbc:collect "true"^^xsd:boolean ;
	cbc:bridg_path "DefinedObservation.targetAnatomicSiteCode.CD.code"^^xsd:string ;
	cbc:simple_datatype "string"^^xsd:string ;
	cbc:format ""^^xsd:string ;
.
:BC-ACME_BC_C25206_DefinedObservation_methodCode
	rdf:type cbc:Item ;
	cbc:ordinal "3"^^xsd:positiveInteger ;
	cbc:bridg_class "DefinedObservation"^^xsd:string ;
	cbc:bridg_attribute "methodCode"^^xsd:string ;
	cbc:alias "Method"^^xsd:string ;
	cbc:hasDatatype :BC-ACME_BC_C25206_DefinedObservation_methodCode_CD ;
	cbc:iso21090_datatype "CD"^^xsd:string ;
.
:BC-ACME_BC_C25206_DefinedObservation_methodCode_CD
	rdf:type cbc:Datatype ;
	cbc:iso21090_datatype "CD"^^xsd:string ;
	cbc:hasProperty :BC-ACME_BC_C25206_DefinedObservation_methodCode_CD_code ;
.
:BC-ACME_BC_C25206_DefinedObservation_methodCode_CD_code
	rdf:type cbc:Property ;
	cbc:alias "Method Code (--METHOD)"^^xsd:string ;
	cbc:ordinal "1"^^xsd:positiveInteger ;
	cbc:question_text "Question text"^^xsd:string ;
	cbc:prompt_text "Prompt text"^^xsd:string ;
	cbc:enabled "false"^^xsd:boolean ;
	cbc:collect "true"^^xsd:boolean ;
	cbc:bridg_path "DefinedObservation.methodCode.CD.code"^^xsd:string ;
	cbc:simple_datatype "string"^^xsd:string ;
	cbc:format ""^^xsd:string ;
.
:BC-ACME_BC_C25206_PerformedObservation_dateRange
	rdf:type cbc:Item ;
	cbc:ordinal "4"^^xsd:positiveInteger ;
	cbc:bridg_class "PerformedObservation"^^xsd:string ;
	cbc:bridg_attribute "dateRange"^^xsd:string ;
	cbc:alias "DateTime"^^xsd:string ;
	cbc:hasDatatype :BC-ACME_BC_C25206_PerformedObservation_dateRange_IVL_TS_DATETIME ;
	cbc:iso21090_datatype "IVL_TS_DATETIME"^^xsd:string ;
.
:BC-ACME_BC_C25206_PerformedObservation_dateRange_IVL_TS_DATETIME
	rdf:type cbc:Datatype ;
	cbc:iso21090_datatype "IVL_TS_DATETIME"^^xsd:string ;
	cbc:hasProperty :BC-ACME_BC_C25206_PerformedObservation_dateRange_IVL_TS_DATETIME_low ;
.
:BC-ACME_BC_C25206_PerformedObservation_dateRange_IVL_TS_DATETIME_low
	rdf:type cbc:Property ;
	cbc:alias "Date"^^xsd:string ;
	cbc:hasComplexDatatype :BC-ACME_BC_C25206_PerformedObservation_dateRange_IVL_TS_DATETIME_low_TS_DATETIME ;
.
:BC-ACME_BC_C25206_PerformedObservation_dateRange_IVL_TS_DATETIME_low_TS_DATETIME
	rdf:type cbc:Datatype ;
	cbc:iso21090_datatype "TS_DATETIME"^^xsd:string ;
	cbc:hasProperty :BC-ACME_BC_C25206_PerformedObservation_dateRange_IVL_TS_DATETIME_low_TS_DATETIME_value ;
.
:BC-ACME_BC_C25206_PerformedObservation_dateRange_IVL_TS_DATETIME_low_TS_DATETIME_value
	rdf:type cbc:Property ;
	cbc:alias "Date and Time (--DTC)"^^xsd:string ;
	cbc:ordinal "1"^^xsd:positiveInteger ;
	cbc:question_text "Question text"^^xsd:string ;
	cbc:prompt_text "Prompt text"^^xsd:string ;
	cbc:enabled "true"^^xsd:boolean ;
	cbc:collect "true"^^xsd:boolean ;
	cbc:bridg_path "PerformedObservation.dateRange.IVL_TS_DATETIME.low.TS_DATETIME.value"^^xsd:string ;
	cbc:simple_datatype "dateTime"^^xsd:string ;
	cbc:format ""^^xsd:string ;
.
:BC-ACME_BC_C25206_PerformedObservation_negationReason
	rdf:type cbc:Item ;
	cbc:ordinal "5"^^xsd:positiveInteger ;
	cbc:bridg_class "PerformedObservation"^^xsd:string ;
	cbc:bridg_attribute "negationReason"^^xsd:string ;
	cbc:alias "ReasonNotDone"^^xsd:string ;
	cbc:hasDatatype :BC-ACME_BC_C25206_PerformedObservation_negationReason_SC ;
	cbc:iso21090_datatype "SC"^^xsd:string ;
.
:BC-ACME_BC_C25206_PerformedObservation_negationReason_SC
	rdf:type cbc:Datatype ;
	cbc:iso21090_datatype "SC"^^xsd:string ;
	cbc:hasProperty :BC-ACME_BC_C25206_PerformedObservation_negationReason_SC_code ;
.
:BC-ACME_BC_C25206_PerformedObservation_negationReason_SC_code
	rdf:type cbc:Property ;
	cbc:alias "Code"^^xsd:string ;
	cbc:hasComplexDatatype :BC-ACME_BC_C25206_PerformedObservation_negationReason_SC_code_CD ;
.
:BC-ACME_BC_C25206_PerformedObservation_negationReason_SC_code_CD
	rdf:type cbc:Datatype ;
	cbc:iso21090_datatype "CD"^^xsd:string ;
.
:BC-ACME_BC_C25206_PerformedObservation_bodyPositionCode
	rdf:type cbc:Item ;
	cbc:ordinal "6"^^xsd:positiveInteger ;
	cbc:bridg_class "PerformedObservation"^^xsd:string ;
	cbc:bridg_attribute "bodyPositionCode"^^xsd:string ;
	cbc:alias "Position"^^xsd:string ;
	cbc:hasDatatype :BC-ACME_BC_C25206_PerformedObservation_bodyPositionCode_CD ;
	cbc:iso21090_datatype "CD"^^xsd:string ;
.
:BC-ACME_BC_C25206_PerformedObservation_bodyPositionCode_CD
	rdf:type cbc:Datatype ;
	cbc:iso21090_datatype "CD"^^xsd:string ;
	cbc:hasProperty :BC-ACME_BC_C25206_PerformedObservation_bodyPositionCode_CD_code ;
.
:BC-ACME_BC_C25206_PerformedObservation_bodyPositionCode_CD_code
	rdf:type cbc:Property ;
	cbc:alias "Body Position (--POS)"^^xsd:string ;
	cbc:ordinal "1"^^xsd:positiveInteger ;
	cbc:question_text "Question text"^^xsd:string ;
	cbc:prompt_text "Prompt text"^^xsd:string ;
	cbc:enabled "false"^^xsd:boolean ;
	cbc:collect "true"^^xsd:boolean ;
	cbc:bridg_path "PerformedObservation.bodyPositionCode.CD.code"^^xsd:string ;
	cbc:simple_datatype "string"^^xsd:string ;
	cbc:format ""^^xsd:string ;
.
:BC-ACME_BC_C25206_PerformedObservation_targetAnatomicSiteLateralityCode
	rdf:type cbc:Item ;
	cbc:ordinal "7"^^xsd:positiveInteger ;
	cbc:bridg_class "PerformedObservation"^^xsd:string ;
	cbc:bridg_attribute "targetAnatomicSiteLateralityCode"^^xsd:string ;
	cbc:alias "Laterality"^^xsd:string ;
	cbc:hasDatatype :BC-ACME_BC_C25206_PerformedObservation_targetAnatomicSiteLateralityCode_CD ;
	cbc:iso21090_datatype "CD"^^xsd:string ;
.
:BC-ACME_BC_C25206_PerformedObservation_targetAnatomicSiteLateralityCode_CD
	rdf:type cbc:Datatype ;
	cbc:iso21090_datatype "CD"^^xsd:string ;
	cbc:hasProperty :BC-ACME_BC_C25206_PerformedObservation_targetAnatomicSiteLateralityCode_CD_code ;
.
:BC-ACME_BC_C25206_PerformedObservation_targetAnatomicSiteLateralityCode_CD_code
	rdf:type cbc:Property ;
	cbc:alias "Laterality (--LAT)"^^xsd:string ;
	cbc:ordinal "1"^^xsd:positiveInteger ;
