<http://www.assero.co.uk/MDRItems#SI-CDISC_SDTMMODEL-3> <http://www.w3.org/1999/02/22-rdf-syntax-ns#type> <http://www.assero.co.uk/ISO11179Identification#ScopedIdentifier> .
<http://www.assero.co.uk/MDRItems#SI-CDISC_SDTMMODEL-3> <http://www.assero.co.uk/ISO11179Identification#hasScope> <http://www.assero.co.uk/MDRItems#NS-CDISC> .
<http://www.assero.co.uk/MDRItems#SI-CDISC_SDTMMODEL-3> <http://www.assero.co.uk/ISO11179Identification#identifier> "SDTM MODEL" .
<http://www.assero.co.uk/MDRItems#SI-CDISC_SDTMMODEL-3> <http://www.assero.co.uk/ISO11179Identification#version> "3"^^<http://www.w3.org/2001/XMLSchema#integer> .
<http://www.assero.co.uk/MDRItems#SI-CDISC_SDTMMODEL-3> <http://www.assero.co.uk/ISO11179Identification#versionLabel> "1.4" .
<http://www.assero.co.uk/MDRItems#RS-CDISC_SDTMMODEL-3> <http://www.w3.org/1999/02/22-rdf-syntax-ns#type> <http://www.assero.co.uk/ISO11179Registration#RegistrationState> .
<http://www.assero.co.uk/MDRItems#RS-CDISC_SDTMMODEL-3> <http://www.assero.co.uk/ISO11179Registration#byAuthority> <http://www.assero.co.uk/MDRItems#RA-084433759> .
<http://www.assero.co.uk/MDRItems#RS-CDISC_SDTMMODEL-3> <http://www.assero.co.uk/ISO11179Registration#registrationStatus> "Standard" .
<http://www.assero.co.uk/MDRItems#RS-CDISC_SDTMMODEL-3> <http://www.assero.co.uk/ISO11179Registration#effectiveDate> "2016-01-01T00:00:00Z"^^<http://www.w3.org/2001/XMLSchema#dateTime> .
<http://www.assero.co.uk/MDRItems#RS-CDISC_SDTMMODEL-3> <http://www.assero.co.uk/ISO11179Registration#untilDate> "2016-01-01T00:00:00Z"^^<http://www.w3.org/2001/XMLSchema#dateTime> .
<http://www.assero.co.uk/MDRItems#RS-CDISC_SDTMMODEL-3> <http://www.assero.co.uk/ISO11179Registration#administrativeNote> "" .
<http://www.assero.co.uk/MDRItems#RS-CDISC_SDTMMODEL-3> <http://www.assero.co.uk/ISO11179Registration#unresolvedIssue> "" .
<http://www.assero.co.uk/MDRItems#RS-CDISC_SDTMMODEL-3> <http://www.assero.co.uk/ISO11179Registration#administrativeStatus> "" .
<http://www.assero.co.uk/MDRItems#RS-CDISC_SDTMMODEL-3> <http://www.assero.co.uk/ISO11179Registration#previousState> "Standard" .
<http://www.assero.co.uk/MDRSdtmM/CDISC/V3#M-CDISC_SDTMMODEL> <http://www.w3.org/1999/02/22-rdf-syntax-ns#type> <http://www.assero.co.uk/BusinessDomain#Model> .
<http://www.assero.co.uk/MDRSdtmM/CDISC/V3#M-CDISC_SDTMMODEL> <http://www.w3.org/2000/01/rdf-schema#label> "SDTM Model 2013-11-26" .
<http://www.assero.co.uk/MDRSdtmM/CDISC/V3#M-CDISC_SDTMMODEL> <http://www.assero.co.uk/ISO11179Types#creationDate> "2013-11-26" .
<http://www.assero.co.uk/MDRSdtmM/CDISC/V3#M-CDISC_SDTMMODEL> <http://www.assero.co.uk/ISO11179Types#lastChangeDate> "2016-08-30T09:42:25 01:00" .
<http://www.assero.co.uk/MDRSdtmM/CDISC/V3#M-CDISC_SDTMMODEL> <http://www.assero.co.uk/ISO11179Types#changeDescription> "" .
<http://www.assero.co.uk/MDRSdtmM/CDISC/V3#M-CDISC_SDTMMODEL> <http://www.assero.co.uk/ISO11179Types#explanatoryComment> "" .
<http://www.assero.co.uk/MDRSdtmM/CDISC/V3#M-CDISC_SDTMMODEL> <http://www.assero.co.uk/ISO11179Types#origin> "" .
<http://www.assero.co.uk/MDRSdtmM/CDISC/V3#M-CDISC_SDTMMODEL> <http://www.assero.co.uk/ISO11179Identification#hasIdentifier> <http://www.assero.co.uk/MDRItems#SI-CDISC_SDTMMODEL-3> .
<http://www.assero.co.uk/MDRSdtmM/CDISC/V3#M-CDISC_SDTMMODEL> <http://www.assero.co.uk/ISO11179Registration#hasState> <http://www.assero.co.uk/MDRItems#RS-CDISC_SDTMMODEL-3> .
<http://www.assero.co.uk/MDRSdtmM/CDISC/V3#M-CDISC_SDTMMODEL> <http://www.assero.co.uk/BusinessDomain#includesTabulation> <http://www.assero.co.uk/MDRSdtmM/CDISC/V3#M-CDISC_SDTMMODEL_TR1> .
<http://www.assero.co.uk/MDRSdtmM/CDISC/V3#M-CDISC_SDTMMODEL> <http://www.assero.co.uk/BusinessDomain#includesTabulation> <http://www.assero.co.uk/MDRSdtmM/CDISC/V3#M-CDISC_SDTMMODEL_TR2> .
<http://www.assero.co.uk/MDRSdtmM/CDISC/V3#M-CDISC_SDTMMODEL> <http://www.assero.co.uk/BusinessDomain#includesTabulation> <http://www.assero.co.uk/MDRSdtmM/CDISC/V3#M-CDISC_SDTMMODEL_TR3> .
<http://www.assero.co.uk/MDRSdtmM/CDISC/V3#M-CDISC_SDTMMODEL> <http://www.assero.co.uk/BusinessDomain#includesVariable> <http://www.assero.co.uk/MDRSdtmM/CDISC/V3#M-CDISC_SDTMMODEL_STUDYID> .
<http://www.assero.co.uk/MDRSdtmM/CDISC/V3#M-CDISC_SDTMMODEL> <http://www.assero.co.uk/BusinessDomain#includesVariable> <http://www.assero.co.uk/MDRSdtmM/CDISC/V3#M-CDISC_SDTMMODEL_DOMAIN> .
<http://www.assero.co.uk/MDRSdtmM/CDISC/V3#M-CDISC_SDTMMODEL> <http://www.assero.co.uk/BusinessDomain#includesVariable> <http://www.assero.co.uk/MDRSdtmM/CDISC/V3#M-CDISC_SDTMMODEL_USUBJID> .
<http://www.assero.co.uk/MDRSdtmM/CDISC/V3#M-CDISC_SDTMMODEL> <http://www.assero.co.uk/BusinessDomain#includesVariable> <http://www.assero.co.uk/MDRSdtmM/CDISC/V3#M-CDISC_SDTMMODEL_POOLID> .
<http://www.assero.co.uk/MDRSdtmM/CDISC/V3#M-CDISC_SDTMMODEL> <http://www.assero.co.uk/BusinessDomain#includesVariable> <http://www.assero.co.uk/MDRSdtmM/CDISC/V3#M-CDISC_SDTMMODEL_SPDEVID> .
<http://www.assero.co.uk/MDRSdtmM/CDISC/V3#M-CDISC_SDTMMODEL> <http://www.assero.co.uk/BusinessDomain#includesVariable> <http://www.assero.co.uk/MDRSdtmM/CDISC/V3#M-CDISC_SDTMMODEL_xxSEQ> .
<http://www.assero.co.uk/MDRSdtmM/CDISC/V3#M-CDISC_SDTMMODEL> <http://www.assero.co.uk/BusinessDomain#includesVariable> <http://www.assero.co.uk/MDRSdtmM/CDISC/V3#M-CDISC_SDTMMODEL_xxGRPID> .
<http://www.assero.co.uk/MDRSdtmM/CDISC/V3#M-CDISC_SDTMMODEL> <http://www.assero.co.uk/BusinessDomain#includesVariable> <http://www.assero.co.uk/MDRSdtmM/CDISC/V3#M-CDISC_SDTMMODEL_xxREFID> .
<http://www.assero.co.uk/MDRSdtmM/CDISC/V3#M-CDISC_SDTMMODEL> <http://www.assero.co.uk/BusinessDomain#includesVariable> <http://www.assero.co.uk/MDRSdtmM/CDISC/V3#M-CDISC_SDTMMODEL_xxSPID> .
<http://www.assero.co.uk/MDRSdtmM/CDISC/V3#M-CDISC_SDTMMODEL> <http://www.assero.co.uk/BusinessDomain#includesVariable> <http://www.assero.co.uk/MDRSdtmM/CDISC/V3#M-CDISC_SDTMMODEL_xxLNKID> .
<http://www.assero.co.uk/MDRSdtmM/CDISC/V3#M-CDISC_SDTMMODEL> <http://www.assero.co.uk/BusinessDomain#includesVariable> <http://www.assero.co.uk/MDRSdtmM/CDISC/V3#M-CDISC_SDTMMODEL_xxLNKGRP> .
<http://www.assero.co.uk/MDRSdtmM/CDISC/V3#M-CDISC_SDTMMODEL> <http://www.assero.co.uk/BusinessDomain#includesVariable> <http://www.assero.co.uk/MDRSdtmM/CDISC/V3#M-CDISC_SDTMMODEL_VISITNUM> .
<http://www.assero.co.uk/MDRSdtmM/CDISC/V3#M-CDISC_SDTMMODEL> <http://www.assero.co.uk/BusinessDomain#includesVariable> <http://www.assero.co.uk/MDRSdtmM/CDISC/V3#M-CDISC_SDTMMODEL_VISIT> .
<http://www.assero.co.uk/MDRSdtmM/CDISC/V3#M-CDISC_SDTMMODEL> <http://www.assero.co.uk/BusinessDomain#includesVariable> <http://www.assero.co.uk/MDRSdtmM/CDISC/V3#M-CDISC_SDTMMODEL_VISITDY> .
<http://www.assero.co.uk/MDRSdtmM/CDISC/V3#M-CDISC_SDTMMODEL> <http://www.assero.co.uk/BusinessDomain#includesVariable> <http://www.assero.co.uk/MDRSdtmM/CDISC/V3#M-CDISC_SDTMMODEL_TAETORD> .
<http://www.assero.co.uk/MDRSdtmM/CDISC/V3#M-CDISC_SDTMMODEL> <http://www.assero.co.uk/BusinessDomain#includesVariable> <http://www.assero.co.uk/MDRSdtmM/CDISC/V3#M-CDISC_SDTMMODEL_EPOCH> .
<http://www.assero.co.uk/MDRSdtmM/CDISC/V3#M-CDISC_SDTMMODEL> <http://www.assero.co.uk/BusinessDomain#includesVariable> <http://www.assero.co.uk/MDRSdtmM/CDISC/V3#M-CDISC_SDTMMODEL_xxDTC> .
<http://www.assero.co.uk/MDRSdtmM/CDISC/V3#M-CDISC_SDTMMODEL> <http://www.assero.co.uk/BusinessDomain#includesVariable> <http://www.assero.co.uk/MDRSdtmM/CDISC/V3#M-CDISC_SDTMMODEL_xxSTDTC> .
<http://www.assero.co.uk/MDRSdtmM/CDISC/V3#M-CDISC_SDTMMODEL> <http://www.assero.co.uk/BusinessDomain#includesVariable> <http://www.assero.co.uk/MDRSdtmM/CDISC/V3#M-CDISC_SDTMMODEL_xxENDTC> .
<http://www.assero.co.uk/MDRSdtmM/CDISC/V3#M-CDISC_SDTMMODEL> <http://www.assero.co.uk/BusinessDomain#includesVariable> <http://www.assero.co.uk/MDRSdtmM/CDISC/V3#M-CDISC_SDTMMODEL_xxDY> .
<http://www.assero.co.uk/MDRSdtmM/CDISC/V3#M-CDISC_SDTMMODEL> <http://www.assero.co.uk/BusinessDomain#includesVariable> <http://www.assero.co.uk/MDRSdtmM/CDISC/V3#M-CDISC_SDTMMODEL_xxSTDY> .
<http://www.assero.co.uk/MDRSdtmM/CDISC/V3#M-CDISC_SDTMMODEL> <http://www.assero.co.uk/BusinessDomain#includesVariable> <http://www.assero.co.uk/MDRSdtmM/CDISC/V3#M-CDISC_SDTMMODEL_xxENDY> .
<http://www.assero.co.uk/MDRSdtmM/CDISC/V3#M-CDISC_SDTMMODEL> <http://www.assero.co.uk/BusinessDomain#includesVariable> <http://www.assero.co.uk/MDRSdtmM/CDISC/V3#M-CDISC_SDTMMODEL_xxDUR> .
<http://www.assero.co.uk/MDRSdtmM/CDISC/V3#M-CDISC_SDTMMODEL> <http://www.assero.co.uk/BusinessDomain#includesVariable> <http://www.assero.co.uk/MDRSdtmM/CDISC/V3#M-CDISC_SDTMMODEL_xxTPT> .
<http://www.assero.co.uk/MDRSdtmM/CDISC/V3#M-CDISC_SDTMMODEL> <http://www.assero.co.uk/BusinessDomain#includesVariable> <http://www.assero.co.uk/MDRSdtmM/CDISC/V3#M-CDISC_SDTMMODEL_xxTPTNUM> .
<http://www.assero.co.uk/MDRSdtmM/CDISC/V3#M-CDISC_SDTMMODEL> <http://www.assero.co.uk/BusinessDomain#includesVariable> <http://www.assero.co.uk/MDRSdtmM/CDISC/V3#M-CDISC_SDTMMODEL_xxELTM> .
<http://www.assero.co.uk/MDRSdtmM/CDISC/V3#M-CDISC_SDTMMODEL> <http://www.assero.co.uk/BusinessDomain#includesVariable> <http://www.assero.co.uk/MDRSdtmM/CDISC/V3#M-CDISC_SDTMMODEL_xxTPTREF> .
<http://www.assero.co.uk/MDRSdtmM/CDISC/V3#M-CDISC_SDTMMODEL> <http://www.assero.co.uk/BusinessDomain#includesVariable> <http://www.assero.co.uk/MDRSdtmM/CDISC/V3#M-CDISC_SDTMMODEL_xxRFTDTC> .
<http://www.assero.co.uk/MDRSdtmM/CDISC/V3#M-CDISC_SDTMMODEL> <http://www.assero.co.uk/BusinessDomain#includesVariable> <http://www.assero.co.uk/MDRSdtmM/CDISC/V3#M-CDISC_SDTMMODEL_xxSTRF> .
<http://www.assero.co.uk/MDRSdtmM/CDISC/V3#M-CDISC_SDTMMODEL> <http://www.assero.co.uk/BusinessDomain#includesVariable> <http://www.assero.co.uk/MDRSdtmM/CDISC/V3#M-CDISC_SDTMMODEL_xxENRF> .
<http://www.assero.co.uk/MDRSdtmM/CDISC/V3#M-CDISC_SDTMMODEL> <http://www.assero.co.uk/BusinessDomain#includesVariable> <http://www.assero.co.uk/MDRSdtmM/CDISC/V3#M-CDISC_SDTMMODEL_xxEVLINT> .
<http://www.assero.co.uk/MDRSdtmM/CDISC/V3#M-CDISC_SDTMMODEL> <http://www.assero.co.uk/BusinessDomain#includesVariable> <http://www.assero.co.uk/MDRSdtmM/CDISC/V3#M-CDISC_SDTMMODEL_xxEVINTX> .
<http://www.assero.co.uk/MDRSdtmM/CDISC/V3#M-CDISC_SDTMMODEL> <http://www.assero.co.uk/BusinessDomain#includesVariable> <http://www.assero.co.uk/MDRSdtmM/CDISC/V3#M-CDISC_SDTMMODEL_xxSTRTPT> .
<http://www.assero.co.uk/MDRSdtmM/CDISC/V3#M-CDISC_SDTMMODEL> <http://www.assero.co.uk/BusinessDomain#includesVariable> <http://www.assero.co.uk/MDRSdtmM/CDISC/V3#M-CDISC_SDTMMODEL_xxSTTPT> .
<http://www.assero.co.uk/MDRSdtmM/CDISC/V3#M-CDISC_SDTMMODEL> <http://www.assero.co.uk/BusinessDomain#includesVariable> <http://www.assero.co.uk/MDRSdtmM/CDISC/V3#M-CDISC_SDTMMODEL_xxENRTPT> .
<http://www.assero.co.uk/MDRSdtmM/CDISC/V3#M-CDISC_SDTMMODEL> <http://www.assero.co.uk/BusinessDomain#includesVariable> <http://www.assero.co.uk/MDRSdtmM/CDISC/V3#M-CDISC_SDTMMODEL_xxENTPT> .
<http://www.assero.co.uk/MDRSdtmM/CDISC/V3#M-CDISC_SDTMMODEL> <http://www.assero.co.uk/BusinessDomain#includesVariable> <http://www.assero.co.uk/MDRSdtmM/CDISC/V3#M-CDISC_SDTMMODEL_xxSTINT> .
<http://www.assero.co.uk/MDRSdtmM/CDISC/V3#M-CDISC_SDTMMODEL> <http://www.assero.co.uk/BusinessDomain#includesVariable> <http://www.assero.co.uk/MDRSdtmM/CDISC/V3#M-CDISC_SDTMMODEL_xxENINT> .
<http://www.assero.co.uk/MDRSdtmM/CDISC/V3#M-CDISC_SDTMMODEL> <http://www.assero.co.uk/BusinessDomain#includesVariable> <http://www.assero.co.uk/MDRSdtmM/CDISC/V3#M-CDISC_SDTMMODEL_xxDETECT> .
<http://www.assero.co.uk/MDRSdtmM/CDISC/V3#M-CDISC_SDTMMODEL> <http://www.assero.co.uk/BusinessDomain#includesVariable> <http://www.assero.co.uk/MDRSdtmM/CDISC/V3#M-CDISC_SDTMMODEL_APID> .
<http://www.assero.co.uk/MDRSdtmM/CDISC/V3#M-CDISC_SDTMMODEL> <http://www.assero.co.uk/BusinessDomain#includesVariable> <http://www.assero.co.uk/MDRSdtmM/CDISC/V3#M-CDISC_SDTMMODEL_RSUBJID> .
<http://www.assero.co.uk/MDRSdtmM/CDISC/V3#M-CDISC_SDTMMODEL> <http://www.assero.co.uk/BusinessDomain#includesVariable> <http://www.assero.co.uk/MDRSdtmM/CDISC/V3#M-CDISC_SDTMMODEL_RDEVID> .
<http://www.assero.co.uk/MDRSdtmM/CDISC/V3#M-CDISC_SDTMMODEL> <http://www.assero.co.uk/BusinessDomain#includesVariable> <http://www.assero.co.uk/MDRSdtmM/CDISC/V3#M-CDISC_SDTMMODEL_SREL> .
<http://www.assero.co.uk/MDRSdtmM/CDISC/V3#M-CDISC_SDTMMODEL> <http://www.assero.co.uk/BusinessDomain#includesVariable> <http://www.assero.co.uk/MDRSdtmM/CDISC/V3#M-CDISC_SDTMMODEL_xxTERM> .
<http://www.assero.co.uk/MDRSdtmM/CDISC/V3#M-CDISC_SDTMMODEL> <http://www.assero.co.uk/BusinessDomain#includesVariable> <http://www.assero.co.uk/MDRSdtmM/CDISC/V3#M-CDISC_SDTMMODEL_xxMODIFY> .
<http://www.assero.co.uk/MDRSdtmM/CDISC/V3#M-CDISC_SDTMMODEL> <http://www.assero.co.uk/BusinessDomain#includesVariable> <http://www.assero.co.uk/MDRSdtmM/CDISC/V3#M-CDISC_SDTMMODEL_xxLLT> .
<http://www.assero.co.uk/MDRSdtmM/CDISC/V3#M-CDISC_SDTMMODEL> <http://www.assero.co.uk/BusinessDomain#includesVariable> <http://www.assero.co.uk/MDRSdtmM/CDISC/V3#M-CDISC_SDTMMODEL_xxLLTCD> .
<http://www.assero.co.uk/MDRSdtmM/CDISC/V3#M-CDISC_SDTMMODEL> <http://www.assero.co.uk/BusinessDomain#includesVariable> <http://www.assero.co.uk/MDRSdtmM/CDISC/V3#M-CDISC_SDTMMODEL_xxDECOD> .
<http://www.assero.co.uk/MDRSdtmM/CDISC/V3#M-CDISC_SDTMMODEL> <http://www.assero.co.uk/BusinessDomain#includesVariable> <http://www.assero.co.uk/MDRSdtmM/CDISC/V3#M-CDISC_SDTMMODEL_xxPTCD> .
<http://www.assero.co.uk/MDRSdtmM/CDISC/V3#M-CDISC_SDTMMODEL> <http://www.assero.co.uk/BusinessDomain#includesVariable> <http://www.assero.co.uk/MDRSdtmM/CDISC/V3#M-CDISC_SDTMMODEL_xxHLT> .
<http://www.assero.co.uk/MDRSdtmM/CDISC/V3#M-CDISC_SDTMMODEL> <http://www.assero.co.uk/BusinessDomain#includesVariable> <http://www.assero.co.uk/MDRSdtmM/CDISC/V3#M-CDISC_SDTMMODEL_xxHLTCD> .
<http://www.assero.co.uk/MDRSdtmM/CDISC/V3#M-CDISC_SDTMMODEL> <http://www.assero.co.uk/BusinessDomain#includesVariable> <http://www.assero.co.uk/MDRSdtmM/CDISC/V3#M-CDISC_SDTMMODEL_xxHLGT> .
<http://www.assero.co.uk/MDRSdtmM/CDISC/V3#M-CDISC_SDTMMODEL> <http://www.assero.co.uk/BusinessDomain#includesVariable> <http://www.assero.co.uk/MDRSdtmM/CDISC/V3#M-CDISC_SDTMMODEL_xxHLGTCD> .
<http://www.assero.co.uk/MDRSdtmM/CDISC/V3#M-CDISC_SDTMMODEL> <http://www.assero.co.uk/BusinessDomain#includesVariable> <http://www.assero.co.uk/MDRSdtmM/CDISC/V3#M-CDISC_SDTMMODEL_xxCAT> .
<http://www.assero.co.uk/MDRSdtmM/CDISC/V3#M-CDISC_SDTMMODEL> <http://www.assero.co.uk/BusinessDomain#includesVariable> <http://www.assero.co.uk/MDRSdtmM/CDISC/V3#M-CDISC_SDTMMODEL_xxSCAT> .
<http://www.assero.co.uk/MDRSdtmM/CDISC/V3#M-CDISC_SDTMMODEL> <http://www.assero.co.uk/BusinessDomain#includesVariable> <http://www.assero.co.uk/MDRSdtmM/CDISC/V3#M-CDISC_SDTMMODEL_xxPRESP> .
<http://www.assero.co.uk/MDRSdtmM/CDISC/V3#M-CDISC_SDTMMODEL> <http://www.assero.co.uk/BusinessDomain#includesVariable> <http://www.assero.co.uk/MDRSdtmM/CDISC/V3#M-CDISC_SDTMMODEL_xxOCCUR> .
<http://www.assero.co.uk/MDRSdtmM/CDISC/V3#M-CDISC_SDTMMODEL> <http://www.assero.co.uk/BusinessDomain#includesVariable> <http://www.assero.co.uk/MDRSdtmM/CDISC/V3#M-CDISC_SDTMMODEL_xxSTAT> .
<http://www.assero.co.uk/MDRSdtmM/CDISC/V3#M-CDISC_SDTMMODEL> <http://www.assero.co.uk/BusinessDomain#includesVariable> <http://www.assero.co.uk/MDRSdtmM/CDISC/V3#M-CDISC_SDTMMODEL_xxREASND> .
<http://www.assero.co.uk/MDRSdtmM/CDISC/V3#M-CDISC_SDTMMODEL> <http://www.assero.co.uk/BusinessDomain#includesVariable> <http://www.assero.co.uk/MDRSdtmM/CDISC/V3#M-CDISC_SDTMMODEL_xxBODSYS> .
<http://www.assero.co.uk/MDRSdtmM/CDISC/V3#M-CDISC_SDTMMODEL> <http://www.assero.co.uk/BusinessDomain#includesVariable> <http://www.assero.co.uk/MDRSdtmM/CDISC/V3#M-CDISC_SDTMMODEL_xxBDSYCD> .
<http://www.assero.co.uk/MDRSdtmM/CDISC/V3#M-CDISC_SDTMMODEL> <http://www.assero.co.uk/BusinessDomain#includesVariable> <http://www.assero.co.uk/MDRSdtmM/CDISC/V3#M-CDISC_SDTMMODEL_xxSOC> .
<http://www.assero.co.uk/MDRSdtmM/CDISC/V3#M-CDISC_SDTMMODEL> <http://www.assero.co.uk/BusinessDomain#includesVariable> <http://www.assero.co.uk/MDRSdtmM/CDISC/V3#M-CDISC_SDTMMODEL_xxSOCCD> .
<http://www.assero.co.uk/MDRSdtmM/CDISC/V3#M-CDISC_SDTMMODEL> <http://www.assero.co.uk/BusinessDomain#includesVariable> <http://www.assero.co.uk/MDRSdtmM/CDISC/V3#M-CDISC_SDTMMODEL_xxLOC> .
<http://www.assero.co.uk/MDRSdtmM/CDISC/V3#M-CDISC_SDTMMODEL> <http://www.assero.co.uk/BusinessDomain#includesVariable> <http://www.assero.co.uk/MDRSdtmM/CDISC/V3#M-CDISC_SDTMMODEL_xxLAT> .
<http://www.assero.co.uk/MDRSdtmM/CDISC/V3#M-CDISC_SDTMMODEL> <http://www.assero.co.uk/BusinessDomain#includesVariable> <http://www.assero.co.uk/MDRSdtmM/CDISC/V3#M-CDISC_SDTMMODEL_xxDIR> .
<http://www.assero.co.uk/MDRSdtmM/CDISC/V3#M-CDISC_SDTMMODEL> <http://www.assero.co.uk/BusinessDomain#includesVariable> <http://www.assero.co.uk/MDRSdtmM/CDISC/V3#M-CDISC_SDTMMODEL_xxPORTOT> .
<http://www.assero.co.uk/MDRSdtmM/CDISC/V3#M-CDISC_SDTMMODEL> <http://www.assero.co.uk/BusinessDomain#includesVariable> <http://www.assero.co.uk/MDRSdtmM/CDISC/V3#M-CDISC_SDTMMODEL_xxPARTY> .
<http://www.assero.co.uk/MDRSdtmM/CDISC/V3#M-CDISC_SDTMMODEL> <http://www.assero.co.uk/BusinessDomain#includesVariable> <http://www.assero.co.uk/MDRSdtmM/CDISC/V3#M-CDISC_SDTMMODEL_xxPRTYID> .
<http://www.assero.co.uk/MDRSdtmM/CDISC/V3#M-CDISC_SDTMMODEL> <http://www.assero.co.uk/BusinessDomain#includesVariable> <http://www.assero.co.uk/MDRSdtmM/CDISC/V3#M-CDISC_SDTMMODEL_xxSEV> .
<http://www.assero.co.uk/MDRSdtmM/CDISC/V3#M-CDISC_SDTMMODEL> <http://www.assero.co.uk/BusinessDomain#includesVariable> <http://www.assero.co.uk/MDRSdtmM/CDISC/V3#M-CDISC_SDTMMODEL_xxSER> .
<http://www.assero.co.uk/MDRSdtmM/CDISC/V3#M-CDISC_SDTMMODEL> <http://www.assero.co.uk/BusinessDomain#includesVariable> <http://www.assero.co.uk/MDRSdtmM/CDISC/V3#M-CDISC_SDTMMODEL_xxACN> .
<http://www.assero.co.uk/MDRSdtmM/CDISC/V3#M-CDISC_SDTMMODEL> <http://www.assero.co.uk/BusinessDomain#includesVariable> <http://www.assero.co.uk/MDRSdtmM/CDISC/V3#M-CDISC_SDTMMODEL_xxACNOTH> .
<http://www.assero.co.uk/MDRSdtmM/CDISC/V3#M-CDISC_SDTMMODEL> <http://www.assero.co.uk/BusinessDomain#includesVariable> <http://www.assero.co.uk/MDRSdtmM/CDISC/V3#M-CDISC_SDTMMODEL_xxACNDEV> .
<http://www.assero.co.uk/MDRSdtmM/CDISC/V3#M-CDISC_SDTMMODEL> <http://www.assero.co.uk/BusinessDomain#includesVariable> <http://www.assero.co.uk/MDRSdtmM/CDISC/V3#M-CDISC_SDTMMODEL_xxREL> .
<http://www.assero.co.uk/MDRSdtmM/CDISC/V3#M-CDISC_SDTMMODEL> <http://www.assero.co.uk/BusinessDomain#includesVariable> <http://www.assero.co.uk/MDRSdtmM/CDISC/V3#M-CDISC_SDTMMODEL_xxRELNST> .
<http://www.assero.co.uk/MDRSdtmM/CDISC/V3#M-CDISC_SDTMMODEL> <http://www.assero.co.uk/BusinessDomain#includesVariable> <http://www.assero.co.uk/MDRSdtmM/CDISC/V3#M-CDISC_SDTMMODEL_xxPATT> .
<http://www.assero.co.uk/MDRSdtmM/CDISC/V3#M-CDISC_SDTMMODEL> <http://www.assero.co.uk/BusinessDomain#includesVariable> <http://www.assero.co.uk/MDRSdtmM/CDISC/V3#M-CDISC_SDTMMODEL_xxOUT> .
<http://www.assero.co.uk/MDRSdtmM/CDISC/V3#M-CDISC_SDTMMODEL> <http://www.assero.co.uk/BusinessDomain#includesVariable> <http://www.assero.co.uk/MDRSdtmM/CDISC/V3#M-CDISC_SDTMMODEL_xxSCAN> .
<http://www.assero.co.uk/MDRSdtmM/CDISC/V3#M-CDISC_SDTMMODEL> <http://www.assero.co.uk/BusinessDomain#includesVariable> <http://www.assero.co.uk/MDRSdtmM/CDISC/V3#M-CDISC_SDTMMODEL_xxSCONG> .
<http://www.assero.co.uk/MDRSdtmM/CDISC/V3#M-CDISC_SDTMMODEL> <http://www.assero.co.uk/BusinessDomain#includesVariable> <http://www.assero.co.uk/MDRSdtmM/CDISC/V3#M-CDISC_SDTMMODEL_xxSDISAB> .
<http://www.assero.co.uk/MDRSdtmM/CDISC/V3#M-CDISC_SDTMMODEL> <http://www.assero.co.uk/BusinessDomain#includesVariable> <http://www.assero.co.uk/MDRSdtmM/CDISC/V3#M-CDISC_SDTMMODEL_xxSDTH> .
<http://www.assero.co.uk/MDRSdtmM/CDISC/V3#M-CDISC_SDTMMODEL> <http://www.assero.co.uk/BusinessDomain#includesVariable> <http://www.assero.co.uk/MDRSdtmM/CDISC/V3#M-CDISC_SDTMMODEL_xxSHOSP> .
<http://www.assero.co.uk/MDRSdtmM/CDISC/V3#M-CDISC_SDTMMODEL> <http://www.assero.co.uk/BusinessDomain#includesVariable> <http://www.assero.co.uk/MDRSdtmM/CDISC/V3#M-CDISC_SDTMMODEL_xxSLIFE> .
<http://www.assero.co.uk/MDRSdtmM/CDISC/V3#M-CDISC_SDTMMODEL> <http://www.assero.co.uk/BusinessDomain#includesVariable> <http://www.assero.co.uk/MDRSdtmM/CDISC/V3#M-CDISC_SDTMMODEL_xxSOD> .
<http://www.assero.co.uk/MDRSdtmM/CDISC/V3#M-CDISC_SDTMMODEL> <http://www.assero.co.uk/BusinessDomain#includesVariable> <http://www.assero.co.uk/MDRSdtmM/CDISC/V3#M-CDISC_SDTMMODEL_xxSMIE> .
<http://www.assero.co.uk/MDRSdtmM/CDISC/V3#M-CDISC_SDTMMODEL> <http://www.assero.co.uk/BusinessDomain#includesVariable> <http://www.assero.co.uk/MDRSdtmM/CDISC/V3#M-CDISC_SDTMMODEL_xxCONTRT> .
<http://www.assero.co.uk/MDRSdtmM/CDISC/V3#M-CDISC_SDTMMODEL> <http://www.assero.co.uk/BusinessDomain#includesVariable> <http://www.assero.co.uk/MDRSdtmM/CDISC/V3#M-CDISC_SDTMMODEL_xxTOX> .
<http://www.assero.co.uk/MDRSdtmM/CDISC/V3#M-CDISC_SDTMMODEL> <http://www.assero.co.uk/BusinessDomain#includesVariable> <http://www.assero.co.uk/MDRSdtmM/CDISC/V3#M-CDISC_SDTMMODEL_xxTOXGR> .
<http://www.assero.co.uk/MDRSdtmM/CDISC/V3#M-CDISC_SDTMMODEL> <http://www.assero.co.uk/BusinessDomain#includesVariable> <http://www.assero.co.uk/MDRSdtmM/CDISC/V3#M-CDISC_SDTMMODEL_xxOBJ> .
<http://www.assero.co.uk/MDRSdtmM/CDISC/V3#M-CDISC_SDTMMODEL> <http://www.assero.co.uk/BusinessDomain#includesVariable> <http://www.assero.co.uk/MDRSdtmM/CDISC/V3#M-CDISC_SDTMMODEL_xxTESTCD> .
<http://www.assero.co.uk/MDRSdtmM/CDISC/V3#M-CDISC_SDTMMODEL> <http://www.assero.co.uk/BusinessDomain#includesVariable> <http://www.assero.co.uk/MDRSdtmM/CDISC/V3#M-CDISC_SDTMMODEL_xxTEST> .
<http://www.assero.co.uk/MDRSdtmM/CDISC/V3#M-CDISC_SDTMMODEL> <http://www.assero.co.uk/BusinessDomain#includesVariable> <http://www.assero.co.uk/MDRSdtmM/CDISC/V3#M-CDISC_SDTMMODEL_xxTSTDTL> .
<http://www.assero.co.uk/MDRSdtmM/CDISC/V3#M-CDISC_SDTMMODEL> <http://www.assero.co.uk/BusinessDomain#includesVariable> <http://www.assero.co.uk/MDRSdtmM/CDISC/V3#M-CDISC_SDTMMODEL_xxPOS> .
<http://www.assero.co.uk/MDRSdtmM/CDISC/V3#M-CDISC_SDTMMODEL> <http://www.assero.co.uk/BusinessDomain#includesVariable> <http://www.assero.co.uk/MDRSdtmM/CDISC/V3#M-CDISC_SDTMMODEL_xxORRES> .
<http://www.assero.co.uk/MDRSdtmM/CDISC/V3#M-CDISC_SDTMMODEL> <http://www.assero.co.uk/BusinessDomain#includesVariable> <http://www.assero.co.uk/MDRSdtmM/CDISC/V3#M-CDISC_SDTMMODEL_xxORRESU> .
<http://www.assero.co.uk/MDRSdtmM/CDISC/V3#M-CDISC_SDTMMODEL> <http://www.assero.co.uk/BusinessDomain#includesVariable> <http://www.assero.co.uk/MDRSdtmM/CDISC/V3#M-CDISC_SDTMMODEL_xxORNRLO> .
<http://www.assero.co.uk/MDRSdtmM/CDISC/V3#M-CDISC_SDTMMODEL> <http://www.assero.co.uk/BusinessDomain#includesVariable> <http://www.assero.co.uk/MDRSdtmM/CDISC/V3#M-CDISC_SDTMMODEL_xxORNRHI> .
<http://www.assero.co.uk/MDRSdtmM/CDISC/V3#M-CDISC_SDTMMODEL> <http://www.assero.co.uk/BusinessDomain#includesVariable> <http://www.assero.co.uk/MDRSdtmM/CDISC/V3#M-CDISC_SDTMMODEL_xxSTRESC> .
<http://www.assero.co.uk/MDRSdtmM/CDISC/V3#M-CDISC_SDTMMODEL> <http://www.assero.co.uk/BusinessDomain#includesVariable> <http://www.assero.co.uk/MDRSdtmM/CDISC/V3#M-CDISC_SDTMMODEL_xxSTRESN> .
<http://www.assero.co.uk/MDRSdtmM/CDISC/V3#M-CDISC_SDTMMODEL> <http://www.assero.co.uk/BusinessDomain#includesVariable> <http://www.assero.co.uk/MDRSdtmM/CDISC/V3#M-CDISC_SDTMMODEL_xxSTRESU> .
<http://www.assero.co.uk/MDRSdtmM/CDISC/V3#M-CDISC_SDTMMODEL> <http://www.assero.co.uk/BusinessDomain#includesVariable> <http://www.assero.co.uk/MDRSdtmM/CDISC/V3#M-CDISC_SDTMMODEL_xxSTNRLO> .
<http://www.assero.co.uk/MDRSdtmM/CDISC/V3#M-CDISC_SDTMMODEL> <http://www.assero.co.uk/BusinessDomain#includesVariable> <http://www.assero.co.uk/MDRSdtmM/CDISC/V3#M-CDISC_SDTMMODEL_xxSTNRHI> .
<http://www.assero.co.uk/MDRSdtmM/CDISC/V3#M-CDISC_SDTMMODEL> <http://www.assero.co.uk/BusinessDomain#includesVariable> <http://www.assero.co.uk/MDRSdtmM/CDISC/V3#M-CDISC_SDTMMODEL_xxSTNRC> .
<http://www.assero.co.uk/MDRSdtmM/CDISC/V3#M-CDISC_SDTMMODEL> <http://www.assero.co.uk/BusinessDomain#includesVariable> <http://www.assero.co.uk/MDRSdtmM/CDISC/V3#M-CDISC_SDTMMODEL_xxNRIND> .
<http://www.assero.co.uk/MDRSdtmM/CDISC/V3#M-CDISC_SDTMMODEL> <http://www.assero.co.uk/BusinessDomain#includesVariable> <http://www.assero.co.uk/MDRSdtmM/CDISC/V3#M-CDISC_SDTMMODEL_xxRESCAT> .
<http://www.assero.co.uk/MDRSdtmM/CDISC/V3#M-CDISC_SDTMMODEL> <http://www.assero.co.uk/BusinessDomain#includesVariable> <http://www.assero.co.uk/MDRSdtmM/CDISC/V3#M-CDISC_SDTMMODEL_xxXFN> .
<http://www.assero.co.uk/MDRSdtmM/CDISC/V3#M-CDISC_SDTMMODEL> <http://www.assero.co.uk/BusinessDomain#includesVariable> <http://www.assero.co.uk/MDRSdtmM/CDISC/V3#M-CDISC_SDTMMODEL_xxNAM> .
<http://www.assero.co.uk/MDRSdtmM/CDISC/V3#M-CDISC_SDTMMODEL> <http://www.assero.co.uk/BusinessDomain#includesVariable> <http://www.assero.co.uk/MDRSdtmM/CDISC/V3#M-CDISC_SDTMMODEL_xxLOINC> .
<http://www.assero.co.uk/MDRSdtmM/CDISC/V3#M-CDISC_SDTMMODEL> <http://www.assero.co.uk/BusinessDomain#includesVariable> <http://www.assero.co.uk/MDRSdtmM/CDISC/V3#M-CDISC_SDTMMODEL_xxSPEC> .
<http://www.assero.co.uk/MDRSdtmM/CDISC/V3#M-CDISC_SDTMMODEL> <http://www.assero.co.uk/BusinessDomain#includesVariable> <http://www.assero.co.uk/MDRSdtmM/CDISC/V3#M-CDISC_SDTMMODEL_xxANTREG> .
<http://www.assero.co.uk/MDRSdtmM/CDISC/V3#M-CDISC_SDTMMODEL> <http://www.assero.co.uk/BusinessDomain#includesVariable> <http://www.assero.co.uk/MDRSdtmM/CDISC/V3#M-CDISC_SDTMMODEL_xxSPCCND> .
<http://www.assero.co.uk/MDRSdtmM/CDISC/V3#M-CDISC_SDTMMODEL> <http://www.assero.co.uk/BusinessDomain#includesVariable> <http://www.assero.co.uk/MDRSdtmM/CDISC/V3#M-CDISC_SDTMMODEL_xxSPCUFL> .
<http://www.assero.co.uk/MDRSdtmM/CDISC/V3#M-CDISC_SDTMMODEL> <http://www.assero.co.uk/BusinessDomain#includesVariable> <http://www.assero.co.uk/MDRSdtmM/CDISC/V3#M-CDISC_SDTMMODEL_xxMETHOD> .
<http://www.assero.co.uk/MDRSdtmM/CDISC/V3#M-CDISC_SDTMMODEL> <http://www.assero.co.uk/BusinessDomain#includesVariable> <http://www.assero.co.uk/MDRSdtmM/CDISC/V3#M-CDISC_SDTMMODEL_xxRUNID> .
<http://www.assero.co.uk/MDRSdtmM/CDISC/V3#M-CDISC_SDTMMODEL> <http://www.assero.co.uk/BusinessDomain#includesVariable> <http://www.assero.co.uk/MDRSdtmM/CDISC/V3#M-CDISC_SDTMMODEL_xxANMETH> .
<http://www.assero.co.uk/MDRSdtmM/CDISC/V3#M-CDISC_SDTMMODEL> <http://www.assero.co.uk/BusinessDomain#includesVariable> <http://www.assero.co.uk/MDRSdtmM/CDISC/V3#M-CDISC_SDTMMODEL_xxLEAD> .
<http://www.assero.co.uk/MDRSdtmM/CDISC/V3#M-CDISC_SDTMMODEL> <http://www.assero.co.uk/BusinessDomain#includesVariable> <http://www.assero.co.uk/MDRSdtmM/CDISC/V3#M-CDISC_SDTMMODEL_xxCSTATE> .
<http://www.assero.co.uk/MDRSdtmM/CDISC/V3#M-CDISC_SDTMMODEL> <http://www.assero.co.uk/BusinessDomain#includesVariable> <http://www.assero.co.uk/MDRSdtmM/CDISC/V3#M-CDISC_SDTMMODEL_xxBLFL> .
<http://www.assero.co.uk/MDRSdtmM/CDISC/V3#M-CDISC_SDTMMODEL> <http://www.assero.co.uk/BusinessDomain#includesVariable> <http://www.assero.co.uk/MDRSdtmM/CDISC/V3#M-CDISC_SDTMMODEL_xxFAST> .
<http://www.assero.co.uk/MDRSdtmM/CDISC/V3#M-CDISC_SDTMMODEL> <http://www.assero.co.uk/BusinessDomain#includesVariable> <http://www.assero.co.uk/MDRSdtmM/CDISC/V3#M-CDISC_SDTMMODEL_xxDRVFL> .
<http://www.assero.co.uk/MDRSdtmM/CDISC/V3#M-CDISC_SDTMMODEL> <http://www.assero.co.uk/BusinessDomain#includesVariable> <http://www.assero.co.uk/MDRSdtmM/CDISC/V3#M-CDISC_SDTMMODEL_xxEVAL> .
<http://www.assero.co.uk/MDRSdtmM/CDISC/V3#M-CDISC_SDTMMODEL> <http://www.assero.co.uk/BusinessDomain#includesVariable> <http://www.assero.co.uk/MDRSdtmM/CDISC/V3#M-CDISC_SDTMMODEL_xxEVALID> .
<http://www.assero.co.uk/MDRSdtmM/CDISC/V3#M-CDISC_SDTMMODEL> <http://www.assero.co.uk/BusinessDomain#includesVariable> <http://www.assero.co.uk/MDRSdtmM/CDISC/V3#M-CDISC_SDTMMODEL_xxACPTFL> .
<http://www.assero.co.uk/MDRSdtmM/CDISC/V3#M-CDISC_SDTMMODEL> <http://www.assero.co.uk/BusinessDomain#includesVariable> <http://www.assero.co.uk/MDRSdtmM/CDISC/V3#M-CDISC_SDTMMODEL_xxDTHREL> .
<http://www.assero.co.uk/MDRSdtmM/CDISC/V3#M-CDISC_SDTMMODEL> <http://www.assero.co.uk/BusinessDomain#includesVariable> <http://www.assero.co.uk/MDRSdtmM/CDISC/V3#M-CDISC_SDTMMODEL_xxLLOQ> .
<http://www.assero.co.uk/MDRSdtmM/CDISC/V3#M-CDISC_SDTMMODEL> <http://www.assero.co.uk/BusinessDomain#includesVariable> <http://www.assero.co.uk/MDRSdtmM/CDISC/V3#M-CDISC_SDTMMODEL_xxULOQ> .
<http://www.assero.co.uk/MDRSdtmM/CDISC/V3#M-CDISC_SDTMMODEL> <http://www.assero.co.uk/BusinessDomain#includesVariable> <http://www.assero.co.uk/MDRSdtmM/CDISC/V3#M-CDISC_SDTMMODEL_xxEXCLFL> .
<http://www.assero.co.uk/MDRSdtmM/CDISC/V3#M-CDISC_SDTMMODEL> <http://www.assero.co.uk/BusinessDomain#includesVariable> <http://www.assero.co.uk/MDRSdtmM/CDISC/V3#M-CDISC_SDTMMODEL_xxREASEX> .
<http://www.assero.co.uk/MDRSdtmM/CDISC/V3#M-CDISC_SDTMMODEL> <http://www.assero.co.uk/BusinessDomain#includesVariable> <http://www.assero.co.uk/MDRSdtmM/CDISC/V3#M-CDISC_SDTMMODEL_xxTRT> .
<http://www.assero.co.uk/MDRSdtmM/CDISC/V3#M-CDISC_SDTMMODEL> <http://www.assero.co.uk/BusinessDomain#includesVariable> <http://www.assero.co.uk/MDRSdtmM/CDISC/V3#M-CDISC_SDTMMODEL_xxMOOD> .
<http://www.assero.co.uk/MDRSdtmM/CDISC/V3#M-CDISC_SDTMMODEL> <http://www.assero.co.uk/BusinessDomain#includesVariable> <http://www.assero.co.uk/MDRSdtmM/CDISC/V3#M-CDISC_SDTMMODEL_xxINDC> .
<http://www.assero.co.uk/MDRSdtmM/CDISC/V3#M-CDISC_SDTMMODEL> <http://www.assero.co.uk/BusinessDomain#includesVariable> <http://www.assero.co.uk/MDRSdtmM/CDISC/V3#M-CDISC_SDTMMODEL_xxCLAS> .
<http://www.assero.co.uk/MDRSdtmM/CDISC/V3#M-CDISC_SDTMMODEL> <http://www.assero.co.uk/BusinessDomain#includesVariable> <http://www.assero.co.uk/MDRSdtmM/CDISC/V3#M-CDISC_SDTMMODEL_xxCLASCD> .
<http://www.assero.co.uk/MDRSdtmM/CDISC/V3#M-CDISC_SDTMMODEL> <http://www.assero.co.uk/BusinessDomain#includesVariable> <http://www.assero.co.uk/MDRSdtmM/CDISC/V3#M-CDISC_SDTMMODEL_xxDOSE> .
<http://www.assero.co.uk/MDRSdtmM/CDISC/V3#M-CDISC_SDTMMODEL> <http://www.assero.co.uk/BusinessDomain#includesVariable> <http://www.assero.co.uk/MDRSdtmM/CDISC/V3#M-CDISC_SDTMMODEL_xxDOSTXT> .
<http://www.assero.co.uk/MDRSdtmM/CDISC/V3#M-CDISC_SDTMMODEL> <http://www.assero.co.uk/BusinessDomain#includesVariable> <http://www.assero.co.uk/MDRSdtmM/CDISC/V3#M-CDISC_SDTMMODEL_xxDOSU> .
<http://www.assero.co.uk/MDRSdtmM/CDISC/V3#M-CDISC_SDTMMODEL> <http://www.assero.co.uk/BusinessDomain#includesVariable> <http://www.assero.co.uk/MDRSdtmM/CDISC/V3#M-CDISC_SDTMMODEL_xxDOSFRM> .
<http://www.assero.co.uk/MDRSdtmM/CDISC/V3#M-CDISC_SDTMMODEL> <http://www.assero.co.uk/BusinessDomain#includesVariable> <http://www.assero.co.uk/MDRSdtmM/CDISC/V3#M-CDISC_SDTMMODEL_xxDOSFRQ> .
<http://www.assero.co.uk/MDRSdtmM/CDISC/V3#M-CDISC_SDTMMODEL> <http://www.assero.co.uk/BusinessDomain#includesVariable> <http://www.assero.co.uk/MDRSdtmM/CDISC/V3#M-CDISC_SDTMMODEL_xxDOSTOT> .
<http://www.assero.co.uk/MDRSdtmM/CDISC/V3#M-CDISC_SDTMMODEL> <http://www.assero.co.uk/BusinessDomain#includesVariable> <http://www.assero.co.uk/MDRSdtmM/CDISC/V3#M-CDISC_SDTMMODEL_xxDOSRGM> .
<http://www.assero.co.uk/MDRSdtmM/CDISC/V3#M-CDISC_SDTMMODEL> <http://www.assero.co.uk/BusinessDomain#includesVariable> <http://www.assero.co.uk/MDRSdtmM/CDISC/V3#M-CDISC_SDTMMODEL_xxROUTE> .
<http://www.assero.co.uk/MDRSdtmM/CDISC/V3#M-CDISC_SDTMMODEL> <http://www.assero.co.uk/BusinessDomain#includesVariable> <http://www.assero.co.uk/MDRSdtmM/CDISC/V3#M-CDISC_SDTMMODEL_xxLOT> .
<http://www.assero.co.uk/MDRSdtmM/CDISC/V3#M-CDISC_SDTMMODEL> <http://www.assero.co.uk/BusinessDomain#includesVariable> <http://www.assero.co.uk/MDRSdtmM/CDISC/V3#M-CDISC_SDTMMODEL_xxPSTRG> .
<http://www.assero.co.uk/MDRSdtmM/CDISC/V3#M-CDISC_SDTMMODEL> <http://www.assero.co.uk/BusinessDomain#includesVariable> <http://www.assero.co.uk/MDRSdtmM/CDISC/V3#M-CDISC_SDTMMODEL_xxPSTRGU> .
<http://www.assero.co.uk/MDRSdtmM/CDISC/V3#M-CDISC_SDTMMODEL> <http://www.assero.co.uk/BusinessDomain#includesVariable> <http://www.assero.co.uk/MDRSdtmM/CDISC/V3#M-CDISC_SDTMMODEL_xxTRTV> .
<http://www.assero.co.uk/MDRSdtmM/CDISC/V3#M-CDISC_SDTMMODEL> <http://www.assero.co.uk/BusinessDomain#includesVariable> <http://www.assero.co.uk/MDRSdtmM/CDISC/V3#M-CDISC_SDTMMODEL_xxVAMT> .
<http://www.assero.co.uk/MDRSdtmM/CDISC/V3#M-CDISC_SDTMMODEL> <http://www.assero.co.uk/BusinessDomain#includesVariable> <http://www.assero.co.uk/MDRSdtmM/CDISC/V3#M-CDISC_SDTMMODEL_xxVAMTU> .
<http://www.assero.co.uk/MDRSdtmM/CDISC/V3#M-CDISC_SDTMMODEL> <http://www.assero.co.uk/BusinessDomain#includesVariable> <http://www.assero.co.uk/MDRSdtmM/CDISC/V3#M-CDISC_SDTMMODEL_xxADJ> .
<http://www.assero.co.uk/MDRSdtmM/CDISC/V3#M-CDISC_SDTMMODEL_STUDYID> <http://www.w3.org/1999/02/22-rdf-syntax-ns#type> <http://www.assero.co.uk/BusinessDomain#ModelVariable> .
<http://www.assero.co.uk/MDRSdtmM/CDISC/V3#M-CDISC_SDTMMODEL_STUDYID> <http://www.w3.org/2000/01/rdf-schema#label> "Study Identifier" .
<http://www.assero.co.uk/MDRSdtmM/CDISC/V3#M-CDISC_SDTMMODEL_STUDYID> <http://www.assero.co.uk/BusinessDomain#classifiedAs> <http://www.assero.co.uk/MDRSdtmM/CDISC/V3#M-CDISC_SDTMMODEL_C_IDENTIFIER> .
<http://www.assero.co.uk/MDRSdtmM/CDISC/V3#M-CDISC_SDTMMODEL_STUDYID> <http://www.assero.co.uk/BusinessDomain#typedAs> <http://www.assero.co.uk/MDRSdtmM/CDISC/V3#M-CDISC_SDTMMODEL_DT_CHAR> .
<http://www.assero.co.uk/MDRSdtmM/CDISC/V3#M-CDISC_SDTMMODEL_STUDYID> <http://www.assero.co.uk/BusinessDomain#rule> "" .
<http://www.assero.co.uk/MDRSdtmM/CDISC/V3#M-CDISC_SDTMMODEL_STUDYID> <http://www.assero.co.uk/BusinessDomain#ordinal> "1"^^<http://www.w3.org/2001/XMLSchema#integer> .
<http://www.assero.co.uk/MDRSdtmM/CDISC/V3#M-CDISC_SDTMMODEL_STUDYID> <http://www.assero.co.uk/BusinessDomain#name> "STUDYID" .
<http://www.assero.co.uk/MDRSdtmM/CDISC/V3#M-CDISC_SDTMMODEL_STUDYID> <http://www.assero.co.uk/BusinessDomain#prefixed> "false"^^<http://www.w3.org/2001/XMLSchema#boolean> .
<http://www.assero.co.uk/MDRSdtmM/CDISC/V3#M-CDISC_SDTMMODEL_STUDYID> <http://www.assero.co.uk/BusinessDomain#description> "Unique identifier for a study." .
<http://www.assero.co.uk/MDRSdtmM/CDISC/V3#M-CDISC_SDTMMODEL_DT_CHAR> <http://www.w3.org/1999/02/22-rdf-syntax-ns#type> <http://www.assero.co.uk/BusinessDomain#VariableType> .
<http://www.assero.co.uk/MDRSdtmM/CDISC/V3#M-CDISC_SDTMMODEL_DT_CHAR> <http://www.w3.org/2000/01/rdf-schema#label> "Char" .
<http://www.assero.co.uk/MDRSdtmM/CDISC/V3#M-CDISC_SDTMMODEL_C_IDENTIFIER> <http://www.w3.org/1999/02/22-rdf-syntax-ns#type> <http://www.assero.co.uk/BusinessDomain#VariableClassification> .
<http://www.assero.co.uk/MDRSdtmM/CDISC/V3#M-CDISC_SDTMMODEL_C_IDENTIFIER> <http://www.w3.org/2000/01/rdf-schema#label> "Identifier" .
<http://www.assero.co.uk/MDRSdtmM/CDISC/V3#M-CDISC_SDTMMODEL_DOMAIN> <http://www.w3.org/1999/02/22-rdf-syntax-ns#type> <http://www.assero.co.uk/BusinessDomain#ModelVariable> .
<http://www.assero.co.uk/MDRSdtmM/CDISC/V3#M-CDISC_SDTMMODEL_DOMAIN> <http://www.w3.org/2000/01/rdf-schema#label> "Domain Abbreviation" .
<http://www.assero.co.uk/MDRSdtmM/CDISC/V3#M-CDISC_SDTMMODEL_DOMAIN> <http://www.assero.co.uk/BusinessDomain#classifiedAs> <http://www.assero.co.uk/MDRSdtmM/CDISC/V3#M-CDISC_SDTMMODEL_C_IDENTIFIER> .
<http://www.assero.co.uk/MDRSdtmM/CDISC/V3#M-CDISC_SDTMMODEL_DOMAIN> <http://www.assero.co.uk/BusinessDomain#typedAs> <http://www.assero.co.uk/MDRSdtmM/CDISC/V3#M-CDISC_SDTMMODEL_DT_CHAR> .
<http://www.assero.co.uk/MDRSdtmM/CDISC/V3#M-CDISC_SDTMMODEL_DOMAIN> <http://www.assero.co.uk/BusinessDomain#rule> "" .
<http://www.assero.co.uk/MDRSdtmM/CDISC/V3#M-CDISC_SDTMMODEL_DOMAIN> <http://www.assero.co.uk/BusinessDomain#ordinal> "2"^^<http://www.w3.org/2001/XMLSchema#integer> .
<http://www.assero.co.uk/MDRSdtmM/CDISC/V3#M-CDISC_SDTMMODEL_DOMAIN> <http://www.assero.co.uk/BusinessDomain#name> "DOMAIN" .
<http://www.assero.co.uk/MDRSdtmM/CDISC/V3#M-CDISC_SDTMMODEL_DOMAIN> <http://www.assero.co.uk/BusinessDomain#prefixed> "false"^^<http://www.w3.org/2001/XMLSchema#boolean> .
<http://www.assero.co.uk/MDRSdtmM/CDISC/V3#M-CDISC_SDTMMODEL_DOMAIN> <http://www.assero.co.uk/BusinessDomain#description> "Two-character abbreviation for the domain most relevant to the observation. The Domain abbreviation is also used as a prefix for variables to ensure uniqueness when datasets are merged." .
<http://www.assero.co.uk/MDRSdtmM/CDISC/V3#M-CDISC_SDTMMODEL_USUBJID> <http://www.w3.org/1999/02/22-rdf-syntax-ns#type> <http://www.assero.co.uk/BusinessDomain#ModelVariable> .
<http://www.assero.co.uk/MDRSdtmM/CDISC/V3#M-CDISC_SDTMMODEL_USUBJID> <http://www.w3.org/2000/01/rdf-schema#label> "Unique Subject Identifier" .
<http://www.assero.co.uk/MDRSdtmM/CDISC/V3#M-CDISC_SDTMMODEL_USUBJID> <http://www.assero.co.uk/BusinessDomain#classifiedAs> <http://www.assero.co.uk/MDRSdtmM/CDISC/V3#M-CDISC_SDTMMODEL_C_IDENTIFIER> .
<http://www.assero.co.uk/MDRSdtmM/CDISC/V3#M-CDISC_SDTMMODEL_USUBJID> <http://www.assero.co.uk/BusinessDomain#typedAs> <http://www.assero.co.uk/MDRSdtmM/CDISC/V3#M-CDISC_SDTMMODEL_DT_CHAR> .
<http://www.assero.co.uk/MDRSdtmM/CDISC/V3#M-CDISC_SDTMMODEL_USUBJID> <http://www.assero.co.uk/BusinessDomain#rule> "" .
<http://www.assero.co.uk/MDRSdtmM/CDISC/V3#M-CDISC_SDTMMODEL_USUBJID> <http://www.assero.co.uk/BusinessDomain#ordinal> "3"^^<http://www.w3.org/2001/XMLSchema#integer> .
<http://www.assero.co.uk/MDRSdtmM/CDISC/V3#M-CDISC_SDTMMODEL_USUBJID> <http://www.assero.co.uk/BusinessDomain#name> "USUBJID" .
<http://www.assero.co.uk/MDRSdtmM/CDISC/V3#M-CDISC_SDTMMODEL_USUBJID> <http://www.assero.co.uk/BusinessDomain#prefixed> "false"^^<http://www.w3.org/2001/XMLSchema#boolean> .
<http://www.assero.co.uk/MDRSdtmM/CDISC/V3#M-CDISC_SDTMMODEL_USUBJID> <http://www.assero.co.uk/BusinessDomain#description> "Identifier used to uniquely identify a subject across all studies for all applications or submissions involving the product." .
<http://www.assero.co.uk/MDRSdtmM/CDISC/V3#M-CDISC_SDTMMODEL_POOLID> <http://www.w3.org/1999/02/22-rdf-syntax-ns#type> <http://www.assero.co.uk/BusinessDomain#ModelVariable> .
<http://www.assero.co.uk/MDRSdtmM/CDISC/V3#M-CDISC_SDTMMODEL_POOLID> <http://www.w3.org/2000/01/rdf-schema#label> "Pool Identifier" .
<http://www.assero.co.uk/MDRSdtmM/CDISC/V3#M-CDISC_SDTMMODEL_POOLID> <http://www.assero.co.uk/BusinessDomain#classifiedAs> <http://www.assero.co.uk/MDRSdtmM/CDISC/V3#M-CDISC_SDTMMODEL_C_IDENTIFIER> .
<http://www.assero.co.uk/MDRSdtmM/CDISC/V3#M-CDISC_SDTMMODEL_POOLID> <http://www.assero.co.uk/BusinessDomain#typedAs> <http://www.assero.co.uk/MDRSdtmM/CDISC/V3#M-CDISC_SDTMMODEL_DT_CHAR> .
<http://www.assero.co.uk/MDRSdtmM/CDISC/V3#M-CDISC_SDTMMODEL_POOLID> <http://www.assero.co.uk/BusinessDomain#rule> "" .
<http://www.assero.co.uk/MDRSdtmM/CDISC/V3#M-CDISC_SDTMMODEL_POOLID> <http://www.assero.co.uk/BusinessDomain#ordinal> "4"^^<http://www.w3.org/2001/XMLSchema#integer> .
<http://www.assero.co.uk/MDRSdtmM/CDISC/V3#M-CDISC_SDTMMODEL_POOLID> <http://www.assero.co.uk/BusinessDomain#name> "POOLID" .
<http://www.assero.co.uk/MDRSdtmM/CDISC/V3#M-CDISC_SDTMMODEL_POOLID> <http://www.assero.co.uk/BusinessDomain#prefixed> "false"^^<http://www.w3.org/2001/XMLSchema#boolean> .
<http://www.assero.co.uk/MDRSdtmM/CDISC/V3#M-CDISC_SDTMMODEL_POOLID> <http://www.assero.co.uk/BusinessDomain#description> "An identifier used to identify a result from a group of subjects that is not assignable to a specific subject." .
<http://www.assero.co.uk/MDRSdtmM/CDISC/V3#M-CDISC_SDTMMODEL_SPDEVID> <http://www.w3.org/1999/02/22-rdf-syntax-ns#type> <http://www.assero.co.uk/BusinessDomain#ModelVariable> .
<http://www.assero.co.uk/MDRSdtmM/CDISC/V3#M-CDISC_SDTMMODEL_SPDEVID> <http://www.w3.org/2000/01/rdf-schema#label> "Sponsor Device Identifier" .
<http://www.assero.co.uk/MDRSdtmM/CDISC/V3#M-CDISC_SDTMMODEL_SPDEVID> <http://www.assero.co.uk/BusinessDomain#classifiedAs> <http://www.assero.co.uk/MDRSdtmM/CDISC/V3#M-CDISC_SDTMMODEL_C_IDENTIFIER> .
<http://www.assero.co.uk/MDRSdtmM/CDISC/V3#M-CDISC_SDTMMODEL_SPDEVID> <http://www.assero.co.uk/BusinessDomain#typedAs> <http://www.assero.co.uk/MDRSdtmM/CDISC/V3#M-CDISC_SDTMMODEL_DT_CHAR> .
<http://www.assero.co.uk/MDRSdtmM/CDISC/V3#M-CDISC_SDTMMODEL_SPDEVID> <http://www.assero.co.uk/BusinessDomain#rule> "" .
<http://www.assero.co.uk/MDRSdtmM/CDISC/V3#M-CDISC_SDTMMODEL_SPDEVID> <http://www.assero.co.uk/BusinessDomain#ordinal> "5"^^<http://www.w3.org/2001/XMLSchema#integer> .
<http://www.assero.co.uk/MDRSdtmM/CDISC/V3#M-CDISC_SDTMMODEL_SPDEVID> <http://www.assero.co.uk/BusinessDomain#name> "SPDEVID" .
<http://www.assero.co.uk/MDRSdtmM/CDISC/V3#M-CDISC_SDTMMODEL_SPDEVID> <http://www.assero.co.uk/BusinessDomain#prefixed> "false"^^<http://www.w3.org/2001/XMLSchema#boolean> .
<http://www.assero.co.uk/MDRSdtmM/CDISC/V3#M-CDISC_SDTMMODEL_SPDEVID> <http://www.assero.co.uk/BusinessDomain#description> "Sponsor-defined identifier for a device" .
<http://www.assero.co.uk/MDRSdtmM/CDISC/V3#M-CDISC_SDTMMODEL_xxSEQ> <http://www.w3.org/1999/02/22-rdf-syntax-ns#type> <http://www.assero.co.uk/BusinessDomain#ModelVariable> .
<http://www.assero.co.uk/MDRSdtmM/CDISC/V3#M-CDISC_SDTMMODEL_xxSEQ> <http://www.w3.org/2000/01/rdf-schema#label> "Sequence Number" .
<http://www.assero.co.uk/MDRSdtmM/CDISC/V3#M-CDISC_SDTMMODEL_xxSEQ> <http://www.assero.co.uk/BusinessDomain#classifiedAs> <http://www.assero.co.uk/MDRSdtmM/CDISC/V3#M-CDISC_SDTMMODEL_C_IDENTIFIER> .
<http://www.assero.co.uk/MDRSdtmM/CDISC/V3#M-CDISC_SDTMMODEL_xxSEQ> <http://www.assero.co.uk/BusinessDomain#typedAs> <http://www.assero.co.uk/MDRSdtmM/CDISC/V3#M-CDISC_SDTMMODEL_DT_NUM> .
<http://www.assero.co.uk/MDRSdtmM/CDISC/V3#M-CDISC_SDTMMODEL_xxSEQ> <http://www.assero.co.uk/BusinessDomain#rule> "" .
<http://www.assero.co.uk/MDRSdtmM/CDISC/V3#M-CDISC_SDTMMODEL_xxSEQ> <http://www.assero.co.uk/BusinessDomain#ordinal> "6"^^<http://www.w3.org/2001/XMLSchema#integer> .
<http://www.assero.co.uk/MDRSdtmM/CDISC/V3#M-CDISC_SDTMMODEL_xxSEQ> <http://www.assero.co.uk/BusinessDomain#name> "--SEQ" .
<http://www.assero.co.uk/MDRSdtmM/CDISC/V3#M-CDISC_SDTMMODEL_xxSEQ> <http://www.assero.co.uk/BusinessDomain#prefixed> "true"^^<http://www.w3.org/2001/XMLSchema#boolean> .
<http://www.assero.co.uk/MDRSdtmM/CDISC/V3#M-CDISC_SDTMMODEL_xxSEQ> <http://www.assero.co.uk/BusinessDomain#description> "Sequence number to ensure uniqueness of records within a dataset for a subject (or within a parameter, in the case of the Trial Summary domain). May be any valid number (including decimals) and does not have to start at 1." .
<http://www.assero.co.uk/MDRSdtmM/CDISC/V3#M-CDISC_SDTMMODEL_DT_NUM> <http://www.w3.org/1999/02/22-rdf-syntax-ns#type> <http://www.assero.co.uk/BusinessDomain#VariableType> .
<http://www.assero.co.uk/MDRSdtmM/CDISC/V3#M-CDISC_SDTMMODEL_DT_NUM> <http://www.w3.org/2000/01/rdf-schema#label> "Num" .
<http://www.assero.co.uk/MDRSdtmM/CDISC/V3#M-CDISC_SDTMMODEL_xxGRPID> <http://www.w3.org/1999/02/22-rdf-syntax-ns#type> <http://www.assero.co.uk/BusinessDomain#ModelVariable> .
<http://www.assero.co.uk/MDRSdtmM/CDISC/V3#M-CDISC_SDTMMODEL_xxGRPID> <http://www.w3.org/2000/01/rdf-schema#label> "Group ID" .
<http://www.assero.co.uk/MDRSdtmM/CDISC/V3#M-CDISC_SDTMMODEL_xxGRPID> <http://www.assero.co.uk/BusinessDomain#classifiedAs> <http://www.assero.co.uk/MDRSdtmM/CDISC/V3#M-CDISC_SDTMMODEL_C_IDENTIFIER> .
<http://www.assero.co.uk/MDRSdtmM/CDISC/V3#M-CDISC_SDTMMODEL_xxGRPID> <http://www.assero.co.uk/BusinessDomain#typedAs> <http://www.assero.co.uk/MDRSdtmM/CDISC/V3#M-CDISC_SDTMMODEL_DT_CHAR> .
<http://www.assero.co.uk/MDRSdtmM/CDISC/V3#M-CDISC_SDTMMODEL_xxGRPID> <http://www.assero.co.uk/BusinessDomain#rule> "" .
<http://www.assero.co.uk/MDRSdtmM/CDISC/V3#M-CDISC_SDTMMODEL_xxGRPID> <http://www.assero.co.uk/BusinessDomain#ordinal> "7"^^<http://www.w3.org/2001/XMLSchema#integer> .
<http://www.assero.co.uk/MDRSdtmM/CDISC/V3#M-CDISC_SDTMMODEL_xxGRPID> <http://www.assero.co.uk/BusinessDomain#name> "--GRPID" .
<http://www.assero.co.uk/MDRSdtmM/CDISC/V3#M-CDISC_SDTMMODEL_xxGRPID> <http://www.assero.co.uk/BusinessDomain#prefixed> "true"^^<http://www.w3.org/2001/XMLSchema#boolean> .
<http://www.assero.co.uk/MDRSdtmM/CDISC/V3#M-CDISC_SDTMMODEL_xxGRPID> <http://www.assero.co.uk/BusinessDomain#description> "Optional group identifier, used to link together a block of related records within a subject in a domain. Also used to link together a block of related records in the Trial Summary dataset (Section 3.4)." .
<http://www.assero.co.uk/MDRSdtmM/CDISC/V3#M-CDISC_SDTMMODEL_xxREFID> <http://www.w3.org/1999/02/22-rdf-syntax-ns#type> <http://www.assero.co.uk/BusinessDomain#ModelVariable> .
<http://www.assero.co.uk/MDRSdtmM/CDISC/V3#M-CDISC_SDTMMODEL_xxREFID> <http://www.w3.org/2000/01/rdf-schema#label> "Reference ID" .
<http://www.assero.co.uk/MDRSdtmM/CDISC/V3#M-CDISC_SDTMMODEL_xxREFID> <http://www.assero.co.uk/BusinessDomain#classifiedAs> <http://www.assero.co.uk/MDRSdtmM/CDISC/V3#M-CDISC_SDTMMODEL_C_IDENTIFIER> .
<http://www.assero.co.uk/MDRSdtmM/CDISC/V3#M-CDISC_SDTMMODEL_xxREFID> <http://www.assero.co.uk/BusinessDomain#typedAs> <http://www.assero.co.uk/MDRSdtmM/CDISC/V3#M-CDISC_SDTMMODEL_DT_CHAR> .
<http://www.assero.co.uk/MDRSdtmM/CDISC/V3#M-CDISC_SDTMMODEL_xxREFID> <http://www.assero.co.uk/BusinessDomain#rule> "" .
<http://www.assero.co.uk/MDRSdtmM/CDISC/V3#M-CDISC_SDTMMODEL_xxREFID> <http://www.assero.co.uk/BusinessDomain#ordinal> "8"^^<http://www.w3.org/2001/XMLSchema#integer> .
<http://www.assero.co.uk/MDRSdtmM/CDISC/V3#M-CDISC_SDTMMODEL_xxREFID> <http://www.assero.co.uk/BusinessDomain#name> "--REFID" .
<http://www.assero.co.uk/MDRSdtmM/CDISC/V3#M-CDISC_SDTMMODEL_xxREFID> <http://www.assero.co.uk/BusinessDomain#prefixed> "true"^^<http://www.w3.org/2001/XMLSchema#boolean> .
<http://www.assero.co.uk/MDRSdtmM/CDISC/V3#M-CDISC_SDTMMODEL_xxREFID> <http://www.assero.co.uk/BusinessDomain#description> "Optional internal or external identifier such as lab specimen ID, or UUID for an ECG waveform or a medical image." .
<http://www.assero.co.uk/MDRSdtmM/CDISC/V3#M-CDISC_SDTMMODEL_xxSPID> <http://www.w3.org/1999/02/22-rdf-syntax-ns#type> <http://www.assero.co.uk/BusinessDomain#ModelVariable> .
<http://www.assero.co.uk/MDRSdtmM/CDISC/V3#M-CDISC_SDTMMODEL_xxSPID> <http://www.w3.org/2000/01/rdf-schema#label> "Sponsor-Defined Identifier" .
<http://www.assero.co.uk/MDRSdtmM/CDISC/V3#M-CDISC_SDTMMODEL_xxSPID> <http://www.assero.co.uk/BusinessDomain#classifiedAs> <http://www.assero.co.uk/MDRSdtmM/CDISC/V3#M-CDISC_SDTMMODEL_C_IDENTIFIER> .
<http://www.assero.co.uk/MDRSdtmM/CDISC/V3#M-CDISC_SDTMMODEL_xxSPID> <http://www.assero.co.uk/BusinessDomain#typedAs> <http://www.assero.co.uk/MDRSdtmM/CDISC/V3#M-CDISC_SDTMMODEL_DT_CHAR> .
<http://www.assero.co.uk/MDRSdtmM/CDISC/V3#M-CDISC_SDTMMODEL_xxSPID> <http://www.assero.co.uk/BusinessDomain#rule> "" .
<http://www.assero.co.uk/MDRSdtmM/CDISC/V3#M-CDISC_SDTMMODEL_xxSPID> <http://www.assero.co.uk/BusinessDomain#ordinal> "9"^^<http://www.w3.org/2001/XMLSchema#integer> .
<http://www.assero.co.uk/MDRSdtmM/CDISC/V3#M-CDISC_SDTMMODEL_xxSPID> <http://www.assero.co.uk/BusinessDomain#name> "--SPID" .
<http://www.assero.co.uk/MDRSdtmM/CDISC/V3#M-CDISC_SDTMMODEL_xxSPID> <http://www.assero.co.uk/BusinessDomain#prefixed> "true"^^<http://www.w3.org/2001/XMLSchema#boolean> .
<http://www.assero.co.uk/MDRSdtmM/CDISC/V3#M-CDISC_SDTMMODEL_xxSPID> <http://www.assero.co.uk/BusinessDomain#description> "Sponsor-defined identifier. Example: pre-printed line identifier on a Concomitant Medications page." .
<http://www.assero.co.uk/MDRSdtmM/CDISC/V3#M-CDISC_SDTMMODEL_xxLNKID> <http://www.w3.org/1999/02/22-rdf-syntax-ns#type> <http://www.assero.co.uk/BusinessDomain#ModelVariable> .
<http://www.assero.co.uk/MDRSdtmM/CDISC/V3#M-CDISC_SDTMMODEL_xxLNKID> <http://www.w3.org/2000/01/rdf-schema#label> "Link ID" .
<http://www.assero.co.uk/MDRSdtmM/CDISC/V3#M-CDISC_SDTMMODEL_xxLNKID> <http://www.assero.co.uk/BusinessDomain#classifiedAs> <http://www.assero.co.uk/MDRSdtmM/CDISC/V3#M-CDISC_SDTMMODEL_C_IDENTIFIER> .
<http://www.assero.co.uk/MDRSdtmM/CDISC/V3#M-CDISC_SDTMMODEL_xxLNKID> <http://www.assero.co.uk/BusinessDomain#typedAs> <http://www.assero.co.uk/MDRSdtmM/CDISC/V3#M-CDISC_SDTMMODEL_DT_CHAR> .
<http://www.assero.co.uk/MDRSdtmM/CDISC/V3#M-CDISC_SDTMMODEL_xxLNKID> <http://www.assero.co.uk/BusinessDomain#rule> "" .
<http://www.assero.co.uk/MDRSdtmM/CDISC/V3#M-CDISC_SDTMMODEL_xxLNKID> <http://www.assero.co.uk/BusinessDomain#ordinal> "10"^^<http://www.w3.org/2001/XMLSchema#integer> .
<http://www.assero.co.uk/MDRSdtmM/CDISC/V3#M-CDISC_SDTMMODEL_xxLNKID> <http://www.assero.co.uk/BusinessDomain#name> "--LNKID" .
<http://www.assero.co.uk/MDRSdtmM/CDISC/V3#M-CDISC_SDTMMODEL_xxLNKID> <http://www.assero.co.uk/BusinessDomain#prefixed> "true"^^<http://www.w3.org/2001/XMLSchema#boolean> .
<http://www.assero.co.uk/MDRSdtmM/CDISC/V3#M-CDISC_SDTMMODEL_xxLNKID> <http://www.assero.co.uk/BusinessDomain#description> "Identifier used to link related records across domains. This may be a one-to-one or a one-to-many relationship. For Example: A single tumor may have multiple measurements/assessments performed at each study visit." .
<http://www.assero.co.uk/MDRSdtmM/CDISC/V3#M-CDISC_SDTMMODEL_xxLNKGRP> <http://www.w3.org/1999/02/22-rdf-syntax-ns#type> <http://www.assero.co.uk/BusinessDomain#ModelVariable> .
<http://www.assero.co.uk/MDRSdtmM/CDISC/V3#M-CDISC_SDTMMODEL_xxLNKGRP> <http://www.w3.org/2000/01/rdf-schema#label> "Link Group ID" .
<http://www.assero.co.uk/MDRSdtmM/CDISC/V3#M-CDISC_SDTMMODEL_xxLNKGRP> <http://www.assero.co.uk/BusinessDomain#classifiedAs> <http://www.assero.co.uk/MDRSdtmM/CDISC/V3#M-CDISC_SDTMMODEL_C_IDENTIFIER> .
<http://www.assero.co.uk/MDRSdtmM/CDISC/V3#M-CDISC_SDTMMODEL_xxLNKGRP> <http://www.assero.co.uk/BusinessDomain#typedAs> <http://www.assero.co.uk/MDRSdtmM/CDISC/V3#M-CDISC_SDTMMODEL_DT_CHAR> .
<http://www.assero.co.uk/MDRSdtmM/CDISC/V3#M-CDISC_SDTMMODEL_xxLNKGRP> <http://www.assero.co.uk/BusinessDomain#rule> "" .
<http://www.assero.co.uk/MDRSdtmM/CDISC/V3#M-CDISC_SDTMMODEL_xxLNKGRP> <http://www.assero.co.uk/BusinessDomain#ordinal> "11"^^<http://www.w3.org/2001/XMLSchema#integer> .
<http://www.assero.co.uk/MDRSdtmM/CDISC/V3#M-CDISC_SDTMMODEL_xxLNKGRP> <http://www.assero.co.uk/BusinessDomain#name> "--LNKGRP" .
<http://www.assero.co.uk/MDRSdtmM/CDISC/V3#M-CDISC_SDTMMODEL_xxLNKGRP> <http://www.assero.co.uk/BusinessDomain#prefixed> "true"^^<http://www.w3.org/2001/XMLSchema#boolean> .
<http://www.assero.co.uk/MDRSdtmM/CDISC/V3#M-CDISC_SDTMMODEL_xxLNKGRP> <http://www.assero.co.uk/BusinessDomain#description> "Identifier used to link related records across domains. This will usually be a many-to-one relationship. For example: Multiple tumor measurements/assessments will contribute to a single response to therapy determination record." .
<http://www.assero.co.uk/MDRSdtmM/CDISC/V3#M-CDISC_SDTMMODEL_VISITNUM> <http://www.w3.org/1999/02/22-rdf-syntax-ns#type> <http://www.assero.co.uk/BusinessDomain#ModelVariable> .
<http://www.assero.co.uk/MDRSdtmM/CDISC/V3#M-CDISC_SDTMMODEL_VISITNUM> <http://www.w3.org/2000/01/rdf-schema#label> "Visit Number" .
<http://www.assero.co.uk/MDRSdtmM/CDISC/V3#M-CDISC_SDTMMODEL_VISITNUM> <http://www.assero.co.uk/BusinessDomain#classifiedAs> <http://www.assero.co.uk/MDRSdtmM/CDISC/V3#M-CDISC_SDTMMODEL_C_TIMING> .
<http://www.assero.co.uk/MDRSdtmM/CDISC/V3#M-CDISC_SDTMMODEL_VISITNUM> <http://www.assero.co.uk/BusinessDomain#typedAs> <http://www.assero.co.uk/MDRSdtmM/CDISC/V3#M-CDISC_SDTMMODEL_DT_NUM> .
<http://www.assero.co.uk/MDRSdtmM/CDISC/V3#M-CDISC_SDTMMODEL_VISITNUM> <http://www.assero.co.uk/BusinessDomain#rule> "" .
<http://www.assero.co.uk/MDRSdtmM/CDISC/V3#M-CDISC_SDTMMODEL_VISITNUM> <http://www.assero.co.uk/BusinessDomain#ordinal> "12"^^<http://www.w3.org/2001/XMLSchema#integer> .
<http://www.assero.co.uk/MDRSdtmM/CDISC/V3#M-CDISC_SDTMMODEL_VISITNUM> <http://www.assero.co.uk/BusinessDomain#name> "VISITNUM" .
<http://www.assero.co.uk/MDRSdtmM/CDISC/V3#M-CDISC_SDTMMODEL_VISITNUM> <http://www.assero.co.uk/BusinessDomain#prefixed> "false"^^<http://www.w3.org/2001/XMLSchema#boolean> .
<http://www.assero.co.uk/MDRSdtmM/CDISC/V3#M-CDISC_SDTMMODEL_VISITNUM> <http://www.assero.co.uk/BusinessDomain#description> "Clinical encounter number. Numeric version of VISIT, used for sorting." .
<http://www.assero.co.uk/MDRSdtmM/CDISC/V3#M-CDISC_SDTMMODEL_C_TIMING> <http://www.w3.org/1999/02/22-rdf-syntax-ns#type> <http://www.assero.co.uk/BusinessDomain#VariableClassification> .
<http://www.assero.co.uk/MDRSdtmM/CDISC/V3#M-CDISC_SDTMMODEL_C_TIMING> <http://www.w3.org/2000/01/rdf-schema#label> "Timing" .
<http://www.assero.co.uk/MDRSdtmM/CDISC/V3#M-CDISC_SDTMMODEL_VISIT> <http://www.w3.org/1999/02/22-rdf-syntax-ns#type> <http://www.assero.co.uk/BusinessDomain#ModelVariable> .
<http://www.assero.co.uk/MDRSdtmM/CDISC/V3#M-CDISC_SDTMMODEL_VISIT> <http://www.w3.org/2000/01/rdf-schema#label> "Visit Name" .
<http://www.assero.co.uk/MDRSdtmM/CDISC/V3#M-CDISC_SDTMMODEL_VISIT> <http://www.assero.co.uk/BusinessDomain#classifiedAs> <http://www.assero.co.uk/MDRSdtmM/CDISC/V3#M-CDISC_SDTMMODEL_C_TIMING> .
<http://www.assero.co.uk/MDRSdtmM/CDISC/V3#M-CDISC_SDTMMODEL_VISIT> <http://www.assero.co.uk/BusinessDomain#typedAs> <http://www.assero.co.uk/MDRSdtmM/CDISC/V3#M-CDISC_SDTMMODEL_DT_CHAR> .
<http://www.assero.co.uk/MDRSdtmM/CDISC/V3#M-CDISC_SDTMMODEL_VISIT> <http://www.assero.co.uk/BusinessDomain#rule> "" .
<http://www.assero.co.uk/MDRSdtmM/CDISC/V3#M-CDISC_SDTMMODEL_VISIT> <http://www.assero.co.uk/BusinessDomain#ordinal> "13"^^<http://www.w3.org/2001/XMLSchema#integer> .
<http://www.assero.co.uk/MDRSdtmM/CDISC/V3#M-CDISC_SDTMMODEL_VISIT> <http://www.assero.co.uk/BusinessDomain#name> "VISIT" .
<http://www.assero.co.uk/MDRSdtmM/CDISC/V3#M-CDISC_SDTMMODEL_VISIT> <http://www.assero.co.uk/BusinessDomain#prefixed> "false"^^<http://www.w3.org/2001/XMLSchema#boolean> .
<http://www.assero.co.uk/MDRSdtmM/CDISC/V3#M-CDISC_SDTMMODEL_VISIT> <http://www.assero.co.uk/BusinessDomain#description> "Protocol-defined description of a clinical encounter." .
<http://www.assero.co.uk/MDRSdtmM/CDISC/V3#M-CDISC_SDTMMODEL_VISITDY> <http://www.w3.org/1999/02/22-rdf-syntax-ns#type> <http://www.assero.co.uk/BusinessDomain#ModelVariable> .
<http://www.assero.co.uk/MDRSdtmM/CDISC/V3#M-CDISC_SDTMMODEL_VISITDY> <http://www.w3.org/2000/01/rdf-schema#label> "Planned Study Day of Visit" .
<http://www.assero.co.uk/MDRSdtmM/CDISC/V3#M-CDISC_SDTMMODEL_VISITDY> <http://www.assero.co.uk/BusinessDomain#classifiedAs> <http://www.assero.co.uk/MDRSdtmM/CDISC/V3#M-CDISC_SDTMMODEL_C_TIMING> .
<http://www.assero.co.uk/MDRSdtmM/CDISC/V3#M-CDISC_SDTMMODEL_VISITDY> <http://www.assero.co.uk/BusinessDomain#typedAs> <http://www.assero.co.uk/MDRSdtmM/CDISC/V3#M-CDISC_SDTMMODEL_DT_NUM> .
<http://www.assero.co.uk/MDRSdtmM/CDISC/V3#M-CDISC_SDTMMODEL_VISITDY> <http://www.assero.co.uk/BusinessDomain#rule> "" .
<http://www.assero.co.uk/MDRSdtmM/CDISC/V3#M-CDISC_SDTMMODEL_VISITDY> <http://www.assero.co.uk/BusinessDomain#ordinal> "14"^^<http://www.w3.org/2001/XMLSchema#integer> .
<http://www.assero.co.uk/MDRSdtmM/CDISC/V3#M-CDISC_SDTMMODEL_VISITDY> <http://www.assero.co.uk/BusinessDomain#name> "VISITDY" .
<http://www.assero.co.uk/MDRSdtmM/CDISC/V3#M-CDISC_SDTMMODEL_VISITDY> <http://www.assero.co.uk/BusinessDomain#prefixed> "false"^^<http://www.w3.org/2001/XMLSchema#boolean> .
<http://www.assero.co.uk/MDRSdtmM/CDISC/V3#M-CDISC_SDTMMODEL_VISITDY> <http://www.assero.co.uk/BusinessDomain#description> "Planned study day of VISIT. Should be an integer." .
<http://www.assero.co.uk/MDRSdtmM/CDISC/V3#M-CDISC_SDTMMODEL_TAETORD> <http://www.w3.org/1999/02/22-rdf-syntax-ns#type> <http://www.assero.co.uk/BusinessDomain#ModelVariable> .
<http://www.assero.co.uk/MDRSdtmM/CDISC/V3#M-CDISC_SDTMMODEL_TAETORD> <http://www.w3.org/2000/01/rdf-schema#label> "Planned Order of Element within Arm" .
<http://www.assero.co.uk/MDRSdtmM/CDISC/V3#M-CDISC_SDTMMODEL_TAETORD> <http://www.assero.co.uk/BusinessDomain#classifiedAs> <http://www.assero.co.uk/MDRSdtmM/CDISC/V3#M-CDISC_SDTMMODEL_C_TIMING> .
<http://www.assero.co.uk/MDRSdtmM/CDISC/V3#M-CDISC_SDTMMODEL_TAETORD> <http://www.assero.co.uk/BusinessDomain#typedAs> <http://www.assero.co.uk/MDRSdtmM/CDISC/V3#M-CDISC_SDTMMODEL_DT_NUM> .
<http://www.assero.co.uk/MDRSdtmM/CDISC/V3#M-CDISC_SDTMMODEL_TAETORD> <http://www.assero.co.uk/BusinessDomain#rule> "" .
<http://www.assero.co.uk/MDRSdtmM/CDISC/V3#M-CDISC_SDTMMODEL_TAETORD> <http://www.assero.co.uk/BusinessDomain#ordinal> "15"^^<http://www.w3.org/2001/XMLSchema#integer> .
<http://www.assero.co.uk/MDRSdtmM/CDISC/V3#M-CDISC_SDTMMODEL_TAETORD> <http://www.assero.co.uk/BusinessDomain#name> "TAETORD" .
<http://www.assero.co.uk/MDRSdtmM/CDISC/V3#M-CDISC_SDTMMODEL_TAETORD> <http://www.assero.co.uk/BusinessDomain#prefixed> "false"^^<http://www.w3.org/2001/XMLSchema#boolean> .
<http://www.assero.co.uk/MDRSdtmM/CDISC/V3#M-CDISC_SDTMMODEL_TAETORD> <http://www.assero.co.uk/BusinessDomain#description> "Number that gives the planned order of the Element within the Arm (see Trial Arms, Section 3.2.2 )." .
<http://www.assero.co.uk/MDRSdtmM/CDISC/V3#M-CDISC_SDTMMODEL_EPOCH> <http://www.w3.org/1999/02/22-rdf-syntax-ns#type> <http://www.assero.co.uk/BusinessDomain#ModelVariable> .
<http://www.assero.co.uk/MDRSdtmM/CDISC/V3#M-CDISC_SDTMMODEL_EPOCH> <http://www.w3.org/2000/01/rdf-schema#label> "Epoch" .
<http://www.assero.co.uk/MDRSdtmM/CDISC/V3#M-CDISC_SDTMMODEL_EPOCH> <http://www.assero.co.uk/BusinessDomain#classifiedAs> <http://www.assero.co.uk/MDRSdtmM/CDISC/V3#M-CDISC_SDTMMODEL_C_TIMING> .
<http://www.assero.co.uk/MDRSdtmM/CDISC/V3#M-CDISC_SDTMMODEL_EPOCH> <http://www.assero.co.uk/BusinessDomain#typedAs> <http://www.assero.co.uk/MDRSdtmM/CDISC/V3#M-CDISC_SDTMMODEL_DT_CHAR> .
<http://www.assero.co.uk/MDRSdtmM/CDISC/V3#M-CDISC_SDTMMODEL_EPOCH> <http://www.assero.co.uk/BusinessDomain#rule> "" .
<http://www.assero.co.uk/MDRSdtmM/CDISC/V3#M-CDISC_SDTMMODEL_EPOCH> <http://www.assero.co.uk/BusinessDomain#ordinal> "16"^^<http://www.w3.org/2001/XMLSchema#integer> .
<http://www.assero.co.uk/MDRSdtmM/CDISC/V3#M-CDISC_SDTMMODEL_EPOCH> <http://www.assero.co.uk/BusinessDomain#name> "EPOCH" .
<http://www.assero.co.uk/MDRSdtmM/CDISC/V3#M-CDISC_SDTMMODEL_EPOCH> <http://www.assero.co.uk/BusinessDomain#prefixed> "false"^^<http://www.w3.org/2001/XMLSchema#boolean> .
<http://www.assero.co.uk/MDRSdtmM/CDISC/V3#M-CDISC_SDTMMODEL_EPOCH> <http://www.assero.co.uk/BusinessDomain#description> "Epoch associated with the start date/time of the observation, or the date/time of collection if start date/time is not collected. (See Section 3.2.2)." .
<http://www.assero.co.uk/MDRSdtmM/CDISC/V3#M-CDISC_SDTMMODEL_xxDTC> <http://www.w3.org/1999/02/22-rdf-syntax-ns#type> <http://www.assero.co.uk/BusinessDomain#ModelVariable> .
<http://www.assero.co.uk/MDRSdtmM/CDISC/V3#M-CDISC_SDTMMODEL_xxDTC> <http://www.w3.org/2000/01/rdf-schema#label> "Date/Time of Collection" .
<http://www.assero.co.uk/MDRSdtmM/CDISC/V3#M-CDISC_SDTMMODEL_xxDTC> <http://www.assero.co.uk/BusinessDomain#classifiedAs> <http://www.assero.co.uk/MDRSdtmM/CDISC/V3#M-CDISC_SDTMMODEL_C_TIMING> .
<http://www.assero.co.uk/MDRSdtmM/CDISC/V3#M-CDISC_SDTMMODEL_xxDTC> <http://www.assero.co.uk/BusinessDomain#typedAs> <http://www.assero.co.uk/MDRSdtmM/CDISC/V3#M-CDISC_SDTMMODEL_DT_CHAR> .
<http://www.assero.co.uk/MDRSdtmM/CDISC/V3#M-CDISC_SDTMMODEL_xxDTC> <http://www.assero.co.uk/BusinessDomain#rule> "" .
<http://www.assero.co.uk/MDRSdtmM/CDISC/V3#M-CDISC_SDTMMODEL_xxDTC> <http://www.assero.co.uk/BusinessDomain#ordinal> "17"^^<http://www.w3.org/2001/XMLSchema#integer> .
<http://www.assero.co.uk/MDRSdtmM/CDISC/V3#M-CDISC_SDTMMODEL_xxDTC> <http://www.assero.co.uk/BusinessDomain#name> "--DTC" .
<http://www.assero.co.uk/MDRSdtmM/CDISC/V3#M-CDISC_SDTMMODEL_xxDTC> <http://www.assero.co.uk/BusinessDomain#prefixed> "true"^^<http://www.w3.org/2001/XMLSchema#boolean> .
<http://www.assero.co.uk/MDRSdtmM/CDISC/V3#M-CDISC_SDTMMODEL_xxDTC> <http://www.assero.co.uk/BusinessDomain#description> "Collection date and time of an observation represented in IS0 8601 character format." .
<http://www.assero.co.uk/MDRSdtmM/CDISC/V3#M-CDISC_SDTMMODEL_xxSTDTC> <http://www.w3.org/1999/02/22-rdf-syntax-ns#type> <http://www.assero.co.uk/BusinessDomain#ModelVariable> .
<http://www.assero.co.uk/MDRSdtmM/CDISC/V3#M-CDISC_SDTMMODEL_xxSTDTC> <http://www.w3.org/2000/01/rdf-schema#label> "Start Date/Time of Observation" .
<http://www.assero.co.uk/MDRSdtmM/CDISC/V3#M-CDISC_SDTMMODEL_xxSTDTC> <http://www.assero.co.uk/BusinessDomain#classifiedAs> <http://www.assero.co.uk/MDRSdtmM/CDISC/V3#M-CDISC_SDTMMODEL_C_TIMING> .
<http://www.assero.co.uk/MDRSdtmM/CDISC/V3#M-CDISC_SDTMMODEL_xxSTDTC> <http://www.assero.co.uk/BusinessDomain#typedAs> <http://www.assero.co.uk/MDRSdtmM/CDISC/V3#M-CDISC_SDTMMODEL_DT_CHAR> .
<http://www.assero.co.uk/MDRSdtmM/CDISC/V3#M-CDISC_SDTMMODEL_xxSTDTC> <http://www.assero.co.uk/BusinessDomain#rule> "" .
<http://www.assero.co.uk/MDRSdtmM/CDISC/V3#M-CDISC_SDTMMODEL_xxSTDTC> <http://www.assero.co.uk/BusinessDomain#ordinal> "18"^^<http://www.w3.org/2001/XMLSchema#integer> .
<http://www.assero.co.uk/MDRSdtmM/CDISC/V3#M-CDISC_SDTMMODEL_xxSTDTC> <http://www.assero.co.uk/BusinessDomain#name> "--STDTC" .
<http://www.assero.co.uk/MDRSdtmM/CDISC/V3#M-CDISC_SDTMMODEL_xxSTDTC> <http://www.assero.co.uk/BusinessDomain#prefixed> "true"^^<http://www.w3.org/2001/XMLSchema#boolean> .
<http://www.assero.co.uk/MDRSdtmM/CDISC/V3#M-CDISC_SDTMMODEL_xxSTDTC> <http://www.assero.co.uk/BusinessDomain#description> "Start date/time of an observation represented in IS0 8601 character format." .
<http://www.assero.co.uk/MDRSdtmM/CDISC/V3#M-CDISC_SDTMMODEL_xxENDTC> <http://www.w3.org/1999/02/22-rdf-syntax-ns#type> <http://www.assero.co.uk/BusinessDomain#ModelVariable> .
<http://www.assero.co.uk/MDRSdtmM/CDISC/V3#M-CDISC_SDTMMODEL_xxENDTC> <http://www.w3.org/2000/01/rdf-schema#label> "End Date/Time of Observation" .
<http://www.assero.co.uk/MDRSdtmM/CDISC/V3#M-CDISC_SDTMMODEL_xxENDTC> <http://www.assero.co.uk/BusinessDomain#classifiedAs> <http://www.assero.co.uk/MDRSdtmM/CDISC/V3#M-CDISC_SDTMMODEL_C_TIMING> .
<http://www.assero.co.uk/MDRSdtmM/CDISC/V3#M-CDISC_SDTMMODEL_xxENDTC> <http://www.assero.co.uk/BusinessDomain#typedAs> <http://www.assero.co.uk/MDRSdtmM/CDISC/V3#M-CDISC_SDTMMODEL_DT_CHAR> .
<http://www.assero.co.uk/MDRSdtmM/CDISC/V3#M-CDISC_SDTMMODEL_xxENDTC> <http://www.assero.co.uk/BusinessDomain#rule> "" .
<http://www.assero.co.uk/MDRSdtmM/CDISC/V3#M-CDISC_SDTMMODEL_xxENDTC> <http://www.assero.co.uk/BusinessDomain#ordinal> "19"^^<http://www.w3.org/2001/XMLSchema#integer> .
<http://www.assero.co.uk/MDRSdtmM/CDISC/V3#M-CDISC_SDTMMODEL_xxENDTC> <http://www.assero.co.uk/BusinessDomain#name> "--ENDTC" .
<http://www.assero.co.uk/MDRSdtmM/CDISC/V3#M-CDISC_SDTMMODEL_xxENDTC> <http://www.assero.co.uk/BusinessDomain#prefixed> "true"^^<http://www.w3.org/2001/XMLSchema#boolean> .
<http://www.assero.co.uk/MDRSdtmM/CDISC/V3#M-CDISC_SDTMMODEL_xxENDTC> <http://www.assero.co.uk/BusinessDomain#description> "End date/time of the observation represented in IS0 8601 character format." .
<http://www.assero.co.uk/MDRSdtmM/CDISC/V3#M-CDISC_SDTMMODEL_xxDY> <http://www.w3.org/1999/02/22-rdf-syntax-ns#type> <http://www.assero.co.uk/BusinessDomain#ModelVariable> .
<http://www.assero.co.uk/MDRSdtmM/CDISC/V3#M-CDISC_SDTMMODEL_xxDY> <http://www.w3.org/2000/01/rdf-schema#label> "Study Day of Visit/Collection/Exam" .
<http://www.assero.co.uk/MDRSdtmM/CDISC/V3#M-CDISC_SDTMMODEL_xxDY> <http://www.assero.co.uk/BusinessDomain#classifiedAs> <http://www.assero.co.uk/MDRSdtmM/CDISC/V3#M-CDISC_SDTMMODEL_C_TIMING> .
<http://www.assero.co.uk/MDRSdtmM/CDISC/V3#M-CDISC_SDTMMODEL_xxDY> <http://www.assero.co.uk/BusinessDomain#typedAs> <http://www.assero.co.uk/MDRSdtmM/CDISC/V3#M-CDISC_SDTMMODEL_DT_NUM> .
<http://www.assero.co.uk/MDRSdtmM/CDISC/V3#M-CDISC_SDTMMODEL_xxDY> <http://www.assero.co.uk/BusinessDomain#rule> "" .
<http://www.assero.co.uk/MDRSdtmM/CDISC/V3#M-CDISC_SDTMMODEL_xxDY> <http://www.assero.co.uk/BusinessDomain#ordinal> "20"^^<http://www.w3.org/2001/XMLSchema#integer> .
<http://www.assero.co.uk/MDRSdtmM/CDISC/V3#M-CDISC_SDTMMODEL_xxDY> <http://www.assero.co.uk/BusinessDomain#name> "--DY" .
<http://www.assero.co.uk/MDRSdtmM/CDISC/V3#M-CDISC_SDTMMODEL_xxDY> <http://www.assero.co.uk/BusinessDomain#prefixed> "true"^^<http://www.w3.org/2001/XMLSchema#boolean> .
<http://www.assero.co.uk/MDRSdtmM/CDISC/V3#M-CDISC_SDTMMODEL_xxDY> <http://www.assero.co.uk/BusinessDomain#description> "Actual study day of visit/collection/exam expressed in integer days relative to the sponsor-defined RFSTDTC in Demographics." .
<http://www.assero.co.uk/MDRSdtmM/CDISC/V3#M-CDISC_SDTMMODEL_xxSTDY> <http://www.w3.org/1999/02/22-rdf-syntax-ns#type> <http://www.assero.co.uk/BusinessDomain#ModelVariable> .
<http://www.assero.co.uk/MDRSdtmM/CDISC/V3#M-CDISC_SDTMMODEL_xxSTDY> <http://www.w3.org/2000/01/rdf-schema#label> "Study Day of Start of Observation" .
<http://www.assero.co.uk/MDRSdtmM/CDISC/V3#M-CDISC_SDTMMODEL_xxSTDY> <http://www.assero.co.uk/BusinessDomain#classifiedAs> <http://www.assero.co.uk/MDRSdtmM/CDISC/V3#M-CDISC_SDTMMODEL_C_TIMING> .
<http://www.assero.co.uk/MDRSdtmM/CDISC/V3#M-CDISC_SDTMMODEL_xxSTDY> <http://www.assero.co.uk/BusinessDomain#typedAs> <http://www.assero.co.uk/MDRSdtmM/CDISC/V3#M-CDISC_SDTMMODEL_DT_NUM> .
<http://www.assero.co.uk/MDRSdtmM/CDISC/V3#M-CDISC_SDTMMODEL_xxSTDY> <http://www.assero.co.uk/BusinessDomain#rule> "" .
<http://www.assero.co.uk/MDRSdtmM/CDISC/V3#M-CDISC_SDTMMODEL_xxSTDY> <http://www.assero.co.uk/BusinessDomain#ordinal> "21"^^<http://www.w3.org/2001/XMLSchema#integer> .
<http://www.assero.co.uk/MDRSdtmM/CDISC/V3#M-CDISC_SDTMMODEL_xxSTDY> <http://www.assero.co.uk/BusinessDomain#name> "--STDY" .
<http://www.assero.co.uk/MDRSdtmM/CDISC/V3#M-CDISC_SDTMMODEL_xxSTDY> <http://www.assero.co.uk/BusinessDomain#prefixed> "true"^^<http://www.w3.org/2001/XMLSchema#boolean> .
<http://www.assero.co.uk/MDRSdtmM/CDISC/V3#M-CDISC_SDTMMODEL_xxSTDY> <http://www.assero.co.uk/BusinessDomain#description> "Actual study day of start of observation expressed in integer days relative to the sponsor-defined RFSTDTC in Demographics." .
<http://www.assero.co.uk/MDRSdtmM/CDISC/V3#M-CDISC_SDTMMODEL_xxENDY> <http://www.w3.org/1999/02/22-rdf-syntax-ns#type> <http://www.assero.co.uk/BusinessDomain#ModelVariable> .
<http://www.assero.co.uk/MDRSdtmM/CDISC/V3#M-CDISC_SDTMMODEL_xxENDY> <http://www.w3.org/2000/01/rdf-schema#label> "Study Day of End of Observation" .
<http://www.assero.co.uk/MDRSdtmM/CDISC/V3#M-CDISC_SDTMMODEL_xxENDY> <http://www.assero.co.uk/BusinessDomain#classifiedAs> <http://www.assero.co.uk/MDRSdtmM/CDISC/V3#M-CDISC_SDTMMODEL_C_TIMING> .
<http://www.assero.co.uk/MDRSdtmM/CDISC/V3#M-CDISC_SDTMMODEL_xxENDY> <http://www.assero.co.uk/BusinessDomain#typedAs> <http://www.assero.co.uk/MDRSdtmM/CDISC/V3#M-CDISC_SDTMMODEL_DT_NUM> .
<http://www.assero.co.uk/MDRSdtmM/CDISC/V3#M-CDISC_SDTMMODEL_xxENDY> <http://www.assero.co.uk/BusinessDomain#rule> "" .
<http://www.assero.co.uk/MDRSdtmM/CDISC/V3#M-CDISC_SDTMMODEL_xxENDY> <http://www.assero.co.uk/BusinessDomain#ordinal> "22"^^<http://www.w3.org/2001/XMLSchema#integer> .
<http://www.assero.co.uk/MDRSdtmM/CDISC/V3#M-CDISC_SDTMMODEL_xxENDY> <http://www.assero.co.uk/BusinessDomain#name> "--ENDY" .
<http://www.assero.co.uk/MDRSdtmM/CDISC/V3#M-CDISC_SDTMMODEL_xxENDY> <http://www.assero.co.uk/BusinessDomain#prefixed> "true"^^<http://www.w3.org/2001/XMLSchema#boolean> .
<http://www.assero.co.uk/MDRSdtmM/CDISC/V3#M-CDISC_SDTMMODEL_xxENDY> <http://www.assero.co.uk/BusinessDomain#description> "Actual study day of end of observation expressed in integer days relative to the sponsor-defined RFSTDTC in Demographics." .
<http://www.assero.co.uk/MDRSdtmM/CDISC/V3#M-CDISC_SDTMMODEL_xxDUR> <http://www.w3.org/1999/02/22-rdf-syntax-ns#type> <http://www.assero.co.uk/BusinessDomain#ModelVariable> .
<http://www.assero.co.uk/MDRSdtmM/CDISC/V3#M-CDISC_SDTMMODEL_xxDUR> <http://www.w3.org/2000/01/rdf-schema#label> "Duration" .
<http://www.assero.co.uk/MDRSdtmM/CDISC/V3#M-CDISC_SDTMMODEL_xxDUR> <http://www.assero.co.uk/BusinessDomain#classifiedAs> <http://www.assero.co.uk/MDRSdtmM/CDISC/V3#M-CDISC_SDTMMODEL_C_TIMING> .
<http://www.assero.co.uk/MDRSdtmM/CDISC/V3#M-CDISC_SDTMMODEL_xxDUR> <http://www.assero.co.uk/BusinessDomain#typedAs> <http://www.assero.co.uk/MDRSdtmM/CDISC/V3#M-CDISC_SDTMMODEL_DT_CHAR> .
<http://www.assero.co.uk/MDRSdtmM/CDISC/V3#M-CDISC_SDTMMODEL_xxDUR> <http://www.assero.co.uk/BusinessDomain#rule> "" .
<http://www.assero.co.uk/MDRSdtmM/CDISC/V3#M-CDISC_SDTMMODEL_xxDUR> <http://www.assero.co.uk/BusinessDomain#ordinal> "23"^^<http://www.w3.org/2001/XMLSchema#integer> .
<http://www.assero.co.uk/MDRSdtmM/CDISC/V3#M-CDISC_SDTMMODEL_xxDUR> <http://www.assero.co.uk/BusinessDomain#name> "--DUR" .
<http://www.assero.co.uk/MDRSdtmM/CDISC/V3#M-CDISC_SDTMMODEL_xxDUR> <http://www.assero.co.uk/BusinessDomain#prefixed> "true"^^<http://www.w3.org/2001/XMLSchema#boolean> .
<http://www.assero.co.uk/MDRSdtmM/CDISC/V3#M-CDISC_SDTMMODEL_xxDUR> <http://www.assero.co.uk/BusinessDomain#description> "Collected duration of an event, intervention, or finding represented in ISO 8601 character format. Used only if collected on the CRF and not derived." .
<http://www.assero.co.uk/MDRSdtmM/CDISC/V3#M-CDISC_SDTMMODEL_xxTPT> <http://www.w3.org/1999/02/22-rdf-syntax-ns#type> <http://www.assero.co.uk/BusinessDomain#ModelVariable> .
<http://www.assero.co.uk/MDRSdtmM/CDISC/V3#M-CDISC_SDTMMODEL_xxTPT> <http://www.w3.org/2000/01/rdf-schema#label> "Planned Time Point Name" .
<http://www.assero.co.uk/MDRSdtmM/CDISC/V3#M-CDISC_SDTMMODEL_xxTPT> <http://www.assero.co.uk/BusinessDomain#classifiedAs> <http://www.assero.co.uk/MDRSdtmM/CDISC/V3#M-CDISC_SDTMMODEL_C_TIMING> .
<http://www.assero.co.uk/MDRSdtmM/CDISC/V3#M-CDISC_SDTMMODEL_xxTPT> <http://www.assero.co.uk/BusinessDomain#typedAs> <http://www.assero.co.uk/MDRSdtmM/CDISC/V3#M-CDISC_SDTMMODEL_DT_CHAR> .
<http://www.assero.co.uk/MDRSdtmM/CDISC/V3#M-CDISC_SDTMMODEL_xxTPT> <http://www.assero.co.uk/BusinessDomain#rule> "" .
<http://www.assero.co.uk/MDRSdtmM/CDISC/V3#M-CDISC_SDTMMODEL_xxTPT> <http://www.assero.co.uk/BusinessDomain#ordinal> "24"^^<http://www.w3.org/2001/XMLSchema#integer> .
<http://www.assero.co.uk/MDRSdtmM/CDISC/V3#M-CDISC_SDTMMODEL_xxTPT> <http://www.assero.co.uk/BusinessDomain#name> "--TPT" .
<http://www.assero.co.uk/MDRSdtmM/CDISC/V3#M-CDISC_SDTMMODEL_xxTPT> <http://www.assero.co.uk/BusinessDomain#prefixed> "true"^^<http://www.w3.org/2001/XMLSchema#boolean> .
<http://www.assero.co.uk/MDRSdtmM/CDISC/V3#M-CDISC_SDTMMODEL_xxTPT> <http://www.assero.co.uk/BusinessDomain#description> "Text description of time when a measurement or observation should be taken as defined in the protocol. This may be represented as an elapsed time relative to a fixed reference point, such as time of last dose. See --TPTNUM and --TPTREF." .
<http://www.assero.co.uk/MDRSdtmM/CDISC/V3#M-CDISC_SDTMMODEL_xxTPTNUM> <http://www.w3.org/1999/02/22-rdf-syntax-ns#type> <http://www.assero.co.uk/BusinessDomain#ModelVariable> .
<http://www.assero.co.uk/MDRSdtmM/CDISC/V3#M-CDISC_SDTMMODEL_xxTPTNUM> <http://www.w3.org/2000/01/rdf-schema#label> "Planned Time Point Number" .
<http://www.assero.co.uk/MDRSdtmM/CDISC/V3#M-CDISC_SDTMMODEL_xxTPTNUM> <http://www.assero.co.uk/BusinessDomain#classifiedAs> <http://www.assero.co.uk/MDRSdtmM/CDISC/V3#M-CDISC_SDTMMODEL_C_TIMING> .
<http://www.assero.co.uk/MDRSdtmM/CDISC/V3#M-CDISC_SDTMMODEL_xxTPTNUM> <http://www.assero.co.uk/BusinessDomain#typedAs> <http://www.assero.co.uk/MDRSdtmM/CDISC/V3#M-CDISC_SDTMMODEL_DT_NUM> .
<http://www.assero.co.uk/MDRSdtmM/CDISC/V3#M-CDISC_SDTMMODEL_xxTPTNUM> <http://www.assero.co.uk/BusinessDomain#rule> "" .
<http://www.assero.co.uk/MDRSdtmM/CDISC/V3#M-CDISC_SDTMMODEL_xxTPTNUM> <http://www.assero.co.uk/BusinessDomain#ordinal> "25"^^<http://www.w3.org/2001/XMLSchema#integer> .
<http://www.assero.co.uk/MDRSdtmM/CDISC/V3#M-CDISC_SDTMMODEL_xxTPTNUM> <http://www.assero.co.uk/BusinessDomain#name> "--TPTNUM" .
<http://www.assero.co.uk/MDRSdtmM/CDISC/V3#M-CDISC_SDTMMODEL_xxTPTNUM> <http://www.assero.co.uk/BusinessDomain#prefixed> "true"^^<http://www.w3.org/2001/XMLSchema#boolean> .
<http://www.assero.co.uk/MDRSdtmM/CDISC/V3#M-CDISC_SDTMMODEL_xxTPTNUM> <http://www.assero.co.uk/BusinessDomain#description> "Numeric version of planned time point used in sorting." .
<http://www.assero.co.uk/MDRSdtmM/CDISC/V3#M-CDISC_SDTMMODEL_xxELTM> <http://www.w3.org/1999/02/22-rdf-syntax-ns#type> <http://www.assero.co.uk/BusinessDomain#ModelVariable> .
<http://www.assero.co.uk/MDRSdtmM/CDISC/V3#M-CDISC_SDTMMODEL_xxELTM> <http://www.w3.org/2000/01/rdf-schema#label> "Planned Elapsed Time from Time Point Ref" .
<http://www.assero.co.uk/MDRSdtmM/CDISC/V3#M-CDISC_SDTMMODEL_xxELTM> <http://www.assero.co.uk/BusinessDomain#classifiedAs> <http://www.assero.co.uk/MDRSdtmM/CDISC/V3#M-CDISC_SDTMMODEL_C_TIMING> .
<http://www.assero.co.uk/MDRSdtmM/CDISC/V3#M-CDISC_SDTMMODEL_xxELTM> <http://www.assero.co.uk/BusinessDomain#typedAs> <http://www.assero.co.uk/MDRSdtmM/CDISC/V3#M-CDISC_SDTMMODEL_DT_CHAR> .
<http://www.assero.co.uk/MDRSdtmM/CDISC/V3#M-CDISC_SDTMMODEL_xxELTM> <http://www.assero.co.uk/BusinessDomain#rule> "" .
<http://www.assero.co.uk/MDRSdtmM/CDISC/V3#M-CDISC_SDTMMODEL_xxELTM> <http://www.assero.co.uk/BusinessDomain#ordinal> "26"^^<http://www.w3.org/2001/XMLSchema#integer> .
<http://www.assero.co.uk/MDRSdtmM/CDISC/V3#M-CDISC_SDTMMODEL_xxELTM> <http://www.assero.co.uk/BusinessDomain#name> "--ELTM" .
<http://www.assero.co.uk/MDRSdtmM/CDISC/V3#M-CDISC_SDTMMODEL_xxELTM> <http://www.assero.co.uk/BusinessDomain#prefixed> "true"^^<http://www.w3.org/2001/XMLSchema#boolean> .
<http://www.assero.co.uk/MDRSdtmM/CDISC/V3#M-CDISC_SDTMMODEL_xxELTM> <http://www.assero.co.uk/BusinessDomain#description> "Planned Elapsed time in ISO 8601 character format relative to a planned fixed reference (--TPTREF) such as “Previous Dose” or “Previous Meal”. This variable is useful where there are repetitive measures. Not a clock time or a date/time variable, but an interval, represented as ISO duration." .
<http://www.assero.co.uk/MDRSdtmM/CDISC/V3#M-CDISC_SDTMMODEL_xxTPTREF> <http://www.w3.org/1999/02/22-rdf-syntax-ns#type> <http://www.assero.co.uk/BusinessDomain#ModelVariable> .
<http://www.assero.co.uk/MDRSdtmM/CDISC/V3#M-CDISC_SDTMMODEL_xxTPTREF> <http://www.w3.org/2000/01/rdf-schema#label> "Time Point Reference" .
<http://www.assero.co.uk/MDRSdtmM/CDISC/V3#M-CDISC_SDTMMODEL_xxTPTREF> <http://www.assero.co.uk/BusinessDomain#classifiedAs> <http://www.assero.co.uk/MDRSdtmM/CDISC/V3#M-CDISC_SDTMMODEL_C_TIMING> .
<http://www.assero.co.uk/MDRSdtmM/CDISC/V3#M-CDISC_SDTMMODEL_xxTPTREF> <http://www.assero.co.uk/BusinessDomain#typedAs> <http://www.assero.co.uk/MDRSdtmM/CDISC/V3#M-CDISC_SDTMMODEL_DT_CHAR> .
<http://www.assero.co.uk/MDRSdtmM/CDISC/V3#M-CDISC_SDTMMODEL_xxTPTREF> <http://www.assero.co.uk/BusinessDomain#rule> "" .
<http://www.assero.co.uk/MDRSdtmM/CDISC/V3#M-CDISC_SDTMMODEL_xxTPTREF> <http://www.assero.co.uk/BusinessDomain#ordinal> "27"^^<http://www.w3.org/2001/XMLSchema#integer> .
<http://www.assero.co.uk/MDRSdtmM/CDISC/V3#M-CDISC_SDTMMODEL_xxTPTREF> <http://www.assero.co.uk/BusinessDomain#name> "--TPTREF" .
<http://www.assero.co.uk/MDRSdtmM/CDISC/V3#M-CDISC_SDTMMODEL_xxTPTREF> <http://www.assero.co.uk/BusinessDomain#prefixed> "true"^^<http://www.w3.org/2001/XMLSchema#boolean> .
<http://www.assero.co.uk/MDRSdtmM/CDISC/V3#M-CDISC_SDTMMODEL_xxTPTREF> <http://www.assero.co.uk/BusinessDomain#description> "Description of the fixed reference point referred to by --ELTM, --TPTNUM, and --TPT. Examples: PREVIOUS DOSE, PREVIOUS MEAL." .
<http://www.assero.co.uk/MDRSdtmM/CDISC/V3#M-CDISC_SDTMMODEL_xxRFTDTC> <http://www.w3.org/1999/02/22-rdf-syntax-ns#type> <http://www.assero.co.uk/BusinessDomain#ModelVariable> .
<http://www.assero.co.uk/MDRSdtmM/CDISC/V3#M-CDISC_SDTMMODEL_xxRFTDTC> <http://www.w3.org/2000/01/rdf-schema#label> "Date/Time of Reference Time Point" .
<http://www.assero.co.uk/MDRSdtmM/CDISC/V3#M-CDISC_SDTMMODEL_xxRFTDTC> <http://www.assero.co.uk/BusinessDomain#classifiedAs> <http://www.assero.co.uk/MDRSdtmM/CDISC/V3#M-CDISC_SDTMMODEL_C_TIMING> .
<http://www.assero.co.uk/MDRSdtmM/CDISC/V3#M-CDISC_SDTMMODEL_xxRFTDTC> <http://www.assero.co.uk/BusinessDomain#typedAs> <http://www.assero.co.uk/MDRSdtmM/CDISC/V3#M-CDISC_SDTMMODEL_DT_CHAR> .
<http://www.assero.co.uk/MDRSdtmM/CDISC/V3#M-CDISC_SDTMMODEL_xxRFTDTC> <http://www.assero.co.uk/BusinessDomain#rule> "" .
<http://www.assero.co.uk/MDRSdtmM/CDISC/V3#M-CDISC_SDTMMODEL_xxRFTDTC> <http://www.assero.co.uk/BusinessDomain#ordinal> "28"^^<http://www.w3.org/2001/XMLSchema#integer> .
<http://www.assero.co.uk/MDRSdtmM/CDISC/V3#M-CDISC_SDTMMODEL_xxRFTDTC> <http://www.assero.co.uk/BusinessDomain#name> "--RFTDTC" .
<http://www.assero.co.uk/MDRSdtmM/CDISC/V3#M-CDISC_SDTMMODEL_xxRFTDTC> <http://www.assero.co.uk/BusinessDomain#prefixed> "true"^^<http://www.w3.org/2001/XMLSchema#boolean> .
<http://www.assero.co.uk/MDRSdtmM/CDISC/V3#M-CDISC_SDTMMODEL_xxRFTDTC> <http://www.assero.co.uk/BusinessDomain#description> "Date/time for a fixed reference time point defined by --TPTREF in ISO 8601 character format." .
<http://www.assero.co.uk/MDRSdtmM/CDISC/V3#M-CDISC_SDTMMODEL_xxSTRF> <http://www.w3.org/1999/02/22-rdf-syntax-ns#type> <http://www.assero.co.uk/BusinessDomain#ModelVariable> .
<http://www.assero.co.uk/MDRSdtmM/CDISC/V3#M-CDISC_SDTMMODEL_xxSTRF> <http://www.w3.org/2000/01/rdf-schema#label> "Start Relative to Reference Period" .
<http://www.assero.co.uk/MDRSdtmM/CDISC/V3#M-CDISC_SDTMMODEL_xxSTRF> <http://www.assero.co.uk/BusinessDomain#classifiedAs> <http://www.assero.co.uk/MDRSdtmM/CDISC/V3#M-CDISC_SDTMMODEL_C_TIMING> .
<http://www.assero.co.uk/MDRSdtmM/CDISC/V3#M-CDISC_SDTMMODEL_xxSTRF> <http://www.assero.co.uk/BusinessDomain#typedAs> <http://www.assero.co.uk/MDRSdtmM/CDISC/V3#M-CDISC_SDTMMODEL_DT_CHAR> .
<http://www.assero.co.uk/MDRSdtmM/CDISC/V3#M-CDISC_SDTMMODEL_xxSTRF> <http://www.assero.co.uk/BusinessDomain#rule> "" .
<http://www.assero.co.uk/MDRSdtmM/CDISC/V3#M-CDISC_SDTMMODEL_xxSTRF> <http://www.assero.co.uk/BusinessDomain#ordinal> "29"^^<http://www.w3.org/2001/XMLSchema#integer> .
<http://www.assero.co.uk/MDRSdtmM/CDISC/V3#M-CDISC_SDTMMODEL_xxSTRF> <http://www.assero.co.uk/BusinessDomain#name> "--STRF" .
<http://www.assero.co.uk/MDRSdtmM/CDISC/V3#M-CDISC_SDTMMODEL_xxSTRF> <http://www.assero.co.uk/BusinessDomain#prefixed> "true"^^<http://www.w3.org/2001/XMLSchema#boolean> .
<http://www.assero.co.uk/MDRSdtmM/CDISC/V3#M-CDISC_SDTMMODEL_xxSTRF> <http://www.assero.co.uk/BusinessDomain#description> "Identifies the start of the observation as being before, during, or after the sponsor-defined reference period. The sponsor-defined reference period is a continuous period of time defined by a discrete starting point and a discrete ending point represented by RFSTDTC and RFENDTC in Demographics. \nNote: This variable will be deprecated (phased out) in a future (post SDTM v1.4) release. The functionality of this variable can be replaced by the use of --STRTPT with --STTPT = RFSTDTC." .
<http://www.assero.co.uk/MDRSdtmM/CDISC/V3#M-CDISC_SDTMMODEL_xxENRF> <http://www.w3.org/1999/02/22-rdf-syntax-ns#type> <http://www.assero.co.uk/BusinessDomain#ModelVariable> .
<http://www.assero.co.uk/MDRSdtmM/CDISC/V3#M-CDISC_SDTMMODEL_xxENRF> <http://www.w3.org/2000/01/rdf-schema#label> "End Relative to Reference Period" .
<http://www.assero.co.uk/MDRSdtmM/CDISC/V3#M-CDISC_SDTMMODEL_xxENRF> <http://www.assero.co.uk/BusinessDomain#classifiedAs> <http://www.assero.co.uk/MDRSdtmM/CDISC/V3#M-CDISC_SDTMMODEL_C_TIMING> .
<http://www.assero.co.uk/MDRSdtmM/CDISC/V3#M-CDISC_SDTMMODEL_xxENRF> <http://www.assero.co.uk/BusinessDomain#typedAs> <http://www.assero.co.uk/MDRSdtmM/CDISC/V3#M-CDISC_SDTMMODEL_DT_CHAR> .
<http://www.assero.co.uk/MDRSdtmM/CDISC/V3#M-CDISC_SDTMMODEL_xxENRF> <http://www.assero.co.uk/BusinessDomain#rule> "" .
<http://www.assero.co.uk/MDRSdtmM/CDISC/V3#M-CDISC_SDTMMODEL_xxENRF> <http://www.assero.co.uk/BusinessDomain#ordinal> "30"^^<http://www.w3.org/2001/XMLSchema#integer> .
<http://www.assero.co.uk/MDRSdtmM/CDISC/V3#M-CDISC_SDTMMODEL_xxENRF> <http://www.assero.co.uk/BusinessDomain#name> "--ENRF" .
<http://www.assero.co.uk/MDRSdtmM/CDISC/V3#M-CDISC_SDTMMODEL_xxENRF> <http://www.assero.co.uk/BusinessDomain#prefixed> "true"^^<http://www.w3.org/2001/XMLSchema#boolean> .
<http://www.assero.co.uk/MDRSdtmM/CDISC/V3#M-CDISC_SDTMMODEL_xxENRF> <http://www.assero.co.uk/BusinessDomain#description> "Identifies the end of the observation as being before, during or after the sponsor-defined reference period. The sponsor-defined reference period is a continuous period of time defined by a discrete starting point and a discrete ending point represented by RFSTDTC and RFENDTC in Demographics. \nNote: This variable will be deprecated (phased out) in a future (post SDTM v1.4) release. The functionality of this variable can be replaced by the use of --ENRTPT with --ENTPT = RFENDTC." .
<http://www.assero.co.uk/MDRSdtmM/CDISC/V3#M-CDISC_SDTMMODEL_xxEVLINT> <http://www.w3.org/1999/02/22-rdf-syntax-ns#type> <http://www.assero.co.uk/BusinessDomain#ModelVariable> .
<http://www.assero.co.uk/MDRSdtmM/CDISC/V3#M-CDISC_SDTMMODEL_xxEVLINT> <http://www.w3.org/2000/01/rdf-schema#label> "Evaluation Interval" .
<http://www.assero.co.uk/MDRSdtmM/CDISC/V3#M-CDISC_SDTMMODEL_xxEVLINT> <http://www.assero.co.uk/BusinessDomain#classifiedAs> <http://www.assero.co.uk/MDRSdtmM/CDISC/V3#M-CDISC_SDTMMODEL_C_TIMING> .
<http://www.assero.co.uk/MDRSdtmM/CDISC/V3#M-CDISC_SDTMMODEL_xxEVLINT> <http://www.assero.co.uk/BusinessDomain#typedAs> <http://www.assero.co.uk/MDRSdtmM/CDISC/V3#M-CDISC_SDTMMODEL_DT_CHAR> .
<http://www.assero.co.uk/MDRSdtmM/CDISC/V3#M-CDISC_SDTMMODEL_xxEVLINT> <http://www.assero.co.uk/BusinessDomain#rule> "" .
<http://www.assero.co.uk/MDRSdtmM/CDISC/V3#M-CDISC_SDTMMODEL_xxEVLINT> <http://www.assero.co.uk/BusinessDomain#ordinal> "31"^^<http://www.w3.org/2001/XMLSchema#integer> .
<http://www.assero.co.uk/MDRSdtmM/CDISC/V3#M-CDISC_SDTMMODEL_xxEVLINT> <http://www.assero.co.uk/BusinessDomain#name> "--EVLINT" .
<http://www.assero.co.uk/MDRSdtmM/CDISC/V3#M-CDISC_SDTMMODEL_xxEVLINT> <http://www.assero.co.uk/BusinessDomain#prefixed> "true"^^<http://www.w3.org/2001/XMLSchema#boolean> .
<http://www.assero.co.uk/MDRSdtmM/CDISC/V3#M-CDISC_SDTMMODEL_xxEVLINT> <http://www.assero.co.uk/BusinessDomain#description> "Duration of interval associated with an observation such as a finding --TESTCD, represented in ISO 8601 character format. Example: -P2M to represent a period of the past 2 months as the evaluation interval for a question from a questionnaire such as SF-36." .
<http://www.assero.co.uk/MDRSdtmM/CDISC/V3#M-CDISC_SDTMMODEL_xxEVINTX> <http://www.w3.org/1999/02/22-rdf-syntax-ns#type> <http://www.assero.co.uk/BusinessDomain#ModelVariable> .
<http://www.assero.co.uk/MDRSdtmM/CDISC/V3#M-CDISC_SDTMMODEL_xxEVINTX> <http://www.w3.org/2000/01/rdf-schema#label> "Evaluation Interval Text" .
<http://www.assero.co.uk/MDRSdtmM/CDISC/V3#M-CDISC_SDTMMODEL_xxEVINTX> <http://www.assero.co.uk/BusinessDomain#classifiedAs> <http://www.assero.co.uk/MDRSdtmM/CDISC/V3#M-CDISC_SDTMMODEL_C_TIMING> .
<http://www.assero.co.uk/MDRSdtmM/CDISC/V3#M-CDISC_SDTMMODEL_xxEVINTX> <http://www.assero.co.uk/BusinessDomain#typedAs> <http://www.assero.co.uk/MDRSdtmM/CDISC/V3#M-CDISC_SDTMMODEL_DT_CHAR> .
<http://www.assero.co.uk/MDRSdtmM/CDISC/V3#M-CDISC_SDTMMODEL_xxEVINTX> <http://www.assero.co.uk/BusinessDomain#rule> "" .
<http://www.assero.co.uk/MDRSdtmM/CDISC/V3#M-CDISC_SDTMMODEL_xxEVINTX> <http://www.assero.co.uk/BusinessDomain#ordinal> "32"^^<http://www.w3.org/2001/XMLSchema#integer> .
<http://www.assero.co.uk/MDRSdtmM/CDISC/V3#M-CDISC_SDTMMODEL_xxEVINTX> <http://www.assero.co.uk/BusinessDomain#name> "--EVINTX" .
<http://www.assero.co.uk/MDRSdtmM/CDISC/V3#M-CDISC_SDTMMODEL_xxEVINTX> <http://www.assero.co.uk/BusinessDomain#prefixed> "true"^^<http://www.w3.org/2001/XMLSchema#boolean> .
<http://www.assero.co.uk/MDRSdtmM/CDISC/V3#M-CDISC_SDTMMODEL_xxEVINTX> <http://www.assero.co.uk/BusinessDomain#description> "Evaluation interval associated with an observation, where the interval is not able to be represented in ISO 8601 format. Examples: LIFETIME, LAST NIGHT, RECENTLY, OVER THE LAST FEW WEEKS." .
<http://www.assero.co.uk/MDRSdtmM/CDISC/V3#M-CDISC_SDTMMODEL_xxSTRTPT> <http://www.w3.org/1999/02/22-rdf-syntax-ns#type> <http://www.assero.co.uk/BusinessDomain#ModelVariable> .
<http://www.assero.co.uk/MDRSdtmM/CDISC/V3#M-CDISC_SDTMMODEL_xxSTRTPT> <http://www.w3.org/2000/01/rdf-schema#label> "Start Relative to Reference Time Point" .
<http://www.assero.co.uk/MDRSdtmM/CDISC/V3#M-CDISC_SDTMMODEL_xxSTRTPT> <http://www.assero.co.uk/BusinessDomain#classifiedAs> <http://www.assero.co.uk/MDRSdtmM/CDISC/V3#M-CDISC_SDTMMODEL_C_TIMING> .
<http://www.assero.co.uk/MDRSdtmM/CDISC/V3#M-CDISC_SDTMMODEL_xxSTRTPT> <http://www.assero.co.uk/BusinessDomain#typedAs> <http://www.assero.co.uk/MDRSdtmM/CDISC/V3#M-CDISC_SDTMMODEL_DT_CHAR> .
<http://www.assero.co.uk/MDRSdtmM/CDISC/V3#M-CDISC_SDTMMODEL_xxSTRTPT> <http://www.assero.co.uk/BusinessDomain#rule> "" .
<http://www.assero.co.uk/MDRSdtmM/CDISC/V3#M-CDISC_SDTMMODEL_xxSTRTPT> <http://www.assero.co.uk/BusinessDomain#ordinal> "33"^^<http://www.w3.org/2001/XMLSchema#integer> .
<http://www.assero.co.uk/MDRSdtmM/CDISC/V3#M-CDISC_SDTMMODEL_xxSTRTPT> <http://www.assero.co.uk/BusinessDomain#name> "--STRTPT" .
<http://www.assero.co.uk/MDRSdtmM/CDISC/V3#M-CDISC_SDTMMODEL_xxSTRTPT> <http://www.assero.co.uk/BusinessDomain#prefixed> "true"^^<http://www.w3.org/2001/XMLSchema#boolean> .
<http://www.assero.co.uk/MDRSdtmM/CDISC/V3#M-CDISC_SDTMMODEL_xxSTRTPT> <http://www.assero.co.uk/BusinessDomain#description> "Identifies the start of the observation as being before or after the sponsor-defined reference time point defined by variable --STTPT." .
<http://www.assero.co.uk/MDRSdtmM/CDISC/V3#M-CDISC_SDTMMODEL_xxSTTPT> <http://www.w3.org/1999/02/22-rdf-syntax-ns#type> <http://www.assero.co.uk/BusinessDomain#ModelVariable> .
<http://www.assero.co.uk/MDRSdtmM/CDISC/V3#M-CDISC_SDTMMODEL_xxSTTPT> <http://www.w3.org/2000/01/rdf-schema#label> "Start Reference Time Point" .
<http://www.assero.co.uk/MDRSdtmM/CDISC/V3#M-CDISC_SDTMMODEL_xxSTTPT> <http://www.assero.co.uk/BusinessDomain#classifiedAs> <http://www.assero.co.uk/MDRSdtmM/CDISC/V3#M-CDISC_SDTMMODEL_C_TIMING> .
<http://www.assero.co.uk/MDRSdtmM/CDISC/V3#M-CDISC_SDTMMODEL_xxSTTPT> <http://www.assero.co.uk/BusinessDomain#typedAs> <http://www.assero.co.uk/MDRSdtmM/CDISC/V3#M-CDISC_SDTMMODEL_DT_CHAR> .
<http://www.assero.co.uk/MDRSdtmM/CDISC/V3#M-CDISC_SDTMMODEL_xxSTTPT> <http://www.assero.co.uk/BusinessDomain#rule> "" .
<http://www.assero.co.uk/MDRSdtmM/CDISC/V3#M-CDISC_SDTMMODEL_xxSTTPT> <http://www.assero.co.uk/BusinessDomain#ordinal> "34"^^<http://www.w3.org/2001/XMLSchema#integer> .
<http://www.assero.co.uk/MDRSdtmM/CDISC/V3#M-CDISC_SDTMMODEL_xxSTTPT> <http://www.assero.co.uk/BusinessDomain#name> "--STTPT" .
<http://www.assero.co.uk/MDRSdtmM/CDISC/V3#M-CDISC_SDTMMODEL_xxSTTPT> <http://www.assero.co.uk/BusinessDomain#prefixed> "true"^^<http://www.w3.org/2001/XMLSchema#boolean> .
<http://www.assero.co.uk/MDRSdtmM/CDISC/V3#M-CDISC_SDTMMODEL_xxSTTPT> <http://www.assero.co.uk/BusinessDomain#description> "Description or date/time in ISO 8601 or other character format of the sponsor-defined reference point referred to by --STRTPT. Examples: \"2003-12-15\" or \"VISIT 1\"." .
<http://www.assero.co.uk/MDRSdtmM/CDISC/V3#M-CDISC_SDTMMODEL_xxENRTPT> <http://www.w3.org/1999/02/22-rdf-syntax-ns#type> <http://www.assero.co.uk/BusinessDomain#ModelVariable> .
<http://www.assero.co.uk/MDRSdtmM/CDISC/V3#M-CDISC_SDTMMODEL_xxENRTPT> <http://www.w3.org/2000/01/rdf-schema#label> "End Relative to Reference Time Point" .
<http://www.assero.co.uk/MDRSdtmM/CDISC/V3#M-CDISC_SDTMMODEL_xxENRTPT> <http://www.assero.co.uk/BusinessDomain#classifiedAs> <http://www.assero.co.uk/MDRSdtmM/CDISC/V3#M-CDISC_SDTMMODEL_C_TIMING> .
<http://www.assero.co.uk/MDRSdtmM/CDISC/V3#M-CDISC_SDTMMODEL_xxENRTPT> <http://www.assero.co.uk/BusinessDomain#typedAs> <http://www.assero.co.uk/MDRSdtmM/CDISC/V3#M-CDISC_SDTMMODEL_DT_CHAR> .
<http://www.assero.co.uk/MDRSdtmM/CDISC/V3#M-CDISC_SDTMMODEL_xxENRTPT> <http://www.assero.co.uk/BusinessDomain#rule> "" .
<http://www.assero.co.uk/MDRSdtmM/CDISC/V3#M-CDISC_SDTMMODEL_xxENRTPT> <http://www.assero.co.uk/BusinessDomain#ordinal> "35"^^<http://www.w3.org/2001/XMLSchema#integer> .
<http://www.assero.co.uk/MDRSdtmM/CDISC/V3#M-CDISC_SDTMMODEL_xxENRTPT> <http://www.assero.co.uk/BusinessDomain#name> "--ENRTPT" .
<http://www.assero.co.uk/MDRSdtmM/CDISC/V3#M-CDISC_SDTMMODEL_xxENRTPT> <http://www.assero.co.uk/BusinessDomain#prefixed> "true"^^<http://www.w3.org/2001/XMLSchema#boolean> .
<http://www.assero.co.uk/MDRSdtmM/CDISC/V3#M-CDISC_SDTMMODEL_xxENRTPT> <http://www.assero.co.uk/BusinessDomain#description> "Identifies the end of the observation as being before or after the sponsor-defined reference time point defined by variable --ENTPT." .
<http://www.assero.co.uk/MDRSdtmM/CDISC/V3#M-CDISC_SDTMMODEL_xxENTPT> <http://www.w3.org/1999/02/22-rdf-syntax-ns#type> <http://www.assero.co.uk/BusinessDomain#ModelVariable> .
<http://www.assero.co.uk/MDRSdtmM/CDISC/V3#M-CDISC_SDTMMODEL_xxENTPT> <http://www.w3.org/2000/01/rdf-schema#label> "End Reference Time Point" .
<http://www.assero.co.uk/MDRSdtmM/CDISC/V3#M-CDISC_SDTMMODEL_xxENTPT> <http://www.assero.co.uk/BusinessDomain#classifiedAs> <http://www.assero.co.uk/MDRSdtmM/CDISC/V3#M-CDISC_SDTMMODEL_C_TIMING> .
<http://www.assero.co.uk/MDRSdtmM/CDISC/V3#M-CDISC_SDTMMODEL_xxENTPT> <http://www.assero.co.uk/BusinessDomain#typedAs> <http://www.assero.co.uk/MDRSdtmM/CDISC/V3#M-CDISC_SDTMMODEL_DT_CHAR> .
<http://www.assero.co.uk/MDRSdtmM/CDISC/V3#M-CDISC_SDTMMODEL_xxENTPT> <http://www.assero.co.uk/BusinessDomain#rule> "" .
<http://www.assero.co.uk/MDRSdtmM/CDISC/V3#M-CDISC_SDTMMODEL_xxENTPT> <http://www.assero.co.uk/BusinessDomain#ordinal> "36"^^<http://www.w3.org/2001/XMLSchema#integer> .
<http://www.assero.co.uk/MDRSdtmM/CDISC/V3#M-CDISC_SDTMMODEL_xxENTPT> <http://www.assero.co.uk/BusinessDomain#name> "--ENTPT" .
<http://www.assero.co.uk/MDRSdtmM/CDISC/V3#M-CDISC_SDTMMODEL_xxENTPT> <http://www.assero.co.uk/BusinessDomain#prefixed> "true"^^<http://www.w3.org/2001/XMLSchema#boolean> .
<http://www.assero.co.uk/MDRSdtmM/CDISC/V3#M-CDISC_SDTMMODEL_xxENTPT> <http://www.assero.co.uk/BusinessDomain#description> "Description or date/time in ISO 8601 or other character format of the sponsor-defined reference point referred to by --ENRTPT. Examples: \"2003-12-25\" or \"VISIT 2\"." .
<http://www.assero.co.uk/MDRSdtmM/CDISC/V3#M-CDISC_SDTMMODEL_xxSTINT> <http://www.w3.org/1999/02/22-rdf-syntax-ns#type> <http://www.assero.co.uk/BusinessDomain#ModelVariable> .
<http://www.assero.co.uk/MDRSdtmM/CDISC/V3#M-CDISC_SDTMMODEL_xxSTINT> <http://www.w3.org/2000/01/rdf-schema#label> "Planned Start of Assessment Interval" .
<http://www.assero.co.uk/MDRSdtmM/CDISC/V3#M-CDISC_SDTMMODEL_xxSTINT> <http://www.assero.co.uk/BusinessDomain#classifiedAs> <http://www.assero.co.uk/MDRSdtmM/CDISC/V3#M-CDISC_SDTMMODEL_C_TIMING> .
<http://www.assero.co.uk/MDRSdtmM/CDISC/V3#M-CDISC_SDTMMODEL_xxSTINT> <http://www.assero.co.uk/BusinessDomain#typedAs> <http://www.assero.co.uk/MDRSdtmM/CDISC/V3#M-CDISC_SDTMMODEL_DT_CHAR> .
<http://www.assero.co.uk/MDRSdtmM/CDISC/V3#M-CDISC_SDTMMODEL_xxSTINT> <http://www.assero.co.uk/BusinessDomain#rule> "" .
<http://www.assero.co.uk/MDRSdtmM/CDISC/V3#M-CDISC_SDTMMODEL_xxSTINT> <http://www.assero.co.uk/BusinessDomain#ordinal> "37"^^<http://www.w3.org/2001/XMLSchema#integer> .
<http://www.assero.co.uk/MDRSdtmM/CDISC/V3#M-CDISC_SDTMMODEL_xxSTINT> <http://www.assero.co.uk/BusinessDomain#name> "--STINT" .
<http://www.assero.co.uk/MDRSdtmM/CDISC/V3#M-CDISC_SDTMMODEL_xxSTINT> <http://www.assero.co.uk/BusinessDomain#prefixed> "true"^^<http://www.w3.org/2001/XMLSchema#boolean> .
<http://www.assero.co.uk/MDRSdtmM/CDISC/V3#M-CDISC_SDTMMODEL_xxSTINT> <http://www.assero.co.uk/BusinessDomain#description> "The start of a planned evaluation or assessment interval in ISO 8601 character format relative to the Time Point Reference (--TPTREF)." .
<http://www.assero.co.uk/MDRSdtmM/CDISC/V3#M-CDISC_SDTMMODEL_xxENINT> <http://www.w3.org/1999/02/22-rdf-syntax-ns#type> <http://www.assero.co.uk/BusinessDomain#ModelVariable> .
<http://www.assero.co.uk/MDRSdtmM/CDISC/V3#M-CDISC_SDTMMODEL_xxENINT> <http://www.w3.org/2000/01/rdf-schema#label> "Planned End of Assessment Interval" .
<http://www.assero.co.uk/MDRSdtmM/CDISC/V3#M-CDISC_SDTMMODEL_xxENINT> <http://www.assero.co.uk/BusinessDomain#classifiedAs> <http://www.assero.co.uk/MDRSdtmM/CDISC/V3#M-CDISC_SDTMMODEL_C_TIMING> .
<http://www.assero.co.uk/MDRSdtmM/CDISC/V3#M-CDISC_SDTMMODEL_xxENINT> <http://www.assero.co.uk/BusinessDomain#typedAs> <http://www.assero.co.uk/MDRSdtmM/CDISC/V3#M-CDISC_SDTMMODEL_DT_CHAR> .
<http://www.assero.co.uk/MDRSdtmM/CDISC/V3#M-CDISC_SDTMMODEL_xxENINT> <http://www.assero.co.uk/BusinessDomain#rule> "" .
<http://www.assero.co.uk/MDRSdtmM/CDISC/V3#M-CDISC_SDTMMODEL_xxENINT> <http://www.assero.co.uk/BusinessDomain#ordinal> "38"^^<http://www.w3.org/2001/XMLSchema#integer> .
<http://www.assero.co.uk/MDRSdtmM/CDISC/V3#M-CDISC_SDTMMODEL_xxENINT> <http://www.assero.co.uk/BusinessDomain#name> "--ENINT" .
<http://www.assero.co.uk/MDRSdtmM/CDISC/V3#M-CDISC_SDTMMODEL_xxENINT> <http://www.assero.co.uk/BusinessDomain#prefixed> "true"^^<http://www.w3.org/2001/XMLSchema#boolean> .
<http://www.assero.co.uk/MDRSdtmM/CDISC/V3#M-CDISC_SDTMMODEL_xxENINT> <http://www.assero.co.uk/BusinessDomain#description> "The end of a planned evaluation or assessment interval in ISO 8601 character format relative to the Time Point Reference (--TPTREF)." .
<http://www.assero.co.uk/MDRSdtmM/CDISC/V3#M-CDISC_SDTMMODEL_xxDETECT> <http://www.w3.org/1999/02/22-rdf-syntax-ns#type> <http://www.assero.co.uk/BusinessDomain#ModelVariable> .
<http://www.assero.co.uk/MDRSdtmM/CDISC/V3#M-CDISC_SDTMMODEL_xxDETECT> <http://www.w3.org/2000/01/rdf-schema#label> "Time in Days to Detection" .
<http://www.assero.co.uk/MDRSdtmM/CDISC/V3#M-CDISC_SDTMMODEL_xxDETECT> <http://www.assero.co.uk/BusinessDomain#classifiedAs> <http://www.assero.co.uk/MDRSdtmM/CDISC/V3#M-CDISC_SDTMMODEL_C_TIMING> .
<http://www.assero.co.uk/MDRSdtmM/CDISC/V3#M-CDISC_SDTMMODEL_xxDETECT> <http://www.assero.co.uk/BusinessDomain#typedAs> <http://www.assero.co.uk/MDRSdtmM/CDISC/V3#M-CDISC_SDTMMODEL_DT_NUM> .
<http://www.assero.co.uk/MDRSdtmM/CDISC/V3#M-CDISC_SDTMMODEL_xxDETECT> <http://www.assero.co.uk/BusinessDomain#rule> "" .
<http://www.assero.co.uk/MDRSdtmM/CDISC/V3#M-CDISC_SDTMMODEL_xxDETECT> <http://www.assero.co.uk/BusinessDomain#ordinal> "39"^^<http://www.w3.org/2001/XMLSchema#integer> .
<http://www.assero.co.uk/MDRSdtmM/CDISC/V3#M-CDISC_SDTMMODEL_xxDETECT> <http://www.assero.co.uk/BusinessDomain#name> "--DETECT" .
<http://www.assero.co.uk/MDRSdtmM/CDISC/V3#M-CDISC_SDTMMODEL_xxDETECT> <http://www.assero.co.uk/BusinessDomain#prefixed> "true"^^<http://www.w3.org/2001/XMLSchema#boolean> .
<http://www.assero.co.uk/MDRSdtmM/CDISC/V3#M-CDISC_SDTMMODEL_xxDETECT> <http://www.assero.co.uk/BusinessDomain#description> "The number of days from the start of dosing to the earliest detection of a condition or pathogen." .
<http://www.assero.co.uk/MDRSdtmM/CDISC/V3#M-CDISC_SDTMMODEL_APID> <http://www.w3.org/1999/02/22-rdf-syntax-ns#type> <http://www.assero.co.uk/BusinessDomain#ModelVariable> .
<http://www.assero.co.uk/MDRSdtmM/CDISC/V3#M-CDISC_SDTMMODEL_APID> <http://www.w3.org/2000/01/rdf-schema#label> "Associated Persons Identifier" .
<http://www.assero.co.uk/MDRSdtmM/CDISC/V3#M-CDISC_SDTMMODEL_APID> <http://www.assero.co.uk/BusinessDomain#classifiedAs> <http://www.assero.co.uk/MDRSdtmM/CDISC/V3#M-CDISC_SDTMMODEL_C_IDENTIFIER> .
<http://www.assero.co.uk/MDRSdtmM/CDISC/V3#M-CDISC_SDTMMODEL_APID> <http://www.assero.co.uk/BusinessDomain#typedAs> <http://www.assero.co.uk/MDRSdtmM/CDISC/V3#M-CDISC_SDTMMODEL_DT_CHAR> .
<http://www.assero.co.uk/MDRSdtmM/CDISC/V3#M-CDISC_SDTMMODEL_APID> <http://www.assero.co.uk/BusinessDomain#rule> "" .
<http://www.assero.co.uk/MDRSdtmM/CDISC/V3#M-CDISC_SDTMMODEL_APID> <http://www.assero.co.uk/BusinessDomain#ordinal> "1"^^<http://www.w3.org/2001/XMLSchema#integer> .
<http://www.assero.co.uk/MDRSdtmM/CDISC/V3#M-CDISC_SDTMMODEL_APID> <http://www.assero.co.uk/BusinessDomain#name> "APID" .
<http://www.assero.co.uk/MDRSdtmM/CDISC/V3#M-CDISC_SDTMMODEL_APID> <http://www.assero.co.uk/BusinessDomain#prefixed> "false"^^<http://www.w3.org/2001/XMLSchema#boolean> .
<http://www.assero.co.uk/MDRSdtmM/CDISC/V3#M-CDISC_SDTMMODEL_APID> <http://www.assero.co.uk/BusinessDomain#description> "Identifier for a single associated person, a group of associated persons, or a pool of associated persons. If APID identifies a pool, POOLDEF records must exist for each associated person." .
<http://www.assero.co.uk/MDRSdtmM/CDISC/V3#M-CDISC_SDTMMODEL_RSUBJID> <http://www.w3.org/1999/02/22-rdf-syntax-ns#type> <http://www.assero.co.uk/BusinessDomain#ModelVariable> .
<http://www.assero.co.uk/MDRSdtmM/CDISC/V3#M-CDISC_SDTMMODEL_RSUBJID> <http://www.w3.org/2000/01/rdf-schema#label> "Related Subject" .
<http://www.assero.co.uk/MDRSdtmM/CDISC/V3#M-CDISC_SDTMMODEL_RSUBJID> <http://www.assero.co.uk/BusinessDomain#classifiedAs> <http://www.assero.co.uk/MDRSdtmM/CDISC/V3#M-CDISC_SDTMMODEL_C_IDENTIFIER> .
<http://www.assero.co.uk/MDRSdtmM/CDISC/V3#M-CDISC_SDTMMODEL_RSUBJID> <http://www.assero.co.uk/BusinessDomain#typedAs> <http://www.assero.co.uk/MDRSdtmM/CDISC/V3#M-CDISC_SDTMMODEL_DT_CHAR> .
<http://www.assero.co.uk/MDRSdtmM/CDISC/V3#M-CDISC_SDTMMODEL_RSUBJID> <http://www.assero.co.uk/BusinessDomain#rule> "" .
<http://www.assero.co.uk/MDRSdtmM/CDISC/V3#M-CDISC_SDTMMODEL_RSUBJID> <http://www.assero.co.uk/BusinessDomain#ordinal> "2"^^<http://www.w3.org/2001/XMLSchema#integer> .
<http://www.assero.co.uk/MDRSdtmM/CDISC/V3#M-CDISC_SDTMMODEL_RSUBJID> <http://www.assero.co.uk/BusinessDomain#name> "RSUBJID" .
<http://www.assero.co.uk/MDRSdtmM/CDISC/V3#M-CDISC_SDTMMODEL_RSUBJID> <http://www.assero.co.uk/BusinessDomain#prefixed> "false"^^<http://www.w3.org/2001/XMLSchema#boolean> .
<http://www.assero.co.uk/MDRSdtmM/CDISC/V3#M-CDISC_SDTMMODEL_RSUBJID> <http://www.assero.co.uk/BusinessDomain#description> "Identifier for a related study subject or pool of study subjects. The subject(s) may be human or animal. RSUBJID will be populated with the USUBJID of the related subject or the POOLID of the related pool.\nRSUBJID will be null for data about associated persons who are related to the study but not to any of the study subjects." .
<http://www.assero.co.uk/MDRSdtmM/CDISC/V3#M-CDISC_SDTMMODEL_RDEVID> <http://www.w3.org/1999/02/22-rdf-syntax-ns#type> <http://www.assero.co.uk/BusinessDomain#ModelVariable> .
<http://www.assero.co.uk/MDRSdtmM/CDISC/V3#M-CDISC_SDTMMODEL_RDEVID> <http://www.w3.org/2000/01/rdf-schema#label> "Related Device" .
<http://www.assero.co.uk/MDRSdtmM/CDISC/V3#M-CDISC_SDTMMODEL_RDEVID> <http://www.assero.co.uk/BusinessDomain#classifiedAs> <http://www.assero.co.uk/MDRSdtmM/CDISC/V3#M-CDISC_SDTMMODEL_C_IDENTIFIER> .
<http://www.assero.co.uk/MDRSdtmM/CDISC/V3#M-CDISC_SDTMMODEL_RDEVID> <http://www.assero.co.uk/BusinessDomain#typedAs> <http://www.assero.co.uk/MDRSdtmM/CDISC/V3#M-CDISC_SDTMMODEL_DT_CHAR> .
<http://www.assero.co.uk/MDRSdtmM/CDISC/V3#M-CDISC_SDTMMODEL_RDEVID> <http://www.assero.co.uk/BusinessDomain#rule> "" .
<http://www.assero.co.uk/MDRSdtmM/CDISC/V3#M-CDISC_SDTMMODEL_RDEVID> <http://www.assero.co.uk/BusinessDomain#ordinal> "3"^^<http://www.w3.org/2001/XMLSchema#integer> .
<http://www.assero.co.uk/MDRSdtmM/CDISC/V3#M-CDISC_SDTMMODEL_RDEVID> <http://www.assero.co.uk/BusinessDomain#name> "RDEVID" .
<http://www.assero.co.uk/MDRSdtmM/CDISC/V3#M-CDISC_SDTMMODEL_RDEVID> <http://www.assero.co.uk/BusinessDomain#prefixed> "false"^^<http://www.w3.org/2001/XMLSchema#boolean> .
<http://www.assero.co.uk/MDRSdtmM/CDISC/V3#M-CDISC_SDTMMODEL_RDEVID> <http://www.assero.co.uk/BusinessDomain#description> "Identifier for a related device. RDEVID will be populated with the SPDEVID of the related device" .
<http://www.assero.co.uk/MDRSdtmM/CDISC/V3#M-CDISC_SDTMMODEL_SREL> <http://www.w3.org/1999/02/22-rdf-syntax-ns#type> <http://www.assero.co.uk/BusinessDomain#ModelVariable> .
<http://www.assero.co.uk/MDRSdtmM/CDISC/V3#M-CDISC_SDTMMODEL_SREL> <http://www.w3.org/2000/01/rdf-schema#label> "Subject, Device, or Study Relationship" .
<http://www.assero.co.uk/MDRSdtmM/CDISC/V3#M-CDISC_SDTMMODEL_SREL> <http://www.assero.co.uk/BusinessDomain#classifiedAs> <http://www.assero.co.uk/MDRSdtmM/CDISC/V3#M-CDISC_SDTMMODEL_SC_RECORDQUALIFIER> .
<http://www.assero.co.uk/MDRSdtmM/CDISC/V3#M-CDISC_SDTMMODEL_SREL> <http://www.assero.co.uk/BusinessDomain#typedAs> <http://www.assero.co.uk/MDRSdtmM/CDISC/V3#M-CDISC_SDTMMODEL_DT_CHAR> .
<http://www.assero.co.uk/MDRSdtmM/CDISC/V3#M-CDISC_SDTMMODEL_SREL> <http://www.assero.co.uk/BusinessDomain#rule> "" .
<http://www.assero.co.uk/MDRSdtmM/CDISC/V3#M-CDISC_SDTMMODEL_SREL> <http://www.assero.co.uk/BusinessDomain#ordinal> "4"^^<http://www.w3.org/2001/XMLSchema#integer> .
<http://www.assero.co.uk/MDRSdtmM/CDISC/V3#M-CDISC_SDTMMODEL_SREL> <http://www.assero.co.uk/BusinessDomain#name> "SREL" .
<http://www.assero.co.uk/MDRSdtmM/CDISC/V3#M-CDISC_SDTMMODEL_SREL> <http://www.assero.co.uk/BusinessDomain#prefixed> "false"^^<http://www.w3.org/2001/XMLSchema#boolean> .
<http://www.assero.co.uk/MDRSdtmM/CDISC/V3#M-CDISC_SDTMMODEL_SREL> <http://www.assero.co.uk/BusinessDomain#description> "If RSUBJID is populated, describes the relationship of the associated person(s) identified in APID to the subject or pool identified in RSUBJID.\nIf RDEVID is populated, describes the relationship of the associated person(s) identified in APID to the device identified in RDEVID. \nIf RSUBJID and RDEVID are null, SREL describes the relationship of the associated person(s) identified in APID to the study identified in STUDYID." .
<http://www.assero.co.uk/MDRSdtmM/CDISC/V3#M-CDISC_SDTMMODEL_SC_RECORDQUALIFIER> <http://www.w3.org/1999/02/22-rdf-syntax-ns#type> <http://www.assero.co.uk/BusinessDomain#VariableClassification> .
<http://www.assero.co.uk/MDRSdtmM/CDISC/V3#M-CDISC_SDTMMODEL_SC_RECORDQUALIFIER> <http://www.w3.org/2000/01/rdf-schema#label> "Record Qualifier" .
<http://www.assero.co.uk/MDRSdtmM/CDISC/V3#M-CDISC_SDTMMODEL_SC_RECORDQUALIFIER> <http://www.assero.co.uk/BusinessDomain#parentClassification> <http://www.assero.co.uk/MDRSdtmM/CDISC/V3#M-CDISC_SDTMMODEL_C_QUALIFIER> .
<http://www.assero.co.uk/MDRSdtmM/CDISC/V3#M-CDISC_SDTMMODEL_xxTERM> <http://www.w3.org/1999/02/22-rdf-syntax-ns#type> <http://www.assero.co.uk/BusinessDomain#ModelVariable> .
<http://www.assero.co.uk/MDRSdtmM/CDISC/V3#M-CDISC_SDTMMODEL_xxTERM> <http://www.w3.org/2000/01/rdf-schema#label> "Reported Term" .
<http://www.assero.co.uk/MDRSdtmM/CDISC/V3#M-CDISC_SDTMMODEL_xxTERM> <http://www.assero.co.uk/BusinessDomain#classifiedAs> <http://www.assero.co.uk/MDRSdtmM/CDISC/V3#M-CDISC_SDTMMODEL_C_TOPIC> .
<http://www.assero.co.uk/MDRSdtmM/CDISC/V3#M-CDISC_SDTMMODEL_xxTERM> <http://www.assero.co.uk/BusinessDomain#typedAs> <http://www.assero.co.uk/MDRSdtmM/CDISC/V3#M-CDISC_SDTMMODEL_DT_CHAR> .
<http://www.assero.co.uk/MDRSdtmM/CDISC/V3#M-CDISC_SDTMMODEL_xxTERM> <http://www.assero.co.uk/BusinessDomain#rule> "" .
<http://www.assero.co.uk/MDRSdtmM/CDISC/V3#M-CDISC_SDTMMODEL_xxTERM> <http://www.assero.co.uk/BusinessDomain#ordinal> "1"^^<http://www.w3.org/2001/XMLSchema#integer> .
<http://www.assero.co.uk/MDRSdtmM/CDISC/V3#M-CDISC_SDTMMODEL_xxTERM> <http://www.assero.co.uk/BusinessDomain#name> "--TERM" .
<http://www.assero.co.uk/MDRSdtmM/CDISC/V3#M-CDISC_SDTMMODEL_xxTERM> <http://www.assero.co.uk/BusinessDomain#prefixed> "true"^^<http://www.w3.org/2001/XMLSchema#boolean> .
<http://www.assero.co.uk/MDRSdtmM/CDISC/V3#M-CDISC_SDTMMODEL_xxTERM> <http://www.assero.co.uk/BusinessDomain#description> "Topic variable for an event observation, which is the verbatim or pre-specified name of the event." .
<http://www.assero.co.uk/MDRSdtmM/CDISC/V3#M-CDISC_SDTMMODEL_C_TOPIC> <http://www.w3.org/1999/02/22-rdf-syntax-ns#type> <http://www.assero.co.uk/BusinessDomain#VariableClassification> .
<http://www.assero.co.uk/MDRSdtmM/CDISC/V3#M-CDISC_SDTMMODEL_C_TOPIC> <http://www.w3.org/2000/01/rdf-schema#label> "Topic" .
<http://www.assero.co.uk/MDRSdtmM/CDISC/V3#M-CDISC_SDTMMODEL_xxMODIFY> <http://www.w3.org/1999/02/22-rdf-syntax-ns#type> <http://www.assero.co.uk/BusinessDomain#ModelVariable> .
<http://www.assero.co.uk/MDRSdtmM/CDISC/V3#M-CDISC_SDTMMODEL_xxMODIFY> <http://www.w3.org/2000/01/rdf-schema#label> "Modified Reported Term" .
<http://www.assero.co.uk/MDRSdtmM/CDISC/V3#M-CDISC_SDTMMODEL_xxMODIFY> <http://www.w3.org/2000/01/rdf-schema#label> "Modified Term" .
<http://www.assero.co.uk/MDRSdtmM/CDISC/V3#M-CDISC_SDTMMODEL_xxMODIFY> <http://www.w3.org/2000/01/rdf-schema#label> "Modified Treatment Name" .
<http://www.assero.co.uk/MDRSdtmM/CDISC/V3#M-CDISC_SDTMMODEL_xxMODIFY> <http://www.assero.co.uk/BusinessDomain#classifiedAs> <http://www.assero.co.uk/MDRSdtmM/CDISC/V3#M-CDISC_SDTMMODEL_SC_SYNONYMQUALIFIER> .
<http://www.assero.co.uk/MDRSdtmM/CDISC/V3#M-CDISC_SDTMMODEL_xxMODIFY> <http://www.assero.co.uk/BusinessDomain#typedAs> <http://www.assero.co.uk/MDRSdtmM/CDISC/V3#M-CDISC_SDTMMODEL_DT_CHAR> .
<http://www.assero.co.uk/MDRSdtmM/CDISC/V3#M-CDISC_SDTMMODEL_xxMODIFY> <http://www.assero.co.uk/BusinessDomain#rule> "" .
<http://www.assero.co.uk/MDRSdtmM/CDISC/V3#M-CDISC_SDTMMODEL_xxMODIFY> <http://www.assero.co.uk/BusinessDomain#ordinal> "2"^^<http://www.w3.org/2001/XMLSchema#integer> .
<http://www.assero.co.uk/MDRSdtmM/CDISC/V3#M-CDISC_SDTMMODEL_xxMODIFY> <http://www.assero.co.uk/BusinessDomain#ordinal> "3"^^<http://www.w3.org/2001/XMLSchema#integer> .
<http://www.assero.co.uk/MDRSdtmM/CDISC/V3#M-CDISC_SDTMMODEL_xxMODIFY> <http://www.assero.co.uk/BusinessDomain#name> "--MODIFY" .
<http://www.assero.co.uk/MDRSdtmM/CDISC/V3#M-CDISC_SDTMMODEL_xxMODIFY> <http://www.assero.co.uk/BusinessDomain#prefixed> "true"^^<http://www.w3.org/2001/XMLSchema#boolean> .
<http://www.assero.co.uk/MDRSdtmM/CDISC/V3#M-CDISC_SDTMMODEL_xxMODIFY> <http://www.assero.co.uk/BusinessDomain#description> "If the value for --TERM is modified for coding purposes, then the modified text is placed here." .
<http://www.assero.co.uk/MDRSdtmM/CDISC/V3#M-CDISC_SDTMMODEL_xxMODIFY> <http://www.assero.co.uk/BusinessDomain#description> "If the value of --ORRES is modified for coding purposes, then the modified text is placed here." .
<http://www.assero.co.uk/MDRSdtmM/CDISC/V3#M-CDISC_SDTMMODEL_xxMODIFY> <http://www.assero.co.uk/BusinessDomain#description> "If the value for --TRT is modified for coding purposes, then the modified text is placed here." .
<http://www.assero.co.uk/MDRSdtmM/CDISC/V3#M-CDISC_SDTMMODEL_SC_SYNONYMQUALIFIER> <http://www.w3.org/1999/02/22-rdf-syntax-ns#type> <http://www.assero.co.uk/BusinessDomain#VariableClassification> .
<http://www.assero.co.uk/MDRSdtmM/CDISC/V3#M-CDISC_SDTMMODEL_SC_SYNONYMQUALIFIER> <http://www.w3.org/2000/01/rdf-schema#label> "Synonym Qualifier" .
<http://www.assero.co.uk/MDRSdtmM/CDISC/V3#M-CDISC_SDTMMODEL_SC_SYNONYMQUALIFIER> <http://www.assero.co.uk/BusinessDomain#parentClassification> <http://www.assero.co.uk/MDRSdtmM/CDISC/V3#M-CDISC_SDTMMODEL_C_QUALIFIER> .
<http://www.assero.co.uk/MDRSdtmM/CDISC/V3#M-CDISC_SDTMMODEL_xxLLT> <http://www.w3.org/1999/02/22-rdf-syntax-ns#type> <http://www.assero.co.uk/BusinessDomain#ModelVariable> .
<http://www.assero.co.uk/MDRSdtmM/CDISC/V3#M-CDISC_SDTMMODEL_xxLLT> <http://www.w3.org/2000/01/rdf-schema#label> "Lowest Level Term" .
<http://www.assero.co.uk/MDRSdtmM/CDISC/V3#M-CDISC_SDTMMODEL_xxLLT> <http://www.assero.co.uk/BusinessDomain#classifiedAs> <http://www.assero.co.uk/MDRSdtmM/CDISC/V3#M-CDISC_SDTMMODEL_SC_VARIABLEQUALIFIER> .
<http://www.assero.co.uk/MDRSdtmM/CDISC/V3#M-CDISC_SDTMMODEL_xxLLT> <http://www.assero.co.uk/BusinessDomain#typedAs> <http://www.assero.co.uk/MDRSdtmM/CDISC/V3#M-CDISC_SDTMMODEL_DT_CHAR> .
<http://www.assero.co.uk/MDRSdtmM/CDISC/V3#M-CDISC_SDTMMODEL_xxLLT> <http://www.assero.co.uk/BusinessDomain#rule> "" .
<http://www.assero.co.uk/MDRSdtmM/CDISC/V3#M-CDISC_SDTMMODEL_xxLLT> <http://www.assero.co.uk/BusinessDomain#ordinal> "3"^^<http://www.w3.org/2001/XMLSchema#integer> .
<http://www.assero.co.uk/MDRSdtmM/CDISC/V3#M-CDISC_SDTMMODEL_xxLLT> <http://www.assero.co.uk/BusinessDomain#name> "--LLT" .
<http://www.assero.co.uk/MDRSdtmM/CDISC/V3#M-CDISC_SDTMMODEL_xxLLT> <http://www.assero.co.uk/BusinessDomain#prefixed> "true"^^<http://www.w3.org/2001/XMLSchema#boolean> .
<http://www.assero.co.uk/MDRSdtmM/CDISC/V3#M-CDISC_SDTMMODEL_xxLLT> <http://www.assero.co.uk/BusinessDomain#description> "MedDRA Lowest Level Term." .
<http://www.assero.co.uk/MDRSdtmM/CDISC/V3#M-CDISC_SDTMMODEL_SC_VARIABLEQUALIFIER> <http://www.w3.org/1999/02/22-rdf-syntax-ns#type> <http://www.assero.co.uk/BusinessDomain#VariableClassification> .
<http://www.assero.co.uk/MDRSdtmM/CDISC/V3#M-CDISC_SDTMMODEL_SC_VARIABLEQUALIFIER> <http://www.w3.org/2000/01/rdf-schema#label> "Variable Qualifier" .
<http://www.assero.co.uk/MDRSdtmM/CDISC/V3#M-CDISC_SDTMMODEL_SC_VARIABLEQUALIFIER> <http://www.assero.co.uk/BusinessDomain#parentClassification> <http://www.assero.co.uk/MDRSdtmM/CDISC/V3#M-CDISC_SDTMMODEL_C_QUALIFIER> .
<http://www.assero.co.uk/MDRSdtmM/CDISC/V3#M-CDISC_SDTMMODEL_xxLLTCD> <http://www.w3.org/1999/02/22-rdf-syntax-ns#type> <http://www.assero.co.uk/BusinessDomain#ModelVariable> .
<http://www.assero.co.uk/MDRSdtmM/CDISC/V3#M-CDISC_SDTMMODEL_xxLLTCD> <http://www.w3.org/2000/01/rdf-schema#label> "Lowest Level Term Code" .
<http://www.assero.co.uk/MDRSdtmM/CDISC/V3#M-CDISC_SDTMMODEL_xxLLTCD> <http://www.assero.co.uk/BusinessDomain#classifiedAs> <http://www.assero.co.uk/MDRSdtmM/CDISC/V3#M-CDISC_SDTMMODEL_SC_VARIABLEQUALIFIER> .
<http://www.assero.co.uk/MDRSdtmM/CDISC/V3#M-CDISC_SDTMMODEL_xxLLTCD> <http://www.assero.co.uk/BusinessDomain#typedAs> <http://www.assero.co.uk/MDRSdtmM/CDISC/V3#M-CDISC_SDTMMODEL_DT_NUM> .
<http://www.assero.co.uk/MDRSdtmM/CDISC/V3#M-CDISC_SDTMMODEL_xxLLTCD> <http://www.assero.co.uk/BusinessDomain#rule> "" .
<http://www.assero.co.uk/MDRSdtmM/CDISC/V3#M-CDISC_SDTMMODEL_xxLLTCD> <http://www.assero.co.uk/BusinessDomain#ordinal> "4"^^<http://www.w3.org/2001/XMLSchema#integer> .
<http://www.assero.co.uk/MDRSdtmM/CDISC/V3#M-CDISC_SDTMMODEL_xxLLTCD> <http://www.assero.co.uk/BusinessDomain#name> "--LLTCD" .
<http://www.assero.co.uk/MDRSdtmM/CDISC/V3#M-CDISC_SDTMMODEL_xxLLTCD> <http://www.assero.co.uk/BusinessDomain#prefixed> "true"^^<http://www.w3.org/2001/XMLSchema#boolean> .
<http://www.assero.co.uk/MDRSdtmM/CDISC/V3#M-CDISC_SDTMMODEL_xxLLTCD> <http://www.assero.co.uk/BusinessDomain#description> "MedDRA Lowest Level Term code." .
<http://www.assero.co.uk/MDRSdtmM/CDISC/V3#M-CDISC_SDTMMODEL_xxDECOD> <http://www.w3.org/1999/02/22-rdf-syntax-ns#type> <http://www.assero.co.uk/BusinessDomain#ModelVariable> .
<http://www.assero.co.uk/MDRSdtmM/CDISC/V3#M-CDISC_SDTMMODEL_xxDECOD> <http://www.w3.org/2000/01/rdf-schema#label> "Dictionary-Derived Term" .
<http://www.assero.co.uk/MDRSdtmM/CDISC/V3#M-CDISC_SDTMMODEL_xxDECOD> <http://www.w3.org/2000/01/rdf-schema#label> "Standardized Treatment Name" .
<http://www.assero.co.uk/MDRSdtmM/CDISC/V3#M-CDISC_SDTMMODEL_xxDECOD> <http://www.assero.co.uk/BusinessDomain#classifiedAs> <http://www.assero.co.uk/MDRSdtmM/CDISC/V3#M-CDISC_SDTMMODEL_SC_SYNONYMQUALIFIER> .
<http://www.assero.co.uk/MDRSdtmM/CDISC/V3#M-CDISC_SDTMMODEL_xxDECOD> <http://www.assero.co.uk/BusinessDomain#typedAs> <http://www.assero.co.uk/MDRSdtmM/CDISC/V3#M-CDISC_SDTMMODEL_DT_CHAR> .
<http://www.assero.co.uk/MDRSdtmM/CDISC/V3#M-CDISC_SDTMMODEL_xxDECOD> <http://www.assero.co.uk/BusinessDomain#rule> "" .
<http://www.assero.co.uk/MDRSdtmM/CDISC/V3#M-CDISC_SDTMMODEL_xxDECOD> <http://www.assero.co.uk/BusinessDomain#ordinal> "3"^^<http://www.w3.org/2001/XMLSchema#integer> .
<http://www.assero.co.uk/MDRSdtmM/CDISC/V3#M-CDISC_SDTMMODEL_xxDECOD> <http://www.assero.co.uk/BusinessDomain#ordinal> "5"^^<http://www.w3.org/2001/XMLSchema#integer> .
<http://www.assero.co.uk/MDRSdtmM/CDISC/V3#M-CDISC_SDTMMODEL_xxDECOD> <http://www.assero.co.uk/BusinessDomain#name> "--DECOD" .
<http://www.assero.co.uk/MDRSdtmM/CDISC/V3#M-CDISC_SDTMMODEL_xxDECOD> <http://www.assero.co.uk/BusinessDomain#prefixed> "true"^^<http://www.w3.org/2001/XMLSchema#boolean> .
<http://www.assero.co.uk/MDRSdtmM/CDISC/V3#M-CDISC_SDTMMODEL_xxDECOD> <http://www.assero.co.uk/BusinessDomain#description> "Dictionary or sponsor-defined derived text description of the topic variable, --TERM, or the modified topic variable (--MODIFY), if applicable. Equivalent to the Preferred Term (PT in MedDRA)." .
<http://www.assero.co.uk/MDRSdtmM/CDISC/V3#M-CDISC_SDTMMODEL_xxDECOD> <http://www.assero.co.uk/BusinessDomain#description> "Standardized or dictionary-derived name of the topic variable, --TRT, or the modified topic variable (--MODIFY), if applicable. Equivalent to the generic drug name in WHO Drug, or a term in SNOMED, ICD9, or other published or sponsor-defined dictionaries." .
<http://www.assero.co.uk/MDRSdtmM/CDISC/V3#M-CDISC_SDTMMODEL_xxPTCD> <http://www.w3.org/1999/02/22-rdf-syntax-ns#type> <http://www.assero.co.uk/BusinessDomain#ModelVariable> .
<http://www.assero.co.uk/MDRSdtmM/CDISC/V3#M-CDISC_SDTMMODEL_xxPTCD> <http://www.w3.org/2000/01/rdf-schema#label> "Preferred Term Code" .
<http://www.assero.co.uk/MDRSdtmM/CDISC/V3#M-CDISC_SDTMMODEL_xxPTCD> <http://www.assero.co.uk/BusinessDomain#classifiedAs> <http://www.assero.co.uk/MDRSdtmM/CDISC/V3#M-CDISC_SDTMMODEL_SC_VARIABLEQUALIFIER> .
<http://www.assero.co.uk/MDRSdtmM/CDISC/V3#M-CDISC_SDTMMODEL_xxPTCD> <http://www.assero.co.uk/BusinessDomain#typedAs> <http://www.assero.co.uk/MDRSdtmM/CDISC/V3#M-CDISC_SDTMMODEL_DT_NUM> .
<http://www.assero.co.uk/MDRSdtmM/CDISC/V3#M-CDISC_SDTMMODEL_xxPTCD> <http://www.assero.co.uk/BusinessDomain#rule> "" .
<http://www.assero.co.uk/MDRSdtmM/CDISC/V3#M-CDISC_SDTMMODEL_xxPTCD> <http://www.assero.co.uk/BusinessDomain#ordinal> "6"^^<http://www.w3.org/2001/XMLSchema#integer> .
<http://www.assero.co.uk/MDRSdtmM/CDISC/V3#M-CDISC_SDTMMODEL_xxPTCD> <http://www.assero.co.uk/BusinessDomain#name> "--PTCD" .
<http://www.assero.co.uk/MDRSdtmM/CDISC/V3#M-CDISC_SDTMMODEL_xxPTCD> <http://www.assero.co.uk/BusinessDomain#prefixed> "true"^^<http://www.w3.org/2001/XMLSchema#boolean> .
<http://www.assero.co.uk/MDRSdtmM/CDISC/V3#M-CDISC_SDTMMODEL_xxPTCD> <http://www.assero.co.uk/BusinessDomain#description> "MedDRA Preferred Term code." .
<http://www.assero.co.uk/MDRSdtmM/CDISC/V3#M-CDISC_SDTMMODEL_xxHLT> <http://www.w3.org/1999/02/22-rdf-syntax-ns#type> <http://www.assero.co.uk/BusinessDomain#ModelVariable> .
<http://www.assero.co.uk/MDRSdtmM/CDISC/V3#M-CDISC_SDTMMODEL_xxHLT> <http://www.w3.org/2000/01/rdf-schema#label> "High Level Term" .
<http://www.assero.co.uk/MDRSdtmM/CDISC/V3#M-CDISC_SDTMMODEL_xxHLT> <http://www.assero.co.uk/BusinessDomain#classifiedAs> <http://www.assero.co.uk/MDRSdtmM/CDISC/V3#M-CDISC_SDTMMODEL_SC_VARIABLEQUALIFIER> .
<http://www.assero.co.uk/MDRSdtmM/CDISC/V3#M-CDISC_SDTMMODEL_xxHLT> <http://www.assero.co.uk/BusinessDomain#typedAs> <http://www.assero.co.uk/MDRSdtmM/CDISC/V3#M-CDISC_SDTMMODEL_DT_CHAR> .
<http://www.assero.co.uk/MDRSdtmM/CDISC/V3#M-CDISC_SDTMMODEL_xxHLT> <http://www.assero.co.uk/BusinessDomain#rule> "" .
<http://www.assero.co.uk/MDRSdtmM/CDISC/V3#M-CDISC_SDTMMODEL_xxHLT> <http://www.assero.co.uk/BusinessDomain#ordinal> "7"^^<http://www.w3.org/2001/XMLSchema#integer> .
<http://www.assero.co.uk/MDRSdtmM/CDISC/V3#M-CDISC_SDTMMODEL_xxHLT> <http://www.assero.co.uk/BusinessDomain#name> "--HLT" .
<http://www.assero.co.uk/MDRSdtmM/CDISC/V3#M-CDISC_SDTMMODEL_xxHLT> <http://www.assero.co.uk/BusinessDomain#prefixed> "true"^^<http://www.w3.org/2001/XMLSchema#boolean> .
<http://www.assero.co.uk/MDRSdtmM/CDISC/V3#M-CDISC_SDTMMODEL_xxHLT> <http://www.assero.co.uk/BusinessDomain#description> "MedDRA High Level Term from the primary path." .
<http://www.assero.co.uk/MDRSdtmM/CDISC/V3#M-CDISC_SDTMMODEL_xxHLTCD> <http://www.w3.org/1999/02/22-rdf-syntax-ns#type> <http://www.assero.co.uk/BusinessDomain#ModelVariable> .
<http://www.assero.co.uk/MDRSdtmM/CDISC/V3#M-CDISC_SDTMMODEL_xxHLTCD> <http://www.w3.org/2000/01/rdf-schema#label> "High Level Term Code" .
<http://www.assero.co.uk/MDRSdtmM/CDISC/V3#M-CDISC_SDTMMODEL_xxHLTCD> <http://www.assero.co.uk/BusinessDomain#classifiedAs> <http://www.assero.co.uk/MDRSdtmM/CDISC/V3#M-CDISC_SDTMMODEL_SC_VARIABLEQUALIFIER> .
<http://www.assero.co.uk/MDRSdtmM/CDISC/V3#M-CDISC_SDTMMODEL_xxHLTCD> <http://www.assero.co.uk/BusinessDomain#typedAs> <http://www.assero.co.uk/MDRSdtmM/CDISC/V3#M-CDISC_SDTMMODEL_DT_NUM> .
<http://www.assero.co.uk/MDRSdtmM/CDISC/V3#M-CDISC_SDTMMODEL_xxHLTCD> <http://www.assero.co.uk/BusinessDomain#rule> "" .
<http://www.assero.co.uk/MDRSdtmM/CDISC/V3#M-CDISC_SDTMMODEL_xxHLTCD> <http://www.assero.co.uk/BusinessDomain#ordinal> "8"^^<http://www.w3.org/2001/XMLSchema#integer> .
<http://www.assero.co.uk/MDRSdtmM/CDISC/V3#M-CDISC_SDTMMODEL_xxHLTCD> <http://www.assero.co.uk/BusinessDomain#name> "--HLTCD" .
<http://www.assero.co.uk/MDRSdtmM/CDISC/V3#M-CDISC_SDTMMODEL_xxHLTCD> <http://www.assero.co.uk/BusinessDomain#prefixed> "true"^^<http://www.w3.org/2001/XMLSchema#boolean> .
<http://www.assero.co.uk/MDRSdtmM/CDISC/V3#M-CDISC_SDTMMODEL_xxHLTCD> <http://www.assero.co.uk/BusinessDomain#description> "MedDRA High Level Term code from the primary path." .
<http://www.assero.co.uk/MDRSdtmM/CDISC/V3#M-CDISC_SDTMMODEL_xxHLGT> <http://www.w3.org/1999/02/22-rdf-syntax-ns#type> <http://www.assero.co.uk/BusinessDomain#ModelVariable> .
<http://www.assero.co.uk/MDRSdtmM/CDISC/V3#M-CDISC_SDTMMODEL_xxHLGT> <http://www.w3.org/2000/01/rdf-schema#label> "High Level Group Term" .
<http://www.assero.co.uk/MDRSdtmM/CDISC/V3#M-CDISC_SDTMMODEL_xxHLGT> <http://www.assero.co.uk/BusinessDomain#classifiedAs> <http://www.assero.co.uk/MDRSdtmM/CDISC/V3#M-CDISC_SDTMMODEL_SC_VARIABLEQUALIFIER> .
<http://www.assero.co.uk/MDRSdtmM/CDISC/V3#M-CDISC_SDTMMODEL_xxHLGT> <http://www.assero.co.uk/BusinessDomain#typedAs> <http://www.assero.co.uk/MDRSdtmM/CDISC/V3#M-CDISC_SDTMMODEL_DT_CHAR> .
<http://www.assero.co.uk/MDRSdtmM/CDISC/V3#M-CDISC_SDTMMODEL_xxHLGT> <http://www.assero.co.uk/BusinessDomain#rule> "" .
<http://www.assero.co.uk/MDRSdtmM/CDISC/V3#M-CDISC_SDTMMODEL_xxHLGT> <http://www.assero.co.uk/BusinessDomain#ordinal> "9"^^<http://www.w3.org/2001/XMLSchema#integer> .
<http://www.assero.co.uk/MDRSdtmM/CDISC/V3#M-CDISC_SDTMMODEL_xxHLGT> <http://www.assero.co.uk/BusinessDomain#name> "--HLGT" .
<http://www.assero.co.uk/MDRSdtmM/CDISC/V3#M-CDISC_SDTMMODEL_xxHLGT> <http://www.assero.co.uk/BusinessDomain#prefixed> "true"^^<http://www.w3.org/2001/XMLSchema#boolean> .
<http://www.assero.co.uk/MDRSdtmM/CDISC/V3#M-CDISC_SDTMMODEL_xxHLGT> <http://www.assero.co.uk/BusinessDomain#description> "MedDRA High Level Group Term from the primary path." .
<http://www.assero.co.uk/MDRSdtmM/CDISC/V3#M-CDISC_SDTMMODEL_xxHLGTCD> <http://www.w3.org/1999/02/22-rdf-syntax-ns#type> <http://www.assero.co.uk/BusinessDomain#ModelVariable> .
<http://www.assero.co.uk/MDRSdtmM/CDISC/V3#M-CDISC_SDTMMODEL_xxHLGTCD> <http://www.w3.org/2000/01/rdf-schema#label> "High Level Group Term Code" .
<http://www.assero.co.uk/MDRSdtmM/CDISC/V3#M-CDISC_SDTMMODEL_xxHLGTCD> <http://www.assero.co.uk/BusinessDomain#classifiedAs> <http://www.assero.co.uk/MDRSdtmM/CDISC/V3#M-CDISC_SDTMMODEL_SC_VARIABLEQUALIFIER> .
<http://www.assero.co.uk/MDRSdtmM/CDISC/V3#M-CDISC_SDTMMODEL_xxHLGTCD> <http://www.assero.co.uk/BusinessDomain#typedAs> <http://www.assero.co.uk/MDRSdtmM/CDISC/V3#M-CDISC_SDTMMODEL_DT_NUM> .
<http://www.assero.co.uk/MDRSdtmM/CDISC/V3#M-CDISC_SDTMMODEL_xxHLGTCD> <http://www.assero.co.uk/BusinessDomain#rule> "" .
<http://www.assero.co.uk/MDRSdtmM/CDISC/V3#M-CDISC_SDTMMODEL_xxHLGTCD> <http://www.assero.co.uk/BusinessDomain#ordinal> "10"^^<http://www.w3.org/2001/XMLSchema#integer> .
<http://www.assero.co.uk/MDRSdtmM/CDISC/V3#M-CDISC_SDTMMODEL_xxHLGTCD> <http://www.assero.co.uk/BusinessDomain#name> "--HLGTCD" .
<http://www.assero.co.uk/MDRSdtmM/CDISC/V3#M-CDISC_SDTMMODEL_xxHLGTCD> <http://www.assero.co.uk/BusinessDomain#prefixed> "true"^^<http://www.w3.org/2001/XMLSchema#boolean> .
<http://www.assero.co.uk/MDRSdtmM/CDISC/V3#M-CDISC_SDTMMODEL_xxHLGTCD> <http://www.assero.co.uk/BusinessDomain#description> "MedDRA High Level Group Term code from the primary path." .
<http://www.assero.co.uk/MDRSdtmM/CDISC/V3#M-CDISC_SDTMMODEL_xxCAT> <http://www.w3.org/1999/02/22-rdf-syntax-ns#type> <http://www.assero.co.uk/BusinessDomain#ModelVariable> .
<http://www.assero.co.uk/MDRSdtmM/CDISC/V3#M-CDISC_SDTMMODEL_xxCAT> <http://www.w3.org/2000/01/rdf-schema#label> "Category" .
<http://www.assero.co.uk/MDRSdtmM/CDISC/V3#M-CDISC_SDTMMODEL_xxCAT> <http://www.assero.co.uk/BusinessDomain#classifiedAs> <http://www.assero.co.uk/MDRSdtmM/CDISC/V3#M-CDISC_SDTMMODEL_SC_GROUPINGQUALIFIER> .
<http://www.assero.co.uk/MDRSdtmM/CDISC/V3#M-CDISC_SDTMMODEL_xxCAT> <http://www.assero.co.uk/BusinessDomain#typedAs> <http://www.assero.co.uk/MDRSdtmM/CDISC/V3#M-CDISC_SDTMMODEL_DT_CHAR> .
<http://www.assero.co.uk/MDRSdtmM/CDISC/V3#M-CDISC_SDTMMODEL_xxCAT> <http://www.assero.co.uk/BusinessDomain#rule> "" .
<http://www.assero.co.uk/MDRSdtmM/CDISC/V3#M-CDISC_SDTMMODEL_xxCAT> <http://www.assero.co.uk/BusinessDomain#ordinal> "5"^^<http://www.w3.org/2001/XMLSchema#integer> .
<http://www.assero.co.uk/MDRSdtmM/CDISC/V3#M-CDISC_SDTMMODEL_xxCAT> <http://www.assero.co.uk/BusinessDomain#ordinal> "11"^^<http://www.w3.org/2001/XMLSchema#integer> .
<http://www.assero.co.uk/MDRSdtmM/CDISC/V3#M-CDISC_SDTMMODEL_xxCAT> <http://www.assero.co.uk/BusinessDomain#name> "--CAT" .
<http://www.assero.co.uk/MDRSdtmM/CDISC/V3#M-CDISC_SDTMMODEL_xxCAT> <http://www.assero.co.uk/BusinessDomain#prefixed> "true"^^<http://www.w3.org/2001/XMLSchema#boolean> .
<http://www.assero.co.uk/MDRSdtmM/CDISC/V3#M-CDISC_SDTMMODEL_xxCAT> <http://www.assero.co.uk/BusinessDomain#description> "Used to define a category of topic-variable values." .
<http://www.assero.co.uk/MDRSdtmM/CDISC/V3#M-CDISC_SDTMMODEL_xxCAT> <http://www.assero.co.uk/BusinessDomain#description> "Used to define a category of topic-variable values. Examples: HEMATOLOGY, URINALYSIS, CHEMISTRY, HAMILTON DEPRESSION SCALE, SF36, MICRO ARRAY, EGFR MUTATION ANALYSIS" .
<http://www.assero.co.uk/MDRSdtmM/CDISC/V3#M-CDISC_SDTMMODEL_SC_GROUPINGQUALIFIER> <http://www.w3.org/1999/02/22-rdf-syntax-ns#type> <http://www.assero.co.uk/BusinessDomain#VariableClassification> .
<http://www.assero.co.uk/MDRSdtmM/CDISC/V3#M-CDISC_SDTMMODEL_SC_GROUPINGQUALIFIER> <http://www.w3.org/2000/01/rdf-schema#label> "Grouping Qualifier" .
<http://www.assero.co.uk/MDRSdtmM/CDISC/V3#M-CDISC_SDTMMODEL_SC_GROUPINGQUALIFIER> <http://www.assero.co.uk/BusinessDomain#parentClassification> <http://www.assero.co.uk/MDRSdtmM/CDISC/V3#M-CDISC_SDTMMODEL_C_QUALIFIER> .
<http://www.assero.co.uk/MDRSdtmM/CDISC/V3#M-CDISC_SDTMMODEL_xxSCAT> <http://www.w3.org/1999/02/22-rdf-syntax-ns#type> <http://www.assero.co.uk/BusinessDomain#ModelVariable> .
<http://www.assero.co.uk/MDRSdtmM/CDISC/V3#M-CDISC_SDTMMODEL_xxSCAT> <http://www.w3.org/2000/01/rdf-schema#label> "Subcategory" .
<http://www.assero.co.uk/MDRSdtmM/CDISC/V3#M-CDISC_SDTMMODEL_xxSCAT> <http://www.assero.co.uk/BusinessDomain#classifiedAs> <http://www.assero.co.uk/MDRSdtmM/CDISC/V3#M-CDISC_SDTMMODEL_SC_GROUPINGQUALIFIER> .
<http://www.assero.co.uk/MDRSdtmM/CDISC/V3#M-CDISC_SDTMMODEL_xxSCAT> <http://www.assero.co.uk/BusinessDomain#typedAs> <http://www.assero.co.uk/MDRSdtmM/CDISC/V3#M-CDISC_SDTMMODEL_DT_CHAR> .
<http://www.assero.co.uk/MDRSdtmM/CDISC/V3#M-CDISC_SDTMMODEL_xxSCAT> <http://www.assero.co.uk/BusinessDomain#rule> "" .
<http://www.assero.co.uk/MDRSdtmM/CDISC/V3#M-CDISC_SDTMMODEL_xxSCAT> <http://www.assero.co.uk/BusinessDomain#ordinal> "6"^^<http://www.w3.org/2001/XMLSchema#integer> .
<http://www.assero.co.uk/MDRSdtmM/CDISC/V3#M-CDISC_SDTMMODEL_xxSCAT> <http://www.assero.co.uk/BusinessDomain#ordinal> "12"^^<http://www.w3.org/2001/XMLSchema#integer> .
<http://www.assero.co.uk/MDRSdtmM/CDISC/V3#M-CDISC_SDTMMODEL_xxSCAT> <http://www.assero.co.uk/BusinessDomain#name> "--SCAT" .
<http://www.assero.co.uk/MDRSdtmM/CDISC/V3#M-CDISC_SDTMMODEL_xxSCAT> <http://www.assero.co.uk/BusinessDomain#prefixed> "true"^^<http://www.w3.org/2001/XMLSchema#boolean> .
<http://www.assero.co.uk/MDRSdtmM/CDISC/V3#M-CDISC_SDTMMODEL_xxSCAT> <http://www.assero.co.uk/BusinessDomain#description> "Used to define a further categorization of --CAT values." .
<http://www.assero.co.uk/MDRSdtmM/CDISC/V3#M-CDISC_SDTMMODEL_xxSCAT> <http://www.assero.co.uk/BusinessDomain#description> "Used to define a further categorization of --CAT values. Example: DIFFERENTIAL." .
<http://www.assero.co.uk/MDRSdtmM/CDISC/V3#M-CDISC_SDTMMODEL_xxPRESP> <http://www.w3.org/1999/02/22-rdf-syntax-ns#type> <http://www.assero.co.uk/BusinessDomain#ModelVariable> .
<http://www.assero.co.uk/MDRSdtmM/CDISC/V3#M-CDISC_SDTMMODEL_xxPRESP> <http://www.w3.org/2000/01/rdf-schema#label> "Pre-specified" .
<http://www.assero.co.uk/MDRSdtmM/CDISC/V3#M-CDISC_SDTMMODEL_xxPRESP> <http://www.assero.co.uk/BusinessDomain#classifiedAs> <http://www.assero.co.uk/MDRSdtmM/CDISC/V3#M-CDISC_SDTMMODEL_SC_VARIABLEQUALIFIER> .
<http://www.assero.co.uk/MDRSdtmM/CDISC/V3#M-CDISC_SDTMMODEL_xxPRESP> <http://www.assero.co.uk/BusinessDomain#typedAs> <http://www.assero.co.uk/MDRSdtmM/CDISC/V3#M-CDISC_SDTMMODEL_DT_CHAR> .
<http://www.assero.co.uk/MDRSdtmM/CDISC/V3#M-CDISC_SDTMMODEL_xxPRESP> <http://www.assero.co.uk/BusinessDomain#rule> "" .
<http://www.assero.co.uk/MDRSdtmM/CDISC/V3#M-CDISC_SDTMMODEL_xxPRESP> <http://www.assero.co.uk/BusinessDomain#ordinal> "7"^^<http://www.w3.org/2001/XMLSchema#integer> .
<http://www.assero.co.uk/MDRSdtmM/CDISC/V3#M-CDISC_SDTMMODEL_xxPRESP> <http://www.assero.co.uk/BusinessDomain#ordinal> "13"^^<http://www.w3.org/2001/XMLSchema#integer> .
<http://www.assero.co.uk/MDRSdtmM/CDISC/V3#M-CDISC_SDTMMODEL_xxPRESP> <http://www.assero.co.uk/BusinessDomain#name> "--PRESP" .
<http://www.assero.co.uk/MDRSdtmM/CDISC/V3#M-CDISC_SDTMMODEL_xxPRESP> <http://www.assero.co.uk/BusinessDomain#prefixed> "true"^^<http://www.w3.org/2001/XMLSchema#boolean> .
<http://www.assero.co.uk/MDRSdtmM/CDISC/V3#M-CDISC_SDTMMODEL_xxPRESP> <http://www.assero.co.uk/BusinessDomain#description> "Used to indicate whether the event described by --TERM was pre-specified on a CRF. Value is Y for pre-specified events, null for spontaneously reported events." .
<http://www.assero.co.uk/MDRSdtmM/CDISC/V3#M-CDISC_SDTMMODEL_xxPRESP> <http://www.assero.co.uk/BusinessDomain#description> "Used when a specific intervention is pre-specified on a CRF. Values should be “Y” or null." .
<http://www.assero.co.uk/MDRSdtmM/CDISC/V3#M-CDISC_SDTMMODEL_xxOCCUR> <http://www.w3.org/1999/02/22-rdf-syntax-ns#type> <http://www.assero.co.uk/BusinessDomain#ModelVariable> .
<http://www.assero.co.uk/MDRSdtmM/CDISC/V3#M-CDISC_SDTMMODEL_xxOCCUR> <http://www.w3.org/2000/01/rdf-schema#label> "Occurrence" .
<http://www.assero.co.uk/MDRSdtmM/CDISC/V3#M-CDISC_SDTMMODEL_xxOCCUR> <http://www.assero.co.uk/BusinessDomain#classifiedAs> <http://www.assero.co.uk/MDRSdtmM/CDISC/V3#M-CDISC_SDTMMODEL_SC_RECORDQUALIFIER> .
<http://www.assero.co.uk/MDRSdtmM/CDISC/V3#M-CDISC_SDTMMODEL_xxOCCUR> <http://www.assero.co.uk/BusinessDomain#typedAs> <http://www.assero.co.uk/MDRSdtmM/CDISC/V3#M-CDISC_SDTMMODEL_DT_CHAR> .
<http://www.assero.co.uk/MDRSdtmM/CDISC/V3#M-CDISC_SDTMMODEL_xxOCCUR> <http://www.assero.co.uk/BusinessDomain#rule> "" .
<http://www.assero.co.uk/MDRSdtmM/CDISC/V3#M-CDISC_SDTMMODEL_xxOCCUR> <http://www.assero.co.uk/BusinessDomain#ordinal> "8"^^<http://www.w3.org/2001/XMLSchema#integer> .
<http://www.assero.co.uk/MDRSdtmM/CDISC/V3#M-CDISC_SDTMMODEL_xxOCCUR> <http://www.assero.co.uk/BusinessDomain#ordinal> "14"^^<http://www.w3.org/2001/XMLSchema#integer> .
<http://www.assero.co.uk/MDRSdtmM/CDISC/V3#M-CDISC_SDTMMODEL_xxOCCUR> <http://www.assero.co.uk/BusinessDomain#name> "--OCCUR" .
<http://www.assero.co.uk/MDRSdtmM/CDISC/V3#M-CDISC_SDTMMODEL_xxOCCUR> <http://www.assero.co.uk/BusinessDomain#prefixed> "true"^^<http://www.w3.org/2001/XMLSchema#boolean> .
<http://www.assero.co.uk/MDRSdtmM/CDISC/V3#M-CDISC_SDTMMODEL_xxOCCUR> <http://www.assero.co.uk/BusinessDomain#description> "Used to record whether a pre-specified event occurred when information about the occurrence of a specific event is solicited." .
<http://www.assero.co.uk/MDRSdtmM/CDISC/V3#M-CDISC_SDTMMODEL_xxOCCUR> <http://www.assero.co.uk/BusinessDomain#description> "Used to record whether a pre-specified intervention occurred when information about the occurrence of a specific intervention is solicited." .
<http://www.assero.co.uk/MDRSdtmM/CDISC/V3#M-CDISC_SDTMMODEL_xxSTAT> <http://www.w3.org/1999/02/22-rdf-syntax-ns#type> <http://www.assero.co.uk/BusinessDomain#ModelVariable> .
<http://www.assero.co.uk/MDRSdtmM/CDISC/V3#M-CDISC_SDTMMODEL_xxSTAT> <http://www.w3.org/2000/01/rdf-schema#label> "Completion Status" .
<http://www.assero.co.uk/MDRSdtmM/CDISC/V3#M-CDISC_SDTMMODEL_xxSTAT> <http://www.assero.co.uk/BusinessDomain#classifiedAs> <http://www.assero.co.uk/MDRSdtmM/CDISC/V3#M-CDISC_SDTMMODEL_SC_RECORDQUALIFIER> .
<http://www.assero.co.uk/MDRSdtmM/CDISC/V3#M-CDISC_SDTMMODEL_xxSTAT> <http://www.assero.co.uk/BusinessDomain#typedAs> <http://www.assero.co.uk/MDRSdtmM/CDISC/V3#M-CDISC_SDTMMODEL_DT_CHAR> .
<http://www.assero.co.uk/MDRSdtmM/CDISC/V3#M-CDISC_SDTMMODEL_xxSTAT> <http://www.assero.co.uk/BusinessDomain#rule> "" .
<http://www.assero.co.uk/MDRSdtmM/CDISC/V3#M-CDISC_SDTMMODEL_xxSTAT> <http://www.assero.co.uk/BusinessDomain#ordinal> "9"^^<http://www.w3.org/2001/XMLSchema#integer> .
<http://www.assero.co.uk/MDRSdtmM/CDISC/V3#M-CDISC_SDTMMODEL_xxSTAT> <http://www.assero.co.uk/BusinessDomain#ordinal> "15"^^<http://www.w3.org/2001/XMLSchema#integer> .
<http://www.assero.co.uk/MDRSdtmM/CDISC/V3#M-CDISC_SDTMMODEL_xxSTAT> <http://www.assero.co.uk/BusinessDomain#ordinal> "21"^^<http://www.w3.org/2001/XMLSchema#integer> .
<http://www.assero.co.uk/MDRSdtmM/CDISC/V3#M-CDISC_SDTMMODEL_xxSTAT> <http://www.assero.co.uk/BusinessDomain#name> "--STAT" .
<http://www.assero.co.uk/MDRSdtmM/CDISC/V3#M-CDISC_SDTMMODEL_xxSTAT> <http://www.assero.co.uk/BusinessDomain#prefixed> "true"^^<http://www.w3.org/2001/XMLSchema#boolean> .
<http://www.assero.co.uk/MDRSdtmM/CDISC/V3#M-CDISC_SDTMMODEL_xxSTAT> <http://www.assero.co.uk/BusinessDomain#description> "Used to indicate when a question about the occurrence of a pre-specified event was not answered. Should be null or have a value of NOT DONE." .
<http://www.assero.co.uk/MDRSdtmM/CDISC/V3#M-CDISC_SDTMMODEL_xxSTAT> <http://www.assero.co.uk/BusinessDomain#description> "Used to indicate that a question was not asked or a test was not done, or a test was attempted but did not generate a result. Should be null or have a value of NOT DONE." .
<http://www.assero.co.uk/MDRSdtmM/CDISC/V3#M-CDISC_SDTMMODEL_xxSTAT> <http://www.assero.co.uk/BusinessDomain#description> "Used to indicate when a question about the occurrence of a pre-specified intervention was not answered. Should be null or have a value of NOT DONE." .
<http://www.assero.co.uk/MDRSdtmM/CDISC/V3#M-CDISC_SDTMMODEL_xxREASND> <http://www.w3.org/1999/02/22-rdf-syntax-ns#type> <http://www.assero.co.uk/BusinessDomain#ModelVariable> .
<http://www.assero.co.uk/MDRSdtmM/CDISC/V3#M-CDISC_SDTMMODEL_xxREASND> <http://www.w3.org/2000/01/rdf-schema#label> "Reason Not Done" .
<http://www.assero.co.uk/MDRSdtmM/CDISC/V3#M-CDISC_SDTMMODEL_xxREASND> <http://www.assero.co.uk/BusinessDomain#classifiedAs> <http://www.assero.co.uk/MDRSdtmM/CDISC/V3#M-CDISC_SDTMMODEL_SC_RECORDQUALIFIER> .
<http://www.assero.co.uk/MDRSdtmM/CDISC/V3#M-CDISC_SDTMMODEL_xxREASND> <http://www.assero.co.uk/BusinessDomain#typedAs> <http://www.assero.co.uk/MDRSdtmM/CDISC/V3#M-CDISC_SDTMMODEL_DT_CHAR> .
<http://www.assero.co.uk/MDRSdtmM/CDISC/V3#M-CDISC_SDTMMODEL_xxREASND> <http://www.assero.co.uk/BusinessDomain#rule> "" .
<http://www.assero.co.uk/MDRSdtmM/CDISC/V3#M-CDISC_SDTMMODEL_xxREASND> <http://www.assero.co.uk/BusinessDomain#ordinal> "10"^^<http://www.w3.org/2001/XMLSchema#integer> .
<http://www.assero.co.uk/MDRSdtmM/CDISC/V3#M-CDISC_SDTMMODEL_xxREASND> <http://www.assero.co.uk/BusinessDomain#ordinal> "16"^^<http://www.w3.org/2001/XMLSchema#integer> .
<http://www.assero.co.uk/MDRSdtmM/CDISC/V3#M-CDISC_SDTMMODEL_xxREASND> <http://www.assero.co.uk/BusinessDomain#ordinal> "22"^^<http://www.w3.org/2001/XMLSchema#integer> .
<http://www.assero.co.uk/MDRSdtmM/CDISC/V3#M-CDISC_SDTMMODEL_xxREASND> <http://www.assero.co.uk/BusinessDomain#name> "--REASND" .
<http://www.assero.co.uk/MDRSdtmM/CDISC/V3#M-CDISC_SDTMMODEL_xxREASND> <http://www.assero.co.uk/BusinessDomain#prefixed> "true"^^<http://www.w3.org/2001/XMLSchema#boolean> .
<http://www.assero.co.uk/MDRSdtmM/CDISC/V3#M-CDISC_SDTMMODEL_xxREASND> <http://www.assero.co.uk/BusinessDomain#description> "Reason not done. Used in conjunction with --STAT when its value is NOT DONE." .
<http://www.assero.co.uk/MDRSdtmM/CDISC/V3#M-CDISC_SDTMMODEL_xxREASND> <http://www.assero.co.uk/BusinessDomain#description> "Reason not done. Used in conjunction with --STAT when value is NOT DONE." .
<http://www.assero.co.uk/MDRSdtmM/CDISC/V3#M-CDISC_SDTMMODEL_xxBODSYS> <http://www.w3.org/1999/02/22-rdf-syntax-ns#type> <http://www.assero.co.uk/BusinessDomain#ModelVariable> .
<http://www.assero.co.uk/MDRSdtmM/CDISC/V3#M-CDISC_SDTMMODEL_xxBODSYS> <http://www.w3.org/2000/01/rdf-schema#label> "Body System or Organ Class" .
<http://www.assero.co.uk/MDRSdtmM/CDISC/V3#M-CDISC_SDTMMODEL_xxBODSYS> <http://www.assero.co.uk/BusinessDomain#classifiedAs> <http://www.assero.co.uk/MDRSdtmM/CDISC/V3#M-CDISC_SDTMMODEL_SC_RECORDQUALIFIER> .
<http://www.assero.co.uk/MDRSdtmM/CDISC/V3#M-CDISC_SDTMMODEL_xxBODSYS> <http://www.assero.co.uk/BusinessDomain#typedAs> <http://www.assero.co.uk/MDRSdtmM/CDISC/V3#M-CDISC_SDTMMODEL_DT_CHAR> .
<http://www.assero.co.uk/MDRSdtmM/CDISC/V3#M-CDISC_SDTMMODEL_xxBODSYS> <http://www.assero.co.uk/BusinessDomain#rule> "" .
<http://www.assero.co.uk/MDRSdtmM/CDISC/V3#M-CDISC_SDTMMODEL_xxBODSYS> <http://www.assero.co.uk/BusinessDomain#ordinal> "8"^^<http://www.w3.org/2001/XMLSchema#integer> .
<http://www.assero.co.uk/MDRSdtmM/CDISC/V3#M-CDISC_SDTMMODEL_xxBODSYS> <http://www.assero.co.uk/BusinessDomain#ordinal> "17"^^<http://www.w3.org/2001/XMLSchema#integer> .
<http://www.assero.co.uk/MDRSdtmM/CDISC/V3#M-CDISC_SDTMMODEL_xxBODSYS> <http://www.assero.co.uk/BusinessDomain#name> "--BODSYS" .
<http://www.assero.co.uk/MDRSdtmM/CDISC/V3#M-CDISC_SDTMMODEL_xxBODSYS> <http://www.assero.co.uk/BusinessDomain#prefixed> "true"^^<http://www.w3.org/2001/XMLSchema#boolean> .
<http://www.assero.co.uk/MDRSdtmM/CDISC/V3#M-CDISC_SDTMMODEL_xxBODSYS> <http://www.assero.co.uk/BusinessDomain#description> "Body system or system organ class assigned for analysis from a standard hierarchy (e.g. MedDRA) associated with an event. Example: GASTROINTESTINAL DISORDERS." .
<http://www.assero.co.uk/MDRSdtmM/CDISC/V3#M-CDISC_SDTMMODEL_xxBODSYS> <http://www.assero.co.uk/BusinessDomain#description> "Body System or Organ Class that is involved for a finding from the standard hierarchy for dictionary-coded results. Example: MedDRA SOC." .
<http://www.assero.co.uk/MDRSdtmM/CDISC/V3#M-CDISC_SDTMMODEL_xxBDSYCD> <http://www.w3.org/1999/02/22-rdf-syntax-ns#type> <http://www.assero.co.uk/BusinessDomain#ModelVariable> .
<http://www.assero.co.uk/MDRSdtmM/CDISC/V3#M-CDISC_SDTMMODEL_xxBDSYCD> <http://www.w3.org/2000/01/rdf-schema#label> "Body System or Organ Class Code" .
<http://www.assero.co.uk/MDRSdtmM/CDISC/V3#M-CDISC_SDTMMODEL_xxBDSYCD> <http://www.assero.co.uk/BusinessDomain#classifiedAs> <http://www.assero.co.uk/MDRSdtmM/CDISC/V3#M-CDISC_SDTMMODEL_SC_VARIABLEQUALIFIER> .
<http://www.assero.co.uk/MDRSdtmM/CDISC/V3#M-CDISC_SDTMMODEL_xxBDSYCD> <http://www.assero.co.uk/BusinessDomain#typedAs> <http://www.assero.co.uk/MDRSdtmM/CDISC/V3#M-CDISC_SDTMMODEL_DT_NUM> .
<http://www.assero.co.uk/MDRSdtmM/CDISC/V3#M-CDISC_SDTMMODEL_xxBDSYCD> <http://www.assero.co.uk/BusinessDomain#rule> "" .
<http://www.assero.co.uk/MDRSdtmM/CDISC/V3#M-CDISC_SDTMMODEL_xxBDSYCD> <http://www.assero.co.uk/BusinessDomain#ordinal> "18"^^<http://www.w3.org/2001/XMLSchema#integer> .
<http://www.assero.co.uk/MDRSdtmM/CDISC/V3#M-CDISC_SDTMMODEL_xxBDSYCD> <http://www.assero.co.uk/BusinessDomain#name> "--BDSYCD" .
<http://www.assero.co.uk/MDRSdtmM/CDISC/V3#M-CDISC_SDTMMODEL_xxBDSYCD> <http://www.assero.co.uk/BusinessDomain#prefixed> "true"^^<http://www.w3.org/2001/XMLSchema#boolean> .
<http://www.assero.co.uk/MDRSdtmM/CDISC/V3#M-CDISC_SDTMMODEL_xxBDSYCD> <http://www.assero.co.uk/BusinessDomain#description> "MedDRA System Organ Class code corresponding to --BODSYS assigned for analysis." .
<http://www.assero.co.uk/MDRSdtmM/CDISC/V3#M-CDISC_SDTMMODEL_xxSOC> <http://www.w3.org/1999/02/22-rdf-syntax-ns#type> <http://www.assero.co.uk/BusinessDomain#ModelVariable> .
<http://www.assero.co.uk/MDRSdtmM/CDISC/V3#M-CDISC_SDTMMODEL_xxSOC> <http://www.w3.org/2000/01/rdf-schema#label> "Primary System Organ Class" .
<http://www.assero.co.uk/MDRSdtmM/CDISC/V3#M-CDISC_SDTMMODEL_xxSOC> <http://www.assero.co.uk/BusinessDomain#classifiedAs> <http://www.assero.co.uk/MDRSdtmM/CDISC/V3#M-CDISC_SDTMMODEL_SC_VARIABLEQUALIFIER> .
<http://www.assero.co.uk/MDRSdtmM/CDISC/V3#M-CDISC_SDTMMODEL_xxSOC> <http://www.assero.co.uk/BusinessDomain#typedAs> <http://www.assero.co.uk/MDRSdtmM/CDISC/V3#M-CDISC_SDTMMODEL_DT_CHAR> .
<http://www.assero.co.uk/MDRSdtmM/CDISC/V3#M-CDISC_SDTMMODEL_xxSOC> <http://www.assero.co.uk/BusinessDomain#rule> "" .
<http://www.assero.co.uk/MDRSdtmM/CDISC/V3#M-CDISC_SDTMMODEL_xxSOC> <http://www.assero.co.uk/BusinessDomain#ordinal> "19"^^<http://www.w3.org/2001/XMLSchema#integer> .
<http://www.assero.co.uk/MDRSdtmM/CDISC/V3#M-CDISC_SDTMMODEL_xxSOC> <http://www.assero.co.uk/BusinessDomain#name> "--SOC" .
<http://www.assero.co.uk/MDRSdtmM/CDISC/V3#M-CDISC_SDTMMODEL_xxSOC> <http://www.assero.co.uk/BusinessDomain#prefixed> "true"^^<http://www.w3.org/2001/XMLSchema#boolean> .
<http://www.assero.co.uk/MDRSdtmM/CDISC/V3#M-CDISC_SDTMMODEL_xxSOC> <http://www.assero.co.uk/BusinessDomain#description> "MedDRA primary System Organ Class associated with the event." .
<http://www.assero.co.uk/MDRSdtmM/CDISC/V3#M-CDISC_SDTMMODEL_xxSOCCD> <http://www.w3.org/1999/02/22-rdf-syntax-ns#type> <http://www.assero.co.uk/BusinessDomain#ModelVariable> .
<http://www.assero.co.uk/MDRSdtmM/CDISC/V3#M-CDISC_SDTMMODEL_xxSOCCD> <http://www.w3.org/2000/01/rdf-schema#label> "Primary System Organ Class Code" .
<http://www.assero.co.uk/MDRSdtmM/CDISC/V3#M-CDISC_SDTMMODEL_xxSOCCD> <http://www.assero.co.uk/BusinessDomain#classifiedAs> <http://www.assero.co.uk/MDRSdtmM/CDISC/V3#M-CDISC_SDTMMODEL_SC_VARIABLEQUALIFIER> .
<http://www.assero.co.uk/MDRSdtmM/CDISC/V3#M-CDISC_SDTMMODEL_xxSOCCD> <http://www.assero.co.uk/BusinessDomain#typedAs> <http://www.assero.co.uk/MDRSdtmM/CDISC/V3#M-CDISC_SDTMMODEL_DT_NUM> .
<http://www.assero.co.uk/MDRSdtmM/CDISC/V3#M-CDISC_SDTMMODEL_xxSOCCD> <http://www.assero.co.uk/BusinessDomain#rule> "" .
<http://www.assero.co.uk/MDRSdtmM/CDISC/V3#M-CDISC_SDTMMODEL_xxSOCCD> <http://www.assero.co.uk/BusinessDomain#ordinal> "20"^^<http://www.w3.org/2001/XMLSchema#integer> .
<http://www.assero.co.uk/MDRSdtmM/CDISC/V3#M-CDISC_SDTMMODEL_xxSOCCD> <http://www.assero.co.uk/BusinessDomain#name> "--SOCCD" .
<http://www.assero.co.uk/MDRSdtmM/CDISC/V3#M-CDISC_SDTMMODEL_xxSOCCD> <http://www.assero.co.uk/BusinessDomain#prefixed> "true"^^<http://www.w3.org/2001/XMLSchema#boolean> .
<http://www.assero.co.uk/MDRSdtmM/CDISC/V3#M-CDISC_SDTMMODEL_xxSOCCD> <http://www.assero.co.uk/BusinessDomain#description> "MedDRA primary System Organ Class code." .
<http://www.assero.co.uk/MDRSdtmM/CDISC/V3#M-CDISC_SDTMMODEL_xxLOC> <http://www.w3.org/1999/02/22-rdf-syntax-ns#type> <http://www.assero.co.uk/BusinessDomain#ModelVariable> .
<http://www.assero.co.uk/MDRSdtmM/CDISC/V3#M-CDISC_SDTMMODEL_xxLOC> <http://www.w3.org/2000/01/rdf-schema#label> "Location of Event" .
<http://www.assero.co.uk/MDRSdtmM/CDISC/V3#M-CDISC_SDTMMODEL_xxLOC> <http://www.w3.org/2000/01/rdf-schema#label> "Location Used for the Measurement" .
<http://www.assero.co.uk/MDRSdtmM/CDISC/V3#M-CDISC_SDTMMODEL_xxLOC> <http://www.w3.org/2000/01/rdf-schema#label> "Location of Dose Administration" .
<http://www.assero.co.uk/MDRSdtmM/CDISC/V3#M-CDISC_SDTMMODEL_xxLOC> <http://www.assero.co.uk/BusinessDomain#classifiedAs> <http://www.assero.co.uk/MDRSdtmM/CDISC/V3#M-CDISC_SDTMMODEL_SC_RECORDQUALIFIER> .
<http://www.assero.co.uk/MDRSdtmM/CDISC/V3#M-CDISC_SDTMMODEL_xxLOC> <http://www.assero.co.uk/BusinessDomain#typedAs> <http://www.assero.co.uk/MDRSdtmM/CDISC/V3#M-CDISC_SDTMMODEL_DT_CHAR> .
<http://www.assero.co.uk/MDRSdtmM/CDISC/V3#M-CDISC_SDTMMODEL_xxLOC> <http://www.assero.co.uk/BusinessDomain#rule> "" .
<http://www.assero.co.uk/MDRSdtmM/CDISC/V3#M-CDISC_SDTMMODEL_xxLOC> <http://www.assero.co.uk/BusinessDomain#ordinal> "21"^^<http://www.w3.org/2001/XMLSchema#integer> .
<http://www.assero.co.uk/MDRSdtmM/CDISC/V3#M-CDISC_SDTMMODEL_xxLOC> <http://www.assero.co.uk/BusinessDomain#ordinal> "23"^^<http://www.w3.org/2001/XMLSchema#integer> .
<http://www.assero.co.uk/MDRSdtmM/CDISC/V3#M-CDISC_SDTMMODEL_xxLOC> <http://www.assero.co.uk/BusinessDomain#ordinal> "30"^^<http://www.w3.org/2001/XMLSchema#integer> .
<http://www.assero.co.uk/MDRSdtmM/CDISC/V3#M-CDISC_SDTMMODEL_xxLOC> <http://www.assero.co.uk/BusinessDomain#name> "--LOC" .
<http://www.assero.co.uk/MDRSdtmM/CDISC/V3#M-CDISC_SDTMMODEL_xxLOC> <http://www.assero.co.uk/BusinessDomain#prefixed> "true"^^<http://www.w3.org/2001/XMLSchema#boolean> .
<http://www.assero.co.uk/MDRSdtmM/CDISC/V3#M-CDISC_SDTMMODEL_xxLOC> <http://www.assero.co.uk/BusinessDomain#description> "Describes anatomical location relevant for the event. Example: ARM for skin rash." .
<http://www.assero.co.uk/MDRSdtmM/CDISC/V3#M-CDISC_SDTMMODEL_xxLOC> <http://www.assero.co.uk/BusinessDomain#description> "Anatomical location of the subject relevant to the collection of the measurement. Examples: RECTAL for temperature, ARM for blood pressure." .
<http://www.assero.co.uk/MDRSdtmM/CDISC/V3#M-CDISC_SDTMMODEL_xxLOC> <http://www.assero.co.uk/BusinessDomain#description> "Anatomical location of an intervention, such as an injection site. Example: ARM for an injection." .
<http://www.assero.co.uk/MDRSdtmM/CDISC/V3#M-CDISC_SDTMMODEL_xxLAT> <http://www.w3.org/1999/02/22-rdf-syntax-ns#type> <http://www.assero.co.uk/BusinessDomain#ModelVariable> .
<http://www.assero.co.uk/MDRSdtmM/CDISC/V3#M-CDISC_SDTMMODEL_xxLAT> <http://www.w3.org/2000/01/rdf-schema#label> "Laterality" .
<http://www.assero.co.uk/MDRSdtmM/CDISC/V3#M-CDISC_SDTMMODEL_xxLAT> <http://www.assero.co.uk/BusinessDomain#classifiedAs> <http://www.assero.co.uk/MDRSdtmM/CDISC/V3#M-CDISC_SDTMMODEL_SC_VARIABLEQUALIFIER> .
<http://www.assero.co.uk/MDRSdtmM/CDISC/V3#M-CDISC_SDTMMODEL_xxLAT> <http://www.assero.co.uk/BusinessDomain#typedAs> <http://www.assero.co.uk/MDRSdtmM/CDISC/V3#M-CDISC_SDTMMODEL_DT_CHAR> .
<http://www.assero.co.uk/MDRSdtmM/CDISC/V3#M-CDISC_SDTMMODEL_xxLAT> <http://www.assero.co.uk/BusinessDomain#rule> "" .
<http://www.assero.co.uk/MDRSdtmM/CDISC/V3#M-CDISC_SDTMMODEL_xxLAT> <http://www.assero.co.uk/BusinessDomain#ordinal> "22"^^<http://www.w3.org/2001/XMLSchema#integer> .
<http://www.assero.co.uk/MDRSdtmM/CDISC/V3#M-CDISC_SDTMMODEL_xxLAT> <http://www.assero.co.uk/BusinessDomain#ordinal> "24"^^<http://www.w3.org/2001/XMLSchema#integer> .
<http://www.assero.co.uk/MDRSdtmM/CDISC/V3#M-CDISC_SDTMMODEL_xxLAT> <http://www.assero.co.uk/BusinessDomain#ordinal> "31"^^<http://www.w3.org/2001/XMLSchema#integer> .
<http://www.assero.co.uk/MDRSdtmM/CDISC/V3#M-CDISC_SDTMMODEL_xxLAT> <http://www.assero.co.uk/BusinessDomain#name> "--LAT" .
<http://www.assero.co.uk/MDRSdtmM/CDISC/V3#M-CDISC_SDTMMODEL_xxLAT> <http://www.assero.co.uk/BusinessDomain#prefixed> "true"^^<http://www.w3.org/2001/XMLSchema#boolean> .
<http://www.assero.co.uk/MDRSdtmM/CDISC/V3#M-CDISC_SDTMMODEL_xxLAT> <http://www.assero.co.uk/BusinessDomain#description> "Qualifier for anatomical location further detailing laterality. Examples: RIGHT, LEFT, BILATERAL" .
<http://www.assero.co.uk/MDRSdtmM/CDISC/V3#M-CDISC_SDTMMODEL_xxLAT> <http://www.assero.co.uk/BusinessDomain#description> "Qualifier for anatomical location or specimen further detailing laterality. Examples: RIGHT, LEFT, BILATERAL" .
<http://www.assero.co.uk/MDRSdtmM/CDISC/V3#M-CDISC_SDTMMODEL_xxLAT> <http://www.assero.co.uk/BusinessDomain#description> "Qualifier for anatomical location further detailing laterality of intervention administration. Examples: RIGHT, LEFT, BILATERAL" .
<http://www.assero.co.uk/MDRSdtmM/CDISC/V3#M-CDISC_SDTMMODEL_xxDIR> <http://www.w3.org/1999/02/22-rdf-syntax-ns#type> <http://www.assero.co.uk/BusinessDomain#ModelVariable> .
<http://www.assero.co.uk/MDRSdtmM/CDISC/V3#M-CDISC_SDTMMODEL_xxDIR> <http://www.w3.org/2000/01/rdf-schema#label> "Directionality" .
<http://www.assero.co.uk/MDRSdtmM/CDISC/V3#M-CDISC_SDTMMODEL_xxDIR> <http://www.assero.co.uk/BusinessDomain#classifiedAs> <http://www.assero.co.uk/MDRSdtmM/CDISC/V3#M-CDISC_SDTMMODEL_SC_VARIABLEQUALIFIER> .
<http://www.assero.co.uk/MDRSdtmM/CDISC/V3#M-CDISC_SDTMMODEL_xxDIR> <http://www.assero.co.uk/BusinessDomain#typedAs> <http://www.assero.co.uk/MDRSdtmM/CDISC/V3#M-CDISC_SDTMMODEL_DT_CHAR> .
<http://www.assero.co.uk/MDRSdtmM/CDISC/V3#M-CDISC_SDTMMODEL_xxDIR> <http://www.assero.co.uk/BusinessDomain#rule> "" .
<http://www.assero.co.uk/MDRSdtmM/CDISC/V3#M-CDISC_SDTMMODEL_xxDIR> <http://www.assero.co.uk/BusinessDomain#ordinal> "23"^^<http://www.w3.org/2001/XMLSchema#integer> .
<http://www.assero.co.uk/MDRSdtmM/CDISC/V3#M-CDISC_SDTMMODEL_xxDIR> <http://www.assero.co.uk/BusinessDomain#ordinal> "25"^^<http://www.w3.org/2001/XMLSchema#integer> .
<http://www.assero.co.uk/MDRSdtmM/CDISC/V3#M-CDISC_SDTMMODEL_xxDIR> <http://www.assero.co.uk/BusinessDomain#ordinal> "32"^^<http://www.w3.org/2001/XMLSchema#integer> .
<http://www.assero.co.uk/MDRSdtmM/CDISC/V3#M-CDISC_SDTMMODEL_xxDIR> <http://www.assero.co.uk/BusinessDomain#name> "--DIR" .
<http://www.assero.co.uk/MDRSdtmM/CDISC/V3#M-CDISC_SDTMMODEL_xxDIR> <http://www.assero.co.uk/BusinessDomain#prefixed> "true"^^<http://www.w3.org/2001/XMLSchema#boolean> .
<http://www.assero.co.uk/MDRSdtmM/CDISC/V3#M-CDISC_SDTMMODEL_xxDIR> <http://www.assero.co.uk/BusinessDomain#description> "Qualifier for anatomical location further detailing directionality. Examples: ANTERIOR, LOWER, PROXIMAL" .
<http://www.assero.co.uk/MDRSdtmM/CDISC/V3#M-CDISC_SDTMMODEL_xxDIR> <http://www.assero.co.uk/BusinessDomain#description> "Qualifier for anatomical location or specimen further detailing directionality. Examples: ANTERIOR, LOWER, PROXIMAL" .
<http://www.assero.co.uk/MDRSdtmM/CDISC/V3#M-CDISC_SDTMMODEL_xxDIR> <http://www.assero.co.uk/BusinessDomain#description> "Qualifier for anatomical location further detailing directionality of intervention administration. Examples: ANTERIOR, LOWER, PROXIMAL" .
<http://www.assero.co.uk/MDRSdtmM/CDISC/V3#M-CDISC_SDTMMODEL_xxPORTOT> <http://www.w3.org/1999/02/22-rdf-syntax-ns#type> <http://www.assero.co.uk/BusinessDomain#ModelVariable> .
<http://www.assero.co.uk/MDRSdtmM/CDISC/V3#M-CDISC_SDTMMODEL_xxPORTOT> <http://www.w3.org/2000/01/rdf-schema#label> "Portion or Totality" .
<http://www.assero.co.uk/MDRSdtmM/CDISC/V3#M-CDISC_SDTMMODEL_xxPORTOT> <http://www.assero.co.uk/BusinessDomain#classifiedAs> <http://www.assero.co.uk/MDRSdtmM/CDISC/V3#M-CDISC_SDTMMODEL_SC_VARIABLEQUALIFIER> .
<http://www.assero.co.uk/MDRSdtmM/CDISC/V3#M-CDISC_SDTMMODEL_xxPORTOT> <http://www.assero.co.uk/BusinessDomain#typedAs> <http://www.assero.co.uk/MDRSdtmM/CDISC/V3#M-CDISC_SDTMMODEL_DT_CHAR> .
<http://www.assero.co.uk/MDRSdtmM/CDISC/V3#M-CDISC_SDTMMODEL_xxPORTOT> <http://www.assero.co.uk/BusinessDomain#rule> "" .
<http://www.assero.co.uk/MDRSdtmM/CDISC/V3#M-CDISC_SDTMMODEL_xxPORTOT> <http://www.assero.co.uk/BusinessDomain#ordinal> "24"^^<http://www.w3.org/2001/XMLSchema#integer> .
<http://www.assero.co.uk/MDRSdtmM/CDISC/V3#M-CDISC_SDTMMODEL_xxPORTOT> <http://www.assero.co.uk/BusinessDomain#ordinal> "26"^^<http://www.w3.org/2001/XMLSchema#integer> .
<http://www.assero.co.uk/MDRSdtmM/CDISC/V3#M-CDISC_SDTMMODEL_xxPORTOT> <http://www.assero.co.uk/BusinessDomain#ordinal> "33"^^<http://www.w3.org/2001/XMLSchema#integer> .
<http://www.assero.co.uk/MDRSdtmM/CDISC/V3#M-CDISC_SDTMMODEL_xxPORTOT> <http://www.assero.co.uk/BusinessDomain#name> "--PORTOT" .
<http://www.assero.co.uk/MDRSdtmM/CDISC/V3#M-CDISC_SDTMMODEL_xxPORTOT> <http://www.assero.co.uk/BusinessDomain#prefixed> "true"^^<http://www.w3.org/2001/XMLSchema#boolean> .
<http://www.assero.co.uk/MDRSdtmM/CDISC/V3#M-CDISC_SDTMMODEL_xxPORTOT> <http://www.assero.co.uk/BusinessDomain#description> "Qualifier for anatomical location further detailing the distribution, which means arrangement of, apportioning of. Examples: ENTIRE, SINGLE, SEGMENT, MANY." .
<http://www.assero.co.uk/MDRSdtmM/CDISC/V3#M-CDISC_SDTMMODEL_xxPORTOT> <http://www.assero.co.uk/BusinessDomain#description> "Qualifier for anatomical location or specimen further detailing the distribution, which means arrangement of, apportioning of. . Examples: ENTIRE, SINGLE, SEGMENT, MANY." .
<http://www.assero.co.uk/MDRSdtmM/CDISC/V3#M-CDISC_SDTMMODEL_xxPORTOT> <http://www.assero.co.uk/BusinessDomain#description> "Qualifier for anatomical location further detailing the distribution, which means arrangement of, apportioning of the intervention administration. Examples: ENTIRE, SINGLE, SEGMENT, MANY." .
<http://www.assero.co.uk/MDRSdtmM/CDISC/V3#M-CDISC_SDTMMODEL_xxPARTY> <http://www.w3.org/1999/02/22-rdf-syntax-ns#type> <http://www.assero.co.uk/BusinessDomain#ModelVariable> .
<http://www.assero.co.uk/MDRSdtmM/CDISC/V3#M-CDISC_SDTMMODEL_xxPARTY> <http://www.w3.org/2000/01/rdf-schema#label> "Accountable Party" .
<http://www.assero.co.uk/MDRSdtmM/CDISC/V3#M-CDISC_SDTMMODEL_xxPARTY> <http://www.assero.co.uk/BusinessDomain#classifiedAs> <http://www.assero.co.uk/MDRSdtmM/CDISC/V3#M-CDISC_SDTMMODEL_SC_RECORDQUALIFIER> .
<http://www.assero.co.uk/MDRSdtmM/CDISC/V3#M-CDISC_SDTMMODEL_xxPARTY> <http://www.assero.co.uk/BusinessDomain#typedAs> <http://www.assero.co.uk/MDRSdtmM/CDISC/V3#M-CDISC_SDTMMODEL_DT_CHAR> .
<http://www.assero.co.uk/MDRSdtmM/CDISC/V3#M-CDISC_SDTMMODEL_xxPARTY> <http://www.assero.co.uk/BusinessDomain#rule> "" .
<http://www.assero.co.uk/MDRSdtmM/CDISC/V3#M-CDISC_SDTMMODEL_xxPARTY> <http://www.assero.co.uk/BusinessDomain#ordinal> "25"^^<http://www.w3.org/2001/XMLSchema#integer> .
<http://www.assero.co.uk/MDRSdtmM/CDISC/V3#M-CDISC_SDTMMODEL_xxPARTY> <http://www.assero.co.uk/BusinessDomain#name> "--PARTY" .
<http://www.assero.co.uk/MDRSdtmM/CDISC/V3#M-CDISC_SDTMMODEL_xxPARTY> <http://www.assero.co.uk/BusinessDomain#prefixed> "true"^^<http://www.w3.org/2001/XMLSchema#boolean> .
<http://www.assero.co.uk/MDRSdtmM/CDISC/V3#M-CDISC_SDTMMODEL_xxPARTY> <http://www.assero.co.uk/BusinessDomain#description> "Party accountable for the transferable object (e.g. device, specimen) as a result of the activity performed in the associated --TERM variable. The party could be an individual (e.g., subject), an organization (e.g., sponsor), or a location that is a proxy for an individual or organization (e.g., site). It is usually a somewhat general term that is further identified in the --PRTYID variable." .
<http://www.assero.co.uk/MDRSdtmM/CDISC/V3#M-CDISC_SDTMMODEL_xxPRTYID> <http://www.w3.org/1999/02/22-rdf-syntax-ns#type> <http://www.assero.co.uk/BusinessDomain#ModelVariable> .
<http://www.assero.co.uk/MDRSdtmM/CDISC/V3#M-CDISC_SDTMMODEL_xxPRTYID> <http://www.w3.org/2000/01/rdf-schema#label> "Identification of Accountable Party" .
<http://www.assero.co.uk/MDRSdtmM/CDISC/V3#M-CDISC_SDTMMODEL_xxPRTYID> <http://www.assero.co.uk/BusinessDomain#classifiedAs> <http://www.assero.co.uk/MDRSdtmM/CDISC/V3#M-CDISC_SDTMMODEL_SC_RECORDQUALIFIER> .
<http://www.assero.co.uk/MDRSdtmM/CDISC/V3#M-CDISC_SDTMMODEL_xxPRTYID> <http://www.assero.co.uk/BusinessDomain#typedAs> <http://www.assero.co.uk/MDRSdtmM/CDISC/V3#M-CDISC_SDTMMODEL_DT_CHAR> .
<http://www.assero.co.uk/MDRSdtmM/CDISC/V3#M-CDISC_SDTMMODEL_xxPRTYID> <http://www.assero.co.uk/BusinessDomain#rule> "" .
<http://www.assero.co.uk/MDRSdtmM/CDISC/V3#M-CDISC_SDTMMODEL_xxPRTYID> <http://www.assero.co.uk/BusinessDomain#ordinal> "26"^^<http://www.w3.org/2001/XMLSchema#integer> .
<http://www.assero.co.uk/MDRSdtmM/CDISC/V3#M-CDISC_SDTMMODEL_xxPRTYID> <http://www.assero.co.uk/BusinessDomain#name> "--PRTYID" .
<http://www.assero.co.uk/MDRSdtmM/CDISC/V3#M-CDISC_SDTMMODEL_xxPRTYID> <http://www.assero.co.uk/BusinessDomain#prefixed> "true"^^<http://www.w3.org/2001/XMLSchema#boolean> .
<http://www.assero.co.uk/MDRSdtmM/CDISC/V3#M-CDISC_SDTMMODEL_xxPRTYID> <http://www.assero.co.uk/BusinessDomain#description> "Identification of the specific party accountable for the transferable object (e.g. device, specimen) after the action in --TERM is taken. Used in conjunction with --PARTY." .
<http://www.assero.co.uk/MDRSdtmM/CDISC/V3#M-CDISC_SDTMMODEL_xxSEV> <http://www.w3.org/1999/02/22-rdf-syntax-ns#type> <http://www.assero.co.uk/BusinessDomain#ModelVariable> .
<http://www.assero.co.uk/MDRSdtmM/CDISC/V3#M-CDISC_SDTMMODEL_xxSEV> <http://www.w3.org/2000/01/rdf-schema#label> "Severity/Intensity" .
<http://www.assero.co.uk/MDRSdtmM/CDISC/V3#M-CDISC_SDTMMODEL_xxSEV> <http://www.w3.org/2000/01/rdf-schema#label> "Severity" .
<http://www.assero.co.uk/MDRSdtmM/CDISC/V3#M-CDISC_SDTMMODEL_xxSEV> <http://www.assero.co.uk/BusinessDomain#classifiedAs> <http://www.assero.co.uk/MDRSdtmM/CDISC/V3#M-CDISC_SDTMMODEL_SC_RECORDQUALIFIER> .
<http://www.assero.co.uk/MDRSdtmM/CDISC/V3#M-CDISC_SDTMMODEL_xxSEV> <http://www.assero.co.uk/BusinessDomain#typedAs> <http://www.assero.co.uk/MDRSdtmM/CDISC/V3#M-CDISC_SDTMMODEL_DT_CHAR> .
<http://www.assero.co.uk/MDRSdtmM/CDISC/V3#M-CDISC_SDTMMODEL_xxSEV> <http://www.assero.co.uk/BusinessDomain#rule> "" .
<http://www.assero.co.uk/MDRSdtmM/CDISC/V3#M-CDISC_SDTMMODEL_xxSEV> <http://www.assero.co.uk/BusinessDomain#ordinal> "27"^^<http://www.w3.org/2001/XMLSchema#integer> .
<http://www.assero.co.uk/MDRSdtmM/CDISC/V3#M-CDISC_SDTMMODEL_xxSEV> <http://www.assero.co.uk/BusinessDomain#ordinal> "47"^^<http://www.w3.org/2001/XMLSchema#integer> .
<http://www.assero.co.uk/MDRSdtmM/CDISC/V3#M-CDISC_SDTMMODEL_xxSEV> <http://www.assero.co.uk/BusinessDomain#name> "--SEV" .
<http://www.assero.co.uk/MDRSdtmM/CDISC/V3#M-CDISC_SDTMMODEL_xxSEV> <http://www.assero.co.uk/BusinessDomain#prefixed> "true"^^<http://www.w3.org/2001/XMLSchema#boolean> .
<http://www.assero.co.uk/MDRSdtmM/CDISC/V3#M-CDISC_SDTMMODEL_xxSEV> <http://www.assero.co.uk/BusinessDomain#description> "The severity or intensity of the event. Examples: MILD, MODERATE, SEVERE." .
<http://www.assero.co.uk/MDRSdtmM/CDISC/V3#M-CDISC_SDTMMODEL_xxSEV> <http://www.assero.co.uk/BusinessDomain#description> "Describes the severity or intensity of a particular finding. Examples: MILD, MODERATE, SEVERE." .
<http://www.assero.co.uk/MDRSdtmM/CDISC/V3#M-CDISC_SDTMMODEL_xxSER> <http://www.w3.org/1999/02/22-rdf-syntax-ns#type> <http://www.assero.co.uk/BusinessDomain#ModelVariable> .
<http://www.assero.co.uk/MDRSdtmM/CDISC/V3#M-CDISC_SDTMMODEL_xxSER> <http://www.w3.org/2000/01/rdf-schema#label> "Serious Event" .
<http://www.assero.co.uk/MDRSdtmM/CDISC/V3#M-CDISC_SDTMMODEL_xxSER> <http://www.assero.co.uk/BusinessDomain#classifiedAs> <http://www.assero.co.uk/MDRSdtmM/CDISC/V3#M-CDISC_SDTMMODEL_SC_RECORDQUALIFIER> .
<http://www.assero.co.uk/MDRSdtmM/CDISC/V3#M-CDISC_SDTMMODEL_xxSER> <http://www.assero.co.uk/BusinessDomain#typedAs> <http://www.assero.co.uk/MDRSdtmM/CDISC/V3#M-CDISC_SDTMMODEL_DT_CHAR> .
<http://www.assero.co.uk/MDRSdtmM/CDISC/V3#M-CDISC_SDTMMODEL_xxSER> <http://www.assero.co.uk/BusinessDomain#rule> "" .
<http://www.assero.co.uk/MDRSdtmM/CDISC/V3#M-CDISC_SDTMMODEL_xxSER> <http://www.assero.co.uk/BusinessDomain#ordinal> "28"^^<http://www.w3.org/2001/XMLSchema#integer> .
<http://www.assero.co.uk/MDRSdtmM/CDISC/V3#M-CDISC_SDTMMODEL_xxSER> <http://www.assero.co.uk/BusinessDomain#name> "--SER" .
<http://www.assero.co.uk/MDRSdtmM/CDISC/V3#M-CDISC_SDTMMODEL_xxSER> <http://www.assero.co.uk/BusinessDomain#prefixed> "true"^^<http://www.w3.org/2001/XMLSchema#boolean> .
<http://www.assero.co.uk/MDRSdtmM/CDISC/V3#M-CDISC_SDTMMODEL_xxSER> <http://www.assero.co.uk/BusinessDomain#description> "Is this is a serious event? Valid values are “Y” and “N”." .
<http://www.assero.co.uk/MDRSdtmM/CDISC/V3#M-CDISC_SDTMMODEL_xxACN> <http://www.w3.org/1999/02/22-rdf-syntax-ns#type> <http://www.assero.co.uk/BusinessDomain#ModelVariable> .
<http://www.assero.co.uk/MDRSdtmM/CDISC/V3#M-CDISC_SDTMMODEL_xxACN> <http://www.w3.org/2000/01/rdf-schema#label> "Action Taken with Study Treatment" .
<http://www.assero.co.uk/MDRSdtmM/CDISC/V3#M-CDISC_SDTMMODEL_xxACN> <http://www.assero.co.uk/BusinessDomain#classifiedAs> <http://www.assero.co.uk/MDRSdtmM/CDISC/V3#M-CDISC_SDTMMODEL_SC_RECORDQUALIFIER> .
<http://www.assero.co.uk/MDRSdtmM/CDISC/V3#M-CDISC_SDTMMODEL_xxACN> <http://www.assero.co.uk/BusinessDomain#typedAs> <http://www.assero.co.uk/MDRSdtmM/CDISC/V3#M-CDISC_SDTMMODEL_DT_CHAR> .
<http://www.assero.co.uk/MDRSdtmM/CDISC/V3#M-CDISC_SDTMMODEL_xxACN> <http://www.assero.co.uk/BusinessDomain#rule> "" .
<http://www.assero.co.uk/MDRSdtmM/CDISC/V3#M-CDISC_SDTMMODEL_xxACN> <http://www.assero.co.uk/BusinessDomain#ordinal> "29"^^<http://www.w3.org/2001/XMLSchema#integer> .
<http://www.assero.co.uk/MDRSdtmM/CDISC/V3#M-CDISC_SDTMMODEL_xxACN> <http://www.assero.co.uk/BusinessDomain#name> "--ACN" .
<http://www.assero.co.uk/MDRSdtmM/CDISC/V3#M-CDISC_SDTMMODEL_xxACN> <http://www.assero.co.uk/BusinessDomain#prefixed> "true"^^<http://www.w3.org/2001/XMLSchema#boolean> .
<http://www.assero.co.uk/MDRSdtmM/CDISC/V3#M-CDISC_SDTMMODEL_xxACN> <http://www.assero.co.uk/BusinessDomain#description> "Describes changes made to the study treatment as a result of the event. Examples: DOSE INCREASED, DOSE NOT CHANGED." .
<http://www.assero.co.uk/MDRSdtmM/CDISC/V3#M-CDISC_SDTMMODEL_xxACNOTH> <http://www.w3.org/1999/02/22-rdf-syntax-ns#type> <http://www.assero.co.uk/BusinessDomain#ModelVariable> .
<http://www.assero.co.uk/MDRSdtmM/CDISC/V3#M-CDISC_SDTMMODEL_xxACNOTH> <http://www.w3.org/2000/01/rdf-schema#label> "Other Action Taken" .
<http://www.assero.co.uk/MDRSdtmM/CDISC/V3#M-CDISC_SDTMMODEL_xxACNOTH> <http://www.assero.co.uk/BusinessDomain#classifiedAs> <http://www.assero.co.uk/MDRSdtmM/CDISC/V3#M-CDISC_SDTMMODEL_SC_RECORDQUALIFIER> .
<http://www.assero.co.uk/MDRSdtmM/CDISC/V3#M-CDISC_SDTMMODEL_xxACNOTH> <http://www.assero.co.uk/BusinessDomain#typedAs> <http://www.assero.co.uk/MDRSdtmM/CDISC/V3#M-CDISC_SDTMMODEL_DT_CHAR> .
<http://www.assero.co.uk/MDRSdtmM/CDISC/V3#M-CDISC_SDTMMODEL_xxACNOTH> <http://www.assero.co.uk/BusinessDomain#rule> "" .
<http://www.assero.co.uk/MDRSdtmM/CDISC/V3#M-CDISC_SDTMMODEL_xxACNOTH> <http://www.assero.co.uk/BusinessDomain#ordinal> "30"^^<http://www.w3.org/2001/XMLSchema#integer> .
<http://www.assero.co.uk/MDRSdtmM/CDISC/V3#M-CDISC_SDTMMODEL_xxACNOTH> <http://www.assero.co.uk/BusinessDomain#name> "--ACNOTH" .
<http://www.assero.co.uk/MDRSdtmM/CDISC/V3#M-CDISC_SDTMMODEL_xxACNOTH> <http://www.assero.co.uk/BusinessDomain#prefixed> "true"^^<http://www.w3.org/2001/XMLSchema#boolean> .
<http://www.assero.co.uk/MDRSdtmM/CDISC/V3#M-CDISC_SDTMMODEL_xxACNOTH> <http://www.assero.co.uk/BusinessDomain#description> "Describes other actions taken as a result of the event that are unrelated to dose adjustments of study treatment." .
<http://www.assero.co.uk/MDRSdtmM/CDISC/V3#M-CDISC_SDTMMODEL_xxACNDEV> <http://www.w3.org/1999/02/22-rdf-syntax-ns#type> <http://www.assero.co.uk/BusinessDomain#ModelVariable> .
<http://www.assero.co.uk/MDRSdtmM/CDISC/V3#M-CDISC_SDTMMODEL_xxACNDEV> <http://www.w3.org/2000/01/rdf-schema#label> "Action Taken with Device" .
<http://www.assero.co.uk/MDRSdtmM/CDISC/V3#M-CDISC_SDTMMODEL_xxACNDEV> <http://www.assero.co.uk/BusinessDomain#classifiedAs> <http://www.assero.co.uk/MDRSdtmM/CDISC/V3#M-CDISC_SDTMMODEL_SC_RECORDQUALIFIER> .
<http://www.assero.co.uk/MDRSdtmM/CDISC/V3#M-CDISC_SDTMMODEL_xxACNDEV> <http://www.assero.co.uk/BusinessDomain#typedAs> <http://www.assero.co.uk/MDRSdtmM/CDISC/V3#M-CDISC_SDTMMODEL_DT_CHAR> .
<http://www.assero.co.uk/MDRSdtmM/CDISC/V3#M-CDISC_SDTMMODEL_xxACNDEV> <http://www.assero.co.uk/BusinessDomain#rule> "" .
<http://www.assero.co.uk/MDRSdtmM/CDISC/V3#M-CDISC_SDTMMODEL_xxACNDEV> <http://www.assero.co.uk/BusinessDomain#ordinal> "31"^^<http://www.w3.org/2001/XMLSchema#integer> .
<http://www.assero.co.uk/MDRSdtmM/CDISC/V3#M-CDISC_SDTMMODEL_xxACNDEV> <http://www.assero.co.uk/BusinessDomain#name> "--ACNDEV" .
<http://www.assero.co.uk/MDRSdtmM/CDISC/V3#M-CDISC_SDTMMODEL_xxACNDEV> <http://www.assero.co.uk/BusinessDomain#prefixed> "true"^^<http://www.w3.org/2001/XMLSchema#boolean> .
<http://www.assero.co.uk/MDRSdtmM/CDISC/V3#M-CDISC_SDTMMODEL_xxACNDEV> <http://www.assero.co.uk/BusinessDomain#description> "Action taken with respect to a device in a study, which may or may not be the device under study" .
<http://www.assero.co.uk/MDRSdtmM/CDISC/V3#M-CDISC_SDTMMODEL_xxREL> <http://www.w3.org/1999/02/22-rdf-syntax-ns#type> <http://www.assero.co.uk/BusinessDomain#ModelVariable> .
<http://www.assero.co.uk/MDRSdtmM/CDISC/V3#M-CDISC_SDTMMODEL_xxREL> <http://www.w3.org/2000/01/rdf-schema#label> "Causality" .
<http://www.assero.co.uk/MDRSdtmM/CDISC/V3#M-CDISC_SDTMMODEL_xxREL> <http://www.assero.co.uk/BusinessDomain#classifiedAs> <http://www.assero.co.uk/MDRSdtmM/CDISC/V3#M-CDISC_SDTMMODEL_SC_RECORDQUALIFIER> .
<http://www.assero.co.uk/MDRSdtmM/CDISC/V3#M-CDISC_SDTMMODEL_xxREL> <http://www.assero.co.uk/BusinessDomain#typedAs> <http://www.assero.co.uk/MDRSdtmM/CDISC/V3#M-CDISC_SDTMMODEL_DT_CHAR> .
<http://www.assero.co.uk/MDRSdtmM/CDISC/V3#M-CDISC_SDTMMODEL_xxREL> <http://www.assero.co.uk/BusinessDomain#rule> "" .
<http://www.assero.co.uk/MDRSdtmM/CDISC/V3#M-CDISC_SDTMMODEL_xxREL> <http://www.assero.co.uk/BusinessDomain#ordinal> "32"^^<http://www.w3.org/2001/XMLSchema#integer> .
<http://www.assero.co.uk/MDRSdtmM/CDISC/V3#M-CDISC_SDTMMODEL_xxREL> <http://www.assero.co.uk/BusinessDomain#name> "--REL" .
<http://www.assero.co.uk/MDRSdtmM/CDISC/V3#M-CDISC_SDTMMODEL_xxREL> <http://www.assero.co.uk/BusinessDomain#prefixed> "true"^^<http://www.w3.org/2001/XMLSchema#boolean> .
<http://www.assero.co.uk/MDRSdtmM/CDISC/V3#M-CDISC_SDTMMODEL_xxREL> <http://www.assero.co.uk/BusinessDomain#description> "Records the investigator's opinion as to the causality of the event to the treatment. ICH E2A and E2B examples include NOT RELATED, UNLIKELY RELATED, POSSIBLY RELATED, RELATED." .
<http://www.assero.co.uk/MDRSdtmM/CDISC/V3#M-CDISC_SDTMMODEL_xxRELNST> <http://www.w3.org/1999/02/22-rdf-syntax-ns#type> <http://www.assero.co.uk/BusinessDomain#ModelVariable> .
<http://www.assero.co.uk/MDRSdtmM/CDISC/V3#M-CDISC_SDTMMODEL_xxRELNST> <http://www.w3.org/2000/01/rdf-schema#label> "Relationship to Non-Study Treatment" .
<http://www.assero.co.uk/MDRSdtmM/CDISC/V3#M-CDISC_SDTMMODEL_xxRELNST> <http://www.assero.co.uk/BusinessDomain#classifiedAs> <http://www.assero.co.uk/MDRSdtmM/CDISC/V3#M-CDISC_SDTMMODEL_SC_RECORDQUALIFIER> .
<http://www.assero.co.uk/MDRSdtmM/CDISC/V3#M-CDISC_SDTMMODEL_xxRELNST> <http://www.assero.co.uk/BusinessDomain#typedAs> <http://www.assero.co.uk/MDRSdtmM/CDISC/V3#M-CDISC_SDTMMODEL_DT_CHAR> .
<http://www.assero.co.uk/MDRSdtmM/CDISC/V3#M-CDISC_SDTMMODEL_xxRELNST> <http://www.assero.co.uk/BusinessDomain#rule> "" .
<http://www.assero.co.uk/MDRSdtmM/CDISC/V3#M-CDISC_SDTMMODEL_xxRELNST> <http://www.assero.co.uk/BusinessDomain#ordinal> "33"^^<http://www.w3.org/2001/XMLSchema#integer> .
<http://www.assero.co.uk/MDRSdtmM/CDISC/V3#M-CDISC_SDTMMODEL_xxRELNST> <http://www.assero.co.uk/BusinessDomain#name> "--RELNST" .
<http://www.assero.co.uk/MDRSdtmM/CDISC/V3#M-CDISC_SDTMMODEL_xxRELNST> <http://www.assero.co.uk/BusinessDomain#prefixed> "true"^^<http://www.w3.org/2001/XMLSchema#boolean> .
<http://www.assero.co.uk/MDRSdtmM/CDISC/V3#M-CDISC_SDTMMODEL_xxRELNST> <http://www.assero.co.uk/BusinessDomain#description> "An opinion as to whether the event may have been due to a treatment other than study drug. Example: \"MORE LIKELY RELATED TO ASPIRIN USE.\"" .
<http://www.assero.co.uk/MDRSdtmM/CDISC/V3#M-CDISC_SDTMMODEL_xxPATT> <http://www.w3.org/1999/02/22-rdf-syntax-ns#type> <http://www.assero.co.uk/BusinessDomain#ModelVariable> .
<http://www.assero.co.uk/MDRSdtmM/CDISC/V3#M-CDISC_SDTMMODEL_xxPATT> <http://www.w3.org/2000/01/rdf-schema#label> "Pattern of Event" .
<http://www.assero.co.uk/MDRSdtmM/CDISC/V3#M-CDISC_SDTMMODEL_xxPATT> <http://www.assero.co.uk/BusinessDomain#classifiedAs> <http://www.assero.co.uk/MDRSdtmM/CDISC/V3#M-CDISC_SDTMMODEL_SC_RECORDQUALIFIER> .
<http://www.assero.co.uk/MDRSdtmM/CDISC/V3#M-CDISC_SDTMMODEL_xxPATT> <http://www.assero.co.uk/BusinessDomain#typedAs> <http://www.assero.co.uk/MDRSdtmM/CDISC/V3#M-CDISC_SDTMMODEL_DT_CHAR> .
<http://www.assero.co.uk/MDRSdtmM/CDISC/V3#M-CDISC_SDTMMODEL_xxPATT> <http://www.assero.co.uk/BusinessDomain#rule> "" .
<http://www.assero.co.uk/MDRSdtmM/CDISC/V3#M-CDISC_SDTMMODEL_xxPATT> <http://www.assero.co.uk/BusinessDomain#ordinal> "34"^^<http://www.w3.org/2001/XMLSchema#integer> .
<http://www.assero.co.uk/MDRSdtmM/CDISC/V3#M-CDISC_SDTMMODEL_xxPATT> <http://www.assero.co.uk/BusinessDomain#name> "--PATT" .
<http://www.assero.co.uk/MDRSdtmM/CDISC/V3#M-CDISC_SDTMMODEL_xxPATT> <http://www.assero.co.uk/BusinessDomain#prefixed> "true"^^<http://www.w3.org/2001/XMLSchema#boolean> .
<http://www.assero.co.uk/MDRSdtmM/CDISC/V3#M-CDISC_SDTMMODEL_xxPATT> <http://www.assero.co.uk/BusinessDomain#description> "Used to indicate the pattern of the event over time. Examples: INTERMITTENT, CONTINUOUS, SINGLE EVENT." .
<http://www.assero.co.uk/MDRSdtmM/CDISC/V3#M-CDISC_SDTMMODEL_xxOUT> <http://www.w3.org/1999/02/22-rdf-syntax-ns#type> <http://www.assero.co.uk/BusinessDomain#ModelVariable> .
<http://www.assero.co.uk/MDRSdtmM/CDISC/V3#M-CDISC_SDTMMODEL_xxOUT> <http://www.w3.org/2000/01/rdf-schema#label> "Outcome of Event" .
<http://www.assero.co.uk/MDRSdtmM/CDISC/V3#M-CDISC_SDTMMODEL_xxOUT> <http://www.assero.co.uk/BusinessDomain#classifiedAs> <http://www.assero.co.uk/MDRSdtmM/CDISC/V3#M-CDISC_SDTMMODEL_SC_RECORDQUALIFIER> .
<http://www.assero.co.uk/MDRSdtmM/CDISC/V3#M-CDISC_SDTMMODEL_xxOUT> <http://www.assero.co.uk/BusinessDomain#typedAs> <http://www.assero.co.uk/MDRSdtmM/CDISC/V3#M-CDISC_SDTMMODEL_DT_CHAR> .
<http://www.assero.co.uk/MDRSdtmM/CDISC/V3#M-CDISC_SDTMMODEL_xxOUT> <http://www.assero.co.uk/BusinessDomain#rule> "" .
<http://www.assero.co.uk/MDRSdtmM/CDISC/V3#M-CDISC_SDTMMODEL_xxOUT> <http://www.assero.co.uk/BusinessDomain#ordinal> "35"^^<http://www.w3.org/2001/XMLSchema#integer> .
<http://www.assero.co.uk/MDRSdtmM/CDISC/V3#M-CDISC_SDTMMODEL_xxOUT> <http://www.assero.co.uk/BusinessDomain#name> "--OUT" .
<http://www.assero.co.uk/MDRSdtmM/CDISC/V3#M-CDISC_SDTMMODEL_xxOUT> <http://www.assero.co.uk/BusinessDomain#prefixed> "true"^^<http://www.w3.org/2001/XMLSchema#boolean> .
<http://www.assero.co.uk/MDRSdtmM/CDISC/V3#M-CDISC_SDTMMODEL_xxOUT> <http://www.assero.co.uk/BusinessDomain#description> "Description of the outcome of an event. Examples: RECOVERED/RESOLVED, FATAL." .
<http://www.assero.co.uk/MDRSdtmM/CDISC/V3#M-CDISC_SDTMMODEL_xxSCAN> <http://www.w3.org/1999/02/22-rdf-syntax-ns#type> <http://www.assero.co.uk/BusinessDomain#ModelVariable> .
<http://www.assero.co.uk/MDRSdtmM/CDISC/V3#M-CDISC_SDTMMODEL_xxSCAN> <http://www.w3.org/2000/01/rdf-schema#label> "Involves Cancer" .
<http://www.assero.co.uk/MDRSdtmM/CDISC/V3#M-CDISC_SDTMMODEL_xxSCAN> <http://www.assero.co.uk/BusinessDomain#classifiedAs> <http://www.assero.co.uk/MDRSdtmM/CDISC/V3#M-CDISC_SDTMMODEL_SC_RECORDQUALIFIER> .
<http://www.assero.co.uk/MDRSdtmM/CDISC/V3#M-CDISC_SDTMMODEL_xxSCAN> <http://www.assero.co.uk/BusinessDomain#typedAs> <http://www.assero.co.uk/MDRSdtmM/CDISC/V3#M-CDISC_SDTMMODEL_DT_CHAR> .
<http://www.assero.co.uk/MDRSdtmM/CDISC/V3#M-CDISC_SDTMMODEL_xxSCAN> <http://www.assero.co.uk/BusinessDomain#rule> "" .
<http://www.assero.co.uk/MDRSdtmM/CDISC/V3#M-CDISC_SDTMMODEL_xxSCAN> <http://www.assero.co.uk/BusinessDomain#ordinal> "36"^^<http://www.w3.org/2001/XMLSchema#integer> .
<http://www.assero.co.uk/MDRSdtmM/CDISC/V3#M-CDISC_SDTMMODEL_xxSCAN> <http://www.assero.co.uk/BusinessDomain#name> "--SCAN" .
<http://www.assero.co.uk/MDRSdtmM/CDISC/V3#M-CDISC_SDTMMODEL_xxSCAN> <http://www.assero.co.uk/BusinessDomain#prefixed> "true"^^<http://www.w3.org/2001/XMLSchema#boolean> .
<http://www.assero.co.uk/MDRSdtmM/CDISC/V3#M-CDISC_SDTMMODEL_xxSCAN> <http://www.assero.co.uk/BusinessDomain#description> "Was the event associated with the development of cancer? Valid values are “Y” and “N”." .
<http://www.assero.co.uk/MDRSdtmM/CDISC/V3#M-CDISC_SDTMMODEL_xxSCONG> <http://www.w3.org/1999/02/22-rdf-syntax-ns#type> <http://www.assero.co.uk/BusinessDomain#ModelVariable> .
<http://www.assero.co.uk/MDRSdtmM/CDISC/V3#M-CDISC_SDTMMODEL_xxSCONG> <http://www.w3.org/2000/01/rdf-schema#label> "Congenital Anomaly or Birth Defect" .
<http://www.assero.co.uk/MDRSdtmM/CDISC/V3#M-CDISC_SDTMMODEL_xxSCONG> <http://www.assero.co.uk/BusinessDomain#classifiedAs> <http://www.assero.co.uk/MDRSdtmM/CDISC/V3#M-CDISC_SDTMMODEL_SC_RECORDQUALIFIER> .
<http://www.assero.co.uk/MDRSdtmM/CDISC/V3#M-CDISC_SDTMMODEL_xxSCONG> <http://www.assero.co.uk/BusinessDomain#typedAs> <http://www.assero.co.uk/MDRSdtmM/CDISC/V3#M-CDISC_SDTMMODEL_DT_CHAR> .
<http://www.assero.co.uk/MDRSdtmM/CDISC/V3#M-CDISC_SDTMMODEL_xxSCONG> <http://www.assero.co.uk/BusinessDomain#rule> "" .
<http://www.assero.co.uk/MDRSdtmM/CDISC/V3#M-CDISC_SDTMMODEL_xxSCONG> <http://www.assero.co.uk/BusinessDomain#ordinal> "37"^^<http://www.w3.org/2001/XMLSchema#integer> .
<http://www.assero.co.uk/MDRSdtmM/CDISC/V3#M-CDISC_SDTMMODEL_xxSCONG> <http://www.assero.co.uk/BusinessDomain#name> "--SCONG" .
<http://www.assero.co.uk/MDRSdtmM/CDISC/V3#M-CDISC_SDTMMODEL_xxSCONG> <http://www.assero.co.uk/BusinessDomain#prefixed> "true"^^<http://www.w3.org/2001/XMLSchema#boolean> .
<http://www.assero.co.uk/MDRSdtmM/CDISC/V3#M-CDISC_SDTMMODEL_xxSCONG> <http://www.assero.co.uk/BusinessDomain#description> "Was the event associated with congenital anomaly or birth defect? Valid values are “Y” and “N”." .
<http://www.assero.co.uk/MDRSdtmM/CDISC/V3#M-CDISC_SDTMMODEL_xxSDISAB> <http://www.w3.org/1999/02/22-rdf-syntax-ns#type> <http://www.assero.co.uk/BusinessDomain#ModelVariable> .
<http://www.assero.co.uk/MDRSdtmM/CDISC/V3#M-CDISC_SDTMMODEL_xxSDISAB> <http://www.w3.org/2000/01/rdf-schema#label> "Persist or Signif Disability/Incapacity" .
<http://www.assero.co.uk/MDRSdtmM/CDISC/V3#M-CDISC_SDTMMODEL_xxSDISAB> <http://www.assero.co.uk/BusinessDomain#classifiedAs> <http://www.assero.co.uk/MDRSdtmM/CDISC/V3#M-CDISC_SDTMMODEL_SC_RECORDQUALIFIER> .
<http://www.assero.co.uk/MDRSdtmM/CDISC/V3#M-CDISC_SDTMMODEL_xxSDISAB> <http://www.assero.co.uk/BusinessDomain#typedAs> <http://www.assero.co.uk/MDRSdtmM/CDISC/V3#M-CDISC_SDTMMODEL_DT_CHAR> .
<http://www.assero.co.uk/MDRSdtmM/CDISC/V3#M-CDISC_SDTMMODEL_xxSDISAB> <http://www.assero.co.uk/BusinessDomain#rule> "" .
<http://www.assero.co.uk/MDRSdtmM/CDISC/V3#M-CDISC_SDTMMODEL_xxSDISAB> <http://www.assero.co.uk/BusinessDomain#ordinal> "38"^^<http://www.w3.org/2001/XMLSchema#integer> .
<http://www.assero.co.uk/MDRSdtmM/CDISC/V3#M-CDISC_SDTMMODEL_xxSDISAB> <http://www.assero.co.uk/BusinessDomain#name> "--SDISAB" .
<http://www.assero.co.uk/MDRSdtmM/CDISC/V3#M-CDISC_SDTMMODEL_xxSDISAB> <http://www.assero.co.uk/BusinessDomain#prefixed> "true"^^<http://www.w3.org/2001/XMLSchema#boolean> .
<http://www.assero.co.uk/MDRSdtmM/CDISC/V3#M-CDISC_SDTMMODEL_xxSDISAB> <http://www.assero.co.uk/BusinessDomain#description> "Did the event result in persistent or significant disability/incapacity? Valid values are “Y” and “N”." .
<http://www.assero.co.uk/MDRSdtmM/CDISC/V3#M-CDISC_SDTMMODEL_xxSDTH> <http://www.w3.org/1999/02/22-rdf-syntax-ns#type> <http://www.assero.co.uk/BusinessDomain#ModelVariable> .
<http://www.assero.co.uk/MDRSdtmM/CDISC/V3#M-CDISC_SDTMMODEL_xxSDTH> <http://www.w3.org/2000/01/rdf-schema#label> "Results in Death" .
<http://www.assero.co.uk/MDRSdtmM/CDISC/V3#M-CDISC_SDTMMODEL_xxSDTH> <http://www.assero.co.uk/BusinessDomain#classifiedAs> <http://www.assero.co.uk/MDRSdtmM/CDISC/V3#M-CDISC_SDTMMODEL_SC_RECORDQUALIFIER> .
<http://www.assero.co.uk/MDRSdtmM/CDISC/V3#M-CDISC_SDTMMODEL_xxSDTH> <http://www.assero.co.uk/BusinessDomain#typedAs> <http://www.assero.co.uk/MDRSdtmM/CDISC/V3#M-CDISC_SDTMMODEL_DT_CHAR> .
<http://www.assero.co.uk/MDRSdtmM/CDISC/V3#M-CDISC_SDTMMODEL_xxSDTH> <http://www.assero.co.uk/BusinessDomain#rule> "" .
<http://www.assero.co.uk/MDRSdtmM/CDISC/V3#M-CDISC_SDTMMODEL_xxSDTH> <http://www.assero.co.uk/BusinessDomain#ordinal> "39"^^<http://www.w3.org/2001/XMLSchema#integer> .
<http://www.assero.co.uk/MDRSdtmM/CDISC/V3#M-CDISC_SDTMMODEL_xxSDTH> <http://www.assero.co.uk/BusinessDomain#name> "--SDTH" .
<http://www.assero.co.uk/MDRSdtmM/CDISC/V3#M-CDISC_SDTMMODEL_xxSDTH> <http://www.assero.co.uk/BusinessDomain#prefixed> "true"^^<http://www.w3.org/2001/XMLSchema#boolean> .
<http://www.assero.co.uk/MDRSdtmM/CDISC/V3#M-CDISC_SDTMMODEL_xxSDTH> <http://www.assero.co.uk/BusinessDomain#description> "Did the event result in death? Valid values are “Y” and “N”." .
<http://www.assero.co.uk/MDRSdtmM/CDISC/V3#M-CDISC_SDTMMODEL_xxSHOSP> <http://www.w3.org/1999/02/22-rdf-syntax-ns#type> <http://www.assero.co.uk/BusinessDomain#ModelVariable> .
<http://www.assero.co.uk/MDRSdtmM/CDISC/V3#M-CDISC_SDTMMODEL_xxSHOSP> <http://www.w3.org/2000/01/rdf-schema#label> "Requires or Prolongs Hospitalization" .
<http://www.assero.co.uk/MDRSdtmM/CDISC/V3#M-CDISC_SDTMMODEL_xxSHOSP> <http://www.assero.co.uk/BusinessDomain#classifiedAs> <http://www.assero.co.uk/MDRSdtmM/CDISC/V3#M-CDISC_SDTMMODEL_SC_RECORDQUALIFIER> .
<http://www.assero.co.uk/MDRSdtmM/CDISC/V3#M-CDISC_SDTMMODEL_xxSHOSP> <http://www.assero.co.uk/BusinessDomain#typedAs> <http://www.assero.co.uk/MDRSdtmM/CDISC/V3#M-CDISC_SDTMMODEL_DT_CHAR> .
<http://www.assero.co.uk/MDRSdtmM/CDISC/V3#M-CDISC_SDTMMODEL_xxSHOSP> <http://www.assero.co.uk/BusinessDomain#rule> "" .
<http://www.assero.co.uk/MDRSdtmM/CDISC/V3#M-CDISC_SDTMMODEL_xxSHOSP> <http://www.assero.co.uk/BusinessDomain#ordinal> "40"^^<http://www.w3.org/2001/XMLSchema#integer> .
<http://www.assero.co.uk/MDRSdtmM/CDISC/V3#M-CDISC_SDTMMODEL_xxSHOSP> <http://www.assero.co.uk/BusinessDomain#name> "--SHOSP" .
<http://www.assero.co.uk/MDRSdtmM/CDISC/V3#M-CDISC_SDTMMODEL_xxSHOSP> <http://www.assero.co.uk/BusinessDomain#prefixed> "true"^^<http://www.w3.org/2001/XMLSchema#boolean> .
<http://www.assero.co.uk/MDRSdtmM/CDISC/V3#M-CDISC_SDTMMODEL_xxSHOSP> <http://www.assero.co.uk/BusinessDomain#description> "Did the event require or prolong hospitalization? Valid values are “Y” and “N”." .
<http://www.assero.co.uk/MDRSdtmM/CDISC/V3#M-CDISC_SDTMMODEL_xxSLIFE> <http://www.w3.org/1999/02/22-rdf-syntax-ns#type> <http://www.assero.co.uk/BusinessDomain#ModelVariable> .
<http://www.assero.co.uk/MDRSdtmM/CDISC/V3#M-CDISC_SDTMMODEL_xxSLIFE> <http://www.w3.org/2000/01/rdf-schema#label> "Is Life Threatening" .
<http://www.assero.co.uk/MDRSdtmM/CDISC/V3#M-CDISC_SDTMMODEL_xxSLIFE> <http://www.assero.co.uk/BusinessDomain#classifiedAs> <http://www.assero.co.uk/MDRSdtmM/CDISC/V3#M-CDISC_SDTMMODEL_SC_RECORDQUALIFIER> .
<http://www.assero.co.uk/MDRSdtmM/CDISC/V3#M-CDISC_SDTMMODEL_xxSLIFE> <http://www.assero.co.uk/BusinessDomain#typedAs> <http://www.assero.co.uk/MDRSdtmM/CDISC/V3#M-CDISC_SDTMMODEL_DT_CHAR> .
<http://www.assero.co.uk/MDRSdtmM/CDISC/V3#M-CDISC_SDTMMODEL_xxSLIFE> <http://www.assero.co.uk/BusinessDomain#rule> "" .
<http://www.assero.co.uk/MDRSdtmM/CDISC/V3#M-CDISC_SDTMMODEL_xxSLIFE> <http://www.assero.co.uk/BusinessDomain#ordinal> "41"^^<http://www.w3.org/2001/XMLSchema#integer> .
<http://www.assero.co.uk/MDRSdtmM/CDISC/V3#M-CDISC_SDTMMODEL_xxSLIFE> <http://www.assero.co.uk/BusinessDomain#name> "--SLIFE" .
<http://www.assero.co.uk/MDRSdtmM/CDISC/V3#M-CDISC_SDTMMODEL_xxSLIFE> <http://www.assero.co.uk/BusinessDomain#prefixed> "true"^^<http://www.w3.org/2001/XMLSchema#boolean> .
<http://www.assero.co.uk/MDRSdtmM/CDISC/V3#M-CDISC_SDTMMODEL_xxSLIFE> <http://www.assero.co.uk/BusinessDomain#description> "Was the event life threatening? Valid values are “Y” and “N”." .
<http://www.assero.co.uk/MDRSdtmM/CDISC/V3#M-CDISC_SDTMMODEL_xxSOD> <http://www.w3.org/1999/02/22-rdf-syntax-ns#type> <http://www.assero.co.uk/BusinessDomain#ModelVariable> .
<http://www.assero.co.uk/MDRSdtmM/CDISC/V3#M-CDISC_SDTMMODEL_xxSOD> <http://www.w3.org/2000/01/rdf-schema#label> "Occurred with Overdose" .
<http://www.assero.co.uk/MDRSdtmM/CDISC/V3#M-CDISC_SDTMMODEL_xxSOD> <http://www.assero.co.uk/BusinessDomain#classifiedAs> <http://www.assero.co.uk/MDRSdtmM/CDISC/V3#M-CDISC_SDTMMODEL_SC_RECORDQUALIFIER> .
<http://www.assero.co.uk/MDRSdtmM/CDISC/V3#M-CDISC_SDTMMODEL_xxSOD> <http://www.assero.co.uk/BusinessDomain#typedAs> <http://www.assero.co.uk/MDRSdtmM/CDISC/V3#M-CDISC_SDTMMODEL_DT_CHAR> .
<http://www.assero.co.uk/MDRSdtmM/CDISC/V3#M-CDISC_SDTMMODEL_xxSOD> <http://www.assero.co.uk/BusinessDomain#rule> "" .
<http://www.assero.co.uk/MDRSdtmM/CDISC/V3#M-CDISC_SDTMMODEL_xxSOD> <http://www.assero.co.uk/BusinessDomain#ordinal> "42"^^<http://www.w3.org/2001/XMLSchema#integer> .
<http://www.assero.co.uk/MDRSdtmM/CDISC/V3#M-CDISC_SDTMMODEL_xxSOD> <http://www.assero.co.uk/BusinessDomain#name> "--SOD" .
<http://www.assero.co.uk/MDRSdtmM/CDISC/V3#M-CDISC_SDTMMODEL_xxSOD> <http://www.assero.co.uk/BusinessDomain#prefixed> "true"^^<http://www.w3.org/2001/XMLSchema#boolean> .
<http://www.assero.co.uk/MDRSdtmM/CDISC/V3#M-CDISC_SDTMMODEL_xxSOD> <http://www.assero.co.uk/BusinessDomain#description> "Did the event occur with an overdose? Valid values are “Y” and “N”." .
<http://www.assero.co.uk/MDRSdtmM/CDISC/V3#M-CDISC_SDTMMODEL_xxSMIE> <http://www.w3.org/1999/02/22-rdf-syntax-ns#type> <http://www.assero.co.uk/BusinessDomain#ModelVariable> .
<http://www.assero.co.uk/MDRSdtmM/CDISC/V3#M-CDISC_SDTMMODEL_xxSMIE> <http://www.w3.org/2000/01/rdf-schema#label> "Other Medically Important Serious Event" .
<http://www.assero.co.uk/MDRSdtmM/CDISC/V3#M-CDISC_SDTMMODEL_xxSMIE> <http://www.assero.co.uk/BusinessDomain#classifiedAs> <http://www.assero.co.uk/MDRSdtmM/CDISC/V3#M-CDISC_SDTMMODEL_SC_RECORDQUALIFIER> .
<http://www.assero.co.uk/MDRSdtmM/CDISC/V3#M-CDISC_SDTMMODEL_xxSMIE> <http://www.assero.co.uk/BusinessDomain#typedAs> <http://www.assero.co.uk/MDRSdtmM/CDISC/V3#M-CDISC_SDTMMODEL_DT_CHAR> .
<http://www.assero.co.uk/MDRSdtmM/CDISC/V3#M-CDISC_SDTMMODEL_xxSMIE> <http://www.assero.co.uk/BusinessDomain#rule> "" .
<http://www.assero.co.uk/MDRSdtmM/CDISC/V3#M-CDISC_SDTMMODEL_xxSMIE> <http://www.assero.co.uk/BusinessDomain#ordinal> "43"^^<http://www.w3.org/2001/XMLSchema#integer> .
<http://www.assero.co.uk/MDRSdtmM/CDISC/V3#M-CDISC_SDTMMODEL_xxSMIE> <http://www.assero.co.uk/BusinessDomain#name> "--SMIE" .
<http://www.assero.co.uk/MDRSdtmM/CDISC/V3#M-CDISC_SDTMMODEL_xxSMIE> <http://www.assero.co.uk/BusinessDomain#prefixed> "true"^^<http://www.w3.org/2001/XMLSchema#boolean> .
<http://www.assero.co.uk/MDRSdtmM/CDISC/V3#M-CDISC_SDTMMODEL_xxSMIE> <http://www.assero.co.uk/BusinessDomain#description> "Do additional categories for seriousness apply? Valid values are “Y” and “N”." .
<http://www.assero.co.uk/MDRSdtmM/CDISC/V3#M-CDISC_SDTMMODEL_xxCONTRT> <http://www.w3.org/1999/02/22-rdf-syntax-ns#type> <http://www.assero.co.uk/BusinessDomain#ModelVariable> .
<http://www.assero.co.uk/MDRSdtmM/CDISC/V3#M-CDISC_SDTMMODEL_xxCONTRT> <http://www.w3.org/2000/01/rdf-schema#label> "Concomitant or Additional Trtmnt Given" .
<http://www.assero.co.uk/MDRSdtmM/CDISC/V3#M-CDISC_SDTMMODEL_xxCONTRT> <http://www.assero.co.uk/BusinessDomain#classifiedAs> <http://www.assero.co.uk/MDRSdtmM/CDISC/V3#M-CDISC_SDTMMODEL_SC_RECORDQUALIFIER> .
<http://www.assero.co.uk/MDRSdtmM/CDISC/V3#M-CDISC_SDTMMODEL_xxCONTRT> <http://www.assero.co.uk/BusinessDomain#typedAs> <http://www.assero.co.uk/MDRSdtmM/CDISC/V3#M-CDISC_SDTMMODEL_DT_CHAR> .
<http://www.assero.co.uk/MDRSdtmM/CDISC/V3#M-CDISC_SDTMMODEL_xxCONTRT> <http://www.assero.co.uk/BusinessDomain#rule> "" .
<http://www.assero.co.uk/MDRSdtmM/CDISC/V3#M-CDISC_SDTMMODEL_xxCONTRT> <http://www.assero.co.uk/BusinessDomain#ordinal> "44"^^<http://www.w3.org/2001/XMLSchema#integer> .
<http://www.assero.co.uk/MDRSdtmM/CDISC/V3#M-CDISC_SDTMMODEL_xxCONTRT> <http://www.assero.co.uk/BusinessDomain#name> "--CONTRT" .
<http://www.assero.co.uk/MDRSdtmM/CDISC/V3#M-CDISC_SDTMMODEL_xxCONTRT> <http://www.assero.co.uk/BusinessDomain#prefixed> "true"^^<http://www.w3.org/2001/XMLSchema#boolean> .
<http://www.assero.co.uk/MDRSdtmM/CDISC/V3#M-CDISC_SDTMMODEL_xxCONTRT> <http://www.assero.co.uk/BusinessDomain#description> "Was another treatment given because of the occurrence of the event? Valid values are “Y” and “N”." .
<http://www.assero.co.uk/MDRSdtmM/CDISC/V3#M-CDISC_SDTMMODEL_xxTOX> <http://www.w3.org/1999/02/22-rdf-syntax-ns#type> <http://www.assero.co.uk/BusinessDomain#ModelVariable> .
<http://www.assero.co.uk/MDRSdtmM/CDISC/V3#M-CDISC_SDTMMODEL_xxTOX> <http://www.w3.org/2000/01/rdf-schema#label> "Toxicity" .
<http://www.assero.co.uk/MDRSdtmM/CDISC/V3#M-CDISC_SDTMMODEL_xxTOX> <http://www.assero.co.uk/BusinessDomain#classifiedAs> <http://www.assero.co.uk/MDRSdtmM/CDISC/V3#M-CDISC_SDTMMODEL_SC_VARIABLEQUALIFIER> .
<http://www.assero.co.uk/MDRSdtmM/CDISC/V3#M-CDISC_SDTMMODEL_xxTOX> <http://www.assero.co.uk/BusinessDomain#typedAs> <http://www.assero.co.uk/MDRSdtmM/CDISC/V3#M-CDISC_SDTMMODEL_DT_CHAR> .
<http://www.assero.co.uk/MDRSdtmM/CDISC/V3#M-CDISC_SDTMMODEL_xxTOX> <http://www.assero.co.uk/BusinessDomain#rule> "" .
<http://www.assero.co.uk/MDRSdtmM/CDISC/V3#M-CDISC_SDTMMODEL_xxTOX> <http://www.assero.co.uk/BusinessDomain#ordinal> "45"^^<http://www.w3.org/2001/XMLSchema#integer> .
<http://www.assero.co.uk/MDRSdtmM/CDISC/V3#M-CDISC_SDTMMODEL_xxTOX> <http://www.assero.co.uk/BusinessDomain#name> "--TOX" .
<http://www.assero.co.uk/MDRSdtmM/CDISC/V3#M-CDISC_SDTMMODEL_xxTOX> <http://www.assero.co.uk/BusinessDomain#prefixed> "true"^^<http://www.w3.org/2001/XMLSchema#boolean> .
<http://www.assero.co.uk/MDRSdtmM/CDISC/V3#M-CDISC_SDTMMODEL_xxTOX> <http://www.assero.co.uk/BusinessDomain#description> "Description of toxicity quantified by --TOXGR such as NCI CTCAE Short Name. Examples: HYPERCALCEMIA, HYPOCALCEMIA. Sponsor should specify which scale and version is used in the Sponsor Comments column of the Define-XML document." .
<http://www.assero.co.uk/MDRSdtmM/CDISC/V3#M-CDISC_SDTMMODEL_xxTOXGR> <http://www.w3.org/1999/02/22-rdf-syntax-ns#type> <http://www.assero.co.uk/BusinessDomain#ModelVariable> .
<http://www.assero.co.uk/MDRSdtmM/CDISC/V3#M-CDISC_SDTMMODEL_xxTOXGR> <http://www.w3.org/2000/01/rdf-schema#label> "Toxicity Grade" .
<http://www.assero.co.uk/MDRSdtmM/CDISC/V3#M-CDISC_SDTMMODEL_xxTOXGR> <http://www.assero.co.uk/BusinessDomain#classifiedAs> <http://www.assero.co.uk/MDRSdtmM/CDISC/V3#M-CDISC_SDTMMODEL_SC_RECORDQUALIFIER> .
<http://www.assero.co.uk/MDRSdtmM/CDISC/V3#M-CDISC_SDTMMODEL_xxTOXGR> <http://www.assero.co.uk/BusinessDomain#typedAs> <http://www.assero.co.uk/MDRSdtmM/CDISC/V3#M-CDISC_SDTMMODEL_DT_CHAR> .
<http://www.assero.co.uk/MDRSdtmM/CDISC/V3#M-CDISC_SDTMMODEL_xxTOXGR> <http://www.assero.co.uk/BusinessDomain#rule> "" .
<http://www.assero.co.uk/MDRSdtmM/CDISC/V3#M-CDISC_SDTMMODEL_xxTOXGR> <http://www.assero.co.uk/BusinessDomain#ordinal> "46"^^<http://www.w3.org/2001/XMLSchema#integer> .
<http://www.assero.co.uk/MDRSdtmM/CDISC/V3#M-CDISC_SDTMMODEL_xxTOXGR> <http://www.assero.co.uk/BusinessDomain#name> "--TOXGR" .
<http://www.assero.co.uk/MDRSdtmM/CDISC/V3#M-CDISC_SDTMMODEL_xxTOXGR> <http://www.assero.co.uk/BusinessDomain#prefixed> "true"^^<http://www.w3.org/2001/XMLSchema#boolean> .
<http://www.assero.co.uk/MDRSdtmM/CDISC/V3#M-CDISC_SDTMMODEL_xxTOXGR> <http://www.assero.co.uk/BusinessDomain#description> "Records toxicity grade using a standard toxicity scale (such as the NCI CTCAE). Sponsor should specify which scale and version is used in the Sponsor Comments column of the Define-XML document." .
<http://www.assero.co.uk/MDRSdtmM/CDISC/V3#M-CDISC_SDTMMODEL_xxTOXGR> <http://www.assero.co.uk/BusinessDomain#description> "Records toxicity grade using a standard toxicity scale (such as the NCI CTCAE). Sponsor should specify which scale and version is used in the Sponsor Comments column of the Define data definition document. Example: 2." .
<http://www.assero.co.uk/MDRSdtmM/CDISC/V3#M-CDISC_SDTMMODEL_xxOBJ> <http://www.w3.org/1999/02/22-rdf-syntax-ns#type> <http://www.assero.co.uk/BusinessDomain#ModelVariable> .
<http://www.assero.co.uk/MDRSdtmM/CDISC/V3#M-CDISC_SDTMMODEL_xxOBJ> <http://www.w3.org/2000/01/rdf-schema#label> "Object of the Observation" .
<http://www.assero.co.uk/MDRSdtmM/CDISC/V3#M-CDISC_SDTMMODEL_xxOBJ> <http://www.assero.co.uk/BusinessDomain#classifiedAs> <http://www.assero.co.uk/MDRSdtmM/CDISC/V3#M-CDISC_SDTMMODEL_SC_RECORDQUALIFIER> .
<http://www.assero.co.uk/MDRSdtmM/CDISC/V3#M-CDISC_SDTMMODEL_xxOBJ> <http://www.assero.co.uk/BusinessDomain#typedAs> <http://www.assero.co.uk/MDRSdtmM/CDISC/V3#M-CDISC_SDTMMODEL_DT_CHAR> .
<http://www.assero.co.uk/MDRSdtmM/CDISC/V3#M-CDISC_SDTMMODEL_xxOBJ> <http://www.assero.co.uk/BusinessDomain#rule> "" .
<http://www.assero.co.uk/MDRSdtmM/CDISC/V3#M-CDISC_SDTMMODEL_xxOBJ> <http://www.assero.co.uk/BusinessDomain#ordinal> "1"^^<http://www.w3.org/2001/XMLSchema#integer> .
<http://www.assero.co.uk/MDRSdtmM/CDISC/V3#M-CDISC_SDTMMODEL_xxOBJ> <http://www.assero.co.uk/BusinessDomain#name> "--OBJ" .
<http://www.assero.co.uk/MDRSdtmM/CDISC/V3#M-CDISC_SDTMMODEL_xxOBJ> <http://www.assero.co.uk/BusinessDomain#prefixed> "true"^^<http://www.w3.org/2001/XMLSchema#boolean> .
<http://www.assero.co.uk/MDRSdtmM/CDISC/V3#M-CDISC_SDTMMODEL_xxOBJ> <http://www.assero.co.uk/BusinessDomain#description> "Used in domains modeled as Findings About Events or Findings About Interventions. Describes the event or intervention whose property is being measured in --TESTCD/--TEST. Example: an event of vomiting which has findings, where --OBJ = “VOMIT” and the volume of VOMIT is being measured where --TESTCD = \"VOLUME\"." .
<http://www.assero.co.uk/MDRSdtmM/CDISC/V3#M-CDISC_SDTMMODEL_xxTESTCD> <http://www.w3.org/1999/02/22-rdf-syntax-ns#type> <http://www.assero.co.uk/BusinessDomain#ModelVariable> .
<http://www.assero.co.uk/MDRSdtmM/CDISC/V3#M-CDISC_SDTMMODEL_xxTESTCD> <http://www.w3.org/2000/01/rdf-schema#label> "Short Name of Measurement, Test or Examination" .
<http://www.assero.co.uk/MDRSdtmM/CDISC/V3#M-CDISC_SDTMMODEL_xxTESTCD> <http://www.assero.co.uk/BusinessDomain#classifiedAs> <http://www.assero.co.uk/MDRSdtmM/CDISC/V3#M-CDISC_SDTMMODEL_C_TOPIC> .
<http://www.assero.co.uk/MDRSdtmM/CDISC/V3#M-CDISC_SDTMMODEL_xxTESTCD> <http://www.assero.co.uk/BusinessDomain#typedAs> <http://www.assero.co.uk/MDRSdtmM/CDISC/V3#M-CDISC_SDTMMODEL_DT_CHAR> .
<http://www.assero.co.uk/MDRSdtmM/CDISC/V3#M-CDISC_SDTMMODEL_xxTESTCD> <http://www.assero.co.uk/BusinessDomain#rule> "" .
<http://www.assero.co.uk/MDRSdtmM/CDISC/V3#M-CDISC_SDTMMODEL_xxTESTCD> <http://www.assero.co.uk/BusinessDomain#ordinal> "1"^^<http://www.w3.org/2001/XMLSchema#integer> .
<http://www.assero.co.uk/MDRSdtmM/CDISC/V3#M-CDISC_SDTMMODEL_xxTESTCD> <http://www.assero.co.uk/BusinessDomain#name> "--TESTCD" .
<http://www.assero.co.uk/MDRSdtmM/CDISC/V3#M-CDISC_SDTMMODEL_xxTESTCD> <http://www.assero.co.uk/BusinessDomain#prefixed> "true"^^<http://www.w3.org/2001/XMLSchema#boolean> .
<http://www.assero.co.uk/MDRSdtmM/CDISC/V3#M-CDISC_SDTMMODEL_xxTESTCD> <http://www.assero.co.uk/BusinessDomain#description> "Short character value for --TEST used as a column name when converting a dataset from a vertical format to a horizontal format. The short value can be up to 8 characters. Examples: PLAT, SYSBP, RRMIN, EYEEXAM." .
<http://www.assero.co.uk/MDRSdtmM/CDISC/V3#M-CDISC_SDTMMODEL_xxTEST> <http://www.w3.org/1999/02/22-rdf-syntax-ns#type> <http://www.assero.co.uk/BusinessDomain#ModelVariable> .
<http://www.assero.co.uk/MDRSdtmM/CDISC/V3#M-CDISC_SDTMMODEL_xxTEST> <http://www.w3.org/2000/01/rdf-schema#label> "Name of Measurement, Test or Examination" .
<http://www.assero.co.uk/MDRSdtmM/CDISC/V3#M-CDISC_SDTMMODEL_xxTEST> <http://www.assero.co.uk/BusinessDomain#classifiedAs> <http://www.assero.co.uk/MDRSdtmM/CDISC/V3#M-CDISC_SDTMMODEL_SC_SYNONYMQUALIFIER> .
<http://www.assero.co.uk/MDRSdtmM/CDISC/V3#M-CDISC_SDTMMODEL_xxTEST> <http://www.assero.co.uk/BusinessDomain#typedAs> <http://www.assero.co.uk/MDRSdtmM/CDISC/V3#M-CDISC_SDTMMODEL_DT_CHAR> .
<http://www.assero.co.uk/MDRSdtmM/CDISC/V3#M-CDISC_SDTMMODEL_xxTEST> <http://www.assero.co.uk/BusinessDomain#rule> "" .
<http://www.assero.co.uk/MDRSdtmM/CDISC/V3#M-CDISC_SDTMMODEL_xxTEST> <http://www.assero.co.uk/BusinessDomain#ordinal> "2"^^<http://www.w3.org/2001/XMLSchema#integer> .
<http://www.assero.co.uk/MDRSdtmM/CDISC/V3#M-CDISC_SDTMMODEL_xxTEST> <http://www.assero.co.uk/BusinessDomain#name> "--TEST" .
<http://www.assero.co.uk/MDRSdtmM/CDISC/V3#M-CDISC_SDTMMODEL_xxTEST> <http://www.assero.co.uk/BusinessDomain#prefixed> "true"^^<http://www.w3.org/2001/XMLSchema#boolean> .
<http://www.assero.co.uk/MDRSdtmM/CDISC/V3#M-CDISC_SDTMMODEL_xxTEST> <http://www.assero.co.uk/BusinessDomain#description> "Long name For --TESTCD. Examples: Platelet, Systolic Blood Pressure, Summary (Min) RR Duration, Eye Examination." .
<http://www.assero.co.uk/MDRSdtmM/CDISC/V3#M-CDISC_SDTMMODEL_xxTSTDTL> <http://www.w3.org/1999/02/22-rdf-syntax-ns#type> <http://www.assero.co.uk/BusinessDomain#ModelVariable> .
<http://www.assero.co.uk/MDRSdtmM/CDISC/V3#M-CDISC_SDTMMODEL_xxTSTDTL> <http://www.w3.org/2000/01/rdf-schema#label> "Measurement, Test or Examination Detail" .
<http://www.assero.co.uk/MDRSdtmM/CDISC/V3#M-CDISC_SDTMMODEL_xxTSTDTL> <http://www.assero.co.uk/BusinessDomain#classifiedAs> <http://www.assero.co.uk/MDRSdtmM/CDISC/V3#M-CDISC_SDTMMODEL_SC_VARIABLEQUALIFIER> .
<http://www.assero.co.uk/MDRSdtmM/CDISC/V3#M-CDISC_SDTMMODEL_xxTSTDTL> <http://www.assero.co.uk/BusinessDomain#typedAs> <http://www.assero.co.uk/MDRSdtmM/CDISC/V3#M-CDISC_SDTMMODEL_DT_CHAR> .
<http://www.assero.co.uk/MDRSdtmM/CDISC/V3#M-CDISC_SDTMMODEL_xxTSTDTL> <http://www.assero.co.uk/BusinessDomain#rule> "" .
<http://www.assero.co.uk/MDRSdtmM/CDISC/V3#M-CDISC_SDTMMODEL_xxTSTDTL> <http://www.assero.co.uk/BusinessDomain#ordinal> "4"^^<http://www.w3.org/2001/XMLSchema#integer> .
<http://www.assero.co.uk/MDRSdtmM/CDISC/V3#M-CDISC_SDTMMODEL_xxTSTDTL> <http://www.assero.co.uk/BusinessDomain#name> "--TSTDTL" .
<http://www.assero.co.uk/MDRSdtmM/CDISC/V3#M-CDISC_SDTMMODEL_xxTSTDTL> <http://www.assero.co.uk/BusinessDomain#prefixed> "true"^^<http://www.w3.org/2001/XMLSchema#boolean> .
<http://www.assero.co.uk/MDRSdtmM/CDISC/V3#M-CDISC_SDTMMODEL_xxTSTDTL> <http://www.assero.co.uk/BusinessDomain#description> "Further description of --TESTCD and --TEST. Example: “The percentage of cells with  1 intensity of staining” when MITESTCD = TTF1." .
<http://www.assero.co.uk/MDRSdtmM/CDISC/V3#M-CDISC_SDTMMODEL_xxPOS> <http://www.w3.org/1999/02/22-rdf-syntax-ns#type> <http://www.assero.co.uk/BusinessDomain#ModelVariable> .
<http://www.assero.co.uk/MDRSdtmM/CDISC/V3#M-CDISC_SDTMMODEL_xxPOS> <http://www.w3.org/2000/01/rdf-schema#label> "Position of Subject During Observation" .
<http://www.assero.co.uk/MDRSdtmM/CDISC/V3#M-CDISC_SDTMMODEL_xxPOS> <http://www.assero.co.uk/BusinessDomain#classifiedAs> <http://www.assero.co.uk/MDRSdtmM/CDISC/V3#M-CDISC_SDTMMODEL_SC_RECORDQUALIFIER> .
<http://www.assero.co.uk/MDRSdtmM/CDISC/V3#M-CDISC_SDTMMODEL_xxPOS> <http://www.assero.co.uk/BusinessDomain#typedAs> <http://www.assero.co.uk/MDRSdtmM/CDISC/V3#M-CDISC_SDTMMODEL_DT_CHAR> .
<http://www.assero.co.uk/MDRSdtmM/CDISC/V3#M-CDISC_SDTMMODEL_xxPOS> <http://www.assero.co.uk/BusinessDomain#rule> "" .
<http://www.assero.co.uk/MDRSdtmM/CDISC/V3#M-CDISC_SDTMMODEL_xxPOS> <http://www.assero.co.uk/BusinessDomain#ordinal> "7"^^<http://www.w3.org/2001/XMLSchema#integer> .
<http://www.assero.co.uk/MDRSdtmM/CDISC/V3#M-CDISC_SDTMMODEL_xxPOS> <http://www.assero.co.uk/BusinessDomain#name> "--POS" .
<http://www.assero.co.uk/MDRSdtmM/CDISC/V3#M-CDISC_SDTMMODEL_xxPOS> <http://www.assero.co.uk/BusinessDomain#prefixed> "true"^^<http://www.w3.org/2001/XMLSchema#boolean> .
<http://www.assero.co.uk/MDRSdtmM/CDISC/V3#M-CDISC_SDTMMODEL_xxPOS> <http://www.assero.co.uk/BusinessDomain#description> "Position of the subject during a measurement or examination. Examples: SUPINE, STANDING, SITTING." .
<http://www.assero.co.uk/MDRSdtmM/CDISC/V3#M-CDISC_SDTMMODEL_xxORRES> <http://www.w3.org/1999/02/22-rdf-syntax-ns#type> <http://www.assero.co.uk/BusinessDomain#ModelVariable> .
<http://www.assero.co.uk/MDRSdtmM/CDISC/V3#M-CDISC_SDTMMODEL_xxORRES> <http://www.w3.org/2000/01/rdf-schema#label> "Result or Finding in Original Units" .
<http://www.assero.co.uk/MDRSdtmM/CDISC/V3#M-CDISC_SDTMMODEL_xxORRES> <http://www.assero.co.uk/BusinessDomain#classifiedAs> <http://www.assero.co.uk/MDRSdtmM/CDISC/V3#M-CDISC_SDTMMODEL_SC_RESULTQUALIFIER> .
<http://www.assero.co.uk/MDRSdtmM/CDISC/V3#M-CDISC_SDTMMODEL_xxORRES> <http://www.assero.co.uk/BusinessDomain#typedAs> <http://www.assero.co.uk/MDRSdtmM/CDISC/V3#M-CDISC_SDTMMODEL_DT_CHAR> .
<http://www.assero.co.uk/MDRSdtmM/CDISC/V3#M-CDISC_SDTMMODEL_xxORRES> <http://www.assero.co.uk/BusinessDomain#rule> "" .
<http://www.assero.co.uk/MDRSdtmM/CDISC/V3#M-CDISC_SDTMMODEL_xxORRES> <http://www.assero.co.uk/BusinessDomain#ordinal> "9"^^<http://www.w3.org/2001/XMLSchema#integer> .
<http://www.assero.co.uk/MDRSdtmM/CDISC/V3#M-CDISC_SDTMMODEL_xxORRES> <http://www.assero.co.uk/BusinessDomain#name> "--ORRES" .
<http://www.assero.co.uk/MDRSdtmM/CDISC/V3#M-CDISC_SDTMMODEL_xxORRES> <http://www.assero.co.uk/BusinessDomain#prefixed> "true"^^<http://www.w3.org/2001/XMLSchema#boolean> .
<http://www.assero.co.uk/MDRSdtmM/CDISC/V3#M-CDISC_SDTMMODEL_xxORRES> <http://www.assero.co.uk/BusinessDomain#description> "Result of the measurement or finding as originally received or collected. Examples: 120, <1, POS." .
<http://www.assero.co.uk/MDRSdtmM/CDISC/V3#M-CDISC_SDTMMODEL_SC_RESULTQUALIFIER> <http://www.w3.org/1999/02/22-rdf-syntax-ns#type> <http://www.assero.co.uk/BusinessDomain#VariableClassification> .
<http://www.assero.co.uk/MDRSdtmM/CDISC/V3#M-CDISC_SDTMMODEL_SC_RESULTQUALIFIER> <http://www.w3.org/2000/01/rdf-schema#label> "Result Qualifier" .
<http://www.assero.co.uk/MDRSdtmM/CDISC/V3#M-CDISC_SDTMMODEL_SC_RESULTQUALIFIER> <http://www.assero.co.uk/BusinessDomain#parentClassification> <http://www.assero.co.uk/MDRSdtmM/CDISC/V3#M-CDISC_SDTMMODEL_C_QUALIFIER> .
<http://www.assero.co.uk/MDRSdtmM/CDISC/V3#M-CDISC_SDTMMODEL_xxORRESU> <http://www.w3.org/1999/02/22-rdf-syntax-ns#type> <http://www.assero.co.uk/BusinessDomain#ModelVariable> .
<http://www.assero.co.uk/MDRSdtmM/CDISC/V3#M-CDISC_SDTMMODEL_xxORRESU> <http://www.w3.org/2000/01/rdf-schema#label> "Original Units" .
<http://www.assero.co.uk/MDRSdtmM/CDISC/V3#M-CDISC_SDTMMODEL_xxORRESU> <http://www.assero.co.uk/BusinessDomain#classifiedAs> <http://www.assero.co.uk/MDRSdtmM/CDISC/V3#M-CDISC_SDTMMODEL_SC_VARIABLEQUALIFIER> .
<http://www.assero.co.uk/MDRSdtmM/CDISC/V3#M-CDISC_SDTMMODEL_xxORRESU> <http://www.assero.co.uk/BusinessDomain#typedAs> <http://www.assero.co.uk/MDRSdtmM/CDISC/V3#M-CDISC_SDTMMODEL_DT_CHAR> .
<http://www.assero.co.uk/MDRSdtmM/CDISC/V3#M-CDISC_SDTMMODEL_xxORRESU> <http://www.assero.co.uk/BusinessDomain#rule> "" .
<http://www.assero.co.uk/MDRSdtmM/CDISC/V3#M-CDISC_SDTMMODEL_xxORRESU> <http://www.assero.co.uk/BusinessDomain#ordinal> "10"^^<http://www.w3.org/2001/XMLSchema#integer> .
<http://www.assero.co.uk/MDRSdtmM/CDISC/V3#M-CDISC_SDTMMODEL_xxORRESU> <http://www.assero.co.uk/BusinessDomain#name> "--ORRESU" .
<http://www.assero.co.uk/MDRSdtmM/CDISC/V3#M-CDISC_SDTMMODEL_xxORRESU> <http://www.assero.co.uk/BusinessDomain#prefixed> "true"^^<http://www.w3.org/2001/XMLSchema#boolean> .
<http://www.assero.co.uk/MDRSdtmM/CDISC/V3#M-CDISC_SDTMMODEL_xxORRESU> <http://www.assero.co.uk/BusinessDomain#description> "Unit for --ORRES. Examples: IN, LB, kg/L." .
<http://www.assero.co.uk/MDRSdtmM/CDISC/V3#M-CDISC_SDTMMODEL_xxORNRLO> <http://www.w3.org/1999/02/22-rdf-syntax-ns#type> <http://www.assero.co.uk/BusinessDomain#ModelVariable> .
<http://www.assero.co.uk/MDRSdtmM/CDISC/V3#M-CDISC_SDTMMODEL_xxORNRLO> <http://www.w3.org/2000/01/rdf-schema#label> "Normal Range Lower Limit-Original Units" .
<http://www.assero.co.uk/MDRSdtmM/CDISC/V3#M-CDISC_SDTMMODEL_xxORNRLO> <http://www.assero.co.uk/BusinessDomain#classifiedAs> <http://www.assero.co.uk/MDRSdtmM/CDISC/V3#M-CDISC_SDTMMODEL_SC_VARIABLEQUALIFIER> .
<http://www.assero.co.uk/MDRSdtmM/CDISC/V3#M-CDISC_SDTMMODEL_xxORNRLO> <http://www.assero.co.uk/BusinessDomain#typedAs> <http://www.assero.co.uk/MDRSdtmM/CDISC/V3#M-CDISC_SDTMMODEL_DT_CHAR> .
<http://www.assero.co.uk/MDRSdtmM/CDISC/V3#M-CDISC_SDTMMODEL_xxORNRLO> <http://www.assero.co.uk/BusinessDomain#rule> "" .
<http://www.assero.co.uk/MDRSdtmM/CDISC/V3#M-CDISC_SDTMMODEL_xxORNRLO> <http://www.assero.co.uk/BusinessDomain#ordinal> "11"^^<http://www.w3.org/2001/XMLSchema#integer> .
<http://www.assero.co.uk/MDRSdtmM/CDISC/V3#M-CDISC_SDTMMODEL_xxORNRLO> <http://www.assero.co.uk/BusinessDomain#name> "--ORNRLO" .
<http://www.assero.co.uk/MDRSdtmM/CDISC/V3#M-CDISC_SDTMMODEL_xxORNRLO> <http://www.assero.co.uk/BusinessDomain#prefixed> "true"^^<http://www.w3.org/2001/XMLSchema#boolean> .
<http://www.assero.co.uk/MDRSdtmM/CDISC/V3#M-CDISC_SDTMMODEL_xxORNRLO> <http://www.assero.co.uk/BusinessDomain#description> "Lower end of normal range or reference range for results stored in --ORRES." .
<http://www.assero.co.uk/MDRSdtmM/CDISC/V3#M-CDISC_SDTMMODEL_xxORNRHI> <http://www.w3.org/1999/02/22-rdf-syntax-ns#type> <http://www.assero.co.uk/BusinessDomain#ModelVariable> .
<http://www.assero.co.uk/MDRSdtmM/CDISC/V3#M-CDISC_SDTMMODEL_xxORNRHI> <http://www.w3.org/2000/01/rdf-schema#label> "Normal Range Upper Limit-Original Units" .
<http://www.assero.co.uk/MDRSdtmM/CDISC/V3#M-CDISC_SDTMMODEL_xxORNRHI> <http://www.assero.co.uk/BusinessDomain#classifiedAs> <http://www.assero.co.uk/MDRSdtmM/CDISC/V3#M-CDISC_SDTMMODEL_SC_VARIABLEQUALIFIER> .
<http://www.assero.co.uk/MDRSdtmM/CDISC/V3#M-CDISC_SDTMMODEL_xxORNRHI> <http://www.assero.co.uk/BusinessDomain#typedAs> <http://www.assero.co.uk/MDRSdtmM/CDISC/V3#M-CDISC_SDTMMODEL_DT_CHAR> .
<http://www.assero.co.uk/MDRSdtmM/CDISC/V3#M-CDISC_SDTMMODEL_xxORNRHI> <http://www.assero.co.uk/BusinessDomain#rule> "" .
<http://www.assero.co.uk/MDRSdtmM/CDISC/V3#M-CDISC_SDTMMODEL_xxORNRHI> <http://www.assero.co.uk/BusinessDomain#ordinal> "12"^^<http://www.w3.org/2001/XMLSchema#integer> .
<http://www.assero.co.uk/MDRSdtmM/CDISC/V3#M-CDISC_SDTMMODEL_xxORNRHI> <http://www.assero.co.uk/BusinessDomain#name> "--ORNRHI" .
<http://www.assero.co.uk/MDRSdtmM/CDISC/V3#M-CDISC_SDTMMODEL_xxORNRHI> <http://www.assero.co.uk/BusinessDomain#prefixed> "true"^^<http://www.w3.org/2001/XMLSchema#boolean> .
<http://www.assero.co.uk/MDRSdtmM/CDISC/V3#M-CDISC_SDTMMODEL_xxORNRHI> <http://www.assero.co.uk/BusinessDomain#description> "Upper end of normal range or reference range for results stored in --ORRES." .
<http://www.assero.co.uk/MDRSdtmM/CDISC/V3#M-CDISC_SDTMMODEL_xxSTRESC> <http://www.w3.org/1999/02/22-rdf-syntax-ns#type> <http://www.assero.co.uk/BusinessDomain#ModelVariable> .
<http://www.assero.co.uk/MDRSdtmM/CDISC/V3#M-CDISC_SDTMMODEL_xxSTRESC> <http://www.w3.org/2000/01/rdf-schema#label> "Result or Finding in Standard Format" .
