@prefix bcr: <http://www.assero.co.uk/BusinessCrossReference#>
@prefix bo: <http://www.assero.co.uk/BusinessOperational#>
@prefix bd: <http://www.assero.co.uk/BusinessDomain#>
@prefix isoB: <http://www.assero.co.uk/ISO11179Basic#> .
@prefix isoI: <http://www.assero.co.uk/ISO11179Identification#> .
@prefix isoR: <http://www.assero.co.uk/ISO11179Registration#> .
@prefix isoT: <http://www.assero.co.uk/ISO11179Types#> .
@prefix iso25964: <http://www.assero.co.uk/ISO25964#> .
@prefix mdrItems: <http://www.assero.co.uk/MDRItems#> .
@prefix owl: <http://www.w3.org/2002/07/owl#> .
@prefix rdf: <http://www.w3.org/1999/02/22-rdf-syntax-ns#> .
@prefix rdfs: <http://www.w3.org/2000/01/rdf-schema#> .
@prefix skos: <http://www.w3.org/2004/02/skos/core#> .
@prefix xsd: <http://www.w3.org/2001/XMLSchema#> .

<http://www.assero.co.uk/MDRSdtmM/CDISC/V3#M-CDISC_SDTMMODEL> rdf:type <http://www.assero.co.uk/BusinessDomain#Model> . 
<http://www.assero.co.uk/MDRSdtmM/CDISC/V3#M-CDISC_SDTMMODEL> rdfs:label "SDTM Model 2013-11-26"^^xsd:string . 
<http://www.assero.co.uk/MDRItems#RS-CDISC_SDTMMODEL-3> rdf:type isoR:RegistrationState . 
<http://www.assero.co.uk/MDRItems#RS-CDISC_SDTMMODEL-3> isoR:byAuthority mdrItems:RA-084433759 . 
<http://www.assero.co.uk/MDRItems#RS-CDISC_SDTMMODEL-3> isoR:registrationStatus "Standard"^^xsd:string . 
<http://www.assero.co.uk/MDRItems#RS-CDISC_SDTMMODEL-3> isoR:administrativeNote ""^^xsd:string . 
<http://www.assero.co.uk/MDRItems#RS-CDISC_SDTMMODEL-3> isoR:effectiveDate "2016-01-01T00:00:00+00:00"^^xsd:dateTime . 
<http://www.assero.co.uk/MDRItems#RS-CDISC_SDTMMODEL-3> isoR:untilDate "2016-01-01T00:00:00+00:00"^^xsd:dateTime . 
<http://www.assero.co.uk/MDRItems#RS-CDISC_SDTMMODEL-3> isoR:unresolvedIssue ""^^xsd:string . 
<http://www.assero.co.uk/MDRItems#RS-CDISC_SDTMMODEL-3> isoR:administrativeStatus ""^^xsd:string . 
<http://www.assero.co.uk/MDRItems#RS-CDISC_SDTMMODEL-3> isoR:previousState "Incomplete"^^xsd:string . 
<http://www.assero.co.uk/MDRItems#SI-CDISC_SDTMMODEL-3> isoI:identifier "SDTM MODEL"^^xsd:string . 
<http://www.assero.co.uk/MDRItems#SI-CDISC_SDTMMODEL-3> rdf:type isoI:ScopedIdentifier . 
<http://www.assero.co.uk/MDRItems#SI-CDISC_SDTMMODEL-3> isoI:version "3"^^xsd:positiveInteger . 
<http://www.assero.co.uk/MDRItems#SI-CDISC_SDTMMODEL-3> isoI:versionLabel "1.4"^^xsd:string . 
<http://www.assero.co.uk/MDRItems#SI-CDISC_SDTMMODEL-3> isoI:semantic_version "1.4.0"^^xsd:string . 
<http://www.assero.co.uk/MDRItems#SI-CDISC_SDTMMODEL-3> isoI:hasScope mdrItems:NS-CDISC . 
<http://www.assero.co.uk/MDRSdtmM/CDISC/V3#M-CDISC_SDTMMODEL> isoI:hasIdentifier <http://www.assero.co.uk/MDRItems#SI-CDISC_SDTMMODEL-3> . 
<http://www.assero.co.uk/MDRSdtmM/CDISC/V3#M-CDISC_SDTMMODEL> isoR:hasState <http://www.assero.co.uk/MDRItems#RS-CDISC_SDTMMODEL-3> . 
<http://www.assero.co.uk/MDRSdtmM/CDISC/V3#M-CDISC_SDTMMODEL> isoT:creationDate "2013-11-26T00:00:00+00:00"^^xsd:dateTime . 
<http://www.assero.co.uk/MDRSdtmM/CDISC/V3#M-CDISC_SDTMMODEL> isoT:lastChangeDate "2013-11-26T00:00:00+00:00"^^xsd:dateTime . 
<http://www.assero.co.uk/MDRSdtmM/CDISC/V3#M-CDISC_SDTMMODEL> isoT:changeDescription ""^^xsd:string . 
<http://www.assero.co.uk/MDRSdtmM/CDISC/V3#M-CDISC_SDTMMODEL> isoT:explanatoryComment ""^^xsd:string . 
<http://www.assero.co.uk/MDRSdtmM/CDISC/V3#M-CDISC_SDTMMODEL> isoT:origin ""^^xsd:string . 
<http://www.assero.co.uk/MDRSdtmM/CDISC/V3#M-CDISC_SDTMMODEL> bd:ordinal "1"^^xsd:positiveInteger . 
<http://www.assero.co.uk/MDRSdtmM/CDISC/V3#M-CDISC_SDTMMODEL> bd:rule ""^^xsd:string . 
<http://www.assero.co.uk/MDRSdtmM/CDISC/V3#M-CDISC_SDTMMODEL_DT_CHAR> rdf:type <http://www.assero.co.uk/BusinessDomain#VariableType> . 
<http://www.assero.co.uk/MDRSdtmM/CDISC/V3#M-CDISC_SDTMMODEL_DT_CHAR> rdfs:label "Char"^^xsd:string . 
<http://www.assero.co.uk/MDRSdtmM/CDISC/V3#M-CDISC_SDTMMODEL_DT_NUM> rdf:type <http://www.assero.co.uk/BusinessDomain#VariableType> . 
<http://www.assero.co.uk/MDRSdtmM/CDISC/V3#M-CDISC_SDTMMODEL_DT_NUM> rdfs:label "Num"^^xsd:string . 
<http://www.assero.co.uk/MDRSdtmM/CDISC/V3#M-CDISC_SDTMMODEL_C_NONE> rdf:type <http://www.assero.co.uk/BusinessDomain#VariableClassification> . 
<http://www.assero.co.uk/MDRSdtmM/CDISC/V3#M-CDISC_SDTMMODEL_C_NONE> rdfs:label "None"^^xsd:string . 
<http://www.assero.co.uk/MDRSdtmM/CDISC/V3#M-CDISC_SDTMMODEL_C_IDENTIFIER> rdf:type <http://www.assero.co.uk/BusinessDomain#VariableClassification> . 
<http://www.assero.co.uk/MDRSdtmM/CDISC/V3#M-CDISC_SDTMMODEL_C_IDENTIFIER> rdfs:label "Identifier"^^xsd:string . 
<http://www.assero.co.uk/MDRSdtmM/CDISC/V3#M-CDISC_SDTMMODEL_C_TIMING> rdf:type <http://www.assero.co.uk/BusinessDomain#VariableClassification> . 
<http://www.assero.co.uk/MDRSdtmM/CDISC/V3#M-CDISC_SDTMMODEL_C_TIMING> rdfs:label "Timing"^^xsd:string . 
<http://www.assero.co.uk/MDRSdtmM/CDISC/V3#M-CDISC_SDTMMODEL_C_QUALIFIER> rdf:type <http://www.assero.co.uk/BusinessDomain#VariableClassification> . 
<http://www.assero.co.uk/MDRSdtmM/CDISC/V3#M-CDISC_SDTMMODEL_C_QUALIFIER> rdfs:label "Qualifier"^^xsd:string . 
<http://www.assero.co.uk/MDRSdtmM/CDISC/V3#M-CDISC_SDTMMODEL_C_QUALIFIER_SC_RECORDQUALIFIER> rdf:type <http://www.assero.co.uk/BusinessDomain#VariableClassification> . 
<http://www.assero.co.uk/MDRSdtmM/CDISC/V3#M-CDISC_SDTMMODEL_C_QUALIFIER_SC_RECORDQUALIFIER> rdfs:label "Record Qualifier"^^xsd:string . 
<http://www.assero.co.uk/MDRSdtmM/CDISC/V3#M-CDISC_SDTMMODEL_C_QUALIFIER_SC_RECORDQUALIFIER> bd:parentClassification  <http://www.assero.co.uk/MDRSdtmM/CDISC/V3#M-CDISC_SDTMMODEL_C_QUALIFIER> . 
<http://www.assero.co.uk/MDRSdtmM/CDISC/V3#M-CDISC_SDTMMODEL_C_QUALIFIER> bd:childClassification  <http://www.assero.co.uk/MDRSdtmM/CDISC/V3#M-CDISC_SDTMMODEL_C_QUALIFIER_SC_RECORDQUALIFIER> . 
<http://www.assero.co.uk/MDRSdtmM/CDISC/V3#M-CDISC_SDTMMODEL_C_QUALIFIER_SC_SYNONYMQUALIFIER> rdf:type <http://www.assero.co.uk/BusinessDomain#VariableClassification> . 
<http://www.assero.co.uk/MDRSdtmM/CDISC/V3#M-CDISC_SDTMMODEL_C_QUALIFIER_SC_SYNONYMQUALIFIER> rdfs:label "Synonym Qualifier"^^xsd:string . 
<http://www.assero.co.uk/MDRSdtmM/CDISC/V3#M-CDISC_SDTMMODEL_C_QUALIFIER_SC_SYNONYMQUALIFIER> bd:parentClassification  <http://www.assero.co.uk/MDRSdtmM/CDISC/V3#M-CDISC_SDTMMODEL_C_QUALIFIER> . 
<http://www.assero.co.uk/MDRSdtmM/CDISC/V3#M-CDISC_SDTMMODEL_C_QUALIFIER> bd:childClassification  <http://www.assero.co.uk/MDRSdtmM/CDISC/V3#M-CDISC_SDTMMODEL_C_QUALIFIER_SC_SYNONYMQUALIFIER> . 
<http://www.assero.co.uk/MDRSdtmM/CDISC/V3#M-CDISC_SDTMMODEL_C_QUALIFIER_SC_VARIABLEQUALIFIER> rdf:type <http://www.assero.co.uk/BusinessDomain#VariableClassification> . 
<http://www.assero.co.uk/MDRSdtmM/CDISC/V3#M-CDISC_SDTMMODEL_C_QUALIFIER_SC_VARIABLEQUALIFIER> rdfs:label "Variable Qualifier"^^xsd:string . 
<http://www.assero.co.uk/MDRSdtmM/CDISC/V3#M-CDISC_SDTMMODEL_C_QUALIFIER_SC_VARIABLEQUALIFIER> bd:parentClassification  <http://www.assero.co.uk/MDRSdtmM/CDISC/V3#M-CDISC_SDTMMODEL_C_QUALIFIER> . 
<http://www.assero.co.uk/MDRSdtmM/CDISC/V3#M-CDISC_SDTMMODEL_C_QUALIFIER> bd:childClassification  <http://www.assero.co.uk/MDRSdtmM/CDISC/V3#M-CDISC_SDTMMODEL_C_QUALIFIER_SC_VARIABLEQUALIFIER> . 
<http://www.assero.co.uk/MDRSdtmM/CDISC/V3#M-CDISC_SDTMMODEL_C_QUALIFIER_SC_GROUPINGQUALIFIER> rdf:type <http://www.assero.co.uk/BusinessDomain#VariableClassification> . 
<http://www.assero.co.uk/MDRSdtmM/CDISC/V3#M-CDISC_SDTMMODEL_C_QUALIFIER_SC_GROUPINGQUALIFIER> rdfs:label "Grouping Qualifier"^^xsd:string . 
<http://www.assero.co.uk/MDRSdtmM/CDISC/V3#M-CDISC_SDTMMODEL_C_QUALIFIER_SC_GROUPINGQUALIFIER> bd:parentClassification  <http://www.assero.co.uk/MDRSdtmM/CDISC/V3#M-CDISC_SDTMMODEL_C_QUALIFIER> . 
<http://www.assero.co.uk/MDRSdtmM/CDISC/V3#M-CDISC_SDTMMODEL_C_QUALIFIER> bd:childClassification  <http://www.assero.co.uk/MDRSdtmM/CDISC/V3#M-CDISC_SDTMMODEL_C_QUALIFIER_SC_GROUPINGQUALIFIER> . 
<http://www.assero.co.uk/MDRSdtmM/CDISC/V3#M-CDISC_SDTMMODEL_C_QUALIFIER_SC_RESULTQUALIFIER> rdf:type <http://www.assero.co.uk/BusinessDomain#VariableClassification> . 
<http://www.assero.co.uk/MDRSdtmM/CDISC/V3#M-CDISC_SDTMMODEL_C_QUALIFIER_SC_RESULTQUALIFIER> rdfs:label "Result Qualifier"^^xsd:string . 
<http://www.assero.co.uk/MDRSdtmM/CDISC/V3#M-CDISC_SDTMMODEL_C_QUALIFIER_SC_RESULTQUALIFIER> bd:parentClassification  <http://www.assero.co.uk/MDRSdtmM/CDISC/V3#M-CDISC_SDTMMODEL_C_QUALIFIER> . 
<http://www.assero.co.uk/MDRSdtmM/CDISC/V3#M-CDISC_SDTMMODEL_C_QUALIFIER> bd:childClassification  <http://www.assero.co.uk/MDRSdtmM/CDISC/V3#M-CDISC_SDTMMODEL_C_QUALIFIER_SC_RESULTQUALIFIER> . 
<http://www.assero.co.uk/MDRSdtmM/CDISC/V3#M-CDISC_SDTMMODEL_C_TOPIC> rdf:type <http://www.assero.co.uk/BusinessDomain#VariableClassification> . 
<http://www.assero.co.uk/MDRSdtmM/CDISC/V3#M-CDISC_SDTMMODEL_C_TOPIC> rdfs:label "Topic"^^xsd:string . 
<http://www.assero.co.uk/MDRSdtmM/CDISC/V3#M-CDISC_SDTMMODEL_C_RULE> rdf:type <http://www.assero.co.uk/BusinessDomain#VariableClassification> . 
<http://www.assero.co.uk/MDRSdtmM/CDISC/V3#M-CDISC_SDTMMODEL_C_RULE> rdfs:label "Rule"^^xsd:string . 
<http://www.assero.co.uk/MDRSdtmM/CDISC/V3#M-CDISC_SDTMMODEL_STUDYID> rdf:type <http://www.assero.co.uk/BusinessDomain#ModelVariable> . 
<http://www.assero.co.uk/MDRSdtmM/CDISC/V3#M-CDISC_SDTMMODEL_STUDYID> rdfs:label "Study Identifier"^^xsd:string . 
<http://www.assero.co.uk/MDRSdtmM/CDISC/V3#M-CDISC_SDTMMODEL_STUDYID> bd:ordinal "1"^^xsd:positiveInteger . 
<http://www.assero.co.uk/MDRSdtmM/CDISC/V3#M-CDISC_SDTMMODEL_STUDYID> bd:rule ""^^xsd:string . 
<http://www.assero.co.uk/MDRSdtmM/CDISC/V3#M-CDISC_SDTMMODEL_STUDYID> bd:name "STUDYID"^^xsd:string . 
<http://www.assero.co.uk/MDRSdtmM/CDISC/V3#M-CDISC_SDTMMODEL_STUDYID> bd:prefixed "false"^^xsd:boolean . 
<http://www.assero.co.uk/MDRSdtmM/CDISC/V3#M-CDISC_SDTMMODEL_STUDYID> bd:description "Unique identifier for a study."^^xsd:string . 
<http://www.assero.co.uk/MDRSdtmM/CDISC/V3#M-CDISC_SDTMMODEL_STUDYID> bd:typedAs <http://www.assero.co.uk/MDRSdtmM/CDISC/V3#M-CDISC_SDTMMODEL_DT_CHAR> . 
<http://www.assero.co.uk/MDRSdtmM/CDISC/V3#M-CDISC_SDTMMODEL_STUDYID> bd:classifiedAs <http://www.assero.co.uk/MDRSdtmM/CDISC/V3#M-CDISC_SDTMMODEL_C_IDENTIFIER> . 
<http://www.assero.co.uk/MDRSdtmM/CDISC/V3#M-CDISC_SDTMMODEL> bd:includesVariable <http://www.assero.co.uk/MDRSdtmM/CDISC/V3#M-CDISC_SDTMMODEL_STUDYID> . 
<http://www.assero.co.uk/MDRSdtmM/CDISC/V3#M-CDISC_SDTMMODEL_DOMAIN> rdf:type <http://www.assero.co.uk/BusinessDomain#ModelVariable> . 
<http://www.assero.co.uk/MDRSdtmM/CDISC/V3#M-CDISC_SDTMMODEL_DOMAIN> rdfs:label "Domain Abbreviation"^^xsd:string . 
<http://www.assero.co.uk/MDRSdtmM/CDISC/V3#M-CDISC_SDTMMODEL_DOMAIN> bd:ordinal "2"^^xsd:positiveInteger . 
<http://www.assero.co.uk/MDRSdtmM/CDISC/V3#M-CDISC_SDTMMODEL_DOMAIN> bd:rule ""^^xsd:string . 
<http://www.assero.co.uk/MDRSdtmM/CDISC/V3#M-CDISC_SDTMMODEL_DOMAIN> bd:name "DOMAIN"^^xsd:string . 
<http://www.assero.co.uk/MDRSdtmM/CDISC/V3#M-CDISC_SDTMMODEL_DOMAIN> bd:prefixed "false"^^xsd:boolean . 
<http://www.assero.co.uk/MDRSdtmM/CDISC/V3#M-CDISC_SDTMMODEL_DOMAIN> bd:description "Two-character abbreviation for the domain most relevant to the observation. The Domain abbreviation is also used as a prefix for variables to ensure uniqueness when datasets are merged."^^xsd:string . 
<http://www.assero.co.uk/MDRSdtmM/CDISC/V3#M-CDISC_SDTMMODEL_DOMAIN> bd:typedAs <http://www.assero.co.uk/MDRSdtmM/CDISC/V3#M-CDISC_SDTMMODEL_DT_CHAR> . 
<http://www.assero.co.uk/MDRSdtmM/CDISC/V3#M-CDISC_SDTMMODEL_DOMAIN> bd:classifiedAs <http://www.assero.co.uk/MDRSdtmM/CDISC/V3#M-CDISC_SDTMMODEL_C_IDENTIFIER> . 
<http://www.assero.co.uk/MDRSdtmM/CDISC/V3#M-CDISC_SDTMMODEL> bd:includesVariable <http://www.assero.co.uk/MDRSdtmM/CDISC/V3#M-CDISC_SDTMMODEL_DOMAIN> . 
<http://www.assero.co.uk/MDRSdtmM/CDISC/V3#M-CDISC_SDTMMODEL_USUBJID> rdf:type <http://www.assero.co.uk/BusinessDomain#ModelVariable> . 
<http://www.assero.co.uk/MDRSdtmM/CDISC/V3#M-CDISC_SDTMMODEL_USUBJID> rdfs:label "Unique Subject Identifier"^^xsd:string . 
<http://www.assero.co.uk/MDRSdtmM/CDISC/V3#M-CDISC_SDTMMODEL_USUBJID> bd:ordinal "3"^^xsd:positiveInteger . 
<http://www.assero.co.uk/MDRSdtmM/CDISC/V3#M-CDISC_SDTMMODEL_USUBJID> bd:rule ""^^xsd:string . 
<http://www.assero.co.uk/MDRSdtmM/CDISC/V3#M-CDISC_SDTMMODEL_USUBJID> bd:name "USUBJID"^^xsd:string . 
<http://www.assero.co.uk/MDRSdtmM/CDISC/V3#M-CDISC_SDTMMODEL_USUBJID> bd:prefixed "false"^^xsd:boolean . 
<http://www.assero.co.uk/MDRSdtmM/CDISC/V3#M-CDISC_SDTMMODEL_USUBJID> bd:description "Identifier used to uniquely identify a subject across all studies for all applications or submissions involving the product."^^xsd:string . 
<http://www.assero.co.uk/MDRSdtmM/CDISC/V3#M-CDISC_SDTMMODEL_USUBJID> bd:typedAs <http://www.assero.co.uk/MDRSdtmM/CDISC/V3#M-CDISC_SDTMMODEL_DT_CHAR> . 
<http://www.assero.co.uk/MDRSdtmM/CDISC/V3#M-CDISC_SDTMMODEL_USUBJID> bd:classifiedAs <http://www.assero.co.uk/MDRSdtmM/CDISC/V3#M-CDISC_SDTMMODEL_C_IDENTIFIER> . 
<http://www.assero.co.uk/MDRSdtmM/CDISC/V3#M-CDISC_SDTMMODEL> bd:includesVariable <http://www.assero.co.uk/MDRSdtmM/CDISC/V3#M-CDISC_SDTMMODEL_USUBJID> . 
<http://www.assero.co.uk/MDRSdtmM/CDISC/V3#M-CDISC_SDTMMODEL_POOLID> rdf:type <http://www.assero.co.uk/BusinessDomain#ModelVariable> . 
<http://www.assero.co.uk/MDRSdtmM/CDISC/V3#M-CDISC_SDTMMODEL_POOLID> rdfs:label "Pool Identifier"^^xsd:string . 
<http://www.assero.co.uk/MDRSdtmM/CDISC/V3#M-CDISC_SDTMMODEL_POOLID> bd:ordinal "4"^^xsd:positiveInteger . 
<http://www.assero.co.uk/MDRSdtmM/CDISC/V3#M-CDISC_SDTMMODEL_POOLID> bd:rule ""^^xsd:string . 
<http://www.assero.co.uk/MDRSdtmM/CDISC/V3#M-CDISC_SDTMMODEL_POOLID> bd:name "POOLID"^^xsd:string . 
<http://www.assero.co.uk/MDRSdtmM/CDISC/V3#M-CDISC_SDTMMODEL_POOLID> bd:prefixed "false"^^xsd:boolean . 
<http://www.assero.co.uk/MDRSdtmM/CDISC/V3#M-CDISC_SDTMMODEL_POOLID> bd:description "An identifier used to identify a result from a group of subjects that is not assignable to a specific subject."^^xsd:string . 
<http://www.assero.co.uk/MDRSdtmM/CDISC/V3#M-CDISC_SDTMMODEL_POOLID> bd:typedAs <http://www.assero.co.uk/MDRSdtmM/CDISC/V3#M-CDISC_SDTMMODEL_DT_CHAR> . 
<http://www.assero.co.uk/MDRSdtmM/CDISC/V3#M-CDISC_SDTMMODEL_POOLID> bd:classifiedAs <http://www.assero.co.uk/MDRSdtmM/CDISC/V3#M-CDISC_SDTMMODEL_C_IDENTIFIER> . 
<http://www.assero.co.uk/MDRSdtmM/CDISC/V3#M-CDISC_SDTMMODEL> bd:includesVariable <http://www.assero.co.uk/MDRSdtmM/CDISC/V3#M-CDISC_SDTMMODEL_POOLID> . 
<http://www.assero.co.uk/MDRSdtmM/CDISC/V3#M-CDISC_SDTMMODEL_SPDEVID> rdf:type <http://www.assero.co.uk/BusinessDomain#ModelVariable> . 
<http://www.assero.co.uk/MDRSdtmM/CDISC/V3#M-CDISC_SDTMMODEL_SPDEVID> rdfs:label "Sponsor Device Identifier"^^xsd:string . 
<http://www.assero.co.uk/MDRSdtmM/CDISC/V3#M-CDISC_SDTMMODEL_SPDEVID> bd:ordinal "5"^^xsd:positiveInteger . 
<http://www.assero.co.uk/MDRSdtmM/CDISC/V3#M-CDISC_SDTMMODEL_SPDEVID> bd:rule ""^^xsd:string . 
<http://www.assero.co.uk/MDRSdtmM/CDISC/V3#M-CDISC_SDTMMODEL_SPDEVID> bd:name "SPDEVID"^^xsd:string . 
<http://www.assero.co.uk/MDRSdtmM/CDISC/V3#M-CDISC_SDTMMODEL_SPDEVID> bd:prefixed "false"^^xsd:boolean . 
<http://www.assero.co.uk/MDRSdtmM/CDISC/V3#M-CDISC_SDTMMODEL_SPDEVID> bd:description "Sponsor-defined identifier for a device"^^xsd:string . 
<http://www.assero.co.uk/MDRSdtmM/CDISC/V3#M-CDISC_SDTMMODEL_SPDEVID> bd:typedAs <http://www.assero.co.uk/MDRSdtmM/CDISC/V3#M-CDISC_SDTMMODEL_DT_CHAR> . 
<http://www.assero.co.uk/MDRSdtmM/CDISC/V3#M-CDISC_SDTMMODEL_SPDEVID> bd:classifiedAs <http://www.assero.co.uk/MDRSdtmM/CDISC/V3#M-CDISC_SDTMMODEL_C_IDENTIFIER> . 
<http://www.assero.co.uk/MDRSdtmM/CDISC/V3#M-CDISC_SDTMMODEL> bd:includesVariable <http://www.assero.co.uk/MDRSdtmM/CDISC/V3#M-CDISC_SDTMMODEL_SPDEVID> . 
<http://www.assero.co.uk/MDRSdtmM/CDISC/V3#M-CDISC_SDTMMODEL_xxSEQ> rdf:type <http://www.assero.co.uk/BusinessDomain#ModelVariable> . 
<http://www.assero.co.uk/MDRSdtmM/CDISC/V3#M-CDISC_SDTMMODEL_xxSEQ> rdfs:label "Sequence Number"^^xsd:string . 
<http://www.assero.co.uk/MDRSdtmM/CDISC/V3#M-CDISC_SDTMMODEL_xxSEQ> bd:ordinal "6"^^xsd:positiveInteger . 
<http://www.assero.co.uk/MDRSdtmM/CDISC/V3#M-CDISC_SDTMMODEL_xxSEQ> bd:rule ""^^xsd:string . 
<http://www.assero.co.uk/MDRSdtmM/CDISC/V3#M-CDISC_SDTMMODEL_xxSEQ> bd:name "--SEQ"^^xsd:string . 
<http://www.assero.co.uk/MDRSdtmM/CDISC/V3#M-CDISC_SDTMMODEL_xxSEQ> bd:prefixed "true"^^xsd:boolean . 
<http://www.assero.co.uk/MDRSdtmM/CDISC/V3#M-CDISC_SDTMMODEL_xxSEQ> bd:description "Sequence number to ensure uniqueness of records within a dataset for a subject (or within a parameter, in the case of the Trial Summary domain). May be any valid number (including decimals) and does not have to start at 1."^^xsd:string . 
<http://www.assero.co.uk/MDRSdtmM/CDISC/V3#M-CDISC_SDTMMODEL_xxSEQ> bd:typedAs <http://www.assero.co.uk/MDRSdtmM/CDISC/V3#M-CDISC_SDTMMODEL_DT_NUM> . 
<http://www.assero.co.uk/MDRSdtmM/CDISC/V3#M-CDISC_SDTMMODEL_xxSEQ> bd:classifiedAs <http://www.assero.co.uk/MDRSdtmM/CDISC/V3#M-CDISC_SDTMMODEL_C_IDENTIFIER> . 
<http://www.assero.co.uk/MDRSdtmM/CDISC/V3#M-CDISC_SDTMMODEL> bd:includesVariable <http://www.assero.co.uk/MDRSdtmM/CDISC/V3#M-CDISC_SDTMMODEL_xxSEQ> . 
<http://www.assero.co.uk/MDRSdtmM/CDISC/V3#M-CDISC_SDTMMODEL_xxGRPID> rdf:type <http://www.assero.co.uk/BusinessDomain#ModelVariable> . 
<http://www.assero.co.uk/MDRSdtmM/CDISC/V3#M-CDISC_SDTMMODEL_xxGRPID> rdfs:label "Group ID"^^xsd:string . 
<http://www.assero.co.uk/MDRSdtmM/CDISC/V3#M-CDISC_SDTMMODEL_xxGRPID> bd:ordinal "7"^^xsd:positiveInteger . 
<http://www.assero.co.uk/MDRSdtmM/CDISC/V3#M-CDISC_SDTMMODEL_xxGRPID> bd:rule ""^^xsd:string . 
<http://www.assero.co.uk/MDRSdtmM/CDISC/V3#M-CDISC_SDTMMODEL_xxGRPID> bd:name "--GRPID"^^xsd:string . 
<http://www.assero.co.uk/MDRSdtmM/CDISC/V3#M-CDISC_SDTMMODEL_xxGRPID> bd:prefixed "true"^^xsd:boolean . 
<http://www.assero.co.uk/MDRSdtmM/CDISC/V3#M-CDISC_SDTMMODEL_xxGRPID> bd:description "Optional group identifier, used to link together a block of related records within a subject in a domain. Also used to link together a block of related records in the Trial Summary dataset (Section 3.4)."^^xsd:string . 
<http://www.assero.co.uk/MDRSdtmM/CDISC/V3#M-CDISC_SDTMMODEL_xxGRPID> bd:typedAs <http://www.assero.co.uk/MDRSdtmM/CDISC/V3#M-CDISC_SDTMMODEL_DT_CHAR> . 
<http://www.assero.co.uk/MDRSdtmM/CDISC/V3#M-CDISC_SDTMMODEL_xxGRPID> bd:classifiedAs <http://www.assero.co.uk/MDRSdtmM/CDISC/V3#M-CDISC_SDTMMODEL_C_IDENTIFIER> . 
<http://www.assero.co.uk/MDRSdtmM/CDISC/V3#M-CDISC_SDTMMODEL> bd:includesVariable <http://www.assero.co.uk/MDRSdtmM/CDISC/V3#M-CDISC_SDTMMODEL_xxGRPID> . 
<http://www.assero.co.uk/MDRSdtmM/CDISC/V3#M-CDISC_SDTMMODEL_xxREFID> rdf:type <http://www.assero.co.uk/BusinessDomain#ModelVariable> . 
<http://www.assero.co.uk/MDRSdtmM/CDISC/V3#M-CDISC_SDTMMODEL_xxREFID> rdfs:label "Reference ID"^^xsd:string . 
<http://www.assero.co.uk/MDRSdtmM/CDISC/V3#M-CDISC_SDTMMODEL_xxREFID> bd:ordinal "8"^^xsd:positiveInteger . 
<http://www.assero.co.uk/MDRSdtmM/CDISC/V3#M-CDISC_SDTMMODEL_xxREFID> bd:rule ""^^xsd:string . 
<http://www.assero.co.uk/MDRSdtmM/CDISC/V3#M-CDISC_SDTMMODEL_xxREFID> bd:name "--REFID"^^xsd:string . 
<http://www.assero.co.uk/MDRSdtmM/CDISC/V3#M-CDISC_SDTMMODEL_xxREFID> bd:prefixed "true"^^xsd:boolean . 
<http://www.assero.co.uk/MDRSdtmM/CDISC/V3#M-CDISC_SDTMMODEL_xxREFID> bd:description "Optional internal or external identifier such as lab specimen ID, or UUID for an ECG waveform or a medical image."^^xsd:string . 
<http://www.assero.co.uk/MDRSdtmM/CDISC/V3#M-CDISC_SDTMMODEL_xxREFID> bd:typedAs <http://www.assero.co.uk/MDRSdtmM/CDISC/V3#M-CDISC_SDTMMODEL_DT_CHAR> . 
<http://www.assero.co.uk/MDRSdtmM/CDISC/V3#M-CDISC_SDTMMODEL_xxREFID> bd:classifiedAs <http://www.assero.co.uk/MDRSdtmM/CDISC/V3#M-CDISC_SDTMMODEL_C_IDENTIFIER> . 
<http://www.assero.co.uk/MDRSdtmM/CDISC/V3#M-CDISC_SDTMMODEL> bd:includesVariable <http://www.assero.co.uk/MDRSdtmM/CDISC/V3#M-CDISC_SDTMMODEL_xxREFID> . 
<http://www.assero.co.uk/MDRSdtmM/CDISC/V3#M-CDISC_SDTMMODEL_xxSPID> rdf:type <http://www.assero.co.uk/BusinessDomain#ModelVariable> . 
<http://www.assero.co.uk/MDRSdtmM/CDISC/V3#M-CDISC_SDTMMODEL_xxSPID> rdfs:label "Sponsor-Defined Identifier"^^xsd:string . 
<http://www.assero.co.uk/MDRSdtmM/CDISC/V3#M-CDISC_SDTMMODEL_xxSPID> bd:ordinal "9"^^xsd:positiveInteger . 
<http://www.assero.co.uk/MDRSdtmM/CDISC/V3#M-CDISC_SDTMMODEL_xxSPID> bd:rule ""^^xsd:string . 
<http://www.assero.co.uk/MDRSdtmM/CDISC/V3#M-CDISC_SDTMMODEL_xxSPID> bd:name "--SPID"^^xsd:string . 
<http://www.assero.co.uk/MDRSdtmM/CDISC/V3#M-CDISC_SDTMMODEL_xxSPID> bd:prefixed "true"^^xsd:boolean . 
<http://www.assero.co.uk/MDRSdtmM/CDISC/V3#M-CDISC_SDTMMODEL_xxSPID> bd:description "Sponsor-defined identifier. Example: pre-printed line identifier on a Concomitant Medications page."^^xsd:string . 
<http://www.assero.co.uk/MDRSdtmM/CDISC/V3#M-CDISC_SDTMMODEL_xxSPID> bd:typedAs <http://www.assero.co.uk/MDRSdtmM/CDISC/V3#M-CDISC_SDTMMODEL_DT_CHAR> . 
<http://www.assero.co.uk/MDRSdtmM/CDISC/V3#M-CDISC_SDTMMODEL_xxSPID> bd:classifiedAs <http://www.assero.co.uk/MDRSdtmM/CDISC/V3#M-CDISC_SDTMMODEL_C_IDENTIFIER> . 
<http://www.assero.co.uk/MDRSdtmM/CDISC/V3#M-CDISC_SDTMMODEL> bd:includesVariable <http://www.assero.co.uk/MDRSdtmM/CDISC/V3#M-CDISC_SDTMMODEL_xxSPID> . 
<http://www.assero.co.uk/MDRSdtmM/CDISC/V3#M-CDISC_SDTMMODEL_xxLNKID> rdf:type <http://www.assero.co.uk/BusinessDomain#ModelVariable> . 
<http://www.assero.co.uk/MDRSdtmM/CDISC/V3#M-CDISC_SDTMMODEL_xxLNKID> rdfs:label "Link ID"^^xsd:string . 
<http://www.assero.co.uk/MDRSdtmM/CDISC/V3#M-CDISC_SDTMMODEL_xxLNKID> bd:ordinal "10"^^xsd:positiveInteger . 
<http://www.assero.co.uk/MDRSdtmM/CDISC/V3#M-CDISC_SDTMMODEL_xxLNKID> bd:rule ""^^xsd:string . 
<http://www.assero.co.uk/MDRSdtmM/CDISC/V3#M-CDISC_SDTMMODEL_xxLNKID> bd:name "--LNKID"^^xsd:string . 
<http://www.assero.co.uk/MDRSdtmM/CDISC/V3#M-CDISC_SDTMMODEL_xxLNKID> bd:prefixed "true"^^xsd:boolean . 
<http://www.assero.co.uk/MDRSdtmM/CDISC/V3#M-CDISC_SDTMMODEL_xxLNKID> bd:description "Identifier used to link related records across domains. This may be a one-to-one or a one-to-many relationship. For Example: A single tumor may have multiple measurements/assessments performed at each study visit."^^xsd:string . 
<http://www.assero.co.uk/MDRSdtmM/CDISC/V3#M-CDISC_SDTMMODEL_xxLNKID> bd:typedAs <http://www.assero.co.uk/MDRSdtmM/CDISC/V3#M-CDISC_SDTMMODEL_DT_CHAR> . 
<http://www.assero.co.uk/MDRSdtmM/CDISC/V3#M-CDISC_SDTMMODEL_xxLNKID> bd:classifiedAs <http://www.assero.co.uk/MDRSdtmM/CDISC/V3#M-CDISC_SDTMMODEL_C_IDENTIFIER> . 
<http://www.assero.co.uk/MDRSdtmM/CDISC/V3#M-CDISC_SDTMMODEL> bd:includesVariable <http://www.assero.co.uk/MDRSdtmM/CDISC/V3#M-CDISC_SDTMMODEL_xxLNKID> . 
<http://www.assero.co.uk/MDRSdtmM/CDISC/V3#M-CDISC_SDTMMODEL_xxLNKGRP> rdf:type <http://www.assero.co.uk/BusinessDomain#ModelVariable> . 
<http://www.assero.co.uk/MDRSdtmM/CDISC/V3#M-CDISC_SDTMMODEL_xxLNKGRP> rdfs:label "Link Group ID"^^xsd:string . 
<http://www.assero.co.uk/MDRSdtmM/CDISC/V3#M-CDISC_SDTMMODEL_xxLNKGRP> bd:ordinal "11"^^xsd:positiveInteger . 
<http://www.assero.co.uk/MDRSdtmM/CDISC/V3#M-CDISC_SDTMMODEL_xxLNKGRP> bd:rule ""^^xsd:string . 
<http://www.assero.co.uk/MDRSdtmM/CDISC/V3#M-CDISC_SDTMMODEL_xxLNKGRP> bd:name "--LNKGRP"^^xsd:string . 
<http://www.assero.co.uk/MDRSdtmM/CDISC/V3#M-CDISC_SDTMMODEL_xxLNKGRP> bd:prefixed "true"^^xsd:boolean . 
<http://www.assero.co.uk/MDRSdtmM/CDISC/V3#M-CDISC_SDTMMODEL_xxLNKGRP> bd:description "Identifier used to link related records across domains. This will usually be a many-to-one relationship. For example: Multiple tumor measurements/assessments will contribute to a single response to therapy determination record."^^xsd:string . 
<http://www.assero.co.uk/MDRSdtmM/CDISC/V3#M-CDISC_SDTMMODEL_xxLNKGRP> bd:typedAs <http://www.assero.co.uk/MDRSdtmM/CDISC/V3#M-CDISC_SDTMMODEL_DT_CHAR> . 
<http://www.assero.co.uk/MDRSdtmM/CDISC/V3#M-CDISC_SDTMMODEL_xxLNKGRP> bd:classifiedAs <http://www.assero.co.uk/MDRSdtmM/CDISC/V3#M-CDISC_SDTMMODEL_C_IDENTIFIER> . 
<http://www.assero.co.uk/MDRSdtmM/CDISC/V3#M-CDISC_SDTMMODEL> bd:includesVariable <http://www.assero.co.uk/MDRSdtmM/CDISC/V3#M-CDISC_SDTMMODEL_xxLNKGRP> . 
<http://www.assero.co.uk/MDRSdtmM/CDISC/V3#M-CDISC_SDTMMODEL_VISITNUM> rdf:type <http://www.assero.co.uk/BusinessDomain#ModelVariable> . 
<http://www.assero.co.uk/MDRSdtmM/CDISC/V3#M-CDISC_SDTMMODEL_VISITNUM> rdfs:label "Visit Number"^^xsd:string . 
<http://www.assero.co.uk/MDRSdtmM/CDISC/V3#M-CDISC_SDTMMODEL_VISITNUM> bd:ordinal "12"^^xsd:positiveInteger . 
<http://www.assero.co.uk/MDRSdtmM/CDISC/V3#M-CDISC_SDTMMODEL_VISITNUM> bd:rule ""^^xsd:string . 
<http://www.assero.co.uk/MDRSdtmM/CDISC/V3#M-CDISC_SDTMMODEL_VISITNUM> bd:name "VISITNUM"^^xsd:string . 
<http://www.assero.co.uk/MDRSdtmM/CDISC/V3#M-CDISC_SDTMMODEL_VISITNUM> bd:prefixed "false"^^xsd:boolean . 
<http://www.assero.co.uk/MDRSdtmM/CDISC/V3#M-CDISC_SDTMMODEL_VISITNUM> bd:description "Clinical encounter number. Numeric version of VISIT, used for sorting."^^xsd:string . 
<http://www.assero.co.uk/MDRSdtmM/CDISC/V3#M-CDISC_SDTMMODEL_VISITNUM> bd:typedAs <http://www.assero.co.uk/MDRSdtmM/CDISC/V3#M-CDISC_SDTMMODEL_DT_NUM> . 
<http://www.assero.co.uk/MDRSdtmM/CDISC/V3#M-CDISC_SDTMMODEL_VISITNUM> bd:classifiedAs <http://www.assero.co.uk/MDRSdtmM/CDISC/V3#M-CDISC_SDTMMODEL_C_TIMING> . 
<http://www.assero.co.uk/MDRSdtmM/CDISC/V3#M-CDISC_SDTMMODEL> bd:includesVariable <http://www.assero.co.uk/MDRSdtmM/CDISC/V3#M-CDISC_SDTMMODEL_VISITNUM> . 
<http://www.assero.co.uk/MDRSdtmM/CDISC/V3#M-CDISC_SDTMMODEL_VISIT> rdf:type <http://www.assero.co.uk/BusinessDomain#ModelVariable> . 
<http://www.assero.co.uk/MDRSdtmM/CDISC/V3#M-CDISC_SDTMMODEL_VISIT> rdfs:label "Visit Name"^^xsd:string . 
<http://www.assero.co.uk/MDRSdtmM/CDISC/V3#M-CDISC_SDTMMODEL_VISIT> bd:ordinal "13"^^xsd:positiveInteger . 
<http://www.assero.co.uk/MDRSdtmM/CDISC/V3#M-CDISC_SDTMMODEL_VISIT> bd:rule ""^^xsd:string . 
<http://www.assero.co.uk/MDRSdtmM/CDISC/V3#M-CDISC_SDTMMODEL_VISIT> bd:name "VISIT"^^xsd:string . 
<http://www.assero.co.uk/MDRSdtmM/CDISC/V3#M-CDISC_SDTMMODEL_VISIT> bd:prefixed "false"^^xsd:boolean . 
<http://www.assero.co.uk/MDRSdtmM/CDISC/V3#M-CDISC_SDTMMODEL_VISIT> bd:description "Protocol-defined description of a clinical encounter."^^xsd:string . 
<http://www.assero.co.uk/MDRSdtmM/CDISC/V3#M-CDISC_SDTMMODEL_VISIT> bd:typedAs <http://www.assero.co.uk/MDRSdtmM/CDISC/V3#M-CDISC_SDTMMODEL_DT_CHAR> . 
<http://www.assero.co.uk/MDRSdtmM/CDISC/V3#M-CDISC_SDTMMODEL_VISIT> bd:classifiedAs <http://www.assero.co.uk/MDRSdtmM/CDISC/V3#M-CDISC_SDTMMODEL_C_TIMING> . 
<http://www.assero.co.uk/MDRSdtmM/CDISC/V3#M-CDISC_SDTMMODEL> bd:includesVariable <http://www.assero.co.uk/MDRSdtmM/CDISC/V3#M-CDISC_SDTMMODEL_VISIT> . 
<http://www.assero.co.uk/MDRSdtmM/CDISC/V3#M-CDISC_SDTMMODEL_VISITDY> rdf:type <http://www.assero.co.uk/BusinessDomain#ModelVariable> . 
<http://www.assero.co.uk/MDRSdtmM/CDISC/V3#M-CDISC_SDTMMODEL_VISITDY> rdfs:label "Planned Study Day of Visit"^^xsd:string . 
<http://www.assero.co.uk/MDRSdtmM/CDISC/V3#M-CDISC_SDTMMODEL_VISITDY> bd:ordinal "14"^^xsd:positiveInteger . 
<http://www.assero.co.uk/MDRSdtmM/CDISC/V3#M-CDISC_SDTMMODEL_VISITDY> bd:rule ""^^xsd:string . 
<http://www.assero.co.uk/MDRSdtmM/CDISC/V3#M-CDISC_SDTMMODEL_VISITDY> bd:name "VISITDY"^^xsd:string . 
<http://www.assero.co.uk/MDRSdtmM/CDISC/V3#M-CDISC_SDTMMODEL_VISITDY> bd:prefixed "false"^^xsd:boolean . 
<http://www.assero.co.uk/MDRSdtmM/CDISC/V3#M-CDISC_SDTMMODEL_VISITDY> bd:description "Planned study day of VISIT. Should be an integer."^^xsd:string . 
<http://www.assero.co.uk/MDRSdtmM/CDISC/V3#M-CDISC_SDTMMODEL_VISITDY> bd:typedAs <http://www.assero.co.uk/MDRSdtmM/CDISC/V3#M-CDISC_SDTMMODEL_DT_NUM> . 
<http://www.assero.co.uk/MDRSdtmM/CDISC/V3#M-CDISC_SDTMMODEL_VISITDY> bd:classifiedAs <http://www.assero.co.uk/MDRSdtmM/CDISC/V3#M-CDISC_SDTMMODEL_C_TIMING> . 
<http://www.assero.co.uk/MDRSdtmM/CDISC/V3#M-CDISC_SDTMMODEL> bd:includesVariable <http://www.assero.co.uk/MDRSdtmM/CDISC/V3#M-CDISC_SDTMMODEL_VISITDY> . 
<http://www.assero.co.uk/MDRSdtmM/CDISC/V3#M-CDISC_SDTMMODEL_TAETORD> rdf:type <http://www.assero.co.uk/BusinessDomain#ModelVariable> . 
<http://www.assero.co.uk/MDRSdtmM/CDISC/V3#M-CDISC_SDTMMODEL_TAETORD> rdfs:label "Planned Order of Element within Arm"^^xsd:string . 
<http://www.assero.co.uk/MDRSdtmM/CDISC/V3#M-CDISC_SDTMMODEL_TAETORD> bd:ordinal "15"^^xsd:positiveInteger . 
<http://www.assero.co.uk/MDRSdtmM/CDISC/V3#M-CDISC_SDTMMODEL_TAETORD> bd:rule ""^^xsd:string . 
<http://www.assero.co.uk/MDRSdtmM/CDISC/V3#M-CDISC_SDTMMODEL_TAETORD> bd:name "TAETORD"^^xsd:string . 
<http://www.assero.co.uk/MDRSdtmM/CDISC/V3#M-CDISC_SDTMMODEL_TAETORD> bd:prefixed "false"^^xsd:boolean . 
<http://www.assero.co.uk/MDRSdtmM/CDISC/V3#M-CDISC_SDTMMODEL_TAETORD> bd:description "Number that gives the planned order of the Element within the Arm (see Trial Arms, Section 3.2.2 )."^^xsd:string . 
<http://www.assero.co.uk/MDRSdtmM/CDISC/V3#M-CDISC_SDTMMODEL_TAETORD> bd:typedAs <http://www.assero.co.uk/MDRSdtmM/CDISC/V3#M-CDISC_SDTMMODEL_DT_NUM> . 
<http://www.assero.co.uk/MDRSdtmM/CDISC/V3#M-CDISC_SDTMMODEL_TAETORD> bd:classifiedAs <http://www.assero.co.uk/MDRSdtmM/CDISC/V3#M-CDISC_SDTMMODEL_C_TIMING> . 
<http://www.assero.co.uk/MDRSdtmM/CDISC/V3#M-CDISC_SDTMMODEL> bd:includesVariable <http://www.assero.co.uk/MDRSdtmM/CDISC/V3#M-CDISC_SDTMMODEL_TAETORD> . 
<http://www.assero.co.uk/MDRSdtmM/CDISC/V3#M-CDISC_SDTMMODEL_EPOCH> rdf:type <http://www.assero.co.uk/BusinessDomain#ModelVariable> . 
<http://www.assero.co.uk/MDRSdtmM/CDISC/V3#M-CDISC_SDTMMODEL_EPOCH> rdfs:label "Epoch"^^xsd:string . 
<http://www.assero.co.uk/MDRSdtmM/CDISC/V3#M-CDISC_SDTMMODEL_EPOCH> bd:ordinal "16"^^xsd:positiveInteger . 
<http://www.assero.co.uk/MDRSdtmM/CDISC/V3#M-CDISC_SDTMMODEL_EPOCH> bd:rule ""^^xsd:string . 
<http://www.assero.co.uk/MDRSdtmM/CDISC/V3#M-CDISC_SDTMMODEL_EPOCH> bd:name "EPOCH"^^xsd:string . 
<http://www.assero.co.uk/MDRSdtmM/CDISC/V3#M-CDISC_SDTMMODEL_EPOCH> bd:prefixed "false"^^xsd:boolean . 
<http://www.assero.co.uk/MDRSdtmM/CDISC/V3#M-CDISC_SDTMMODEL_EPOCH> bd:description "Epoch associated with the start date/time of the observation, or the date/time of collection if start date/time is not collected. (See Section 3.2.2)."^^xsd:string . 
<http://www.assero.co.uk/MDRSdtmM/CDISC/V3#M-CDISC_SDTMMODEL_EPOCH> bd:typedAs <http://www.assero.co.uk/MDRSdtmM/CDISC/V3#M-CDISC_SDTMMODEL_DT_CHAR> . 
<http://www.assero.co.uk/MDRSdtmM/CDISC/V3#M-CDISC_SDTMMODEL_EPOCH> bd:classifiedAs <http://www.assero.co.uk/MDRSdtmM/CDISC/V3#M-CDISC_SDTMMODEL_C_TIMING> . 
<http://www.assero.co.uk/MDRSdtmM/CDISC/V3#M-CDISC_SDTMMODEL> bd:includesVariable <http://www.assero.co.uk/MDRSdtmM/CDISC/V3#M-CDISC_SDTMMODEL_EPOCH> . 
<http://www.assero.co.uk/MDRSdtmM/CDISC/V3#M-CDISC_SDTMMODEL_xxDTC> rdf:type <http://www.assero.co.uk/BusinessDomain#ModelVariable> . 
<http://www.assero.co.uk/MDRSdtmM/CDISC/V3#M-CDISC_SDTMMODEL_xxDTC> rdfs:label "Date/Time of Collection"^^xsd:string . 
<http://www.assero.co.uk/MDRSdtmM/CDISC/V3#M-CDISC_SDTMMODEL_xxDTC> bd:ordinal "17"^^xsd:positiveInteger . 
<http://www.assero.co.uk/MDRSdtmM/CDISC/V3#M-CDISC_SDTMMODEL_xxDTC> bd:rule ""^^xsd:string . 
<http://www.assero.co.uk/MDRSdtmM/CDISC/V3#M-CDISC_SDTMMODEL_xxDTC> bd:name "--DTC"^^xsd:string . 
<http://www.assero.co.uk/MDRSdtmM/CDISC/V3#M-CDISC_SDTMMODEL_xxDTC> bd:prefixed "true"^^xsd:boolean . 
<http://www.assero.co.uk/MDRSdtmM/CDISC/V3#M-CDISC_SDTMMODEL_xxDTC> bd:description "Collection date and time of an observation represented in IS0 8601 character format."^^xsd:string . 
<http://www.assero.co.uk/MDRSdtmM/CDISC/V3#M-CDISC_SDTMMODEL_xxDTC> bd:typedAs <http://www.assero.co.uk/MDRSdtmM/CDISC/V3#M-CDISC_SDTMMODEL_DT_CHAR> . 
<http://www.assero.co.uk/MDRSdtmM/CDISC/V3#M-CDISC_SDTMMODEL_xxDTC> bd:classifiedAs <http://www.assero.co.uk/MDRSdtmM/CDISC/V3#M-CDISC_SDTMMODEL_C_TIMING> . 
<http://www.assero.co.uk/MDRSdtmM/CDISC/V3#M-CDISC_SDTMMODEL> bd:includesVariable <http://www.assero.co.uk/MDRSdtmM/CDISC/V3#M-CDISC_SDTMMODEL_xxDTC> . 
<http://www.assero.co.uk/MDRSdtmM/CDISC/V3#M-CDISC_SDTMMODEL_xxSTDTC> rdf:type <http://www.assero.co.uk/BusinessDomain#ModelVariable> . 
<http://www.assero.co.uk/MDRSdtmM/CDISC/V3#M-CDISC_SDTMMODEL_xxSTDTC> rdfs:label "Start Date/Time of Observation"^^xsd:string . 
<http://www.assero.co.uk/MDRSdtmM/CDISC/V3#M-CDISC_SDTMMODEL_xxSTDTC> bd:ordinal "18"^^xsd:positiveInteger . 
<http://www.assero.co.uk/MDRSdtmM/CDISC/V3#M-CDISC_SDTMMODEL_xxSTDTC> bd:rule ""^^xsd:string . 
<http://www.assero.co.uk/MDRSdtmM/CDISC/V3#M-CDISC_SDTMMODEL_xxSTDTC> bd:name "--STDTC"^^xsd:string . 
<http://www.assero.co.uk/MDRSdtmM/CDISC/V3#M-CDISC_SDTMMODEL_xxSTDTC> bd:prefixed "true"^^xsd:boolean . 
<http://www.assero.co.uk/MDRSdtmM/CDISC/V3#M-CDISC_SDTMMODEL_xxSTDTC> bd:description "Start date/time of an observation represented in IS0 8601 character format."^^xsd:string . 
<http://www.assero.co.uk/MDRSdtmM/CDISC/V3#M-CDISC_SDTMMODEL_xxSTDTC> bd:typedAs <http://www.assero.co.uk/MDRSdtmM/CDISC/V3#M-CDISC_SDTMMODEL_DT_CHAR> . 
<http://www.assero.co.uk/MDRSdtmM/CDISC/V3#M-CDISC_SDTMMODEL_xxSTDTC> bd:classifiedAs <http://www.assero.co.uk/MDRSdtmM/CDISC/V3#M-CDISC_SDTMMODEL_C_TIMING> . 
<http://www.assero.co.uk/MDRSdtmM/CDISC/V3#M-CDISC_SDTMMODEL> bd:includesVariable <http://www.assero.co.uk/MDRSdtmM/CDISC/V3#M-CDISC_SDTMMODEL_xxSTDTC> . 
<http://www.assero.co.uk/MDRSdtmM/CDISC/V3#M-CDISC_SDTMMODEL_xxENDTC> rdf:type <http://www.assero.co.uk/BusinessDomain#ModelVariable> . 
<http://www.assero.co.uk/MDRSdtmM/CDISC/V3#M-CDISC_SDTMMODEL_xxENDTC> rdfs:label "End Date/Time of Observation"^^xsd:string . 
<http://www.assero.co.uk/MDRSdtmM/CDISC/V3#M-CDISC_SDTMMODEL_xxENDTC> bd:ordinal "19"^^xsd:positiveInteger . 
<http://www.assero.co.uk/MDRSdtmM/CDISC/V3#M-CDISC_SDTMMODEL_xxENDTC> bd:rule ""^^xsd:string . 
<http://www.assero.co.uk/MDRSdtmM/CDISC/V3#M-CDISC_SDTMMODEL_xxENDTC> bd:name "--ENDTC"^^xsd:string . 
<http://www.assero.co.uk/MDRSdtmM/CDISC/V3#M-CDISC_SDTMMODEL_xxENDTC> bd:prefixed "true"^^xsd:boolean . 
<http://www.assero.co.uk/MDRSdtmM/CDISC/V3#M-CDISC_SDTMMODEL_xxENDTC> bd:description "End date/time of the observation represented in IS0 8601 character format."^^xsd:string . 
<http://www.assero.co.uk/MDRSdtmM/CDISC/V3#M-CDISC_SDTMMODEL_xxENDTC> bd:typedAs <http://www.assero.co.uk/MDRSdtmM/CDISC/V3#M-CDISC_SDTMMODEL_DT_CHAR> . 
<http://www.assero.co.uk/MDRSdtmM/CDISC/V3#M-CDISC_SDTMMODEL_xxENDTC> bd:classifiedAs <http://www.assero.co.uk/MDRSdtmM/CDISC/V3#M-CDISC_SDTMMODEL_C_TIMING> . 
<http://www.assero.co.uk/MDRSdtmM/CDISC/V3#M-CDISC_SDTMMODEL> bd:includesVariable <http://www.assero.co.uk/MDRSdtmM/CDISC/V3#M-CDISC_SDTMMODEL_xxENDTC> . 
<http://www.assero.co.uk/MDRSdtmM/CDISC/V3#M-CDISC_SDTMMODEL_xxDY> rdf:type <http://www.assero.co.uk/BusinessDomain#ModelVariable> . 
<http://www.assero.co.uk/MDRSdtmM/CDISC/V3#M-CDISC_SDTMMODEL_xxDY> rdfs:label "Study Day of Visit/Collection/Exam"^^xsd:string . 
<http://www.assero.co.uk/MDRSdtmM/CDISC/V3#M-CDISC_SDTMMODEL_xxDY> bd:ordinal "20"^^xsd:positiveInteger . 
<http://www.assero.co.uk/MDRSdtmM/CDISC/V3#M-CDISC_SDTMMODEL_xxDY> bd:rule ""^^xsd:string . 
<http://www.assero.co.uk/MDRSdtmM/CDISC/V3#M-CDISC_SDTMMODEL_xxDY> bd:name "--DY"^^xsd:string . 
<http://www.assero.co.uk/MDRSdtmM/CDISC/V3#M-CDISC_SDTMMODEL_xxDY> bd:prefixed "true"^^xsd:boolean . 
<http://www.assero.co.uk/MDRSdtmM/CDISC/V3#M-CDISC_SDTMMODEL_xxDY> bd:description "Actual study day of visit/collection/exam expressed in integer days relative to the sponsor-defined RFSTDTC in Demographics."^^xsd:string . 
<http://www.assero.co.uk/MDRSdtmM/CDISC/V3#M-CDISC_SDTMMODEL_xxDY> bd:typedAs <http://www.assero.co.uk/MDRSdtmM/CDISC/V3#M-CDISC_SDTMMODEL_DT_NUM> . 
<http://www.assero.co.uk/MDRSdtmM/CDISC/V3#M-CDISC_SDTMMODEL_xxDY> bd:classifiedAs <http://www.assero.co.uk/MDRSdtmM/CDISC/V3#M-CDISC_SDTMMODEL_C_TIMING> . 
<http://www.assero.co.uk/MDRSdtmM/CDISC/V3#M-CDISC_SDTMMODEL> bd:includesVariable <http://www.assero.co.uk/MDRSdtmM/CDISC/V3#M-CDISC_SDTMMODEL_xxDY> . 
<http://www.assero.co.uk/MDRSdtmM/CDISC/V3#M-CDISC_SDTMMODEL_xxSTDY> rdf:type <http://www.assero.co.uk/BusinessDomain#ModelVariable> . 
<http://www.assero.co.uk/MDRSdtmM/CDISC/V3#M-CDISC_SDTMMODEL_xxSTDY> rdfs:label "Study Day of Start of Observation"^^xsd:string . 
<http://www.assero.co.uk/MDRSdtmM/CDISC/V3#M-CDISC_SDTMMODEL_xxSTDY> bd:ordinal "21"^^xsd:positiveInteger . 
<http://www.assero.co.uk/MDRSdtmM/CDISC/V3#M-CDISC_SDTMMODEL_xxSTDY> bd:rule ""^^xsd:string . 
<http://www.assero.co.uk/MDRSdtmM/CDISC/V3#M-CDISC_SDTMMODEL_xxSTDY> bd:name "--STDY"^^xsd:string . 
<http://www.assero.co.uk/MDRSdtmM/CDISC/V3#M-CDISC_SDTMMODEL_xxSTDY> bd:prefixed "true"^^xsd:boolean . 
<http://www.assero.co.uk/MDRSdtmM/CDISC/V3#M-CDISC_SDTMMODEL_xxSTDY> bd:description "Actual study day of start of observation expressed in integer days relative to the sponsor-defined RFSTDTC in Demographics."^^xsd:string . 
<http://www.assero.co.uk/MDRSdtmM/CDISC/V3#M-CDISC_SDTMMODEL_xxSTDY> bd:typedAs <http://www.assero.co.uk/MDRSdtmM/CDISC/V3#M-CDISC_SDTMMODEL_DT_NUM> . 
<http://www.assero.co.uk/MDRSdtmM/CDISC/V3#M-CDISC_SDTMMODEL_xxSTDY> bd:classifiedAs <http://www.assero.co.uk/MDRSdtmM/CDISC/V3#M-CDISC_SDTMMODEL_C_TIMING> . 
<http://www.assero.co.uk/MDRSdtmM/CDISC/V3#M-CDISC_SDTMMODEL> bd:includesVariable <http://www.assero.co.uk/MDRSdtmM/CDISC/V3#M-CDISC_SDTMMODEL_xxSTDY> . 
<http://www.assero.co.uk/MDRSdtmM/CDISC/V3#M-CDISC_SDTMMODEL_xxENDY> rdf:type <http://www.assero.co.uk/BusinessDomain#ModelVariable> . 
<http://www.assero.co.uk/MDRSdtmM/CDISC/V3#M-CDISC_SDTMMODEL_xxENDY> rdfs:label "Study Day of End of Observation"^^xsd:string . 
<http://www.assero.co.uk/MDRSdtmM/CDISC/V3#M-CDISC_SDTMMODEL_xxENDY> bd:ordinal "22"^^xsd:positiveInteger . 
<http://www.assero.co.uk/MDRSdtmM/CDISC/V3#M-CDISC_SDTMMODEL_xxENDY> bd:rule ""^^xsd:string . 
<http://www.assero.co.uk/MDRSdtmM/CDISC/V3#M-CDISC_SDTMMODEL_xxENDY> bd:name "--ENDY"^^xsd:string . 
<http://www.assero.co.uk/MDRSdtmM/CDISC/V3#M-CDISC_SDTMMODEL_xxENDY> bd:prefixed "true"^^xsd:boolean . 
<http://www.assero.co.uk/MDRSdtmM/CDISC/V3#M-CDISC_SDTMMODEL_xxENDY> bd:description "Actual study day of end of observation expressed in integer days relative to the sponsor-defined RFSTDTC in Demographics."^^xsd:string . 
<http://www.assero.co.uk/MDRSdtmM/CDISC/V3#M-CDISC_SDTMMODEL_xxENDY> bd:typedAs <http://www.assero.co.uk/MDRSdtmM/CDISC/V3#M-CDISC_SDTMMODEL_DT_NUM> . 
<http://www.assero.co.uk/MDRSdtmM/CDISC/V3#M-CDISC_SDTMMODEL_xxENDY> bd:classifiedAs <http://www.assero.co.uk/MDRSdtmM/CDISC/V3#M-CDISC_SDTMMODEL_C_TIMING> . 
<http://www.assero.co.uk/MDRSdtmM/CDISC/V3#M-CDISC_SDTMMODEL> bd:includesVariable <http://www.assero.co.uk/MDRSdtmM/CDISC/V3#M-CDISC_SDTMMODEL_xxENDY> . 
<http://www.assero.co.uk/MDRSdtmM/CDISC/V3#M-CDISC_SDTMMODEL_xxDUR> rdf:type <http://www.assero.co.uk/BusinessDomain#ModelVariable> . 
<http://www.assero.co.uk/MDRSdtmM/CDISC/V3#M-CDISC_SDTMMODEL_xxDUR> rdfs:label "Duration"^^xsd:string . 
<http://www.assero.co.uk/MDRSdtmM/CDISC/V3#M-CDISC_SDTMMODEL_xxDUR> bd:ordinal "23"^^xsd:positiveInteger . 
<http://www.assero.co.uk/MDRSdtmM/CDISC/V3#M-CDISC_SDTMMODEL_xxDUR> bd:rule ""^^xsd:string . 
<http://www.assero.co.uk/MDRSdtmM/CDISC/V3#M-CDISC_SDTMMODEL_xxDUR> bd:name "--DUR"^^xsd:string . 
<http://www.assero.co.uk/MDRSdtmM/CDISC/V3#M-CDISC_SDTMMODEL_xxDUR> bd:prefixed "true"^^xsd:boolean . 
<http://www.assero.co.uk/MDRSdtmM/CDISC/V3#M-CDISC_SDTMMODEL_xxDUR> bd:description "Collected duration of an event, intervention, or finding represented in ISO 8601 character format. Used only if collected on the CRF and not derived."^^xsd:string . 
<http://www.assero.co.uk/MDRSdtmM/CDISC/V3#M-CDISC_SDTMMODEL_xxDUR> bd:typedAs <http://www.assero.co.uk/MDRSdtmM/CDISC/V3#M-CDISC_SDTMMODEL_DT_CHAR> . 
<http://www.assero.co.uk/MDRSdtmM/CDISC/V3#M-CDISC_SDTMMODEL_xxDUR> bd:classifiedAs <http://www.assero.co.uk/MDRSdtmM/CDISC/V3#M-CDISC_SDTMMODEL_C_TIMING> . 
<http://www.assero.co.uk/MDRSdtmM/CDISC/V3#M-CDISC_SDTMMODEL> bd:includesVariable <http://www.assero.co.uk/MDRSdtmM/CDISC/V3#M-CDISC_SDTMMODEL_xxDUR> . 
<http://www.assero.co.uk/MDRSdtmM/CDISC/V3#M-CDISC_SDTMMODEL_xxTPT> rdf:type <http://www.assero.co.uk/BusinessDomain#ModelVariable> . 
<http://www.assero.co.uk/MDRSdtmM/CDISC/V3#M-CDISC_SDTMMODEL_xxTPT> rdfs:label "Planned Time Point Name"^^xsd:string . 
<http://www.assero.co.uk/MDRSdtmM/CDISC/V3#M-CDISC_SDTMMODEL_xxTPT> bd:ordinal "24"^^xsd:positiveInteger . 
<http://www.assero.co.uk/MDRSdtmM/CDISC/V3#M-CDISC_SDTMMODEL_xxTPT> bd:rule ""^^xsd:string . 
<http://www.assero.co.uk/MDRSdtmM/CDISC/V3#M-CDISC_SDTMMODEL_xxTPT> bd:name "--TPT"^^xsd:string . 
<http://www.assero.co.uk/MDRSdtmM/CDISC/V3#M-CDISC_SDTMMODEL_xxTPT> bd:prefixed "true"^^xsd:boolean . 
<http://www.assero.co.uk/MDRSdtmM/CDISC/V3#M-CDISC_SDTMMODEL_xxTPT> bd:description "Text description of time when a measurement or observation should be taken as defined in the protocol. This may be represented as an elapsed time relative to a fixed reference point, such as time of last dose. See --TPTNUM and --TPTREF."^^xsd:string . 
<http://www.assero.co.uk/MDRSdtmM/CDISC/V3#M-CDISC_SDTMMODEL_xxTPT> bd:typedAs <http://www.assero.co.uk/MDRSdtmM/CDISC/V3#M-CDISC_SDTMMODEL_DT_CHAR> . 
<http://www.assero.co.uk/MDRSdtmM/CDISC/V3#M-CDISC_SDTMMODEL_xxTPT> bd:classifiedAs <http://www.assero.co.uk/MDRSdtmM/CDISC/V3#M-CDISC_SDTMMODEL_C_TIMING> . 
<http://www.assero.co.uk/MDRSdtmM/CDISC/V3#M-CDISC_SDTMMODEL> bd:includesVariable <http://www.assero.co.uk/MDRSdtmM/CDISC/V3#M-CDISC_SDTMMODEL_xxTPT> . 
<http://www.assero.co.uk/MDRSdtmM/CDISC/V3#M-CDISC_SDTMMODEL_xxTPTNUM> rdf:type <http://www.assero.co.uk/BusinessDomain#ModelVariable> . 
<http://www.assero.co.uk/MDRSdtmM/CDISC/V3#M-CDISC_SDTMMODEL_xxTPTNUM> rdfs:label "Planned Time Point Number"^^xsd:string . 
<http://www.assero.co.uk/MDRSdtmM/CDISC/V3#M-CDISC_SDTMMODEL_xxTPTNUM> bd:ordinal "25"^^xsd:positiveInteger . 
<http://www.assero.co.uk/MDRSdtmM/CDISC/V3#M-CDISC_SDTMMODEL_xxTPTNUM> bd:rule ""^^xsd:string . 
<http://www.assero.co.uk/MDRSdtmM/CDISC/V3#M-CDISC_SDTMMODEL_xxTPTNUM> bd:name "--TPTNUM"^^xsd:string . 
<http://www.assero.co.uk/MDRSdtmM/CDISC/V3#M-CDISC_SDTMMODEL_xxTPTNUM> bd:prefixed "true"^^xsd:boolean . 
<http://www.assero.co.uk/MDRSdtmM/CDISC/V3#M-CDISC_SDTMMODEL_xxTPTNUM> bd:description "Numeric version of planned time point used in sorting."^^xsd:string . 
<http://www.assero.co.uk/MDRSdtmM/CDISC/V3#M-CDISC_SDTMMODEL_xxTPTNUM> bd:typedAs <http://www.assero.co.uk/MDRSdtmM/CDISC/V3#M-CDISC_SDTMMODEL_DT_NUM> . 
<http://www.assero.co.uk/MDRSdtmM/CDISC/V3#M-CDISC_SDTMMODEL_xxTPTNUM> bd:classifiedAs <http://www.assero.co.uk/MDRSdtmM/CDISC/V3#M-CDISC_SDTMMODEL_C_TIMING> . 
<http://www.assero.co.uk/MDRSdtmM/CDISC/V3#M-CDISC_SDTMMODEL> bd:includesVariable <http://www.assero.co.uk/MDRSdtmM/CDISC/V3#M-CDISC_SDTMMODEL_xxTPTNUM> . 
<http://www.assero.co.uk/MDRSdtmM/CDISC/V3#M-CDISC_SDTMMODEL_xxELTM> rdf:type <http://www.assero.co.uk/BusinessDomain#ModelVariable> . 
<http://www.assero.co.uk/MDRSdtmM/CDISC/V3#M-CDISC_SDTMMODEL_xxELTM> rdfs:label "Planned Elapsed Time from Time Point Ref"^^xsd:string . 
<http://www.assero.co.uk/MDRSdtmM/CDISC/V3#M-CDISC_SDTMMODEL_xxELTM> bd:ordinal "26"^^xsd:positiveInteger . 
<http://www.assero.co.uk/MDRSdtmM/CDISC/V3#M-CDISC_SDTMMODEL_xxELTM> bd:rule ""^^xsd:string . 
<http://www.assero.co.uk/MDRSdtmM/CDISC/V3#M-CDISC_SDTMMODEL_xxELTM> bd:name "--ELTM"^^xsd:string . 
<http://www.assero.co.uk/MDRSdtmM/CDISC/V3#M-CDISC_SDTMMODEL_xxELTM> bd:prefixed "true"^^xsd:boolean . 
<http://www.assero.co.uk/MDRSdtmM/CDISC/V3#M-CDISC_SDTMMODEL_xxELTM> bd:description "Planned Elapsed time in ISO 8601 character format relative to a planned fixed reference (--TPTREF) such as “Previous Dose” or “Previous Meal”. This variable is useful where there are repetitive measures. Not a clock time or a date/time variable, but an interval, represented as ISO duration."^^xsd:string . 
<http://www.assero.co.uk/MDRSdtmM/CDISC/V3#M-CDISC_SDTMMODEL_xxELTM> bd:typedAs <http://www.assero.co.uk/MDRSdtmM/CDISC/V3#M-CDISC_SDTMMODEL_DT_CHAR> . 
<http://www.assero.co.uk/MDRSdtmM/CDISC/V3#M-CDISC_SDTMMODEL_xxELTM> bd:classifiedAs <http://www.assero.co.uk/MDRSdtmM/CDISC/V3#M-CDISC_SDTMMODEL_C_TIMING> . 
<http://www.assero.co.uk/MDRSdtmM/CDISC/V3#M-CDISC_SDTMMODEL> bd:includesVariable <http://www.assero.co.uk/MDRSdtmM/CDISC/V3#M-CDISC_SDTMMODEL_xxELTM> . 
<http://www.assero.co.uk/MDRSdtmM/CDISC/V3#M-CDISC_SDTMMODEL_xxTPTREF> rdf:type <http://www.assero.co.uk/BusinessDomain#ModelVariable> . 
<http://www.assero.co.uk/MDRSdtmM/CDISC/V3#M-CDISC_SDTMMODEL_xxTPTREF> rdfs:label "Time Point Reference"^^xsd:string . 
<http://www.assero.co.uk/MDRSdtmM/CDISC/V3#M-CDISC_SDTMMODEL_xxTPTREF> bd:ordinal "27"^^xsd:positiveInteger . 
<http://www.assero.co.uk/MDRSdtmM/CDISC/V3#M-CDISC_SDTMMODEL_xxTPTREF> bd:rule ""^^xsd:string . 
<http://www.assero.co.uk/MDRSdtmM/CDISC/V3#M-CDISC_SDTMMODEL_xxTPTREF> bd:name "--TPTREF"^^xsd:string . 
<http://www.assero.co.uk/MDRSdtmM/CDISC/V3#M-CDISC_SDTMMODEL_xxTPTREF> bd:prefixed "true"^^xsd:boolean . 
<http://www.assero.co.uk/MDRSdtmM/CDISC/V3#M-CDISC_SDTMMODEL_xxTPTREF> bd:description "Description of the fixed reference point referred to by --ELTM, --TPTNUM, and --TPT. Examples: PREVIOUS DOSE, PREVIOUS MEAL."^^xsd:string . 
<http://www.assero.co.uk/MDRSdtmM/CDISC/V3#M-CDISC_SDTMMODEL_xxTPTREF> bd:typedAs <http://www.assero.co.uk/MDRSdtmM/CDISC/V3#M-CDISC_SDTMMODEL_DT_CHAR> . 
<http://www.assero.co.uk/MDRSdtmM/CDISC/V3#M-CDISC_SDTMMODEL_xxTPTREF> bd:classifiedAs <http://www.assero.co.uk/MDRSdtmM/CDISC/V3#M-CDISC_SDTMMODEL_C_TIMING> . 
<http://www.assero.co.uk/MDRSdtmM/CDISC/V3#M-CDISC_SDTMMODEL> bd:includesVariable <http://www.assero.co.uk/MDRSdtmM/CDISC/V3#M-CDISC_SDTMMODEL_xxTPTREF> . 
<http://www.assero.co.uk/MDRSdtmM/CDISC/V3#M-CDISC_SDTMMODEL_xxRFTDTC> rdf:type <http://www.assero.co.uk/BusinessDomain#ModelVariable> . 
<http://www.assero.co.uk/MDRSdtmM/CDISC/V3#M-CDISC_SDTMMODEL_xxRFTDTC> rdfs:label "Date/Time of Reference Time Point"^^xsd:string . 
<http://www.assero.co.uk/MDRSdtmM/CDISC/V3#M-CDISC_SDTMMODEL_xxRFTDTC> bd:ordinal "28"^^xsd:positiveInteger . 
<http://www.assero.co.uk/MDRSdtmM/CDISC/V3#M-CDISC_SDTMMODEL_xxRFTDTC> bd:rule ""^^xsd:string . 
<http://www.assero.co.uk/MDRSdtmM/CDISC/V3#M-CDISC_SDTMMODEL_xxRFTDTC> bd:name "--RFTDTC"^^xsd:string . 
<http://www.assero.co.uk/MDRSdtmM/CDISC/V3#M-CDISC_SDTMMODEL_xxRFTDTC> bd:prefixed "true"^^xsd:boolean . 
<http://www.assero.co.uk/MDRSdtmM/CDISC/V3#M-CDISC_SDTMMODEL_xxRFTDTC> bd:description "Date/time for a fixed reference time point defined by --TPTREF in ISO 8601 character format."^^xsd:string . 
<http://www.assero.co.uk/MDRSdtmM/CDISC/V3#M-CDISC_SDTMMODEL_xxRFTDTC> bd:typedAs <http://www.assero.co.uk/MDRSdtmM/CDISC/V3#M-CDISC_SDTMMODEL_DT_CHAR> . 
<http://www.assero.co.uk/MDRSdtmM/CDISC/V3#M-CDISC_SDTMMODEL_xxRFTDTC> bd:classifiedAs <http://www.assero.co.uk/MDRSdtmM/CDISC/V3#M-CDISC_SDTMMODEL_C_TIMING> . 
<http://www.assero.co.uk/MDRSdtmM/CDISC/V3#M-CDISC_SDTMMODEL> bd:includesVariable <http://www.assero.co.uk/MDRSdtmM/CDISC/V3#M-CDISC_SDTMMODEL_xxRFTDTC> . 
<http://www.assero.co.uk/MDRSdtmM/CDISC/V3#M-CDISC_SDTMMODEL_xxSTRF> rdf:type <http://www.assero.co.uk/BusinessDomain#ModelVariable> . 
<http://www.assero.co.uk/MDRSdtmM/CDISC/V3#M-CDISC_SDTMMODEL_xxSTRF> rdfs:label "Start Relative to Reference Period"^^xsd:string . 
<http://www.assero.co.uk/MDRSdtmM/CDISC/V3#M-CDISC_SDTMMODEL_xxSTRF> bd:ordinal "29"^^xsd:positiveInteger . 
<http://www.assero.co.uk/MDRSdtmM/CDISC/V3#M-CDISC_SDTMMODEL_xxSTRF> bd:rule ""^^xsd:string . 
<http://www.assero.co.uk/MDRSdtmM/CDISC/V3#M-CDISC_SDTMMODEL_xxSTRF> bd:name "--STRF"^^xsd:string . 
<http://www.assero.co.uk/MDRSdtmM/CDISC/V3#M-CDISC_SDTMMODEL_xxSTRF> bd:prefixed "true"^^xsd:boolean . 
<http://www.assero.co.uk/MDRSdtmM/CDISC/V3#M-CDISC_SDTMMODEL_xxSTRF> bd:description "Identifies the start of the observation as being before, during, or after the sponsor-defined reference period. The sponsor-defined reference period is a continuous period of time defined by a discrete starting point and a discrete ending point represented by RFSTDTC and RFENDTC in Demographics. \nNote: This variable will be deprecated (phased out) in a future (post SDTM v1.4) release. The functionality of this variable can be replaced by the use of --STRTPT with --STTPT = RFSTDTC."^^xsd:string . 
<http://www.assero.co.uk/MDRSdtmM/CDISC/V3#M-CDISC_SDTMMODEL_xxSTRF> bd:typedAs <http://www.assero.co.uk/MDRSdtmM/CDISC/V3#M-CDISC_SDTMMODEL_DT_CHAR> . 
<http://www.assero.co.uk/MDRSdtmM/CDISC/V3#M-CDISC_SDTMMODEL_xxSTRF> bd:classifiedAs <http://www.assero.co.uk/MDRSdtmM/CDISC/V3#M-CDISC_SDTMMODEL_C_TIMING> . 
<http://www.assero.co.uk/MDRSdtmM/CDISC/V3#M-CDISC_SDTMMODEL> bd:includesVariable <http://www.assero.co.uk/MDRSdtmM/CDISC/V3#M-CDISC_SDTMMODEL_xxSTRF> . 
<http://www.assero.co.uk/MDRSdtmM/CDISC/V3#M-CDISC_SDTMMODEL_xxENRF> rdf:type <http://www.assero.co.uk/BusinessDomain#ModelVariable> . 
<http://www.assero.co.uk/MDRSdtmM/CDISC/V3#M-CDISC_SDTMMODEL_xxENRF> rdfs:label "End Relative to Reference Period"^^xsd:string . 
<http://www.assero.co.uk/MDRSdtmM/CDISC/V3#M-CDISC_SDTMMODEL_xxENRF> bd:ordinal "30"^^xsd:positiveInteger . 
<http://www.assero.co.uk/MDRSdtmM/CDISC/V3#M-CDISC_SDTMMODEL_xxENRF> bd:rule ""^^xsd:string . 
<http://www.assero.co.uk/MDRSdtmM/CDISC/V3#M-CDISC_SDTMMODEL_xxENRF> bd:name "--ENRF"^^xsd:string . 
<http://www.assero.co.uk/MDRSdtmM/CDISC/V3#M-CDISC_SDTMMODEL_xxENRF> bd:prefixed "true"^^xsd:boolean . 
<http://www.assero.co.uk/MDRSdtmM/CDISC/V3#M-CDISC_SDTMMODEL_xxENRF> bd:description "Identifies the end of the observation as being before, during or after the sponsor-defined reference period. The sponsor-defined reference period is a continuous period of time defined by a discrete starting point and a discrete ending point represented by RFSTDTC and RFENDTC in Demographics. \nNote: This variable will be deprecated (phased out) in a future (post SDTM v1.4) release. The functionality of this variable can be replaced by the use of --ENRTPT with --ENTPT = RFENDTC."^^xsd:string . 
<http://www.assero.co.uk/MDRSdtmM/CDISC/V3#M-CDISC_SDTMMODEL_xxENRF> bd:typedAs <http://www.assero.co.uk/MDRSdtmM/CDISC/V3#M-CDISC_SDTMMODEL_DT_CHAR> . 
<http://www.assero.co.uk/MDRSdtmM/CDISC/V3#M-CDISC_SDTMMODEL_xxENRF> bd:classifiedAs <http://www.assero.co.uk/MDRSdtmM/CDISC/V3#M-CDISC_SDTMMODEL_C_TIMING> . 
<http://www.assero.co.uk/MDRSdtmM/CDISC/V3#M-CDISC_SDTMMODEL> bd:includesVariable <http://www.assero.co.uk/MDRSdtmM/CDISC/V3#M-CDISC_SDTMMODEL_xxENRF> . 
<http://www.assero.co.uk/MDRSdtmM/CDISC/V3#M-CDISC_SDTMMODEL_xxEVLINT> rdf:type <http://www.assero.co.uk/BusinessDomain#ModelVariable> . 
<http://www.assero.co.uk/MDRSdtmM/CDISC/V3#M-CDISC_SDTMMODEL_xxEVLINT> rdfs:label "Evaluation Interval"^^xsd:string . 
<http://www.assero.co.uk/MDRSdtmM/CDISC/V3#M-CDISC_SDTMMODEL_xxEVLINT> bd:ordinal "31"^^xsd:positiveInteger . 
<http://www.assero.co.uk/MDRSdtmM/CDISC/V3#M-CDISC_SDTMMODEL_xxEVLINT> bd:rule ""^^xsd:string . 
<http://www.assero.co.uk/MDRSdtmM/CDISC/V3#M-CDISC_SDTMMODEL_xxEVLINT> bd:name "--EVLINT"^^xsd:string . 
<http://www.assero.co.uk/MDRSdtmM/CDISC/V3#M-CDISC_SDTMMODEL_xxEVLINT> bd:prefixed "true"^^xsd:boolean . 
<http://www.assero.co.uk/MDRSdtmM/CDISC/V3#M-CDISC_SDTMMODEL_xxEVLINT> bd:description "Duration of interval associated with an observation such as a finding --TESTCD, represented in ISO 8601 character format. Example: -P2M to represent a period of the past 2 months as the evaluation interval for a question from a questionnaire such as SF-36."^^xsd:string . 
<http://www.assero.co.uk/MDRSdtmM/CDISC/V3#M-CDISC_SDTMMODEL_xxEVLINT> bd:typedAs <http://www.assero.co.uk/MDRSdtmM/CDISC/V3#M-CDISC_SDTMMODEL_DT_CHAR> . 
<http://www.assero.co.uk/MDRSdtmM/CDISC/V3#M-CDISC_SDTMMODEL_xxEVLINT> bd:classifiedAs <http://www.assero.co.uk/MDRSdtmM/CDISC/V3#M-CDISC_SDTMMODEL_C_TIMING> . 
<http://www.assero.co.uk/MDRSdtmM/CDISC/V3#M-CDISC_SDTMMODEL> bd:includesVariable <http://www.assero.co.uk/MDRSdtmM/CDISC/V3#M-CDISC_SDTMMODEL_xxEVLINT> . 
<http://www.assero.co.uk/MDRSdtmM/CDISC/V3#M-CDISC_SDTMMODEL_xxEVINTX> rdf:type <http://www.assero.co.uk/BusinessDomain#ModelVariable> . 
<http://www.assero.co.uk/MDRSdtmM/CDISC/V3#M-CDISC_SDTMMODEL_xxEVINTX> rdfs:label "Evaluation Interval Text"^^xsd:string . 
<http://www.assero.co.uk/MDRSdtmM/CDISC/V3#M-CDISC_SDTMMODEL_xxEVINTX> bd:ordinal "32"^^xsd:positiveInteger . 
<http://www.assero.co.uk/MDRSdtmM/CDISC/V3#M-CDISC_SDTMMODEL_xxEVINTX> bd:rule ""^^xsd:string . 
<http://www.assero.co.uk/MDRSdtmM/CDISC/V3#M-CDISC_SDTMMODEL_xxEVINTX> bd:name "--EVINTX"^^xsd:string . 
<http://www.assero.co.uk/MDRSdtmM/CDISC/V3#M-CDISC_SDTMMODEL_xxEVINTX> bd:prefixed "true"^^xsd:boolean . 
<http://www.assero.co.uk/MDRSdtmM/CDISC/V3#M-CDISC_SDTMMODEL_xxEVINTX> bd:description "Evaluation interval associated with an observation, where the interval is not able to be represented in ISO 8601 format. Examples: LIFETIME, LAST NIGHT, RECENTLY, OVER THE LAST FEW WEEKS."^^xsd:string . 
<http://www.assero.co.uk/MDRSdtmM/CDISC/V3#M-CDISC_SDTMMODEL_xxEVINTX> bd:typedAs <http://www.assero.co.uk/MDRSdtmM/CDISC/V3#M-CDISC_SDTMMODEL_DT_CHAR> . 
<http://www.assero.co.uk/MDRSdtmM/CDISC/V3#M-CDISC_SDTMMODEL_xxEVINTX> bd:classifiedAs <http://www.assero.co.uk/MDRSdtmM/CDISC/V3#M-CDISC_SDTMMODEL_C_TIMING> . 
<http://www.assero.co.uk/MDRSdtmM/CDISC/V3#M-CDISC_SDTMMODEL> bd:includesVariable <http://www.assero.co.uk/MDRSdtmM/CDISC/V3#M-CDISC_SDTMMODEL_xxEVINTX> . 
<http://www.assero.co.uk/MDRSdtmM/CDISC/V3#M-CDISC_SDTMMODEL_xxSTRTPT> rdf:type <http://www.assero.co.uk/BusinessDomain#ModelVariable> . 
<http://www.assero.co.uk/MDRSdtmM/CDISC/V3#M-CDISC_SDTMMODEL_xxSTRTPT> rdfs:label "Start Relative to Reference Time Point"^^xsd:string . 
<http://www.assero.co.uk/MDRSdtmM/CDISC/V3#M-CDISC_SDTMMODEL_xxSTRTPT> bd:ordinal "33"^^xsd:positiveInteger . 
<http://www.assero.co.uk/MDRSdtmM/CDISC/V3#M-CDISC_SDTMMODEL_xxSTRTPT> bd:rule ""^^xsd:string . 
<http://www.assero.co.uk/MDRSdtmM/CDISC/V3#M-CDISC_SDTMMODEL_xxSTRTPT> bd:name "--STRTPT"^^xsd:string . 
<http://www.assero.co.uk/MDRSdtmM/CDISC/V3#M-CDISC_SDTMMODEL_xxSTRTPT> bd:prefixed "true"^^xsd:boolean . 
<http://www.assero.co.uk/MDRSdtmM/CDISC/V3#M-CDISC_SDTMMODEL_xxSTRTPT> bd:description "Identifies the start of the observation as being before or after the sponsor-defined reference time point defined by variable --STTPT."^^xsd:string . 
<http://www.assero.co.uk/MDRSdtmM/CDISC/V3#M-CDISC_SDTMMODEL_xxSTRTPT> bd:typedAs <http://www.assero.co.uk/MDRSdtmM/CDISC/V3#M-CDISC_SDTMMODEL_DT_CHAR> . 
<http://www.assero.co.uk/MDRSdtmM/CDISC/V3#M-CDISC_SDTMMODEL_xxSTRTPT> bd:classifiedAs <http://www.assero.co.uk/MDRSdtmM/CDISC/V3#M-CDISC_SDTMMODEL_C_TIMING> . 
<http://www.assero.co.uk/MDRSdtmM/CDISC/V3#M-CDISC_SDTMMODEL> bd:includesVariable <http://www.assero.co.uk/MDRSdtmM/CDISC/V3#M-CDISC_SDTMMODEL_xxSTRTPT> . 
<http://www.assero.co.uk/MDRSdtmM/CDISC/V3#M-CDISC_SDTMMODEL_xxSTTPT> rdf:type <http://www.assero.co.uk/BusinessDomain#ModelVariable> . 
<http://www.assero.co.uk/MDRSdtmM/CDISC/V3#M-CDISC_SDTMMODEL_xxSTTPT> rdfs:label "Start Reference Time Point"^^xsd:string . 
<http://www.assero.co.uk/MDRSdtmM/CDISC/V3#M-CDISC_SDTMMODEL_xxSTTPT> bd:ordinal "34"^^xsd:positiveInteger . 
<http://www.assero.co.uk/MDRSdtmM/CDISC/V3#M-CDISC_SDTMMODEL_xxSTTPT> bd:rule ""^^xsd:string . 
<http://www.assero.co.uk/MDRSdtmM/CDISC/V3#M-CDISC_SDTMMODEL_xxSTTPT> bd:name "--STTPT"^^xsd:string . 
<http://www.assero.co.uk/MDRSdtmM/CDISC/V3#M-CDISC_SDTMMODEL_xxSTTPT> bd:prefixed "true"^^xsd:boolean . 
<http://www.assero.co.uk/MDRSdtmM/CDISC/V3#M-CDISC_SDTMMODEL_xxSTTPT> bd:description "Description or date/time in ISO 8601 or other character format of the sponsor-defined reference point referred to by --STRTPT. Examples: \"2003-12-15\" or \"VISIT 1\"."^^xsd:string . 
<http://www.assero.co.uk/MDRSdtmM/CDISC/V3#M-CDISC_SDTMMODEL_xxSTTPT> bd:typedAs <http://www.assero.co.uk/MDRSdtmM/CDISC/V3#M-CDISC_SDTMMODEL_DT_CHAR> . 
<http://www.assero.co.uk/MDRSdtmM/CDISC/V3#M-CDISC_SDTMMODEL_xxSTTPT> bd:classifiedAs <http://www.assero.co.uk/MDRSdtmM/CDISC/V3#M-CDISC_SDTMMODEL_C_TIMING> . 
<http://www.assero.co.uk/MDRSdtmM/CDISC/V3#M-CDISC_SDTMMODEL> bd:includesVariable <http://www.assero.co.uk/MDRSdtmM/CDISC/V3#M-CDISC_SDTMMODEL_xxSTTPT> . 
<http://www.assero.co.uk/MDRSdtmM/CDISC/V3#M-CDISC_SDTMMODEL_xxENRTPT> rdf:type <http://www.assero.co.uk/BusinessDomain#ModelVariable> . 
<http://www.assero.co.uk/MDRSdtmM/CDISC/V3#M-CDISC_SDTMMODEL_xxENRTPT> rdfs:label "End Relative to Reference Time Point"^^xsd:string . 
<http://www.assero.co.uk/MDRSdtmM/CDISC/V3#M-CDISC_SDTMMODEL_xxENRTPT> bd:ordinal "35"^^xsd:positiveInteger . 
<http://www.assero.co.uk/MDRSdtmM/CDISC/V3#M-CDISC_SDTMMODEL_xxENRTPT> bd:rule ""^^xsd:string . 
<http://www.assero.co.uk/MDRSdtmM/CDISC/V3#M-CDISC_SDTMMODEL_xxENRTPT> bd:name "--ENRTPT"^^xsd:string . 
<http://www.assero.co.uk/MDRSdtmM/CDISC/V3#M-CDISC_SDTMMODEL_xxENRTPT> bd:prefixed "true"^^xsd:boolean . 
<http://www.assero.co.uk/MDRSdtmM/CDISC/V3#M-CDISC_SDTMMODEL_xxENRTPT> bd:description "Identifies the end of the observation as being before or after the sponsor-defined reference time point defined by variable --ENTPT."^^xsd:string . 
<http://www.assero.co.uk/MDRSdtmM/CDISC/V3#M-CDISC_SDTMMODEL_xxENRTPT> bd:typedAs <http://www.assero.co.uk/MDRSdtmM/CDISC/V3#M-CDISC_SDTMMODEL_DT_CHAR> . 
<http://www.assero.co.uk/MDRSdtmM/CDISC/V3#M-CDISC_SDTMMODEL_xxENRTPT> bd:classifiedAs <http://www.assero.co.uk/MDRSdtmM/CDISC/V3#M-CDISC_SDTMMODEL_C_TIMING> . 
<http://www.assero.co.uk/MDRSdtmM/CDISC/V3#M-CDISC_SDTMMODEL> bd:includesVariable <http://www.assero.co.uk/MDRSdtmM/CDISC/V3#M-CDISC_SDTMMODEL_xxENRTPT> . 
<http://www.assero.co.uk/MDRSdtmM/CDISC/V3#M-CDISC_SDTMMODEL_xxENTPT> rdf:type <http://www.assero.co.uk/BusinessDomain#ModelVariable> . 
<http://www.assero.co.uk/MDRSdtmM/CDISC/V3#M-CDISC_SDTMMODEL_xxENTPT> rdfs:label "End Reference Time Point"^^xsd:string . 
<http://www.assero.co.uk/MDRSdtmM/CDISC/V3#M-CDISC_SDTMMODEL_xxENTPT> bd:ordinal "36"^^xsd:positiveInteger . 
<http://www.assero.co.uk/MDRSdtmM/CDISC/V3#M-CDISC_SDTMMODEL_xxENTPT> bd:rule ""^^xsd:string . 
<http://www.assero.co.uk/MDRSdtmM/CDISC/V3#M-CDISC_SDTMMODEL_xxENTPT> bd:name "--ENTPT"^^xsd:string . 
<http://www.assero.co.uk/MDRSdtmM/CDISC/V3#M-CDISC_SDTMMODEL_xxENTPT> bd:prefixed "true"^^xsd:boolean . 
<http://www.assero.co.uk/MDRSdtmM/CDISC/V3#M-CDISC_SDTMMODEL_xxENTPT> bd:description "Description or date/time in ISO 8601 or other character format of the sponsor-defined reference point referred to by --ENRTPT. Examples: \"2003-12-25\" or \"VISIT 2\"."^^xsd:string . 
<http://www.assero.co.uk/MDRSdtmM/CDISC/V3#M-CDISC_SDTMMODEL_xxENTPT> bd:typedAs <http://www.assero.co.uk/MDRSdtmM/CDISC/V3#M-CDISC_SDTMMODEL_DT_CHAR> . 
<http://www.assero.co.uk/MDRSdtmM/CDISC/V3#M-CDISC_SDTMMODEL_xxENTPT> bd:classifiedAs <http://www.assero.co.uk/MDRSdtmM/CDISC/V3#M-CDISC_SDTMMODEL_C_TIMING> . 
<http://www.assero.co.uk/MDRSdtmM/CDISC/V3#M-CDISC_SDTMMODEL> bd:includesVariable <http://www.assero.co.uk/MDRSdtmM/CDISC/V3#M-CDISC_SDTMMODEL_xxENTPT> . 
<http://www.assero.co.uk/MDRSdtmM/CDISC/V3#M-CDISC_SDTMMODEL_xxSTINT> rdf:type <http://www.assero.co.uk/BusinessDomain#ModelVariable> . 
<http://www.assero.co.uk/MDRSdtmM/CDISC/V3#M-CDISC_SDTMMODEL_xxSTINT> rdfs:label "Planned Start of Assessment Interval"^^xsd:string . 
<http://www.assero.co.uk/MDRSdtmM/CDISC/V3#M-CDISC_SDTMMODEL_xxSTINT> bd:ordinal "37"^^xsd:positiveInteger . 
<http://www.assero.co.uk/MDRSdtmM/CDISC/V3#M-CDISC_SDTMMODEL_xxSTINT> bd:rule ""^^xsd:string . 
<http://www.assero.co.uk/MDRSdtmM/CDISC/V3#M-CDISC_SDTMMODEL_xxSTINT> bd:name "--STINT"^^xsd:string . 
<http://www.assero.co.uk/MDRSdtmM/CDISC/V3#M-CDISC_SDTMMODEL_xxSTINT> bd:prefixed "true"^^xsd:boolean . 
<http://www.assero.co.uk/MDRSdtmM/CDISC/V3#M-CDISC_SDTMMODEL_xxSTINT> bd:description "The start of a planned evaluation or assessment interval in ISO 8601 character format relative to the Time Point Reference (--TPTREF)."^^xsd:string . 
<http://www.assero.co.uk/MDRSdtmM/CDISC/V3#M-CDISC_SDTMMODEL_xxSTINT> bd:typedAs <http://www.assero.co.uk/MDRSdtmM/CDISC/V3#M-CDISC_SDTMMODEL_DT_CHAR> . 
<http://www.assero.co.uk/MDRSdtmM/CDISC/V3#M-CDISC_SDTMMODEL_xxSTINT> bd:classifiedAs <http://www.assero.co.uk/MDRSdtmM/CDISC/V3#M-CDISC_SDTMMODEL_C_TIMING> . 
<http://www.assero.co.uk/MDRSdtmM/CDISC/V3#M-CDISC_SDTMMODEL> bd:includesVariable <http://www.assero.co.uk/MDRSdtmM/CDISC/V3#M-CDISC_SDTMMODEL_xxSTINT> . 
<http://www.assero.co.uk/MDRSdtmM/CDISC/V3#M-CDISC_SDTMMODEL_xxENINT> rdf:type <http://www.assero.co.uk/BusinessDomain#ModelVariable> . 
<http://www.assero.co.uk/MDRSdtmM/CDISC/V3#M-CDISC_SDTMMODEL_xxENINT> rdfs:label "Planned End of Assessment Interval"^^xsd:string . 
<http://www.assero.co.uk/MDRSdtmM/CDISC/V3#M-CDISC_SDTMMODEL_xxENINT> bd:ordinal "38"^^xsd:positiveInteger . 
<http://www.assero.co.uk/MDRSdtmM/CDISC/V3#M-CDISC_SDTMMODEL_xxENINT> bd:rule ""^^xsd:string . 
<http://www.assero.co.uk/MDRSdtmM/CDISC/V3#M-CDISC_SDTMMODEL_xxENINT> bd:name "--ENINT"^^xsd:string . 
<http://www.assero.co.uk/MDRSdtmM/CDISC/V3#M-CDISC_SDTMMODEL_xxENINT> bd:prefixed "true"^^xsd:boolean . 
<http://www.assero.co.uk/MDRSdtmM/CDISC/V3#M-CDISC_SDTMMODEL_xxENINT> bd:description "The end of a planned evaluation or assessment interval in ISO 8601 character format relative to the Time Point Reference (--TPTREF)."^^xsd:string . 
<http://www.assero.co.uk/MDRSdtmM/CDISC/V3#M-CDISC_SDTMMODEL_xxENINT> bd:typedAs <http://www.assero.co.uk/MDRSdtmM/CDISC/V3#M-CDISC_SDTMMODEL_DT_CHAR> . 
<http://www.assero.co.uk/MDRSdtmM/CDISC/V3#M-CDISC_SDTMMODEL_xxENINT> bd:classifiedAs <http://www.assero.co.uk/MDRSdtmM/CDISC/V3#M-CDISC_SDTMMODEL_C_TIMING> . 
<http://www.assero.co.uk/MDRSdtmM/CDISC/V3#M-CDISC_SDTMMODEL> bd:includesVariable <http://www.assero.co.uk/MDRSdtmM/CDISC/V3#M-CDISC_SDTMMODEL_xxENINT> . 
<http://www.assero.co.uk/MDRSdtmM/CDISC/V3#M-CDISC_SDTMMODEL_xxDETECT> rdf:type <http://www.assero.co.uk/BusinessDomain#ModelVariable> . 
<http://www.assero.co.uk/MDRSdtmM/CDISC/V3#M-CDISC_SDTMMODEL_xxDETECT> rdfs:label "Time in Days to Detection"^^xsd:string . 
<http://www.assero.co.uk/MDRSdtmM/CDISC/V3#M-CDISC_SDTMMODEL_xxDETECT> bd:ordinal "39"^^xsd:positiveInteger . 
<http://www.assero.co.uk/MDRSdtmM/CDISC/V3#M-CDISC_SDTMMODEL_xxDETECT> bd:rule ""^^xsd:string . 
<http://www.assero.co.uk/MDRSdtmM/CDISC/V3#M-CDISC_SDTMMODEL_xxDETECT> bd:name "--DETECT"^^xsd:string . 
<http://www.assero.co.uk/MDRSdtmM/CDISC/V3#M-CDISC_SDTMMODEL_xxDETECT> bd:prefixed "true"^^xsd:boolean . 
<http://www.assero.co.uk/MDRSdtmM/CDISC/V3#M-CDISC_SDTMMODEL_xxDETECT> bd:description "The number of days from the start of dosing to the earliest detection of a condition or pathogen."^^xsd:string . 
<http://www.assero.co.uk/MDRSdtmM/CDISC/V3#M-CDISC_SDTMMODEL_xxDETECT> bd:typedAs <http://www.assero.co.uk/MDRSdtmM/CDISC/V3#M-CDISC_SDTMMODEL_DT_NUM> . 
<http://www.assero.co.uk/MDRSdtmM/CDISC/V3#M-CDISC_SDTMMODEL_xxDETECT> bd:classifiedAs <http://www.assero.co.uk/MDRSdtmM/CDISC/V3#M-CDISC_SDTMMODEL_C_TIMING> . 
<http://www.assero.co.uk/MDRSdtmM/CDISC/V3#M-CDISC_SDTMMODEL> bd:includesVariable <http://www.assero.co.uk/MDRSdtmM/CDISC/V3#M-CDISC_SDTMMODEL_xxDETECT> . 
<http://www.assero.co.uk/MDRSdtmM/CDISC/V3#M-CDISC_SDTMMODEL_APID> rdf:type <http://www.assero.co.uk/BusinessDomain#ModelVariable> . 
<http://www.assero.co.uk/MDRSdtmM/CDISC/V3#M-CDISC_SDTMMODEL_APID> rdfs:label "Associated Persons Identifier"^^xsd:string . 
<http://www.assero.co.uk/MDRSdtmM/CDISC/V3#M-CDISC_SDTMMODEL_APID> bd:ordinal "1"^^xsd:positiveInteger . 
<http://www.assero.co.uk/MDRSdtmM/CDISC/V3#M-CDISC_SDTMMODEL_APID> bd:rule ""^^xsd:string . 
<http://www.assero.co.uk/MDRSdtmM/CDISC/V3#M-CDISC_SDTMMODEL_APID> bd:name "APID"^^xsd:string . 
<http://www.assero.co.uk/MDRSdtmM/CDISC/V3#M-CDISC_SDTMMODEL_APID> bd:prefixed "false"^^xsd:boolean . 
<http://www.assero.co.uk/MDRSdtmM/CDISC/V3#M-CDISC_SDTMMODEL_APID> bd:description "Identifier for a single associated person, a group of associated persons, or a pool of associated persons. If APID identifies a pool, POOLDEF records must exist for each associated person."^^xsd:string . 
<http://www.assero.co.uk/MDRSdtmM/CDISC/V3#M-CDISC_SDTMMODEL_APID> bd:typedAs <http://www.assero.co.uk/MDRSdtmM/CDISC/V3#M-CDISC_SDTMMODEL_DT_CHAR> . 
<http://www.assero.co.uk/MDRSdtmM/CDISC/V3#M-CDISC_SDTMMODEL_APID> bd:classifiedAs <http://www.assero.co.uk/MDRSdtmM/CDISC/V3#M-CDISC_SDTMMODEL_C_IDENTIFIER> . 
<http://www.assero.co.uk/MDRSdtmM/CDISC/V3#M-CDISC_SDTMMODEL> bd:includesVariable <http://www.assero.co.uk/MDRSdtmM/CDISC/V3#M-CDISC_SDTMMODEL_APID> . 
<http://www.assero.co.uk/MDRSdtmM/CDISC/V3#M-CDISC_SDTMMODEL_RSUBJID> rdf:type <http://www.assero.co.uk/BusinessDomain#ModelVariable> . 
<http://www.assero.co.uk/MDRSdtmM/CDISC/V3#M-CDISC_SDTMMODEL_RSUBJID> rdfs:label "Related Subject"^^xsd:string . 
<http://www.assero.co.uk/MDRSdtmM/CDISC/V3#M-CDISC_SDTMMODEL_RSUBJID> bd:ordinal "2"^^xsd:positiveInteger . 
<http://www.assero.co.uk/MDRSdtmM/CDISC/V3#M-CDISC_SDTMMODEL_RSUBJID> bd:rule ""^^xsd:string . 
<http://www.assero.co.uk/MDRSdtmM/CDISC/V3#M-CDISC_SDTMMODEL_RSUBJID> bd:name "RSUBJID"^^xsd:string . 
<http://www.assero.co.uk/MDRSdtmM/CDISC/V3#M-CDISC_SDTMMODEL_RSUBJID> bd:prefixed "false"^^xsd:boolean . 
<http://www.assero.co.uk/MDRSdtmM/CDISC/V3#M-CDISC_SDTMMODEL_RSUBJID> bd:description "Identifier for a related study subject or pool of study subjects. The subject(s) may be human or animal. RSUBJID will be populated with the USUBJID of the related subject or the POOLID of the related pool.\nRSUBJID will be null for data about associated persons who are related to the study but not to any of the study subjects."^^xsd:string . 
<http://www.assero.co.uk/MDRSdtmM/CDISC/V3#M-CDISC_SDTMMODEL_RSUBJID> bd:typedAs <http://www.assero.co.uk/MDRSdtmM/CDISC/V3#M-CDISC_SDTMMODEL_DT_CHAR> . 
<http://www.assero.co.uk/MDRSdtmM/CDISC/V3#M-CDISC_SDTMMODEL_RSUBJID> bd:classifiedAs <http://www.assero.co.uk/MDRSdtmM/CDISC/V3#M-CDISC_SDTMMODEL_C_IDENTIFIER> . 
<http://www.assero.co.uk/MDRSdtmM/CDISC/V3#M-CDISC_SDTMMODEL> bd:includesVariable <http://www.assero.co.uk/MDRSdtmM/CDISC/V3#M-CDISC_SDTMMODEL_RSUBJID> . 
<http://www.assero.co.uk/MDRSdtmM/CDISC/V3#M-CDISC_SDTMMODEL_RDEVID> rdf:type <http://www.assero.co.uk/BusinessDomain#ModelVariable> . 
<http://www.assero.co.uk/MDRSdtmM/CDISC/V3#M-CDISC_SDTMMODEL_RDEVID> rdfs:label "Related Device"^^xsd:string . 
<http://www.assero.co.uk/MDRSdtmM/CDISC/V3#M-CDISC_SDTMMODEL_RDEVID> bd:ordinal "3"^^xsd:positiveInteger . 
<http://www.assero.co.uk/MDRSdtmM/CDISC/V3#M-CDISC_SDTMMODEL_RDEVID> bd:rule ""^^xsd:string . 
<http://www.assero.co.uk/MDRSdtmM/CDISC/V3#M-CDISC_SDTMMODEL_RDEVID> bd:name "RDEVID"^^xsd:string . 
<http://www.assero.co.uk/MDRSdtmM/CDISC/V3#M-CDISC_SDTMMODEL_RDEVID> bd:prefixed "false"^^xsd:boolean . 
<http://www.assero.co.uk/MDRSdtmM/CDISC/V3#M-CDISC_SDTMMODEL_RDEVID> bd:description "Identifier for a related device. RDEVID will be populated with the SPDEVID of the related device"^^xsd:string . 
<http://www.assero.co.uk/MDRSdtmM/CDISC/V3#M-CDISC_SDTMMODEL_RDEVID> bd:typedAs <http://www.assero.co.uk/MDRSdtmM/CDISC/V3#M-CDISC_SDTMMODEL_DT_CHAR> . 
<http://www.assero.co.uk/MDRSdtmM/CDISC/V3#M-CDISC_SDTMMODEL_RDEVID> bd:classifiedAs <http://www.assero.co.uk/MDRSdtmM/CDISC/V3#M-CDISC_SDTMMODEL_C_IDENTIFIER> . 
<http://www.assero.co.uk/MDRSdtmM/CDISC/V3#M-CDISC_SDTMMODEL> bd:includesVariable <http://www.assero.co.uk/MDRSdtmM/CDISC/V3#M-CDISC_SDTMMODEL_RDEVID> . 
<http://www.assero.co.uk/MDRSdtmM/CDISC/V3#M-CDISC_SDTMMODEL_SREL> rdf:type <http://www.assero.co.uk/BusinessDomain#ModelVariable> . 
<http://www.assero.co.uk/MDRSdtmM/CDISC/V3#M-CDISC_SDTMMODEL_SREL> rdfs:label "Subject, Device, or Study Relationship"^^xsd:string . 
<http://www.assero.co.uk/MDRSdtmM/CDISC/V3#M-CDISC_SDTMMODEL_SREL> bd:ordinal "4"^^xsd:positiveInteger . 
<http://www.assero.co.uk/MDRSdtmM/CDISC/V3#M-CDISC_SDTMMODEL_SREL> bd:rule ""^^xsd:string . 
<http://www.assero.co.uk/MDRSdtmM/CDISC/V3#M-CDISC_SDTMMODEL_SREL> bd:name "SREL"^^xsd:string . 
<http://www.assero.co.uk/MDRSdtmM/CDISC/V3#M-CDISC_SDTMMODEL_SREL> bd:prefixed "false"^^xsd:boolean . 
<http://www.assero.co.uk/MDRSdtmM/CDISC/V3#M-CDISC_SDTMMODEL_SREL> bd:description "If RSUBJID is populated, describes the relationship of the associated person(s) identified in APID to the subject or pool identified in RSUBJID.\nIf RDEVID is populated, describes the relationship of the associated person(s) identified in APID to the device identified in RDEVID. \nIf RSUBJID and RDEVID are null, SREL describes the relationship of the associated person(s) identified in APID to the study identified in STUDYID."^^xsd:string . 
<http://www.assero.co.uk/MDRSdtmM/CDISC/V3#M-CDISC_SDTMMODEL_SREL> bd:typedAs <http://www.assero.co.uk/MDRSdtmM/CDISC/V3#M-CDISC_SDTMMODEL_DT_CHAR> . 
<http://www.assero.co.uk/MDRSdtmM/CDISC/V3#M-CDISC_SDTMMODEL_SREL> bd:classifiedAs <http://www.assero.co.uk/MDRSdtmM/CDISC/V3#M-CDISC_SDTMMODEL_C_QUALIFIER_SC_RECORDQUALIFIER> . 
<http://www.assero.co.uk/MDRSdtmM/CDISC/V3#M-CDISC_SDTMMODEL> bd:includesVariable <http://www.assero.co.uk/MDRSdtmM/CDISC/V3#M-CDISC_SDTMMODEL_SREL> . 
<http://www.assero.co.uk/MDRSdtmM/CDISC/V3#M-CDISC_SDTMMODEL_xxTERM> rdf:type <http://www.assero.co.uk/BusinessDomain#ModelVariable> . 
<http://www.assero.co.uk/MDRSdtmM/CDISC/V3#M-CDISC_SDTMMODEL_xxTERM> rdfs:label "Reported Term"^^xsd:string . 
<http://www.assero.co.uk/MDRSdtmM/CDISC/V3#M-CDISC_SDTMMODEL_xxTERM> bd:ordinal "1"^^xsd:positiveInteger . 
<http://www.assero.co.uk/MDRSdtmM/CDISC/V3#M-CDISC_SDTMMODEL_xxTERM> bd:rule ""^^xsd:string . 
<http://www.assero.co.uk/MDRSdtmM/CDISC/V3#M-CDISC_SDTMMODEL_xxTERM> bd:name "--TERM"^^xsd:string . 
<http://www.assero.co.uk/MDRSdtmM/CDISC/V3#M-CDISC_SDTMMODEL_xxTERM> bd:prefixed "true"^^xsd:boolean . 
<http://www.assero.co.uk/MDRSdtmM/CDISC/V3#M-CDISC_SDTMMODEL_xxTERM> bd:description "Topic variable for an event observation, which is the verbatim or pre-specified name of the event."^^xsd:string . 
<http://www.assero.co.uk/MDRSdtmM/CDISC/V3#M-CDISC_SDTMMODEL_xxTERM> bd:typedAs <http://www.assero.co.uk/MDRSdtmM/CDISC/V3#M-CDISC_SDTMMODEL_DT_CHAR> . 
<http://www.assero.co.uk/MDRSdtmM/CDISC/V3#M-CDISC_SDTMMODEL_xxTERM> bd:classifiedAs <http://www.assero.co.uk/MDRSdtmM/CDISC/V3#M-CDISC_SDTMMODEL_C_TOPIC> . 
<http://www.assero.co.uk/MDRSdtmM/CDISC/V3#M-CDISC_SDTMMODEL> bd:includesVariable <http://www.assero.co.uk/MDRSdtmM/CDISC/V3#M-CDISC_SDTMMODEL_xxTERM> . 
<http://www.assero.co.uk/MDRSdtmM/CDISC/V3#M-CDISC_SDTMMODEL_xxMODIFY> rdf:type <http://www.assero.co.uk/BusinessDomain#ModelVariable> . 
<http://www.assero.co.uk/MDRSdtmM/CDISC/V3#M-CDISC_SDTMMODEL_xxMODIFY> rdfs:label "Modified Reported Term"^^xsd:string . 
<http://www.assero.co.uk/MDRSdtmM/CDISC/V3#M-CDISC_SDTMMODEL_xxMODIFY> bd:ordinal "2"^^xsd:positiveInteger . 
<http://www.assero.co.uk/MDRSdtmM/CDISC/V3#M-CDISC_SDTMMODEL_xxMODIFY> bd:rule ""^^xsd:string . 
<http://www.assero.co.uk/MDRSdtmM/CDISC/V3#M-CDISC_SDTMMODEL_xxMODIFY> bd:name "--MODIFY"^^xsd:string . 
<http://www.assero.co.uk/MDRSdtmM/CDISC/V3#M-CDISC_SDTMMODEL_xxMODIFY> bd:prefixed "true"^^xsd:boolean . 
<http://www.assero.co.uk/MDRSdtmM/CDISC/V3#M-CDISC_SDTMMODEL_xxMODIFY> bd:description "If the value for --TERM is modified for coding purposes, then the modified text is placed here."^^xsd:string . 
<http://www.assero.co.uk/MDRSdtmM/CDISC/V3#M-CDISC_SDTMMODEL_xxMODIFY> bd:typedAs <http://www.assero.co.uk/MDRSdtmM/CDISC/V3#M-CDISC_SDTMMODEL_DT_CHAR> . 
<http://www.assero.co.uk/MDRSdtmM/CDISC/V3#M-CDISC_SDTMMODEL_xxMODIFY> bd:classifiedAs <http://www.assero.co.uk/MDRSdtmM/CDISC/V3#M-CDISC_SDTMMODEL_C_QUALIFIER_SC_SYNONYMQUALIFIER> . 
<http://www.assero.co.uk/MDRSdtmM/CDISC/V3#M-CDISC_SDTMMODEL> bd:includesVariable <http://www.assero.co.uk/MDRSdtmM/CDISC/V3#M-CDISC_SDTMMODEL_xxMODIFY> . 
<http://www.assero.co.uk/MDRSdtmM/CDISC/V3#M-CDISC_SDTMMODEL_xxLLT> rdf:type <http://www.assero.co.uk/BusinessDomain#ModelVariable> . 
<http://www.assero.co.uk/MDRSdtmM/CDISC/V3#M-CDISC_SDTMMODEL_xxLLT> rdfs:label "Lowest Level Term"^^xsd:string . 
<http://www.assero.co.uk/MDRSdtmM/CDISC/V3#M-CDISC_SDTMMODEL_xxLLT> bd:ordinal "3"^^xsd:positiveInteger . 
<http://www.assero.co.uk/MDRSdtmM/CDISC/V3#M-CDISC_SDTMMODEL_xxLLT> bd:rule ""^^xsd:string . 
<http://www.assero.co.uk/MDRSdtmM/CDISC/V3#M-CDISC_SDTMMODEL_xxLLT> bd:name "--LLT"^^xsd:string . 
<http://www.assero.co.uk/MDRSdtmM/CDISC/V3#M-CDISC_SDTMMODEL_xxLLT> bd:prefixed "true"^^xsd:boolean . 
<http://www.assero.co.uk/MDRSdtmM/CDISC/V3#M-CDISC_SDTMMODEL_xxLLT> bd:description "MedDRA Lowest Level Term."^^xsd:string . 
<http://www.assero.co.uk/MDRSdtmM/CDISC/V3#M-CDISC_SDTMMODEL_xxLLT> bd:typedAs <http://www.assero.co.uk/MDRSdtmM/CDISC/V3#M-CDISC_SDTMMODEL_DT_CHAR> . 
<http://www.assero.co.uk/MDRSdtmM/CDISC/V3#M-CDISC_SDTMMODEL_xxLLT> bd:classifiedAs <http://www.assero.co.uk/MDRSdtmM/CDISC/V3#M-CDISC_SDTMMODEL_C_QUALIFIER_SC_VARIABLEQUALIFIER> . 
<http://www.assero.co.uk/MDRSdtmM/CDISC/V3#M-CDISC_SDTMMODEL> bd:includesVariable <http://www.assero.co.uk/MDRSdtmM/CDISC/V3#M-CDISC_SDTMMODEL_xxLLT> . 
<http://www.assero.co.uk/MDRSdtmM/CDISC/V3#M-CDISC_SDTMMODEL_xxLLTCD> rdf:type <http://www.assero.co.uk/BusinessDomain#ModelVariable> . 
<http://www.assero.co.uk/MDRSdtmM/CDISC/V3#M-CDISC_SDTMMODEL_xxLLTCD> rdfs:label "Lowest Level Term Code"^^xsd:string . 
<http://www.assero.co.uk/MDRSdtmM/CDISC/V3#M-CDISC_SDTMMODEL_xxLLTCD> bd:ordinal "4"^^xsd:positiveInteger . 
<http://www.assero.co.uk/MDRSdtmM/CDISC/V3#M-CDISC_SDTMMODEL_xxLLTCD> bd:rule ""^^xsd:string . 
<http://www.assero.co.uk/MDRSdtmM/CDISC/V3#M-CDISC_SDTMMODEL_xxLLTCD> bd:name "--LLTCD"^^xsd:string . 
<http://www.assero.co.uk/MDRSdtmM/CDISC/V3#M-CDISC_SDTMMODEL_xxLLTCD> bd:prefixed "true"^^xsd:boolean . 
<http://www.assero.co.uk/MDRSdtmM/CDISC/V3#M-CDISC_SDTMMODEL_xxLLTCD> bd:description "MedDRA Lowest Level Term code."^^xsd:string . 
<http://www.assero.co.uk/MDRSdtmM/CDISC/V3#M-CDISC_SDTMMODEL_xxLLTCD> bd:typedAs <http://www.assero.co.uk/MDRSdtmM/CDISC/V3#M-CDISC_SDTMMODEL_DT_NUM> . 
<http://www.assero.co.uk/MDRSdtmM/CDISC/V3#M-CDISC_SDTMMODEL_xxLLTCD> bd:classifiedAs <http://www.assero.co.uk/MDRSdtmM/CDISC/V3#M-CDISC_SDTMMODEL_C_QUALIFIER_SC_VARIABLEQUALIFIER> . 
<http://www.assero.co.uk/MDRSdtmM/CDISC/V3#M-CDISC_SDTMMODEL> bd:includesVariable <http://www.assero.co.uk/MDRSdtmM/CDISC/V3#M-CDISC_SDTMMODEL_xxLLTCD> . 
<http://www.assero.co.uk/MDRSdtmM/CDISC/V3#M-CDISC_SDTMMODEL_xxDECOD> rdf:type <http://www.assero.co.uk/BusinessDomain#ModelVariable> . 
<http://www.assero.co.uk/MDRSdtmM/CDISC/V3#M-CDISC_SDTMMODEL_xxDECOD> rdfs:label "Dictionary-Derived Term"^^xsd:string . 
<http://www.assero.co.uk/MDRSdtmM/CDISC/V3#M-CDISC_SDTMMODEL_xxDECOD> bd:ordinal "5"^^xsd:positiveInteger . 
<http://www.assero.co.uk/MDRSdtmM/CDISC/V3#M-CDISC_SDTMMODEL_xxDECOD> bd:rule ""^^xsd:string . 
<http://www.assero.co.uk/MDRSdtmM/CDISC/V3#M-CDISC_SDTMMODEL_xxDECOD> bd:name "--DECOD"^^xsd:string . 
<http://www.assero.co.uk/MDRSdtmM/CDISC/V3#M-CDISC_SDTMMODEL_xxDECOD> bd:prefixed "true"^^xsd:boolean . 
<http://www.assero.co.uk/MDRSdtmM/CDISC/V3#M-CDISC_SDTMMODEL_xxDECOD> bd:description "Dictionary or sponsor-defined derived text description of the topic variable, --TERM, or the modified topic variable (--MODIFY), if applicable. Equivalent to the Preferred Term (PT in MedDRA)."^^xsd:string . 
<http://www.assero.co.uk/MDRSdtmM/CDISC/V3#M-CDISC_SDTMMODEL_xxDECOD> bd:typedAs <http://www.assero.co.uk/MDRSdtmM/CDISC/V3#M-CDISC_SDTMMODEL_DT_CHAR> . 
<http://www.assero.co.uk/MDRSdtmM/CDISC/V3#M-CDISC_SDTMMODEL_xxDECOD> bd:classifiedAs <http://www.assero.co.uk/MDRSdtmM/CDISC/V3#M-CDISC_SDTMMODEL_C_QUALIFIER_SC_SYNONYMQUALIFIER> . 
<http://www.assero.co.uk/MDRSdtmM/CDISC/V3#M-CDISC_SDTMMODEL> bd:includesVariable <http://www.assero.co.uk/MDRSdtmM/CDISC/V3#M-CDISC_SDTMMODEL_xxDECOD> . 
<http://www.assero.co.uk/MDRSdtmM/CDISC/V3#M-CDISC_SDTMMODEL_xxPTCD> rdf:type <http://www.assero.co.uk/BusinessDomain#ModelVariable> . 
<http://www.assero.co.uk/MDRSdtmM/CDISC/V3#M-CDISC_SDTMMODEL_xxPTCD> rdfs:label "Preferred Term Code"^^xsd:string . 
<http://www.assero.co.uk/MDRSdtmM/CDISC/V3#M-CDISC_SDTMMODEL_xxPTCD> bd:ordinal "6"^^xsd:positiveInteger . 
<http://www.assero.co.uk/MDRSdtmM/CDISC/V3#M-CDISC_SDTMMODEL_xxPTCD> bd:rule ""^^xsd:string . 
<http://www.assero.co.uk/MDRSdtmM/CDISC/V3#M-CDISC_SDTMMODEL_xxPTCD> bd:name "--PTCD"^^xsd:string . 
<http://www.assero.co.uk/MDRSdtmM/CDISC/V3#M-CDISC_SDTMMODEL_xxPTCD> bd:prefixed "true"^^xsd:boolean . 
<http://www.assero.co.uk/MDRSdtmM/CDISC/V3#M-CDISC_SDTMMODEL_xxPTCD> bd:description "MedDRA Preferred Term code."^^xsd:string . 
<http://www.assero.co.uk/MDRSdtmM/CDISC/V3#M-CDISC_SDTMMODEL_xxPTCD> bd:typedAs <http://www.assero.co.uk/MDRSdtmM/CDISC/V3#M-CDISC_SDTMMODEL_DT_NUM> . 
<http://www.assero.co.uk/MDRSdtmM/CDISC/V3#M-CDISC_SDTMMODEL_xxPTCD> bd:classifiedAs <http://www.assero.co.uk/MDRSdtmM/CDISC/V3#M-CDISC_SDTMMODEL_C_QUALIFIER_SC_VARIABLEQUALIFIER> . 
<http://www.assero.co.uk/MDRSdtmM/CDISC/V3#M-CDISC_SDTMMODEL> bd:includesVariable <http://www.assero.co.uk/MDRSdtmM/CDISC/V3#M-CDISC_SDTMMODEL_xxPTCD> . 
<http://www.assero.co.uk/MDRSdtmM/CDISC/V3#M-CDISC_SDTMMODEL_xxHLT> rdf:type <http://www.assero.co.uk/BusinessDomain#ModelVariable> . 
<http://www.assero.co.uk/MDRSdtmM/CDISC/V3#M-CDISC_SDTMMODEL_xxHLT> rdfs:label "High Level Term"^^xsd:string . 
<http://www.assero.co.uk/MDRSdtmM/CDISC/V3#M-CDISC_SDTMMODEL_xxHLT> bd:ordinal "7"^^xsd:positiveInteger . 
<http://www.assero.co.uk/MDRSdtmM/CDISC/V3#M-CDISC_SDTMMODEL_xxHLT> bd:rule ""^^xsd:string . 
<http://www.assero.co.uk/MDRSdtmM/CDISC/V3#M-CDISC_SDTMMODEL_xxHLT> bd:name "--HLT"^^xsd:string . 
<http://www.assero.co.uk/MDRSdtmM/CDISC/V3#M-CDISC_SDTMMODEL_xxHLT> bd:prefixed "true"^^xsd:boolean . 
<http://www.assero.co.uk/MDRSdtmM/CDISC/V3#M-CDISC_SDTMMODEL_xxHLT> bd:description "MedDRA High Level Term from the primary path."^^xsd:string . 
<http://www.assero.co.uk/MDRSdtmM/CDISC/V3#M-CDISC_SDTMMODEL_xxHLT> bd:typedAs <http://www.assero.co.uk/MDRSdtmM/CDISC/V3#M-CDISC_SDTMMODEL_DT_CHAR> . 
<http://www.assero.co.uk/MDRSdtmM/CDISC/V3#M-CDISC_SDTMMODEL_xxHLT> bd:classifiedAs <http://www.assero.co.uk/MDRSdtmM/CDISC/V3#M-CDISC_SDTMMODEL_C_QUALIFIER_SC_VARIABLEQUALIFIER> . 
<http://www.assero.co.uk/MDRSdtmM/CDISC/V3#M-CDISC_SDTMMODEL> bd:includesVariable <http://www.assero.co.uk/MDRSdtmM/CDISC/V3#M-CDISC_SDTMMODEL_xxHLT> . 
<http://www.assero.co.uk/MDRSdtmM/CDISC/V3#M-CDISC_SDTMMODEL_xxHLTCD> rdf:type <http://www.assero.co.uk/BusinessDomain#ModelVariable> . 
<http://www.assero.co.uk/MDRSdtmM/CDISC/V3#M-CDISC_SDTMMODEL_xxHLTCD> rdfs:label "High Level Term Code"^^xsd:string . 
<http://www.assero.co.uk/MDRSdtmM/CDISC/V3#M-CDISC_SDTMMODEL_xxHLTCD> bd:ordinal "8"^^xsd:positiveInteger . 
<http://www.assero.co.uk/MDRSdtmM/CDISC/V3#M-CDISC_SDTMMODEL_xxHLTCD> bd:rule ""^^xsd:string . 
<http://www.assero.co.uk/MDRSdtmM/CDISC/V3#M-CDISC_SDTMMODEL_xxHLTCD> bd:name "--HLTCD"^^xsd:string . 
<http://www.assero.co.uk/MDRSdtmM/CDISC/V3#M-CDISC_SDTMMODEL_xxHLTCD> bd:prefixed "true"^^xsd:boolean . 
<http://www.assero.co.uk/MDRSdtmM/CDISC/V3#M-CDISC_SDTMMODEL_xxHLTCD> bd:description "MedDRA High Level Term code from the primary path."^^xsd:string . 
<http://www.assero.co.uk/MDRSdtmM/CDISC/V3#M-CDISC_SDTMMODEL_xxHLTCD> bd:typedAs <http://www.assero.co.uk/MDRSdtmM/CDISC/V3#M-CDISC_SDTMMODEL_DT_NUM> . 
<http://www.assero.co.uk/MDRSdtmM/CDISC/V3#M-CDISC_SDTMMODEL_xxHLTCD> bd:classifiedAs <http://www.assero.co.uk/MDRSdtmM/CDISC/V3#M-CDISC_SDTMMODEL_C_QUALIFIER_SC_VARIABLEQUALIFIER> . 
<http://www.assero.co.uk/MDRSdtmM/CDISC/V3#M-CDISC_SDTMMODEL> bd:includesVariable <http://www.assero.co.uk/MDRSdtmM/CDISC/V3#M-CDISC_SDTMMODEL_xxHLTCD> . 
<http://www.assero.co.uk/MDRSdtmM/CDISC/V3#M-CDISC_SDTMMODEL_xxHLGT> rdf:type <http://www.assero.co.uk/BusinessDomain#ModelVariable> . 
<http://www.assero.co.uk/MDRSdtmM/CDISC/V3#M-CDISC_SDTMMODEL_xxHLGT> rdfs:label "High Level Group Term"^^xsd:string . 
<http://www.assero.co.uk/MDRSdtmM/CDISC/V3#M-CDISC_SDTMMODEL_xxHLGT> bd:ordinal "9"^^xsd:positiveInteger . 
<http://www.assero.co.uk/MDRSdtmM/CDISC/V3#M-CDISC_SDTMMODEL_xxHLGT> bd:rule ""^^xsd:string . 
<http://www.assero.co.uk/MDRSdtmM/CDISC/V3#M-CDISC_SDTMMODEL_xxHLGT> bd:name "--HLGT"^^xsd:string . 
<http://www.assero.co.uk/MDRSdtmM/CDISC/V3#M-CDISC_SDTMMODEL_xxHLGT> bd:prefixed "true"^^xsd:boolean . 
<http://www.assero.co.uk/MDRSdtmM/CDISC/V3#M-CDISC_SDTMMODEL_xxHLGT> bd:description "MedDRA High Level Group Term from the primary path."^^xsd:string . 
<http://www.assero.co.uk/MDRSdtmM/CDISC/V3#M-CDISC_SDTMMODEL_xxHLGT> bd:typedAs <http://www.assero.co.uk/MDRSdtmM/CDISC/V3#M-CDISC_SDTMMODEL_DT_CHAR> . 
<http://www.assero.co.uk/MDRSdtmM/CDISC/V3#M-CDISC_SDTMMODEL_xxHLGT> bd:classifiedAs <http://www.assero.co.uk/MDRSdtmM/CDISC/V3#M-CDISC_SDTMMODEL_C_QUALIFIER_SC_VARIABLEQUALIFIER> . 
<http://www.assero.co.uk/MDRSdtmM/CDISC/V3#M-CDISC_SDTMMODEL> bd:includesVariable <http://www.assero.co.uk/MDRSdtmM/CDISC/V3#M-CDISC_SDTMMODEL_xxHLGT> . 
<http://www.assero.co.uk/MDRSdtmM/CDISC/V3#M-CDISC_SDTMMODEL_xxHLGTCD> rdf:type <http://www.assero.co.uk/BusinessDomain#ModelVariable> . 
<http://www.assero.co.uk/MDRSdtmM/CDISC/V3#M-CDISC_SDTMMODEL_xxHLGTCD> rdfs:label "High Level Group Term Code"^^xsd:string . 
<http://www.assero.co.uk/MDRSdtmM/CDISC/V3#M-CDISC_SDTMMODEL_xxHLGTCD> bd:ordinal "10"^^xsd:positiveInteger . 
<http://www.assero.co.uk/MDRSdtmM/CDISC/V3#M-CDISC_SDTMMODEL_xxHLGTCD> bd:rule ""^^xsd:string . 
<http://www.assero.co.uk/MDRSdtmM/CDISC/V3#M-CDISC_SDTMMODEL_xxHLGTCD> bd:name "--HLGTCD"^^xsd:string . 
<http://www.assero.co.uk/MDRSdtmM/CDISC/V3#M-CDISC_SDTMMODEL_xxHLGTCD> bd:prefixed "true"^^xsd:boolean . 
<http://www.assero.co.uk/MDRSdtmM/CDISC/V3#M-CDISC_SDTMMODEL_xxHLGTCD> bd:description "MedDRA High Level Group Term code from the primary path."^^xsd:string . 
<http://www.assero.co.uk/MDRSdtmM/CDISC/V3#M-CDISC_SDTMMODEL_xxHLGTCD> bd:typedAs <http://www.assero.co.uk/MDRSdtmM/CDISC/V3#M-CDISC_SDTMMODEL_DT_NUM> . 
<http://www.assero.co.uk/MDRSdtmM/CDISC/V3#M-CDISC_SDTMMODEL_xxHLGTCD> bd:classifiedAs <http://www.assero.co.uk/MDRSdtmM/CDISC/V3#M-CDISC_SDTMMODEL_C_QUALIFIER_SC_VARIABLEQUALIFIER> . 
<http://www.assero.co.uk/MDRSdtmM/CDISC/V3#M-CDISC_SDTMMODEL> bd:includesVariable <http://www.assero.co.uk/MDRSdtmM/CDISC/V3#M-CDISC_SDTMMODEL_xxHLGTCD> . 
<http://www.assero.co.uk/MDRSdtmM/CDISC/V3#M-CDISC_SDTMMODEL_xxCAT> rdf:type <http://www.assero.co.uk/BusinessDomain#ModelVariable> . 
<http://www.assero.co.uk/MDRSdtmM/CDISC/V3#M-CDISC_SDTMMODEL_xxCAT> rdfs:label "Category"^^xsd:string . 
<http://www.assero.co.uk/MDRSdtmM/CDISC/V3#M-CDISC_SDTMMODEL_xxCAT> bd:ordinal "11"^^xsd:positiveInteger . 
<http://www.assero.co.uk/MDRSdtmM/CDISC/V3#M-CDISC_SDTMMODEL_xxCAT> bd:rule ""^^xsd:string . 
<http://www.assero.co.uk/MDRSdtmM/CDISC/V3#M-CDISC_SDTMMODEL_xxCAT> bd:name "--CAT"^^xsd:string . 
<http://www.assero.co.uk/MDRSdtmM/CDISC/V3#M-CDISC_SDTMMODEL_xxCAT> bd:prefixed "true"^^xsd:boolean . 
<http://www.assero.co.uk/MDRSdtmM/CDISC/V3#M-CDISC_SDTMMODEL_xxCAT> bd:description "Used to define a category of topic-variable values."^^xsd:string . 
<http://www.assero.co.uk/MDRSdtmM/CDISC/V3#M-CDISC_SDTMMODEL_xxCAT> bd:typedAs <http://www.assero.co.uk/MDRSdtmM/CDISC/V3#M-CDISC_SDTMMODEL_DT_CHAR> . 
<http://www.assero.co.uk/MDRSdtmM/CDISC/V3#M-CDISC_SDTMMODEL_xxCAT> bd:classifiedAs <http://www.assero.co.uk/MDRSdtmM/CDISC/V3#M-CDISC_SDTMMODEL_C_QUALIFIER_SC_GROUPINGQUALIFIER> . 
<http://www.assero.co.uk/MDRSdtmM/CDISC/V3#M-CDISC_SDTMMODEL> bd:includesVariable <http://www.assero.co.uk/MDRSdtmM/CDISC/V3#M-CDISC_SDTMMODEL_xxCAT> . 
<http://www.assero.co.uk/MDRSdtmM/CDISC/V3#M-CDISC_SDTMMODEL_xxSCAT> rdf:type <http://www.assero.co.uk/BusinessDomain#ModelVariable> . 
<http://www.assero.co.uk/MDRSdtmM/CDISC/V3#M-CDISC_SDTMMODEL_xxSCAT> rdfs:label "Subcategory"^^xsd:string . 
<http://www.assero.co.uk/MDRSdtmM/CDISC/V3#M-CDISC_SDTMMODEL_xxSCAT> bd:ordinal "12"^^xsd:positiveInteger . 
<http://www.assero.co.uk/MDRSdtmM/CDISC/V3#M-CDISC_SDTMMODEL_xxSCAT> bd:rule ""^^xsd:string . 
<http://www.assero.co.uk/MDRSdtmM/CDISC/V3#M-CDISC_SDTMMODEL_xxSCAT> bd:name "--SCAT"^^xsd:string . 
<http://www.assero.co.uk/MDRSdtmM/CDISC/V3#M-CDISC_SDTMMODEL_xxSCAT> bd:prefixed "true"^^xsd:boolean . 
<http://www.assero.co.uk/MDRSdtmM/CDISC/V3#M-CDISC_SDTMMODEL_xxSCAT> bd:description "Used to define a further categorization of --CAT values."^^xsd:string . 
<http://www.assero.co.uk/MDRSdtmM/CDISC/V3#M-CDISC_SDTMMODEL_xxSCAT> bd:typedAs <http://www.assero.co.uk/MDRSdtmM/CDISC/V3#M-CDISC_SDTMMODEL_DT_CHAR> . 
<http://www.assero.co.uk/MDRSdtmM/CDISC/V3#M-CDISC_SDTMMODEL_xxSCAT> bd:classifiedAs <http://www.assero.co.uk/MDRSdtmM/CDISC/V3#M-CDISC_SDTMMODEL_C_QUALIFIER_SC_GROUPINGQUALIFIER> . 
<http://www.assero.co.uk/MDRSdtmM/CDISC/V3#M-CDISC_SDTMMODEL> bd:includesVariable <http://www.assero.co.uk/MDRSdtmM/CDISC/V3#M-CDISC_SDTMMODEL_xxSCAT> . 
<http://www.assero.co.uk/MDRSdtmM/CDISC/V3#M-CDISC_SDTMMODEL_xxPRESP> rdf:type <http://www.assero.co.uk/BusinessDomain#ModelVariable> . 
<http://www.assero.co.uk/MDRSdtmM/CDISC/V3#M-CDISC_SDTMMODEL_xxPRESP> rdfs:label "Pre-specified"^^xsd:string . 
<http://www.assero.co.uk/MDRSdtmM/CDISC/V3#M-CDISC_SDTMMODEL_xxPRESP> bd:ordinal "13"^^xsd:positiveInteger . 
<http://www.assero.co.uk/MDRSdtmM/CDISC/V3#M-CDISC_SDTMMODEL_xxPRESP> bd:rule ""^^xsd:string . 
<http://www.assero.co.uk/MDRSdtmM/CDISC/V3#M-CDISC_SDTMMODEL_xxPRESP> bd:name "--PRESP"^^xsd:string . 
<http://www.assero.co.uk/MDRSdtmM/CDISC/V3#M-CDISC_SDTMMODEL_xxPRESP> bd:prefixed "true"^^xsd:boolean . 
<http://www.assero.co.uk/MDRSdtmM/CDISC/V3#M-CDISC_SDTMMODEL_xxPRESP> bd:description "Used to indicate whether the event described by --TERM was pre-specified on a CRF. Value is Y for pre-specified events, null for spontaneously reported events."^^xsd:string . 
<http://www.assero.co.uk/MDRSdtmM/CDISC/V3#M-CDISC_SDTMMODEL_xxPRESP> bd:typedAs <http://www.assero.co.uk/MDRSdtmM/CDISC/V3#M-CDISC_SDTMMODEL_DT_CHAR> . 
<http://www.assero.co.uk/MDRSdtmM/CDISC/V3#M-CDISC_SDTMMODEL_xxPRESP> bd:classifiedAs <http://www.assero.co.uk/MDRSdtmM/CDISC/V3#M-CDISC_SDTMMODEL_C_QUALIFIER_SC_VARIABLEQUALIFIER> . 
<http://www.assero.co.uk/MDRSdtmM/CDISC/V3#M-CDISC_SDTMMODEL> bd:includesVariable <http://www.assero.co.uk/MDRSdtmM/CDISC/V3#M-CDISC_SDTMMODEL_xxPRESP> . 
<http://www.assero.co.uk/MDRSdtmM/CDISC/V3#M-CDISC_SDTMMODEL_xxOCCUR> rdf:type <http://www.assero.co.uk/BusinessDomain#ModelVariable> . 
<http://www.assero.co.uk/MDRSdtmM/CDISC/V3#M-CDISC_SDTMMODEL_xxOCCUR> rdfs:label "Occurrence"^^xsd:string . 
<http://www.assero.co.uk/MDRSdtmM/CDISC/V3#M-CDISC_SDTMMODEL_xxOCCUR> bd:ordinal "14"^^xsd:positiveInteger . 
<http://www.assero.co.uk/MDRSdtmM/CDISC/V3#M-CDISC_SDTMMODEL_xxOCCUR> bd:rule ""^^xsd:string . 
<http://www.assero.co.uk/MDRSdtmM/CDISC/V3#M-CDISC_SDTMMODEL_xxOCCUR> bd:name "--OCCUR"^^xsd:string . 
<http://www.assero.co.uk/MDRSdtmM/CDISC/V3#M-CDISC_SDTMMODEL_xxOCCUR> bd:prefixed "true"^^xsd:boolean . 
<http://www.assero.co.uk/MDRSdtmM/CDISC/V3#M-CDISC_SDTMMODEL_xxOCCUR> bd:description "Used to record whether a pre-specified event occurred when information about the occurrence of a specific event is solicited."^^xsd:string . 
<http://www.assero.co.uk/MDRSdtmM/CDISC/V3#M-CDISC_SDTMMODEL_xxOCCUR> bd:typedAs <http://www.assero.co.uk/MDRSdtmM/CDISC/V3#M-CDISC_SDTMMODEL_DT_CHAR> . 
<http://www.assero.co.uk/MDRSdtmM/CDISC/V3#M-CDISC_SDTMMODEL_xxOCCUR> bd:classifiedAs <http://www.assero.co.uk/MDRSdtmM/CDISC/V3#M-CDISC_SDTMMODEL_C_QUALIFIER_SC_RECORDQUALIFIER> . 
<http://www.assero.co.uk/MDRSdtmM/CDISC/V3#M-CDISC_SDTMMODEL> bd:includesVariable <http://www.assero.co.uk/MDRSdtmM/CDISC/V3#M-CDISC_SDTMMODEL_xxOCCUR> . 
<http://www.assero.co.uk/MDRSdtmM/CDISC/V3#M-CDISC_SDTMMODEL_xxSTAT> rdf:type <http://www.assero.co.uk/BusinessDomain#ModelVariable> . 
<http://www.assero.co.uk/MDRSdtmM/CDISC/V3#M-CDISC_SDTMMODEL_xxSTAT> rdfs:label "Completion Status"^^xsd:string . 
<http://www.assero.co.uk/MDRSdtmM/CDISC/V3#M-CDISC_SDTMMODEL_xxSTAT> bd:ordinal "15"^^xsd:positiveInteger . 
<http://www.assero.co.uk/MDRSdtmM/CDISC/V3#M-CDISC_SDTMMODEL_xxSTAT> bd:rule ""^^xsd:string . 
<http://www.assero.co.uk/MDRSdtmM/CDISC/V3#M-CDISC_SDTMMODEL_xxSTAT> bd:name "--STAT"^^xsd:string . 
<http://www.assero.co.uk/MDRSdtmM/CDISC/V3#M-CDISC_SDTMMODEL_xxSTAT> bd:prefixed "true"^^xsd:boolean . 
<http://www.assero.co.uk/MDRSdtmM/CDISC/V3#M-CDISC_SDTMMODEL_xxSTAT> bd:description "Used to indicate when a question about the occurrence of a pre-specified event was not answered. Should be null or have a value of NOT DONE."^^xsd:string . 
<http://www.assero.co.uk/MDRSdtmM/CDISC/V3#M-CDISC_SDTMMODEL_xxSTAT> bd:typedAs <http://www.assero.co.uk/MDRSdtmM/CDISC/V3#M-CDISC_SDTMMODEL_DT_CHAR> . 
<http://www.assero.co.uk/MDRSdtmM/CDISC/V3#M-CDISC_SDTMMODEL_xxSTAT> bd:classifiedAs <http://www.assero.co.uk/MDRSdtmM/CDISC/V3#M-CDISC_SDTMMODEL_C_QUALIFIER_SC_RECORDQUALIFIER> . 
<http://www.assero.co.uk/MDRSdtmM/CDISC/V3#M-CDISC_SDTMMODEL> bd:includesVariable <http://www.assero.co.uk/MDRSdtmM/CDISC/V3#M-CDISC_SDTMMODEL_xxSTAT> . 
<http://www.assero.co.uk/MDRSdtmM/CDISC/V3#M-CDISC_SDTMMODEL_xxREASND> rdf:type <http://www.assero.co.uk/BusinessDomain#ModelVariable> . 
<http://www.assero.co.uk/MDRSdtmM/CDISC/V3#M-CDISC_SDTMMODEL_xxREASND> rdfs:label "Reason Not Done"^^xsd:string . 
<http://www.assero.co.uk/MDRSdtmM/CDISC/V3#M-CDISC_SDTMMODEL_xxREASND> bd:ordinal "16"^^xsd:positiveInteger . 
<http://www.assero.co.uk/MDRSdtmM/CDISC/V3#M-CDISC_SDTMMODEL_xxREASND> bd:rule ""^^xsd:string . 
<http://www.assero.co.uk/MDRSdtmM/CDISC/V3#M-CDISC_SDTMMODEL_xxREASND> bd:name "--REASND"^^xsd:string . 
<http://www.assero.co.uk/MDRSdtmM/CDISC/V3#M-CDISC_SDTMMODEL_xxREASND> bd:prefixed "true"^^xsd:boolean . 
<http://www.assero.co.uk/MDRSdtmM/CDISC/V3#M-CDISC_SDTMMODEL_xxREASND> bd:description "Reason not done. Used in conjunction with --STAT when its value is NOT DONE."^^xsd:string . 
<http://www.assero.co.uk/MDRSdtmM/CDISC/V3#M-CDISC_SDTMMODEL_xxREASND> bd:typedAs <http://www.assero.co.uk/MDRSdtmM/CDISC/V3#M-CDISC_SDTMMODEL_DT_CHAR> . 
<http://www.assero.co.uk/MDRSdtmM/CDISC/V3#M-CDISC_SDTMMODEL_xxREASND> bd:classifiedAs <http://www.assero.co.uk/MDRSdtmM/CDISC/V3#M-CDISC_SDTMMODEL_C_QUALIFIER_SC_RECORDQUALIFIER> . 
<http://www.assero.co.uk/MDRSdtmM/CDISC/V3#M-CDISC_SDTMMODEL> bd:includesVariable <http://www.assero.co.uk/MDRSdtmM/CDISC/V3#M-CDISC_SDTMMODEL_xxREASND> . 
<http://www.assero.co.uk/MDRSdtmM/CDISC/V3#M-CDISC_SDTMMODEL_xxBODSYS> rdf:type <http://www.assero.co.uk/BusinessDomain#ModelVariable> . 
<http://www.assero.co.uk/MDRSdtmM/CDISC/V3#M-CDISC_SDTMMODEL_xxBODSYS> rdfs:label "Body System or Organ Class"^^xsd:string . 
<http://www.assero.co.uk/MDRSdtmM/CDISC/V3#M-CDISC_SDTMMODEL_xxBODSYS> bd:ordinal "17"^^xsd:positiveInteger . 
<http://www.assero.co.uk/MDRSdtmM/CDISC/V3#M-CDISC_SDTMMODEL_xxBODSYS> bd:rule ""^^xsd:string . 
<http://www.assero.co.uk/MDRSdtmM/CDISC/V3#M-CDISC_SDTMMODEL_xxBODSYS> bd:name "--BODSYS"^^xsd:string . 
<http://www.assero.co.uk/MDRSdtmM/CDISC/V3#M-CDISC_SDTMMODEL_xxBODSYS> bd:prefixed "true"^^xsd:boolean . 
<http://www.assero.co.uk/MDRSdtmM/CDISC/V3#M-CDISC_SDTMMODEL_xxBODSYS> bd:description "Body system or system organ class assigned for analysis from a standard hierarchy (e.g. MedDRA) associated with an event. Example: GASTROINTESTINAL DISORDERS."^^xsd:string . 
<http://www.assero.co.uk/MDRSdtmM/CDISC/V3#M-CDISC_SDTMMODEL_xxBODSYS> bd:typedAs <http://www.assero.co.uk/MDRSdtmM/CDISC/V3#M-CDISC_SDTMMODEL_DT_CHAR> . 
<http://www.assero.co.uk/MDRSdtmM/CDISC/V3#M-CDISC_SDTMMODEL_xxBODSYS> bd:classifiedAs <http://www.assero.co.uk/MDRSdtmM/CDISC/V3#M-CDISC_SDTMMODEL_C_QUALIFIER_SC_RECORDQUALIFIER> . 
<http://www.assero.co.uk/MDRSdtmM/CDISC/V3#M-CDISC_SDTMMODEL> bd:includesVariable <http://www.assero.co.uk/MDRSdtmM/CDISC/V3#M-CDISC_SDTMMODEL_xxBODSYS> . 
<http://www.assero.co.uk/MDRSdtmM/CDISC/V3#M-CDISC_SDTMMODEL_xxBDSYCD> rdf:type <http://www.assero.co.uk/BusinessDomain#ModelVariable> . 
<http://www.assero.co.uk/MDRSdtmM/CDISC/V3#M-CDISC_SDTMMODEL_xxBDSYCD> rdfs:label "Body System or Organ Class Code"^^xsd:string . 
<http://www.assero.co.uk/MDRSdtmM/CDISC/V3#M-CDISC_SDTMMODEL_xxBDSYCD> bd:ordinal "18"^^xsd:positiveInteger . 
<http://www.assero.co.uk/MDRSdtmM/CDISC/V3#M-CDISC_SDTMMODEL_xxBDSYCD> bd:rule ""^^xsd:string . 
<http://www.assero.co.uk/MDRSdtmM/CDISC/V3#M-CDISC_SDTMMODEL_xxBDSYCD> bd:name "--BDSYCD"^^xsd:string . 
<http://www.assero.co.uk/MDRSdtmM/CDISC/V3#M-CDISC_SDTMMODEL_xxBDSYCD> bd:prefixed "true"^^xsd:boolean . 
<http://www.assero.co.uk/MDRSdtmM/CDISC/V3#M-CDISC_SDTMMODEL_xxBDSYCD> bd:description "MedDRA System Organ Class code corresponding to --BODSYS assigned for analysis."^^xsd:string . 
<http://www.assero.co.uk/MDRSdtmM/CDISC/V3#M-CDISC_SDTMMODEL_xxBDSYCD> bd:typedAs <http://www.assero.co.uk/MDRSdtmM/CDISC/V3#M-CDISC_SDTMMODEL_DT_NUM> . 
<http://www.assero.co.uk/MDRSdtmM/CDISC/V3#M-CDISC_SDTMMODEL_xxBDSYCD> bd:classifiedAs <http://www.assero.co.uk/MDRSdtmM/CDISC/V3#M-CDISC_SDTMMODEL_C_QUALIFIER_SC_VARIABLEQUALIFIER> . 
<http://www.assero.co.uk/MDRSdtmM/CDISC/V3#M-CDISC_SDTMMODEL> bd:includesVariable <http://www.assero.co.uk/MDRSdtmM/CDISC/V3#M-CDISC_SDTMMODEL_xxBDSYCD> . 
<http://www.assero.co.uk/MDRSdtmM/CDISC/V3#M-CDISC_SDTMMODEL_xxSOC> rdf:type <http://www.assero.co.uk/BusinessDomain#ModelVariable> . 
<http://www.assero.co.uk/MDRSdtmM/CDISC/V3#M-CDISC_SDTMMODEL_xxSOC> rdfs:label "Primary System Organ Class"^^xsd:string . 
<http://www.assero.co.uk/MDRSdtmM/CDISC/V3#M-CDISC_SDTMMODEL_xxSOC> bd:ordinal "19"^^xsd:positiveInteger . 
<http://www.assero.co.uk/MDRSdtmM/CDISC/V3#M-CDISC_SDTMMODEL_xxSOC> bd:rule ""^^xsd:string . 
<http://www.assero.co.uk/MDRSdtmM/CDISC/V3#M-CDISC_SDTMMODEL_xxSOC> bd:name "--SOC"^^xsd:string . 
<http://www.assero.co.uk/MDRSdtmM/CDISC/V3#M-CDISC_SDTMMODEL_xxSOC> bd:prefixed "true"^^xsd:boolean . 
<http://www.assero.co.uk/MDRSdtmM/CDISC/V3#M-CDISC_SDTMMODEL_xxSOC> bd:description "MedDRA primary System Organ Class associated with the event."^^xsd:string . 
<http://www.assero.co.uk/MDRSdtmM/CDISC/V3#M-CDISC_SDTMMODEL_xxSOC> bd:typedAs <http://www.assero.co.uk/MDRSdtmM/CDISC/V3#M-CDISC_SDTMMODEL_DT_CHAR> . 
<http://www.assero.co.uk/MDRSdtmM/CDISC/V3#M-CDISC_SDTMMODEL_xxSOC> bd:classifiedAs <http://www.assero.co.uk/MDRSdtmM/CDISC/V3#M-CDISC_SDTMMODEL_C_QUALIFIER_SC_VARIABLEQUALIFIER> . 
<http://www.assero.co.uk/MDRSdtmM/CDISC/V3#M-CDISC_SDTMMODEL> bd:includesVariable <http://www.assero.co.uk/MDRSdtmM/CDISC/V3#M-CDISC_SDTMMODEL_xxSOC> . 
<http://www.assero.co.uk/MDRSdtmM/CDISC/V3#M-CDISC_SDTMMODEL_xxSOCCD> rdf:type <http://www.assero.co.uk/BusinessDomain#ModelVariable> . 
<http://www.assero.co.uk/MDRSdtmM/CDISC/V3#M-CDISC_SDTMMODEL_xxSOCCD> rdfs:label "Primary System Organ Class Code"^^xsd:string . 
<http://www.assero.co.uk/MDRSdtmM/CDISC/V3#M-CDISC_SDTMMODEL_xxSOCCD> bd:ordinal "20"^^xsd:positiveInteger . 
<http://www.assero.co.uk/MDRSdtmM/CDISC/V3#M-CDISC_SDTMMODEL_xxSOCCD> bd:rule ""^^xsd:string . 
<http://www.assero.co.uk/MDRSdtmM/CDISC/V3#M-CDISC_SDTMMODEL_xxSOCCD> bd:name "--SOCCD"^^xsd:string . 
<http://www.assero.co.uk/MDRSdtmM/CDISC/V3#M-CDISC_SDTMMODEL_xxSOCCD> bd:prefixed "true"^^xsd:boolean . 
<http://www.assero.co.uk/MDRSdtmM/CDISC/V3#M-CDISC_SDTMMODEL_xxSOCCD> bd:description "MedDRA primary System Organ Class code."^^xsd:string . 
<http://www.assero.co.uk/MDRSdtmM/CDISC/V3#M-CDISC_SDTMMODEL_xxSOCCD> bd:typedAs <http://www.assero.co.uk/MDRSdtmM/CDISC/V3#M-CDISC_SDTMMODEL_DT_NUM> . 
<http://www.assero.co.uk/MDRSdtmM/CDISC/V3#M-CDISC_SDTMMODEL_xxSOCCD> bd:classifiedAs <http://www.assero.co.uk/MDRSdtmM/CDISC/V3#M-CDISC_SDTMMODEL_C_QUALIFIER_SC_VARIABLEQUALIFIER> . 
<http://www.assero.co.uk/MDRSdtmM/CDISC/V3#M-CDISC_SDTMMODEL> bd:includesVariable <http://www.assero.co.uk/MDRSdtmM/CDISC/V3#M-CDISC_SDTMMODEL_xxSOCCD> . 
<http://www.assero.co.uk/MDRSdtmM/CDISC/V3#M-CDISC_SDTMMODEL_xxLOC> rdf:type <http://www.assero.co.uk/BusinessDomain#ModelVariable> . 
<http://www.assero.co.uk/MDRSdtmM/CDISC/V3#M-CDISC_SDTMMODEL_xxLOC> rdfs:label "Location of Event"^^xsd:string . 
<http://www.assero.co.uk/MDRSdtmM/CDISC/V3#M-CDISC_SDTMMODEL_xxLOC> bd:ordinal "21"^^xsd:positiveInteger . 
<http://www.assero.co.uk/MDRSdtmM/CDISC/V3#M-CDISC_SDTMMODEL_xxLOC> bd:rule ""^^xsd:string . 
<http://www.assero.co.uk/MDRSdtmM/CDISC/V3#M-CDISC_SDTMMODEL_xxLOC> bd:name "--LOC"^^xsd:string . 
<http://www.assero.co.uk/MDRSdtmM/CDISC/V3#M-CDISC_SDTMMODEL_xxLOC> bd:prefixed "true"^^xsd:boolean . 
<http://www.assero.co.uk/MDRSdtmM/CDISC/V3#M-CDISC_SDTMMODEL_xxLOC> bd:description "Describes anatomical location relevant for the event. Example: ARM for skin rash."^^xsd:string . 
<http://www.assero.co.uk/MDRSdtmM/CDISC/V3#M-CDISC_SDTMMODEL_xxLOC> bd:typedAs <http://www.assero.co.uk/MDRSdtmM/CDISC/V3#M-CDISC_SDTMMODEL_DT_CHAR> . 
<http://www.assero.co.uk/MDRSdtmM/CDISC/V3#M-CDISC_SDTMMODEL_xxLOC> bd:classifiedAs <http://www.assero.co.uk/MDRSdtmM/CDISC/V3#M-CDISC_SDTMMODEL_C_QUALIFIER_SC_RECORDQUALIFIER> . 
<http://www.assero.co.uk/MDRSdtmM/CDISC/V3#M-CDISC_SDTMMODEL> bd:includesVariable <http://www.assero.co.uk/MDRSdtmM/CDISC/V3#M-CDISC_SDTMMODEL_xxLOC> . 
<http://www.assero.co.uk/MDRSdtmM/CDISC/V3#M-CDISC_SDTMMODEL_xxLAT> rdf:type <http://www.assero.co.uk/BusinessDomain#ModelVariable> . 
<http://www.assero.co.uk/MDRSdtmM/CDISC/V3#M-CDISC_SDTMMODEL_xxLAT> rdfs:label "Laterality"^^xsd:string . 
<http://www.assero.co.uk/MDRSdtmM/CDISC/V3#M-CDISC_SDTMMODEL_xxLAT> bd:ordinal "22"^^xsd:positiveInteger . 
<http://www.assero.co.uk/MDRSdtmM/CDISC/V3#M-CDISC_SDTMMODEL_xxLAT> bd:rule ""^^xsd:string . 
<http://www.assero.co.uk/MDRSdtmM/CDISC/V3#M-CDISC_SDTMMODEL_xxLAT> bd:name "--LAT"^^xsd:string . 
<http://www.assero.co.uk/MDRSdtmM/CDISC/V3#M-CDISC_SDTMMODEL_xxLAT> bd:prefixed "true"^^xsd:boolean . 
<http://www.assero.co.uk/MDRSdtmM/CDISC/V3#M-CDISC_SDTMMODEL_xxLAT> bd:description "Qualifier for anatomical location further detailing laterality. Examples: RIGHT, LEFT, BILATERAL"^^xsd:string . 
<http://www.assero.co.uk/MDRSdtmM/CDISC/V3#M-CDISC_SDTMMODEL_xxLAT> bd:typedAs <http://www.assero.co.uk/MDRSdtmM/CDISC/V3#M-CDISC_SDTMMODEL_DT_CHAR> . 
<http://www.assero.co.uk/MDRSdtmM/CDISC/V3#M-CDISC_SDTMMODEL_xxLAT> bd:classifiedAs <http://www.assero.co.uk/MDRSdtmM/CDISC/V3#M-CDISC_SDTMMODEL_C_QUALIFIER_SC_VARIABLEQUALIFIER> . 
<http://www.assero.co.uk/MDRSdtmM/CDISC/V3#M-CDISC_SDTMMODEL> bd:includesVariable <http://www.assero.co.uk/MDRSdtmM/CDISC/V3#M-CDISC_SDTMMODEL_xxLAT> . 
<http://www.assero.co.uk/MDRSdtmM/CDISC/V3#M-CDISC_SDTMMODEL_xxDIR> rdf:type <http://www.assero.co.uk/BusinessDomain#ModelVariable> . 
<http://www.assero.co.uk/MDRSdtmM/CDISC/V3#M-CDISC_SDTMMODEL_xxDIR> rdfs:label "Directionality"^^xsd:string . 
<http://www.assero.co.uk/MDRSdtmM/CDISC/V3#M-CDISC_SDTMMODEL_xxDIR> bd:ordinal "23"^^xsd:positiveInteger . 
<http://www.assero.co.uk/MDRSdtmM/CDISC/V3#M-CDISC_SDTMMODEL_xxDIR> bd:rule ""^^xsd:string . 
<http://www.assero.co.uk/MDRSdtmM/CDISC/V3#M-CDISC_SDTMMODEL_xxDIR> bd:name "--DIR"^^xsd:string . 
<http://www.assero.co.uk/MDRSdtmM/CDISC/V3#M-CDISC_SDTMMODEL_xxDIR> bd:prefixed "true"^^xsd:boolean . 
<http://www.assero.co.uk/MDRSdtmM/CDISC/V3#M-CDISC_SDTMMODEL_xxDIR> bd:description "Qualifier for anatomical location further detailing directionality. Examples: ANTERIOR, LOWER, PROXIMAL"^^xsd:string . 
<http://www.assero.co.uk/MDRSdtmM/CDISC/V3#M-CDISC_SDTMMODEL_xxDIR> bd:typedAs <http://www.assero.co.uk/MDRSdtmM/CDISC/V3#M-CDISC_SDTMMODEL_DT_CHAR> . 
<http://www.assero.co.uk/MDRSdtmM/CDISC/V3#M-CDISC_SDTMMODEL_xxDIR> bd:classifiedAs <http://www.assero.co.uk/MDRSdtmM/CDISC/V3#M-CDISC_SDTMMODEL_C_QUALIFIER_SC_VARIABLEQUALIFIER> . 
<http://www.assero.co.uk/MDRSdtmM/CDISC/V3#M-CDISC_SDTMMODEL> bd:includesVariable <http://www.assero.co.uk/MDRSdtmM/CDISC/V3#M-CDISC_SDTMMODEL_xxDIR> . 
<http://www.assero.co.uk/MDRSdtmM/CDISC/V3#M-CDISC_SDTMMODEL_xxPORTOT> rdf:type <http://www.assero.co.uk/BusinessDomain#ModelVariable> . 
<http://www.assero.co.uk/MDRSdtmM/CDISC/V3#M-CDISC_SDTMMODEL_xxPORTOT> rdfs:label "Portion or Totality"^^xsd:string . 
<http://www.assero.co.uk/MDRSdtmM/CDISC/V3#M-CDISC_SDTMMODEL_xxPORTOT> bd:ordinal "24"^^xsd:positiveInteger . 
<http://www.assero.co.uk/MDRSdtmM/CDISC/V3#M-CDISC_SDTMMODEL_xxPORTOT> bd:rule ""^^xsd:string . 
<http://www.assero.co.uk/MDRSdtmM/CDISC/V3#M-CDISC_SDTMMODEL_xxPORTOT> bd:name "--PORTOT"^^xsd:string . 
<http://www.assero.co.uk/MDRSdtmM/CDISC/V3#M-CDISC_SDTMMODEL_xxPORTOT> bd:prefixed "true"^^xsd:boolean . 
<http://www.assero.co.uk/MDRSdtmM/CDISC/V3#M-CDISC_SDTMMODEL_xxPORTOT> bd:description "Qualifier for anatomical location further detailing the distribution, which means arrangement of, apportioning of. Examples: ENTIRE, SINGLE, SEGMENT, MANY."^^xsd:string . 
<http://www.assero.co.uk/MDRSdtmM/CDISC/V3#M-CDISC_SDTMMODEL_xxPORTOT> bd:typedAs <http://www.assero.co.uk/MDRSdtmM/CDISC/V3#M-CDISC_SDTMMODEL_DT_CHAR> . 
<http://www.assero.co.uk/MDRSdtmM/CDISC/V3#M-CDISC_SDTMMODEL_xxPORTOT> bd:classifiedAs <http://www.assero.co.uk/MDRSdtmM/CDISC/V3#M-CDISC_SDTMMODEL_C_QUALIFIER_SC_VARIABLEQUALIFIER> . 
<http://www.assero.co.uk/MDRSdtmM/CDISC/V3#M-CDISC_SDTMMODEL> bd:includesVariable <http://www.assero.co.uk/MDRSdtmM/CDISC/V3#M-CDISC_SDTMMODEL_xxPORTOT> . 
<http://www.assero.co.uk/MDRSdtmM/CDISC/V3#M-CDISC_SDTMMODEL_xxPARTY> rdf:type <http://www.assero.co.uk/BusinessDomain#ModelVariable> . 
<http://www.assero.co.uk/MDRSdtmM/CDISC/V3#M-CDISC_SDTMMODEL_xxPARTY> rdfs:label "Accountable Party"^^xsd:string . 
<http://www.assero.co.uk/MDRSdtmM/CDISC/V3#M-CDISC_SDTMMODEL_xxPARTY> bd:ordinal "25"^^xsd:positiveInteger . 
<http://www.assero.co.uk/MDRSdtmM/CDISC/V3#M-CDISC_SDTMMODEL_xxPARTY> bd:rule ""^^xsd:string . 
<http://www.assero.co.uk/MDRSdtmM/CDISC/V3#M-CDISC_SDTMMODEL_xxPARTY> bd:name "--PARTY"^^xsd:string . 
<http://www.assero.co.uk/MDRSdtmM/CDISC/V3#M-CDISC_SDTMMODEL_xxPARTY> bd:prefixed "true"^^xsd:boolean . 
<http://www.assero.co.uk/MDRSdtmM/CDISC/V3#M-CDISC_SDTMMODEL_xxPARTY> bd:description "Party accountable for the transferable object (e.g. device, specimen) as a result of the activity performed in the associated --TERM variable. The party could be an individual (e.g., subject), an organization (e.g., sponsor), or a location that is a proxy for an individual or organization (e.g., site). It is usually a somewhat general term that is further identified in the --PRTYID variable."^^xsd:string . 
<http://www.assero.co.uk/MDRSdtmM/CDISC/V3#M-CDISC_SDTMMODEL_xxPARTY> bd:typedAs <http://www.assero.co.uk/MDRSdtmM/CDISC/V3#M-CDISC_SDTMMODEL_DT_CHAR> . 
<http://www.assero.co.uk/MDRSdtmM/CDISC/V3#M-CDISC_SDTMMODEL_xxPARTY> bd:classifiedAs <http://www.assero.co.uk/MDRSdtmM/CDISC/V3#M-CDISC_SDTMMODEL_C_QUALIFIER_SC_RECORDQUALIFIER> . 
<http://www.assero.co.uk/MDRSdtmM/CDISC/V3#M-CDISC_SDTMMODEL> bd:includesVariable <http://www.assero.co.uk/MDRSdtmM/CDISC/V3#M-CDISC_SDTMMODEL_xxPARTY> . 
<http://www.assero.co.uk/MDRSdtmM/CDISC/V3#M-CDISC_SDTMMODEL_xxPRTYID> rdf:type <http://www.assero.co.uk/BusinessDomain#ModelVariable> . 
<http://www.assero.co.uk/MDRSdtmM/CDISC/V3#M-CDISC_SDTMMODEL_xxPRTYID> rdfs:label "Identification of Accountable Party"^^xsd:string . 
<http://www.assero.co.uk/MDRSdtmM/CDISC/V3#M-CDISC_SDTMMODEL_xxPRTYID> bd:ordinal "26"^^xsd:positiveInteger . 
<http://www.assero.co.uk/MDRSdtmM/CDISC/V3#M-CDISC_SDTMMODEL_xxPRTYID> bd:rule ""^^xsd:string . 
<http://www.assero.co.uk/MDRSdtmM/CDISC/V3#M-CDISC_SDTMMODEL_xxPRTYID> bd:name "--PRTYID"^^xsd:string . 
<http://www.assero.co.uk/MDRSdtmM/CDISC/V3#M-CDISC_SDTMMODEL_xxPRTYID> bd:prefixed "true"^^xsd:boolean . 
<http://www.assero.co.uk/MDRSdtmM/CDISC/V3#M-CDISC_SDTMMODEL_xxPRTYID> bd:description "Identification of the specific party accountable for the transferable object (e.g. device, specimen) after the action in --TERM is taken. Used in conjunction with --PARTY."^^xsd:string . 
<http://www.assero.co.uk/MDRSdtmM/CDISC/V3#M-CDISC_SDTMMODEL_xxPRTYID> bd:typedAs <http://www.assero.co.uk/MDRSdtmM/CDISC/V3#M-CDISC_SDTMMODEL_DT_CHAR> . 
<http://www.assero.co.uk/MDRSdtmM/CDISC/V3#M-CDISC_SDTMMODEL_xxPRTYID> bd:classifiedAs <http://www.assero.co.uk/MDRSdtmM/CDISC/V3#M-CDISC_SDTMMODEL_C_QUALIFIER_SC_RECORDQUALIFIER> . 
<http://www.assero.co.uk/MDRSdtmM/CDISC/V3#M-CDISC_SDTMMODEL> bd:includesVariable <http://www.assero.co.uk/MDRSdtmM/CDISC/V3#M-CDISC_SDTMMODEL_xxPRTYID> . 
<http://www.assero.co.uk/MDRSdtmM/CDISC/V3#M-CDISC_SDTMMODEL_xxSEV> rdf:type <http://www.assero.co.uk/BusinessDomain#ModelVariable> . 
<http://www.assero.co.uk/MDRSdtmM/CDISC/V3#M-CDISC_SDTMMODEL_xxSEV> rdfs:label "Severity/Intensity"^^xsd:string . 
<http://www.assero.co.uk/MDRSdtmM/CDISC/V3#M-CDISC_SDTMMODEL_xxSEV> bd:ordinal "27"^^xsd:positiveInteger . 
<http://www.assero.co.uk/MDRSdtmM/CDISC/V3#M-CDISC_SDTMMODEL_xxSEV> bd:rule ""^^xsd:string . 
<http://www.assero.co.uk/MDRSdtmM/CDISC/V3#M-CDISC_SDTMMODEL_xxSEV> bd:name "--SEV"^^xsd:string . 
<http://www.assero.co.uk/MDRSdtmM/CDISC/V3#M-CDISC_SDTMMODEL_xxSEV> bd:prefixed "true"^^xsd:boolean . 
<http://www.assero.co.uk/MDRSdtmM/CDISC/V3#M-CDISC_SDTMMODEL_xxSEV> bd:description "The severity or intensity of the event. Examples: MILD, MODERATE, SEVERE."^^xsd:string . 
<http://www.assero.co.uk/MDRSdtmM/CDISC/V3#M-CDISC_SDTMMODEL_xxSEV> bd:typedAs <http://www.assero.co.uk/MDRSdtmM/CDISC/V3#M-CDISC_SDTMMODEL_DT_CHAR> . 
<http://www.assero.co.uk/MDRSdtmM/CDISC/V3#M-CDISC_SDTMMODEL_xxSEV> bd:classifiedAs <http://www.assero.co.uk/MDRSdtmM/CDISC/V3#M-CDISC_SDTMMODEL_C_QUALIFIER_SC_RECORDQUALIFIER> . 
<http://www.assero.co.uk/MDRSdtmM/CDISC/V3#M-CDISC_SDTMMODEL> bd:includesVariable <http://www.assero.co.uk/MDRSdtmM/CDISC/V3#M-CDISC_SDTMMODEL_xxSEV> . 
<http://www.assero.co.uk/MDRSdtmM/CDISC/V3#M-CDISC_SDTMMODEL_xxSER> rdf:type <http://www.assero.co.uk/BusinessDomain#ModelVariable> . 
<http://www.assero.co.uk/MDRSdtmM/CDISC/V3#M-CDISC_SDTMMODEL_xxSER> rdfs:label "Serious Event"^^xsd:string . 
<http://www.assero.co.uk/MDRSdtmM/CDISC/V3#M-CDISC_SDTMMODEL_xxSER> bd:ordinal "28"^^xsd:positiveInteger . 
<http://www.assero.co.uk/MDRSdtmM/CDISC/V3#M-CDISC_SDTMMODEL_xxSER> bd:rule ""^^xsd:string . 
<http://www.assero.co.uk/MDRSdtmM/CDISC/V3#M-CDISC_SDTMMODEL_xxSER> bd:name "--SER"^^xsd:string . 
<http://www.assero.co.uk/MDRSdtmM/CDISC/V3#M-CDISC_SDTMMODEL_xxSER> bd:prefixed "true"^^xsd:boolean . 
<http://www.assero.co.uk/MDRSdtmM/CDISC/V3#M-CDISC_SDTMMODEL_xxSER> bd:description "Is this is a serious event? Valid values are “Y” and “N”."^^xsd:string . 
<http://www.assero.co.uk/MDRSdtmM/CDISC/V3#M-CDISC_SDTMMODEL_xxSER> bd:typedAs <http://www.assero.co.uk/MDRSdtmM/CDISC/V3#M-CDISC_SDTMMODEL_DT_CHAR> . 
<http://www.assero.co.uk/MDRSdtmM/CDISC/V3#M-CDISC_SDTMMODEL_xxSER> bd:classifiedAs <http://www.assero.co.uk/MDRSdtmM/CDISC/V3#M-CDISC_SDTMMODEL_C_QUALIFIER_SC_RECORDQUALIFIER> . 
<http://www.assero.co.uk/MDRSdtmM/CDISC/V3#M-CDISC_SDTMMODEL> bd:includesVariable <http://www.assero.co.uk/MDRSdtmM/CDISC/V3#M-CDISC_SDTMMODEL_xxSER> . 
<http://www.assero.co.uk/MDRSdtmM/CDISC/V3#M-CDISC_SDTMMODEL_xxACN> rdf:type <http://www.assero.co.uk/BusinessDomain#ModelVariable> . 
<http://www.assero.co.uk/MDRSdtmM/CDISC/V3#M-CDISC_SDTMMODEL_xxACN> rdfs:label "Action Taken with Study Treatment"^^xsd:string . 
<http://www.assero.co.uk/MDRSdtmM/CDISC/V3#M-CDISC_SDTMMODEL_xxACN> bd:ordinal "29"^^xsd:positiveInteger . 
<http://www.assero.co.uk/MDRSdtmM/CDISC/V3#M-CDISC_SDTMMODEL_xxACN> bd:rule ""^^xsd:string . 
<http://www.assero.co.uk/MDRSdtmM/CDISC/V3#M-CDISC_SDTMMODEL_xxACN> bd:name "--ACN"^^xsd:string . 
<http://www.assero.co.uk/MDRSdtmM/CDISC/V3#M-CDISC_SDTMMODEL_xxACN> bd:prefixed "true"^^xsd:boolean . 
<http://www.assero.co.uk/MDRSdtmM/CDISC/V3#M-CDISC_SDTMMODEL_xxACN> bd:description "Describes changes made to the study treatment as a result of the event. Examples: DOSE INCREASED, DOSE NOT CHANGED."^^xsd:string . 
<http://www.assero.co.uk/MDRSdtmM/CDISC/V3#M-CDISC_SDTMMODEL_xxACN> bd:typedAs <http://www.assero.co.uk/MDRSdtmM/CDISC/V3#M-CDISC_SDTMMODEL_DT_CHAR> . 
<http://www.assero.co.uk/MDRSdtmM/CDISC/V3#M-CDISC_SDTMMODEL_xxACN> bd:classifiedAs <http://www.assero.co.uk/MDRSdtmM/CDISC/V3#M-CDISC_SDTMMODEL_C_QUALIFIER_SC_RECORDQUALIFIER> . 
<http://www.assero.co.uk/MDRSdtmM/CDISC/V3#M-CDISC_SDTMMODEL> bd:includesVariable <http://www.assero.co.uk/MDRSdtmM/CDISC/V3#M-CDISC_SDTMMODEL_xxACN> . 
<http://www.assero.co.uk/MDRSdtmM/CDISC/V3#M-CDISC_SDTMMODEL_xxACNOTH> rdf:type <http://www.assero.co.uk/BusinessDomain#ModelVariable> . 
<http://www.assero.co.uk/MDRSdtmM/CDISC/V3#M-CDISC_SDTMMODEL_xxACNOTH> rdfs:label "Other Action Taken"^^xsd:string . 
<http://www.assero.co.uk/MDRSdtmM/CDISC/V3#M-CDISC_SDTMMODEL_xxACNOTH> bd:ordinal "30"^^xsd:positiveInteger . 
<http://www.assero.co.uk/MDRSdtmM/CDISC/V3#M-CDISC_SDTMMODEL_xxACNOTH> bd:rule ""^^xsd:string . 
<http://www.assero.co.uk/MDRSdtmM/CDISC/V3#M-CDISC_SDTMMODEL_xxACNOTH> bd:name "--ACNOTH"^^xsd:string . 
<http://www.assero.co.uk/MDRSdtmM/CDISC/V3#M-CDISC_SDTMMODEL_xxACNOTH> bd:prefixed "true"^^xsd:boolean . 
<http://www.assero.co.uk/MDRSdtmM/CDISC/V3#M-CDISC_SDTMMODEL_xxACNOTH> bd:description "Describes other actions taken as a result of the event that are unrelated to dose adjustments of study treatment."^^xsd:string . 
<http://www.assero.co.uk/MDRSdtmM/CDISC/V3#M-CDISC_SDTMMODEL_xxACNOTH> bd:typedAs <http://www.assero.co.uk/MDRSdtmM/CDISC/V3#M-CDISC_SDTMMODEL_DT_CHAR> . 
<http://www.assero.co.uk/MDRSdtmM/CDISC/V3#M-CDISC_SDTMMODEL_xxACNOTH> bd:classifiedAs <http://www.assero.co.uk/MDRSdtmM/CDISC/V3#M-CDISC_SDTMMODEL_C_QUALIFIER_SC_RECORDQUALIFIER> . 
<http://www.assero.co.uk/MDRSdtmM/CDISC/V3#M-CDISC_SDTMMODEL> bd:includesVariable <http://www.assero.co.uk/MDRSdtmM/CDISC/V3#M-CDISC_SDTMMODEL_xxACNOTH> . 
<http://www.assero.co.uk/MDRSdtmM/CDISC/V3#M-CDISC_SDTMMODEL_xxACNDEV> rdf:type <http://www.assero.co.uk/BusinessDomain#ModelVariable> . 
<http://www.assero.co.uk/MDRSdtmM/CDISC/V3#M-CDISC_SDTMMODEL_xxACNDEV> rdfs:label "Action Taken with Device"^^xsd:string . 
<http://www.assero.co.uk/MDRSdtmM/CDISC/V3#M-CDISC_SDTMMODEL_xxACNDEV> bd:ordinal "31"^^xsd:positiveInteger . 
<http://www.assero.co.uk/MDRSdtmM/CDISC/V3#M-CDISC_SDTMMODEL_xxACNDEV> bd:rule ""^^xsd:string . 
<http://www.assero.co.uk/MDRSdtmM/CDISC/V3#M-CDISC_SDTMMODEL_xxACNDEV> bd:name "--ACNDEV"^^xsd:string . 
<http://www.assero.co.uk/MDRSdtmM/CDISC/V3#M-CDISC_SDTMMODEL_xxACNDEV> bd:prefixed "true"^^xsd:boolean . 
<http://www.assero.co.uk/MDRSdtmM/CDISC/V3#M-CDISC_SDTMMODEL_xxACNDEV> bd:description "Action taken with respect to a device in a study, which may or may not be the device under study"^^xsd:string . 
<http://www.assero.co.uk/MDRSdtmM/CDISC/V3#M-CDISC_SDTMMODEL_xxACNDEV> bd:typedAs <http://www.assero.co.uk/MDRSdtmM/CDISC/V3#M-CDISC_SDTMMODEL_DT_CHAR> . 
<http://www.assero.co.uk/MDRSdtmM/CDISC/V3#M-CDISC_SDTMMODEL_xxACNDEV> bd:classifiedAs <http://www.assero.co.uk/MDRSdtmM/CDISC/V3#M-CDISC_SDTMMODEL_C_QUALIFIER_SC_RECORDQUALIFIER> . 
<http://www.assero.co.uk/MDRSdtmM/CDISC/V3#M-CDISC_SDTMMODEL> bd:includesVariable <http://www.assero.co.uk/MDRSdtmM/CDISC/V3#M-CDISC_SDTMMODEL_xxACNDEV> . 
<http://www.assero.co.uk/MDRSdtmM/CDISC/V3#M-CDISC_SDTMMODEL_xxREL> rdf:type <http://www.assero.co.uk/BusinessDomain#ModelVariable> . 
<http://www.assero.co.uk/MDRSdtmM/CDISC/V3#M-CDISC_SDTMMODEL_xxREL> rdfs:label "Causality"^^xsd:string . 
<http://www.assero.co.uk/MDRSdtmM/CDISC/V3#M-CDISC_SDTMMODEL_xxREL> bd:ordinal "32"^^xsd:positiveInteger . 
<http://www.assero.co.uk/MDRSdtmM/CDISC/V3#M-CDISC_SDTMMODEL_xxREL> bd:rule ""^^xsd:string . 
<http://www.assero.co.uk/MDRSdtmM/CDISC/V3#M-CDISC_SDTMMODEL_xxREL> bd:name "--REL"^^xsd:string . 
<http://www.assero.co.uk/MDRSdtmM/CDISC/V3#M-CDISC_SDTMMODEL_xxREL> bd:prefixed "true"^^xsd:boolean . 
<http://www.assero.co.uk/MDRSdtmM/CDISC/V3#M-CDISC_SDTMMODEL_xxREL> bd:description "Records the investigator's opinion as to the causality of the event to the treatment. ICH E2A and E2B examples include NOT RELATED, UNLIKELY RELATED, POSSIBLY RELATED, RELATED."^^xsd:string . 
<http://www.assero.co.uk/MDRSdtmM/CDISC/V3#M-CDISC_SDTMMODEL_xxREL> bd:typedAs <http://www.assero.co.uk/MDRSdtmM/CDISC/V3#M-CDISC_SDTMMODEL_DT_CHAR> . 
<http://www.assero.co.uk/MDRSdtmM/CDISC/V3#M-CDISC_SDTMMODEL_xxREL> bd:classifiedAs <http://www.assero.co.uk/MDRSdtmM/CDISC/V3#M-CDISC_SDTMMODEL_C_QUALIFIER_SC_RECORDQUALIFIER> . 
<http://www.assero.co.uk/MDRSdtmM/CDISC/V3#M-CDISC_SDTMMODEL> bd:includesVariable <http://www.assero.co.uk/MDRSdtmM/CDISC/V3#M-CDISC_SDTMMODEL_xxREL> . 
<http://www.assero.co.uk/MDRSdtmM/CDISC/V3#M-CDISC_SDTMMODEL_xxRELNST> rdf:type <http://www.assero.co.uk/BusinessDomain#ModelVariable> . 
<http://www.assero.co.uk/MDRSdtmM/CDISC/V3#M-CDISC_SDTMMODEL_xxRELNST> rdfs:label "Relationship to Non-Study Treatment"^^xsd:string . 
<http://www.assero.co.uk/MDRSdtmM/CDISC/V3#M-CDISC_SDTMMODEL_xxRELNST> bd:ordinal "33"^^xsd:positiveInteger . 
<http://www.assero.co.uk/MDRSdtmM/CDISC/V3#M-CDISC_SDTMMODEL_xxRELNST> bd:rule ""^^xsd:string . 
<http://www.assero.co.uk/MDRSdtmM/CDISC/V3#M-CDISC_SDTMMODEL_xxRELNST> bd:name "--RELNST"^^xsd:string . 
<http://www.assero.co.uk/MDRSdtmM/CDISC/V3#M-CDISC_SDTMMODEL_xxRELNST> bd:prefixed "true"^^xsd:boolean . 
<http://www.assero.co.uk/MDRSdtmM/CDISC/V3#M-CDISC_SDTMMODEL_xxRELNST> bd:description "An opinion as to whether the event may have been due to a treatment other than study drug. Example: \"MORE LIKELY RELATED TO ASPIRIN USE.\""^^xsd:string . 
<http://www.assero.co.uk/MDRSdtmM/CDISC/V3#M-CDISC_SDTMMODEL_xxRELNST> bd:typedAs <http://www.assero.co.uk/MDRSdtmM/CDISC/V3#M-CDISC_SDTMMODEL_DT_CHAR> . 
<http://www.assero.co.uk/MDRSdtmM/CDISC/V3#M-CDISC_SDTMMODEL_xxRELNST> bd:classifiedAs <http://www.assero.co.uk/MDRSdtmM/CDISC/V3#M-CDISC_SDTMMODEL_C_QUALIFIER_SC_RECORDQUALIFIER> . 
<http://www.assero.co.uk/MDRSdtmM/CDISC/V3#M-CDISC_SDTMMODEL> bd:includesVariable <http://www.assero.co.uk/MDRSdtmM/CDISC/V3#M-CDISC_SDTMMODEL_xxRELNST> . 
<http://www.assero.co.uk/MDRSdtmM/CDISC/V3#M-CDISC_SDTMMODEL_xxPATT> rdf:type <http://www.assero.co.uk/BusinessDomain#ModelVariable> . 
<http://www.assero.co.uk/MDRSdtmM/CDISC/V3#M-CDISC_SDTMMODEL_xxPATT> rdfs:label "Pattern of Event"^^xsd:string . 
<http://www.assero.co.uk/MDRSdtmM/CDISC/V3#M-CDISC_SDTMMODEL_xxPATT> bd:ordinal "34"^^xsd:positiveInteger . 
<http://www.assero.co.uk/MDRSdtmM/CDISC/V3#M-CDISC_SDTMMODEL_xxPATT> bd:rule ""^^xsd:string . 
<http://www.assero.co.uk/MDRSdtmM/CDISC/V3#M-CDISC_SDTMMODEL_xxPATT> bd:name "--PATT"^^xsd:string . 
<http://www.assero.co.uk/MDRSdtmM/CDISC/V3#M-CDISC_SDTMMODEL_xxPATT> bd:prefixed "true"^^xsd:boolean . 
<http://www.assero.co.uk/MDRSdtmM/CDISC/V3#M-CDISC_SDTMMODEL_xxPATT> bd:description "Used to indicate the pattern of the event over time. Examples: INTERMITTENT, CONTINUOUS, SINGLE EVENT."^^xsd:string . 
<http://www.assero.co.uk/MDRSdtmM/CDISC/V3#M-CDISC_SDTMMODEL_xxPATT> bd:typedAs <http://www.assero.co.uk/MDRSdtmM/CDISC/V3#M-CDISC_SDTMMODEL_DT_CHAR> . 
<http://www.assero.co.uk/MDRSdtmM/CDISC/V3#M-CDISC_SDTMMODEL_xxPATT> bd:classifiedAs <http://www.assero.co.uk/MDRSdtmM/CDISC/V3#M-CDISC_SDTMMODEL_C_QUALIFIER_SC_RECORDQUALIFIER> . 
<http://www.assero.co.uk/MDRSdtmM/CDISC/V3#M-CDISC_SDTMMODEL> bd:includesVariable <http://www.assero.co.uk/MDRSdtmM/CDISC/V3#M-CDISC_SDTMMODEL_xxPATT> . 
<http://www.assero.co.uk/MDRSdtmM/CDISC/V3#M-CDISC_SDTMMODEL_xxOUT> rdf:type <http://www.assero.co.uk/BusinessDomain#ModelVariable> . 
<http://www.assero.co.uk/MDRSdtmM/CDISC/V3#M-CDISC_SDTMMODEL_xxOUT> rdfs:label "Outcome of Event"^^xsd:string . 
<http://www.assero.co.uk/MDRSdtmM/CDISC/V3#M-CDISC_SDTMMODEL_xxOUT> bd:ordinal "35"^^xsd:positiveInteger . 
<http://www.assero.co.uk/MDRSdtmM/CDISC/V3#M-CDISC_SDTMMODEL_xxOUT> bd:rule ""^^xsd:string . 
<http://www.assero.co.uk/MDRSdtmM/CDISC/V3#M-CDISC_SDTMMODEL_xxOUT> bd:name "--OUT"^^xsd:string . 
<http://www.assero.co.uk/MDRSdtmM/CDISC/V3#M-CDISC_SDTMMODEL_xxOUT> bd:prefixed "true"^^xsd:boolean . 
<http://www.assero.co.uk/MDRSdtmM/CDISC/V3#M-CDISC_SDTMMODEL_xxOUT> bd:description "Description of the outcome of an event. Examples: RECOVERED/RESOLVED, FATAL."^^xsd:string . 
<http://www.assero.co.uk/MDRSdtmM/CDISC/V3#M-CDISC_SDTMMODEL_xxOUT> bd:typedAs <http://www.assero.co.uk/MDRSdtmM/CDISC/V3#M-CDISC_SDTMMODEL_DT_CHAR> . 
<http://www.assero.co.uk/MDRSdtmM/CDISC/V3#M-CDISC_SDTMMODEL_xxOUT> bd:classifiedAs <http://www.assero.co.uk/MDRSdtmM/CDISC/V3#M-CDISC_SDTMMODEL_C_QUALIFIER_SC_RECORDQUALIFIER> . 
<http://www.assero.co.uk/MDRSdtmM/CDISC/V3#M-CDISC_SDTMMODEL> bd:includesVariable <http://www.assero.co.uk/MDRSdtmM/CDISC/V3#M-CDISC_SDTMMODEL_xxOUT> . 
<http://www.assero.co.uk/MDRSdtmM/CDISC/V3#M-CDISC_SDTMMODEL_xxSCAN> rdf:type <http://www.assero.co.uk/BusinessDomain#ModelVariable> . 
<http://www.assero.co.uk/MDRSdtmM/CDISC/V3#M-CDISC_SDTMMODEL_xxSCAN> rdfs:label "Involves Cancer"^^xsd:string . 
<http://www.assero.co.uk/MDRSdtmM/CDISC/V3#M-CDISC_SDTMMODEL_xxSCAN> bd:ordinal "36"^^xsd:positiveInteger . 
<http://www.assero.co.uk/MDRSdtmM/CDISC/V3#M-CDISC_SDTMMODEL_xxSCAN> bd:rule ""^^xsd:string . 
<http://www.assero.co.uk/MDRSdtmM/CDISC/V3#M-CDISC_SDTMMODEL_xxSCAN> bd:name "--SCAN"^^xsd:string . 
<http://www.assero.co.uk/MDRSdtmM/CDISC/V3#M-CDISC_SDTMMODEL_xxSCAN> bd:prefixed "true"^^xsd:boolean . 
<http://www.assero.co.uk/MDRSdtmM/CDISC/V3#M-CDISC_SDTMMODEL_xxSCAN> bd:description "Was the event associated with the development of cancer? Valid values are “Y” and “N”."^^xsd:string . 
<http://www.assero.co.uk/MDRSdtmM/CDISC/V3#M-CDISC_SDTMMODEL_xxSCAN> bd:typedAs <http://www.assero.co.uk/MDRSdtmM/CDISC/V3#M-CDISC_SDTMMODEL_DT_CHAR> . 
<http://www.assero.co.uk/MDRSdtmM/CDISC/V3#M-CDISC_SDTMMODEL_xxSCAN> bd:classifiedAs <http://www.assero.co.uk/MDRSdtmM/CDISC/V3#M-CDISC_SDTMMODEL_C_QUALIFIER_SC_RECORDQUALIFIER> . 
<http://www.assero.co.uk/MDRSdtmM/CDISC/V3#M-CDISC_SDTMMODEL> bd:includesVariable <http://www.assero.co.uk/MDRSdtmM/CDISC/V3#M-CDISC_SDTMMODEL_xxSCAN> . 
<http://www.assero.co.uk/MDRSdtmM/CDISC/V3#M-CDISC_SDTMMODEL_xxSCONG> rdf:type <http://www.assero.co.uk/BusinessDomain#ModelVariable> . 
<http://www.assero.co.uk/MDRSdtmM/CDISC/V3#M-CDISC_SDTMMODEL_xxSCONG> rdfs:label "Congenital Anomaly or Birth Defect"^^xsd:string . 
<http://www.assero.co.uk/MDRSdtmM/CDISC/V3#M-CDISC_SDTMMODEL_xxSCONG> bd:ordinal "37"^^xsd:positiveInteger . 
<http://www.assero.co.uk/MDRSdtmM/CDISC/V3#M-CDISC_SDTMMODEL_xxSCONG> bd:rule ""^^xsd:string . 
<http://www.assero.co.uk/MDRSdtmM/CDISC/V3#M-CDISC_SDTMMODEL_xxSCONG> bd:name "--SCONG"^^xsd:string . 
<http://www.assero.co.uk/MDRSdtmM/CDISC/V3#M-CDISC_SDTMMODEL_xxSCONG> bd:prefixed "true"^^xsd:boolean . 
<http://www.assero.co.uk/MDRSdtmM/CDISC/V3#M-CDISC_SDTMMODEL_xxSCONG> bd:description "Was the event associated with congenital anomaly or birth defect? Valid values are “Y” and “N”."^^xsd:string . 
<http://www.assero.co.uk/MDRSdtmM/CDISC/V3#M-CDISC_SDTMMODEL_xxSCONG> bd:typedAs <http://www.assero.co.uk/MDRSdtmM/CDISC/V3#M-CDISC_SDTMMODEL_DT_CHAR> . 
<http://www.assero.co.uk/MDRSdtmM/CDISC/V3#M-CDISC_SDTMMODEL_xxSCONG> bd:classifiedAs <http://www.assero.co.uk/MDRSdtmM/CDISC/V3#M-CDISC_SDTMMODEL_C_QUALIFIER_SC_RECORDQUALIFIER> . 
<http://www.assero.co.uk/MDRSdtmM/CDISC/V3#M-CDISC_SDTMMODEL> bd:includesVariable <http://www.assero.co.uk/MDRSdtmM/CDISC/V3#M-CDISC_SDTMMODEL_xxSCONG> . 
<http://www.assero.co.uk/MDRSdtmM/CDISC/V3#M-CDISC_SDTMMODEL_xxSDISAB> rdf:type <http://www.assero.co.uk/BusinessDomain#ModelVariable> . 
<http://www.assero.co.uk/MDRSdtmM/CDISC/V3#M-CDISC_SDTMMODEL_xxSDISAB> rdfs:label "Persist or Signif Disability/Incapacity"^^xsd:string . 
<http://www.assero.co.uk/MDRSdtmM/CDISC/V3#M-CDISC_SDTMMODEL_xxSDISAB> bd:ordinal "38"^^xsd:positiveInteger . 
<http://www.assero.co.uk/MDRSdtmM/CDISC/V3#M-CDISC_SDTMMODEL_xxSDISAB> bd:rule ""^^xsd:string . 
<http://www.assero.co.uk/MDRSdtmM/CDISC/V3#M-CDISC_SDTMMODEL_xxSDISAB> bd:name "--SDISAB"^^xsd:string . 
<http://www.assero.co.uk/MDRSdtmM/CDISC/V3#M-CDISC_SDTMMODEL_xxSDISAB> bd:prefixed "true"^^xsd:boolean . 
<http://www.assero.co.uk/MDRSdtmM/CDISC/V3#M-CDISC_SDTMMODEL_xxSDISAB> bd:description "Did the event result in persistent or significant disability/incapacity? Valid values are “Y” and “N”."^^xsd:string . 
<http://www.assero.co.uk/MDRSdtmM/CDISC/V3#M-CDISC_SDTMMODEL_xxSDISAB> bd:typedAs <http://www.assero.co.uk/MDRSdtmM/CDISC/V3#M-CDISC_SDTMMODEL_DT_CHAR> . 
<http://www.assero.co.uk/MDRSdtmM/CDISC/V3#M-CDISC_SDTMMODEL_xxSDISAB> bd:classifiedAs <http://www.assero.co.uk/MDRSdtmM/CDISC/V3#M-CDISC_SDTMMODEL_C_QUALIFIER_SC_RECORDQUALIFIER> . 
<http://www.assero.co.uk/MDRSdtmM/CDISC/V3#M-CDISC_SDTMMODEL> bd:includesVariable <http://www.assero.co.uk/MDRSdtmM/CDISC/V3#M-CDISC_SDTMMODEL_xxSDISAB> . 
<http://www.assero.co.uk/MDRSdtmM/CDISC/V3#M-CDISC_SDTMMODEL_xxSDTH> rdf:type <http://www.assero.co.uk/BusinessDomain#ModelVariable> . 
<http://www.assero.co.uk/MDRSdtmM/CDISC/V3#M-CDISC_SDTMMODEL_xxSDTH> rdfs:label "Results in Death"^^xsd:string . 
<http://www.assero.co.uk/MDRSdtmM/CDISC/V3#M-CDISC_SDTMMODEL_xxSDTH> bd:ordinal "39"^^xsd:positiveInteger . 
<http://www.assero.co.uk/MDRSdtmM/CDISC/V3#M-CDISC_SDTMMODEL_xxSDTH> bd:rule ""^^xsd:string . 
<http://www.assero.co.uk/MDRSdtmM/CDISC/V3#M-CDISC_SDTMMODEL_xxSDTH> bd:name "--SDTH"^^xsd:string . 
<http://www.assero.co.uk/MDRSdtmM/CDISC/V3#M-CDISC_SDTMMODEL_xxSDTH> bd:prefixed "true"^^xsd:boolean . 
<http://www.assero.co.uk/MDRSdtmM/CDISC/V3#M-CDISC_SDTMMODEL_xxSDTH> bd:description "Did the event result in death? Valid values are “Y” and “N”."^^xsd:string . 
<http://www.assero.co.uk/MDRSdtmM/CDISC/V3#M-CDISC_SDTMMODEL_xxSDTH> bd:typedAs <http://www.assero.co.uk/MDRSdtmM/CDISC/V3#M-CDISC_SDTMMODEL_DT_CHAR> . 
<http://www.assero.co.uk/MDRSdtmM/CDISC/V3#M-CDISC_SDTMMODEL_xxSDTH> bd:classifiedAs <http://www.assero.co.uk/MDRSdtmM/CDISC/V3#M-CDISC_SDTMMODEL_C_QUALIFIER_SC_RECORDQUALIFIER> . 
<http://www.assero.co.uk/MDRSdtmM/CDISC/V3#M-CDISC_SDTMMODEL> bd:includesVariable <http://www.assero.co.uk/MDRSdtmM/CDISC/V3#M-CDISC_SDTMMODEL_xxSDTH> . 
<http://www.assero.co.uk/MDRSdtmM/CDISC/V3#M-CDISC_SDTMMODEL_xxSHOSP> rdf:type <http://www.assero.co.uk/BusinessDomain#ModelVariable> . 
<http://www.assero.co.uk/MDRSdtmM/CDISC/V3#M-CDISC_SDTMMODEL_xxSHOSP> rdfs:label "Requires or Prolongs Hospitalization"^^xsd:string . 
<http://www.assero.co.uk/MDRSdtmM/CDISC/V3#M-CDISC_SDTMMODEL_xxSHOSP> bd:ordinal "40"^^xsd:positiveInteger . 
<http://www.assero.co.uk/MDRSdtmM/CDISC/V3#M-CDISC_SDTMMODEL_xxSHOSP> bd:rule ""^^xsd:string . 
<http://www.assero.co.uk/MDRSdtmM/CDISC/V3#M-CDISC_SDTMMODEL_xxSHOSP> bd:name "--SHOSP"^^xsd:string . 
<http://www.assero.co.uk/MDRSdtmM/CDISC/V3#M-CDISC_SDTMMODEL_xxSHOSP> bd:prefixed "true"^^xsd:boolean . 
<http://www.assero.co.uk/MDRSdtmM/CDISC/V3#M-CDISC_SDTMMODEL_xxSHOSP> bd:description "Did the event require or prolong hospitalization? Valid values are “Y” and “N”."^^xsd:string . 
<http://www.assero.co.uk/MDRSdtmM/CDISC/V3#M-CDISC_SDTMMODEL_xxSHOSP> bd:typedAs <http://www.assero.co.uk/MDRSdtmM/CDISC/V3#M-CDISC_SDTMMODEL_DT_CHAR> . 
<http://www.assero.co.uk/MDRSdtmM/CDISC/V3#M-CDISC_SDTMMODEL_xxSHOSP> bd:classifiedAs <http://www.assero.co.uk/MDRSdtmM/CDISC/V3#M-CDISC_SDTMMODEL_C_QUALIFIER_SC_RECORDQUALIFIER> . 
<http://www.assero.co.uk/MDRSdtmM/CDISC/V3#M-CDISC_SDTMMODEL> bd:includesVariable <http://www.assero.co.uk/MDRSdtmM/CDISC/V3#M-CDISC_SDTMMODEL_xxSHOSP> . 
<http://www.assero.co.uk/MDRSdtmM/CDISC/V3#M-CDISC_SDTMMODEL_xxSLIFE> rdf:type <http://www.assero.co.uk/BusinessDomain#ModelVariable> . 
<http://www.assero.co.uk/MDRSdtmM/CDISC/V3#M-CDISC_SDTMMODEL_xxSLIFE> rdfs:label "Is Life Threatening"^^xsd:string . 
<http://www.assero.co.uk/MDRSdtmM/CDISC/V3#M-CDISC_SDTMMODEL_xxSLIFE> bd:ordinal "41"^^xsd:positiveInteger . 
<http://www.assero.co.uk/MDRSdtmM/CDISC/V3#M-CDISC_SDTMMODEL_xxSLIFE> bd:rule ""^^xsd:string . 
<http://www.assero.co.uk/MDRSdtmM/CDISC/V3#M-CDISC_SDTMMODEL_xxSLIFE> bd:name "--SLIFE"^^xsd:string . 
<http://www.assero.co.uk/MDRSdtmM/CDISC/V3#M-CDISC_SDTMMODEL_xxSLIFE> bd:prefixed "true"^^xsd:boolean . 
<http://www.assero.co.uk/MDRSdtmM/CDISC/V3#M-CDISC_SDTMMODEL_xxSLIFE> bd:description "Was the event life threatening? Valid values are “Y” and “N”."^^xsd:string . 
<http://www.assero.co.uk/MDRSdtmM/CDISC/V3#M-CDISC_SDTMMODEL_xxSLIFE> bd:typedAs <http://www.assero.co.uk/MDRSdtmM/CDISC/V3#M-CDISC_SDTMMODEL_DT_CHAR> . 
<http://www.assero.co.uk/MDRSdtmM/CDISC/V3#M-CDISC_SDTMMODEL_xxSLIFE> bd:classifiedAs <http://www.assero.co.uk/MDRSdtmM/CDISC/V3#M-CDISC_SDTMMODEL_C_QUALIFIER_SC_RECORDQUALIFIER> . 
<http://www.assero.co.uk/MDRSdtmM/CDISC/V3#M-CDISC_SDTMMODEL> bd:includesVariable <http://www.assero.co.uk/MDRSdtmM/CDISC/V3#M-CDISC_SDTMMODEL_xxSLIFE> . 
<http://www.assero.co.uk/MDRSdtmM/CDISC/V3#M-CDISC_SDTMMODEL_xxSOD> rdf:type <http://www.assero.co.uk/BusinessDomain#ModelVariable> . 
<http://www.assero.co.uk/MDRSdtmM/CDISC/V3#M-CDISC_SDTMMODEL_xxSOD> rdfs:label "Occurred with Overdose"^^xsd:string . 
<http://www.assero.co.uk/MDRSdtmM/CDISC/V3#M-CDISC_SDTMMODEL_xxSOD> bd:ordinal "42"^^xsd:positiveInteger . 
<http://www.assero.co.uk/MDRSdtmM/CDISC/V3#M-CDISC_SDTMMODEL_xxSOD> bd:rule ""^^xsd:string . 
<http://www.assero.co.uk/MDRSdtmM/CDISC/V3#M-CDISC_SDTMMODEL_xxSOD> bd:name "--SOD"^^xsd:string . 
<http://www.assero.co.uk/MDRSdtmM/CDISC/V3#M-CDISC_SDTMMODEL_xxSOD> bd:prefixed "true"^^xsd:boolean . 
<http://www.assero.co.uk/MDRSdtmM/CDISC/V3#M-CDISC_SDTMMODEL_xxSOD> bd:description "Did the event occur with an overdose? Valid values are “Y” and “N”."^^xsd:string . 
<http://www.assero.co.uk/MDRSdtmM/CDISC/V3#M-CDISC_SDTMMODEL_xxSOD> bd:typedAs <http://www.assero.co.uk/MDRSdtmM/CDISC/V3#M-CDISC_SDTMMODEL_DT_CHAR> . 
<http://www.assero.co.uk/MDRSdtmM/CDISC/V3#M-CDISC_SDTMMODEL_xxSOD> bd:classifiedAs <http://www.assero.co.uk/MDRSdtmM/CDISC/V3#M-CDISC_SDTMMODEL_C_QUALIFIER_SC_RECORDQUALIFIER> . 
<http://www.assero.co.uk/MDRSdtmM/CDISC/V3#M-CDISC_SDTMMODEL> bd:includesVariable <http://www.assero.co.uk/MDRSdtmM/CDISC/V3#M-CDISC_SDTMMODEL_xxSOD> . 
<http://www.assero.co.uk/MDRSdtmM/CDISC/V3#M-CDISC_SDTMMODEL_xxSMIE> rdf:type <http://www.assero.co.uk/BusinessDomain#ModelVariable> . 
<http://www.assero.co.uk/MDRSdtmM/CDISC/V3#M-CDISC_SDTMMODEL_xxSMIE> rdfs:label "Other Medically Important Serious Event"^^xsd:string . 
<http://www.assero.co.uk/MDRSdtmM/CDISC/V3#M-CDISC_SDTMMODEL_xxSMIE> bd:ordinal "43"^^xsd:positiveInteger . 
<http://www.assero.co.uk/MDRSdtmM/CDISC/V3#M-CDISC_SDTMMODEL_xxSMIE> bd:rule ""^^xsd:string . 
<http://www.assero.co.uk/MDRSdtmM/CDISC/V3#M-CDISC_SDTMMODEL_xxSMIE> bd:name "--SMIE"^^xsd:string . 
<http://www.assero.co.uk/MDRSdtmM/CDISC/V3#M-CDISC_SDTMMODEL_xxSMIE> bd:prefixed "true"^^xsd:boolean . 
<http://www.assero.co.uk/MDRSdtmM/CDISC/V3#M-CDISC_SDTMMODEL_xxSMIE> bd:description "Do additional categories for seriousness apply? Valid values are “Y” and “N”."^^xsd:string . 
<http://www.assero.co.uk/MDRSdtmM/CDISC/V3#M-CDISC_SDTMMODEL_xxSMIE> bd:typedAs <http://www.assero.co.uk/MDRSdtmM/CDISC/V3#M-CDISC_SDTMMODEL_DT_CHAR> . 
<http://www.assero.co.uk/MDRSdtmM/CDISC/V3#M-CDISC_SDTMMODEL_xxSMIE> bd:classifiedAs <http://www.assero.co.uk/MDRSdtmM/CDISC/V3#M-CDISC_SDTMMODEL_C_QUALIFIER_SC_RECORDQUALIFIER> . 
<http://www.assero.co.uk/MDRSdtmM/CDISC/V3#M-CDISC_SDTMMODEL> bd:includesVariable <http://www.assero.co.uk/MDRSdtmM/CDISC/V3#M-CDISC_SDTMMODEL_xxSMIE> . 
<http://www.assero.co.uk/MDRSdtmM/CDISC/V3#M-CDISC_SDTMMODEL_xxCONTRT> rdf:type <http://www.assero.co.uk/BusinessDomain#ModelVariable> . 
<http://www.assero.co.uk/MDRSdtmM/CDISC/V3#M-CDISC_SDTMMODEL_xxCONTRT> rdfs:label "Concomitant or Additional Trtmnt Given"^^xsd:string . 
<http://www.assero.co.uk/MDRSdtmM/CDISC/V3#M-CDISC_SDTMMODEL_xxCONTRT> bd:ordinal "44"^^xsd:positiveInteger . 
<http://www.assero.co.uk/MDRSdtmM/CDISC/V3#M-CDISC_SDTMMODEL_xxCONTRT> bd:rule ""^^xsd:string . 
<http://www.assero.co.uk/MDRSdtmM/CDISC/V3#M-CDISC_SDTMMODEL_xxCONTRT> bd:name "--CONTRT"^^xsd:string . 
<http://www.assero.co.uk/MDRSdtmM/CDISC/V3#M-CDISC_SDTMMODEL_xxCONTRT> bd:prefixed "true"^^xsd:boolean . 
<http://www.assero.co.uk/MDRSdtmM/CDISC/V3#M-CDISC_SDTMMODEL_xxCONTRT> bd:description "Was another treatment given because of the occurrence of the event? Valid values are “Y” and “N”."^^xsd:string . 
<http://www.assero.co.uk/MDRSdtmM/CDISC/V3#M-CDISC_SDTMMODEL_xxCONTRT> bd:typedAs <http://www.assero.co.uk/MDRSdtmM/CDISC/V3#M-CDISC_SDTMMODEL_DT_CHAR> . 
<http://www.assero.co.uk/MDRSdtmM/CDISC/V3#M-CDISC_SDTMMODEL_xxCONTRT> bd:classifiedAs <http://www.assero.co.uk/MDRSdtmM/CDISC/V3#M-CDISC_SDTMMODEL_C_QUALIFIER_SC_RECORDQUALIFIER> . 
<http://www.assero.co.uk/MDRSdtmM/CDISC/V3#M-CDISC_SDTMMODEL> bd:includesVariable <http://www.assero.co.uk/MDRSdtmM/CDISC/V3#M-CDISC_SDTMMODEL_xxCONTRT> . 
<http://www.assero.co.uk/MDRSdtmM/CDISC/V3#M-CDISC_SDTMMODEL_xxTOX> rdf:type <http://www.assero.co.uk/BusinessDomain#ModelVariable> . 
<http://www.assero.co.uk/MDRSdtmM/CDISC/V3#M-CDISC_SDTMMODEL_xxTOX> rdfs:label "Toxicity"^^xsd:string . 
<http://www.assero.co.uk/MDRSdtmM/CDISC/V3#M-CDISC_SDTMMODEL_xxTOX> bd:ordinal "45"^^xsd:positiveInteger . 
<http://www.assero.co.uk/MDRSdtmM/CDISC/V3#M-CDISC_SDTMMODEL_xxTOX> bd:rule ""^^xsd:string . 
<http://www.assero.co.uk/MDRSdtmM/CDISC/V3#M-CDISC_SDTMMODEL_xxTOX> bd:name "--TOX"^^xsd:string . 
<http://www.assero.co.uk/MDRSdtmM/CDISC/V3#M-CDISC_SDTMMODEL_xxTOX> bd:prefixed "true"^^xsd:boolean . 
<http://www.assero.co.uk/MDRSdtmM/CDISC/V3#M-CDISC_SDTMMODEL_xxTOX> bd:description "Description of toxicity quantified by --TOXGR such as NCI CTCAE Short Name. Examples: HYPERCALCEMIA, HYPOCALCEMIA. Sponsor should specify which scale and version is used in the Sponsor Comments column of the Define-XML document."^^xsd:string . 
<http://www.assero.co.uk/MDRSdtmM/CDISC/V3#M-CDISC_SDTMMODEL_xxTOX> bd:typedAs <http://www.assero.co.uk/MDRSdtmM/CDISC/V3#M-CDISC_SDTMMODEL_DT_CHAR> . 
<http://www.assero.co.uk/MDRSdtmM/CDISC/V3#M-CDISC_SDTMMODEL_xxTOX> bd:classifiedAs <http://www.assero.co.uk/MDRSdtmM/CDISC/V3#M-CDISC_SDTMMODEL_C_QUALIFIER_SC_VARIABLEQUALIFIER> . 
<http://www.assero.co.uk/MDRSdtmM/CDISC/V3#M-CDISC_SDTMMODEL> bd:includesVariable <http://www.assero.co.uk/MDRSdtmM/CDISC/V3#M-CDISC_SDTMMODEL_xxTOX> . 
<http://www.assero.co.uk/MDRSdtmM/CDISC/V3#M-CDISC_SDTMMODEL_xxTOXGR> rdf:type <http://www.assero.co.uk/BusinessDomain#ModelVariable> . 
<http://www.assero.co.uk/MDRSdtmM/CDISC/V3#M-CDISC_SDTMMODEL_xxTOXGR> rdfs:label "Toxicity Grade"^^xsd:string . 
<http://www.assero.co.uk/MDRSdtmM/CDISC/V3#M-CDISC_SDTMMODEL_xxTOXGR> bd:ordinal "46"^^xsd:positiveInteger . 
<http://www.assero.co.uk/MDRSdtmM/CDISC/V3#M-CDISC_SDTMMODEL_xxTOXGR> bd:rule ""^^xsd:string . 
<http://www.assero.co.uk/MDRSdtmM/CDISC/V3#M-CDISC_SDTMMODEL_xxTOXGR> bd:name "--TOXGR"^^xsd:string . 
<http://www.assero.co.uk/MDRSdtmM/CDISC/V3#M-CDISC_SDTMMODEL_xxTOXGR> bd:prefixed "true"^^xsd:boolean . 
<http://www.assero.co.uk/MDRSdtmM/CDISC/V3#M-CDISC_SDTMMODEL_xxTOXGR> bd:description "Records toxicity grade using a standard toxicity scale (such as the NCI CTCAE). Sponsor should specify which scale and version is used in the Sponsor Comments column of the Define-XML document."^^xsd:string . 
<http://www.assero.co.uk/MDRSdtmM/CDISC/V3#M-CDISC_SDTMMODEL_xxTOXGR> bd:typedAs <http://www.assero.co.uk/MDRSdtmM/CDISC/V3#M-CDISC_SDTMMODEL_DT_CHAR> . 
<http://www.assero.co.uk/MDRSdtmM/CDISC/V3#M-CDISC_SDTMMODEL_xxTOXGR> bd:classifiedAs <http://www.assero.co.uk/MDRSdtmM/CDISC/V3#M-CDISC_SDTMMODEL_C_QUALIFIER_SC_RECORDQUALIFIER> . 
<http://www.assero.co.uk/MDRSdtmM/CDISC/V3#M-CDISC_SDTMMODEL> bd:includesVariable <http://www.assero.co.uk/MDRSdtmM/CDISC/V3#M-CDISC_SDTMMODEL_xxTOXGR> . 
<http://www.assero.co.uk/MDRSdtmM/CDISC/V3#M-CDISC_SDTMMODEL_xxOBJ> rdf:type <http://www.assero.co.uk/BusinessDomain#ModelVariable> . 
<http://www.assero.co.uk/MDRSdtmM/CDISC/V3#M-CDISC_SDTMMODEL_xxOBJ> rdfs:label "Object of the Observation"^^xsd:string . 
<http://www.assero.co.uk/MDRSdtmM/CDISC/V3#M-CDISC_SDTMMODEL_xxOBJ> bd:ordinal "1"^^xsd:positiveInteger . 
<http://www.assero.co.uk/MDRSdtmM/CDISC/V3#M-CDISC_SDTMMODEL_xxOBJ> bd:rule ""^^xsd:string . 
<http://www.assero.co.uk/MDRSdtmM/CDISC/V3#M-CDISC_SDTMMODEL_xxOBJ> bd:name "--OBJ"^^xsd:string . 
<http://www.assero.co.uk/MDRSdtmM/CDISC/V3#M-CDISC_SDTMMODEL_xxOBJ> bd:prefixed "true"^^xsd:boolean . 
<http://www.assero.co.uk/MDRSdtmM/CDISC/V3#M-CDISC_SDTMMODEL_xxOBJ> bd:description "Used in domains modeled as Findings About Events or Findings About Interventions. Describes the event or intervention whose property is being measured in --TESTCD/--TEST. Example: an event of vomiting which has findings, where --OBJ = “VOMIT” and the volume of VOMIT is being measured where --TESTCD = \"VOLUME\"."^^xsd:string . 
<http://www.assero.co.uk/MDRSdtmM/CDISC/V3#M-CDISC_SDTMMODEL_xxOBJ> bd:typedAs <http://www.assero.co.uk/MDRSdtmM/CDISC/V3#M-CDISC_SDTMMODEL_DT_CHAR> . 
<http://www.assero.co.uk/MDRSdtmM/CDISC/V3#M-CDISC_SDTMMODEL_xxOBJ> bd:classifiedAs <http://www.assero.co.uk/MDRSdtmM/CDISC/V3#M-CDISC_SDTMMODEL_C_QUALIFIER_SC_RECORDQUALIFIER> . 
<http://www.assero.co.uk/MDRSdtmM/CDISC/V3#M-CDISC_SDTMMODEL> bd:includesVariable <http://www.assero.co.uk/MDRSdtmM/CDISC/V3#M-CDISC_SDTMMODEL_xxOBJ> . 
<http://www.assero.co.uk/MDRSdtmM/CDISC/V3#M-CDISC_SDTMMODEL_xxTESTCD> rdf:type <http://www.assero.co.uk/BusinessDomain#ModelVariable> . 
<http://www.assero.co.uk/MDRSdtmM/CDISC/V3#M-CDISC_SDTMMODEL_xxTESTCD> rdfs:label "Short Name of Measurement, Test or Examination"^^xsd:string . 
<http://www.assero.co.uk/MDRSdtmM/CDISC/V3#M-CDISC_SDTMMODEL_xxTESTCD> bd:ordinal "1"^^xsd:positiveInteger . 
<http://www.assero.co.uk/MDRSdtmM/CDISC/V3#M-CDISC_SDTMMODEL_xxTESTCD> bd:rule ""^^xsd:string . 
<http://www.assero.co.uk/MDRSdtmM/CDISC/V3#M-CDISC_SDTMMODEL_xxTESTCD> bd:name "--TESTCD"^^xsd:string . 
<http://www.assero.co.uk/MDRSdtmM/CDISC/V3#M-CDISC_SDTMMODEL_xxTESTCD> bd:prefixed "true"^^xsd:boolean . 
<http://www.assero.co.uk/MDRSdtmM/CDISC/V3#M-CDISC_SDTMMODEL_xxTESTCD> bd:description "Short character value for --TEST used as a column name when converting a dataset from a vertical format to a horizontal format. The short value can be up to 8 characters. Examples: PLAT, SYSBP, RRMIN, EYEEXAM."^^xsd:string . 
<http://www.assero.co.uk/MDRSdtmM/CDISC/V3#M-CDISC_SDTMMODEL_xxTESTCD> bd:typedAs <http://www.assero.co.uk/MDRSdtmM/CDISC/V3#M-CDISC_SDTMMODEL_DT_CHAR> . 
<http://www.assero.co.uk/MDRSdtmM/CDISC/V3#M-CDISC_SDTMMODEL_xxTESTCD> bd:classifiedAs <http://www.assero.co.uk/MDRSdtmM/CDISC/V3#M-CDISC_SDTMMODEL_C_TOPIC> . 
<http://www.assero.co.uk/MDRSdtmM/CDISC/V3#M-CDISC_SDTMMODEL> bd:includesVariable <http://www.assero.co.uk/MDRSdtmM/CDISC/V3#M-CDISC_SDTMMODEL_xxTESTCD> . 
<http://www.assero.co.uk/MDRSdtmM/CDISC/V3#M-CDISC_SDTMMODEL_xxTEST> rdf:type <http://www.assero.co.uk/BusinessDomain#ModelVariable> . 
<http://www.assero.co.uk/MDRSdtmM/CDISC/V3#M-CDISC_SDTMMODEL_xxTEST> rdfs:label "Name of Measurement, Test or Examination"^^xsd:string . 
<http://www.assero.co.uk/MDRSdtmM/CDISC/V3#M-CDISC_SDTMMODEL_xxTEST> bd:ordinal "2"^^xsd:positiveInteger . 
<http://www.assero.co.uk/MDRSdtmM/CDISC/V3#M-CDISC_SDTMMODEL_xxTEST> bd:rule ""^^xsd:string . 
<http://www.assero.co.uk/MDRSdtmM/CDISC/V3#M-CDISC_SDTMMODEL_xxTEST> bd:name "--TEST"^^xsd:string . 
<http://www.assero.co.uk/MDRSdtmM/CDISC/V3#M-CDISC_SDTMMODEL_xxTEST> bd:prefixed "true"^^xsd:boolean . 
<http://www.assero.co.uk/MDRSdtmM/CDISC/V3#M-CDISC_SDTMMODEL_xxTEST> bd:description "Long name For --TESTCD. Examples: Platelet, Systolic Blood Pressure, Summary (Min) RR Duration, Eye Examination."^^xsd:string . 
<http://www.assero.co.uk/MDRSdtmM/CDISC/V3#M-CDISC_SDTMMODEL_xxTEST> bd:typedAs <http://www.assero.co.uk/MDRSdtmM/CDISC/V3#M-CDISC_SDTMMODEL_DT_CHAR> . 
<http://www.assero.co.uk/MDRSdtmM/CDISC/V3#M-CDISC_SDTMMODEL_xxTEST> bd:classifiedAs <http://www.assero.co.uk/MDRSdtmM/CDISC/V3#M-CDISC_SDTMMODEL_C_QUALIFIER_SC_SYNONYMQUALIFIER> . 
<http://www.assero.co.uk/MDRSdtmM/CDISC/V3#M-CDISC_SDTMMODEL> bd:includesVariable <http://www.assero.co.uk/MDRSdtmM/CDISC/V3#M-CDISC_SDTMMODEL_xxTEST> . 
<http://www.assero.co.uk/MDRSdtmM/CDISC/V3#M-CDISC_SDTMMODEL_xxTSTDTL> rdf:type <http://www.assero.co.uk/BusinessDomain#ModelVariable> . 
<http://www.assero.co.uk/MDRSdtmM/CDISC/V3#M-CDISC_SDTMMODEL_xxTSTDTL> rdfs:label "Measurement, Test or Examination Detail"^^xsd:string . 
<http://www.assero.co.uk/MDRSdtmM/CDISC/V3#M-CDISC_SDTMMODEL_xxTSTDTL> bd:ordinal "4"^^xsd:positiveInteger . 
<http://www.assero.co.uk/MDRSdtmM/CDISC/V3#M-CDISC_SDTMMODEL_xxTSTDTL> bd:rule ""^^xsd:string . 
<http://www.assero.co.uk/MDRSdtmM/CDISC/V3#M-CDISC_SDTMMODEL_xxTSTDTL> bd:name "--TSTDTL"^^xsd:string . 
<http://www.assero.co.uk/MDRSdtmM/CDISC/V3#M-CDISC_SDTMMODEL_xxTSTDTL> bd:prefixed "true"^^xsd:boolean . 
<http://www.assero.co.uk/MDRSdtmM/CDISC/V3#M-CDISC_SDTMMODEL_xxTSTDTL> bd:description "Further description of --TESTCD and --TEST. Example: “The percentage of cells with %2B1 intensity of staining” when MITESTCD = TTF1."^^xsd:string . 
<http://www.assero.co.uk/MDRSdtmM/CDISC/V3#M-CDISC_SDTMMODEL_xxTSTDTL> bd:typedAs <http://www.assero.co.uk/MDRSdtmM/CDISC/V3#M-CDISC_SDTMMODEL_DT_CHAR> . 
<http://www.assero.co.uk/MDRSdtmM/CDISC/V3#M-CDISC_SDTMMODEL_xxTSTDTL> bd:classifiedAs <http://www.assero.co.uk/MDRSdtmM/CDISC/V3#M-CDISC_SDTMMODEL_C_QUALIFIER_SC_VARIABLEQUALIFIER> . 
<http://www.assero.co.uk/MDRSdtmM/CDISC/V3#M-CDISC_SDTMMODEL> bd:includesVariable <http://www.assero.co.uk/MDRSdtmM/CDISC/V3#M-CDISC_SDTMMODEL_xxTSTDTL> . 
<http://www.assero.co.uk/MDRSdtmM/CDISC/V3#M-CDISC_SDTMMODEL_xxPOS> rdf:type <http://www.assero.co.uk/BusinessDomain#ModelVariable> . 
<http://www.assero.co.uk/MDRSdtmM/CDISC/V3#M-CDISC_SDTMMODEL_xxPOS> rdfs:label "Position of Subject During Observation"^^xsd:string . 
<http://www.assero.co.uk/MDRSdtmM/CDISC/V3#M-CDISC_SDTMMODEL_xxPOS> bd:ordinal "7"^^xsd:positiveInteger . 
<http://www.assero.co.uk/MDRSdtmM/CDISC/V3#M-CDISC_SDTMMODEL_xxPOS> bd:rule ""^^xsd:string . 
<http://www.assero.co.uk/MDRSdtmM/CDISC/V3#M-CDISC_SDTMMODEL_xxPOS> bd:name "--POS"^^xsd:string . 
<http://www.assero.co.uk/MDRSdtmM/CDISC/V3#M-CDISC_SDTMMODEL_xxPOS> bd:prefixed "true"^^xsd:boolean . 
<http://www.assero.co.uk/MDRSdtmM/CDISC/V3#M-CDISC_SDTMMODEL_xxPOS> bd:description "Position of the subject during a measurement or examination. Examples: SUPINE, STANDING, SITTING."^^xsd:string . 
<http://www.assero.co.uk/MDRSdtmM/CDISC/V3#M-CDISC_SDTMMODEL_xxPOS> bd:typedAs <http://www.assero.co.uk/MDRSdtmM/CDISC/V3#M-CDISC_SDTMMODEL_DT_CHAR> . 
<http://www.assero.co.uk/MDRSdtmM/CDISC/V3#M-CDISC_SDTMMODEL_xxPOS> bd:classifiedAs <http://www.assero.co.uk/MDRSdtmM/CDISC/V3#M-CDISC_SDTMMODEL_C_QUALIFIER_SC_RECORDQUALIFIER> . 
<http://www.assero.co.uk/MDRSdtmM/CDISC/V3#M-CDISC_SDTMMODEL> bd:includesVariable <http://www.assero.co.uk/MDRSdtmM/CDISC/V3#M-CDISC_SDTMMODEL_xxPOS> . 
<http://www.assero.co.uk/MDRSdtmM/CDISC/V3#M-CDISC_SDTMMODEL_xxORRES> rdf:type <http://www.assero.co.uk/BusinessDomain#ModelVariable> . 
<http://www.assero.co.uk/MDRSdtmM/CDISC/V3#M-CDISC_SDTMMODEL_xxORRES> rdfs:label "Result or Finding in Original Units"^^xsd:string . 
<http://www.assero.co.uk/MDRSdtmM/CDISC/V3#M-CDISC_SDTMMODEL_xxORRES> bd:ordinal "9"^^xsd:positiveInteger . 
<http://www.assero.co.uk/MDRSdtmM/CDISC/V3#M-CDISC_SDTMMODEL_xxORRES> bd:rule ""^^xsd:string . 
<http://www.assero.co.uk/MDRSdtmM/CDISC/V3#M-CDISC_SDTMMODEL_xxORRES> bd:name "--ORRES"^^xsd:string . 
<http://www.assero.co.uk/MDRSdtmM/CDISC/V3#M-CDISC_SDTMMODEL_xxORRES> bd:prefixed "true"^^xsd:boolean . 
<http://www.assero.co.uk/MDRSdtmM/CDISC/V3#M-CDISC_SDTMMODEL_xxORRES> bd:description "Result of the measurement or finding as originally received or collected. Examples: 120, <1, POS."^^xsd:string . 
<http://www.assero.co.uk/MDRSdtmM/CDISC/V3#M-CDISC_SDTMMODEL_xxORRES> bd:typedAs <http://www.assero.co.uk/MDRSdtmM/CDISC/V3#M-CDISC_SDTMMODEL_DT_CHAR> . 
<http://www.assero.co.uk/MDRSdtmM/CDISC/V3#M-CDISC_SDTMMODEL_xxORRES> bd:classifiedAs <http://www.assero.co.uk/MDRSdtmM/CDISC/V3#M-CDISC_SDTMMODEL_C_QUALIFIER_SC_RESULTQUALIFIER> . 
<http://www.assero.co.uk/MDRSdtmM/CDISC/V3#M-CDISC_SDTMMODEL> bd:includesVariable <http://www.assero.co.uk/MDRSdtmM/CDISC/V3#M-CDISC_SDTMMODEL_xxORRES> . 
<http://www.assero.co.uk/MDRSdtmM/CDISC/V3#M-CDISC_SDTMMODEL_xxORRESU> rdf:type <http://www.assero.co.uk/BusinessDomain#ModelVariable> . 
<http://www.assero.co.uk/MDRSdtmM/CDISC/V3#M-CDISC_SDTMMODEL_xxORRESU> rdfs:label "Original Units"^^xsd:string . 
<http://www.assero.co.uk/MDRSdtmM/CDISC/V3#M-CDISC_SDTMMODEL_xxORRESU> bd:ordinal "10"^^xsd:positiveInteger . 
<http://www.assero.co.uk/MDRSdtmM/CDISC/V3#M-CDISC_SDTMMODEL_xxORRESU> bd:rule ""^^xsd:string . 
<http://www.assero.co.uk/MDRSdtmM/CDISC/V3#M-CDISC_SDTMMODEL_xxORRESU> bd:name "--ORRESU"^^xsd:string . 
<http://www.assero.co.uk/MDRSdtmM/CDISC/V3#M-CDISC_SDTMMODEL_xxORRESU> bd:prefixed "true"^^xsd:boolean . 
<http://www.assero.co.uk/MDRSdtmM/CDISC/V3#M-CDISC_SDTMMODEL_xxORRESU> bd:description "Unit for --ORRES. Examples: IN, LB, kg/L."^^xsd:string . 
<http://www.assero.co.uk/MDRSdtmM/CDISC/V3#M-CDISC_SDTMMODEL_xxORRESU> bd:typedAs <http://www.assero.co.uk/MDRSdtmM/CDISC/V3#M-CDISC_SDTMMODEL_DT_CHAR> . 
<http://www.assero.co.uk/MDRSdtmM/CDISC/V3#M-CDISC_SDTMMODEL_xxORRESU> bd:classifiedAs <http://www.assero.co.uk/MDRSdtmM/CDISC/V3#M-CDISC_SDTMMODEL_C_QUALIFIER_SC_VARIABLEQUALIFIER> . 
<http://www.assero.co.uk/MDRSdtmM/CDISC/V3#M-CDISC_SDTMMODEL> bd:includesVariable <http://www.assero.co.uk/MDRSdtmM/CDISC/V3#M-CDISC_SDTMMODEL_xxORRESU> . 
<http://www.assero.co.uk/MDRSdtmM/CDISC/V3#M-CDISC_SDTMMODEL_xxORNRLO> rdf:type <http://www.assero.co.uk/BusinessDomain#ModelVariable> . 
<http://www.assero.co.uk/MDRSdtmM/CDISC/V3#M-CDISC_SDTMMODEL_xxORNRLO> rdfs:label "Normal Range Lower Limit-Original Units"^^xsd:string . 
<http://www.assero.co.uk/MDRSdtmM/CDISC/V3#M-CDISC_SDTMMODEL_xxORNRLO> bd:ordinal "11"^^xsd:positiveInteger . 
<http://www.assero.co.uk/MDRSdtmM/CDISC/V3#M-CDISC_SDTMMODEL_xxORNRLO> bd:rule ""^^xsd:string . 
<http://www.assero.co.uk/MDRSdtmM/CDISC/V3#M-CDISC_SDTMMODEL_xxORNRLO> bd:name "--ORNRLO"^^xsd:string . 
<http://www.assero.co.uk/MDRSdtmM/CDISC/V3#M-CDISC_SDTMMODEL_xxORNRLO> bd:prefixed "true"^^xsd:boolean . 
<http://www.assero.co.uk/MDRSdtmM/CDISC/V3#M-CDISC_SDTMMODEL_xxORNRLO> bd:description "Lower end of normal range or reference range for results stored in --ORRES."^^xsd:string . 
<http://www.assero.co.uk/MDRSdtmM/CDISC/V3#M-CDISC_SDTMMODEL_xxORNRLO> bd:typedAs <http://www.assero.co.uk/MDRSdtmM/CDISC/V3#M-CDISC_SDTMMODEL_DT_CHAR> . 
<http://www.assero.co.uk/MDRSdtmM/CDISC/V3#M-CDISC_SDTMMODEL_xxORNRLO> bd:classifiedAs <http://www.assero.co.uk/MDRSdtmM/CDISC/V3#M-CDISC_SDTMMODEL_C_QUALIFIER_SC_VARIABLEQUALIFIER> . 
<http://www.assero.co.uk/MDRSdtmM/CDISC/V3#M-CDISC_SDTMMODEL> bd:includesVariable <http://www.assero.co.uk/MDRSdtmM/CDISC/V3#M-CDISC_SDTMMODEL_xxORNRLO> . 
<http://www.assero.co.uk/MDRSdtmM/CDISC/V3#M-CDISC_SDTMMODEL_xxORNRHI> rdf:type <http://www.assero.co.uk/BusinessDomain#ModelVariable> . 
<http://www.assero.co.uk/MDRSdtmM/CDISC/V3#M-CDISC_SDTMMODEL_xxORNRHI> rdfs:label "Normal Range Upper Limit-Original Units"^^xsd:string . 
<http://www.assero.co.uk/MDRSdtmM/CDISC/V3#M-CDISC_SDTMMODEL_xxORNRHI> bd:ordinal "12"^^xsd:positiveInteger . 
<http://www.assero.co.uk/MDRSdtmM/CDISC/V3#M-CDISC_SDTMMODEL_xxORNRHI> bd:rule ""^^xsd:string . 
<http://www.assero.co.uk/MDRSdtmM/CDISC/V3#M-CDISC_SDTMMODEL_xxORNRHI> bd:name "--ORNRHI"^^xsd:string . 
<http://www.assero.co.uk/MDRSdtmM/CDISC/V3#M-CDISC_SDTMMODEL_xxORNRHI> bd:prefixed "true"^^xsd:boolean . 
<http://www.assero.co.uk/MDRSdtmM/CDISC/V3#M-CDISC_SDTMMODEL_xxORNRHI> bd:description "Upper end of normal range or reference range for results stored in --ORRES."^^xsd:string . 
<http://www.assero.co.uk/MDRSdtmM/CDISC/V3#M-CDISC_SDTMMODEL_xxORNRHI> bd:typedAs <http://www.assero.co.uk/MDRSdtmM/CDISC/V3#M-CDISC_SDTMMODEL_DT_CHAR> . 
<http://www.assero.co.uk/MDRSdtmM/CDISC/V3#M-CDISC_SDTMMODEL_xxORNRHI> bd:classifiedAs <http://www.assero.co.uk/MDRSdtmM/CDISC/V3#M-CDISC_SDTMMODEL_C_QUALIFIER_SC_VARIABLEQUALIFIER> . 
<http://www.assero.co.uk/MDRSdtmM/CDISC/V3#M-CDISC_SDTMMODEL> bd:includesVariable <http://www.assero.co.uk/MDRSdtmM/CDISC/V3#M-CDISC_SDTMMODEL_xxORNRHI> . 
<http://www.assero.co.uk/MDRSdtmM/CDISC/V3#M-CDISC_SDTMMODEL_xxSTRESC> rdf:type <http://www.assero.co.uk/BusinessDomain#ModelVariable> . 
<http://www.assero.co.uk/MDRSdtmM/CDISC/V3#M-CDISC_SDTMMODEL_xxSTRESC> rdfs:label "Result or Finding in Standard Format"^^xsd:string . 
<http://www.assero.co.uk/MDRSdtmM/CDISC/V3#M-CDISC_SDTMMODEL_xxSTRESC> bd:ordinal "13"^^xsd:positiveInteger . 
<http://www.assero.co.uk/MDRSdtmM/CDISC/V3#M-CDISC_SDTMMODEL_xxSTRESC> bd:rule ""^^xsd:string . 
<http://www.assero.co.uk/MDRSdtmM/CDISC/V3#M-CDISC_SDTMMODEL_xxSTRESC> bd:name "--STRESC"^^xsd:string . 
<http://www.assero.co.uk/MDRSdtmM/CDISC/V3#M-CDISC_SDTMMODEL_xxSTRESC> bd:prefixed "true"^^xsd:boolean . 
<http://www.assero.co.uk/MDRSdtmM/CDISC/V3#M-CDISC_SDTMMODEL_xxSTRESC> bd:description "Contains the result value for all findings, copied or derived from --ORRES in a standard format or in standard units. --STRESC should store all results or findings in character format; if results are numeric, they should also be stored in numeric format in --STRESN. For example, if various tests have results “NONE”, “NEG”, and “NEGATIVE” in --ORRES and these results effectively have the same meaning, they could be represented in standard format in --STRESC as \"NEGATIVE\"."^^xsd:string . 
<http://www.assero.co.uk/MDRSdtmM/CDISC/V3#M-CDISC_SDTMMODEL_xxSTRESC> bd:typedAs <http://www.assero.co.uk/MDRSdtmM/CDISC/V3#M-CDISC_SDTMMODEL_DT_CHAR> . 
<http://www.assero.co.uk/MDRSdtmM/CDISC/V3#M-CDISC_SDTMMODEL_xxSTRESC> bd:classifiedAs <http://www.assero.co.uk/MDRSdtmM/CDISC/V3#M-CDISC_SDTMMODEL_C_QUALIFIER_SC_RESULTQUALIFIER> . 
<http://www.assero.co.uk/MDRSdtmM/CDISC/V3#M-CDISC_SDTMMODEL> bd:includesVariable <http://www.assero.co.uk/MDRSdtmM/CDISC/V3#M-CDISC_SDTMMODEL_xxSTRESC> . 
<http://www.assero.co.uk/MDRSdtmM/CDISC/V3#M-CDISC_SDTMMODEL_xxSTRESN> rdf:type <http://www.assero.co.uk/BusinessDomain#ModelVariable> . 
<http://www.assero.co.uk/MDRSdtmM/CDISC/V3#M-CDISC_SDTMMODEL_xxSTRESN> rdfs:label "Numeric Result/Finding in Standard Units"^^xsd:string . 
<http://www.assero.co.uk/MDRSdtmM/CDISC/V3#M-CDISC_SDTMMODEL_xxSTRESN> bd:ordinal "14"^^xsd:positiveInteger . 
<http://www.assero.co.uk/MDRSdtmM/CDISC/V3#M-CDISC_SDTMMODEL_xxSTRESN> bd:rule ""^^xsd:string . 
<http://www.assero.co.uk/MDRSdtmM/CDISC/V3#M-CDISC_SDTMMODEL_xxSTRESN> bd:name "--STRESN"^^xsd:string . 
<http://www.assero.co.uk/MDRSdtmM/CDISC/V3#M-CDISC_SDTMMODEL_xxSTRESN> bd:prefixed "true"^^xsd:boolean . 
<http://www.assero.co.uk/MDRSdtmM/CDISC/V3#M-CDISC_SDTMMODEL_xxSTRESN> bd:description "Used for continuous or numeric results or findings in standard format; copied in numeric format from --STRESC. --STRESN should store all numeric test results or findings."^^xsd:string . 
<http://www.assero.co.uk/MDRSdtmM/CDISC/V3#M-CDISC_SDTMMODEL_xxSTRESN> bd:typedAs <http://www.assero.co.uk/MDRSdtmM/CDISC/V3#M-CDISC_SDTMMODEL_DT_NUM> . 
<http://www.assero.co.uk/MDRSdtmM/CDISC/V3#M-CDISC_SDTMMODEL_xxSTRESN> bd:classifiedAs <http://www.assero.co.uk/MDRSdtmM/CDISC/V3#M-CDISC_SDTMMODEL_C_QUALIFIER_SC_RESULTQUALIFIER> . 
<http://www.assero.co.uk/MDRSdtmM/CDISC/V3#M-CDISC_SDTMMODEL> bd:includesVariable <http://www.assero.co.uk/MDRSdtmM/CDISC/V3#M-CDISC_SDTMMODEL_xxSTRESN> . 
<http://www.assero.co.uk/MDRSdtmM/CDISC/V3#M-CDISC_SDTMMODEL_xxSTRESU> rdf:type <http://www.assero.co.uk/BusinessDomain#ModelVariable> . 
<http://www.assero.co.uk/MDRSdtmM/CDISC/V3#M-CDISC_SDTMMODEL_xxSTRESU> rdfs:label "Standard Units"^^xsd:string . 
<http://www.assero.co.uk/MDRSdtmM/CDISC/V3#M-CDISC_SDTMMODEL_xxSTRESU> bd:ordinal "15"^^xsd:positiveInteger . 
<http://www.assero.co.uk/MDRSdtmM/CDISC/V3#M-CDISC_SDTMMODEL_xxSTRESU> bd:rule ""^^xsd:string . 
<http://www.assero.co.uk/MDRSdtmM/CDISC/V3#M-CDISC_SDTMMODEL_xxSTRESU> bd:name "--STRESU"^^xsd:string . 
<http://www.assero.co.uk/MDRSdtmM/CDISC/V3#M-CDISC_SDTMMODEL_xxSTRESU> bd:prefixed "true"^^xsd:boolean . 
<http://www.assero.co.uk/MDRSdtmM/CDISC/V3#M-CDISC_SDTMMODEL_xxSTRESU> bd:description "Standardized units used for --STRESC and --STRESN. Example: mol/L."^^xsd:string . 
<http://www.assero.co.uk/MDRSdtmM/CDISC/V3#M-CDISC_SDTMMODEL_xxSTRESU> bd:typedAs <http://www.assero.co.uk/MDRSdtmM/CDISC/V3#M-CDISC_SDTMMODEL_DT_CHAR> . 
<http://www.assero.co.uk/MDRSdtmM/CDISC/V3#M-CDISC_SDTMMODEL_xxSTRESU> bd:classifiedAs <http://www.assero.co.uk/MDRSdtmM/CDISC/V3#M-CDISC_SDTMMODEL_C_QUALIFIER_SC_VARIABLEQUALIFIER> . 
<http://www.assero.co.uk/MDRSdtmM/CDISC/V3#M-CDISC_SDTMMODEL> bd:includesVariable <http://www.assero.co.uk/MDRSdtmM/CDISC/V3#M-CDISC_SDTMMODEL_xxSTRESU> . 
<http://www.assero.co.uk/MDRSdtmM/CDISC/V3#M-CDISC_SDTMMODEL_xxSTNRLO> rdf:type <http://www.assero.co.uk/BusinessDomain#ModelVariable> . 
<http://www.assero.co.uk/MDRSdtmM/CDISC/V3#M-CDISC_SDTMMODEL_xxSTNRLO> rdfs:label "Normal Range Lower Limit-Standard Units"^^xsd:string . 
<http://www.assero.co.uk/MDRSdtmM/CDISC/V3#M-CDISC_SDTMMODEL_xxSTNRLO> bd:ordinal "16"^^xsd:positiveInteger . 
<http://www.assero.co.uk/MDRSdtmM/CDISC/V3#M-CDISC_SDTMMODEL_xxSTNRLO> bd:rule ""^^xsd:string . 
<http://www.assero.co.uk/MDRSdtmM/CDISC/V3#M-CDISC_SDTMMODEL_xxSTNRLO> bd:name "--STNRLO"^^xsd:string . 
<http://www.assero.co.uk/MDRSdtmM/CDISC/V3#M-CDISC_SDTMMODEL_xxSTNRLO> bd:prefixed "true"^^xsd:boolean . 
<http://www.assero.co.uk/MDRSdtmM/CDISC/V3#M-CDISC_SDTMMODEL_xxSTNRLO> bd:description "Lower end of normal range or reference range for standardized results (e.g., --STRESC, --STRESN) represented in standardized units (--STRESU)."^^xsd:string . 
<http://www.assero.co.uk/MDRSdtmM/CDISC/V3#M-CDISC_SDTMMODEL_xxSTNRLO> bd:typedAs <http://www.assero.co.uk/MDRSdtmM/CDISC/V3#M-CDISC_SDTMMODEL_DT_NUM> . 
<http://www.assero.co.uk/MDRSdtmM/CDISC/V3#M-CDISC_SDTMMODEL_xxSTNRLO> bd:classifiedAs <http://www.assero.co.uk/MDRSdtmM/CDISC/V3#M-CDISC_SDTMMODEL_C_QUALIFIER_SC_VARIABLEQUALIFIER> . 
<http://www.assero.co.uk/MDRSdtmM/CDISC/V3#M-CDISC_SDTMMODEL> bd:includesVariable <http://www.assero.co.uk/MDRSdtmM/CDISC/V3#M-CDISC_SDTMMODEL_xxSTNRLO> . 
<http://www.assero.co.uk/MDRSdtmM/CDISC/V3#M-CDISC_SDTMMODEL_xxSTNRHI> rdf:type <http://www.assero.co.uk/BusinessDomain#ModelVariable> . 
<http://www.assero.co.uk/MDRSdtmM/CDISC/V3#M-CDISC_SDTMMODEL_xxSTNRHI> rdfs:label "Normal Range Upper Limit-Standard Units"^^xsd:string . 
<http://www.assero.co.uk/MDRSdtmM/CDISC/V3#M-CDISC_SDTMMODEL_xxSTNRHI> bd:ordinal "17"^^xsd:positiveInteger . 
<http://www.assero.co.uk/MDRSdtmM/CDISC/V3#M-CDISC_SDTMMODEL_xxSTNRHI> bd:rule ""^^xsd:string . 
<http://www.assero.co.uk/MDRSdtmM/CDISC/V3#M-CDISC_SDTMMODEL_xxSTNRHI> bd:name "--STNRHI"^^xsd:string . 
<http://www.assero.co.uk/MDRSdtmM/CDISC/V3#M-CDISC_SDTMMODEL_xxSTNRHI> bd:prefixed "true"^^xsd:boolean . 
<http://www.assero.co.uk/MDRSdtmM/CDISC/V3#M-CDISC_SDTMMODEL_xxSTNRHI> bd:description "Upper end of normal range or reference range for standardized results (e.g., --STRESC, --STRESN) represented in standardized units (--STRESU)."^^xsd:string . 
<http://www.assero.co.uk/MDRSdtmM/CDISC/V3#M-CDISC_SDTMMODEL_xxSTNRHI> bd:typedAs <http://www.assero.co.uk/MDRSdtmM/CDISC/V3#M-CDISC_SDTMMODEL_DT_NUM> . 
<http://www.assero.co.uk/MDRSdtmM/CDISC/V3#M-CDISC_SDTMMODEL_xxSTNRHI> bd:classifiedAs <http://www.assero.co.uk/MDRSdtmM/CDISC/V3#M-CDISC_SDTMMODEL_C_QUALIFIER_SC_VARIABLEQUALIFIER> . 
<http://www.assero.co.uk/MDRSdtmM/CDISC/V3#M-CDISC_SDTMMODEL> bd:includesVariable <http://www.assero.co.uk/MDRSdtmM/CDISC/V3#M-CDISC_SDTMMODEL_xxSTNRHI> . 
<http://www.assero.co.uk/MDRSdtmM/CDISC/V3#M-CDISC_SDTMMODEL_xxSTNRC> rdf:type <http://www.assero.co.uk/BusinessDomain#ModelVariable> . 
<http://www.assero.co.uk/MDRSdtmM/CDISC/V3#M-CDISC_SDTMMODEL_xxSTNRC> rdfs:label "Normal Range for Character Results"^^xsd:string . 
<http://www.assero.co.uk/MDRSdtmM/CDISC/V3#M-CDISC_SDTMMODEL_xxSTNRC> bd:ordinal "18"^^xsd:positiveInteger . 
<http://www.assero.co.uk/MDRSdtmM/CDISC/V3#M-CDISC_SDTMMODEL_xxSTNRC> bd:rule ""^^xsd:string . 
<http://www.assero.co.uk/MDRSdtmM/CDISC/V3#M-CDISC_SDTMMODEL_xxSTNRC> bd:name "--STNRC"^^xsd:string . 
<http://www.assero.co.uk/MDRSdtmM/CDISC/V3#M-CDISC_SDTMMODEL_xxSTNRC> bd:prefixed "true"^^xsd:boolean . 
<http://www.assero.co.uk/MDRSdtmM/CDISC/V3#M-CDISC_SDTMMODEL_xxSTNRC> bd:description "Normal range or reference range for results stored in --STRESC that are character in ordinal or categorical scale. Example: Negative to Trace."^^xsd:string . 
<http://www.assero.co.uk/MDRSdtmM/CDISC/V3#M-CDISC_SDTMMODEL_xxSTNRC> bd:typedAs <http://www.assero.co.uk/MDRSdtmM/CDISC/V3#M-CDISC_SDTMMODEL_DT_CHAR> . 
<http://www.assero.co.uk/MDRSdtmM/CDISC/V3#M-CDISC_SDTMMODEL_xxSTNRC> bd:classifiedAs <http://www.assero.co.uk/MDRSdtmM/CDISC/V3#M-CDISC_SDTMMODEL_C_QUALIFIER_SC_VARIABLEQUALIFIER> . 
<http://www.assero.co.uk/MDRSdtmM/CDISC/V3#M-CDISC_SDTMMODEL> bd:includesVariable <http://www.assero.co.uk/MDRSdtmM/CDISC/V3#M-CDISC_SDTMMODEL_xxSTNRC> . 
<http://www.assero.co.uk/MDRSdtmM/CDISC/V3#M-CDISC_SDTMMODEL_xxNRIND> rdf:type <http://www.assero.co.uk/BusinessDomain#ModelVariable> . 
<http://www.assero.co.uk/MDRSdtmM/CDISC/V3#M-CDISC_SDTMMODEL_xxNRIND> rdfs:label "Normal/Reference Range Indicator"^^xsd:string . 
<http://www.assero.co.uk/MDRSdtmM/CDISC/V3#M-CDISC_SDTMMODEL_xxNRIND> bd:ordinal "19"^^xsd:positiveInteger . 
<http://www.assero.co.uk/MDRSdtmM/CDISC/V3#M-CDISC_SDTMMODEL_xxNRIND> bd:rule ""^^xsd:string . 
<http://www.assero.co.uk/MDRSdtmM/CDISC/V3#M-CDISC_SDTMMODEL_xxNRIND> bd:name "--NRIND"^^xsd:string . 
<http://www.assero.co.uk/MDRSdtmM/CDISC/V3#M-CDISC_SDTMMODEL_xxNRIND> bd:prefixed "true"^^xsd:boolean . 
<http://www.assero.co.uk/MDRSdtmM/CDISC/V3#M-CDISC_SDTMMODEL_xxNRIND> bd:description "Used to indicate the value is outside the normal range or reference range. May be defined by --ORNRLO and --ORNRHI or other objective criteria. Examples: Y, N; HIGH, LOW; NORMAL; ABNORMAL."^^xsd:string . 
<http://www.assero.co.uk/MDRSdtmM/CDISC/V3#M-CDISC_SDTMMODEL_xxNRIND> bd:typedAs <http://www.assero.co.uk/MDRSdtmM/CDISC/V3#M-CDISC_SDTMMODEL_DT_CHAR> . 
<http://www.assero.co.uk/MDRSdtmM/CDISC/V3#M-CDISC_SDTMMODEL_xxNRIND> bd:classifiedAs <http://www.assero.co.uk/MDRSdtmM/CDISC/V3#M-CDISC_SDTMMODEL_C_QUALIFIER_SC_VARIABLEQUALIFIER> . 
<http://www.assero.co.uk/MDRSdtmM/CDISC/V3#M-CDISC_SDTMMODEL> bd:includesVariable <http://www.assero.co.uk/MDRSdtmM/CDISC/V3#M-CDISC_SDTMMODEL_xxNRIND> . 
<http://www.assero.co.uk/MDRSdtmM/CDISC/V3#M-CDISC_SDTMMODEL_xxRESCAT> rdf:type <http://www.assero.co.uk/BusinessDomain#ModelVariable> . 
<http://www.assero.co.uk/MDRSdtmM/CDISC/V3#M-CDISC_SDTMMODEL_xxRESCAT> rdfs:label "Result Category"^^xsd:string . 
<http://www.assero.co.uk/MDRSdtmM/CDISC/V3#M-CDISC_SDTMMODEL_xxRESCAT> bd:ordinal "20"^^xsd:positiveInteger . 
<http://www.assero.co.uk/MDRSdtmM/CDISC/V3#M-CDISC_SDTMMODEL_xxRESCAT> bd:rule ""^^xsd:string . 
<http://www.assero.co.uk/MDRSdtmM/CDISC/V3#M-CDISC_SDTMMODEL_xxRESCAT> bd:name "--RESCAT"^^xsd:string . 
<http://www.assero.co.uk/MDRSdtmM/CDISC/V3#M-CDISC_SDTMMODEL_xxRESCAT> bd:prefixed "true"^^xsd:boolean . 
<http://www.assero.co.uk/MDRSdtmM/CDISC/V3#M-CDISC_SDTMMODEL_xxRESCAT> bd:description "Used to categorize the result of a finding. Example: MALIGNANT or BENIGN for tumor findings. RESISTANCE VARIANT for genetic variation."^^xsd:string . 
<http://www.assero.co.uk/MDRSdtmM/CDISC/V3#M-CDISC_SDTMMODEL_xxRESCAT> bd:typedAs <http://www.assero.co.uk/MDRSdtmM/CDISC/V3#M-CDISC_SDTMMODEL_DT_CHAR> . 
<http://www.assero.co.uk/MDRSdtmM/CDISC/V3#M-CDISC_SDTMMODEL_xxRESCAT> bd:classifiedAs <http://www.assero.co.uk/MDRSdtmM/CDISC/V3#M-CDISC_SDTMMODEL_C_QUALIFIER_SC_VARIABLEQUALIFIER> . 
<http://www.assero.co.uk/MDRSdtmM/CDISC/V3#M-CDISC_SDTMMODEL> bd:includesVariable <http://www.assero.co.uk/MDRSdtmM/CDISC/V3#M-CDISC_SDTMMODEL_xxRESCAT> . 
<http://www.assero.co.uk/MDRSdtmM/CDISC/V3#M-CDISC_SDTMMODEL_xxXFN> rdf:type <http://www.assero.co.uk/BusinessDomain#ModelVariable> . 
<http://www.assero.co.uk/MDRSdtmM/CDISC/V3#M-CDISC_SDTMMODEL_xxXFN> rdfs:label "External File Path"^^xsd:string . 
<http://www.assero.co.uk/MDRSdtmM/CDISC/V3#M-CDISC_SDTMMODEL_xxXFN> bd:ordinal "23"^^xsd:positiveInteger . 
<http://www.assero.co.uk/MDRSdtmM/CDISC/V3#M-CDISC_SDTMMODEL_xxXFN> bd:rule ""^^xsd:string . 
<http://www.assero.co.uk/MDRSdtmM/CDISC/V3#M-CDISC_SDTMMODEL_xxXFN> bd:name "--XFN"^^xsd:string . 
<http://www.assero.co.uk/MDRSdtmM/CDISC/V3#M-CDISC_SDTMMODEL_xxXFN> bd:prefixed "true"^^xsd:boolean . 
<http://www.assero.co.uk/MDRSdtmM/CDISC/V3#M-CDISC_SDTMMODEL_xxXFN> bd:description "Filename for an external file, such as one for an ECG waveform or a medical image."^^xsd:string . 
<http://www.assero.co.uk/MDRSdtmM/CDISC/V3#M-CDISC_SDTMMODEL_xxXFN> bd:typedAs <http://www.assero.co.uk/MDRSdtmM/CDISC/V3#M-CDISC_SDTMMODEL_DT_CHAR> . 
<http://www.assero.co.uk/MDRSdtmM/CDISC/V3#M-CDISC_SDTMMODEL_xxXFN> bd:classifiedAs <http://www.assero.co.uk/MDRSdtmM/CDISC/V3#M-CDISC_SDTMMODEL_C_QUALIFIER_SC_RECORDQUALIFIER> . 
<http://www.assero.co.uk/MDRSdtmM/CDISC/V3#M-CDISC_SDTMMODEL> bd:includesVariable <http://www.assero.co.uk/MDRSdtmM/CDISC/V3#M-CDISC_SDTMMODEL_xxXFN> . 
<http://www.assero.co.uk/MDRSdtmM/CDISC/V3#M-CDISC_SDTMMODEL_xxNAM> rdf:type <http://www.assero.co.uk/BusinessDomain#ModelVariable> . 
<http://www.assero.co.uk/MDRSdtmM/CDISC/V3#M-CDISC_SDTMMODEL_xxNAM> rdfs:label "Laboratory/Vendor Name"^^xsd:string . 
<http://www.assero.co.uk/MDRSdtmM/CDISC/V3#M-CDISC_SDTMMODEL_xxNAM> bd:ordinal "24"^^xsd:positiveInteger . 
<http://www.assero.co.uk/MDRSdtmM/CDISC/V3#M-CDISC_SDTMMODEL_xxNAM> bd:rule ""^^xsd:string . 
<http://www.assero.co.uk/MDRSdtmM/CDISC/V3#M-CDISC_SDTMMODEL_xxNAM> bd:name "--NAM"^^xsd:string . 
<http://www.assero.co.uk/MDRSdtmM/CDISC/V3#M-CDISC_SDTMMODEL_xxNAM> bd:prefixed "true"^^xsd:boolean . 
<http://www.assero.co.uk/MDRSdtmM/CDISC/V3#M-CDISC_SDTMMODEL_xxNAM> bd:description "Name or identifier of the vendor (e.g., laboratory) that provided the test results."^^xsd:string . 
<http://www.assero.co.uk/MDRSdtmM/CDISC/V3#M-CDISC_SDTMMODEL_xxNAM> bd:typedAs <http://www.assero.co.uk/MDRSdtmM/CDISC/V3#M-CDISC_SDTMMODEL_DT_CHAR> . 
<http://www.assero.co.uk/MDRSdtmM/CDISC/V3#M-CDISC_SDTMMODEL_xxNAM> bd:classifiedAs <http://www.assero.co.uk/MDRSdtmM/CDISC/V3#M-CDISC_SDTMMODEL_C_QUALIFIER_SC_RECORDQUALIFIER> . 
<http://www.assero.co.uk/MDRSdtmM/CDISC/V3#M-CDISC_SDTMMODEL> bd:includesVariable <http://www.assero.co.uk/MDRSdtmM/CDISC/V3#M-CDISC_SDTMMODEL_xxNAM> . 
<http://www.assero.co.uk/MDRSdtmM/CDISC/V3#M-CDISC_SDTMMODEL_xxLOINC> rdf:type <http://www.assero.co.uk/BusinessDomain#ModelVariable> . 
<http://www.assero.co.uk/MDRSdtmM/CDISC/V3#M-CDISC_SDTMMODEL_xxLOINC> rdfs:label "LOINC Code"^^xsd:string . 
<http://www.assero.co.uk/MDRSdtmM/CDISC/V3#M-CDISC_SDTMMODEL_xxLOINC> bd:ordinal "25"^^xsd:positiveInteger . 
<http://www.assero.co.uk/MDRSdtmM/CDISC/V3#M-CDISC_SDTMMODEL_xxLOINC> bd:rule ""^^xsd:string . 
<http://www.assero.co.uk/MDRSdtmM/CDISC/V3#M-CDISC_SDTMMODEL_xxLOINC> bd:name "--LOINC"^^xsd:string . 
<http://www.assero.co.uk/MDRSdtmM/CDISC/V3#M-CDISC_SDTMMODEL_xxLOINC> bd:prefixed "true"^^xsd:boolean . 
<http://www.assero.co.uk/MDRSdtmM/CDISC/V3#M-CDISC_SDTMMODEL_xxLOINC> bd:description "Logical Observation Identifiers Names and Codes (LOINC) code for the topic variable such as a lab test."^^xsd:string . 
<http://www.assero.co.uk/MDRSdtmM/CDISC/V3#M-CDISC_SDTMMODEL_xxLOINC> bd:typedAs <http://www.assero.co.uk/MDRSdtmM/CDISC/V3#M-CDISC_SDTMMODEL_DT_CHAR> . 
<http://www.assero.co.uk/MDRSdtmM/CDISC/V3#M-CDISC_SDTMMODEL_xxLOINC> bd:classifiedAs <http://www.assero.co.uk/MDRSdtmM/CDISC/V3#M-CDISC_SDTMMODEL_C_QUALIFIER_SC_SYNONYMQUALIFIER> . 
<http://www.assero.co.uk/MDRSdtmM/CDISC/V3#M-CDISC_SDTMMODEL> bd:includesVariable <http://www.assero.co.uk/MDRSdtmM/CDISC/V3#M-CDISC_SDTMMODEL_xxLOINC> . 
<http://www.assero.co.uk/MDRSdtmM/CDISC/V3#M-CDISC_SDTMMODEL_xxSPEC> rdf:type <http://www.assero.co.uk/BusinessDomain#ModelVariable> . 
<http://www.assero.co.uk/MDRSdtmM/CDISC/V3#M-CDISC_SDTMMODEL_xxSPEC> rdfs:label "Specimen Material Type"^^xsd:string . 
<http://www.assero.co.uk/MDRSdtmM/CDISC/V3#M-CDISC_SDTMMODEL_xxSPEC> bd:ordinal "26"^^xsd:positiveInteger . 
<http://www.assero.co.uk/MDRSdtmM/CDISC/V3#M-CDISC_SDTMMODEL_xxSPEC> bd:rule ""^^xsd:string . 
<http://www.assero.co.uk/MDRSdtmM/CDISC/V3#M-CDISC_SDTMMODEL_xxSPEC> bd:name "--SPEC"^^xsd:string . 
<http://www.assero.co.uk/MDRSdtmM/CDISC/V3#M-CDISC_SDTMMODEL_xxSPEC> bd:prefixed "true"^^xsd:boolean . 
<http://www.assero.co.uk/MDRSdtmM/CDISC/V3#M-CDISC_SDTMMODEL_xxSPEC> bd:description "Defines the type of specimen used for a measurement. Examples: SERUM, PLASMA, URINE, DNA, RNA."^^xsd:string . 
<http://www.assero.co.uk/MDRSdtmM/CDISC/V3#M-CDISC_SDTMMODEL_xxSPEC> bd:typedAs <http://www.assero.co.uk/MDRSdtmM/CDISC/V3#M-CDISC_SDTMMODEL_DT_CHAR> . 
<http://www.assero.co.uk/MDRSdtmM/CDISC/V3#M-CDISC_SDTMMODEL_xxSPEC> bd:classifiedAs <http://www.assero.co.uk/MDRSdtmM/CDISC/V3#M-CDISC_SDTMMODEL_C_QUALIFIER_SC_RECORDQUALIFIER> . 
<http://www.assero.co.uk/MDRSdtmM/CDISC/V3#M-CDISC_SDTMMODEL> bd:includesVariable <http://www.assero.co.uk/MDRSdtmM/CDISC/V3#M-CDISC_SDTMMODEL_xxSPEC> . 
<http://www.assero.co.uk/MDRSdtmM/CDISC/V3#M-CDISC_SDTMMODEL_xxANTREG> rdf:type <http://www.assero.co.uk/BusinessDomain#ModelVariable> . 
<http://www.assero.co.uk/MDRSdtmM/CDISC/V3#M-CDISC_SDTMMODEL_xxANTREG> rdfs:label "Anatomical Region"^^xsd:string . 
<http://www.assero.co.uk/MDRSdtmM/CDISC/V3#M-CDISC_SDTMMODEL_xxANTREG> bd:ordinal "27"^^xsd:positiveInteger . 
<http://www.assero.co.uk/MDRSdtmM/CDISC/V3#M-CDISC_SDTMMODEL_xxANTREG> bd:rule ""^^xsd:string . 
<http://www.assero.co.uk/MDRSdtmM/CDISC/V3#M-CDISC_SDTMMODEL_xxANTREG> bd:name "--ANTREG"^^xsd:string . 
<http://www.assero.co.uk/MDRSdtmM/CDISC/V3#M-CDISC_SDTMMODEL_xxANTREG> bd:prefixed "true"^^xsd:boolean . 
<http://www.assero.co.uk/MDRSdtmM/CDISC/V3#M-CDISC_SDTMMODEL_xxANTREG> bd:description "Defines the specific anatomical or biological region of a tissue, organ specimen or the region from which the specimen is obtained, as defined in the protocol, such as a section or part of what is described in the --SPEC variable. Examples: CORTEX, MEDULLA, MUCOSA"^^xsd:string . 
<http://www.assero.co.uk/MDRSdtmM/CDISC/V3#M-CDISC_SDTMMODEL_xxANTREG> bd:typedAs <http://www.assero.co.uk/MDRSdtmM/CDISC/V3#M-CDISC_SDTMMODEL_DT_CHAR> . 
<http://www.assero.co.uk/MDRSdtmM/CDISC/V3#M-CDISC_SDTMMODEL_xxANTREG> bd:classifiedAs <http://www.assero.co.uk/MDRSdtmM/CDISC/V3#M-CDISC_SDTMMODEL_C_QUALIFIER_SC_VARIABLEQUALIFIER> . 
<http://www.assero.co.uk/MDRSdtmM/CDISC/V3#M-CDISC_SDTMMODEL> bd:includesVariable <http://www.assero.co.uk/MDRSdtmM/CDISC/V3#M-CDISC_SDTMMODEL_xxANTREG> . 
<http://www.assero.co.uk/MDRSdtmM/CDISC/V3#M-CDISC_SDTMMODEL_xxSPCCND> rdf:type <http://www.assero.co.uk/BusinessDomain#ModelVariable> . 
<http://www.assero.co.uk/MDRSdtmM/CDISC/V3#M-CDISC_SDTMMODEL_xxSPCCND> rdfs:label "Specimen Condition"^^xsd:string . 
<http://www.assero.co.uk/MDRSdtmM/CDISC/V3#M-CDISC_SDTMMODEL_xxSPCCND> bd:ordinal "28"^^xsd:positiveInteger . 
<http://www.assero.co.uk/MDRSdtmM/CDISC/V3#M-CDISC_SDTMMODEL_xxSPCCND> bd:rule ""^^xsd:string . 
<http://www.assero.co.uk/MDRSdtmM/CDISC/V3#M-CDISC_SDTMMODEL_xxSPCCND> bd:name "--SPCCND"^^xsd:string . 
<http://www.assero.co.uk/MDRSdtmM/CDISC/V3#M-CDISC_SDTMMODEL_xxSPCCND> bd:prefixed "true"^^xsd:boolean . 
<http://www.assero.co.uk/MDRSdtmM/CDISC/V3#M-CDISC_SDTMMODEL_xxSPCCND> bd:description "Defines the condition of the specimen. Example: CLOUDY."^^xsd:string . 
<http://www.assero.co.uk/MDRSdtmM/CDISC/V3#M-CDISC_SDTMMODEL_xxSPCCND> bd:typedAs <http://www.assero.co.uk/MDRSdtmM/CDISC/V3#M-CDISC_SDTMMODEL_DT_CHAR> . 
<http://www.assero.co.uk/MDRSdtmM/CDISC/V3#M-CDISC_SDTMMODEL_xxSPCCND> bd:classifiedAs <http://www.assero.co.uk/MDRSdtmM/CDISC/V3#M-CDISC_SDTMMODEL_C_QUALIFIER_SC_RECORDQUALIFIER> . 
<http://www.assero.co.uk/MDRSdtmM/CDISC/V3#M-CDISC_SDTMMODEL> bd:includesVariable <http://www.assero.co.uk/MDRSdtmM/CDISC/V3#M-CDISC_SDTMMODEL_xxSPCCND> . 
<http://www.assero.co.uk/MDRSdtmM/CDISC/V3#M-CDISC_SDTMMODEL_xxSPCUFL> rdf:type <http://www.assero.co.uk/BusinessDomain#ModelVariable> . 
<http://www.assero.co.uk/MDRSdtmM/CDISC/V3#M-CDISC_SDTMMODEL_xxSPCUFL> rdfs:label "Specimen Usability for the Test"^^xsd:string . 
<http://www.assero.co.uk/MDRSdtmM/CDISC/V3#M-CDISC_SDTMMODEL_xxSPCUFL> bd:ordinal "29"^^xsd:positiveInteger . 
<http://www.assero.co.uk/MDRSdtmM/CDISC/V3#M-CDISC_SDTMMODEL_xxSPCUFL> bd:rule ""^^xsd:string . 
<http://www.assero.co.uk/MDRSdtmM/CDISC/V3#M-CDISC_SDTMMODEL_xxSPCUFL> bd:name "--SPCUFL"^^xsd:string . 
<http://www.assero.co.uk/MDRSdtmM/CDISC/V3#M-CDISC_SDTMMODEL_xxSPCUFL> bd:prefixed "true"^^xsd:boolean . 
<http://www.assero.co.uk/MDRSdtmM/CDISC/V3#M-CDISC_SDTMMODEL_xxSPCUFL> bd:description "Describes the usability of the specimen for the test. The value will be N if the specimen is not usable, and null if the specimen is usable."^^xsd:string . 
<http://www.assero.co.uk/MDRSdtmM/CDISC/V3#M-CDISC_SDTMMODEL_xxSPCUFL> bd:typedAs <http://www.assero.co.uk/MDRSdtmM/CDISC/V3#M-CDISC_SDTMMODEL_DT_CHAR> . 
<http://www.assero.co.uk/MDRSdtmM/CDISC/V3#M-CDISC_SDTMMODEL_xxSPCUFL> bd:classifiedAs <http://www.assero.co.uk/MDRSdtmM/CDISC/V3#M-CDISC_SDTMMODEL_C_QUALIFIER_SC_RECORDQUALIFIER> . 
<http://www.assero.co.uk/MDRSdtmM/CDISC/V3#M-CDISC_SDTMMODEL> bd:includesVariable <http://www.assero.co.uk/MDRSdtmM/CDISC/V3#M-CDISC_SDTMMODEL_xxSPCUFL> . 
<http://www.assero.co.uk/MDRSdtmM/CDISC/V3#M-CDISC_SDTMMODEL_xxMETHOD> rdf:type <http://www.assero.co.uk/BusinessDomain#ModelVariable> . 
<http://www.assero.co.uk/MDRSdtmM/CDISC/V3#M-CDISC_SDTMMODEL_xxMETHOD> rdfs:label "Method of Test or Examination"^^xsd:string . 
<http://www.assero.co.uk/MDRSdtmM/CDISC/V3#M-CDISC_SDTMMODEL_xxMETHOD> bd:ordinal "34"^^xsd:positiveInteger . 
<http://www.assero.co.uk/MDRSdtmM/CDISC/V3#M-CDISC_SDTMMODEL_xxMETHOD> bd:rule ""^^xsd:string . 
<http://www.assero.co.uk/MDRSdtmM/CDISC/V3#M-CDISC_SDTMMODEL_xxMETHOD> bd:name "--METHOD"^^xsd:string . 
<http://www.assero.co.uk/MDRSdtmM/CDISC/V3#M-CDISC_SDTMMODEL_xxMETHOD> bd:prefixed "true"^^xsd:boolean . 
<http://www.assero.co.uk/MDRSdtmM/CDISC/V3#M-CDISC_SDTMMODEL_xxMETHOD> bd:description "Method of the test or examination. Examples: EIA (Enzyme Immunoassay), ELECTROPHORESIS, DIPSTICK"^^xsd:string . 
<http://www.assero.co.uk/MDRSdtmM/CDISC/V3#M-CDISC_SDTMMODEL_xxMETHOD> bd:typedAs <http://www.assero.co.uk/MDRSdtmM/CDISC/V3#M-CDISC_SDTMMODEL_DT_CHAR> . 
<http://www.assero.co.uk/MDRSdtmM/CDISC/V3#M-CDISC_SDTMMODEL_xxMETHOD> bd:classifiedAs <http://www.assero.co.uk/MDRSdtmM/CDISC/V3#M-CDISC_SDTMMODEL_C_QUALIFIER_SC_RECORDQUALIFIER> . 
<http://www.assero.co.uk/MDRSdtmM/CDISC/V3#M-CDISC_SDTMMODEL> bd:includesVariable <http://www.assero.co.uk/MDRSdtmM/CDISC/V3#M-CDISC_SDTMMODEL_xxMETHOD> . 
<http://www.assero.co.uk/MDRSdtmM/CDISC/V3#M-CDISC_SDTMMODEL_xxRUNID> rdf:type <http://www.assero.co.uk/BusinessDomain#ModelVariable> . 
<http://www.assero.co.uk/MDRSdtmM/CDISC/V3#M-CDISC_SDTMMODEL_xxRUNID> rdfs:label "Run ID"^^xsd:string . 
<http://www.assero.co.uk/MDRSdtmM/CDISC/V3#M-CDISC_SDTMMODEL_xxRUNID> bd:ordinal "35"^^xsd:positiveInteger . 
<http://www.assero.co.uk/MDRSdtmM/CDISC/V3#M-CDISC_SDTMMODEL_xxRUNID> bd:rule ""^^xsd:string . 
<http://www.assero.co.uk/MDRSdtmM/CDISC/V3#M-CDISC_SDTMMODEL_xxRUNID> bd:name "--RUNID"^^xsd:string . 
<http://www.assero.co.uk/MDRSdtmM/CDISC/V3#M-CDISC_SDTMMODEL_xxRUNID> bd:prefixed "true"^^xsd:boolean . 
<http://www.assero.co.uk/MDRSdtmM/CDISC/V3#M-CDISC_SDTMMODEL_xxRUNID> bd:description "A unique identifier for a particular run of a test on a particular batch of samples."^^xsd:string . 
<http://www.assero.co.uk/MDRSdtmM/CDISC/V3#M-CDISC_SDTMMODEL_xxRUNID> bd:typedAs <http://www.assero.co.uk/MDRSdtmM/CDISC/V3#M-CDISC_SDTMMODEL_DT_CHAR> . 
<http://www.assero.co.uk/MDRSdtmM/CDISC/V3#M-CDISC_SDTMMODEL_xxRUNID> bd:classifiedAs <http://www.assero.co.uk/MDRSdtmM/CDISC/V3#M-CDISC_SDTMMODEL_C_QUALIFIER_SC_RECORDQUALIFIER> . 
<http://www.assero.co.uk/MDRSdtmM/CDISC/V3#M-CDISC_SDTMMODEL> bd:includesVariable <http://www.assero.co.uk/MDRSdtmM/CDISC/V3#M-CDISC_SDTMMODEL_xxRUNID> . 
<http://www.assero.co.uk/MDRSdtmM/CDISC/V3#M-CDISC_SDTMMODEL_xxANMETH> rdf:type <http://www.assero.co.uk/BusinessDomain#ModelVariable> . 
<http://www.assero.co.uk/MDRSdtmM/CDISC/V3#M-CDISC_SDTMMODEL_xxANMETH> rdfs:label "Analysis Method"^^xsd:string . 
<http://www.assero.co.uk/MDRSdtmM/CDISC/V3#M-CDISC_SDTMMODEL_xxANMETH> bd:ordinal "36"^^xsd:positiveInteger . 
<http://www.assero.co.uk/MDRSdtmM/CDISC/V3#M-CDISC_SDTMMODEL_xxANMETH> bd:rule ""^^xsd:string . 
<http://www.assero.co.uk/MDRSdtmM/CDISC/V3#M-CDISC_SDTMMODEL_xxANMETH> bd:name "--ANMETH"^^xsd:string . 
<http://www.assero.co.uk/MDRSdtmM/CDISC/V3#M-CDISC_SDTMMODEL_xxANMETH> bd:prefixed "true"^^xsd:boolean . 
<http://www.assero.co.uk/MDRSdtmM/CDISC/V3#M-CDISC_SDTMMODEL_xxANMETH> bd:description "Analysis method applied to obtain a summarized result. Analysis method describes the method of secondary processing applied to a complex observation result (e.g. an image or a genetic sequence)."^^xsd:string . 
<http://www.assero.co.uk/MDRSdtmM/CDISC/V3#M-CDISC_SDTMMODEL_xxANMETH> bd:typedAs <http://www.assero.co.uk/MDRSdtmM/CDISC/V3#M-CDISC_SDTMMODEL_DT_CHAR> . 
<http://www.assero.co.uk/MDRSdtmM/CDISC/V3#M-CDISC_SDTMMODEL_xxANMETH> bd:classifiedAs <http://www.assero.co.uk/MDRSdtmM/CDISC/V3#M-CDISC_SDTMMODEL_C_QUALIFIER_SC_RECORDQUALIFIER> . 
<http://www.assero.co.uk/MDRSdtmM/CDISC/V3#M-CDISC_SDTMMODEL> bd:includesVariable <http://www.assero.co.uk/MDRSdtmM/CDISC/V3#M-CDISC_SDTMMODEL_xxANMETH> . 
<http://www.assero.co.uk/MDRSdtmM/CDISC/V3#M-CDISC_SDTMMODEL_xxLEAD> rdf:type <http://www.assero.co.uk/BusinessDomain#ModelVariable> . 
<http://www.assero.co.uk/MDRSdtmM/CDISC/V3#M-CDISC_SDTMMODEL_xxLEAD> rdfs:label "Lead Identified to Collect Measurements"^^xsd:string . 
<http://www.assero.co.uk/MDRSdtmM/CDISC/V3#M-CDISC_SDTMMODEL_xxLEAD> bd:ordinal "37"^^xsd:positiveInteger . 
<http://www.assero.co.uk/MDRSdtmM/CDISC/V3#M-CDISC_SDTMMODEL_xxLEAD> bd:rule ""^^xsd:string . 
<http://www.assero.co.uk/MDRSdtmM/CDISC/V3#M-CDISC_SDTMMODEL_xxLEAD> bd:name "--LEAD"^^xsd:string . 
<http://www.assero.co.uk/MDRSdtmM/CDISC/V3#M-CDISC_SDTMMODEL_xxLEAD> bd:prefixed "true"^^xsd:boolean . 
<http://www.assero.co.uk/MDRSdtmM/CDISC/V3#M-CDISC_SDTMMODEL_xxLEAD> bd:description "Lead or leads identified to capture the measurement for a test from an instrument. Examples: LEAD I, LEAD V2, LEAD CM5."^^xsd:string . 
<http://www.assero.co.uk/MDRSdtmM/CDISC/V3#M-CDISC_SDTMMODEL_xxLEAD> bd:typedAs <http://www.assero.co.uk/MDRSdtmM/CDISC/V3#M-CDISC_SDTMMODEL_DT_CHAR> . 
<http://www.assero.co.uk/MDRSdtmM/CDISC/V3#M-CDISC_SDTMMODEL_xxLEAD> bd:classifiedAs <http://www.assero.co.uk/MDRSdtmM/CDISC/V3#M-CDISC_SDTMMODEL_C_QUALIFIER_SC_RECORDQUALIFIER> . 
<http://www.assero.co.uk/MDRSdtmM/CDISC/V3#M-CDISC_SDTMMODEL> bd:includesVariable <http://www.assero.co.uk/MDRSdtmM/CDISC/V3#M-CDISC_SDTMMODEL_xxLEAD> . 
<http://www.assero.co.uk/MDRSdtmM/CDISC/V3#M-CDISC_SDTMMODEL_xxCSTATE> rdf:type <http://www.assero.co.uk/BusinessDomain#ModelVariable> . 
<http://www.assero.co.uk/MDRSdtmM/CDISC/V3#M-CDISC_SDTMMODEL_xxCSTATE> rdfs:label "Consciousness State"^^xsd:string . 
<http://www.assero.co.uk/MDRSdtmM/CDISC/V3#M-CDISC_SDTMMODEL_xxCSTATE> bd:ordinal "38"^^xsd:positiveInteger . 
<http://www.assero.co.uk/MDRSdtmM/CDISC/V3#M-CDISC_SDTMMODEL_xxCSTATE> bd:rule ""^^xsd:string . 
<http://www.assero.co.uk/MDRSdtmM/CDISC/V3#M-CDISC_SDTMMODEL_xxCSTATE> bd:name "--CSTATE"^^xsd:string . 
<http://www.assero.co.uk/MDRSdtmM/CDISC/V3#M-CDISC_SDTMMODEL_xxCSTATE> bd:prefixed "true"^^xsd:boolean . 
<http://www.assero.co.uk/MDRSdtmM/CDISC/V3#M-CDISC_SDTMMODEL_xxCSTATE> bd:description "The consciousness state of the subject at the time of measurement. Examples: CONSCIOUS, SEMI-CONSCIOUS, UNCONSCIOUS"^^xsd:string . 
<http://www.assero.co.uk/MDRSdtmM/CDISC/V3#M-CDISC_SDTMMODEL_xxCSTATE> bd:typedAs <http://www.assero.co.uk/MDRSdtmM/CDISC/V3#M-CDISC_SDTMMODEL_DT_CHAR> . 
<http://www.assero.co.uk/MDRSdtmM/CDISC/V3#M-CDISC_SDTMMODEL_xxCSTATE> bd:classifiedAs <http://www.assero.co.uk/MDRSdtmM/CDISC/V3#M-CDISC_SDTMMODEL_C_QUALIFIER_SC_RECORDQUALIFIER> . 
<http://www.assero.co.uk/MDRSdtmM/CDISC/V3#M-CDISC_SDTMMODEL> bd:includesVariable <http://www.assero.co.uk/MDRSdtmM/CDISC/V3#M-CDISC_SDTMMODEL_xxCSTATE> . 
<http://www.assero.co.uk/MDRSdtmM/CDISC/V3#M-CDISC_SDTMMODEL_xxBLFL> rdf:type <http://www.assero.co.uk/BusinessDomain#ModelVariable> . 
<http://www.assero.co.uk/MDRSdtmM/CDISC/V3#M-CDISC_SDTMMODEL_xxBLFL> rdfs:label "Baseline Flag"^^xsd:string . 
<http://www.assero.co.uk/MDRSdtmM/CDISC/V3#M-CDISC_SDTMMODEL_xxBLFL> bd:ordinal "39"^^xsd:positiveInteger . 
<http://www.assero.co.uk/MDRSdtmM/CDISC/V3#M-CDISC_SDTMMODEL_xxBLFL> bd:rule ""^^xsd:string . 
<http://www.assero.co.uk/MDRSdtmM/CDISC/V3#M-CDISC_SDTMMODEL_xxBLFL> bd:name "--BLFL"^^xsd:string . 
<http://www.assero.co.uk/MDRSdtmM/CDISC/V3#M-CDISC_SDTMMODEL_xxBLFL> bd:prefixed "true"^^xsd:boolean . 
<http://www.assero.co.uk/MDRSdtmM/CDISC/V3#M-CDISC_SDTMMODEL_xxBLFL> bd:description "Indicator used to identify a baseline value. Should be Y or null."^^xsd:string . 
<http://www.assero.co.uk/MDRSdtmM/CDISC/V3#M-CDISC_SDTMMODEL_xxBLFL> bd:typedAs <http://www.assero.co.uk/MDRSdtmM/CDISC/V3#M-CDISC_SDTMMODEL_DT_CHAR> . 
<http://www.assero.co.uk/MDRSdtmM/CDISC/V3#M-CDISC_SDTMMODEL_xxBLFL> bd:classifiedAs <http://www.assero.co.uk/MDRSdtmM/CDISC/V3#M-CDISC_SDTMMODEL_C_QUALIFIER_SC_RECORDQUALIFIER> . 
<http://www.assero.co.uk/MDRSdtmM/CDISC/V3#M-CDISC_SDTMMODEL> bd:includesVariable <http://www.assero.co.uk/MDRSdtmM/CDISC/V3#M-CDISC_SDTMMODEL_xxBLFL> . 
<http://www.assero.co.uk/MDRSdtmM/CDISC/V3#M-CDISC_SDTMMODEL_xxFAST> rdf:type <http://www.assero.co.uk/BusinessDomain#ModelVariable> . 
<http://www.assero.co.uk/MDRSdtmM/CDISC/V3#M-CDISC_SDTMMODEL_xxFAST> rdfs:label "Fasting Status"^^xsd:string . 
<http://www.assero.co.uk/MDRSdtmM/CDISC/V3#M-CDISC_SDTMMODEL_xxFAST> bd:ordinal "40"^^xsd:positiveInteger . 
<http://www.assero.co.uk/MDRSdtmM/CDISC/V3#M-CDISC_SDTMMODEL_xxFAST> bd:rule ""^^xsd:string . 
<http://www.assero.co.uk/MDRSdtmM/CDISC/V3#M-CDISC_SDTMMODEL_xxFAST> bd:name "--FAST"^^xsd:string . 
<http://www.assero.co.uk/MDRSdtmM/CDISC/V3#M-CDISC_SDTMMODEL_xxFAST> bd:prefixed "true"^^xsd:boolean . 
<http://www.assero.co.uk/MDRSdtmM/CDISC/V3#M-CDISC_SDTMMODEL_xxFAST> bd:description "Indicator used to identify fasting status. Valid values include Y, N, U or null if not relevant."^^xsd:string . 
<http://www.assero.co.uk/MDRSdtmM/CDISC/V3#M-CDISC_SDTMMODEL_xxFAST> bd:typedAs <http://www.assero.co.uk/MDRSdtmM/CDISC/V3#M-CDISC_SDTMMODEL_DT_CHAR> . 
<http://www.assero.co.uk/MDRSdtmM/CDISC/V3#M-CDISC_SDTMMODEL_xxFAST> bd:classifiedAs <http://www.assero.co.uk/MDRSdtmM/CDISC/V3#M-CDISC_SDTMMODEL_C_QUALIFIER_SC_RECORDQUALIFIER> . 
<http://www.assero.co.uk/MDRSdtmM/CDISC/V3#M-CDISC_SDTMMODEL> bd:includesVariable <http://www.assero.co.uk/MDRSdtmM/CDISC/V3#M-CDISC_SDTMMODEL_xxFAST> . 
<http://www.assero.co.uk/MDRSdtmM/CDISC/V3#M-CDISC_SDTMMODEL_xxDRVFL> rdf:type <http://www.assero.co.uk/BusinessDomain#ModelVariable> . 
<http://www.assero.co.uk/MDRSdtmM/CDISC/V3#M-CDISC_SDTMMODEL_xxDRVFL> rdfs:label "Derived Flag"^^xsd:string . 
<http://www.assero.co.uk/MDRSdtmM/CDISC/V3#M-CDISC_SDTMMODEL_xxDRVFL> bd:ordinal "41"^^xsd:positiveInteger . 
<http://www.assero.co.uk/MDRSdtmM/CDISC/V3#M-CDISC_SDTMMODEL_xxDRVFL> bd:rule ""^^xsd:string . 
<http://www.assero.co.uk/MDRSdtmM/CDISC/V3#M-CDISC_SDTMMODEL_xxDRVFL> bd:name "--DRVFL"^^xsd:string . 
<http://www.assero.co.uk/MDRSdtmM/CDISC/V3#M-CDISC_SDTMMODEL_xxDRVFL> bd:prefixed "true"^^xsd:boolean . 
<http://www.assero.co.uk/MDRSdtmM/CDISC/V3#M-CDISC_SDTMMODEL_xxDRVFL> bd:description "Used to indicate a derived record (e.g., a record that represents the average of other records such as a computed baseline). Should be Y or null."^^xsd:string . 
<http://www.assero.co.uk/MDRSdtmM/CDISC/V3#M-CDISC_SDTMMODEL_xxDRVFL> bd:typedAs <http://www.assero.co.uk/MDRSdtmM/CDISC/V3#M-CDISC_SDTMMODEL_DT_CHAR> . 
<http://www.assero.co.uk/MDRSdtmM/CDISC/V3#M-CDISC_SDTMMODEL_xxDRVFL> bd:classifiedAs <http://www.assero.co.uk/MDRSdtmM/CDISC/V3#M-CDISC_SDTMMODEL_C_QUALIFIER_SC_RECORDQUALIFIER> . 
<http://www.assero.co.uk/MDRSdtmM/CDISC/V3#M-CDISC_SDTMMODEL> bd:includesVariable <http://www.assero.co.uk/MDRSdtmM/CDISC/V3#M-CDISC_SDTMMODEL_xxDRVFL> . 
<http://www.assero.co.uk/MDRSdtmM/CDISC/V3#M-CDISC_SDTMMODEL_xxEVAL> rdf:type <http://www.assero.co.uk/BusinessDomain#ModelVariable> . 
<http://www.assero.co.uk/MDRSdtmM/CDISC/V3#M-CDISC_SDTMMODEL_xxEVAL> rdfs:label "Evaluator"^^xsd:string . 
<http://www.assero.co.uk/MDRSdtmM/CDISC/V3#M-CDISC_SDTMMODEL_xxEVAL> bd:ordinal "42"^^xsd:positiveInteger . 
<http://www.assero.co.uk/MDRSdtmM/CDISC/V3#M-CDISC_SDTMMODEL_xxEVAL> bd:rule ""^^xsd:string . 
<http://www.assero.co.uk/MDRSdtmM/CDISC/V3#M-CDISC_SDTMMODEL_xxEVAL> bd:name "--EVAL"^^xsd:string . 
<http://www.assero.co.uk/MDRSdtmM/CDISC/V3#M-CDISC_SDTMMODEL_xxEVAL> bd:prefixed "true"^^xsd:boolean . 
<http://www.assero.co.uk/MDRSdtmM/CDISC/V3#M-CDISC_SDTMMODEL_xxEVAL> bd:description "Role of the person who provided the evaluation. Used only for results that are subjective (e.g., assigned by a person or a group). Examples: ADJUDICATION COMMITTEE, INDEPENDENT ASSESSOR, RADIOLOGIST."^^xsd:string . 
<http://www.assero.co.uk/MDRSdtmM/CDISC/V3#M-CDISC_SDTMMODEL_xxEVAL> bd:typedAs <http://www.assero.co.uk/MDRSdtmM/CDISC/V3#M-CDISC_SDTMMODEL_DT_CHAR> . 
<http://www.assero.co.uk/MDRSdtmM/CDISC/V3#M-CDISC_SDTMMODEL_xxEVAL> bd:classifiedAs <http://www.assero.co.uk/MDRSdtmM/CDISC/V3#M-CDISC_SDTMMODEL_C_QUALIFIER_SC_RECORDQUALIFIER> . 
<http://www.assero.co.uk/MDRSdtmM/CDISC/V3#M-CDISC_SDTMMODEL> bd:includesVariable <http://www.assero.co.uk/MDRSdtmM/CDISC/V3#M-CDISC_SDTMMODEL_xxEVAL> . 
<http://www.assero.co.uk/MDRSdtmM/CDISC/V3#M-CDISC_SDTMMODEL_xxEVALID> rdf:type <http://www.assero.co.uk/BusinessDomain#ModelVariable> . 
<http://www.assero.co.uk/MDRSdtmM/CDISC/V3#M-CDISC_SDTMMODEL_xxEVALID> rdfs:label "Evaluator Identifier"^^xsd:string . 
<http://www.assero.co.uk/MDRSdtmM/CDISC/V3#M-CDISC_SDTMMODEL_xxEVALID> bd:ordinal "43"^^xsd:positiveInteger . 
<http://www.assero.co.uk/MDRSdtmM/CDISC/V3#M-CDISC_SDTMMODEL_xxEVALID> bd:rule ""^^xsd:string . 
<http://www.assero.co.uk/MDRSdtmM/CDISC/V3#M-CDISC_SDTMMODEL_xxEVALID> bd:name "--EVALID"^^xsd:string . 
<http://www.assero.co.uk/MDRSdtmM/CDISC/V3#M-CDISC_SDTMMODEL_xxEVALID> bd:prefixed "true"^^xsd:boolean . 
<http://www.assero.co.uk/MDRSdtmM/CDISC/V3#M-CDISC_SDTMMODEL_xxEVALID> bd:description "Used to distinguish multiple evaluators with the same role recorded in --EVAL. Examples: RADIOLOGIST1 or RADIOLOGIST2"^^xsd:string . 
<http://www.assero.co.uk/MDRSdtmM/CDISC/V3#M-CDISC_SDTMMODEL_xxEVALID> bd:typedAs <http://www.assero.co.uk/MDRSdtmM/CDISC/V3#M-CDISC_SDTMMODEL_DT_CHAR> . 
<http://www.assero.co.uk/MDRSdtmM/CDISC/V3#M-CDISC_SDTMMODEL_xxEVALID> bd:classifiedAs <http://www.assero.co.uk/MDRSdtmM/CDISC/V3#M-CDISC_SDTMMODEL_C_QUALIFIER_SC_VARIABLEQUALIFIER> . 
<http://www.assero.co.uk/MDRSdtmM/CDISC/V3#M-CDISC_SDTMMODEL> bd:includesVariable <http://www.assero.co.uk/MDRSdtmM/CDISC/V3#M-CDISC_SDTMMODEL_xxEVALID> . 
<http://www.assero.co.uk/MDRSdtmM/CDISC/V3#M-CDISC_SDTMMODEL_xxACPTFL> rdf:type <http://www.assero.co.uk/BusinessDomain#ModelVariable> . 
<http://www.assero.co.uk/MDRSdtmM/CDISC/V3#M-CDISC_SDTMMODEL_xxACPTFL> rdfs:label "Accepted Record Flag"^^xsd:string . 
<http://www.assero.co.uk/MDRSdtmM/CDISC/V3#M-CDISC_SDTMMODEL_xxACPTFL> bd:ordinal "44"^^xsd:positiveInteger . 
<http://www.assero.co.uk/MDRSdtmM/CDISC/V3#M-CDISC_SDTMMODEL_xxACPTFL> bd:rule ""^^xsd:string . 
<http://www.assero.co.uk/MDRSdtmM/CDISC/V3#M-CDISC_SDTMMODEL_xxACPTFL> bd:name "--ACPTFL"^^xsd:string . 
<http://www.assero.co.uk/MDRSdtmM/CDISC/V3#M-CDISC_SDTMMODEL_xxACPTFL> bd:prefixed "true"^^xsd:boolean . 
<http://www.assero.co.uk/MDRSdtmM/CDISC/V3#M-CDISC_SDTMMODEL_xxACPTFL> bd:description "In cases where more than one assessor provides an evaluation of a result or response, this flag identifies the record that is considered, by an independent assessor, to be the accepted evaluation. Expected to be Y or null."^^xsd:string . 
<http://www.assero.co.uk/MDRSdtmM/CDISC/V3#M-CDISC_SDTMMODEL_xxACPTFL> bd:typedAs <http://www.assero.co.uk/MDRSdtmM/CDISC/V3#M-CDISC_SDTMMODEL_DT_CHAR> . 
<http://www.assero.co.uk/MDRSdtmM/CDISC/V3#M-CDISC_SDTMMODEL_xxACPTFL> bd:classifiedAs <http://www.assero.co.uk/MDRSdtmM/CDISC/V3#M-CDISC_SDTMMODEL_C_QUALIFIER_SC_RECORDQUALIFIER> . 
<http://www.assero.co.uk/MDRSdtmM/CDISC/V3#M-CDISC_SDTMMODEL> bd:includesVariable <http://www.assero.co.uk/MDRSdtmM/CDISC/V3#M-CDISC_SDTMMODEL_xxACPTFL> . 
<http://www.assero.co.uk/MDRSdtmM/CDISC/V3#M-CDISC_SDTMMODEL_xxDTHREL> rdf:type <http://www.assero.co.uk/BusinessDomain#ModelVariable> . 
<http://www.assero.co.uk/MDRSdtmM/CDISC/V3#M-CDISC_SDTMMODEL_xxDTHREL> rdfs:label "Relationship to Death"^^xsd:string . 
<http://www.assero.co.uk/MDRSdtmM/CDISC/V3#M-CDISC_SDTMMODEL_xxDTHREL> bd:ordinal "48"^^xsd:positiveInteger . 
<http://www.assero.co.uk/MDRSdtmM/CDISC/V3#M-CDISC_SDTMMODEL_xxDTHREL> bd:rule ""^^xsd:string . 
<http://www.assero.co.uk/MDRSdtmM/CDISC/V3#M-CDISC_SDTMMODEL_xxDTHREL> bd:name "--DTHREL"^^xsd:string . 
<http://www.assero.co.uk/MDRSdtmM/CDISC/V3#M-CDISC_SDTMMODEL_xxDTHREL> bd:prefixed "true"^^xsd:boolean . 
<http://www.assero.co.uk/MDRSdtmM/CDISC/V3#M-CDISC_SDTMMODEL_xxDTHREL> bd:description "Describes the relationship of a particular finding to the death of a subject. Examples: Y, N or U."^^xsd:string . 
<http://www.assero.co.uk/MDRSdtmM/CDISC/V3#M-CDISC_SDTMMODEL_xxDTHREL> bd:typedAs <http://www.assero.co.uk/MDRSdtmM/CDISC/V3#M-CDISC_SDTMMODEL_DT_CHAR> . 
<http://www.assero.co.uk/MDRSdtmM/CDISC/V3#M-CDISC_SDTMMODEL_xxDTHREL> bd:classifiedAs <http://www.assero.co.uk/MDRSdtmM/CDISC/V3#M-CDISC_SDTMMODEL_C_QUALIFIER_SC_RECORDQUALIFIER> . 
<http://www.assero.co.uk/MDRSdtmM/CDISC/V3#M-CDISC_SDTMMODEL> bd:includesVariable <http://www.assero.co.uk/MDRSdtmM/CDISC/V3#M-CDISC_SDTMMODEL_xxDTHREL> . 
<http://www.assero.co.uk/MDRSdtmM/CDISC/V3#M-CDISC_SDTMMODEL_xxLLOQ> rdf:type <http://www.assero.co.uk/BusinessDomain#ModelVariable> . 
<http://www.assero.co.uk/MDRSdtmM/CDISC/V3#M-CDISC_SDTMMODEL_xxLLOQ> rdfs:label "Lower Limit of Quantitation"^^xsd:string . 
<http://www.assero.co.uk/MDRSdtmM/CDISC/V3#M-CDISC_SDTMMODEL_xxLLOQ> bd:ordinal "49"^^xsd:positiveInteger . 
<http://www.assero.co.uk/MDRSdtmM/CDISC/V3#M-CDISC_SDTMMODEL_xxLLOQ> bd:rule ""^^xsd:string . 
<http://www.assero.co.uk/MDRSdtmM/CDISC/V3#M-CDISC_SDTMMODEL_xxLLOQ> bd:name "--LLOQ"^^xsd:string . 
<http://www.assero.co.uk/MDRSdtmM/CDISC/V3#M-CDISC_SDTMMODEL_xxLLOQ> bd:prefixed "true"^^xsd:boolean . 
<http://www.assero.co.uk/MDRSdtmM/CDISC/V3#M-CDISC_SDTMMODEL_xxLLOQ> bd:description "Indicates the lower limit of quantitation for an assay. Units will be those used for --STRESU."^^xsd:string . 
<http://www.assero.co.uk/MDRSdtmM/CDISC/V3#M-CDISC_SDTMMODEL_xxLLOQ> bd:typedAs <http://www.assero.co.uk/MDRSdtmM/CDISC/V3#M-CDISC_SDTMMODEL_DT_NUM> . 
<http://www.assero.co.uk/MDRSdtmM/CDISC/V3#M-CDISC_SDTMMODEL_xxLLOQ> bd:classifiedAs <http://www.assero.co.uk/MDRSdtmM/CDISC/V3#M-CDISC_SDTMMODEL_C_QUALIFIER_SC_VARIABLEQUALIFIER> . 
<http://www.assero.co.uk/MDRSdtmM/CDISC/V3#M-CDISC_SDTMMODEL> bd:includesVariable <http://www.assero.co.uk/MDRSdtmM/CDISC/V3#M-CDISC_SDTMMODEL_xxLLOQ> . 
<http://www.assero.co.uk/MDRSdtmM/CDISC/V3#M-CDISC_SDTMMODEL_xxULOQ> rdf:type <http://www.assero.co.uk/BusinessDomain#ModelVariable> . 
<http://www.assero.co.uk/MDRSdtmM/CDISC/V3#M-CDISC_SDTMMODEL_xxULOQ> rdfs:label "Upper Limit of Quantitation"^^xsd:string . 
<http://www.assero.co.uk/MDRSdtmM/CDISC/V3#M-CDISC_SDTMMODEL_xxULOQ> bd:ordinal "50"^^xsd:positiveInteger . 
<http://www.assero.co.uk/MDRSdtmM/CDISC/V3#M-CDISC_SDTMMODEL_xxULOQ> bd:rule ""^^xsd:string . 
<http://www.assero.co.uk/MDRSdtmM/CDISC/V3#M-CDISC_SDTMMODEL_xxULOQ> bd:name "--ULOQ"^^xsd:string . 
<http://www.assero.co.uk/MDRSdtmM/CDISC/V3#M-CDISC_SDTMMODEL_xxULOQ> bd:prefixed "true"^^xsd:boolean . 
<http://www.assero.co.uk/MDRSdtmM/CDISC/V3#M-CDISC_SDTMMODEL_xxULOQ> bd:description "Indicates the upper limit of quantitation for an assay. Units will be those used for --STRESU."^^xsd:string . 
<http://www.assero.co.uk/MDRSdtmM/CDISC/V3#M-CDISC_SDTMMODEL_xxULOQ> bd:typedAs <http://www.assero.co.uk/MDRSdtmM/CDISC/V3#M-CDISC_SDTMMODEL_DT_NUM> . 
<http://www.assero.co.uk/MDRSdtmM/CDISC/V3#M-CDISC_SDTMMODEL_xxULOQ> bd:classifiedAs <http://www.assero.co.uk/MDRSdtmM/CDISC/V3#M-CDISC_SDTMMODEL_C_QUALIFIER_SC_VARIABLEQUALIFIER> . 
<http://www.assero.co.uk/MDRSdtmM/CDISC/V3#M-CDISC_SDTMMODEL> bd:includesVariable <http://www.assero.co.uk/MDRSdtmM/CDISC/V3#M-CDISC_SDTMMODEL_xxULOQ> . 
<http://www.assero.co.uk/MDRSdtmM/CDISC/V3#M-CDISC_SDTMMODEL_xxEXCLFL> rdf:type <http://www.assero.co.uk/BusinessDomain#ModelVariable> . 
<http://www.assero.co.uk/MDRSdtmM/CDISC/V3#M-CDISC_SDTMMODEL_xxEXCLFL> rdfs:label "Exclude from Statistics"^^xsd:string . 
<http://www.assero.co.uk/MDRSdtmM/CDISC/V3#M-CDISC_SDTMMODEL_xxEXCLFL> bd:ordinal "51"^^xsd:positiveInteger . 
<http://www.assero.co.uk/MDRSdtmM/CDISC/V3#M-CDISC_SDTMMODEL_xxEXCLFL> bd:rule ""^^xsd:string . 
<http://www.assero.co.uk/MDRSdtmM/CDISC/V3#M-CDISC_SDTMMODEL_xxEXCLFL> bd:name "--EXCLFL"^^xsd:string . 
<http://www.assero.co.uk/MDRSdtmM/CDISC/V3#M-CDISC_SDTMMODEL_xxEXCLFL> bd:prefixed "true"^^xsd:boolean . 
<http://www.assero.co.uk/MDRSdtmM/CDISC/V3#M-CDISC_SDTMMODEL_xxEXCLFL> bd:description "Indicates whether the values in the result variables for this record should be excluded from summary statistical calculations such as Mean, Standard Deviation, and Count (and others). Expected to be Y or null. --EXCLFL should not be used when --STAT is NOT DONE. Not to be used with human clinical trials."^^xsd:string . 
<http://www.assero.co.uk/MDRSdtmM/CDISC/V3#M-CDISC_SDTMMODEL_xxEXCLFL> bd:typedAs <http://www.assero.co.uk/MDRSdtmM/CDISC/V3#M-CDISC_SDTMMODEL_DT_CHAR> . 
<http://www.assero.co.uk/MDRSdtmM/CDISC/V3#M-CDISC_SDTMMODEL_xxEXCLFL> bd:classifiedAs <http://www.assero.co.uk/MDRSdtmM/CDISC/V3#M-CDISC_SDTMMODEL_C_QUALIFIER_SC_RECORDQUALIFIER> . 
<http://www.assero.co.uk/MDRSdtmM/CDISC/V3#M-CDISC_SDTMMODEL> bd:includesVariable <http://www.assero.co.uk/MDRSdtmM/CDISC/V3#M-CDISC_SDTMMODEL_xxEXCLFL> . 
<http://www.assero.co.uk/MDRSdtmM/CDISC/V3#M-CDISC_SDTMMODEL_xxREASEX> rdf:type <http://www.assero.co.uk/BusinessDomain#ModelVariable> . 
<http://www.assero.co.uk/MDRSdtmM/CDISC/V3#M-CDISC_SDTMMODEL_xxREASEX> rdfs:label "Reason for Exclusion from Statistics"^^xsd:string . 
<http://www.assero.co.uk/MDRSdtmM/CDISC/V3#M-CDISC_SDTMMODEL_xxREASEX> bd:ordinal "52"^^xsd:positiveInteger . 
<http://www.assero.co.uk/MDRSdtmM/CDISC/V3#M-CDISC_SDTMMODEL_xxREASEX> bd:rule ""^^xsd:string . 
<http://www.assero.co.uk/MDRSdtmM/CDISC/V3#M-CDISC_SDTMMODEL_xxREASEX> bd:name "--REASEX"^^xsd:string . 
<http://www.assero.co.uk/MDRSdtmM/CDISC/V3#M-CDISC_SDTMMODEL_xxREASEX> bd:prefixed "true"^^xsd:boolean . 
<http://www.assero.co.uk/MDRSdtmM/CDISC/V3#M-CDISC_SDTMMODEL_xxREASEX> bd:description "Reason excluded from statistics. Used in conjunction with --EXCLFL when its value is Y. Not to be used with human clinical trials"^^xsd:string . 
<http://www.assero.co.uk/MDRSdtmM/CDISC/V3#M-CDISC_SDTMMODEL_xxREASEX> bd:typedAs <http://www.assero.co.uk/MDRSdtmM/CDISC/V3#M-CDISC_SDTMMODEL_DT_CHAR> . 
<http://www.assero.co.uk/MDRSdtmM/CDISC/V3#M-CDISC_SDTMMODEL_xxREASEX> bd:classifiedAs <http://www.assero.co.uk/MDRSdtmM/CDISC/V3#M-CDISC_SDTMMODEL_C_QUALIFIER_SC_RECORDQUALIFIER> . 
<http://www.assero.co.uk/MDRSdtmM/CDISC/V3#M-CDISC_SDTMMODEL> bd:includesVariable <http://www.assero.co.uk/MDRSdtmM/CDISC/V3#M-CDISC_SDTMMODEL_xxREASEX> . 
<http://www.assero.co.uk/MDRSdtmM/CDISC/V3#M-CDISC_SDTMMODEL_xxTRT> rdf:type <http://www.assero.co.uk/BusinessDomain#ModelVariable> . 
<http://www.assero.co.uk/MDRSdtmM/CDISC/V3#M-CDISC_SDTMMODEL_xxTRT> rdfs:label "Name of Treatment"^^xsd:string . 
<http://www.assero.co.uk/MDRSdtmM/CDISC/V3#M-CDISC_SDTMMODEL_xxTRT> bd:ordinal "1"^^xsd:positiveInteger . 
<http://www.assero.co.uk/MDRSdtmM/CDISC/V3#M-CDISC_SDTMMODEL_xxTRT> bd:rule ""^^xsd:string . 
<http://www.assero.co.uk/MDRSdtmM/CDISC/V3#M-CDISC_SDTMMODEL_xxTRT> bd:name "--TRT"^^xsd:string . 
<http://www.assero.co.uk/MDRSdtmM/CDISC/V3#M-CDISC_SDTMMODEL_xxTRT> bd:prefixed "true"^^xsd:boolean . 
<http://www.assero.co.uk/MDRSdtmM/CDISC/V3#M-CDISC_SDTMMODEL_xxTRT> bd:description "The topic for the intervention observation, usually the verbatim name of the treatment, drug, medicine, or therapy given during the dosing interval for the observation."^^xsd:string . 
<http://www.assero.co.uk/MDRSdtmM/CDISC/V3#M-CDISC_SDTMMODEL_xxTRT> bd:typedAs <http://www.assero.co.uk/MDRSdtmM/CDISC/V3#M-CDISC_SDTMMODEL_DT_CHAR> . 
<http://www.assero.co.uk/MDRSdtmM/CDISC/V3#M-CDISC_SDTMMODEL_xxTRT> bd:classifiedAs <http://www.assero.co.uk/MDRSdtmM/CDISC/V3#M-CDISC_SDTMMODEL_C_TOPIC> . 
<http://www.assero.co.uk/MDRSdtmM/CDISC/V3#M-CDISC_SDTMMODEL> bd:includesVariable <http://www.assero.co.uk/MDRSdtmM/CDISC/V3#M-CDISC_SDTMMODEL_xxTRT> . 
<http://www.assero.co.uk/MDRSdtmM/CDISC/V3#M-CDISC_SDTMMODEL_xxMOOD> rdf:type <http://www.assero.co.uk/BusinessDomain#ModelVariable> . 
<http://www.assero.co.uk/MDRSdtmM/CDISC/V3#M-CDISC_SDTMMODEL_xxMOOD> rdfs:label "Mood"^^xsd:string . 
<http://www.assero.co.uk/MDRSdtmM/CDISC/V3#M-CDISC_SDTMMODEL_xxMOOD> bd:ordinal "4"^^xsd:positiveInteger . 
<http://www.assero.co.uk/MDRSdtmM/CDISC/V3#M-CDISC_SDTMMODEL_xxMOOD> bd:rule ""^^xsd:string . 
<http://www.assero.co.uk/MDRSdtmM/CDISC/V3#M-CDISC_SDTMMODEL_xxMOOD> bd:name "--MOOD"^^xsd:string . 
<http://www.assero.co.uk/MDRSdtmM/CDISC/V3#M-CDISC_SDTMMODEL_xxMOOD> bd:prefixed "true"^^xsd:boolean . 
<http://www.assero.co.uk/MDRSdtmM/CDISC/V3#M-CDISC_SDTMMODEL_xxMOOD> bd:description "Mode or condition of the record (e.g., SCHEDULED, PERFORMED)."^^xsd:string . 
<http://www.assero.co.uk/MDRSdtmM/CDISC/V3#M-CDISC_SDTMMODEL_xxMOOD> bd:typedAs <http://www.assero.co.uk/MDRSdtmM/CDISC/V3#M-CDISC_SDTMMODEL_DT_CHAR> . 
<http://www.assero.co.uk/MDRSdtmM/CDISC/V3#M-CDISC_SDTMMODEL_xxMOOD> bd:classifiedAs <http://www.assero.co.uk/MDRSdtmM/CDISC/V3#M-CDISC_SDTMMODEL_C_QUALIFIER_SC_RECORDQUALIFIER> . 
<http://www.assero.co.uk/MDRSdtmM/CDISC/V3#M-CDISC_SDTMMODEL> bd:includesVariable <http://www.assero.co.uk/MDRSdtmM/CDISC/V3#M-CDISC_SDTMMODEL_xxMOOD> . 
<http://www.assero.co.uk/MDRSdtmM/CDISC/V3#M-CDISC_SDTMMODEL_xxINDC> rdf:type <http://www.assero.co.uk/BusinessDomain#ModelVariable> . 
<http://www.assero.co.uk/MDRSdtmM/CDISC/V3#M-CDISC_SDTMMODEL_xxINDC> rdfs:label "Indication"^^xsd:string . 
<http://www.assero.co.uk/MDRSdtmM/CDISC/V3#M-CDISC_SDTMMODEL_xxINDC> bd:ordinal "11"^^xsd:positiveInteger . 
<http://www.assero.co.uk/MDRSdtmM/CDISC/V3#M-CDISC_SDTMMODEL_xxINDC> bd:rule ""^^xsd:string . 
<http://www.assero.co.uk/MDRSdtmM/CDISC/V3#M-CDISC_SDTMMODEL_xxINDC> bd:name "--INDC"^^xsd:string . 
<http://www.assero.co.uk/MDRSdtmM/CDISC/V3#M-CDISC_SDTMMODEL_xxINDC> bd:prefixed "true"^^xsd:boolean . 
<http://www.assero.co.uk/MDRSdtmM/CDISC/V3#M-CDISC_SDTMMODEL_xxINDC> bd:description "Denotes the indication for the intervention (e.g., why the therapy was taken or administered)."^^xsd:string . 
<http://www.assero.co.uk/MDRSdtmM/CDISC/V3#M-CDISC_SDTMMODEL_xxINDC> bd:typedAs <http://www.assero.co.uk/MDRSdtmM/CDISC/V3#M-CDISC_SDTMMODEL_DT_CHAR> . 
<http://www.assero.co.uk/MDRSdtmM/CDISC/V3#M-CDISC_SDTMMODEL_xxINDC> bd:classifiedAs <http://www.assero.co.uk/MDRSdtmM/CDISC/V3#M-CDISC_SDTMMODEL_C_QUALIFIER_SC_RECORDQUALIFIER> . 
<http://www.assero.co.uk/MDRSdtmM/CDISC/V3#M-CDISC_SDTMMODEL> bd:includesVariable <http://www.assero.co.uk/MDRSdtmM/CDISC/V3#M-CDISC_SDTMMODEL_xxINDC> . 
<http://www.assero.co.uk/MDRSdtmM/CDISC/V3#M-CDISC_SDTMMODEL_xxCLAS> rdf:type <http://www.assero.co.uk/BusinessDomain#ModelVariable> . 
<http://www.assero.co.uk/MDRSdtmM/CDISC/V3#M-CDISC_SDTMMODEL_xxCLAS> rdfs:label "Class"^^xsd:string . 
<http://www.assero.co.uk/MDRSdtmM/CDISC/V3#M-CDISC_SDTMMODEL_xxCLAS> bd:ordinal "12"^^xsd:positiveInteger . 
<http://www.assero.co.uk/MDRSdtmM/CDISC/V3#M-CDISC_SDTMMODEL_xxCLAS> bd:rule ""^^xsd:string . 
<http://www.assero.co.uk/MDRSdtmM/CDISC/V3#M-CDISC_SDTMMODEL_xxCLAS> bd:name "--CLAS"^^xsd:string . 
<http://www.assero.co.uk/MDRSdtmM/CDISC/V3#M-CDISC_SDTMMODEL_xxCLAS> bd:prefixed "true"^^xsd:boolean . 
<http://www.assero.co.uk/MDRSdtmM/CDISC/V3#M-CDISC_SDTMMODEL_xxCLAS> bd:description "Class for a medication or treatment, often obtained from a coding dictionary."^^xsd:string . 
<http://www.assero.co.uk/MDRSdtmM/CDISC/V3#M-CDISC_SDTMMODEL_xxCLAS> bd:typedAs <http://www.assero.co.uk/MDRSdtmM/CDISC/V3#M-CDISC_SDTMMODEL_DT_CHAR> . 
<http://www.assero.co.uk/MDRSdtmM/CDISC/V3#M-CDISC_SDTMMODEL_xxCLAS> bd:classifiedAs <http://www.assero.co.uk/MDRSdtmM/CDISC/V3#M-CDISC_SDTMMODEL_C_QUALIFIER_SC_VARIABLEQUALIFIER> . 
<http://www.assero.co.uk/MDRSdtmM/CDISC/V3#M-CDISC_SDTMMODEL> bd:includesVariable <http://www.assero.co.uk/MDRSdtmM/CDISC/V3#M-CDISC_SDTMMODEL_xxCLAS> . 
<http://www.assero.co.uk/MDRSdtmM/CDISC/V3#M-CDISC_SDTMMODEL_xxCLASCD> rdf:type <http://www.assero.co.uk/BusinessDomain#ModelVariable> . 
<http://www.assero.co.uk/MDRSdtmM/CDISC/V3#M-CDISC_SDTMMODEL_xxCLASCD> rdfs:label "Class Code"^^xsd:string . 
<http://www.assero.co.uk/MDRSdtmM/CDISC/V3#M-CDISC_SDTMMODEL_xxCLASCD> bd:ordinal "13"^^xsd:positiveInteger . 
<http://www.assero.co.uk/MDRSdtmM/CDISC/V3#M-CDISC_SDTMMODEL_xxCLASCD> bd:rule ""^^xsd:string . 
<http://www.assero.co.uk/MDRSdtmM/CDISC/V3#M-CDISC_SDTMMODEL_xxCLASCD> bd:name "--CLASCD"^^xsd:string . 
<http://www.assero.co.uk/MDRSdtmM/CDISC/V3#M-CDISC_SDTMMODEL_xxCLASCD> bd:prefixed "true"^^xsd:boolean . 
<http://www.assero.co.uk/MDRSdtmM/CDISC/V3#M-CDISC_SDTMMODEL_xxCLASCD> bd:description "Used to represent code for --CLAS."^^xsd:string . 
<http://www.assero.co.uk/MDRSdtmM/CDISC/V3#M-CDISC_SDTMMODEL_xxCLASCD> bd:typedAs <http://www.assero.co.uk/MDRSdtmM/CDISC/V3#M-CDISC_SDTMMODEL_DT_CHAR> . 
<http://www.assero.co.uk/MDRSdtmM/CDISC/V3#M-CDISC_SDTMMODEL_xxCLASCD> bd:classifiedAs <http://www.assero.co.uk/MDRSdtmM/CDISC/V3#M-CDISC_SDTMMODEL_C_QUALIFIER_SC_VARIABLEQUALIFIER> . 
<http://www.assero.co.uk/MDRSdtmM/CDISC/V3#M-CDISC_SDTMMODEL> bd:includesVariable <http://www.assero.co.uk/MDRSdtmM/CDISC/V3#M-CDISC_SDTMMODEL_xxCLASCD> . 
<http://www.assero.co.uk/MDRSdtmM/CDISC/V3#M-CDISC_SDTMMODEL_xxDOSE> rdf:type <http://www.assero.co.uk/BusinessDomain#ModelVariable> . 
<http://www.assero.co.uk/MDRSdtmM/CDISC/V3#M-CDISC_SDTMMODEL_xxDOSE> rdfs:label "Dose"^^xsd:string . 
<http://www.assero.co.uk/MDRSdtmM/CDISC/V3#M-CDISC_SDTMMODEL_xxDOSE> bd:ordinal "14"^^xsd:positiveInteger . 
<http://www.assero.co.uk/MDRSdtmM/CDISC/V3#M-CDISC_SDTMMODEL_xxDOSE> bd:rule ""^^xsd:string . 
<http://www.assero.co.uk/MDRSdtmM/CDISC/V3#M-CDISC_SDTMMODEL_xxDOSE> bd:name "--DOSE"^^xsd:string . 
<http://www.assero.co.uk/MDRSdtmM/CDISC/V3#M-CDISC_SDTMMODEL_xxDOSE> bd:prefixed "true"^^xsd:boolean . 
<http://www.assero.co.uk/MDRSdtmM/CDISC/V3#M-CDISC_SDTMMODEL_xxDOSE> bd:description "Amount of --TRT given. Not populated when --DOSTXT is populated."^^xsd:string . 
<http://www.assero.co.uk/MDRSdtmM/CDISC/V3#M-CDISC_SDTMMODEL_xxDOSE> bd:typedAs <http://www.assero.co.uk/MDRSdtmM/CDISC/V3#M-CDISC_SDTMMODEL_DT_NUM> . 
<http://www.assero.co.uk/MDRSdtmM/CDISC/V3#M-CDISC_SDTMMODEL_xxDOSE> bd:classifiedAs <http://www.assero.co.uk/MDRSdtmM/CDISC/V3#M-CDISC_SDTMMODEL_C_QUALIFIER_SC_RECORDQUALIFIER> . 
<http://www.assero.co.uk/MDRSdtmM/CDISC/V3#M-CDISC_SDTMMODEL> bd:includesVariable <http://www.assero.co.uk/MDRSdtmM/CDISC/V3#M-CDISC_SDTMMODEL_xxDOSE> . 
<http://www.assero.co.uk/MDRSdtmM/CDISC/V3#M-CDISC_SDTMMODEL_xxDOSTXT> rdf:type <http://www.assero.co.uk/BusinessDomain#ModelVariable> . 
<http://www.assero.co.uk/MDRSdtmM/CDISC/V3#M-CDISC_SDTMMODEL_xxDOSTXT> rdfs:label "Dose Description"^^xsd:string . 
<http://www.assero.co.uk/MDRSdtmM/CDISC/V3#M-CDISC_SDTMMODEL_xxDOSTXT> bd:ordinal "15"^^xsd:positiveInteger . 
<http://www.assero.co.uk/MDRSdtmM/CDISC/V3#M-CDISC_SDTMMODEL_xxDOSTXT> bd:rule ""^^xsd:string . 
<http://www.assero.co.uk/MDRSdtmM/CDISC/V3#M-CDISC_SDTMMODEL_xxDOSTXT> bd:name "--DOSTXT"^^xsd:string . 
<http://www.assero.co.uk/MDRSdtmM/CDISC/V3#M-CDISC_SDTMMODEL_xxDOSTXT> bd:prefixed "true"^^xsd:boolean . 
<http://www.assero.co.uk/MDRSdtmM/CDISC/V3#M-CDISC_SDTMMODEL_xxDOSTXT> bd:description "Dosing information collected in text form. Examples: <1 per day, 200-400. Not populated when --DOSE is populated."^^xsd:string . 
<http://www.assero.co.uk/MDRSdtmM/CDISC/V3#M-CDISC_SDTMMODEL_xxDOSTXT> bd:typedAs <http://www.assero.co.uk/MDRSdtmM/CDISC/V3#M-CDISC_SDTMMODEL_DT_CHAR> . 
<http://www.assero.co.uk/MDRSdtmM/CDISC/V3#M-CDISC_SDTMMODEL_xxDOSTXT> bd:classifiedAs <http://www.assero.co.uk/MDRSdtmM/CDISC/V3#M-CDISC_SDTMMODEL_C_QUALIFIER_SC_RECORDQUALIFIER> . 
<http://www.assero.co.uk/MDRSdtmM/CDISC/V3#M-CDISC_SDTMMODEL> bd:includesVariable <http://www.assero.co.uk/MDRSdtmM/CDISC/V3#M-CDISC_SDTMMODEL_xxDOSTXT> . 
<http://www.assero.co.uk/MDRSdtmM/CDISC/V3#M-CDISC_SDTMMODEL_xxDOSU> rdf:type <http://www.assero.co.uk/BusinessDomain#ModelVariable> . 
<http://www.assero.co.uk/MDRSdtmM/CDISC/V3#M-CDISC_SDTMMODEL_xxDOSU> rdfs:label "Dose Units"^^xsd:string . 
<http://www.assero.co.uk/MDRSdtmM/CDISC/V3#M-CDISC_SDTMMODEL_xxDOSU> bd:ordinal "16"^^xsd:positiveInteger . 
<http://www.assero.co.uk/MDRSdtmM/CDISC/V3#M-CDISC_SDTMMODEL_xxDOSU> bd:rule ""^^xsd:string . 
<http://www.assero.co.uk/MDRSdtmM/CDISC/V3#M-CDISC_SDTMMODEL_xxDOSU> bd:name "--DOSU"^^xsd:string . 
<http://www.assero.co.uk/MDRSdtmM/CDISC/V3#M-CDISC_SDTMMODEL_xxDOSU> bd:prefixed "true"^^xsd:boolean . 
<http://www.assero.co.uk/MDRSdtmM/CDISC/V3#M-CDISC_SDTMMODEL_xxDOSU> bd:description "Units for --DOSE, --DOSTOT, or --DOSTXT (Examples: ng, mg, mg/kg)."^^xsd:string . 
<http://www.assero.co.uk/MDRSdtmM/CDISC/V3#M-CDISC_SDTMMODEL_xxDOSU> bd:typedAs <http://www.assero.co.uk/MDRSdtmM/CDISC/V3#M-CDISC_SDTMMODEL_DT_CHAR> . 
<http://www.assero.co.uk/MDRSdtmM/CDISC/V3#M-CDISC_SDTMMODEL_xxDOSU> bd:classifiedAs <http://www.assero.co.uk/MDRSdtmM/CDISC/V3#M-CDISC_SDTMMODEL_C_QUALIFIER_SC_VARIABLEQUALIFIER> . 
<http://www.assero.co.uk/MDRSdtmM/CDISC/V3#M-CDISC_SDTMMODEL> bd:includesVariable <http://www.assero.co.uk/MDRSdtmM/CDISC/V3#M-CDISC_SDTMMODEL_xxDOSU> . 
<http://www.assero.co.uk/MDRSdtmM/CDISC/V3#M-CDISC_SDTMMODEL_xxDOSFRM> rdf:type <http://www.assero.co.uk/BusinessDomain#ModelVariable> . 
<http://www.assero.co.uk/MDRSdtmM/CDISC/V3#M-CDISC_SDTMMODEL_xxDOSFRM> rdfs:label "Dose Form"^^xsd:string . 
<http://www.assero.co.uk/MDRSdtmM/CDISC/V3#M-CDISC_SDTMMODEL_xxDOSFRM> bd:ordinal "17"^^xsd:positiveInteger . 
<http://www.assero.co.uk/MDRSdtmM/CDISC/V3#M-CDISC_SDTMMODEL_xxDOSFRM> bd:rule ""^^xsd:string . 
<http://www.assero.co.uk/MDRSdtmM/CDISC/V3#M-CDISC_SDTMMODEL_xxDOSFRM> bd:name "--DOSFRM"^^xsd:string . 
<http://www.assero.co.uk/MDRSdtmM/CDISC/V3#M-CDISC_SDTMMODEL_xxDOSFRM> bd:prefixed "true"^^xsd:boolean . 
<http://www.assero.co.uk/MDRSdtmM/CDISC/V3#M-CDISC_SDTMMODEL_xxDOSFRM> bd:description "Dose form for the treatment. Examples: TABLET, CAPSULE."^^xsd:string . 
