---
:type: http://www.assero.co.uk/CDISCBiomedicalConcept#BiomedicalConceptInstance
:id: BC-ACME_BC_C25206
:namespace: http://www.assero.co.uk/MDRBCs/V1
:label: Temperature (BC C25206)
:extension_properties: []
:origin: ''
:change_description: ''
:creation_date: '2016-01-01T00:00:00+00:00'
:last_changed_date: '2016-01-01T00:00:00+00:00'
:explanatory_comment: ''
:registration_state:
  :namespace: http://www.assero.co.uk/MDRItems
  :id: RS-ACME_BC_C25206-1
  :registration_authority:
    :uri: http://www.assero.co.uk/RA#DUNS123456789
    :rdf_type: http://www.assero.co.uk/ISO11179Registration#RegistrationAuthority
    :organization_identifier: '123456789'
    :international_code_designator: DUNS
    :owner: true
    :ra_namespace:
      :uri: http://www.assero.co.uk/NS#ACME
      :rdf_type: http://www.assero.co.uk/ISO11179Identification#Namespace
      :short_name: ACME
      :name: ACME Pharma
      :authority: www.acme-pharma.com
  :registration_status: Standard
  :administrative_note: ''
  :effective_date: '2016-01-01T00:00:00Z'
  :until_date: '2016-01-01T00:00:00Z'
  :current: false
  :unresolved_issue: ''
  :administrative_status: ''
  :previous_state: Qualified
:scoped_identifier:
  :id: SI-ACME_BC_C25206-1
  :identifier: BC C25206
  :version_label: '0.1'
  :version: 1
  :semantic_version: 1.0.0
  :namespace:
    :uri: http://www.assero.co.uk/NS#ACME
    :rdf_type: http://www.assero.co.uk/ISO11179Identification#Namespace
    :short_name: ACME
    :name: ACME Pharma
    :authority: www.acme-pharma.com
:children:
- :type: http://www.assero.co.uk/CDISCBiomedicalConcept#Property
  :id: BC-ACME_BC_C25206_PerformedClinicalResult_baselineIndicator_BL_value
  :namespace: http://www.assero.co.uk/MDRBCs/V1
  :label: ''
  :extension_properties: []
  :ordinal: 1
  :alias: Baseline (--BLFL)
  :coded: false
  :collect: true
  :enabled: false
  :question_text: Question text
  :prompt_text: Prompt text
  :simple_datatype: boolean
  :format: ''
  :bridg_path: PerformedClinicalResult.baselineIndicator.BL.value
  :children:
  - :type: http://www.assero.co.uk/BusinessOperational#TcReference
    :id: BC-ACME_BC_C25206_PerformedClinicalResult_baselineIndicator_BL_value_TR_1
    :namespace: http://www.assero.co.uk/MDRBCs/V1
    :label: Thesaurus Concept Reference
    :extension_properties: []
    :enabled: true
    :optional: true
    :ordinal: 1
    :local_label: ''
    :subject_ref:
      :namespace: http://www.assero.co.uk/MDRThesaurus/CDISC/V42
      :id: CLI-C66742_C49487
  - :type: http://www.assero.co.uk/BusinessOperational#TcReference
    :id: BC-ACME_BC_C25206_PerformedClinicalResult_baselineIndicator_BL_value_TR_2
    :namespace: http://www.assero.co.uk/MDRBCs/V1
    :label: Thesaurus Concept Reference
    :extension_properties: []
    :enabled: true
    :optional: true
    :ordinal: 2
    :local_label: ''
    :subject_ref:
      :namespace: http://www.assero.co.uk/MDRThesaurus/CDISC/V42
      :id: CLI-C66742_C49488
- :type: http://www.assero.co.uk/CDISCBiomedicalConcept#Property
  :id: BC-ACME_BC_C25206_DefinedObservation_targetAnatomicSiteCode_CD_code
  :namespace: http://www.assero.co.uk/MDRBCs/V1
  :label: ''
  :extension_properties: []
  :ordinal: 1
  :alias: Location (--LOC)
  :coded: true
  :collect: true
  :enabled: false
  :question_text: Location of test
  :prompt_text: Location
  :simple_datatype: string
  :format: ''
  :bridg_path: DefinedObservation.targetAnatomicSiteCode.CD.code
  :children: []
- :type: http://www.assero.co.uk/CDISCBiomedicalConcept#Property
  :id: BC-ACME_BC_C25206_PerformedObservation_dateRange_IVL_TS_DATETIME_low_TS_DATETIME_value
  :namespace: http://www.assero.co.uk/MDRBCs/V1
  :label: ''
  :extension_properties: []
  :ordinal: 1
  :alias: Date and Time (--DTC)
  :coded: false
  :collect: true
  :enabled: true
  :question_text: Question text
  :prompt_text: Prompt text
  :simple_datatype: dateTime
  :format: ''
  :bridg_path: PerformedObservation.dateRange.IVL_TS_DATETIME.low.TS_DATETIME.value
  :children: []
- :type: http://www.assero.co.uk/CDISCBiomedicalConcept#Property
  :id: BC-ACME_BC_C25206_PerformedObservation_bodyPositionCode_CD_code
  :namespace: http://www.assero.co.uk/MDRBCs/V1
  :label: ''
  :extension_properties: []
  :ordinal: 1
  :alias: Body Position (--POS)
  :coded: true
  :collect: true
  :enabled: false
  :question_text: Updated Question text
  :prompt_text: Prompt text
  :simple_datatype: string
  :format: ''
  :bridg_path: PerformedObservation.bodyPositionCode.CD.code
  :children: []
- :type: http://www.assero.co.uk/CDISCBiomedicalConcept#Property
  :id: BC-ACME_BC_C25206_DefinedObservation_nameCode_CD_originalText_ED_value
  :namespace: http://www.assero.co.uk/MDRBCs/V1
  :label: ''
  :extension_properties: []
  :ordinal: 1
  :alias: Test Name (--TEST)
  :coded: true
  :collect: false
  :enabled: true
  :question_text: Question text
  :prompt_text: Prompt text
  :simple_datatype: string
  :format: ''
  :bridg_path: DefinedObservation.nameCode.CD.originalText.ED.value
  :children:
  - :type: http://www.assero.co.uk/BusinessOperational#TcReference
    :id: BC-ACME_BC_C25206_DefinedObservation_nameCode_CD_originalText_ED_value_TR_1
    :namespace: http://www.assero.co.uk/MDRBCs/V1
    :label: Thesaurus Concept Reference
    :extension_properties: []
    :enabled: true
    :optional: true
    :ordinal: 1
    :local_label: ''
    :subject_ref:
      :namespace: http://www.assero.co.uk/MDRThesaurus/CDISC/V42
      :id: CLI-C67153_C25206
- :type: http://www.assero.co.uk/CDISCBiomedicalConcept#Property
  :id: BC-ACME_BC_C25206_DefinedObservation_nameCode_CD_code
  :namespace: http://www.assero.co.uk/MDRBCs/V1
  :label: ''
  :extension_properties: []
  :ordinal: 1
  :alias: Test Code (--TESTCD)
  :coded: true
  :collect: false
  :enabled: true
  :question_text: Question text
  :prompt_text: Prompt text
  :simple_datatype: string
  :format: ''
  :bridg_path: DefinedObservation.nameCode.CD.code
  :children:
  - :type: http://www.assero.co.uk/BusinessOperational#TcReference
    :id: BC-ACME_BC_C25206_DefinedObservation_nameCode_CD_code_TR_1
    :namespace: http://www.assero.co.uk/MDRBCs/V1
    :label: Thesaurus Concept Reference
    :extension_properties: []
    :enabled: true
    :optional: true
    :ordinal: 1
    :local_label: ''
    :subject_ref:
      :namespace: http://www.assero.co.uk/MDRThesaurus/CDISC/V42
      :id: CLI-C66741_C25206
- :type: http://www.assero.co.uk/CDISCBiomedicalConcept#Property
  :id: BC-ACME_BC_C25206_PerformedObservation_targetAnatomicSiteLateralityCode_CD_code
  :namespace: http://www.assero.co.uk/MDRBCs/V1
  :label: ''
  :extension_properties: []
  :ordinal: 1
  :alias: Laterality (--LAT)
  :coded: true
  :collect: true
  :enabled: false
  :question_text: Question text
  :prompt_text: Prompt text
  :simple_datatype: string
  :format: ''
  :bridg_path: PerformedObservation.targetAnatomicSiteLateralityCode.CD.code
  :children: []
- :type: http://www.assero.co.uk/CDISCBiomedicalConcept#Property
  :id: BC-ACME_BC_C25206_DefinedObservation_methodCode_CD_code
  :namespace: http://www.assero.co.uk/MDRBCs/V1
  :label: ''
  :extension_properties: []
  :ordinal: 1
  :alias: Method Code (--METHOD)
  :coded: true
  :collect: true
  :enabled: false
  :question_text: Question text
  :prompt_text: Prompt text
  :simple_datatype: string
  :format: ''
  :bridg_path: DefinedObservation.methodCode.CD.code
  :children: []
- :type: http://www.assero.co.uk/CDISCBiomedicalConcept#Property
  :id: BC-ACME_BC_C25206_PerformedClinicalResult_value_PQR_code
  :namespace: http://www.assero.co.uk/MDRBCs/V1
  :label: ''
  :extension_properties: []
  :ordinal: 2
  :alias: Result Units (--ORRESU)
  :coded: true
  :collect: true
  :enabled: true
  :question_text: Question text
  :prompt_text: Prompt text
  :simple_datatype: string
  :format: ''
  :bridg_path: PerformedClinicalResult.value.PQR.code
  :children:
  - :type: http://www.assero.co.uk/BusinessOperational#TcReference
    :id: BC-ACME_BC_C25206_PerformedClinicalResult_value_PQR_code_TR_1
    :namespace: http://www.assero.co.uk/MDRBCs/V1
    :label: Thesaurus Concept Reference
    :extension_properties: []
    :enabled: true
    :optional: true
    :ordinal: 1
    :local_label: ''
    :subject_ref:
      :namespace: http://www.assero.co.uk/MDRThesaurus/CDISC/V42
      :id: CLI-C66770_C42559
- :type: http://www.assero.co.uk/CDISCBiomedicalConcept#Property
  :id: BC-ACME_BC_C25206_PerformedClinicalResult_value_PQR_value
  :namespace: http://www.assero.co.uk/MDRBCs/V1
  :label: ''
  :extension_properties: []
  :ordinal: 1
  :alias: Result Value (--ORRES)
  :coded: false
  :collect: true
  :enabled: true
  :question_text: Question text
  :prompt_text: Prompt text
  :simple_datatype: float
  :format: ''
  :bridg_path: PerformedClinicalResult.value.PQR.value
  :children: []
