---
:operation:
  :action: CREATE
  :new_version: 1
  :new_state: Incomplete
  :identifier_edit: false
:managed_item:
  :type: http://www.assero.co.uk/CDISCBiomedicalConcept#BiomedicalConceptInstance
  :id: BC-ACME_FROMOP
  :namespace: http://www.assero.co.uk/MDRBCs/ACME/V1
  :label: New BC
  :extension_properties: []
  :origin: ''
  :change_description: ''
  :creation_date: '2016-12-26T14:20:15+00:00'
  :last_changed_date: '2016-12-26T14:20:15+00:00'
  :explanatory_comment: ''
  :registration_state:
    :namespace: http://www.assero.co.uk/MDRItems
    :id: RS-ACME_FROMOP-1
    :registration_authority:
      :id: RA-123456789
      :number: '123456789'
      :scheme: DUNS
      :owner: true
      :namespace:
        :namespace: http://www.assero.co.uk/MDRItems
        :id: NS-ACME
        :name: ACME Pharma
        :shortName: ACME
    :registration_status: Incomplete
    :administrative_note: ''
    :effective_date: '2016-01-01T00:00:00+00:00'
    :until_date: '2016-01-01T00:00:00+00:00'
    :current: false
    :unresolved_issue: ''
    :administrative_status: ''
    :previous_state: Incomplete
  :scoped_identifier:
    :id: SI-ACME_FROMOP-1
    :identifier: NEW BC
    :version_label: ''
    :version: 1
    :namespace:
      :namespace: http://www.assero.co.uk/MDRItems
      :id: NS-ACME
      :name: ACME Pharma
      :shortName: ACME
  :children:
  - :type: http://www.assero.co.uk/CDISCBiomedicalConcept#Item
    :id: BC-ACME_FROMOP_I1
    :namespace: http://www.assero.co.uk/MDRBCs/ACME/V1
    :label: ''
    :extension_properties: []
    :ordinal: 1
    :alias: Test
    :bridg_class: DefinedObservation
    :bridg_attribute: nameCode
    :children: []
    :datatype:
      :type: http://www.assero.co.uk/CDISCBiomedicalConcept#Datatype
      :id: BC-ACME_FROMOP_I1_DT1
      :namespace: http://www.assero.co.uk/MDRBCs/ACME/V1
      :label: ''
      :extension_properties: []
      :ordinal: 1
      :alias: ''
      :iso21090_datatype: CD
      :children:
      - :type: http://www.assero.co.uk/CDISCBiomedicalConcept#Property
        :id: BC-ACME_FROMOP_I1_DT1_P1
        :namespace: http://www.assero.co.uk/MDRBCs/ACME/V1
        :label: ''
        :extension_properties: []
        :ordinal: 1
        :alias: Name
        :complex_datatype:
          :type: http://www.assero.co.uk/CDISCBiomedicalConcept#Datatype
          :id: BC-ACME_FROMOP_I1_DT1_P1_DT1
          :namespace: http://www.assero.co.uk/MDRBCs/ACME/V1
          :label: ''
          :extension_properties: []
          :ordinal: 1
          :alias: ''
          :iso21090_datatype: ED
          :children:
          - :type: http://www.assero.co.uk/CDISCBiomedicalConcept#Property
            :id: BC-ACME_FROMOP_I1_DT1_P1_DT1_P1
            :namespace: http://www.assero.co.uk/MDRBCs/ACME/V1
            :label: ''
            :extension_properties: []
            :ordinal: 1
            :alias: Test Name (--TEST)
            :collect: false
            :enabled: true
            :question_text: Question text
            :prompt_text: Prompt text
            :simple_datatype: string
            :format: ''
            :bridg_path: DefinedObservation.nameCode.CD.originalText.ED.value
            :children:
            - :type: http://www.assero.co.uk/BusinessOperational#TcReference
              :id: BC-ACME_BC_C98793_DefinedObservation_nameCode_CD_originalText_ED_value_TR_1
              :namespace: http://www.assero.co.uk/MDRBCs/V1
              :label: Thesaurus Concept Reference
              :extension_properties: []
              :enabled: true
              :optional: true
              :ordinal: 1
              :local_label: ''
              :subject_ref:
                :namespace: http://www.assero.co.uk/MDRThesaurus/CDISC/V42
                :id: CLI-C67153_C98793
      - :type: http://www.assero.co.uk/CDISCBiomedicalConcept#Property
        :id: BC-ACME_FROMOP_I1_DT1_P1
        :namespace: http://www.assero.co.uk/MDRBCs/ACME/V1
        :label: ''
        :extension_properties: []
        :ordinal: 1
        :alias: Test Code (--TESTCD)
        :collect: false
        :enabled: true
        :question_text: Question text
        :prompt_text: Prompt text
        :simple_datatype: string
        :format: ''
        :bridg_path: DefinedObservation.nameCode.CD.code
        :children:
        - :type: http://www.assero.co.uk/BusinessOperational#TcReference
          :id: BC-ACME_BC_C98793_DefinedObservation_nameCode_CD_code_TR_1
          :namespace: http://www.assero.co.uk/MDRBCs/V1
          :label: Thesaurus Concept Reference
          :extension_properties: []
          :enabled: true
          :optional: true
          :ordinal: 1
          :local_label: ''
          :subject_ref:
            :namespace: http://www.assero.co.uk/MDRThesaurus/CDISC/V42
            :id: CLI-C66741_C98793
  - :type: http://www.assero.co.uk/CDISCBiomedicalConcept#Item
    :id: BC-ACME_FROMOP_I2
    :namespace: http://www.assero.co.uk/MDRBCs/ACME/V1
    :label: ''
    :extension_properties: []
    :ordinal: 2
    :alias: SiteOfAdministration
    :bridg_class: DefinedObservation
    :bridg_attribute: targetAnatomicSiteCode
    :children: []
    :datatype:
      :type: http://www.assero.co.uk/CDISCBiomedicalConcept#Datatype
      :id: BC-ACME_FROMOP_I2_DT1
      :namespace: http://www.assero.co.uk/MDRBCs/ACME/V1
      :label: ''
      :extension_properties: []
      :ordinal: 1
      :alias: ''
      :iso21090_datatype: CD
      :children:
      - :type: http://www.assero.co.uk/CDISCBiomedicalConcept#Property
        :id: BC-ACME_FROMOP_I2_DT1_P1
        :namespace: http://www.assero.co.uk/MDRBCs/ACME/V1
        :label: ''
        :extension_properties: []
        :ordinal: 1
        :alias: Location (--LOC)
        :collect: true
        :enabled: false
        :question_text: Location of test
        :prompt_text: Location
        :simple_datatype: string
        :format: ''
        :bridg_path: DefinedObservation.targetAnatomicSiteCode.CD.code
        :children: []
  - :type: http://www.assero.co.uk/CDISCBiomedicalConcept#Item
    :id: BC-ACME_FROMOP_I3
    :namespace: http://www.assero.co.uk/MDRBCs/ACME/V1
    :label: ''
    :extension_properties: []
    :ordinal: 3
    :alias: Method
    :bridg_class: DefinedObservation
    :bridg_attribute: methodCode
    :children: []
    :datatype:
      :type: http://www.assero.co.uk/CDISCBiomedicalConcept#Datatype
      :id: BC-ACME_FROMOP_I3_DT1
      :namespace: http://www.assero.co.uk/MDRBCs/ACME/V1
      :label: ''
      :extension_properties: []
      :ordinal: 1
      :alias: ''
      :iso21090_datatype: CD
      :children:
      - :type: http://www.assero.co.uk/CDISCBiomedicalConcept#Property
        :id: BC-ACME_FROMOP_I3_DT1_P1
        :namespace: http://www.assero.co.uk/MDRBCs/ACME/V1
        :label: ''
        :extension_properties: []
        :ordinal: 1
        :alias: Method Code (--METHOD)
        :collect: true
        :enabled: false
        :question_text: Question text
        :prompt_text: Prompt text
        :simple_datatype: string
        :format: ''
        :bridg_path: DefinedObservation.methodCode.CD.code
        :children: []
  - :type: http://www.assero.co.uk/CDISCBiomedicalConcept#Item
    :id: BC-ACME_FROMOP_I4
    :namespace: http://www.assero.co.uk/MDRBCs/ACME/V1
    :label: ''
    :extension_properties: []
    :ordinal: 4
    :alias: DateTime
    :bridg_class: PerformedObservation
    :bridg_attribute: dateRange
    :children: []
    :datatype:
      :type: http://www.assero.co.uk/CDISCBiomedicalConcept#Datatype
      :id: BC-ACME_FROMOP_I4_DT1
      :namespace: http://www.assero.co.uk/MDRBCs/ACME/V1
      :label: ''
      :extension_properties: []
      :ordinal: 1
      :alias: ''
      :iso21090_datatype: IVL_TS_DATETIME
      :children:
      - :type: http://www.assero.co.uk/CDISCBiomedicalConcept#Property
        :id: BC-ACME_FROMOP_I4_DT1_P1
        :namespace: http://www.assero.co.uk/MDRBCs/ACME/V1
        :label: ''
        :extension_properties: []
        :ordinal: 1
        :alias: Date
        :complex_datatype:
          :type: http://www.assero.co.uk/CDISCBiomedicalConcept#Datatype
          :id: BC-ACME_FROMOP_I4_DT1_P1_DT1
          :namespace: http://www.assero.co.uk/MDRBCs/ACME/V1
          :label: ''
          :extension_properties: []
          :ordinal: 1
          :alias: ''
          :iso21090_datatype: TS_DATETIME
          :children:
          - :type: http://www.assero.co.uk/CDISCBiomedicalConcept#Property
            :id: BC-ACME_FROMOP_I4_DT1_P1_DT1_P1
            :namespace: http://www.assero.co.uk/MDRBCs/ACME/V1
            :label: ''
            :extension_properties: []
            :ordinal: 1
            :alias: Date and Time (--DTC)
            :collect: true
            :enabled: true
            :question_text: Question text
            :prompt_text: Prompt text
            :simple_datatype: dateTime
            :format: ''
            :bridg_path: PerformedObservation.dateRange.IVL_TS_DATETIME.low.TS_DATETIME.value
            :children: []
  - :type: http://www.assero.co.uk/CDISCBiomedicalConcept#Item
    :id: BC-ACME_FROMOP_I5
    :namespace: http://www.assero.co.uk/MDRBCs/ACME/V1
    :label: ''
    :extension_properties: []
    :ordinal: 5
    :alias: ReasonNotDone
    :bridg_class: PerformedObservation
    :bridg_attribute: negationReason
    :children: []
    :datatype:
      :type: http://www.assero.co.uk/CDISCBiomedicalConcept#Datatype
      :id: BC-ACME_FROMOP_I5_DT1
      :namespace: http://www.assero.co.uk/MDRBCs/ACME/V1
      :label: ''
      :extension_properties: []
      :ordinal: 1
      :alias: ''
      :iso21090_datatype: SC
      :children:
      - :type: http://www.assero.co.uk/CDISCBiomedicalConcept#Property
        :id: BC-ACME_FROMOP_I5_DT1_P1
        :namespace: http://www.assero.co.uk/MDRBCs/ACME/V1
        :label: ''
        :extension_properties: []
        :ordinal: 1
        :alias: Code
        :complex_datatype:
          :type: http://www.assero.co.uk/CDISCBiomedicalConcept#Datatype
          :id: BC-ACME_FROMOP_I5_DT1_P1_DT1
          :namespace: http://www.assero.co.uk/MDRBCs/ACME/V1
          :label: ''
          :extension_properties: []
          :ordinal: 1
          :alias: ''
          :iso21090_datatype: CD
          :children: []
  - :type: http://www.assero.co.uk/CDISCBiomedicalConcept#Item
    :id: BC-ACME_FROMOP_I6
    :namespace: http://www.assero.co.uk/MDRBCs/ACME/V1
    :label: ''
    :extension_properties: []
    :ordinal: 6
    :alias: Position
    :bridg_class: PerformedObservation
    :bridg_attribute: bodyPositionCode
    :children: []
    :datatype:
      :type: http://www.assero.co.uk/CDISCBiomedicalConcept#Datatype
      :id: BC-ACME_FROMOP_I6_DT1
      :namespace: http://www.assero.co.uk/MDRBCs/ACME/V1
      :label: ''
      :extension_properties: []
      :ordinal: 1
      :alias: ''
      :iso21090_datatype: CD
      :children:
      - :type: http://www.assero.co.uk/CDISCBiomedicalConcept#Property
        :id: BC-ACME_FROMOP_I6_DT1_P1
        :namespace: http://www.assero.co.uk/MDRBCs/ACME/V1
        :label: ''
        :extension_properties: []
        :ordinal: 1
        :alias: Body Position (--POS)
        :collect: true
        :enabled: false
        :question_text: Question text
        :prompt_text: Prompt text
        :simple_datatype: string
        :format: ''
        :bridg_path: PerformedObservation.bodyPositionCode.CD.code
        :children: []
  - :type: http://www.assero.co.uk/CDISCBiomedicalConcept#Item
    :id: BC-ACME_FROMOP_I7
    :namespace: http://www.assero.co.uk/MDRBCs/ACME/V1
    :label: ''
    :extension_properties: []
    :ordinal: 7
    :alias: Laterality
    :bridg_class: PerformedObservation
    :bridg_attribute: targetAnatomicSiteLateralityCode
    :children: []
    :datatype:
      :type: http://www.assero.co.uk/CDISCBiomedicalConcept#Datatype
      :id: BC-ACME_FROMOP_I7_DT1
      :namespace: http://www.assero.co.uk/MDRBCs/ACME/V1
      :label: ''
      :extension_properties: []
      :ordinal: 1
      :alias: ''
      :iso21090_datatype: CD
      :children:
      - :type: http://www.assero.co.uk/CDISCBiomedicalConcept#Property
        :id: BC-ACME_FROMOP_I7_DT1_P1
        :namespace: http://www.assero.co.uk/MDRBCs/ACME/V1
        :label: ''
        :extension_properties: []
        :ordinal: 1
        :alias: Laterality (--LAT)
        :collect: true
        :enabled: false
        :question_text: Question text
        :prompt_text: Prompt text
        :simple_datatype: string
        :format: ''
        :bridg_path: PerformedObservation.targetAnatomicSiteLateralityCode.CD.code
        :children: []
  - :type: http://www.assero.co.uk/CDISCBiomedicalConcept#Item
    :id: BC-ACME_FROMOP_I8
    :namespace: http://www.assero.co.uk/MDRBCs/ACME/V1
    :label: ''
    :extension_properties: []
    :ordinal: 8
    :alias: Result
    :bridg_class: PerformedClinicalResult
    :bridg_attribute: value
    :children: []
    :datatype:
      :type: http://www.assero.co.uk/CDISCBiomedicalConcept#Datatype
      :id: BC-ACME_FROMOP_I8_DT1
      :namespace: http://www.assero.co.uk/MDRBCs/ACME/V1
      :label: ''
      :extension_properties: []
      :ordinal: 1
      :alias: ''
      :iso21090_datatype: PQR
      :children:
      - :type: http://www.assero.co.uk/CDISCBiomedicalConcept#Property
        :id: BC-ACME_FROMOP_I8_DT1_P1
        :namespace: http://www.assero.co.uk/MDRBCs/ACME/V1
        :label: ''
        :extension_properties: []
        :ordinal: 1
        :alias: Result Value (--ORRES)
        :collect: true
        :enabled: true
        :question_text: Question text
        :prompt_text: Prompt text
        :simple_datatype: float
        :format: ''
        :bridg_path: PerformedClinicalResult.value.PQR.value
        :children: []
      - :type: http://www.assero.co.uk/CDISCBiomedicalConcept#Property
        :id: BC-ACME_FROMOP_I8_DT1_P2
        :namespace: http://www.assero.co.uk/MDRBCs/ACME/V1
        :label: ''
        :extension_properties: []
        :ordinal: 2
        :alias: Result Units (--ORRESU)
        :collect: true
        :enabled: true
        :question_text: Question text
        :prompt_text: Prompt text
        :simple_datatype: string
        :format: ''
        :bridg_path: PerformedClinicalResult.value.PQR.code
        :children:
        - :type: http://www.assero.co.uk/BusinessOperational#TcReference
          :id: BC-ACME_BC_C98793_PerformedClinicalResult_value_PQR_code_TR_1
          :namespace: http://www.assero.co.uk/MDRBCs/V1
          :label: Thesaurus Concept Reference
          :extension_properties: []
          :enabled: true
          :optional: true
          :ordinal: 1
          :local_label: ''
          :subject_ref:
            :namespace: http://www.assero.co.uk/MDRThesaurus/CDISC/V42
            :id: CLI-C66770_C28251
  - :type: http://www.assero.co.uk/CDISCBiomedicalConcept#Item
    :id: BC-ACME_FROMOP_I9
    :namespace: http://www.assero.co.uk/MDRBCs/ACME/V1
    :label: ''
    :extension_properties: []
    :ordinal: 9
    :alias: Baseline
    :bridg_class: PerformedClinicalResult
    :bridg_attribute: baselineIndicator
    :children: []
    :datatype:
      :type: http://www.assero.co.uk/CDISCBiomedicalConcept#Datatype
      :id: BC-ACME_FROMOP_I9_DT1
      :namespace: http://www.assero.co.uk/MDRBCs/ACME/V1
      :label: ''
      :extension_properties: []
      :ordinal: 1
      :alias: ''
      :iso21090_datatype: BL
      :children:
      - :type: http://www.assero.co.uk/CDISCBiomedicalConcept#Property
        :id: BC-ACME_FROMOP_I9_DT1_P1
        :namespace: http://www.assero.co.uk/MDRBCs/ACME/V1
        :label: ''
        :extension_properties: []
        :ordinal: 1
        :alias: Baseline (--BLFL)
        :collect: true
        :enabled: false
        :question_text: Question text
        :prompt_text: Prompt text
        :simple_datatype: boolean
        :format: ''
        :bridg_path: PerformedClinicalResult.baselineIndicator.BL.value
        :children:
        - :type: http://www.assero.co.uk/BusinessOperational#TcReference
          :id: BC-ACME_BC_C98793_PerformedClinicalResult_baselineIndicator_BL_value_TR_1
          :namespace: http://www.assero.co.uk/MDRBCs/V1
          :label: Thesaurus Concept Reference
          :extension_properties: []
          :enabled: true
          :optional: true
          :ordinal: 1
          :local_label: ''
          :subject_ref:
            :namespace: http://www.assero.co.uk/MDRThesaurus/CDISC/V42
            :id: CLI-C66742_C49487
        - :type: http://www.assero.co.uk/BusinessOperational#TcReference
          :id: BC-ACME_BC_C98793_PerformedClinicalResult_baselineIndicator_BL_value_TR_2
          :namespace: http://www.assero.co.uk/MDRBCs/V1
          :label: Thesaurus Concept Reference
          :extension_properties: []
          :enabled: true
          :optional: true
          :ordinal: 2
          :local_label: ''
          :subject_ref:
            :namespace: http://www.assero.co.uk/MDRThesaurus/CDISC/V42
            :id: CLI-C66742_C49488
  :template_ref:
    :type: http://www.assero.co.uk/BusinessOperational#BctReference
    :id: BC-ACME_FROMOP_TPR1
    :namespace: http://www.assero.co.uk/MDRBCs/ACME/V1
    :label: Based on Template Reference
    :extension_properties: []
    :enabled: true
    :optional: false
    :ordinal: 1
    :local_label: ''
    :subject_ref:
      :namespace: http://www.assero.co.uk/MDRBCTs/V1
      :id: BCT-Obs_PQR
