---
:type: http://www.assero.co.uk/CDISCBiomedicalConcept#BiomedicalConceptInstance
:id: BC-ACME_NEWBC
:namespace: http://www.assero.co.uk/MDRBCs/ACME/V1
:label: New BC
:extension_properties: []
:origin: ''
:change_description: ''
:creation_date: '2016-12-26T14:48:10+00:00'
:last_changed_date: '2016-12-26T14:48:10+00:00'
:explanatory_comment: ''
:registration_state:
  :namespace: http://www.assero.co.uk/MDRItems
  :id: RS-ACME_NEWBC-1
  :registration_authority:
    :id: RA-123456789
    :number: '123456789'
    :scheme: DUNS
    :owner: true
    :namespace:
      :namespace: http://www.assero.co.uk/MDRItems
      :id: NS-ACME
      :name: ACME Pharma
      :shortName: ACME
  :registration_status: Incomplete
  :administrative_note: ''
  :effective_date: '2016-01-01T00:00:00+00:00'
  :until_date: '2016-01-01T00:00:00+00:00'
  :current: false
  :unresolved_issue: ''
  :administrative_status: ''
  :previous_state: Incomplete
:scoped_identifier:
  :id: SI-ACME_NEWBC-1
  :identifier: NEW BC
  :version_label: ''
  :version: 1
  :semantic_version: '0.1.0'
  :namespace:
    :namespace: http://www.assero.co.uk/MDRItems
    :id: NS-ACME
    :name: ACME Pharma
    :shortName: ACME
:children:
- :type: http://www.assero.co.uk/CDISCBiomedicalConcept#Item
  :id: BC-ACME_NEWBC_I1
  :namespace: http://www.assero.co.uk/MDRBCs/ACME/V1
  :label: ''
  :extension_properties: []
  :ordinal: 1
  :alias: Test
  :bridg_class: DefinedObservation
  :bridg_attribute: DefinedObservation_nameCode
  :children: []
  :datatype:
    :type: http://www.assero.co.uk/CDISCBiomedicalConcept#Datatype
    :id: BC-ACME_NEWBC_I1_DT1
    :namespace: http://www.assero.co.uk/MDRBCs/ACME/V1
    :label: ''
    :extension_properties: []
    :ordinal: 1
    :alias: ''
    :iso21090_datatype: CD
    :children:
    - :type: http://www.assero.co.uk/CDISCBiomedicalConcept#Property
      :id: BC-ACME_NEWBC_I1_DT1_P1
      :namespace: http://www.assero.co.uk/MDRBCs/ACME/V1
      :label: ''
      :extension_properties: []
      :ordinal: 1
      :alias: Name
      :complex_datatype:
        :type: http://www.assero.co.uk/CDISCBiomedicalConcept#Datatype
        :id: BC-ACME_NEWBC_I1_DT1_P1_DT1
        :namespace: http://www.assero.co.uk/MDRBCs/ACME/V1
        :label: ''
        :extension_properties: []
        :ordinal: 1
        :alias: ''
        :iso21090_datatype: ''
        :children:
        - :type: http://www.assero.co.uk/CDISCBiomedicalConcept#Property
          :id: BC-ACME_NEWBC_I1_DT1_P1_DT1_P1
          :namespace: http://www.assero.co.uk/MDRBCs/ACME/V1
          :label: ''
          :extension_properties: []
          :ordinal: 1
          :alias: Test Name (--TEST)
          :collect: false
          :enabled: false
          :question_text: ''
          :prompt_text: ''
          :simple_datatype: string
          :format: ''
          :bridg_path: DefinedObservation.nameCode.CD.originalText.ED.value
          :children: []
    - :type: http://www.assero.co.uk/CDISCBiomedicalConcept#Property
      :id: BC-ACME_NEWBC_I1_DT1_P1
      :namespace: http://www.assero.co.uk/MDRBCs/ACME/V1
      :label: ''
      :extension_properties: []
      :ordinal: 1
      :alias: Test Code (--TESTCD)
      :collect: false
      :enabled: false
      :question_text: ''
      :prompt_text: ''
      :simple_datatype: string
      :format: ''
      :bridg_path: DefinedObservation.nameCode.CD.code
      :children: []
- :type: http://www.assero.co.uk/CDISCBiomedicalConcept#Item
  :id: BC-ACME_NEWBC_I2
  :namespace: http://www.assero.co.uk/MDRBCs/ACME/V1
  :label: ''
  :extension_properties: []
  :ordinal: 2
  :alias: SiteOfAdministration
  :bridg_class: DefinedObservation
  :bridg_attribute: DefinedObservation_targetAnatomicSiteCode
  :children: []
  :datatype:
    :type: http://www.assero.co.uk/CDISCBiomedicalConcept#Datatype
    :id: BC-ACME_NEWBC_I2_DT1
    :namespace: http://www.assero.co.uk/MDRBCs/ACME/V1
    :label: ''
    :extension_properties: []
    :ordinal: 1
    :alias: ''
    :iso21090_datatype: CD
    :children:
    - :type: http://www.assero.co.uk/CDISCBiomedicalConcept#Property
      :id: BC-ACME_NEWBC_I2_DT1_P1
      :namespace: http://www.assero.co.uk/MDRBCs/ACME/V1
      :label: ''
      :extension_properties: []
      :ordinal: 1
      :alias: Site Of Administration (--LOC)
      :collect: false
      :enabled: false
      :question_text: ''
      :prompt_text: ''
      :simple_datatype: string
      :format: ''
      :bridg_path: DefinedObservation.targetAnatomicSiteCode.CD.code
      :children: []
- :type: http://www.assero.co.uk/CDISCBiomedicalConcept#Item
  :id: BC-ACME_NEWBC_I3
  :namespace: http://www.assero.co.uk/MDRBCs/ACME/V1
  :label: ''
  :extension_properties: []
  :ordinal: 3
  :alias: Method
  :bridg_class: DefinedObservation
  :bridg_attribute: DefinedObservation_methodCode
  :children: []
  :datatype:
    :type: http://www.assero.co.uk/CDISCBiomedicalConcept#Datatype
    :id: BC-ACME_NEWBC_I3_DT1
    :namespace: http://www.assero.co.uk/MDRBCs/ACME/V1
    :label: ''
    :extension_properties: []
    :ordinal: 1
    :alias: ''
    :iso21090_datatype: CD
    :children:
    - :type: http://www.assero.co.uk/CDISCBiomedicalConcept#Property
      :id: BC-ACME_NEWBC_I3_DT1_P1
      :namespace: http://www.assero.co.uk/MDRBCs/ACME/V1
      :label: ''
      :extension_properties: []
      :ordinal: 1
      :alias: Method (--METHOD)
      :collect: false
      :enabled: false
      :question_text: ''
      :prompt_text: ''
      :simple_datatype: string
      :format: ''
      :bridg_path: DefinedObservation.methodCode.CD.code
      :children: []
- :type: http://www.assero.co.uk/CDISCBiomedicalConcept#Item
  :id: BC-ACME_NEWBC_I4
  :namespace: http://www.assero.co.uk/MDRBCs/ACME/V1
  :label: ''
  :extension_properties: []
  :ordinal: 4
  :alias: Position
  :bridg_class: PerformedObservation
  :bridg_attribute: PerformedObservation_bodyPositionCode
  :children: []
  :datatype:
    :type: http://www.assero.co.uk/CDISCBiomedicalConcept#Datatype
    :id: BC-ACME_NEWBC_I4_DT1
    :namespace: http://www.assero.co.uk/MDRBCs/ACME/V1
    :label: ''
    :extension_properties: []
    :ordinal: 1
    :alias: ''
    :iso21090_datatype: CD
    :children:
    - :type: http://www.assero.co.uk/CDISCBiomedicalConcept#Property
      :id: BC-ACME_NEWBC_I4_DT1_P1
      :namespace: http://www.assero.co.uk/MDRBCs/ACME/V1
      :label: ''
      :extension_properties: []
      :ordinal: 1
      :alias: Body Position (--POS)
      :collect: false
      :enabled: false
      :question_text: ''
      :prompt_text: ''
      :simple_datatype: string
      :format: ''
      :bridg_path: PerformedObservation.bodyPositionCode.CD.code
      :children: []
- :type: http://www.assero.co.uk/CDISCBiomedicalConcept#Item
  :id: BC-ACME_NEWBC_I5
  :namespace: http://www.assero.co.uk/MDRBCs/ACME/V1
  :label: ''
  :extension_properties: []
  :ordinal: 5
  :alias: Laterality
  :bridg_class: PerformedObservation
  :bridg_attribute: PerformedObservation_targetAnatomicSiteLateralityCode
  :children: []
  :datatype:
    :type: http://www.assero.co.uk/CDISCBiomedicalConcept#Datatype
    :id: BC-ACME_NEWBC_I5_DT1
    :namespace: http://www.assero.co.uk/MDRBCs/ACME/V1
    :label: ''
    :extension_properties: []
    :ordinal: 1
    :alias: ''
    :iso21090_datatype: CD
    :children:
    - :type: http://www.assero.co.uk/CDISCBiomedicalConcept#Property
      :id: BC-ACME_NEWBC_I5_DT1_P1
      :namespace: http://www.assero.co.uk/MDRBCs/ACME/V1
      :label: ''
      :extension_properties: []
      :ordinal: 1
      :alias: Laterality (--LAT)
      :collect: false
      :enabled: false
      :question_text: ''
      :prompt_text: ''
      :simple_datatype: string
      :format: ''
      :bridg_path: PerformedObservation.targetAnatomicSiteLateralityCode.CD.code
      :children: []
- :type: http://www.assero.co.uk/CDISCBiomedicalConcept#Item
  :id: BC-ACME_NEWBC_I6
  :namespace: http://www.assero.co.uk/MDRBCs/ACME/V1
  :label: ''
  :extension_properties: []
  :ordinal: 6
  :alias: DateTime
  :bridg_class: PerformedObservation
  :bridg_attribute: PerformedObservation_dateRange
  :children: []
  :datatype:
    :type: http://www.assero.co.uk/CDISCBiomedicalConcept#Datatype
    :id: BC-ACME_NEWBC_I6_DT1
    :namespace: http://www.assero.co.uk/MDRBCs/ACME/V1
    :label: ''
    :extension_properties: []
    :ordinal: 1
    :alias: ''
    :iso21090_datatype: IVL_TS_DATETIME
    :children:
    - :type: http://www.assero.co.uk/CDISCBiomedicalConcept#Property
      :id: BC-ACME_NEWBC_I6_DT1_P1
      :namespace: http://www.assero.co.uk/MDRBCs/ACME/V1
      :label: ''
      :extension_properties: []
      :ordinal: 1
      :alias: Date
      :complex_datatype:
        :type: http://www.assero.co.uk/CDISCBiomedicalConcept#Datatype
        :id: BC-ACME_NEWBC_I6_DT1_P1_DT1
        :namespace: http://www.assero.co.uk/MDRBCs/ACME/V1
        :label: ''
        :extension_properties: []
        :ordinal: 1
        :alias: ''
        :iso21090_datatype: ''
        :children:
        - :type: http://www.assero.co.uk/CDISCBiomedicalConcept#Property
          :id: BC-ACME_NEWBC_I6_DT1_P1_DT1_P1
          :namespace: http://www.assero.co.uk/MDRBCs/ACME/V1
          :label: ''
          :extension_properties: []
          :ordinal: 1
          :alias: Date Time (--DTC)
          :collect: false
          :enabled: false
          :question_text: ''
          :prompt_text: ''
          :simple_datatype: dateTime
          :format: ''
          :bridg_path: PerformedObservation.dateRange.IVL_TS_DATETIME.low.TS_DATETIME.value
          :children: []
- :type: http://www.assero.co.uk/CDISCBiomedicalConcept#Item
  :id: BC-ACME_NEWBC_I7
  :namespace: http://www.assero.co.uk/MDRBCs/ACME/V1
  :label: ''
  :extension_properties: []
  :ordinal: 7
  :alias: ReasonNotDone
  :bridg_class: PerformedObservation
  :bridg_attribute: PerformedObservation_negationReason
  :children: []
  :datatype:
    :type: http://www.assero.co.uk/CDISCBiomedicalConcept#Datatype
    :id: BC-ACME_NEWBC_I7_DT1
    :namespace: http://www.assero.co.uk/MDRBCs/ACME/V1
    :label: ''
    :extension_properties: []
    :ordinal: 1
    :alias: ''
    :iso21090_datatype: SC
    :children:
    - :type: http://www.assero.co.uk/CDISCBiomedicalConcept#Property
      :id: BC-ACME_NEWBC_I7_DT1_P1
      :namespace: http://www.assero.co.uk/MDRBCs/ACME/V1
      :label: ''
      :extension_properties: []
      :ordinal: 1
      :alias: Code
      :complex_datatype:
        :type: http://www.assero.co.uk/CDISCBiomedicalConcept#Datatype
        :id: BC-ACME_NEWBC_I7_DT1_P1_DT1
        :namespace: http://www.assero.co.uk/MDRBCs/ACME/V1
        :label: ''
        :extension_properties: []
        :ordinal: 1
        :alias: ''
        :iso21090_datatype: ''
        :children:
        - :type: http://www.assero.co.uk/CDISCBiomedicalConcept#Property
          :id: BC-ACME_NEWBC_I7_DT1_P1_DT1_P1
          :namespace: http://www.assero.co.uk/MDRBCs/ACME/V1
          :label: ''
          :extension_properties: []
          :ordinal: 1
          :alias: Reason Not Done (--REASND)
          :collect: false
          :enabled: false
          :question_text: ''
          :prompt_text: ''
          :simple_datatype: string
          :format: ''
          :bridg_path: PerformedObservation.negationReason.SC.code.CD.code
          :children: []
- :type: http://www.assero.co.uk/CDISCBiomedicalConcept#Item
  :id: BC-ACME_NEWBC_I8
  :namespace: http://www.assero.co.uk/MDRBCs/ACME/V1
  :label: ''
  :extension_properties: []
  :ordinal: 8
  :alias: Result
  :bridg_class: PerformedClinicalResult
  :bridg_attribute: PerformedClinicalResult_value
  :children: []
  :datatype:
    :type: http://www.assero.co.uk/CDISCBiomedicalConcept#Datatype
    :id: BC-ACME_NEWBC_I8_DT1
    :namespace: http://www.assero.co.uk/MDRBCs/ACME/V1
    :label: ''
    :extension_properties: []
    :ordinal: 1
    :alias: ''
    :iso21090_datatype: PQR
    :children:
    - :type: http://www.assero.co.uk/CDISCBiomedicalConcept#Property
      :id: BC-ACME_NEWBC_I8_DT1_P2
      :namespace: http://www.assero.co.uk/MDRBCs/ACME/V1
      :label: ''
      :extension_properties: []
      :ordinal: 2
      :alias: Result Units (--ORRESU)
      :collect: false
      :enabled: false
      :question_text: ''
      :prompt_text: ''
      :simple_datatype: string
      :format: ''
      :bridg_path: PerformedClinicalResult.value.PQR.code
      :children: []
    - :type: http://www.assero.co.uk/CDISCBiomedicalConcept#Property
      :id: BC-ACME_NEWBC_I8_DT1_P1
      :namespace: http://www.assero.co.uk/MDRBCs/ACME/V1
      :label: ''
      :extension_properties: []
      :ordinal: 1
      :alias: Result Value (--ORRES)
      :collect: false
      :enabled: false
      :question_text: ''
      :prompt_text: ''
      :simple_datatype: float
      :format: ''
      :bridg_path: PerformedClinicalResult.value.PQR.value
      :children: []
- :type: http://www.assero.co.uk/CDISCBiomedicalConcept#Item
  :id: BC-ACME_NEWBC_I9
  :namespace: http://www.assero.co.uk/MDRBCs/ACME/V1
  :label: ''
  :extension_properties: []
  :ordinal: 9
  :alias: Baseline
  :bridg_class: PerformedClinicalResult
  :bridg_attribute: PerformedClinicalResult_baselineIndicator
  :children: []
  :datatype:
    :type: http://www.assero.co.uk/CDISCBiomedicalConcept#Datatype
    :id: BC-ACME_NEWBC_I9_DT1
    :namespace: http://www.assero.co.uk/MDRBCs/ACME/V1
    :label: ''
    :extension_properties: []
    :ordinal: 1
    :alias: ''
    :iso21090_datatype: BL
    :children:
    - :type: http://www.assero.co.uk/CDISCBiomedicalConcept#Property
      :id: BC-ACME_NEWBC_I9_DT1_P1
      :namespace: http://www.assero.co.uk/MDRBCs/ACME/V1
      :label: ''
      :extension_properties: []
      :ordinal: 1
      :alias: Baseline (--BLFL)
      :collect: false
      :enabled: false
      :question_text: ''
      :prompt_text: ''
      :simple_datatype: boolean
      :format: ''
      :bridg_path: PerformedClinicalResult.baselineIndicator.BL.value
      :children: []
:template_ref:
  :type: http://www.assero.co.uk/BusinessOperational#BctReference
  :id: BC-ACME_NEWBC_TPR1
  :namespace: http://www.assero.co.uk/MDRBCs/ACME/V1
  :label: Based on Template Reference
  :extension_properties: []
  :enabled: true
  :optional: false
  :ordinal: 0
  :local_label: ''
  :subject_ref:
    :namespace: http://www.assero.co.uk/MDRBCTs/V1
    :id: BCT-Obs_PQR
