---
- :type: MODEL
  :order: 1
  :instance:
    :operation:
      :action: CREATE
      :new_version: '1'
      :new_semantic_version: 0.1.0
      :new_state: Standard
      :identifier_edit: true
    :managed_item:
      :type: http://www.assero.co.uk/BusinessDomain#Model
      :id: ''
      :namespace: ''
      :label: SDTM Model 2017-10-18
      :extension_properties: []
      :origin: ''
      :change_description: ''
      :creation_date: '2017-10-18'
      :last_changed_date: '2017-10-19T11:13:06+01:00'
      :explanatory_comment: ''
      :registration_state:
        :namespace: http://www.assero.co.uk/MDRItems
        :id: ''
        :registration_authority:
          :id: ''
          :number: \"<Not Set>'
          :scheme: DUNS
          :owner: false
          :namespace:
            :namespace: ''
            :id: ''
            :name: ''
            :shortName: ''
        :registration_status: Not_Set
        :administrative_note: ''
        :effective_date: '2016-01-01T00:00:00+00:00'
        :until_date: '2016-01-01T00:00:00+00:00'
        :current: false
        :unresolved_issue: ''
        :administrative_status: ''
        :previous_state: Not_Set
      :scoped_identifier:
        :id: ''
        :identifier: SDTM MODEL
        :version_label: Initial Version
        :version: 0
        :semantic_version: 0.0.0
        :namespace:
          :namespace: ''
          :id: ''
          :name: ''
          :shortName: ''
      :ordinal: 1
      :rule: ''
      :children:
      - :type: http://www.assero.co.uk/BusinessDomain#ModelVariable
        :id: ''
        :namespace: ''
        :label: Study Identifier
        :extension_properties: []
        :ordinal: '1'
        :rule: ''
        :name: STUDYID
        :prefixed: false
        :description: Unique identifier for a study.
        :datatype:
          :type: http://www.assero.co.uk/BusinessDomain#VariableType
          :id: ''
          :namespace: ''
          :label: Char
          :extension_properties: []
        :classification:
          :type: http://www.assero.co.uk/BusinessDomain#VariableClassification
          :id: ''
          :namespace: ''
          :label: Identifier
          :extension_properties: []
        :sub_classification:
          :type: http://www.assero.co.uk/BusinessDomain#VariableClassification
          :id: ''
          :namespace: ''
          :label: Not Applicable
          :extension_properties: []
      - :type: http://www.assero.co.uk/BusinessDomain#ModelVariable
        :id: ''
        :namespace: ''
        :label: Domain Abbreviation
        :extension_properties: []
        :ordinal: '2'
        :rule: ''
        :name: DOMAIN
        :prefixed: false
        :description: Two-character abbreviation for the domain.
        :datatype:
          :type: http://www.assero.co.uk/BusinessDomain#VariableType
          :id: ''
          :namespace: ''
          :label: Char
          :extension_properties: []
        :classification:
          :type: http://www.assero.co.uk/BusinessDomain#VariableClassification
          :id: ''
          :namespace: ''
          :label: Identifier
          :extension_properties: []
        :sub_classification:
          :type: http://www.assero.co.uk/BusinessDomain#VariableClassification
          :id: ''
          :namespace: ''
          :label: Not Applicable
          :extension_properties: []
      - :type: http://www.assero.co.uk/BusinessDomain#ModelVariable
        :id: ''
        :namespace: ''
        :label: Unique Subject Identifier
        :extension_properties: []
        :ordinal: '3'
        :rule: ''
        :name: USUBJID
        :prefixed: false
        :description: Identifier used to uniquely identify a subject across all studies
          for all applications or submissions involving the product.
        :datatype:
          :type: http://www.assero.co.uk/BusinessDomain#VariableType
          :id: ''
          :namespace: ''
          :label: Char
          :extension_properties: []
        :classification:
          :type: http://www.assero.co.uk/BusinessDomain#VariableClassification
          :id: ''
          :namespace: ''
          :label: Identifier
          :extension_properties: []
        :sub_classification:
          :type: http://www.assero.co.uk/BusinessDomain#VariableClassification
          :id: ''
          :namespace: ''
          :label: Not Applicable
          :extension_properties: []
      - :type: http://www.assero.co.uk/BusinessDomain#ModelVariable
        :id: ''
        :namespace: ''
        :label: Sequence Number
        :extension_properties: []
        :ordinal: '4'
        :rule: ''
        :name: '--SEQ'
        :prefixed: true
        :description: Sequence number to ensure uniqueness of records within a dataset
          for a subject (or within a parameter, in the case of the Trial Summary domain).
          May be any valid number (including decimals) and does not have to start
          at 1. Should be assigned to be in a consistent chronological order.
        :datatype:
          :type: http://www.assero.co.uk/BusinessDomain#VariableType
          :id: ''
          :namespace: ''
          :label: Num
          :extension_properties: []
        :classification:
          :type: http://www.assero.co.uk/BusinessDomain#VariableClassification
          :id: ''
          :namespace: ''
          :label: Identifier
          :extension_properties: []
        :sub_classification:
          :type: http://www.assero.co.uk/BusinessDomain#VariableClassification
          :id: ''
          :namespace: ''
          :label: Not Applicable
          :extension_properties: []
      - :type: http://www.assero.co.uk/BusinessDomain#ModelVariable
        :id: ''
        :namespace: ''
        :label: Group ID
        :extension_properties: []
        :ordinal: '5'
        :rule: ''
        :name: '--GRPID'
        :prefixed: true
        :description: Optional group identifier, used to link together a block of
          related records within a subject in a domain. Also used to link together
          a block of related records in the Trial Summary dataset (Section 3.4).
        :datatype:
          :type: http://www.assero.co.uk/BusinessDomain#VariableType
          :id: ''
          :namespace: ''
          :label: Char
          :extension_properties: []
        :classification:
          :type: http://www.assero.co.uk/BusinessDomain#VariableClassification
          :id: ''
          :namespace: ''
          :label: Identifier
          :extension_properties: []
        :sub_classification:
          :type: http://www.assero.co.uk/BusinessDomain#VariableClassification
          :id: ''
          :namespace: ''
          :label: Not Applicable
          :extension_properties: []
      - :type: http://www.assero.co.uk/BusinessDomain#ModelVariable
        :id: ''
        :namespace: ''
        :label: Reference ID
        :extension_properties: []
        :ordinal: '6'
        :rule: ''
        :name: '--REFID'
        :prefixed: true
        :description: Optional internal or external identifier such as lab specimen
          ID, or UUID for an ECG waveform or a medical image.
        :datatype:
          :type: http://www.assero.co.uk/BusinessDomain#VariableType
          :id: ''
          :namespace: ''
          :label: Char
          :extension_properties: []
        :classification:
          :type: http://www.assero.co.uk/BusinessDomain#VariableClassification
          :id: ''
          :namespace: ''
          :label: Identifier
          :extension_properties: []
        :sub_classification:
          :type: http://www.assero.co.uk/BusinessDomain#VariableClassification
          :id: ''
          :namespace: ''
          :label: Not Applicable
          :extension_properties: []
      - :type: http://www.assero.co.uk/BusinessDomain#ModelVariable
        :id: ''
        :namespace: ''
        :label: Sponsor ID
        :extension_properties: []
        :ordinal: '7'
        :rule: ''
        :name: '--SPID'
        :prefixed: true
        :description: 'Sponsor-defined identifier. Example: pre-printed line identifier
          on a Concomitant Medications page.'
        :datatype:
          :type: http://www.assero.co.uk/BusinessDomain#VariableType
          :id: ''
          :namespace: ''
          :label: Char
          :extension_properties: []
        :classification:
          :type: http://www.assero.co.uk/BusinessDomain#VariableClassification
          :id: ''
          :namespace: ''
          :label: Identifier
          :extension_properties: []
        :sub_classification:
          :type: http://www.assero.co.uk/BusinessDomain#VariableClassification
          :id: ''
          :namespace: ''
          :label: Not Applicable
          :extension_properties: []
      - :type: http://www.assero.co.uk/BusinessDomain#ModelVariable
        :id: ''
        :namespace: ''
        :label: Visit Number
        :extension_properties: []
        :ordinal: '8'
        :rule: ''
        :name: VISITNUM
        :prefixed: false
        :description: Clinical encounter number. Numeric version of VISIT, used for
          sorting.
        :datatype:
          :type: http://www.assero.co.uk/BusinessDomain#VariableType
          :id: ''
          :namespace: ''
          :label: Num
          :extension_properties: []
        :classification:
          :type: http://www.assero.co.uk/BusinessDomain#VariableClassification
          :id: ''
          :namespace: ''
          :label: Timing
          :extension_properties: []
        :sub_classification:
          :type: http://www.assero.co.uk/BusinessDomain#VariableClassification
          :id: ''
          :namespace: ''
          :label: Not Applicable
          :extension_properties: []
      - :type: http://www.assero.co.uk/BusinessDomain#ModelVariable
        :id: ''
        :namespace: ''
        :label: Visit Name
        :extension_properties: []
        :ordinal: '9'
        :rule: ''
        :name: VISIT
        :prefixed: false
        :description: 1. Protocol-defined description of clinical encounter. 2. May
          be used in addition to VISITNUM and/or VISITDY.
        :datatype:
          :type: http://www.assero.co.uk/BusinessDomain#VariableType
          :id: ''
          :namespace: ''
          :label: Char
          :extension_properties: []
        :classification:
          :type: http://www.assero.co.uk/BusinessDomain#VariableClassification
          :id: ''
          :namespace: ''
          :label: Timing
          :extension_properties: []
        :sub_classification:
          :type: http://www.assero.co.uk/BusinessDomain#VariableClassification
          :id: ''
          :namespace: ''
          :label: Not Applicable
          :extension_properties: []
      - :type: http://www.assero.co.uk/BusinessDomain#ModelVariable
        :id: ''
        :namespace: ''
        :label: Planned Study Day of Visit
        :extension_properties: []
        :ordinal: '10'
        :rule: ''
        :name: VISITDY
        :prefixed: false
        :description: Planned study day of the visit based upon RFSTDTC in Demographics.
        :datatype:
          :type: http://www.assero.co.uk/BusinessDomain#VariableType
          :id: ''
          :namespace: ''
          :label: Num
          :extension_properties: []
        :classification:
          :type: http://www.assero.co.uk/BusinessDomain#VariableClassification
          :id: ''
          :namespace: ''
          :label: Timing
          :extension_properties: []
        :sub_classification:
          :type: http://www.assero.co.uk/BusinessDomain#VariableClassification
          :id: ''
          :namespace: ''
          :label: Not Applicable
          :extension_properties: []
      - :type: http://www.assero.co.uk/BusinessDomain#ModelVariable
        :id: ''
        :namespace: ''
        :label: Planned Order of Elements within Arm
        :extension_properties: []
        :ordinal: '11'
        :rule: ''
        :name: TAETORD
        :prefixed: false
        :description: Number that gives the order of the Element within the Arm.
        :datatype:
          :type: http://www.assero.co.uk/BusinessDomain#VariableType
          :id: ''
          :namespace: ''
          :label: Num
          :extension_properties: []
        :classification:
          :type: http://www.assero.co.uk/BusinessDomain#VariableClassification
          :id: ''
          :namespace: ''
          :label: Timing
          :extension_properties: []
        :sub_classification:
          :type: http://www.assero.co.uk/BusinessDomain#VariableClassification
          :id: ''
          :namespace: ''
          :label: Not Applicable
          :extension_properties: []
      - :type: http://www.assero.co.uk/BusinessDomain#ModelVariable
        :id: ''
        :namespace: ''
        :label: Epoch
        :extension_properties: []
        :ordinal: '12'
        :rule: ''
        :name: EPOCH
        :prefixed: false
        :description: Epoch associated with the Element in the planned sequence of
          Elements for the ARM to which the subject was assigned
        :datatype:
          :type: http://www.assero.co.uk/BusinessDomain#VariableType
          :id: ''
          :namespace: ''
          :label: Char
          :extension_properties: []
        :classification:
          :type: http://www.assero.co.uk/BusinessDomain#VariableClassification
          :id: ''
          :namespace: ''
          :label: Timing
          :extension_properties: []
        :sub_classification:
          :type: http://www.assero.co.uk/BusinessDomain#VariableClassification
          :id: ''
          :namespace: ''
          :label: Not Applicable
          :extension_properties: []
      - :type: http://www.assero.co.uk/BusinessDomain#ModelVariable
        :id: ''
        :namespace: ''
        :label: Date/Time of Collection
        :extension_properties: []
        :ordinal: '13'
        :rule: ''
        :name: '--DTC'
        :prefixed: true
        :description: Collection date and time of an observation represented in IS0
          8601 character format.
        :datatype:
          :type: http://www.assero.co.uk/BusinessDomain#VariableType
          :id: ''
          :namespace: ''
          :label: Char
          :extension_properties: []
        :classification:
          :type: http://www.assero.co.uk/BusinessDomain#VariableClassification
          :id: ''
          :namespace: ''
          :label: Timing
          :extension_properties: []
        :sub_classification:
          :type: http://www.assero.co.uk/BusinessDomain#VariableClassification
          :id: ''
          :namespace: ''
          :label: Not Applicable
          :extension_properties: []
      - :type: http://www.assero.co.uk/BusinessDomain#ModelVariable
        :id: ''
        :namespace: ''
        :label: Start Date/Time of Observation
        :extension_properties: []
        :ordinal: '14'
        :rule: ''
        :name: '--STDTC'
        :prefixed: true
        :description: Start date/time of an observation represented in IS0 8601 character
          format.
        :datatype:
          :type: http://www.assero.co.uk/BusinessDomain#VariableType
          :id: ''
          :namespace: ''
          :label: Char
          :extension_properties: []
        :classification:
          :type: http://www.assero.co.uk/BusinessDomain#VariableClassification
          :id: ''
          :namespace: ''
          :label: Timing
          :extension_properties: []
        :sub_classification:
          :type: http://www.assero.co.uk/BusinessDomain#VariableClassification
          :id: ''
          :namespace: ''
          :label: Not Applicable
          :extension_properties: []
      - :type: http://www.assero.co.uk/BusinessDomain#ModelVariable
        :id: ''
        :namespace: ''
        :label: End Date/Time of Observation
        :extension_properties: []
        :ordinal: '15'
        :rule: ''
        :name: '--ENDTC'
        :prefixed: true
        :description: End date/time of the observation represented in IS0 8601 character
          format.
        :datatype:
          :type: http://www.assero.co.uk/BusinessDomain#VariableType
          :id: ''
          :namespace: ''
          :label: Char
          :extension_properties: []
        :classification:
          :type: http://www.assero.co.uk/BusinessDomain#VariableClassification
          :id: ''
          :namespace: ''
          :label: Timing
          :extension_properties: []
        :sub_classification:
          :type: http://www.assero.co.uk/BusinessDomain#VariableClassification
          :id: ''
          :namespace: ''
          :label: Not Applicable
          :extension_properties: []
      - :type: http://www.assero.co.uk/BusinessDomain#ModelVariable
        :id: ''
        :namespace: ''
        :label: Study Day of Visit/Collection/Exam
        :extension_properties: []
        :ordinal: '16'
        :rule: ''
        :name: '--DY'
        :prefixed: true
        :description: Actual study day of visit/collection/exam expressed in integer
          days relative to the sponsor-defined RFSTDTC in Demographics.
        :datatype:
          :type: http://www.assero.co.uk/BusinessDomain#VariableType
          :id: ''
          :namespace: ''
          :label: Num
          :extension_properties: []
        :classification:
          :type: http://www.assero.co.uk/BusinessDomain#VariableClassification
          :id: ''
          :namespace: ''
          :label: Timing
          :extension_properties: []
        :sub_classification:
          :type: http://www.assero.co.uk/BusinessDomain#VariableClassification
          :id: ''
          :namespace: ''
          :label: Not Applicable
          :extension_properties: []
      - :type: http://www.assero.co.uk/BusinessDomain#ModelVariable
        :id: ''
        :namespace: ''
        :label: Study Day of Start of Observation
        :extension_properties: []
        :ordinal: '17'
        :rule: ''
        :name: '--STDY'
        :prefixed: true
        :description: Actual study day of start of observation expressed in integer
          days relative to the sponsor-defined RFSTDTC in Demographics.
        :datatype:
          :type: http://www.assero.co.uk/BusinessDomain#VariableType
          :id: ''
          :namespace: ''
          :label: Num
          :extension_properties: []
        :classification:
          :type: http://www.assero.co.uk/BusinessDomain#VariableClassification
          :id: ''
          :namespace: ''
          :label: Timing
          :extension_properties: []
        :sub_classification:
          :type: http://www.assero.co.uk/BusinessDomain#VariableClassification
          :id: ''
          :namespace: ''
          :label: Not Applicable
          :extension_properties: []
      - :type: http://www.assero.co.uk/BusinessDomain#ModelVariable
        :id: ''
        :namespace: ''
        :label: Study Day of End of Observation
        :extension_properties: []
        :ordinal: '18'
        :rule: ''
        :name: '--ENDY'
        :prefixed: true
        :description: Actual study day of end of observation expressed in integer
          days relative to the sponsor-defined RFSTDTC in Demographics.
        :datatype:
          :type: http://www.assero.co.uk/BusinessDomain#VariableType
          :id: ''
          :namespace: ''
          :label: Num
          :extension_properties: []
        :classification:
          :type: http://www.assero.co.uk/BusinessDomain#VariableClassification
          :id: ''
          :namespace: ''
          :label: Timing
          :extension_properties: []
        :sub_classification:
          :type: http://www.assero.co.uk/BusinessDomain#VariableClassification
          :id: ''
          :namespace: ''
          :label: Not Applicable
          :extension_properties: []
      - :type: http://www.assero.co.uk/BusinessDomain#ModelVariable
        :id: ''
        :namespace: ''
        :label: Duration
        :extension_properties: []
        :ordinal: '19'
        :rule: ''
        :name: '--DUR'
        :prefixed: true
        :description: Collected duration of an event, intervention, or finding represented
          in ISO 8601 character format. Used only if collected on the CRF and not
          derived.
        :datatype:
          :type: http://www.assero.co.uk/BusinessDomain#VariableType
          :id: ''
          :namespace: ''
          :label: Char
          :extension_properties: []
        :classification:
          :type: http://www.assero.co.uk/BusinessDomain#VariableClassification
          :id: ''
          :namespace: ''
          :label: Timing
          :extension_properties: []
        :sub_classification:
          :type: http://www.assero.co.uk/BusinessDomain#VariableClassification
          :id: ''
          :namespace: ''
          :label: Not Applicable
          :extension_properties: []
      - :type: http://www.assero.co.uk/BusinessDomain#ModelVariable
        :id: ''
        :namespace: ''
        :label: Planned Time Point Name
        :extension_properties: []
        :ordinal: '20'
        :rule: ''
        :name: '--TPT'
        :prefixed: true
        :description: Text description of time when a measurement or observation should
          be taken as defined in the protocol. This may be represented as an elapsed
          time relative to a fixed reference point, such as time of last dose. See
          --TPTNUM and --TPTREF.
        :datatype:
          :type: http://www.assero.co.uk/BusinessDomain#VariableType
          :id: ''
          :namespace: ''
          :label: Char
          :extension_properties: []
        :classification:
          :type: http://www.assero.co.uk/BusinessDomain#VariableClassification
          :id: ''
          :namespace: ''
          :label: Timing
          :extension_properties: []
        :sub_classification:
          :type: http://www.assero.co.uk/BusinessDomain#VariableClassification
          :id: ''
          :namespace: ''
          :label: Not Applicable
          :extension_properties: []
      - :type: http://www.assero.co.uk/BusinessDomain#ModelVariable
        :id: ''
        :namespace: ''
        :label: Planned Time Point Number
        :extension_properties: []
        :ordinal: '21'
        :rule: ''
        :name: '--TPTNUM'
        :prefixed: true
        :description: Numeric version of planned time point used in sorting.
        :datatype:
          :type: http://www.assero.co.uk/BusinessDomain#VariableType
          :id: ''
          :namespace: ''
          :label: Num
          :extension_properties: []
        :classification:
          :type: http://www.assero.co.uk/BusinessDomain#VariableClassification
          :id: ''
          :namespace: ''
          :label: Timing
          :extension_properties: []
        :sub_classification:
          :type: http://www.assero.co.uk/BusinessDomain#VariableClassification
          :id: ''
          :namespace: ''
          :label: Not Applicable
          :extension_properties: []
      - :type: http://www.assero.co.uk/BusinessDomain#ModelVariable
        :id: ''
        :namespace: ''
        :label: Planned Elapsed Time from Time Point Ref
        :extension_properties: []
        :ordinal: '22'
        :rule: ''
        :name: '--ELTM'
        :prefixed: true
        :description: Planned Elapsed time in ISO 8601 character format relative to
          a planned fixed reference (--TPTREF) such as 'Previous Dose' or 'Previous
          Meal'. This variable is useful where there are repetitive measures. Not
          a clock time or a date/time variable, but an interval, represented as ISO
          duration.
        :datatype:
          :type: http://www.assero.co.uk/BusinessDomain#VariableType
          :id: ''
          :namespace: ''
          :label: Char
          :extension_properties: []
        :classification:
          :type: http://www.assero.co.uk/BusinessDomain#VariableClassification
          :id: ''
          :namespace: ''
          :label: Timing
          :extension_properties: []
        :sub_classification:
          :type: http://www.assero.co.uk/BusinessDomain#VariableClassification
          :id: ''
          :namespace: ''
          :label: Not Applicable
          :extension_properties: []
      - :type: http://www.assero.co.uk/BusinessDomain#ModelVariable
        :id: ''
        :namespace: ''
        :label: Time Point Reference
        :extension_properties: []
        :ordinal: '23'
        :rule: ''
        :name: '--TPTREF'
        :prefixed: true
        :description: 'Description of the fixed reference point referred to by --ELTM,
          --TPTNUM, and --TPT. Examples: PREVIOUS DOSE, PREVIOUS MEAL.'
        :datatype:
          :type: http://www.assero.co.uk/BusinessDomain#VariableType
          :id: ''
          :namespace: ''
          :label: Char
          :extension_properties: []
        :classification:
          :type: http://www.assero.co.uk/BusinessDomain#VariableClassification
          :id: ''
          :namespace: ''
          :label: Timing
          :extension_properties: []
        :sub_classification:
          :type: http://www.assero.co.uk/BusinessDomain#VariableClassification
          :id: ''
          :namespace: ''
          :label: Not Applicable
          :extension_properties: []
      - :type: http://www.assero.co.uk/BusinessDomain#ModelVariable
        :id: ''
        :namespace: ''
        :label: Date/Time of Reference Time Point
        :extension_properties: []
        :ordinal: '24'
        :rule: ''
        :name: '--RFTDTC'
        :prefixed: true
        :description: Date/time for a fixed reference time point defined by --TPTREF
          in ISO 8601 character format.
        :datatype:
          :type: http://www.assero.co.uk/BusinessDomain#VariableType
          :id: ''
          :namespace: ''
          :label: Char
          :extension_properties: []
        :classification:
          :type: http://www.assero.co.uk/BusinessDomain#VariableClassification
          :id: ''
          :namespace: ''
          :label: Timing
          :extension_properties: []
        :sub_classification:
          :type: http://www.assero.co.uk/BusinessDomain#VariableClassification
          :id: ''
          :namespace: ''
          :label: Not Applicable
          :extension_properties: []
      - :type: http://www.assero.co.uk/BusinessDomain#ModelVariable
        :id: ''
        :namespace: ''
        :label: Start Relative to Reference Period
        :extension_properties: []
        :ordinal: '25'
        :rule: ''
        :name: '--STRF'
        :prefixed: true
        :description: Identifies the start of the observation as being before, during,
          or after the sponsor-defined reference period. The sponsor-defined reference
          period is a continuous period of time defined by a discrete starting point
          and a discrete ending point represented by RFSTDTC and RFENDTC in Demographics.
        :datatype:
          :type: http://www.assero.co.uk/BusinessDomain#VariableType
          :id: ''
          :namespace: ''
          :label: Char
          :extension_properties: []
        :classification:
          :type: http://www.assero.co.uk/BusinessDomain#VariableClassification
          :id: ''
          :namespace: ''
          :label: Timing
          :extension_properties: []
        :sub_classification:
          :type: http://www.assero.co.uk/BusinessDomain#VariableClassification
          :id: ''
          :namespace: ''
          :label: Not Applicable
          :extension_properties: []
      - :type: http://www.assero.co.uk/BusinessDomain#ModelVariable
        :id: ''
        :namespace: ''
        :label: End Relative to Reference Period
        :extension_properties: []
        :ordinal: '26'
        :rule: ''
        :name: '--ENRF'
        :prefixed: true
        :description: Identifies the end of the observation as being before, during
          or after the sponsor-defined reference period. The sponsor-defined reference
          period is a continuous period of time defined by a discrete starting point
          and a discrete ending point represented by RFSTDTC and RFENDTC in Demographics.
        :datatype:
          :type: http://www.assero.co.uk/BusinessDomain#VariableType
          :id: ''
          :namespace: ''
          :label: Char
          :extension_properties: []
        :classification:
          :type: http://www.assero.co.uk/BusinessDomain#VariableClassification
          :id: ''
          :namespace: ''
          :label: Timing
          :extension_properties: []
        :sub_classification:
          :type: http://www.assero.co.uk/BusinessDomain#VariableClassification
          :id: ''
          :namespace: ''
          :label: Not Applicable
          :extension_properties: []
      - :type: http://www.assero.co.uk/BusinessDomain#ModelVariable
        :id: ''
        :namespace: ''
        :label: Evaluation Interval
        :extension_properties: []
        :ordinal: '27'
        :rule: ''
        :name: '--EVLINT'
        :prefixed: true
        :description: 'Evaluation interval associated with an observation such as
          a finding --TESTCD, represented in ISO 8601 character format. Example: -P2M
          to represent a period of the past 2 months as the evaluation interval for
          a question from a questionnaire such as SF-36.'
        :datatype:
          :type: http://www.assero.co.uk/BusinessDomain#VariableType
          :id: ''
          :namespace: ''
          :label: Char
          :extension_properties: []
        :classification:
          :type: http://www.assero.co.uk/BusinessDomain#VariableClassification
          :id: ''
          :namespace: ''
          :label: Timing
          :extension_properties: []
        :sub_classification:
          :type: http://www.assero.co.uk/BusinessDomain#VariableClassification
          :id: ''
          :namespace: ''
          :label: Not Applicable
          :extension_properties: []
      - :type: http://www.assero.co.uk/BusinessDomain#ModelVariable
        :id: ''
        :namespace: ''
        :label: Start Relative to Reference Time Point
        :extension_properties: []
        :ordinal: '28'
        :rule: ''
        :name: '--STRTPT'
        :prefixed: true
        :description: Identifies the start of the observation as being before or after
          the sponsor-defined reference time point defined by variable --STTPT.
        :datatype:
          :type: http://www.assero.co.uk/BusinessDomain#VariableType
          :id: ''
          :namespace: ''
          :label: Char
          :extension_properties: []
        :classification:
          :type: http://www.assero.co.uk/BusinessDomain#VariableClassification
          :id: ''
          :namespace: ''
          :label: Timing
          :extension_properties: []
        :sub_classification:
          :type: http://www.assero.co.uk/BusinessDomain#VariableClassification
          :id: ''
          :namespace: ''
          :label: Not Applicable
          :extension_properties: []
      - :type: http://www.assero.co.uk/BusinessDomain#ModelVariable
        :id: ''
        :namespace: ''
        :label: Start Reference Time Point
        :extension_properties: []
        :ordinal: '29'
        :rule: ''
        :name: '--STTPT'
        :prefixed: true
        :description: 'Description or date/time in ISO 8601 character format of the
          sponsor-defined reference point referred to by --STRTPT. Examples: ''2003-12-15''
          or ''VISIT 1''.'
        :datatype:
          :type: http://www.assero.co.uk/BusinessDomain#VariableType
          :id: ''
          :namespace: ''
          :label: Char
          :extension_properties: []
        :classification:
          :type: http://www.assero.co.uk/BusinessDomain#VariableClassification
          :id: ''
          :namespace: ''
          :label: Timing
          :extension_properties: []
        :sub_classification:
          :type: http://www.assero.co.uk/BusinessDomain#VariableClassification
          :id: ''
          :namespace: ''
          :label: Not Applicable
          :extension_properties: []
      - :type: http://www.assero.co.uk/BusinessDomain#ModelVariable
        :id: ''
        :namespace: ''
        :label: End Relative to Reference Time Point
        :extension_properties: []
        :ordinal: '30'
        :rule: ''
        :name: '--ENRTPT'
        :prefixed: true
        :description: Identifies the end of the observation as being before or after
          the sponsor-defined reference time point defined by variable --ENTPT.
        :datatype:
          :type: http://www.assero.co.uk/BusinessDomain#VariableType
          :id: ''
          :namespace: ''
          :label: Char
          :extension_properties: []
        :classification:
          :type: http://www.assero.co.uk/BusinessDomain#VariableClassification
          :id: ''
          :namespace: ''
          :label: Timing
          :extension_properties: []
        :sub_classification:
          :type: http://www.assero.co.uk/BusinessDomain#VariableClassification
          :id: ''
          :namespace: ''
          :label: Not Applicable
          :extension_properties: []
      - :type: http://www.assero.co.uk/BusinessDomain#ModelVariable
        :id: ''
        :namespace: ''
        :label: End Reference Time Point
        :extension_properties: []
        :ordinal: '31'
        :rule: ''
        :name: '--ENTPT'
        :prefixed: true
        :description: 'Description or date/time in ISO 8601 character format of the
          sponsor-defined reference point referred to by --ENRTPT. Examples: ''2003-12-25''
          or ''VISIT 2''.'
        :datatype:
          :type: http://www.assero.co.uk/BusinessDomain#VariableType
          :id: ''
          :namespace: ''
          :label: Char
          :extension_properties: []
        :classification:
          :type: http://www.assero.co.uk/BusinessDomain#VariableClassification
          :id: ''
          :namespace: ''
          :label: Timing
          :extension_properties: []
        :sub_classification:
          :type: http://www.assero.co.uk/BusinessDomain#VariableClassification
          :id: ''
          :namespace: ''
          :label: Not Applicable
          :extension_properties: []
      - :type: http://www.assero.co.uk/BusinessDomain#ModelVariable
        :id: ''
        :namespace: ''
        :label: Reported Term
        :extension_properties: []
        :ordinal: '1'
        :rule: ''
        :name: '--TERM'
        :prefixed: true
        :description: Topic variable for an event observation, which is the verbatim
          or pre-specified name of the event.
        :datatype:
          :type: http://www.assero.co.uk/BusinessDomain#VariableType
          :id: ''
          :namespace: ''
          :label: Char
          :extension_properties: []
        :classification:
          :type: http://www.assero.co.uk/BusinessDomain#VariableClassification
          :id: ''
          :namespace: ''
          :label: Topic
          :extension_properties: []
        :sub_classification:
          :type: http://www.assero.co.uk/BusinessDomain#VariableClassification
          :id: ''
          :namespace: ''
          :label: Not Applicable
          :extension_properties: []
      - :type: http://www.assero.co.uk/BusinessDomain#ModelVariable
        :id: ''
        :namespace: ''
        :label: Modified Reported Term
        :extension_properties: []
        :ordinal: '2'
        :rule: ''
        :name: '--MODIFY'
        :prefixed: true
        :description: If the value for --TRT is modified for coding purposes, then
          the modified text is placed here.
        :datatype:
          :type: http://www.assero.co.uk/BusinessDomain#VariableType
          :id: ''
          :namespace: ''
          :label: Char
          :extension_properties: []
        :classification:
          :type: http://www.assero.co.uk/BusinessDomain#VariableClassification
          :id: ''
          :namespace: ''
          :label: Qualifier
          :extension_properties: []
        :sub_classification:
          :type: http://www.assero.co.uk/BusinessDomain#VariableClassification
          :id: ''
          :namespace: ''
          :label: Synonym Qualifier
          :extension_properties: []
      - :type: http://www.assero.co.uk/BusinessDomain#ModelVariable
        :id: ''
        :namespace: ''
        :label: Dictionary-Derived Term
        :extension_properties: []
        :ordinal: '3'
        :rule: ''
        :name: '--DECOD'
        :prefixed: true
        :description: Standardized or dictionary-derived name of the topic variable,
          --TRT, or the modified topic variable (--MODIFY), if applicable. Equivalent
          to the generic drug name in WHO Drug, or a term in SNOMED, ICD9, or other
          published or sponsor-defined dictionaries.
        :datatype:
          :type: http://www.assero.co.uk/BusinessDomain#VariableType
          :id: ''
          :namespace: ''
          :label: Char
          :extension_properties: []
        :classification:
          :type: http://www.assero.co.uk/BusinessDomain#VariableClassification
          :id: ''
          :namespace: ''
          :label: Qualifier
          :extension_properties: []
        :sub_classification:
          :type: http://www.assero.co.uk/BusinessDomain#VariableClassification
          :id: ''
          :namespace: ''
          :label: Synonym Qualifier
          :extension_properties: []
      - :type: http://www.assero.co.uk/BusinessDomain#ModelVariable
        :id: ''
        :namespace: ''
        :label: Category
        :extension_properties: []
        :ordinal: '4'
        :rule: ''
        :name: '--CAT'
        :prefixed: true
        :description: 'Used to define a category of topic-variable values. Examples:
          HEMATOLOGY, URINALYSIS, CHEMISTRY, HAMILTON DEPRESSION SCALE, SF36.'
        :datatype:
          :type: http://www.assero.co.uk/BusinessDomain#VariableType
          :id: ''
          :namespace: ''
          :label: Char
          :extension_properties: []
        :classification:
          :type: http://www.assero.co.uk/BusinessDomain#VariableClassification
          :id: ''
          :namespace: ''
          :label: Qualifier
          :extension_properties: []
        :sub_classification:
          :type: http://www.assero.co.uk/BusinessDomain#VariableClassification
          :id: ''
          :namespace: ''
          :label: Grouping Qualifier
          :extension_properties: []
      - :type: http://www.assero.co.uk/BusinessDomain#ModelVariable
        :id: ''
        :namespace: ''
        :label: Subcategory
        :extension_properties: []
        :ordinal: '5'
        :rule: ''
        :name: '--SCAT'
        :prefixed: true
        :description: Used to define a further categorization of --CAT values.
        :datatype:
          :type: http://www.assero.co.uk/BusinessDomain#VariableType
          :id: ''
          :namespace: ''
          :label: Char
          :extension_properties: []
        :classification:
          :type: http://www.assero.co.uk/BusinessDomain#VariableClassification
          :id: ''
          :namespace: ''
          :label: Qualifier
          :extension_properties: []
        :sub_classification:
          :type: http://www.assero.co.uk/BusinessDomain#VariableClassification
          :id: ''
          :namespace: ''
          :label: Grouping Qualifier
          :extension_properties: []
      - :type: http://www.assero.co.uk/BusinessDomain#ModelVariable
        :id: ''
        :namespace: ''
        :label: Pre-specified
        :extension_properties: []
        :ordinal: '6'
        :rule: ''
        :name: '--PRESP'
        :prefixed: true
        :description: Used when a specific intervention is pre-specified on a CRF.
          Values should be 'Y' or null.
        :datatype:
          :type: http://www.assero.co.uk/BusinessDomain#VariableType
          :id: ''
          :namespace: ''
          :label: Char
          :extension_properties: []
        :classification:
          :type: http://www.assero.co.uk/BusinessDomain#VariableClassification
          :id: ''
          :namespace: ''
          :label: Qualifier
          :extension_properties: []
        :sub_classification:
          :type: http://www.assero.co.uk/BusinessDomain#VariableClassification
          :id: ''
          :namespace: ''
          :label: Record Qualifier
          :extension_properties: []
      - :type: http://www.assero.co.uk/BusinessDomain#ModelVariable
        :id: ''
        :namespace: ''
        :label: Occurrence
        :extension_properties: []
        :ordinal: '7'
        :rule: ''
        :name: '--OCCUR'
        :prefixed: true
        :description: Used to record whether a pre-specified event occurred when information
          about the occurrence of a specific event is solicited.
        :datatype:
          :type: http://www.assero.co.uk/BusinessDomain#VariableType
          :id: ''
          :namespace: ''
          :label: Char
          :extension_properties: []
        :classification:
          :type: http://www.assero.co.uk/BusinessDomain#VariableClassification
          :id: ''
          :namespace: ''
          :label: Qualifier
          :extension_properties: []
        :sub_classification:
          :type: http://www.assero.co.uk/BusinessDomain#VariableClassification
          :id: ''
          :namespace: ''
          :label: Record Qualifier
          :extension_properties: []
      - :type: http://www.assero.co.uk/BusinessDomain#ModelVariable
        :id: ''
        :namespace: ''
        :label: Completion Status
        :extension_properties: []
        :ordinal: '8'
        :rule: ''
        :name: '--STAT'
        :prefixed: true
        :description: Used to indicate when a question about the occurrence of a pre-specified
          event was not answered. Should be null or have a value of NOT DONE.
        :datatype:
          :type: http://www.assero.co.uk/BusinessDomain#VariableType
          :id: ''
          :namespace: ''
          :label: Char
          :extension_properties: []
        :classification:
          :type: http://www.assero.co.uk/BusinessDomain#VariableClassification
          :id: ''
          :namespace: ''
          :label: Qualifier
          :extension_properties: []
        :sub_classification:
          :type: http://www.assero.co.uk/BusinessDomain#VariableClassification
          :id: ''
          :namespace: ''
          :label: Record Qualifier
          :extension_properties: []
      - :type: http://www.assero.co.uk/BusinessDomain#ModelVariable
        :id: ''
        :namespace: ''
        :label: Reason Not Done
        :extension_properties: []
        :ordinal: '9'
        :rule: ''
        :name: '--REASND'
        :prefixed: true
        :description: Reason not done. Used in conjunction with --STAT when value
          is NOT DONE.
        :datatype:
          :type: http://www.assero.co.uk/BusinessDomain#VariableType
          :id: ''
          :namespace: ''
          :label: Char
          :extension_properties: []
        :classification:
          :type: http://www.assero.co.uk/BusinessDomain#VariableClassification
          :id: ''
          :namespace: ''
          :label: Qualifier
          :extension_properties: []
        :sub_classification:
          :type: http://www.assero.co.uk/BusinessDomain#VariableClassification
          :id: ''
          :namespace: ''
          :label: Record Qualifier
          :extension_properties: []
      - :type: http://www.assero.co.uk/BusinessDomain#ModelVariable
        :id: ''
        :namespace: ''
        :label: Body System or Organ Class
        :extension_properties: []
        :ordinal: '10'
        :rule: ''
        :name: '--BODSYS'
        :prefixed: true
        :description: 'Body System or Organ Class that is involved for a finding from
          the standard hierarchy for dictionary-coded results. Example: MedDRA SOC.'
        :datatype:
          :type: http://www.assero.co.uk/BusinessDomain#VariableType
          :id: ''
          :namespace: ''
          :label: Char
          :extension_properties: []
        :classification:
          :type: http://www.assero.co.uk/BusinessDomain#VariableClassification
          :id: ''
          :namespace: ''
          :label: Qualifier
          :extension_properties: []
        :sub_classification:
          :type: http://www.assero.co.uk/BusinessDomain#VariableClassification
          :id: ''
          :namespace: ''
          :label: Record Qualifier
          :extension_properties: []
      - :type: http://www.assero.co.uk/BusinessDomain#ModelVariable
        :id: ''
        :namespace: ''
        :label: Location of Event
        :extension_properties: []
        :ordinal: '11'
        :rule: ''
        :name: '--LOC'
        :prefixed: true
        :description: 'Anatomical location of an intervention, such as an injection
          site. Example: RIGHT ARM for an injection.'
        :datatype:
          :type: http://www.assero.co.uk/BusinessDomain#VariableType
          :id: ''
          :namespace: ''
          :label: Char
          :extension_properties: []
        :classification:
          :type: http://www.assero.co.uk/BusinessDomain#VariableClassification
          :id: ''
          :namespace: ''
          :label: Qualifier
          :extension_properties: []
        :sub_classification:
          :type: http://www.assero.co.uk/BusinessDomain#VariableClassification
          :id: ''
          :namespace: ''
          :label: Record Qualifier
          :extension_properties: []
      - :type: http://www.assero.co.uk/BusinessDomain#ModelVariable
        :id: ''
        :namespace: ''
        :label: Severity/Intensity
        :extension_properties: []
        :ordinal: '12'
        :rule: ''
        :name: '--SEV'
        :prefixed: true
        :description: 'Describes the severity or intensity of a particular finding.
          Examples: MILD, MODERATE, SEVERE.'
        :datatype:
          :type: http://www.assero.co.uk/BusinessDomain#VariableType
          :id: ''
          :namespace: ''
          :label: Char
          :extension_properties: []
        :classification:
          :type: http://www.assero.co.uk/BusinessDomain#VariableClassification
          :id: ''
          :namespace: ''
          :label: Qualifier
          :extension_properties: []
        :sub_classification:
          :type: http://www.assero.co.uk/BusinessDomain#VariableClassification
          :id: ''
          :namespace: ''
          :label: Record Qualifier
          :extension_properties: []
      - :type: http://www.assero.co.uk/BusinessDomain#ModelVariable
        :id: ''
        :namespace: ''
        :label: Serious Event
        :extension_properties: []
        :ordinal: '13'
        :rule: ''
        :name: '--SER'
        :prefixed: true
        :description: Is this is a serious event? Valid values are 'Y' and 'N'.
        :datatype:
          :type: http://www.assero.co.uk/BusinessDomain#VariableType
          :id: ''
          :namespace: ''
          :label: Char
          :extension_properties: []
        :classification:
          :type: http://www.assero.co.uk/BusinessDomain#VariableClassification
          :id: ''
          :namespace: ''
          :label: Qualifier
          :extension_properties: []
        :sub_classification:
          :type: http://www.assero.co.uk/BusinessDomain#VariableClassification
          :id: ''
          :namespace: ''
          :label: Record Qualifier
          :extension_properties: []
      - :type: http://www.assero.co.uk/BusinessDomain#ModelVariable
        :id: ''
        :namespace: ''
        :label: Action Taken with Study Treatment
        :extension_properties: []
        :ordinal: '14'
        :rule: ''
        :name: '--ACN'
        :prefixed: true
        :description: 'Describes changes made to the study treatment as a result of
          the event. Examples: DOSE INCREASED, DOSE NOT CHANGED.'
        :datatype:
          :type: http://www.assero.co.uk/BusinessDomain#VariableType
          :id: ''
          :namespace: ''
          :label: Char
          :extension_properties: []
        :classification:
          :type: http://www.assero.co.uk/BusinessDomain#VariableClassification
          :id: ''
          :namespace: ''
          :label: Qualifier
          :extension_properties: []
        :sub_classification:
          :type: http://www.assero.co.uk/BusinessDomain#VariableClassification
          :id: ''
          :namespace: ''
          :label: Record Qualifier
          :extension_properties: []
      - :type: http://www.assero.co.uk/BusinessDomain#ModelVariable
        :id: ''
        :namespace: ''
        :label: Other Action Taken
        :extension_properties: []
        :ordinal: '15'
        :rule: ''
        :name: '--ACNOTH'
        :prefixed: true
        :description: Describes other actions taken as a result of the event that
          are unrelated to dose adjustments of study treatment.
        :datatype:
          :type: http://www.assero.co.uk/BusinessDomain#VariableType
          :id: ''
          :namespace: ''
          :label: Char
          :extension_properties: []
        :classification:
          :type: http://www.assero.co.uk/BusinessDomain#VariableClassification
          :id: ''
          :namespace: ''
          :label: Qualifier
          :extension_properties: []
        :sub_classification:
          :type: http://www.assero.co.uk/BusinessDomain#VariableClassification
          :id: ''
          :namespace: ''
          :label: Record Qualifier
          :extension_properties: []
      - :type: http://www.assero.co.uk/BusinessDomain#ModelVariable
        :id: ''
        :namespace: ''
        :label: Causality
        :extension_properties: []
        :ordinal: '16'
        :rule: ''
        :name: '--REL'
        :prefixed: true
        :description: Records the investigator's opinion as to the causality of the
          event to the treatment. ICH E2A and E2B examples include NOT RELATED, UNLIKELY
          RELATED, POSSIBLY RELATED, RELATED.
        :datatype:
          :type: http://www.assero.co.uk/BusinessDomain#VariableType
          :id: ''
          :namespace: ''
          :label: Char
          :extension_properties: []
        :classification:
          :type: http://www.assero.co.uk/BusinessDomain#VariableClassification
          :id: ''
          :namespace: ''
          :label: Qualifier
          :extension_properties: []
        :sub_classification:
          :type: http://www.assero.co.uk/BusinessDomain#VariableClassification
          :id: ''
          :namespace: ''
          :label: Record Qualifier
          :extension_properties: []
      - :type: http://www.assero.co.uk/BusinessDomain#ModelVariable
        :id: ''
        :namespace: ''
        :label: Relationship to Non-Study Treatment
        :extension_properties: []
        :ordinal: '17'
        :rule: ''
        :name: '--RELNST'
        :prefixed: true
        :description: 'An opinion as to whether the event may have been due to a treatment
          other than study drug. Example: ''MORE LIKELY RELATED TO ASPIRIN USE.'''
        :datatype:
          :type: http://www.assero.co.uk/BusinessDomain#VariableType
          :id: ''
          :namespace: ''
          :label: Char
          :extension_properties: []
        :classification:
          :type: http://www.assero.co.uk/BusinessDomain#VariableClassification
          :id: ''
          :namespace: ''
          :label: Qualifier
          :extension_properties: []
        :sub_classification:
          :type: http://www.assero.co.uk/BusinessDomain#VariableClassification
          :id: ''
          :namespace: ''
          :label: Record Qualifier
          :extension_properties: []
      - :type: http://www.assero.co.uk/BusinessDomain#ModelVariable
        :id: ''
        :namespace: ''
        :label: Pattern of Event
        :extension_properties: []
        :ordinal: '18'
        :rule: ''
        :name: '--PATT'
        :prefixed: true
        :description: 'Used to indicate the pattern of the event over time. Examples:
          INTERMITTENT, CONTINUOUS, SINGLE EVENT.'
        :datatype:
          :type: http://www.assero.co.uk/BusinessDomain#VariableType
          :id: ''
          :namespace: ''
          :label: Char
          :extension_properties: []
        :classification:
          :type: http://www.assero.co.uk/BusinessDomain#VariableClassification
          :id: ''
          :namespace: ''
          :label: Qualifier
          :extension_properties: []
        :sub_classification:
          :type: http://www.assero.co.uk/BusinessDomain#VariableClassification
          :id: ''
          :namespace: ''
          :label: Record Qualifier
          :extension_properties: []
      - :type: http://www.assero.co.uk/BusinessDomain#ModelVariable
        :id: ''
        :namespace: ''
        :label: Outcome of Event
        :extension_properties: []
        :ordinal: '19'
        :rule: ''
        :name: '--OUT'
        :prefixed: true
        :description: 'Description of the outcome of an event. Examples: RECOVERED/RESOLVED,
          FATAL.'
        :datatype:
          :type: http://www.assero.co.uk/BusinessDomain#VariableType
          :id: ''
          :namespace: ''
          :label: Char
          :extension_properties: []
        :classification:
          :type: http://www.assero.co.uk/BusinessDomain#VariableClassification
          :id: ''
          :namespace: ''
          :label: Qualifier
          :extension_properties: []
        :sub_classification:
          :type: http://www.assero.co.uk/BusinessDomain#VariableClassification
          :id: ''
          :namespace: ''
          :label: Record Qualifier
          :extension_properties: []
      - :type: http://www.assero.co.uk/BusinessDomain#ModelVariable
        :id: ''
        :namespace: ''
        :label: Involves Cancer
        :extension_properties: []
        :ordinal: '20'
        :rule: ''
        :name: '--SCAN'
        :prefixed: true
        :description: Was the event associated with the development of cancer? Valid
          values are 'Y' and 'N'.
        :datatype:
          :type: http://www.assero.co.uk/BusinessDomain#VariableType
          :id: ''
          :namespace: ''
          :label: Char
          :extension_properties: []
        :classification:
          :type: http://www.assero.co.uk/BusinessDomain#VariableClassification
          :id: ''
          :namespace: ''
          :label: Qualifier
          :extension_properties: []
        :sub_classification:
          :type: http://www.assero.co.uk/BusinessDomain#VariableClassification
          :id: ''
          :namespace: ''
          :label: Record Qualifier
          :extension_properties: []
      - :type: http://www.assero.co.uk/BusinessDomain#ModelVariable
        :id: ''
        :namespace: ''
        :label: Congenital Anomaly or Birth Defect
        :extension_properties: []
        :ordinal: '21'
        :rule: ''
        :name: '--SCONG'
        :prefixed: true
        :description: Was the event associated with congenital anomaly or birth defect?
          Valid values are 'Y' and 'N'.
        :datatype:
          :type: http://www.assero.co.uk/BusinessDomain#VariableType
          :id: ''
          :namespace: ''
          :label: Char
          :extension_properties: []
        :classification:
          :type: http://www.assero.co.uk/BusinessDomain#VariableClassification
          :id: ''
          :namespace: ''
          :label: Qualifier
          :extension_properties: []
        :sub_classification:
          :type: http://www.assero.co.uk/BusinessDomain#VariableClassification
          :id: ''
          :namespace: ''
          :label: Record Qualifier
          :extension_properties: []
      - :type: http://www.assero.co.uk/BusinessDomain#ModelVariable
        :id: ''
        :namespace: ''
        :label: Persist or Signif Disability/Incapacity
        :extension_properties: []
        :ordinal: '22'
        :rule: ''
        :name: '--SDISAB'
        :prefixed: true
        :description: Did the event result in persistent or significant disability/incapacity?
          Valid values are 'Y' and 'N'.
        :datatype:
          :type: http://www.assero.co.uk/BusinessDomain#VariableType
          :id: ''
          :namespace: ''
          :label: Char
          :extension_properties: []
        :classification:
          :type: http://www.assero.co.uk/BusinessDomain#VariableClassification
          :id: ''
          :namespace: ''
          :label: Qualifier
          :extension_properties: []
        :sub_classification:
          :type: http://www.assero.co.uk/BusinessDomain#VariableClassification
          :id: ''
          :namespace: ''
          :label: Record Qualifier
          :extension_properties: []
      - :type: http://www.assero.co.uk/BusinessDomain#ModelVariable
        :id: ''
        :namespace: ''
        :label: Results in Death
        :extension_properties: []
        :ordinal: '23'
        :rule: ''
        :name: '--SDTH'
        :prefixed: true
        :description: Did the event result in death? Valid values are 'Y' and 'N'.
        :datatype:
          :type: http://www.assero.co.uk/BusinessDomain#VariableType
          :id: ''
          :namespace: ''
          :label: Char
          :extension_properties: []
        :classification:
          :type: http://www.assero.co.uk/BusinessDomain#VariableClassification
          :id: ''
          :namespace: ''
          :label: Qualifier
          :extension_properties: []
        :sub_classification:
          :type: http://www.assero.co.uk/BusinessDomain#VariableClassification
          :id: ''
          :namespace: ''
          :label: Record Qualifier
          :extension_properties: []
      - :type: http://www.assero.co.uk/BusinessDomain#ModelVariable
        :id: ''
        :namespace: ''
        :label: Requires or Prolongs Hospitalization
        :extension_properties: []
        :ordinal: '24'
        :rule: ''
        :name: '--SHOSP'
        :prefixed: true
        :description: Did the event require or prolong hospitalization? Valid values
          are 'Y' and 'N'.
        :datatype:
          :type: http://www.assero.co.uk/BusinessDomain#VariableType
          :id: ''
          :namespace: ''
          :label: Char
          :extension_properties: []
        :classification:
          :type: http://www.assero.co.uk/BusinessDomain#VariableClassification
          :id: ''
          :namespace: ''
          :label: Qualifier
          :extension_properties: []
        :sub_classification:
          :type: http://www.assero.co.uk/BusinessDomain#VariableClassification
          :id: ''
          :namespace: ''
          :label: Record Qualifier
          :extension_properties: []
      - :type: http://www.assero.co.uk/BusinessDomain#ModelVariable
        :id: ''
        :namespace: ''
        :label: Is Life Threatening
        :extension_properties: []
        :ordinal: '25'
        :rule: ''
        :name: '--SLIFE'
        :prefixed: true
        :description: Was the event life threatening? Valid values are 'Y' and 'N'.
        :datatype:
          :type: http://www.assero.co.uk/BusinessDomain#VariableType
          :id: ''
          :namespace: ''
          :label: Char
          :extension_properties: []
        :classification:
          :type: http://www.assero.co.uk/BusinessDomain#VariableClassification
          :id: ''
          :namespace: ''
          :label: Qualifier
          :extension_properties: []
        :sub_classification:
          :type: http://www.assero.co.uk/BusinessDomain#VariableClassification
          :id: ''
          :namespace: ''
          :label: Record Qualifier
          :extension_properties: []
      - :type: http://www.assero.co.uk/BusinessDomain#ModelVariable
        :id: ''
        :namespace: ''
        :label: Occurred with Overdose
        :extension_properties: []
        :ordinal: '26'
        :rule: ''
        :name: '--SOD'
        :prefixed: true
        :description: Did the event occur with an overdose? Valid values are 'Y' and
          'N'.
        :datatype:
          :type: http://www.assero.co.uk/BusinessDomain#VariableType
          :id: ''
          :namespace: ''
          :label: Char
          :extension_properties: []
        :classification:
          :type: http://www.assero.co.uk/BusinessDomain#VariableClassification
          :id: ''
          :namespace: ''
          :label: Qualifier
          :extension_properties: []
        :sub_classification:
          :type: http://www.assero.co.uk/BusinessDomain#VariableClassification
          :id: ''
          :namespace: ''
          :label: Record Qualifier
          :extension_properties: []
      - :type: http://www.assero.co.uk/BusinessDomain#ModelVariable
        :id: ''
        :namespace: ''
        :label: Other Medically Important Serious Event
        :extension_properties: []
        :ordinal: '27'
        :rule: ''
        :name: '--SMIE'
        :prefixed: true
        :description: Do additional categories for seriousness apply? Valid values
          are 'Y' and 'N'.
        :datatype:
          :type: http://www.assero.co.uk/BusinessDomain#VariableType
          :id: ''
          :namespace: ''
          :label: Char
          :extension_properties: []
        :classification:
          :type: http://www.assero.co.uk/BusinessDomain#VariableClassification
          :id: ''
          :namespace: ''
          :label: Qualifier
          :extension_properties: []
        :sub_classification:
          :type: http://www.assero.co.uk/BusinessDomain#VariableClassification
          :id: ''
          :namespace: ''
          :label: Record Qualifier
          :extension_properties: []
      - :type: http://www.assero.co.uk/BusinessDomain#ModelVariable
        :id: ''
        :namespace: ''
        :label: Concomitant or Additional Trtmnt Given
        :extension_properties: []
        :ordinal: '28'
        :rule: ''
        :name: '--CONTRT'
        :prefixed: true
        :description: Was another treatment given because of the occurrence of the
          event? Valid values are 'Y' and 'N'.
        :datatype:
          :type: http://www.assero.co.uk/BusinessDomain#VariableType
          :id: ''
          :namespace: ''
          :label: Char
          :extension_properties: []
        :classification:
          :type: http://www.assero.co.uk/BusinessDomain#VariableClassification
          :id: ''
          :namespace: ''
          :label: Qualifier
          :extension_properties: []
        :sub_classification:
          :type: http://www.assero.co.uk/BusinessDomain#VariableClassification
          :id: ''
          :namespace: ''
          :label: Record Qualifier
          :extension_properties: []
      - :type: http://www.assero.co.uk/BusinessDomain#ModelVariable
        :id: ''
        :namespace: ''
        :label: Toxicity
        :extension_properties: []
        :ordinal: '29'
        :rule: ''
        :name: '--TOX'
        :prefixed: true
        :description: 'Description of toxicity quantified by --TOXGR such as NCI CTCAE
          Short Name. Examples: HYPERCALCEMIA, HYPOCALCEMIA. Sponsor should specify
          which scale and version is used in the Sponsor Comments column of the Define.xml
          document.'
        :datatype:
          :type: http://www.assero.co.uk/BusinessDomain#VariableType
          :id: ''
          :namespace: ''
          :label: Char
          :extension_properties: []
        :classification:
          :type: http://www.assero.co.uk/BusinessDomain#VariableClassification
          :id: ''
          :namespace: ''
          :label: Qualifier
          :extension_properties: []
        :sub_classification:
          :type: http://www.assero.co.uk/BusinessDomain#VariableClassification
          :id: ''
          :namespace: ''
          :label: Variable Qualifier
          :extension_properties: []
      - :type: http://www.assero.co.uk/BusinessDomain#ModelVariable
        :id: ''
        :namespace: ''
        :label: Toxicity Grade
        :extension_properties: []
        :ordinal: '30'
        :rule: ''
        :name: '--TOXGR'
        :prefixed: true
        :description: Records toxicity grade using a standard toxicity scale (such
          as the NCI CTCAE). Sponsor should specify which scale and version is used
          in the Sponsor Comments column of the Define.xml document.
        :datatype:
          :type: http://www.assero.co.uk/BusinessDomain#VariableType
          :id: ''
          :namespace: ''
          :label: Char
          :extension_properties: []
        :classification:
          :type: http://www.assero.co.uk/BusinessDomain#VariableClassification
          :id: ''
          :namespace: ''
          :label: Qualifier
          :extension_properties: []
        :sub_classification:
          :type: http://www.assero.co.uk/BusinessDomain#VariableClassification
          :id: ''
          :namespace: ''
          :label: Record Qualifier
          :extension_properties: []
      - :type: http://www.assero.co.uk/BusinessDomain#ModelVariable
        :id: ''
        :namespace: ''
        :label: Short Name of Measurement, Test or Examination
        :extension_properties: []
        :ordinal: '1'
        :rule: ''
        :name: '--TESTCD'
        :prefixed: true
        :description: 'Short character value for --TEST used as a column name when
          converting a dataset from a vertical format to a horizontal format. The
          short value can be up to 8 characters. Examples: PLAT, SYSBP, RRMIN, EYEEXAM.'
        :datatype:
          :type: http://www.assero.co.uk/BusinessDomain#VariableType
          :id: ''
          :namespace: ''
          :label: Char
          :extension_properties: []
        :classification:
          :type: http://www.assero.co.uk/BusinessDomain#VariableClassification
          :id: ''
          :namespace: ''
          :label: Topic
          :extension_properties: []
        :sub_classification:
          :type: http://www.assero.co.uk/BusinessDomain#VariableClassification
          :id: ''
          :namespace: ''
          :label: Not Applicable
          :extension_properties: []
      - :type: http://www.assero.co.uk/BusinessDomain#ModelVariable
        :id: ''
        :namespace: ''
        :label: Name of Measurement, Test or Examination
        :extension_properties: []
        :ordinal: '2'
        :rule: ''
        :name: '--TEST'
        :prefixed: true
        :description: 'Long name For --TESTCD. Examples: Platelet, Systolic Blood
          Pressure, Summary (Min) RR Duration, Eye Examination.'
        :datatype:
          :type: http://www.assero.co.uk/BusinessDomain#VariableType
          :id: ''
          :namespace: ''
          :label: Char
          :extension_properties: []
        :classification:
          :type: http://www.assero.co.uk/BusinessDomain#VariableClassification
          :id: ''
          :namespace: ''
          :label: Qualifier
          :extension_properties: []
        :sub_classification:
          :type: http://www.assero.co.uk/BusinessDomain#VariableClassification
          :id: ''
          :namespace: ''
          :label: Synonym Qualifier
          :extension_properties: []
      - :type: http://www.assero.co.uk/BusinessDomain#ModelVariable
        :id: ''
        :namespace: ''
        :label: Modified Term
        :extension_properties: []
        :ordinal: '3'
        :rule: ''
        :name: '--MODIFY'
        :prefixed: true
        :description: If the value for --TRT is modified for coding purposes, then
          the modified text is placed here.
        :datatype:
          :type: http://www.assero.co.uk/BusinessDomain#VariableType
          :id: ''
          :namespace: ''
          :label: Char
          :extension_properties: []
        :classification:
          :type: http://www.assero.co.uk/BusinessDomain#VariableClassification
          :id: ''
          :namespace: ''
          :label: Qualifier
          :extension_properties: []
        :sub_classification:
          :type: http://www.assero.co.uk/BusinessDomain#VariableClassification
          :id: ''
          :namespace: ''
          :label: Synonym Qualifier
          :extension_properties: []
      - :type: http://www.assero.co.uk/BusinessDomain#ModelVariable
        :id: ''
        :namespace: ''
        :label: Category
        :extension_properties: []
        :ordinal: '4'
        :rule: ''
        :name: '--CAT'
        :prefixed: true
        :description: 'Used to define a category of topic-variable values. Examples:
          HEMATOLOGY, URINALYSIS, CHEMISTRY, HAMILTON DEPRESSION SCALE, SF36.'
        :datatype:
          :type: http://www.assero.co.uk/BusinessDomain#VariableType
          :id: ''
          :namespace: ''
          :label: Char
          :extension_properties: []
        :classification:
          :type: http://www.assero.co.uk/BusinessDomain#VariableClassification
          :id: ''
          :namespace: ''
          :label: Qualifier
          :extension_properties: []
        :sub_classification:
          :type: http://www.assero.co.uk/BusinessDomain#VariableClassification
          :id: ''
          :namespace: ''
          :label: Grouping Qualifier
          :extension_properties: []
      - :type: http://www.assero.co.uk/BusinessDomain#ModelVariable
        :id: ''
        :namespace: ''
        :label: Subcategory
        :extension_properties: []
        :ordinal: '5'
        :rule: ''
        :name: '--SCAT'
        :prefixed: true
        :description: Used to define a further categorization of --CAT values.
        :datatype:
          :type: http://www.assero.co.uk/BusinessDomain#VariableType
          :id: ''
          :namespace: ''
          :label: Char
          :extension_properties: []
        :classification:
          :type: http://www.assero.co.uk/BusinessDomain#VariableClassification
          :id: ''
          :namespace: ''
          :label: Qualifier
          :extension_properties: []
        :sub_classification:
          :type: http://www.assero.co.uk/BusinessDomain#VariableClassification
          :id: ''
          :namespace: ''
          :label: Grouping Qualifier
          :extension_properties: []
      - :type: http://www.assero.co.uk/BusinessDomain#ModelVariable
        :id: ''
        :namespace: ''
        :label: Position of Subject During Observation
        :extension_properties: []
        :ordinal: '6'
        :rule: ''
        :name: '--POS'
        :prefixed: true
        :description: 'Position of the subject during a measurement or examination.
          Examples: SUPINE, STANDING, SITTING.'
        :datatype:
          :type: http://www.assero.co.uk/BusinessDomain#VariableType
          :id: ''
          :namespace: ''
          :label: Char
          :extension_properties: []
        :classification:
          :type: http://www.assero.co.uk/BusinessDomain#VariableClassification
          :id: ''
          :namespace: ''
          :label: Qualifier
          :extension_properties: []
        :sub_classification:
          :type: http://www.assero.co.uk/BusinessDomain#VariableClassification
          :id: ''
          :namespace: ''
          :label: Record Qualifier
          :extension_properties: []
      - :type: http://www.assero.co.uk/BusinessDomain#ModelVariable
        :id: ''
        :namespace: ''
        :label: Body System or Organ Class
        :extension_properties: []
        :ordinal: '7'
        :rule: ''
        :name: '--BODSYS'
        :prefixed: true
        :description: 'Body System or Organ Class that is involved for a finding from
          the standard hierarchy for dictionary-coded results. Example: MedDRA SOC.'
        :datatype:
          :type: http://www.assero.co.uk/BusinessDomain#VariableType
          :id: ''
          :namespace: ''
          :label: Char
          :extension_properties: []
        :classification:
          :type: http://www.assero.co.uk/BusinessDomain#VariableClassification
          :id: ''
          :namespace: ''
          :label: Qualifier
          :extension_properties: []
        :sub_classification:
          :type: http://www.assero.co.uk/BusinessDomain#VariableClassification
          :id: ''
          :namespace: ''
          :label: Record Qualifier
          :extension_properties: []
      - :type: http://www.assero.co.uk/BusinessDomain#ModelVariable
        :id: ''
        :namespace: ''
        :label: Result or Finding in Original Units
        :extension_properties: []
        :ordinal: '8'
        :rule: ''
        :name: '--ORRES'
        :prefixed: true
        :description: 'Result of the measurement or finding as originally received
          or collected. Examples: 120, <1, POS.'
        :datatype:
          :type: http://www.assero.co.uk/BusinessDomain#VariableType
          :id: ''
          :namespace: ''
          :label: Char
          :extension_properties: []
        :classification:
          :type: http://www.assero.co.uk/BusinessDomain#VariableClassification
          :id: ''
          :namespace: ''
          :label: Qualifier
          :extension_properties: []
        :sub_classification:
          :type: http://www.assero.co.uk/BusinessDomain#VariableClassification
          :id: ''
          :namespace: ''
          :label: Result Qualifier
          :extension_properties: []
      - :type: http://www.assero.co.uk/BusinessDomain#ModelVariable
        :id: ''
        :namespace: ''
        :label: Original Units
        :extension_properties: []
        :ordinal: '9'
        :rule: ''
        :name: '--ORRESU'
        :prefixed: true
        :description: 'Unit for --ORRES. Examples: IN, LB, kg/L.'
        :datatype:
          :type: http://www.assero.co.uk/BusinessDomain#VariableType
          :id: ''
          :namespace: ''
          :label: Char
          :extension_properties: []
        :classification:
          :type: http://www.assero.co.uk/BusinessDomain#VariableClassification
          :id: ''
          :namespace: ''
          :label: Qualifier
          :extension_properties: []
        :sub_classification:
          :type: http://www.assero.co.uk/BusinessDomain#VariableClassification
          :id: ''
          :namespace: ''
          :label: Variable Qualifier
          :extension_properties: []
      - :type: http://www.assero.co.uk/BusinessDomain#ModelVariable
        :id: ''
        :namespace: ''
        :label: Normal Range Lower Limit-Original Units
        :extension_properties: []
        :ordinal: '10'
        :rule: ''
        :name: '--ORNRLO'
        :prefixed: true
        :description: Lower end of normal range or reference range for results stored
          in --ORRES.
        :datatype:
          :type: http://www.assero.co.uk/BusinessDomain#VariableType
          :id: ''
          :namespace: ''
          :label: Char
          :extension_properties: []
        :classification:
          :type: http://www.assero.co.uk/BusinessDomain#VariableClassification
          :id: ''
          :namespace: ''
          :label: Qualifier
          :extension_properties: []
        :sub_classification:
          :type: http://www.assero.co.uk/BusinessDomain#VariableClassification
          :id: ''
          :namespace: ''
          :label: Variable Qualifier
          :extension_properties: []
      - :type: http://www.assero.co.uk/BusinessDomain#ModelVariable
        :id: ''
        :namespace: ''
        :label: Normal Range Upper Limit-Original Units
        :extension_properties: []
        :ordinal: '11'
        :rule: ''
        :name: '--ORNRHI'
        :prefixed: true
        :description: Upper end of normal range or reference range for results stored
          in --ORRES.
        :datatype:
          :type: http://www.assero.co.uk/BusinessDomain#VariableType
          :id: ''
          :namespace: ''
          :label: Char
          :extension_properties: []
        :classification:
          :type: http://www.assero.co.uk/BusinessDomain#VariableClassification
          :id: ''
          :namespace: ''
          :label: Qualifier
          :extension_properties: []
        :sub_classification:
          :type: http://www.assero.co.uk/BusinessDomain#VariableClassification
          :id: ''
          :namespace: ''
          :label: Variable Qualifier
          :extension_properties: []
      - :type: http://www.assero.co.uk/BusinessDomain#ModelVariable
        :id: ''
        :namespace: ''
        :label: Result or Finding in Standard Format
        :extension_properties: []
        :ordinal: '12'
        :rule: ''
        :name: '--STRESC'
        :prefixed: true
        :description: Contains the result value for all findings, copied or derived
          from --ORRES in a standard format or in standard units. --STRESC should
          store all results or findings in character format; if results are numeric,
          they should also be stored in numeric format in --STRESN. For example, if
          various tests have results 'NONE', 'NEG', and 'NEGATIVE' in --ORRES and
          these results effectively have the same meaning, they could be represented
          in standard format in --STRESC as 'NEGATIVE'.
        :datatype:
          :type: http://www.assero.co.uk/BusinessDomain#VariableType
          :id: ''
          :namespace: ''
          :label: Char
          :extension_properties: []
        :classification:
          :type: http://www.assero.co.uk/BusinessDomain#VariableClassification
          :id: ''
          :namespace: ''
          :label: Qualifier
          :extension_properties: []
        :sub_classification:
          :type: http://www.assero.co.uk/BusinessDomain#VariableClassification
          :id: ''
          :namespace: ''
          :label: Result Qualifier
          :extension_properties: []
      - :type: http://www.assero.co.uk/BusinessDomain#ModelVariable
        :id: ''
        :namespace: ''
        :label: Numeric Result/Finding in Standard Units
        :extension_properties: []
        :ordinal: '13'
        :rule: ''
        :name: '--STRESN'
        :prefixed: true
        :description: Used for continuous or numeric results or findings in standard
          format; copied in numeric format from --STRESC. --STRESN should store all
          numeric test results or findings.
        :datatype:
          :type: http://www.assero.co.uk/BusinessDomain#VariableType
          :id: ''
          :namespace: ''
          :label: Num
          :extension_properties: []
        :classification:
          :type: http://www.assero.co.uk/BusinessDomain#VariableClassification
          :id: ''
          :namespace: ''
          :label: Qualifier
          :extension_properties: []
        :sub_classification:
          :type: http://www.assero.co.uk/BusinessDomain#VariableClassification
          :id: ''
          :namespace: ''
          :label: Result Qualifier
          :extension_properties: []
      - :type: http://www.assero.co.uk/BusinessDomain#ModelVariable
        :id: ''
        :namespace: ''
        :label: Standard Units
        :extension_properties: []
        :ordinal: '14'
        :rule: ''
        :name: '--STRESU'
        :prefixed: true
        :description: 'Standardized units used for --STRESC and --STRESN. Example:
          mol/L.'
        :datatype:
          :type: http://www.assero.co.uk/BusinessDomain#VariableType
          :id: ''
          :namespace: ''
          :label: Char
          :extension_properties: []
        :classification:
          :type: http://www.assero.co.uk/BusinessDomain#VariableClassification
          :id: ''
          :namespace: ''
          :label: Qualifier
          :extension_properties: []
        :sub_classification:
          :type: http://www.assero.co.uk/BusinessDomain#VariableClassification
          :id: ''
          :namespace: ''
          :label: Variable Qualifier
          :extension_properties: []
      - :type: http://www.assero.co.uk/BusinessDomain#ModelVariable
        :id: ''
        :namespace: ''
        :label: Normal Range Lower Limit-Standard Units
        :extension_properties: []
        :ordinal: '15'
        :rule: ''
        :name: '--STNRLO'
        :prefixed: true
        :description: Lower end of normal range or reference range for standardized
          results (e.g., --STRESC, --STRESN) represented in standardized units (--STRESU).
        :datatype:
          :type: http://www.assero.co.uk/BusinessDomain#VariableType
          :id: ''
          :namespace: ''
          :label: Num
          :extension_properties: []
        :classification:
          :type: http://www.assero.co.uk/BusinessDomain#VariableClassification
          :id: ''
          :namespace: ''
          :label: Qualifier
          :extension_properties: []
        :sub_classification:
          :type: http://www.assero.co.uk/BusinessDomain#VariableClassification
          :id: ''
          :namespace: ''
          :label: Variable Qualifier
          :extension_properties: []
      - :type: http://www.assero.co.uk/BusinessDomain#ModelVariable
        :id: ''
        :namespace: ''
        :label: Normal Range Upper Limit-Standard Units
        :extension_properties: []
        :ordinal: '16'
        :rule: ''
        :name: '--STNRHI'
        :prefixed: true
        :description: Upper end of normal range or reference range for standardized
          results (e.g., --STRESC, --STRESN) represented in standardized units (--STRESU).
        :datatype:
          :type: http://www.assero.co.uk/BusinessDomain#VariableType
          :id: ''
          :namespace: ''
          :label: Num
          :extension_properties: []
        :classification:
          :type: http://www.assero.co.uk/BusinessDomain#VariableClassification
          :id: ''
          :namespace: ''
          :label: Qualifier
          :extension_properties: []
        :sub_classification:
          :type: http://www.assero.co.uk/BusinessDomain#VariableClassification
          :id: ''
          :namespace: ''
          :label: Variable Qualifier
          :extension_properties: []
      - :type: http://www.assero.co.uk/BusinessDomain#ModelVariable
        :id: ''
        :namespace: ''
        :label: Normal Range for Character Results
        :extension_properties: []
        :ordinal: '17'
        :rule: ''
        :name: '--STNRC'
        :prefixed: true
        :description: 'Normal range or reference range for results stored in --STRESC
          that are character in ordinal or categorical scale. Example: Negative to
          Trace.'
        :datatype:
          :type: http://www.assero.co.uk/BusinessDomain#VariableType
          :id: ''
          :namespace: ''
          :label: Char
          :extension_properties: []
        :classification:
          :type: http://www.assero.co.uk/BusinessDomain#VariableClassification
          :id: ''
          :namespace: ''
          :label: Qualifier
          :extension_properties: []
        :sub_classification:
          :type: http://www.assero.co.uk/BusinessDomain#VariableClassification
          :id: ''
          :namespace: ''
          :label: Variable Qualifier
          :extension_properties: []
      - :type: http://www.assero.co.uk/BusinessDomain#ModelVariable
        :id: ''
        :namespace: ''
        :label: Normal/Reference Range Indicator
        :extension_properties: []
        :ordinal: '18'
        :rule: ''
        :name: '--NRIND'
        :prefixed: true
        :description: 'Used to indicate the value is outside the normal range or reference
          range. May be defined by --ORNRLO and --ORNRHI or other objective criteria.
          Examples: Y, N; HIGH, LOW; NORMAL; ABNORMAL.'
        :datatype:
          :type: http://www.assero.co.uk/BusinessDomain#VariableType
          :id: ''
          :namespace: ''
          :label: Char
          :extension_properties: []
        :classification:
          :type: http://www.assero.co.uk/BusinessDomain#VariableClassification
          :id: ''
          :namespace: ''
          :label: Qualifier
          :extension_properties: []
        :sub_classification:
          :type: http://www.assero.co.uk/BusinessDomain#VariableClassification
          :id: ''
          :namespace: ''
          :label: Variable Qualifier
          :extension_properties: []
      - :type: http://www.assero.co.uk/BusinessDomain#ModelVariable
        :id: ''
        :namespace: ''
        :label: Result Category
        :extension_properties: []
        :ordinal: '19'
        :rule: ''
        :name: '--RESCAT'
        :prefixed: true
        :description: 'Used to categorize the result of a finding. Example: MALIGNANT
          or BENIGN for tumor findings.'
        :datatype:
          :type: http://www.assero.co.uk/BusinessDomain#VariableType
          :id: ''
          :namespace: ''
          :label: Char
          :extension_properties: []
        :classification:
          :type: http://www.assero.co.uk/BusinessDomain#VariableClassification
          :id: ''
          :namespace: ''
          :label: Qualifier
          :extension_properties: []
        :sub_classification:
          :type: http://www.assero.co.uk/BusinessDomain#VariableClassification
          :id: ''
          :namespace: ''
          :label: Variable Qualifier
          :extension_properties: []
      - :type: http://www.assero.co.uk/BusinessDomain#ModelVariable
        :id: ''
        :namespace: ''
        :label: Completion Status
        :extension_properties: []
        :ordinal: '20'
        :rule: ''
        :name: '--STAT'
        :prefixed: true
        :description: Used to indicate when a question about the occurrence of a pre-specified
          event was not answered. Should be null or have a value of NOT DONE.
        :datatype:
          :type: http://www.assero.co.uk/BusinessDomain#VariableType
          :id: ''
          :namespace: ''
          :label: Char
          :extension_properties: []
        :classification:
          :type: http://www.assero.co.uk/BusinessDomain#VariableClassification
          :id: ''
          :namespace: ''
          :label: Qualifier
          :extension_properties: []
        :sub_classification:
          :type: http://www.assero.co.uk/BusinessDomain#VariableClassification
          :id: ''
          :namespace: ''
          :label: Record Qualifier
          :extension_properties: []
      - :type: http://www.assero.co.uk/BusinessDomain#ModelVariable
        :id: ''
        :namespace: ''
        :label: Reason Not Done
        :extension_properties: []
        :ordinal: '21'
        :rule: ''
        :name: '--REASND'
        :prefixed: true
        :description: Reason not done. Used in conjunction with --STAT when value
          is NOT DONE.
        :datatype:
          :type: http://www.assero.co.uk/BusinessDomain#VariableType
          :id: ''
          :namespace: ''
          :label: Char
          :extension_properties: []
        :classification:
          :type: http://www.assero.co.uk/BusinessDomain#VariableClassification
          :id: ''
          :namespace: ''
          :label: Qualifier
          :extension_properties: []
        :sub_classification:
          :type: http://www.assero.co.uk/BusinessDomain#VariableClassification
          :id: ''
          :namespace: ''
          :label: Record Qualifier
          :extension_properties: []
      - :type: http://www.assero.co.uk/BusinessDomain#ModelVariable
        :id: ''
        :namespace: ''
        :label: External Filename
        :extension_properties: []
        :ordinal: '22'
        :rule: ''
        :name: '--XFN'
        :prefixed: true
        :description: Filename for an external file, such as one for an ECG waveform
          or a medical image.
        :datatype:
          :type: http://www.assero.co.uk/BusinessDomain#VariableType
          :id: ''
          :namespace: ''
          :label: Char
          :extension_properties: []
        :classification:
          :type: http://www.assero.co.uk/BusinessDomain#VariableClassification
          :id: ''
          :namespace: ''
          :label: Qualifier
          :extension_properties: []
        :sub_classification:
          :type: http://www.assero.co.uk/BusinessDomain#VariableClassification
          :id: ''
          :namespace: ''
          :label: Record Qualifier
          :extension_properties: []
      - :type: http://www.assero.co.uk/BusinessDomain#ModelVariable
        :id: ''
        :namespace: ''
        :label: Laboratory/Vendor Name
        :extension_properties: []
        :ordinal: '23'
        :rule: ''
        :name: '--NAM'
        :prefixed: true
        :description: Name or identifier of the vendor (e.g., laboratory) that provided
          the test results.
        :datatype:
          :type: http://www.assero.co.uk/BusinessDomain#VariableType
          :id: ''
          :namespace: ''
          :label: Char
          :extension_properties: []
        :classification:
          :type: http://www.assero.co.uk/BusinessDomain#VariableClassification
          :id: ''
          :namespace: ''
          :label: Qualifier
          :extension_properties: []
        :sub_classification:
          :type: http://www.assero.co.uk/BusinessDomain#VariableClassification
          :id: ''
          :namespace: ''
          :label: Record Qualifier
          :extension_properties: []
      - :type: http://www.assero.co.uk/BusinessDomain#ModelVariable
        :id: ''
        :namespace: ''
        :label: LOINC Code
        :extension_properties: []
        :ordinal: '24'
        :rule: ''
        :name: '--LOINC'
        :prefixed: true
        :description: Logical Observation Identifiers Names and Codes (LOINC) code
          for the topic variable such as a lab test.
        :datatype:
          :type: http://www.assero.co.uk/BusinessDomain#VariableType
          :id: ''
          :namespace: ''
          :label: Char
          :extension_properties: []
        :classification:
          :type: http://www.assero.co.uk/BusinessDomain#VariableClassification
          :id: ''
          :namespace: ''
          :label: Qualifier
          :extension_properties: []
        :sub_classification:
          :type: http://www.assero.co.uk/BusinessDomain#VariableClassification
          :id: ''
          :namespace: ''
          :label: Synonym Qualifier
          :extension_properties: []
      - :type: http://www.assero.co.uk/BusinessDomain#ModelVariable
        :id: ''
        :namespace: ''
        :label: Specimen Material Type
        :extension_properties: []
        :ordinal: '25'
        :rule: ''
        :name: '--SPEC'
        :prefixed: true
        :description: 'Defines the type of specimen used for a measurement. Examples:
          SERUM, PLASMA, URINE.'
        :datatype:
          :type: http://www.assero.co.uk/BusinessDomain#VariableType
          :id: ''
          :namespace: ''
          :label: Char
          :extension_properties: []
        :classification:
          :type: http://www.assero.co.uk/BusinessDomain#VariableClassification
          :id: ''
          :namespace: ''
          :label: Qualifier
          :extension_properties: []
        :sub_classification:
          :type: http://www.assero.co.uk/BusinessDomain#VariableClassification
          :id: ''
          :namespace: ''
          :label: Record Qualifier
          :extension_properties: []
      - :type: http://www.assero.co.uk/BusinessDomain#ModelVariable
        :id: ''
        :namespace: ''
        :label: Specimen Condition
        :extension_properties: []
        :ordinal: '26'
        :rule: ''
        :name: '--SPCCND'
        :prefixed: true
        :description: 'Defines the condition of the specimen. Example: CLOUDY.'
        :datatype:
          :type: http://www.assero.co.uk/BusinessDomain#VariableType
          :id: ''
          :namespace: ''
          :label: Char
          :extension_properties: []
        :classification:
          :type: http://www.assero.co.uk/BusinessDomain#VariableClassification
          :id: ''
          :namespace: ''
          :label: Qualifier
          :extension_properties: []
        :sub_classification:
          :type: http://www.assero.co.uk/BusinessDomain#VariableClassification
          :id: ''
          :namespace: ''
          :label: Record Qualifier
          :extension_properties: []
      - :type: http://www.assero.co.uk/BusinessDomain#ModelVariable
        :id: ''
        :namespace: ''
        :label: Location Used for the Measurement
        :extension_properties: []
        :ordinal: '27'
        :rule: ''
        :name: '--LOC'
        :prefixed: true
        :description: 'Anatomical location of an intervention, such as an injection
          site. Example: RIGHT ARM for an injection.'
        :datatype:
          :type: http://www.assero.co.uk/BusinessDomain#VariableType
          :id: ''
          :namespace: ''
          :label: Char
          :extension_properties: []
        :classification:
          :type: http://www.assero.co.uk/BusinessDomain#VariableClassification
          :id: ''
          :namespace: ''
          :label: Qualifier
          :extension_properties: []
        :sub_classification:
          :type: http://www.assero.co.uk/BusinessDomain#VariableClassification
          :id: ''
          :namespace: ''
          :label: Record Qualifier
          :extension_properties: []
      - :type: http://www.assero.co.uk/BusinessDomain#ModelVariable
        :id: ''
        :namespace: ''
        :label: Method of Test or Examination
        :extension_properties: []
        :ordinal: '28'
        :rule: ''
        :name: '--METHOD'
        :prefixed: true
        :description: 'Method of the test or examination. Examples: EIA (Enzyme Immunoassay),
          ELECTROPHORESIS, DIPSTICK.'
        :datatype:
          :type: http://www.assero.co.uk/BusinessDomain#VariableType
          :id: ''
          :namespace: ''
          :label: Char
          :extension_properties: []
        :classification:
          :type: http://www.assero.co.uk/BusinessDomain#VariableClassification
          :id: ''
          :namespace: ''
          :label: Qualifier
          :extension_properties: []
        :sub_classification:
          :type: http://www.assero.co.uk/BusinessDomain#VariableClassification
          :id: ''
          :namespace: ''
          :label: Record Qualifier
          :extension_properties: []
      - :type: http://www.assero.co.uk/BusinessDomain#ModelVariable
        :id: ''
        :namespace: ''
        :label: Baseline Flag
        :extension_properties: []
        :ordinal: '29'
        :rule: ''
        :name: '--BLFL'
        :prefixed: true
        :description: Indicator used to identify a baseline value. Should be Y or
          null.
        :datatype:
          :type: http://www.assero.co.uk/BusinessDomain#VariableType
          :id: ''
          :namespace: ''
          :label: Char
          :extension_properties: []
        :classification:
          :type: http://www.assero.co.uk/BusinessDomain#VariableClassification
          :id: ''
          :namespace: ''
          :label: Qualifier
          :extension_properties: []
        :sub_classification:
          :type: http://www.assero.co.uk/BusinessDomain#VariableClassification
          :id: ''
          :namespace: ''
          :label: Record Qualifier
          :extension_properties: []
      - :type: http://www.assero.co.uk/BusinessDomain#ModelVariable
        :id: ''
        :namespace: ''
        :label: Fasting Status
        :extension_properties: []
        :ordinal: '30'
        :rule: ''
        :name: '--FAST'
        :prefixed: true
        :description: Indicator used to identify fasting status. Valid values include
          Y, N, U or null if not relevant.
        :datatype:
          :type: http://www.assero.co.uk/BusinessDomain#VariableType
          :id: ''
          :namespace: ''
          :label: Char
          :extension_properties: []
        :classification:
          :type: http://www.assero.co.uk/BusinessDomain#VariableClassification
          :id: ''
          :namespace: ''
          :label: Qualifier
          :extension_properties: []
        :sub_classification:
          :type: http://www.assero.co.uk/BusinessDomain#VariableClassification
          :id: ''
          :namespace: ''
          :label: Record Qualifier
          :extension_properties: []
      - :type: http://www.assero.co.uk/BusinessDomain#ModelVariable
        :id: ''
        :namespace: ''
        :label: Derived Flag
        :extension_properties: []
        :ordinal: '31'
        :rule: ''
        :name: '--DRVFL'
        :prefixed: true
        :description: Used to indicate a derived record (e.g., a record that represents
          the average of other records such as a computed baseline). Should be Y or
          null.
        :datatype:
          :type: http://www.assero.co.uk/BusinessDomain#VariableType
          :id: ''
          :namespace: ''
          :label: Char
          :extension_properties: []
        :classification:
          :type: http://www.assero.co.uk/BusinessDomain#VariableClassification
          :id: ''
          :namespace: ''
          :label: Qualifier
          :extension_properties: []
        :sub_classification:
          :type: http://www.assero.co.uk/BusinessDomain#VariableClassification
          :id: ''
          :namespace: ''
          :label: Record Qualifier
          :extension_properties: []
      - :type: http://www.assero.co.uk/BusinessDomain#ModelVariable
        :id: ''
        :namespace: ''
        :label: Evaluator
        :extension_properties: []
        :ordinal: '32'
        :rule: ''
        :name: '--EVAL'
        :prefixed: true
        :description: 'Role of the person who provided the evaluation. Used only for
          results that are subjective (e.g., assigned by a person or a group). Examples:
          ADJUDICATION COMMITTEE, VENDOR.'
        :datatype:
          :type: http://www.assero.co.uk/BusinessDomain#VariableType
          :id: ''
          :namespace: ''
          :label: Char
          :extension_properties: []
        :classification:
          :type: http://www.assero.co.uk/BusinessDomain#VariableClassification
          :id: ''
          :namespace: ''
          :label: Qualifier
          :extension_properties: []
        :sub_classification:
          :type: http://www.assero.co.uk/BusinessDomain#VariableClassification
          :id: ''
          :namespace: ''
          :label: Record Qualifier
          :extension_properties: []
      - :type: http://www.assero.co.uk/BusinessDomain#ModelVariable
        :id: ''
        :namespace: ''
        :label: Toxicity
        :extension_properties: []
        :ordinal: '33'
        :rule: ''
        :name: '--TOX'
        :prefixed: true
        :description: 'Description of toxicity quantified by --TOXGR such as NCI CTCAE
          Short Name. Examples: HYPERCALCEMIA, HYPOCALCEMIA. Sponsor should specify
          which scale and version is used in the Sponsor Comments column of the Define.xml
          document.'
        :datatype:
          :type: http://www.assero.co.uk/BusinessDomain#VariableType
          :id: ''
          :namespace: ''
          :label: Char
          :extension_properties: []
        :classification:
          :type: http://www.assero.co.uk/BusinessDomain#VariableClassification
          :id: ''
          :namespace: ''
          :label: Qualifier
          :extension_properties: []
        :sub_classification:
          :type: http://www.assero.co.uk/BusinessDomain#VariableClassification
          :id: ''
          :namespace: ''
          :label: Variable Qualifier
          :extension_properties: []
      - :type: http://www.assero.co.uk/BusinessDomain#ModelVariable
        :id: ''
        :namespace: ''
        :label: Toxicity Grade
        :extension_properties: []
        :ordinal: '34'
        :rule: ''
        :name: '--TOXGR'
        :prefixed: true
        :description: Records toxicity grade using a standard toxicity scale (such
          as the NCI CTCAE). Sponsor should specify which scale and version is used
          in the Sponsor Comments column of the Define.xml document.
        :datatype:
          :type: http://www.assero.co.uk/BusinessDomain#VariableType
          :id: ''
          :namespace: ''
          :label: Char
          :extension_properties: []
        :classification:
          :type: http://www.assero.co.uk/BusinessDomain#VariableClassification
          :id: ''
          :namespace: ''
          :label: Qualifier
          :extension_properties: []
        :sub_classification:
          :type: http://www.assero.co.uk/BusinessDomain#VariableClassification
          :id: ''
          :namespace: ''
          :label: Variable Qualifier
          :extension_properties: []
      - :type: http://www.assero.co.uk/BusinessDomain#ModelVariable
        :id: ''
        :namespace: ''
        :label: Severity
        :extension_properties: []
        :ordinal: '35'
        :rule: ''
        :name: '--SEV'
        :prefixed: true
        :description: 'Describes the severity or intensity of a particular finding.
          Examples: MILD, MODERATE, SEVERE.'
        :datatype:
          :type: http://www.assero.co.uk/BusinessDomain#VariableType
          :id: ''
          :namespace: ''
          :label: Char
          :extension_properties: []
        :classification:
          :type: http://www.assero.co.uk/BusinessDomain#VariableClassification
          :id: ''
          :namespace: ''
          :label: Qualifier
          :extension_properties: []
        :sub_classification:
          :type: http://www.assero.co.uk/BusinessDomain#VariableClassification
          :id: ''
          :namespace: ''
          :label: Record Qualifier
          :extension_properties: []
      - :type: http://www.assero.co.uk/BusinessDomain#ModelVariable
        :id: ''
        :namespace: ''
        :label: Relationship to Death
        :extension_properties: []
        :ordinal: '36'
        :rule: ''
        :name: '--DTHREL'
        :prefixed: true
        :description: Describes the relationship of a particular finding to the death
          of a subject.
        :datatype:
          :type: http://www.assero.co.uk/BusinessDomain#VariableType
          :id: ''
          :namespace: ''
          :label: Char
          :extension_properties: []
        :classification:
          :type: http://www.assero.co.uk/BusinessDomain#VariableClassification
          :id: ''
          :namespace: ''
          :label: Qualifier
          :extension_properties: []
        :sub_classification:
          :type: http://www.assero.co.uk/BusinessDomain#VariableClassification
          :id: ''
          :namespace: ''
          :label: Record Qualifier
          :extension_properties: []
      - :type: http://www.assero.co.uk/BusinessDomain#ModelVariable
        :id: ''
        :namespace: ''
        :label: Lower Limit of Quantitation
        :extension_properties: []
        :ordinal: '37'
        :rule: ''
        :name: '--LLOQ'
        :prefixed: true
        :description: Indicates the lower limit of quantitation for an assay. Units
          will be those used for --STRESU.
        :datatype:
          :type: http://www.assero.co.uk/BusinessDomain#VariableType
          :id: ''
          :namespace: ''
          :label: Num
          :extension_properties: []
        :classification:
          :type: http://www.assero.co.uk/BusinessDomain#VariableClassification
          :id: ''
          :namespace: ''
          :label: Qualifier
          :extension_properties: []
        :sub_classification:
          :type: http://www.assero.co.uk/BusinessDomain#VariableClassification
          :id: ''
          :namespace: ''
          :label: Variable Qualifier
          :extension_properties: []
      - :type: http://www.assero.co.uk/BusinessDomain#ModelVariable
        :id: ''
        :namespace: ''
        :label: Object of the Observation
        :extension_properties: []
        :ordinal: '1'
        :rule: ''
        :name: '--OBJ'
        :prefixed: true
        :description: 'Used in domains modeled as Findings About Events or Findings
          About Interventions. Describes the event or intervention whose property
          is being measured in --TESTCD/--TEST. Example: an event of vomiting which
          has findings, where --OBJ = ''VOMIT'' and the volume of VOMIT is being measured
          where --TESTCD = ''VOLUME''.'
        :datatype:
          :type: http://www.assero.co.uk/BusinessDomain#VariableType
          :id: ''
          :namespace: ''
          :label: Char
          :extension_properties: []
        :classification:
          :type: http://www.assero.co.uk/BusinessDomain#VariableClassification
          :id: ''
          :namespace: ''
          :label: Qualifier
          :extension_properties: []
        :sub_classification:
          :type: http://www.assero.co.uk/BusinessDomain#VariableClassification
          :id: ''
          :namespace: ''
          :label: Record Qualifier
          :extension_properties: []
      - :type: http://www.assero.co.uk/BusinessDomain#ModelVariable
        :id: ''
        :namespace: ''
        :label: Name of Treatment
        :extension_properties: []
        :ordinal: '1'
        :rule: ''
        :name: '--TRT'
        :prefixed: true
        :description: The topic for the intervention observation, usually the verbatim
          name of the treatment, drug, medicine, or therapy given during the dosing
          interval for the observation.
        :datatype:
          :type: http://www.assero.co.uk/BusinessDomain#VariableType
          :id: ''
          :namespace: ''
          :label: Char
          :extension_properties: []
        :classification:
          :type: http://www.assero.co.uk/BusinessDomain#VariableClassification
          :id: ''
          :namespace: ''
          :label: Topic
          :extension_properties: []
        :sub_classification:
          :type: http://www.assero.co.uk/BusinessDomain#VariableClassification
          :id: ''
          :namespace: ''
          :label: Not Applicable
          :extension_properties: []
      - :type: http://www.assero.co.uk/BusinessDomain#ModelVariable
        :id: ''
        :namespace: ''
        :label: Modified Treatment Name
        :extension_properties: []
        :ordinal: '2'
        :rule: ''
        :name: '--MODIFY'
        :prefixed: true
        :description: If the value for --TRT is modified for coding purposes, then
          the modified text is placed here.
        :datatype:
          :type: http://www.assero.co.uk/BusinessDomain#VariableType
          :id: ''
          :namespace: ''
          :label: Char
          :extension_properties: []
        :classification:
          :type: http://www.assero.co.uk/BusinessDomain#VariableClassification
          :id: ''
          :namespace: ''
          :label: Qualifier
          :extension_properties: []
        :sub_classification:
          :type: http://www.assero.co.uk/BusinessDomain#VariableClassification
          :id: ''
          :namespace: ''
          :label: Synonym Qualifier
          :extension_properties: []
      - :type: http://www.assero.co.uk/BusinessDomain#ModelVariable
        :id: ''
        :namespace: ''
        :label: Standardized Treatment Name
        :extension_properties: []
        :ordinal: '3'
        :rule: ''
        :name: '--DECOD'
        :prefixed: true
        :description: Standardized or dictionary-derived name of the topic variable,
          --TRT, or the modified topic variable (--MODIFY), if applicable. Equivalent
          to the generic drug name in WHO Drug, or a term in SNOMED, ICD9, or other
          published or sponsor-defined dictionaries.
        :datatype:
          :type: http://www.assero.co.uk/BusinessDomain#VariableType
          :id: ''
          :namespace: ''
          :label: Char
          :extension_properties: []
        :classification:
          :type: http://www.assero.co.uk/BusinessDomain#VariableClassification
          :id: ''
          :namespace: ''
          :label: Qualifier
          :extension_properties: []
        :sub_classification:
          :type: http://www.assero.co.uk/BusinessDomain#VariableClassification
          :id: ''
          :namespace: ''
          :label: Synonym Qualifier
          :extension_properties: []
      - :type: http://www.assero.co.uk/BusinessDomain#ModelVariable
        :id: ''
        :namespace: ''
        :label: Category
        :extension_properties: []
        :ordinal: '4'
        :rule: ''
        :name: '--CAT'
        :prefixed: true
        :description: 'Used to define a category of topic-variable values. Examples:
          HEMATOLOGY, URINALYSIS, CHEMISTRY, HAMILTON DEPRESSION SCALE, SF36.'
        :datatype:
          :type: http://www.assero.co.uk/BusinessDomain#VariableType
          :id: ''
          :namespace: ''
          :label: Char
          :extension_properties: []
        :classification:
          :type: http://www.assero.co.uk/BusinessDomain#VariableClassification
          :id: ''
          :namespace: ''
          :label: Qualifier
          :extension_properties: []
        :sub_classification:
          :type: http://www.assero.co.uk/BusinessDomain#VariableClassification
          :id: ''
          :namespace: ''
          :label: Grouping Qualifier
          :extension_properties: []
      - :type: http://www.assero.co.uk/BusinessDomain#ModelVariable
        :id: ''
        :namespace: ''
        :label: Subcategory
        :extension_properties: []
        :ordinal: '5'
        :rule: ''
        :name: '--SCAT'
        :prefixed: true
        :description: Used to define a further categorization of --CAT values.
        :datatype:
          :type: http://www.assero.co.uk/BusinessDomain#VariableType
          :id: ''
          :namespace: ''
          :label: Char
          :extension_properties: []
        :classification:
          :type: http://www.assero.co.uk/BusinessDomain#VariableClassification
          :id: ''
          :namespace: ''
          :label: Qualifier
          :extension_properties: []
        :sub_classification:
          :type: http://www.assero.co.uk/BusinessDomain#VariableClassification
          :id: ''
          :namespace: ''
          :label: Grouping Qualifier
          :extension_properties: []
      - :type: http://www.assero.co.uk/BusinessDomain#ModelVariable
        :id: ''
        :namespace: ''
        :label: Pre-specified
        :extension_properties: []
        :ordinal: '6'
        :rule: ''
        :name: '--PRESP'
        :prefixed: true
        :description: Used when a specific intervention is pre-specified on a CRF.
          Values should be 'Y' or null.
        :datatype:
          :type: http://www.assero.co.uk/BusinessDomain#VariableType
          :id: ''
          :namespace: ''
          :label: Char
          :extension_properties: []
        :classification:
          :type: http://www.assero.co.uk/BusinessDomain#VariableClassification
          :id: ''
          :namespace: ''
          :label: Qualifier
          :extension_properties: []
        :sub_classification:
          :type: http://www.assero.co.uk/BusinessDomain#VariableClassification
          :id: ''
          :namespace: ''
          :label: Record Qualifier
          :extension_properties: []
      - :type: http://www.assero.co.uk/BusinessDomain#ModelVariable
        :id: ''
        :namespace: ''
        :label: Occurrence
        :extension_properties: []
        :ordinal: '7'
        :rule: ''
        :name: '--OCCUR'
        :prefixed: true
        :description: Used to record whether a pre-specified event occurred when information
          about the occurrence of a specific event is solicited.
        :datatype:
          :type: http://www.assero.co.uk/BusinessDomain#VariableType
          :id: ''
          :namespace: ''
          :label: Char
          :extension_properties: []
        :classification:
          :type: http://www.assero.co.uk/BusinessDomain#VariableClassification
          :id: ''
          :namespace: ''
          :label: Qualifier
          :extension_properties: []
        :sub_classification:
          :type: http://www.assero.co.uk/BusinessDomain#VariableClassification
          :id: ''
          :namespace: ''
          :label: Record Qualifier
          :extension_properties: []
      - :type: http://www.assero.co.uk/BusinessDomain#ModelVariable
        :id: ''
        :namespace: ''
        :label: Completion Status
        :extension_properties: []
        :ordinal: '8'
        :rule: ''
        :name: '--STAT'
        :prefixed: true
        :description: Used to indicate when a question about the occurrence of a pre-specified
          event was not answered. Should be null or have a value of NOT DONE.
        :datatype:
          :type: http://www.assero.co.uk/BusinessDomain#VariableType
          :id: ''
          :namespace: ''
          :label: Char
          :extension_properties: []
        :classification:
          :type: http://www.assero.co.uk/BusinessDomain#VariableClassification
          :id: ''
          :namespace: ''
          :label: Qualifier
          :extension_properties: []
        :sub_classification:
          :type: http://www.assero.co.uk/BusinessDomain#VariableClassification
          :id: ''
          :namespace: ''
          :label: Record Qualifier
          :extension_properties: []
      - :type: http://www.assero.co.uk/BusinessDomain#ModelVariable
        :id: ''
        :namespace: ''
        :label: Reason Not Done
        :extension_properties: []
        :ordinal: '9'
        :rule: ''
        :name: '--REASND'
        :prefixed: true
        :description: Reason not done. Used in conjunction with --STAT when value
          is NOT DONE.
        :datatype:
          :type: http://www.assero.co.uk/BusinessDomain#VariableType
          :id: ''
          :namespace: ''
          :label: Char
          :extension_properties: []
        :classification:
          :type: http://www.assero.co.uk/BusinessDomain#VariableClassification
          :id: ''
          :namespace: ''
          :label: Qualifier
          :extension_properties: []
        :sub_classification:
          :type: http://www.assero.co.uk/BusinessDomain#VariableClassification
          :id: ''
          :namespace: ''
          :label: Record Qualifier
          :extension_properties: []
      - :type: http://www.assero.co.uk/BusinessDomain#ModelVariable
        :id: ''
        :namespace: ''
        :label: Indication
        :extension_properties: []
        :ordinal: '10'
        :rule: ''
        :name: '--INDC'
        :prefixed: true
        :description: Denotes the indication for the intervention (e.g., why the therapy
          was taken or administered).
        :datatype:
          :type: http://www.assero.co.uk/BusinessDomain#VariableType
          :id: ''
          :namespace: ''
          :label: Char
          :extension_properties: []
        :classification:
          :type: http://www.assero.co.uk/BusinessDomain#VariableClassification
          :id: ''
          :namespace: ''
          :label: Qualifier
          :extension_properties: []
        :sub_classification:
          :type: http://www.assero.co.uk/BusinessDomain#VariableClassification
          :id: ''
          :namespace: ''
          :label: Record Qualifier
          :extension_properties: []
      - :type: http://www.assero.co.uk/BusinessDomain#ModelVariable
        :id: ''
        :namespace: ''
        :label: Class
        :extension_properties: []
        :ordinal: '11'
        :rule: ''
        :name: '--CLAS'
        :prefixed: true
        :description: Class for a medication or treatment, often obtained from a coding
          dictionary.
        :datatype:
          :type: http://www.assero.co.uk/BusinessDomain#VariableType
          :id: ''
          :namespace: ''
          :label: Char
          :extension_properties: []
        :classification:
          :type: http://www.assero.co.uk/BusinessDomain#VariableClassification
          :id: ''
          :namespace: ''
          :label: Qualifier
          :extension_properties: []
        :sub_classification:
          :type: http://www.assero.co.uk/BusinessDomain#VariableClassification
          :id: ''
          :namespace: ''
          :label: Variable Qualifier
          :extension_properties: []
      - :type: http://www.assero.co.uk/BusinessDomain#ModelVariable
        :id: ''
        :namespace: ''
        :label: Class Code
        :extension_properties: []
        :ordinal: '12'
        :rule: ''
        :name: '--CLASCD'
        :prefixed: true
        :description: Used to represent code for --CLAS.
        :datatype:
          :type: http://www.assero.co.uk/BusinessDomain#VariableType
          :id: ''
          :namespace: ''
          :label: Char
          :extension_properties: []
        :classification:
          :type: http://www.assero.co.uk/BusinessDomain#VariableClassification
          :id: ''
          :namespace: ''
          :label: Qualifier
          :extension_properties: []
        :sub_classification:
          :type: http://www.assero.co.uk/BusinessDomain#VariableClassification
          :id: ''
          :namespace: ''
          :label: Variable Qualifier
          :extension_properties: []
      - :type: http://www.assero.co.uk/BusinessDomain#ModelVariable
        :id: ''
        :namespace: ''
        :label: Dose
        :extension_properties: []
        :ordinal: '13'
        :rule: ''
        :name: '--DOSE'
        :prefixed: true
        :description: Amount of --TRT given. Not populated when --DOSTXT is populated.
        :datatype:
          :type: http://www.assero.co.uk/BusinessDomain#VariableType
          :id: ''
          :namespace: ''
          :label: Num
          :extension_properties: []
        :classification:
          :type: http://www.assero.co.uk/BusinessDomain#VariableClassification
          :id: ''
          :namespace: ''
          :label: Qualifier
          :extension_properties: []
        :sub_classification:
          :type: http://www.assero.co.uk/BusinessDomain#VariableClassification
          :id: ''
          :namespace: ''
          :label: Record Qualifier
          :extension_properties: []
      - :type: http://www.assero.co.uk/BusinessDomain#ModelVariable
        :id: ''
        :namespace: ''
        :label: Dose Description
        :extension_properties: []
        :ordinal: '14'
        :rule: ''
        :name: '--DOSTXT'
        :prefixed: true
        :description: 'Dosing information collected in text form. Examples: <1 per
          day, 200-400. Not populated when --DOSE is populated.'
        :datatype:
          :type: http://www.assero.co.uk/BusinessDomain#VariableType
          :id: ''
          :namespace: ''
          :label: Char
          :extension_properties: []
        :classification:
          :type: http://www.assero.co.uk/BusinessDomain#VariableClassification
          :id: ''
          :namespace: ''
          :label: Qualifier
          :extension_properties: []
        :sub_classification:
          :type: http://www.assero.co.uk/BusinessDomain#VariableClassification
          :id: ''
          :namespace: ''
          :label: Record Qualifier
          :extension_properties: []
      - :type: http://www.assero.co.uk/BusinessDomain#ModelVariable
        :id: ''
        :namespace: ''
        :label: Dose Units
        :extension_properties: []
        :ordinal: '15'
        :rule: ''
        :name: '--DOSU'
        :prefixed: true
        :description: 'Units for --DOSE, --DOSTOT, or --DOSTXT (Examples: ng, mg,
          mg/kg).'
        :datatype:
          :type: http://www.assero.co.uk/BusinessDomain#VariableType
          :id: ''
          :namespace: ''
          :label: Char
          :extension_properties: []
        :classification:
          :type: http://www.assero.co.uk/BusinessDomain#VariableClassification
          :id: ''
          :namespace: ''
          :label: Qualifier
          :extension_properties: []
        :sub_classification:
          :type: http://www.assero.co.uk/BusinessDomain#VariableClassification
          :id: ''
          :namespace: ''
          :label: Variable Qualifier
          :extension_properties: []
      - :type: http://www.assero.co.uk/BusinessDomain#ModelVariable
        :id: ''
        :namespace: ''
        :label: Dose Form
        :extension_properties: []
        :ordinal: '16'
        :rule: ''
        :name: '--DOSFRM'
        :prefixed: true
        :description: 'Dose form for the treatment. Examples: TABLET, CAPSULE.'
        :datatype:
          :type: http://www.assero.co.uk/BusinessDomain#VariableType
          :id: ''
          :namespace: ''
          :label: Char
          :extension_properties: []
        :classification:
          :type: http://www.assero.co.uk/BusinessDomain#VariableClassification
          :id: ''
          :namespace: ''
          :label: Qualifier
          :extension_properties: []
        :sub_classification:
          :type: http://www.assero.co.uk/BusinessDomain#VariableClassification
          :id: ''
          :namespace: ''
          :label: Variable Qualifier
          :extension_properties: []
      - :type: http://www.assero.co.uk/BusinessDomain#ModelVariable
        :id: ''
        :namespace: ''
        :label: Dosing Frequency per Interval
        :extension_properties: []
        :ordinal: '17'
        :rule: ''
        :name: '--DOSFRQ'
        :prefixed: true
        :description: 'Usually expressed as the number of doses given per a specific
          interval. Examples: QD, BID, TID, QID.'
        :datatype:
          :type: http://www.assero.co.uk/BusinessDomain#VariableType
          :id: ''
          :namespace: ''
          :label: Char
          :extension_properties: []
        :classification:
          :type: http://www.assero.co.uk/BusinessDomain#VariableClassification
          :id: ''
          :namespace: ''
          :label: Qualifier
          :extension_properties: []
        :sub_classification:
          :type: http://www.assero.co.uk/BusinessDomain#VariableClassification
          :id: ''
          :namespace: ''
          :label: Variable Qualifier
          :extension_properties: []
      - :type: http://www.assero.co.uk/BusinessDomain#ModelVariable
        :id: ''
        :namespace: ''
        :label: Total Daily Dose
        :extension_properties: []
        :ordinal: '18'
        :rule: ''
        :name: '--DOSTOT'
        :prefixed: true
        :description: Total daily dose of --TRT using the units in --DOSU. Used when
          dosing is collected as Total Daily Dose.
        :datatype:
          :type: http://www.assero.co.uk/BusinessDomain#VariableType
          :id: ''
          :namespace: ''
          :label: Num
          :extension_properties: []
        :classification:
          :type: http://www.assero.co.uk/BusinessDomain#VariableClassification
          :id: ''
          :namespace: ''
          :label: Qualifier
          :extension_properties: []
        :sub_classification:
          :type: http://www.assero.co.uk/BusinessDomain#VariableClassification
          :id: ''
          :namespace: ''
          :label: Record Qualifier
          :extension_properties: []
      - :type: http://www.assero.co.uk/BusinessDomain#ModelVariable
        :id: ''
        :namespace: ''
        :label: Intended Dose Regimen
        :extension_properties: []
        :ordinal: '19'
        :rule: ''
        :name: '--DOSRGM'
        :prefixed: true
        :description: 'Text description of the (intended) schedule or regimen for
          the Intervention. Examples: TWO WEEKS ON, TWO WEEKS OFF.'
        :datatype:
          :type: http://www.assero.co.uk/BusinessDomain#VariableType
          :id: ''
          :namespace: ''
          :label: Char
          :extension_properties: []
        :classification:
          :type: http://www.assero.co.uk/BusinessDomain#VariableClassification
          :id: ''
          :namespace: ''
          :label: Qualifier
          :extension_properties: []
        :sub_classification:
          :type: http://www.assero.co.uk/BusinessDomain#VariableClassification
          :id: ''
          :namespace: ''
          :label: Variable Qualifier
          :extension_properties: []
      - :type: http://www.assero.co.uk/BusinessDomain#ModelVariable
        :id: ''
        :namespace: ''
        :label: Route of Administration
        :extension_properties: []
        :ordinal: '20'
        :rule: ''
        :name: '--ROUTE'
        :prefixed: true
        :description: 'Route of administration for the intervention. Examples: ORAL,
          INTRAVENOUS.'
        :datatype:
          :type: http://www.assero.co.uk/BusinessDomain#VariableType
          :id: ''
          :namespace: ''
          :label: Char
          :extension_properties: []
        :classification:
          :type: http://www.assero.co.uk/BusinessDomain#VariableClassification
          :id: ''
          :namespace: ''
          :label: Qualifier
          :extension_properties: []
        :sub_classification:
          :type: http://www.assero.co.uk/BusinessDomain#VariableClassification
          :id: ''
          :namespace: ''
          :label: Variable Qualifier
          :extension_properties: []
      - :type: http://www.assero.co.uk/BusinessDomain#ModelVariable
        :id: ''
        :namespace: ''
        :label: Lot Number
        :extension_properties: []
        :ordinal: '21'
        :rule: ''
        :name: '--LOT'
        :prefixed: true
        :description: Lot number for the intervention described in --TRT.
        :datatype:
          :type: http://www.assero.co.uk/BusinessDomain#VariableType
          :id: ''
          :namespace: ''
          :label: Char
          :extension_properties: []
        :classification:
          :type: http://www.assero.co.uk/BusinessDomain#VariableClassification
          :id: ''
          :namespace: ''
          :label: Qualifier
          :extension_properties: []
        :sub_classification:
          :type: http://www.assero.co.uk/BusinessDomain#VariableClassification
          :id: ''
          :namespace: ''
          :label: Record Qualifier
          :extension_properties: []
      - :type: http://www.assero.co.uk/BusinessDomain#ModelVariable
        :id: ''
        :namespace: ''
        :label: Location of Dose Administration
        :extension_properties: []
        :ordinal: '22'
        :rule: ''
        :name: '--LOC'
        :prefixed: true
        :description: 'Anatomical location of an intervention, such as an injection
          site. Example: RIGHT ARM for an injection.'
        :datatype:
          :type: http://www.assero.co.uk/BusinessDomain#VariableType
          :id: ''
          :namespace: ''
          :label: Char
          :extension_properties: []
        :classification:
          :type: http://www.assero.co.uk/BusinessDomain#VariableClassification
          :id: ''
          :namespace: ''
          :label: Qualifier
          :extension_properties: []
        :sub_classification:
          :type: http://www.assero.co.uk/BusinessDomain#VariableClassification
          :id: ''
          :namespace: ''
          :label: Record Qualifier
          :extension_properties: []
      - :type: http://www.assero.co.uk/BusinessDomain#ModelVariable
        :id: ''
        :namespace: ''
        :label: Treatment Vehicle
        :extension_properties: []
        :ordinal: '23'
        :rule: ''
        :name: '--TRTV'
        :prefixed: true
        :description: 'Vehicle for administration of treatment, such as a liquid in
          which the treatment drug is dissolved. Example: SALINE.'
        :datatype:
          :type: http://www.assero.co.uk/BusinessDomain#VariableType
          :id: ''
          :namespace: ''
          :label: Char
          :extension_properties: []
        :classification:
          :type: http://www.assero.co.uk/BusinessDomain#VariableClassification
          :id: ''
          :namespace: ''
          :label: Qualifier
          :extension_properties: []
        :sub_classification:
          :type: http://www.assero.co.uk/BusinessDomain#VariableClassification
          :id: ''
          :namespace: ''
          :label: Record Qualifier
          :extension_properties: []
      - :type: http://www.assero.co.uk/BusinessDomain#ModelVariable
        :id: ''
        :namespace: ''
        :label: Treatment Vehicle Amount
        :extension_properties: []
        :ordinal: '24'
        :rule: ''
        :name: '--VAMT'
        :prefixed: true
        :description: Amount of the treatment vehicle administered or given.
        :datatype:
          :type: http://www.assero.co.uk/BusinessDomain#VariableType
          :id: ''
          :namespace: ''
          :label: Num
          :extension_properties: []
        :classification:
          :type: http://www.assero.co.uk/BusinessDomain#VariableClassification
          :id: ''
          :namespace: ''
          :label: Qualifier
          :extension_properties: []
        :sub_classification:
          :type: http://www.assero.co.uk/BusinessDomain#VariableClassification
          :id: ''
          :namespace: ''
          :label: Record Qualifier
          :extension_properties: []
      - :type: http://www.assero.co.uk/BusinessDomain#ModelVariable
        :id: ''
        :namespace: ''
        :label: Treatment Vehicle Amount Units
        :extension_properties: []
        :ordinal: '25'
        :rule: ''
        :name: '--VAMTU'
        :prefixed: true
        :description: 'Units for the treatment vehicle. Examples: mL, mg.'
        :datatype:
          :type: http://www.assero.co.uk/BusinessDomain#VariableType
          :id: ''
          :namespace: ''
          :label: Char
          :extension_properties: []
        :classification:
          :type: http://www.assero.co.uk/BusinessDomain#VariableClassification
          :id: ''
          :namespace: ''
          :label: Qualifier
          :extension_properties: []
        :sub_classification:
          :type: http://www.assero.co.uk/BusinessDomain#VariableClassification
          :id: ''
          :namespace: ''
          :label: Variable Qualifier
          :extension_properties: []
      - :type: http://www.assero.co.uk/BusinessDomain#ModelVariable
        :id: ''
        :namespace: ''
        :label: Reason for Dose Adjustment
        :extension_properties: []
        :ordinal: '26'
        :rule: ''
        :name: '--ADJ'
        :prefixed: true
        :description: Describes reason or explanation of why a dose is adjusted. Examples
          ADVERSE EVENT, INSUFFICIENT RESPONSE, NON-MEDICAL REASON.
        :datatype:
          :type: http://www.assero.co.uk/BusinessDomain#VariableType
          :id: ''
          :namespace: ''
          :label: Char
          :extension_properties: []
        :classification:
          :type: http://www.assero.co.uk/BusinessDomain#VariableClassification
          :id: ''
          :namespace: ''
          :label: Qualifier
          :extension_properties: []
        :sub_classification:
          :type: http://www.assero.co.uk/BusinessDomain#VariableClassification
          :id: ''
          :namespace: ''
          :label: Record Qualifier
          :extension_properties: []
      - :type: http://www.assero.co.uk/BusinessDomain#ModelVariable
        :id: ''
        :namespace: ''
        :label: Subject Identifier for the Study
        :extension_properties: []
        :ordinal: '1'
        :rule: ''
        :name: SUBJID
        :prefixed: false
        :description: Subject identifier, which must be unique within the study. Often
          the ID of the subject as recorded on a CRF.
        :datatype:
          :type: http://www.assero.co.uk/BusinessDomain#VariableType
          :id: ''
          :namespace: ''
          :label: Char
          :extension_properties: []
        :classification:
          :type: http://www.assero.co.uk/BusinessDomain#VariableClassification
          :id: ''
          :namespace: ''
          :label: Topic
          :extension_properties: []
        :sub_classification:
          :type: http://www.assero.co.uk/BusinessDomain#VariableClassification
          :id: ''
          :namespace: ''
          :label: Not Applicable
          :extension_properties: []
      - :type: http://www.assero.co.uk/BusinessDomain#ModelVariable
        :id: ''
        :namespace: ''
        :label: Subject Reference Start Date/Time
        :extension_properties: []
        :ordinal: '2'
        :rule: ''
        :name: RFSTDTC
        :prefixed: false
        :description: Reference Start Date/time for the subject in ISO 8601 character
          format. Usually equivalent to date/time when subject was first exposed to
          study treatment. Required for all randomized subjects; will be null for
          all subjects who did not meet the milestone the date requires, such as screen
          failures or unassigned subjects.
        :datatype:
          :type: http://www.assero.co.uk/BusinessDomain#VariableType
          :id: ''
          :namespace: ''
          :label: Char
          :extension_properties: []
        :classification:
          :type: http://www.assero.co.uk/BusinessDomain#VariableClassification
          :id: ''
          :namespace: ''
          :label: Qualifier
          :extension_properties: []
        :sub_classification:
          :type: http://www.assero.co.uk/BusinessDomain#VariableClassification
          :id: ''
          :namespace: ''
          :label: Record Qualifier
          :extension_properties: []
      - :type: http://www.assero.co.uk/BusinessDomain#ModelVariable
        :id: ''
        :namespace: ''
        :label: Subject Reference End Date/Time
        :extension_properties: []
        :ordinal: '3'
        :rule: ''
        :name: RFENDTC
        :prefixed: false
        :description: Reference End Date/time for the subject in ISO 8601 character
          format. Usually equivalent to the date/time when subject was determined
          to have ended the trial, and often equivalent to date/time of last exposure
          to study treatment. Required for all randomized subjects; null for screen
          failures or unassigned subjects.
        :datatype:
          :type: http://www.assero.co.uk/BusinessDomain#VariableType
          :id: ''
          :namespace: ''
          :label: Char
          :extension_properties: []
        :classification:
          :type: http://www.assero.co.uk/BusinessDomain#VariableClassification
          :id: ''
          :namespace: ''
          :label: Qualifier
          :extension_properties: []
        :sub_classification:
          :type: http://www.assero.co.uk/BusinessDomain#VariableClassification
          :id: ''
          :namespace: ''
          :label: Record Qualifier
          :extension_properties: []
      - :type: http://www.assero.co.uk/BusinessDomain#ModelVariable
        :id: ''
        :namespace: ''
        :label: Study Site Identifier
        :extension_properties: []
        :ordinal: '4'
        :rule: ''
        :name: SITEID
        :prefixed: false
        :description: Unique identifier for a site within a study.
        :datatype:
          :type: http://www.assero.co.uk/BusinessDomain#VariableType
          :id: ''
          :namespace: ''
          :label: Char
          :extension_properties: []
        :classification:
          :type: http://www.assero.co.uk/BusinessDomain#VariableClassification
          :id: ''
          :namespace: ''
          :label: Qualifier
          :extension_properties: []
        :sub_classification:
          :type: http://www.assero.co.uk/BusinessDomain#VariableClassification
          :id: ''
          :namespace: ''
          :label: Record Qualifier
          :extension_properties: []
      - :type: http://www.assero.co.uk/BusinessDomain#ModelVariable
        :id: ''
        :namespace: ''
        :label: Investigator Identifier
        :extension_properties: []
        :ordinal: '5'
        :rule: ''
        :name: INVID
        :prefixed: false
        :description: An identifier to describe the Investigator for the study. May
          be used in addition to the SITEID. Not needed if SITEID is equivalent to
          INVID.
        :datatype:
          :type: http://www.assero.co.uk/BusinessDomain#VariableType
          :id: ''
          :namespace: ''
          :label: Char
          :extension_properties: []
        :classification:
          :type: http://www.assero.co.uk/BusinessDomain#VariableClassification
          :id: ''
          :namespace: ''
          :label: Qualifier
          :extension_properties: []
        :sub_classification:
          :type: http://www.assero.co.uk/BusinessDomain#VariableClassification
          :id: ''
          :namespace: ''
          :label: Record Qualifier
          :extension_properties: []
      - :type: http://www.assero.co.uk/BusinessDomain#ModelVariable
        :id: ''
        :namespace: ''
        :label: Investigator Name
        :extension_properties: []
        :ordinal: '6'
        :rule: ''
        :name: INVNAM
        :prefixed: false
        :description: Name of the investigator for a site.
        :datatype:
          :type: http://www.assero.co.uk/BusinessDomain#VariableType
          :id: ''
          :namespace: ''
          :label: Char
          :extension_properties: []
        :classification:
          :type: http://www.assero.co.uk/BusinessDomain#VariableClassification
          :id: ''
          :namespace: ''
          :label: Qualifier
          :extension_properties: []
        :sub_classification:
          :type: http://www.assero.co.uk/BusinessDomain#VariableClassification
          :id: ''
          :namespace: ''
          :label: Record Qualifier
          :extension_properties: []
      - :type: http://www.assero.co.uk/BusinessDomain#ModelVariable
        :id: ''
        :namespace: ''
        :label: Date/Time of Birth
        :extension_properties: []
        :ordinal: '7'
        :rule: ''
        :name: BRTHDTC
        :prefixed: false
        :description: Date/time of birth of the subject in ISO 8601 character format.
        :datatype:
          :type: http://www.assero.co.uk/BusinessDomain#VariableType
          :id: ''
          :namespace: ''
          :label: Char
          :extension_properties: []
        :classification:
          :type: http://www.assero.co.uk/BusinessDomain#VariableClassification
          :id: ''
          :namespace: ''
          :label: Qualifier
          :extension_properties: []
        :sub_classification:
          :type: http://www.assero.co.uk/BusinessDomain#VariableClassification
          :id: ''
          :namespace: ''
          :label: Record Qualifier
          :extension_properties: []
      - :type: http://www.assero.co.uk/BusinessDomain#ModelVariable
        :id: ''
        :namespace: ''
        :label: Age
        :extension_properties: []
        :ordinal: '8'
        :rule: ''
        :name: AGE
        :prefixed: false
        :description: Age expressed in AGEU
        :datatype:
          :type: http://www.assero.co.uk/BusinessDomain#VariableType
          :id: ''
          :namespace: ''
          :label: Num
          :extension_properties: []
        :classification:
          :type: http://www.assero.co.uk/BusinessDomain#VariableClassification
          :id: ''
          :namespace: ''
          :label: Qualifier
          :extension_properties: []
        :sub_classification:
          :type: http://www.assero.co.uk/BusinessDomain#VariableClassification
          :id: ''
          :namespace: ''
          :label: Record Qualifier
          :extension_properties: []
      - :type: http://www.assero.co.uk/BusinessDomain#ModelVariable
        :id: ''
        :namespace: ''
        :label: Age Units
        :extension_properties: []
        :ordinal: '9'
        :rule: ''
        :name: AGEU
        :prefixed: false
        :description: Units associated with AGE.
        :datatype:
          :type: http://www.assero.co.uk/BusinessDomain#VariableType
          :id: ''
          :namespace: ''
          :label: Char
          :extension_properties: []
        :classification:
          :type: http://www.assero.co.uk/BusinessDomain#VariableClassification
          :id: ''
          :namespace: ''
          :label: Qualifier
          :extension_properties: []
        :sub_classification:
          :type: http://www.assero.co.uk/BusinessDomain#VariableClassification
          :id: ''
          :namespace: ''
          :label: Record Qualifier
          :extension_properties: []
      - :type: http://www.assero.co.uk/BusinessDomain#ModelVariable
        :id: ''
        :namespace: ''
        :label: Sex
        :extension_properties: []
        :ordinal: '10'
        :rule: ''
        :name: SEX
        :prefixed: false
        :description: Sex of the subject.
        :datatype:
          :type: http://www.assero.co.uk/BusinessDomain#VariableType
          :id: ''
          :namespace: ''
          :label: Char
          :extension_properties: []
        :classification:
          :type: http://www.assero.co.uk/BusinessDomain#VariableClassification
          :id: ''
          :namespace: ''
          :label: Qualifier
          :extension_properties: []
        :sub_classification:
          :type: http://www.assero.co.uk/BusinessDomain#VariableClassification
          :id: ''
          :namespace: ''
          :label: Record Qualifier
          :extension_properties: []
      - :type: http://www.assero.co.uk/BusinessDomain#ModelVariable
        :id: ''
        :namespace: ''
        :label: Race
        :extension_properties: []
        :ordinal: '11'
        :rule: ''
        :name: RACE
        :prefixed: false
        :description: Race of the subject. Sponsors should refer to “Collection of
          Race and Ethnicity Data in Clinical Trials” (FDA, September 2005) for guidance
          regarding the collection of race (http://www.fda.gov/cder/guidance/5656fnl.htm)
        :datatype:
          :type: http://www.assero.co.uk/BusinessDomain#VariableType
          :id: ''
          :namespace: ''
          :label: Char
          :extension_properties: []
        :classification:
          :type: http://www.assero.co.uk/BusinessDomain#VariableClassification
          :id: ''
          :namespace: ''
          :label: Qualifier
          :extension_properties: []
        :sub_classification:
          :type: http://www.assero.co.uk/BusinessDomain#VariableClassification
          :id: ''
          :namespace: ''
          :label: Record Qualifier
          :extension_properties: []
      - :type: http://www.assero.co.uk/BusinessDomain#ModelVariable
        :id: ''
        :namespace: ''
        :label: Ethnicity
        :extension_properties: []
        :ordinal: '12'
        :rule: ''
        :name: ETHNIC
        :prefixed: false
        :description: The ethnicity of the subject. Sponsors should refer to “Collection
          of Race and Ethnicity Data in Clinical Trials” (FDA, September 2005) for
          guidance regarding the collection of ethnicity (http://www.fda.gov/cder/guidance/5656fnl.htm).
        :datatype:
          :type: http://www.assero.co.uk/BusinessDomain#VariableType
          :id: ''
          :namespace: ''
          :label: Char
          :extension_properties: []
        :classification:
          :type: http://www.assero.co.uk/BusinessDomain#VariableClassification
          :id: ''
          :namespace: ''
          :label: Qualifier
          :extension_properties: []
        :sub_classification:
          :type: http://www.assero.co.uk/BusinessDomain#VariableClassification
          :id: ''
          :namespace: ''
          :label: Record Qualifier
          :extension_properties: []
      - :type: http://www.assero.co.uk/BusinessDomain#ModelVariable
        :id: ''
        :namespace: ''
        :label: Planned Arm Code
        :extension_properties: []
        :ordinal: '13'
        :rule: ''
        :name: ARMCD
        :prefixed: false
        :description: ARMCD is limited to 20 characters and does not have special
          character restrictions.
        :datatype:
          :type: http://www.assero.co.uk/BusinessDomain#VariableType
          :id: ''
          :namespace: ''
          :label: Char
          :extension_properties: []
        :classification:
          :type: http://www.assero.co.uk/BusinessDomain#VariableClassification
          :id: ''
          :namespace: ''
          :label: Qualifier
          :extension_properties: []
        :sub_classification:
          :type: http://www.assero.co.uk/BusinessDomain#VariableClassification
          :id: ''
          :namespace: ''
          :label: Record Qualifier
          :extension_properties: []
      - :type: http://www.assero.co.uk/BusinessDomain#ModelVariable
        :id: ''
        :namespace: ''
        :label: Description of Planned Arm
        :extension_properties: []
        :ordinal: '14'
        :rule: ''
        :name: ARM
        :prefixed: false
        :description: Name of the Arm to which the subject was assigned.
        :datatype:
          :type: http://www.assero.co.uk/BusinessDomain#VariableType
          :id: ''
          :namespace: ''
          :label: Char
          :extension_properties: []
        :classification:
          :type: http://www.assero.co.uk/BusinessDomain#VariableClassification
          :id: ''
          :namespace: ''
          :label: Qualifier
          :extension_properties: []
        :sub_classification:
          :type: http://www.assero.co.uk/BusinessDomain#VariableClassification
          :id: ''
          :namespace: ''
          :label: Record Qualifier
          :extension_properties: []
      - :type: http://www.assero.co.uk/BusinessDomain#ModelVariable
        :id: ''
        :namespace: ''
        :label: Country
        :extension_properties: []
        :ordinal: '15'
        :rule: ''
        :name: COUNTRY
        :prefixed: false
        :description: Country of the investigational site at which the subject participated
          in the trial in ISO 3166 three-character format.
        :datatype:
          :type: http://www.assero.co.uk/BusinessDomain#VariableType
          :id: ''
          :namespace: ''
          :label: Char
          :extension_properties: []
        :classification:
          :type: http://www.assero.co.uk/BusinessDomain#VariableClassification
          :id: ''
          :namespace: ''
          :label: Qualifier
          :extension_properties: []
        :sub_classification:
          :type: http://www.assero.co.uk/BusinessDomain#VariableClassification
          :id: ''
          :namespace: ''
          :label: Record Qualifier
          :extension_properties: []
      - :type: http://www.assero.co.uk/BusinessDomain#ModelVariable
        :id: ''
        :namespace: ''
        :label: Related Domain Abbreviation
        :extension_properties: []
        :ordinal: '16'
        :rule: ''
        :name: RDOMAIN
        :prefixed: false
        :description: Domain Abbreviation of the parent record(s). Null for records
          collected on general comments or additional information CRF page.
        :datatype:
          :type: http://www.assero.co.uk/BusinessDomain#VariableType
          :id: ''
          :namespace: ''
          :label: Char
          :extension_properties: []
        :classification:
          :type: http://www.assero.co.uk/BusinessDomain#VariableClassification
          :id: ''
          :namespace: ''
          :label: Qualifier
          :extension_properties: []
        :sub_classification:
          :type: http://www.assero.co.uk/BusinessDomain#VariableClassification
          :id: ''
          :namespace: ''
          :label: Record Qualifier
          :extension_properties: []
      - :type: http://www.assero.co.uk/BusinessDomain#ModelVariable
        :id: ''
        :namespace: ''
        :label: Identifying Variable
        :extension_properties: []
        :ordinal: '17'
        :rule: ''
        :name: IDVAR
        :prefixed: false
        :description: Identifying variable in the parent dataset that identifies the
          record(s) to which the comment applies. Examples AESEQ or CMGRPID. Used
          only when individual comments are related to domain records. Null for comments
          collected on separate CRFs.
        :datatype:
          :type: http://www.assero.co.uk/BusinessDomain#VariableType
          :id: ''
          :namespace: ''
          :label: Char
          :extension_properties: []
        :classification:
          :type: http://www.assero.co.uk/BusinessDomain#VariableClassification
          :id: ''
          :namespace: ''
          :label: Qualifier
          :extension_properties: []
        :sub_classification:
          :type: http://www.assero.co.uk/BusinessDomain#VariableClassification
          :id: ''
          :namespace: ''
          :label: Record Qualifier
          :extension_properties: []
      - :type: http://www.assero.co.uk/BusinessDomain#ModelVariable
        :id: ''
        :namespace: ''
        :label: Identifying Variable Value
        :extension_properties: []
        :ordinal: '18'
        :rule: ''
        :name: IDVARVAL
        :prefixed: false
        :description: Value of identifying variable of the parent record(s). Null
          for comments collected on separate CRFs.
        :datatype:
          :type: http://www.assero.co.uk/BusinessDomain#VariableType
          :id: ''
          :namespace: ''
          :label: Char
          :extension_properties: []
        :classification:
          :type: http://www.assero.co.uk/BusinessDomain#VariableClassification
          :id: ''
          :namespace: ''
          :label: Qualifier
          :extension_properties: []
        :sub_classification:
          :type: http://www.assero.co.uk/BusinessDomain#VariableClassification
          :id: ''
          :namespace: ''
          :label: Record Qualifier
          :extension_properties: []
      - :type: http://www.assero.co.uk/BusinessDomain#ModelVariable
        :id: ''
        :namespace: ''
        :label: Comment Reference
        :extension_properties: []
        :ordinal: '19'
        :rule: ''
        :name: '--REF'
        :prefixed: true
        :description: Sponsor-defined reference associated with the comment. May be
          the CRF page number (e.g. 650), or a module name (e.g. DEMOG), or a combination
          of information that identifies the reference (e.g. 650-VITALS-VISIT 2).
        :datatype:
          :type: http://www.assero.co.uk/BusinessDomain#VariableType
          :id: ''
          :namespace: ''
          :label: Char
          :extension_properties: []
        :classification:
          :type: http://www.assero.co.uk/BusinessDomain#VariableClassification
          :id: ''
          :namespace: ''
          :label: Qualifier
          :extension_properties: []
        :sub_classification:
          :type: http://www.assero.co.uk/BusinessDomain#VariableClassification
          :id: ''
          :namespace: ''
          :label: Record Qualifier
          :extension_properties: []
      - :type: http://www.assero.co.uk/BusinessDomain#ModelVariable
        :id: ''
        :namespace: ''
        :label: Comment
        :extension_properties: []
        :ordinal: '20'
        :rule: ''
        :name: '--VAL'
        :prefixed: true
        :description: The text of the comment. Text over 200 characters can be added
          to additional columns COVAL1-COVALn.
        :datatype:
          :type: http://www.assero.co.uk/BusinessDomain#VariableType
          :id: ''
          :namespace: ''
          :label: Char
          :extension_properties: []
        :classification:
          :type: http://www.assero.co.uk/BusinessDomain#VariableClassification
          :id: ''
          :namespace: ''
          :label: Topic
          :extension_properties: []
        :sub_classification:
          :type: http://www.assero.co.uk/BusinessDomain#VariableClassification
          :id: ''
          :namespace: ''
          :label: Not Applicable
          :extension_properties: []
      - :type: http://www.assero.co.uk/BusinessDomain#ModelVariable
        :id: ''
        :namespace: ''
        :label: Evaluator
        :extension_properties: []
        :ordinal: '21'
        :rule: ''
        :name: '--EVAL'
        :prefixed: true
        :description: 'Used to describe the originator of the comment. Example: CENTRAL
          REVIEWER.'
        :datatype:
          :type: http://www.assero.co.uk/BusinessDomain#VariableType
          :id: ''
          :namespace: ''
          :label: Char
          :extension_properties: []
        :classification:
          :type: http://www.assero.co.uk/BusinessDomain#VariableClassification
          :id: ''
          :namespace: ''
          :label: Qualifier
          :extension_properties: []
        :sub_classification:
          :type: http://www.assero.co.uk/BusinessDomain#VariableClassification
          :id: ''
          :namespace: ''
          :label: Record Qualifier
          :extension_properties: []
      - :type: http://www.assero.co.uk/BusinessDomain#ModelVariable
        :id: ''
        :namespace: ''
        :label: Subject Element Code
        :extension_properties: []
        :ordinal: '22'
        :rule: ''
        :name: ETCD
        :prefixed: false
        :description: ETCD (the companion to ELEMENT) is limited to 8 characters and
          does not have special character restrictions. These values should be short
          for ease of use in programming, but it is not expected that ETCD will need
          to serve as a variable name.
        :datatype:
          :type: http://www.assero.co.uk/BusinessDomain#VariableType
          :id: ''
          :namespace: ''
          :label: Char
          :extension_properties: []
        :classification:
          :type: http://www.assero.co.uk/BusinessDomain#VariableClassification
          :id: ''
          :namespace: ''
          :label: Topic
          :extension_properties: []
        :sub_classification:
          :type: http://www.assero.co.uk/BusinessDomain#VariableClassification
          :id: ''
          :namespace: ''
          :label: Not Applicable
          :extension_properties: []
      - :type: http://www.assero.co.uk/BusinessDomain#ModelVariable
        :id: ''
        :namespace: ''
        :label: Description of Subject Element
        :extension_properties: []
        :ordinal: '23'
        :rule: ''
        :name: ELEMENT
        :prefixed: false
        :description: The name of the Element. If ETCD has a value of “UNPLAN” then
          ELEMENT should be Null.
        :datatype:
          :type: http://www.assero.co.uk/BusinessDomain#VariableType
          :id: ''
          :namespace: ''
          :label: Char
          :extension_properties: []
        :classification:
          :type: http://www.assero.co.uk/BusinessDomain#VariableClassification
          :id: ''
          :namespace: ''
          :label: Qualifier
          :extension_properties: []
        :sub_classification:
          :type: http://www.assero.co.uk/BusinessDomain#VariableClassification
          :id: ''
          :namespace: ''
          :label: Record Qualifier
          :extension_properties: []
      - :type: http://www.assero.co.uk/BusinessDomain#ModelVariable
        :id: ''
        :namespace: ''
        :label: Description of Unplanned Element
        :extension_properties: []
        :ordinal: '24'
        :rule: ''
        :name: '--UPDES'
        :prefixed: true
        :description: Description of what happened to the subject during an unplanned
          Element. Used only if ETCD has the value of “UNPLAN”.
        :datatype:
          :type: http://www.assero.co.uk/BusinessDomain#VariableType
          :id: ''
          :namespace: ''
          :label: Char
          :extension_properties: []
        :classification:
          :type: http://www.assero.co.uk/BusinessDomain#VariableClassification
          :id: ''
          :namespace: ''
          :label: Qualifier
          :extension_properties: []
        :sub_classification:
          :type: http://www.assero.co.uk/BusinessDomain#VariableClassification
          :id: ''
          :namespace: ''
          :label: Record Qualifier
          :extension_properties: []
      - :type: http://www.assero.co.uk/BusinessDomain#ModelVariable
        :id: ''
        :namespace: ''
        :label: Description of Unplanned Visit
        :extension_properties: []
        :ordinal: '25'
        :rule: ''
        :name: '--UPDES'
        :prefixed: true
        :description: Description of what happened to the subject during an unplanned
          visit. Null for protocol-defined visits.
        :datatype:
          :type: http://www.assero.co.uk/BusinessDomain#VariableType
          :id: ''
          :namespace: ''
          :label: Char
          :extension_properties: []
        :classification:
          :type: http://www.assero.co.uk/BusinessDomain#VariableClassification
          :id: ''
          :namespace: ''
          :label: Qualifier
          :extension_properties: []
        :sub_classification:
          :type: http://www.assero.co.uk/BusinessDomain#VariableClassification
          :id: ''
          :namespace: ''
          :label: Record Qualifier
          :extension_properties: []
      - :type: http://www.assero.co.uk/BusinessDomain#ModelVariable
        :id: ''
        :namespace: ''
        :label: Qualifier Variable Name
        :extension_properties: []
        :ordinal: '26'
        :rule: ''
        :name: QNAM
        :prefixed: false
        :description: The short name of the Qualifier variable, which is used as a
          column name in a domain view with data from the parent domain. The value
          in QNAM cannot be longer than 8 characters, nor can it start with a number
          (e.g., “1TEST”). QNAM cannot contain characters other than letters, numbers,
          or underscores. This will often be the column name in the sponsor’s operational
          dataset.
        :datatype:
          :type: http://www.assero.co.uk/BusinessDomain#VariableType
          :id: ''
          :namespace: ''
          :label: Char
          :extension_properties: []
        :classification:
          :type: http://www.assero.co.uk/BusinessDomain#VariableClassification
          :id: ''
          :namespace: ''
          :label: Qualifier
          :extension_properties: []
        :sub_classification:
          :type: http://www.assero.co.uk/BusinessDomain#VariableClassification
          :id: ''
          :namespace: ''
          :label: Record Qualifier
          :extension_properties: []
      - :type: http://www.assero.co.uk/BusinessDomain#ModelVariable
        :id: ''
        :namespace: ''
        :label: Qualifier Variable Label
        :extension_properties: []
        :ordinal: '27'
        :rule: ''
        :name: QLABEL
        :prefixed: false
        :description: This is the long name or label associated with QNAM. The value
          in QLABEL cannot be longer than 40 characters. This will often be the column
          label in the sponsor’s original dataset.
        :datatype:
          :type: http://www.assero.co.uk/BusinessDomain#VariableType
          :id: ''
          :namespace: ''
          :label: Char
          :extension_properties: []
        :classification:
          :type: http://www.assero.co.uk/BusinessDomain#VariableClassification
          :id: ''
          :namespace: ''
          :label: Qualifier
          :extension_properties: []
        :sub_classification:
          :type: http://www.assero.co.uk/BusinessDomain#VariableClassification
          :id: ''
          :namespace: ''
          :label: Record Qualifier
          :extension_properties: []
      - :type: http://www.assero.co.uk/BusinessDomain#ModelVariable
        :id: ''
        :namespace: ''
        :label: Data Value
        :extension_properties: []
        :ordinal: '28'
        :rule: ''
        :name: QVAL
        :prefixed: false
        :description: Result of, response to, or value associated with QNAM. A value
          for this column is required; no records can be in SUPP-- with a null value
          for QVAL
        :datatype:
          :type: http://www.assero.co.uk/BusinessDomain#VariableType
          :id: ''
          :namespace: ''
          :label: Char
          :extension_properties: []
        :classification:
          :type: http://www.assero.co.uk/BusinessDomain#VariableClassification
          :id: ''
          :namespace: ''
          :label: Qualifier
          :extension_properties: []
        :sub_classification:
          :type: http://www.assero.co.uk/BusinessDomain#VariableClassification
          :id: ''
          :namespace: ''
          :label: Record Qualifier
          :extension_properties: []
      - :type: http://www.assero.co.uk/BusinessDomain#ModelVariable
        :id: ''
        :namespace: ''
        :label: Origin
        :extension_properties: []
        :ordinal: '29'
        :rule: ''
        :name: QORIG
        :prefixed: false
        :description: Since QVAL can represent a mixture of collected (on a CRF),
          derived, or assigned items, QORIG is used to indicate the origin of this
          data. Examples include CRF, ASSIGNED, or DERIVED.
        :datatype:
          :type: http://www.assero.co.uk/BusinessDomain#VariableType
          :id: ''
          :namespace: ''
          :label: Char
          :extension_properties: []
        :classification:
          :type: http://www.assero.co.uk/BusinessDomain#VariableClassification
          :id: ''
          :namespace: ''
          :label: Qualifier
          :extension_properties: []
        :sub_classification:
          :type: http://www.assero.co.uk/BusinessDomain#VariableClassification
          :id: ''
          :namespace: ''
          :label: Record Qualifier
          :extension_properties: []
      - :type: http://www.assero.co.uk/BusinessDomain#ModelVariable
        :id: ''
        :namespace: ''
        :label: Evaluator
        :extension_properties: []
        :ordinal: '30'
        :rule: ''
        :name: QEVAL
        :prefixed: false
        :description: Used only for results that are subjective (e.g., assigned by
          a person or a group). Should be null for records that contain objectively
          collected or derived data. Some examples include ADJUDICATION COMMITTEE,
          STATISTICIAN, DATABASE ADMINISTRATOR, CLINICAL COORDINATOR, etc.
        :datatype:
          :type: http://www.assero.co.uk/BusinessDomain#VariableType
          :id: ''
          :namespace: ''
          :label: Char
          :extension_properties: []
        :classification:
          :type: http://www.assero.co.uk/BusinessDomain#VariableClassification
          :id: ''
          :namespace: ''
          :label: Qualifier
          :extension_properties: []
        :sub_classification:
          :type: http://www.assero.co.uk/BusinessDomain#VariableClassification
          :id: ''
          :namespace: ''
          :label: Record Qualifier
          :extension_properties: []
      - :type: http://www.assero.co.uk/BusinessDomain#ModelVariable
        :id: ''
        :namespace: ''
        :label: Element Code
        :extension_properties: []
        :ordinal: '1'
        :rule: ''
        :name: ETCD
        :prefixed: false
        :description: ETCD (the companion to ELEMENT) is limited to 8 characters and
          does not have special character restrictions. These values should be short
          for ease of use in programming, but it is not expected that ETCD will need
          to serve as a variable name.
        :datatype:
          :type: http://www.assero.co.uk/BusinessDomain#VariableType
          :id: ''
          :namespace: ''
          :label: Char
          :extension_properties: []
        :classification:
          :type: http://www.assero.co.uk/BusinessDomain#VariableClassification
          :id: ''
          :namespace: ''
          :label: Qualifier
          :extension_properties: []
        :sub_classification:
          :type: http://www.assero.co.uk/BusinessDomain#VariableClassification
          :id: ''
          :namespace: ''
          :label: Record Qualifier
          :extension_properties: []
      - :type: http://www.assero.co.uk/BusinessDomain#ModelVariable
        :id: ''
        :namespace: ''
        :label: Description of Element
        :extension_properties: []
        :ordinal: '2'
        :rule: ''
        :name: ELEMENT
        :prefixed: false
        :description: The name of the Element.
        :datatype:
          :type: http://www.assero.co.uk/BusinessDomain#VariableType
          :id: ''
          :namespace: ''
          :label: Char
          :extension_properties: []
        :classification:
          :type: http://www.assero.co.uk/BusinessDomain#VariableClassification
          :id: ''
          :namespace: ''
          :label: Qualifier
          :extension_properties: []
        :sub_classification:
          :type: http://www.assero.co.uk/BusinessDomain#VariableClassification
          :id: ''
          :namespace: ''
          :label: Record Qualifier
          :extension_properties: []
      - :type: http://www.assero.co.uk/BusinessDomain#ModelVariable
        :id: ''
        :namespace: ''
        :label: Rule for Start of Element
        :extension_properties: []
        :ordinal: '3'
        :rule: ''
        :name: '--STRL'
        :prefixed: true
        :description: Expresses rule for beginning the Element.
        :datatype:
          :type: http://www.assero.co.uk/BusinessDomain#VariableType
          :id: ''
          :namespace: ''
          :label: Char
          :extension_properties: []
        :classification:
          :type: http://www.assero.co.uk/BusinessDomain#VariableClassification
          :id: ''
          :namespace: ''
          :label: Rule
          :extension_properties: []
        :sub_classification:
          :type: http://www.assero.co.uk/BusinessDomain#VariableClassification
          :id: ''
          :namespace: ''
          :label: Not Applicable
          :extension_properties: []
      - :type: http://www.assero.co.uk/BusinessDomain#ModelVariable
        :id: ''
        :namespace: ''
        :label: Rule for End of Element
        :extension_properties: []
        :ordinal: '4'
        :rule: ''
        :name: '--ENRL'
        :prefixed: true
        :description: Expresses rule for ending the Element. Either TEENRL or TEDUR
          must be present for each Element.
        :datatype:
          :type: http://www.assero.co.uk/BusinessDomain#VariableType
          :id: ''
          :namespace: ''
          :label: Char
          :extension_properties: []
        :classification:
          :type: http://www.assero.co.uk/BusinessDomain#VariableClassification
          :id: ''
          :namespace: ''
          :label: Rule
          :extension_properties: []
        :sub_classification:
          :type: http://www.assero.co.uk/BusinessDomain#VariableClassification
          :id: ''
          :namespace: ''
          :label: Not Applicable
          :extension_properties: []
      - :type: http://www.assero.co.uk/BusinessDomain#ModelVariable
        :id: ''
        :namespace: ''
        :label: Planned Arm Code
        :extension_properties: []
        :ordinal: '5'
        :rule: ''
        :name: ARMCD
        :prefixed: false
        :description: ARMCD is limited to 20 characters and does not have special
          character restrictions.
        :datatype:
          :type: http://www.assero.co.uk/BusinessDomain#VariableType
          :id: ''
          :namespace: ''
          :label: Char
          :extension_properties: []
        :classification:
          :type: http://www.assero.co.uk/BusinessDomain#VariableClassification
          :id: ''
          :namespace: ''
          :label: Qualifier
          :extension_properties: []
        :sub_classification:
          :type: http://www.assero.co.uk/BusinessDomain#VariableClassification
          :id: ''
          :namespace: ''
          :label: Record Qualifier
          :extension_properties: []
      - :type: http://www.assero.co.uk/BusinessDomain#ModelVariable
        :id: ''
        :namespace: ''
        :label: Description of Planned Arm
        :extension_properties: []
        :ordinal: '6'
        :rule: ''
        :name: ARM
        :prefixed: false
        :description: Name given to Arm or treatment group.
        :datatype:
          :type: http://www.assero.co.uk/BusinessDomain#VariableType
          :id: ''
          :namespace: ''
          :label: Char
          :extension_properties: []
        :classification:
          :type: http://www.assero.co.uk/BusinessDomain#VariableClassification
          :id: ''
          :namespace: ''
          :label: Qualifier
          :extension_properties: []
        :sub_classification:
          :type: http://www.assero.co.uk/BusinessDomain#VariableClassification
          :id: ''
          :namespace: ''
          :label: Record Qualifier
          :extension_properties: []
      - :type: http://www.assero.co.uk/BusinessDomain#ModelVariable
        :id: ''
        :namespace: ''
        :label: Branch
        :extension_properties: []
        :ordinal: '7'
        :rule: ''
        :name: '--BRANCH'
        :prefixed: true
        :description: 'Condition subjects meet, at a “branch” in the Trial Design
          at the end of this Element, to be included in this Arm. Example: Randomization
          to DRUG X.'
        :datatype:
          :type: http://www.assero.co.uk/BusinessDomain#VariableType
          :id: ''
          :namespace: ''
          :label: Char
          :extension_properties: []
        :classification:
          :type: http://www.assero.co.uk/BusinessDomain#VariableClassification
          :id: ''
          :namespace: ''
          :label: Rule
          :extension_properties: []
        :sub_classification:
          :type: http://www.assero.co.uk/BusinessDomain#VariableClassification
          :id: ''
          :namespace: ''
          :label: Not Applicable
          :extension_properties: []
      - :type: http://www.assero.co.uk/BusinessDomain#ModelVariable
        :id: ''
        :namespace: ''
        :label: Transition Rule
        :extension_properties: []
        :ordinal: '8'
        :rule: ''
        :name: '--TRANS'
        :prefixed: true
        :description: If the trial design allows a subject to transition to an Element
          other than the next Element in sequence, then the conditions for transitioning
          to those other Elements, and the alternative Element sequences, are specified
          in this rule (e.g., Responders go to washout).
        :datatype:
          :type: http://www.assero.co.uk/BusinessDomain#VariableType
          :id: ''
          :namespace: ''
          :label: Char
          :extension_properties: []
        :classification:
          :type: http://www.assero.co.uk/BusinessDomain#VariableClassification
          :id: ''
          :namespace: ''
          :label: Rule
          :extension_properties: []
        :sub_classification:
          :type: http://www.assero.co.uk/BusinessDomain#VariableClassification
          :id: ''
          :namespace: ''
          :label: Not Applicable
          :extension_properties: []
      - :type: http://www.assero.co.uk/BusinessDomain#ModelVariable
        :id: ''
        :namespace: ''
        :label: Visit Start Rule
        :extension_properties: []
        :ordinal: '9'
        :rule: ''
        :name: '--STRL'
        :prefixed: true
        :description: Rule describing when the visit starts, in relation to the sequence
          of Elements.
        :datatype:
          :type: http://www.assero.co.uk/BusinessDomain#VariableType
          :id: ''
          :namespace: ''
          :label: Char
          :extension_properties: []
        :classification:
          :type: http://www.assero.co.uk/BusinessDomain#VariableClassification
          :id: ''
          :namespace: ''
          :label: Rule
          :extension_properties: []
        :sub_classification:
          :type: http://www.assero.co.uk/BusinessDomain#VariableClassification
          :id: ''
          :namespace: ''
          :label: Not Applicable
          :extension_properties: []
      - :type: http://www.assero.co.uk/BusinessDomain#ModelVariable
        :id: ''
        :namespace: ''
        :label: Visit End Rule
        :extension_properties: []
        :ordinal: '10'
        :rule: ''
        :name: '--ENRL'
        :prefixed: true
        :description: Rule describing when the visit ends, in relation to the sequence
          of Elements.
        :datatype:
          :type: http://www.assero.co.uk/BusinessDomain#VariableType
          :id: ''
          :namespace: ''
          :label: Char
          :extension_properties: []
        :classification:
          :type: http://www.assero.co.uk/BusinessDomain#VariableClassification
          :id: ''
          :namespace: ''
          :label: Rule
          :extension_properties: []
        :sub_classification:
          :type: http://www.assero.co.uk/BusinessDomain#VariableClassification
          :id: ''
          :namespace: ''
          :label: Not Applicable
          :extension_properties: []
      - :type: http://www.assero.co.uk/BusinessDomain#ModelVariable
        :id: ''
        :namespace: ''
        :label: Inclusion/Exclusion Criterion Short Name
        :extension_properties: []
        :ordinal: '11'
        :rule: ''
        :name: IETESTCD
        :prefixed: false
        :description: Short name IETEST. It can be used as a column name when converting
          a dataset from a vertical to a horizontal format. The value in IETESTCD
          cannot be longer than 8 characters, nor can it start with a number (e.g.,
          “1TEST”). IETESTCD cannot contain characters other than letters, numbers,
          or underscores. The name “IE” prefix is used to ensure consistency with
          the IE domain
        :datatype:
          :type: http://www.assero.co.uk/BusinessDomain#VariableType
          :id: ''
          :namespace: ''
          :label: Char
          :extension_properties: []
        :classification:
          :type: http://www.assero.co.uk/BusinessDomain#VariableClassification
          :id: ''
          :namespace: ''
          :label: Topic
          :extension_properties: []
        :sub_classification:
          :type: http://www.assero.co.uk/BusinessDomain#VariableClassification
          :id: ''
          :namespace: ''
          :label: Not Applicable
          :extension_properties: []
      - :type: http://www.assero.co.uk/BusinessDomain#ModelVariable
        :id: ''
        :namespace: ''
        :label: Inclusion/Exclusion Criterion
        :extension_properties: []
        :ordinal: '12'
        :rule: ''
        :name: IETEST
        :prefixed: false
        :description: Full text of the inclusion or exclusion criterion. The prefix
          “IE” is used to ensure consistency with the IE domain.
        :datatype:
          :type: http://www.assero.co.uk/BusinessDomain#VariableType
          :id: ''
          :namespace: ''
          :label: Char
          :extension_properties: []
        :classification:
          :type: http://www.assero.co.uk/BusinessDomain#VariableClassification
          :id: ''
          :namespace: ''
          :label: Qualifier
          :extension_properties: []
        :sub_classification:
          :type: http://www.assero.co.uk/BusinessDomain#VariableClassification
          :id: ''
          :namespace: ''
          :label: Synonym Qualifier
          :extension_properties: []
      - :type: http://www.assero.co.uk/BusinessDomain#ModelVariable
        :id: ''
        :namespace: ''
        :label: Inclusion/Exclusion Category
        :extension_properties: []
        :ordinal: '13'
        :rule: ''
        :name: IECAT
        :prefixed: false
        :description: 'Used for categorization of the Inclusion/Exclusion Criterion:
          INCLUSION, EXCLUSION.'
        :datatype:
          :type: http://www.assero.co.uk/BusinessDomain#VariableType
          :id: ''
          :namespace: ''
          :label: Char
          :extension_properties: []
        :classification:
          :type: http://www.assero.co.uk/BusinessDomain#VariableClassification
          :id: ''
          :namespace: ''
          :label: Qualifier
          :extension_properties: []
        :sub_classification:
          :type: http://www.assero.co.uk/BusinessDomain#VariableClassification
          :id: ''
          :namespace: ''
          :label: Grouping Qualifier
          :extension_properties: []
      - :type: http://www.assero.co.uk/BusinessDomain#ModelVariable
        :id: ''
        :namespace: ''
        :label: Inclusion/Exclusion Subcategory
        :extension_properties: []
        :ordinal: '14'
        :rule: ''
        :name: IESCAT
        :prefixed: false
        :description: 'A further categorization of the exception criterion. Can be
          used to distinguish criteria for a sub-study or for to categorize as a major
          or minor exceptions. Examples: MAJOR, MINOR.'
        :datatype:
          :type: http://www.assero.co.uk/BusinessDomain#VariableType
          :id: ''
          :namespace: ''
          :label: Char
          :extension_properties: []
        :classification:
          :type: http://www.assero.co.uk/BusinessDomain#VariableClassification
          :id: ''
          :namespace: ''
          :label: Qualifier
          :extension_properties: []
        :sub_classification:
          :type: http://www.assero.co.uk/BusinessDomain#VariableClassification
          :id: ''
          :namespace: ''
          :label: Grouping Qualifier
          :extension_properties: []
      - :type: http://www.assero.co.uk/BusinessDomain#ModelVariable
        :id: ''
        :namespace: ''
        :label: Inclusion/Exclusion Criterion Rule
        :extension_properties: []
        :ordinal: '15'
        :rule: ''
        :name: '--RL'
        :prefixed: true
        :description: Rule that expresses the inclusion/exclusion criterion.
        :datatype:
          :type: http://www.assero.co.uk/BusinessDomain#VariableType
          :id: ''
          :namespace: ''
          :label: Char
          :extension_properties: []
        :classification:
          :type: http://www.assero.co.uk/BusinessDomain#VariableClassification
          :id: ''
          :namespace: ''
          :label: Rule
          :extension_properties: []
        :sub_classification:
          :type: http://www.assero.co.uk/BusinessDomain#VariableClassification
          :id: ''
          :namespace: ''
          :label: Not Applicable
          :extension_properties: []
      - :type: http://www.assero.co.uk/BusinessDomain#ModelVariable
        :id: ''
        :namespace: ''
        :label: Protocol Criteria Versions
        :extension_properties: []
        :ordinal: '16'
        :rule: ''
        :name: '--VERS'
        :prefixed: true
        :description: The number of this version of the Inclusion/Exclusion criteria.
          May be omitted if there is only one version.
        :datatype:
          :type: http://www.assero.co.uk/BusinessDomain#VariableType
          :id: ''
          :namespace: ''
          :label: Char
          :extension_properties: []
        :classification:
          :type: http://www.assero.co.uk/BusinessDomain#VariableClassification
          :id: ''
          :namespace: ''
          :label: Qualifier
          :extension_properties: []
        :sub_classification:
          :type: http://www.assero.co.uk/BusinessDomain#VariableClassification
          :id: ''
          :namespace: ''
          :label: Record Qualifier
          :extension_properties: []
      - :type: http://www.assero.co.uk/BusinessDomain#ModelVariable
        :id: ''
        :namespace: ''
        :label: Trial Summary Parameter Short Name
        :extension_properties: []
        :ordinal: '17'
        :rule: ''
        :name: '--PARMCD'
        :prefixed: true
        :description: 'TSPARMCD (the companion to TSPARM) is limited to 8 characters
          and does not have special character restrictions. These values should be
          short for ease of use in programming, but it is not expected that TSPARMCD
          will need to serve as variable names. Examples: AGEMIN, AGEMAX'
        :datatype:
          :type: http://www.assero.co.uk/BusinessDomain#VariableType
          :id: ''
          :namespace: ''
          :label: Char
          :extension_properties: []
        :classification:
          :type: http://www.assero.co.uk/BusinessDomain#VariableClassification
          :id: ''
          :namespace: ''
          :label: Topic
          :extension_properties: []
        :sub_classification:
          :type: http://www.assero.co.uk/BusinessDomain#VariableClassification
          :id: ''
          :namespace: ''
          :label: Not Applicable
          :extension_properties: []
      - :type: http://www.assero.co.uk/BusinessDomain#ModelVariable
        :id: ''
        :namespace: ''
        :label: Trial Summary Parameter
        :extension_properties: []
        :ordinal: '18'
        :rule: ''
        :name: '--PARM'
        :prefixed: true
        :description: Term for the Trial Summary Parameter. The value in TSPARM cannot
          be longer than 40 characters. Examples Planned Minimum Age of Subjects,
          Planned Maximum Age of Subjects
        :datatype:
          :type: http://www.assero.co.uk/BusinessDomain#VariableType
          :id: ''
          :namespace: ''
          :label: Char
          :extension_properties: []
        :classification:
          :type: http://www.assero.co.uk/BusinessDomain#VariableClassification
          :id: ''
          :namespace: ''
          :label: Qualifier
          :extension_properties: []
        :sub_classification:
          :type: http://www.assero.co.uk/BusinessDomain#VariableClassification
          :id: ''
          :namespace: ''
          :label: Synonym Qualifier
          :extension_properties: []
      - :type: http://www.assero.co.uk/BusinessDomain#ModelVariable
        :id: ''
        :namespace: ''
        :label: Parameter Value
        :extension_properties: []
        :ordinal: '19'
        :rule: ''
        :name: '--VAL'
        :prefixed: true
        :description: 'Value of TSPARM. Example: “ASTHMA” when TSPARM value is “Trial
          Indications”. TSVAL cannot be null; a value is required for the record to
          be valid. Text over 200 characters can be added to additional columns TSVAL1-TSVALn.'
        :datatype:
          :type: http://www.assero.co.uk/BusinessDomain#VariableType
          :id: ''
          :namespace: ''
          :label: Char
          :extension_properties: []
        :classification:
          :type: http://www.assero.co.uk/BusinessDomain#VariableClassification
          :id: ''
          :namespace: ''
          :label: Qualifier
          :extension_properties: []
        :sub_classification:
          :type: http://www.assero.co.uk/BusinessDomain#VariableClassification
          :id: ''
          :namespace: ''
          :label: Result Qualifier
          :extension_properties: []
      - :type: http://www.assero.co.uk/BusinessDomain#ModelVariable
        :id: ''
        :namespace: ''
        :label: Related Domain Abbreviation
        :extension_properties: []
        :ordinal: '1'
        :rule: ''
        :name: RDOMAIN
        :prefixed: false
        :description: Two-character abbreviation for the domain of the parent record(s).
        :datatype:
          :type: http://www.assero.co.uk/BusinessDomain#VariableType
          :id: ''
          :namespace: ''
          :label: Char
          :extension_properties: []
        :classification:
          :type: http://www.assero.co.uk/BusinessDomain#VariableClassification
          :id: ''
          :namespace: ''
          :label: Identifier
          :extension_properties: []
        :sub_classification:
          :type: http://www.assero.co.uk/BusinessDomain#VariableClassification
          :id: ''
          :namespace: ''
          :label: Not Applicable
          :extension_properties: []
      - :type: http://www.assero.co.uk/BusinessDomain#ModelVariable
        :id: ''
        :namespace: ''
        :label: Identifying Variable
        :extension_properties: []
        :ordinal: '2'
        :rule: ''
        :name: IDVAR
        :prefixed: false
        :description: Name of the identifying variable in the general-observation-class
          dataset that identifies the related record(s). Examples include --SEQ and
          --GRPID.
        :datatype:
          :type: http://www.assero.co.uk/BusinessDomain#VariableType
          :id: ''
          :namespace: ''
          :label: Char
          :extension_properties: []
        :classification:
          :type: http://www.assero.co.uk/BusinessDomain#VariableClassification
          :id: ''
          :namespace: ''
          :label: Qualifier
          :extension_properties: []
        :sub_classification:
          :type: http://www.assero.co.uk/BusinessDomain#VariableClassification
          :id: ''
          :namespace: ''
          :label: Record Qualifier
          :extension_properties: []
      - :type: http://www.assero.co.uk/BusinessDomain#ModelVariable
        :id: ''
        :namespace: ''
        :label: Identifying Variable Value
        :extension_properties: []
        :ordinal: '3'
        :rule: ''
        :name: IDVARVAL
        :prefixed: false
        :description: Value of identifying variable described in IDVAR. If --SEQ is
          the variable being used to describe this record, then the value of --SEQ
          would be entered here.
        :datatype:
          :type: http://www.assero.co.uk/BusinessDomain#VariableType
          :id: ''
          :namespace: ''
          :label: Char
          :extension_properties: []
        :classification:
          :type: http://www.assero.co.uk/BusinessDomain#VariableClassification
          :id: ''
          :namespace: ''
          :label: Qualifier
          :extension_properties: []
        :sub_classification:
          :type: http://www.assero.co.uk/BusinessDomain#VariableClassification
          :id: ''
          :namespace: ''
          :label: Record Qualifier
          :extension_properties: []
      - :type: http://www.assero.co.uk/BusinessDomain#ModelVariable
        :id: ''
        :namespace: ''
        :label: Relationship Type
        :extension_properties: []
        :ordinal: '4'
        :rule: ''
        :name: RELTYPE
        :prefixed: false
        :description: Identifies the hierarchical level of the records in the relationship.
          Values should be either ONE or MANY. However, values are only necessary
          when identifying a relationship between datasets.
        :datatype:
          :type: http://www.assero.co.uk/BusinessDomain#VariableType
          :id: ''
          :namespace: ''
          :label: Char
          :extension_properties: []
        :classification:
          :type: http://www.assero.co.uk/BusinessDomain#VariableClassification
          :id: ''
          :namespace: ''
          :label: Qualifier
          :extension_properties: []
        :sub_classification:
          :type: http://www.assero.co.uk/BusinessDomain#VariableClassification
          :id: ''
          :namespace: ''
          :label: Record Qualifier
          :extension_properties: []
      - :type: http://www.assero.co.uk/BusinessDomain#ModelVariable
        :id: ''
        :namespace: ''
        :label: Relationship Identifier
        :extension_properties: []
        :ordinal: '5'
        :rule: ''
        :name: RELID
        :prefixed: false
        :description: Unique value within USUBJID that identifies the relationship.
          All records for the same USUBJID that have the same RELID are considered
          “related/associated.” RELID can be any value the sponsor chooses, and is
          only meaningful within the RELREC dataset to identify the related/associated
          Domain records.
        :datatype:
          :type: http://www.assero.co.uk/BusinessDomain#VariableType
          :id: ''
          :namespace: ''
          :label: Char
          :extension_properties: []
        :classification:
          :type: http://www.assero.co.uk/BusinessDomain#VariableClassification
          :id: ''
          :namespace: ''
          :label: Qualifier
          :extension_properties: []
        :sub_classification:
          :type: http://www.assero.co.uk/BusinessDomain#VariableClassification
          :id: ''
          :namespace: ''
          :label: Record Qualifier
          :extension_properties: []
      :class_refs: []
- :type: MODEL_DOMAIN
  :order: 2
  :instance:
    :operation:
      :action: CREATE
      :new_version: '1'
      :new_semantic_version: 0.1.0
      :new_state: Standard
      :identifier_edit: true
    :managed_item:
      :type: ''
      :id: ''
      :namespace: ''
      :label: Events
      :extension_properties: []
      :origin: ''
      :change_description: ''
      :creation_date: '2017-10-18'
      :last_changed_date: '2017-10-19T11:13:07+01:00'
      :explanatory_comment: ''
      :registration_state:
        :namespace: http://www.assero.co.uk/MDRItems
        :id: ''
        :registration_authority:
          :id: ''
          :number: \"<Not Set>'
          :scheme: DUNS
          :owner: false
          :namespace:
            :namespace: ''
            :id: ''
            :name: ''
            :shortName: ''
        :registration_status: Not_Set
        :administrative_note: ''
        :effective_date: '2016-01-01T00:00:00+00:00'
        :until_date: '2016-01-01T00:00:00+00:00'
        :current: false
        :unresolved_issue: ''
        :administrative_status: ''
        :previous_state: Not_Set
      :scoped_identifier:
        :id: ''
        :identifier: SDTMMODEL EVENTS
        :version_label: Initial Version
        :version: 0
        :semantic_version: 0.0.0
        :namespace:
          :namespace: ''
          :id: ''
          :name: ''
          :shortName: ''
      :ordinal: 1
      :rule: ''
      :children:
      - :type: http://www.assero.co.uk/BusinessDomain#ClassVariable
        :id: ''
        :namespace: ''
        :label: Study Identifier
        :extension_properties: []
        :ordinal: 1
        :rule: ''
        :variable_name: STUDYID
      - :type: http://www.assero.co.uk/BusinessDomain#ClassVariable
        :id: ''
        :namespace: ''
        :label: Domain Abbreviation
        :extension_properties: []
        :ordinal: 2
        :rule: ''
        :variable_name: DOMAIN
      - :type: http://www.assero.co.uk/BusinessDomain#ClassVariable
        :id: ''
        :namespace: ''
        :label: Unique Subject Identifier
        :extension_properties: []
        :ordinal: 3
        :rule: ''
        :variable_name: USUBJID
      - :type: http://www.assero.co.uk/BusinessDomain#ClassVariable
        :id: ''
        :namespace: ''
        :label: Sequence Number
        :extension_properties: []
        :ordinal: 4
        :rule: ''
        :variable_name: '--SEQ'
      - :type: http://www.assero.co.uk/BusinessDomain#ClassVariable
        :id: ''
        :namespace: ''
        :label: Group ID
        :extension_properties: []
        :ordinal: 5
        :rule: ''
        :variable_name: '--GRPID'
      - :type: http://www.assero.co.uk/BusinessDomain#ClassVariable
        :id: ''
        :namespace: ''
        :label: Reference ID
        :extension_properties: []
        :ordinal: 6
        :rule: ''
        :variable_name: '--REFID'
      - :type: http://www.assero.co.uk/BusinessDomain#ClassVariable
        :id: ''
        :namespace: ''
        :label: Sponsor ID
        :extension_properties: []
        :ordinal: 7
        :rule: ''
        :variable_name: '--SPID'
      - :type: http://www.assero.co.uk/BusinessDomain#ClassVariable
        :id: ''
        :namespace: ''
        :label: Reported Term
        :extension_properties: []
        :ordinal: 8
        :rule: ''
        :variable_name: '--TERM'
      - :type: http://www.assero.co.uk/BusinessDomain#ClassVariable
        :id: ''
        :namespace: ''
        :label: Modified Reported Term
        :extension_properties: []
        :ordinal: 9
        :rule: ''
        :variable_name: '--MODIFY'
      - :type: http://www.assero.co.uk/BusinessDomain#ClassVariable
        :id: ''
        :namespace: ''
        :label: Dictionary-Derived Term
        :extension_properties: []
        :ordinal: 10
        :rule: ''
        :variable_name: '--DECOD'
      - :type: http://www.assero.co.uk/BusinessDomain#ClassVariable
        :id: ''
        :namespace: ''
        :label: Category
        :extension_properties: []
        :ordinal: 11
        :rule: ''
        :variable_name: '--CAT'
      - :type: http://www.assero.co.uk/BusinessDomain#ClassVariable
        :id: ''
        :namespace: ''
        :label: Subcategory
        :extension_properties: []
        :ordinal: 12
        :rule: ''
        :variable_name: '--SCAT'
      - :type: http://www.assero.co.uk/BusinessDomain#ClassVariable
        :id: ''
        :namespace: ''
        :label: Pre-specified
        :extension_properties: []
        :ordinal: 13
        :rule: ''
        :variable_name: '--PRESP'
      - :type: http://www.assero.co.uk/BusinessDomain#ClassVariable
        :id: ''
        :namespace: ''
        :label: Occurrence
        :extension_properties: []
        :ordinal: 14
        :rule: ''
        :variable_name: '--OCCUR'
      - :type: http://www.assero.co.uk/BusinessDomain#ClassVariable
        :id: ''
        :namespace: ''
        :label: Completion Status
        :extension_properties: []
        :ordinal: 15
        :rule: ''
        :variable_name: '--STAT'
      - :type: http://www.assero.co.uk/BusinessDomain#ClassVariable
        :id: ''
        :namespace: ''
        :label: Reason Not Done
        :extension_properties: []
        :ordinal: 16
        :rule: ''
        :variable_name: '--REASND'
      - :type: http://www.assero.co.uk/BusinessDomain#ClassVariable
        :id: ''
        :namespace: ''
        :label: Body System or Organ Class
        :extension_properties: []
        :ordinal: 17
        :rule: ''
        :variable_name: '--BODSYS'
      - :type: http://www.assero.co.uk/BusinessDomain#ClassVariable
        :id: ''
        :namespace: ''
        :label: Location of Event
        :extension_properties: []
        :ordinal: 18
        :rule: ''
        :variable_name: '--LOC'
      - :type: http://www.assero.co.uk/BusinessDomain#ClassVariable
        :id: ''
        :namespace: ''
        :label: Severity/Intensity
        :extension_properties: []
        :ordinal: 19
        :rule: ''
        :variable_name: '--SEV'
      - :type: http://www.assero.co.uk/BusinessDomain#ClassVariable
        :id: ''
        :namespace: ''
        :label: Serious Event
        :extension_properties: []
        :ordinal: 20
        :rule: ''
        :variable_name: '--SER'
      - :type: http://www.assero.co.uk/BusinessDomain#ClassVariable
        :id: ''
        :namespace: ''
        :label: Action Taken with Study Treatment
        :extension_properties: []
        :ordinal: 21
        :rule: ''
        :variable_name: '--ACN'
      - :type: http://www.assero.co.uk/BusinessDomain#ClassVariable
        :id: ''
        :namespace: ''
        :label: Other Action Taken
        :extension_properties: []
        :ordinal: 22
        :rule: ''
        :variable_name: '--ACNOTH'
      - :type: http://www.assero.co.uk/BusinessDomain#ClassVariable
        :id: ''
        :namespace: ''
        :label: Causality
        :extension_properties: []
        :ordinal: 23
        :rule: ''
        :variable_name: '--REL'
      - :type: http://www.assero.co.uk/BusinessDomain#ClassVariable
        :id: ''
        :namespace: ''
        :label: Relationship to Non-Study Treatment
        :extension_properties: []
        :ordinal: 24
        :rule: ''
        :variable_name: '--RELNST'
      - :type: http://www.assero.co.uk/BusinessDomain#ClassVariable
        :id: ''
        :namespace: ''
        :label: Pattern of Event
        :extension_properties: []
        :ordinal: 25
        :rule: ''
        :variable_name: '--PATT'
      - :type: http://www.assero.co.uk/BusinessDomain#ClassVariable
        :id: ''
        :namespace: ''
        :label: Outcome of Event
        :extension_properties: []
        :ordinal: 26
        :rule: ''
        :variable_name: '--OUT'
      - :type: http://www.assero.co.uk/BusinessDomain#ClassVariable
        :id: ''
        :namespace: ''
        :label: Involves Cancer
        :extension_properties: []
        :ordinal: 27
        :rule: ''
        :variable_name: '--SCAN'
      - :type: http://www.assero.co.uk/BusinessDomain#ClassVariable
        :id: ''
        :namespace: ''
        :label: Congenital Anomaly or Birth Defect
        :extension_properties: []
        :ordinal: 28
        :rule: ''
        :variable_name: '--SCONG'
      - :type: http://www.assero.co.uk/BusinessDomain#ClassVariable
        :id: ''
        :namespace: ''
        :label: Persist or Signif Disability/Incapacity
        :extension_properties: []
        :ordinal: 29
        :rule: ''
        :variable_name: '--SDISAB'
      - :type: http://www.assero.co.uk/BusinessDomain#ClassVariable
        :id: ''
        :namespace: ''
        :label: Results in Death
        :extension_properties: []
        :ordinal: 30
        :rule: ''
        :variable_name: '--SDTH'
      - :type: http://www.assero.co.uk/BusinessDomain#ClassVariable
        :id: ''
        :namespace: ''
        :label: Requires or Prolongs Hospitalization
        :extension_properties: []
        :ordinal: 31
        :rule: ''
        :variable_name: '--SHOSP'
      - :type: http://www.assero.co.uk/BusinessDomain#ClassVariable
        :id: ''
        :namespace: ''
        :label: Is Life Threatening
        :extension_properties: []
        :ordinal: 32
        :rule: ''
        :variable_name: '--SLIFE'
      - :type: http://www.assero.co.uk/BusinessDomain#ClassVariable
        :id: ''
        :namespace: ''
        :label: Occurred with Overdose
        :extension_properties: []
        :ordinal: 33
        :rule: ''
        :variable_name: '--SOD'
      - :type: http://www.assero.co.uk/BusinessDomain#ClassVariable
        :id: ''
        :namespace: ''
