---
:type: http://www.assero.co.uk/BusinessDomain#UserDomain
:id: D-ACME_VSDomain
:namespace: http://www.assero.co.uk/MDRSdtmUD/ACME/V1
:label: VS Copy
:extension_properties: []
:origin: ''
:change_description: ''
:creation_date: '2016-12-31T06:28:17+00:00'
:last_changed_date: '2016-12-31T06:28:17+00:00'
:explanatory_comment: ''
:registration_state:
  :namespace: http://www.assero.co.uk/MDRItems
  :id: RS-ACME_VSDomain-1
  :registration_authority:
    :id: RA-123456789
    :number: '123456789'
    :scheme: DUNS
    :owner: true
    :namespace:
      :namespace: http://www.assero.co.uk/MDRItems
      :id: NS-ACME
      :name: ACME Pharma
      :shortName: ACME
  :registration_status: Incomplete
  :administrative_note: ''
  :effective_date: '2016-01-01T00:00:00+00:00'
  :until_date: '2016-01-01T00:00:00+00:00'
  :current: false
  :unresolved_issue: ''
  :administrative_status: ''
  :previous_state: Incomplete
:scoped_identifier:
  :id: SI-ACME_VSDomain-1
  :identifier: VS Domain
  :version_label: ''
  :version: 1
  :semantic_version: '0.0.0'
  :namespace:
    :namespace: http://www.assero.co.uk/MDRItems
    :id: NS-ACME
    :name: ACME Pharma
    :shortName: ACME
:ordinal: 1
:rule: ''
:prefix: VS
:structure: ''
:notes: ''
:model_ref:
  :type: http://www.assero.co.uk/BusinessOperational#TReference
  :id: D-ACME_VSDomain_MD1
  :namespace: http://www.assero.co.uk/MDRSdtmUD/ACME/V1
  :label: Based on Domain Reference
  :extension_properties: []
  :enabled: true
  :optional: false
  :ordinal: 1
  :local_label: ''
  :subject_ref:
    :namespace: http://www.assero.co.uk/MDRSdtmMd/CDISC/V3
    :id: M-CDISC_SDTMMODEL_FINDINGS
:ig_ref:
  :type: http://www.assero.co.uk/BusinessOperational#TReference
  :id: D-ACME_VSDomain_IGD1
  :namespace: http://www.assero.co.uk/MDRSdtmUD/ACME/V1
  :label: Based on Domain Reference
  :extension_properties: []
  :enabled: true
  :optional: false
  :ordinal: 1
  :local_label: ''
  :subject_ref:
    :namespace: http://www.assero.co.uk/MDRSdtmIgD/CDISC/V3
    :id: IG-CDISC_SDTMIGVS
:children:
- :type: http://www.assero.co.uk/BusinessDomain#UserVariable
  :id: D-ACME_VSDomain_V1
  :namespace: http://www.assero.co.uk/MDRSdtmUD/ACME/V1
  :label: Study Identifier
  :extension_properties: []
  :ordinal: 1
  :rule: ''
  :name: STUDYID
  :notes: ''
  :format: ''
  :ct: ''
  :non_standard: false
  :comment: ''
  :length: 0
  :used: true
  :key_ordinal: 0
  :datatype:
    :type: http://www.assero.co.uk/BusinessDomain#VariableType
    :id: M-CDISC_SDTMMODEL_DT_CHAR
    :namespace: http://www.assero.co.uk/MDRSdtmM/CDISC/V3
    :label: Char
    :extension_properties: []
  :compliance:
    :type: http://www.assero.co.uk/BusinessDomain#VariableCompliance
    :id: IG-CDISC_SDTMIGVS_C_REQUIRED
    :namespace: http://www.assero.co.uk/MDRSdtmIgD/CDISC/V3
    :label: Required
    :extension_properties: []
  :classification:
    :type: http://www.assero.co.uk/BusinessDomain#VariableClassification
    :id: M-CDISC_SDTMMODEL_C_IDENTIFIER
    :namespace: http://www.assero.co.uk/MDRSdtmM/CDISC/V3
    :label: Identifier
    :extension_properties: []
  :sub_classification: {}
  :variable_ref:
    :type: http://www.assero.co.uk/BusinessOperational#CReference
    :id: D-ACME_VSDomain_V1_IGV1
    :namespace: http://www.assero.co.uk/MDRSdtmUD/ACME/V1
    :label: Based on Variable Reference
    :extension_properties: []
    :enabled: true
    :optional: false
    :ordinal: 1
    :local_label: ''
    :subject_ref:
      :namespace: http://www.assero.co.uk/MDRSdtmIgD/CDISC/V3
      :id: IG-CDISC_SDTMIGVS_STUDYID
- :type: http://www.assero.co.uk/BusinessDomain#UserVariable
  :id: D-ACME_VSDomain_V2
  :namespace: http://www.assero.co.uk/MDRSdtmUD/ACME/V1
  :label: Domain Abbreviation
  :extension_properties: []
  :ordinal: 2
  :rule: ''
  :name: DOMAIN
  :notes: ''
  :format: ''
  :ct: DOMAIN
  :non_standard: false
  :comment: ''
  :length: 0
  :used: true
  :key_ordinal: 0
  :datatype:
    :type: http://www.assero.co.uk/BusinessDomain#VariableType
    :id: M-CDISC_SDTMMODEL_DT_CHAR
    :namespace: http://www.assero.co.uk/MDRSdtmM/CDISC/V3
    :label: Char
    :extension_properties: []
  :compliance:
    :type: http://www.assero.co.uk/BusinessDomain#VariableCompliance
    :id: IG-CDISC_SDTMIGVS_C_REQUIRED
    :namespace: http://www.assero.co.uk/MDRSdtmIgD/CDISC/V3
    :label: Required
    :extension_properties: []
  :classification:
    :type: http://www.assero.co.uk/BusinessDomain#VariableClassification
    :id: M-CDISC_SDTMMODEL_C_IDENTIFIER
    :namespace: http://www.assero.co.uk/MDRSdtmM/CDISC/V3
    :label: Identifier
    :extension_properties: []
  :sub_classification: {}
  :variable_ref:
    :type: http://www.assero.co.uk/BusinessOperational#CReference
    :id: D-ACME_VSDomain_V2_IGV1
    :namespace: http://www.assero.co.uk/MDRSdtmUD/ACME/V1
    :label: Based on Variable Reference
    :extension_properties: []
    :enabled: true
    :optional: false
    :ordinal: 1
    :local_label: ''
    :subject_ref:
      :namespace: http://www.assero.co.uk/MDRSdtmIgD/CDISC/V3
      :id: IG-CDISC_SDTMIGVS_DOMAIN
- :type: http://www.assero.co.uk/BusinessDomain#UserVariable
  :id: D-ACME_VSDomain_V3
  :namespace: http://www.assero.co.uk/MDRSdtmUD/ACME/V1
  :label: Unique Subject Identifier
  :extension_properties: []
  :ordinal: 3
  :rule: ''
  :name: USUBJID
  :notes: ''
  :format: ''
  :ct: ''
  :non_standard: false
  :comment: ''
  :length: 0
  :used: true
  :key_ordinal: 0
  :datatype:
    :type: http://www.assero.co.uk/BusinessDomain#VariableType
    :id: M-CDISC_SDTMMODEL_DT_CHAR
    :namespace: http://www.assero.co.uk/MDRSdtmM/CDISC/V3
    :label: Char
    :extension_properties: []
  :compliance:
    :type: http://www.assero.co.uk/BusinessDomain#VariableCompliance
    :id: IG-CDISC_SDTMIGVS_C_REQUIRED
    :namespace: http://www.assero.co.uk/MDRSdtmIgD/CDISC/V3
    :label: Required
    :extension_properties: []
  :classification:
    :type: http://www.assero.co.uk/BusinessDomain#VariableClassification
    :id: M-CDISC_SDTMMODEL_C_IDENTIFIER
    :namespace: http://www.assero.co.uk/MDRSdtmM/CDISC/V3
    :label: Identifier
    :extension_properties: []
  :sub_classification: {}
  :variable_ref:
    :type: http://www.assero.co.uk/BusinessOperational#CReference
    :id: D-ACME_VSDomain_V3_IGV1
    :namespace: http://www.assero.co.uk/MDRSdtmUD/ACME/V1
    :label: Based on Variable Reference
    :extension_properties: []
    :enabled: true
    :optional: false
    :ordinal: 1
    :local_label: ''
    :subject_ref:
      :namespace: http://www.assero.co.uk/MDRSdtmIgD/CDISC/V3
      :id: IG-CDISC_SDTMIGVS_USUBJID
- :type: http://www.assero.co.uk/BusinessDomain#UserVariable
  :id: D-ACME_VSDomain_V4
  :namespace: http://www.assero.co.uk/MDRSdtmUD/ACME/V1
  :label: Sequence Number
  :extension_properties: []
  :ordinal: 4
  :rule: ''
  :name: VSSEQ
  :notes: ''
  :format: ''
  :ct: ''
  :non_standard: false
  :comment: ''
  :length: 0
  :used: true
  :key_ordinal: 0
  :datatype:
    :type: http://www.assero.co.uk/BusinessDomain#VariableType
    :id: M-CDISC_SDTMMODEL_DT_NUM
    :namespace: http://www.assero.co.uk/MDRSdtmM/CDISC/V3
    :label: Num
    :extension_properties: []
  :compliance:
    :type: http://www.assero.co.uk/BusinessDomain#VariableCompliance
    :id: IG-CDISC_SDTMIGVS_C_REQUIRED
    :namespace: http://www.assero.co.uk/MDRSdtmIgD/CDISC/V3
    :label: Required
    :extension_properties: []
  :classification:
    :type: http://www.assero.co.uk/BusinessDomain#VariableClassification
    :id: M-CDISC_SDTMMODEL_C_IDENTIFIER
    :namespace: http://www.assero.co.uk/MDRSdtmM/CDISC/V3
    :label: Identifier
    :extension_properties: []
  :sub_classification: {}
  :variable_ref:
    :type: http://www.assero.co.uk/BusinessOperational#CReference
    :id: D-ACME_VSDomain_V4_IGV1
    :namespace: http://www.assero.co.uk/MDRSdtmUD/ACME/V1
    :label: Based on Variable Reference
    :extension_properties: []
    :enabled: true
    :optional: false
    :ordinal: 1
    :local_label: ''
    :subject_ref:
      :namespace: http://www.assero.co.uk/MDRSdtmIgD/CDISC/V3
      :id: IG-CDISC_SDTMIGVS_VSSEQ
- :type: http://www.assero.co.uk/BusinessDomain#UserVariable
  :id: D-ACME_VSDomain_V5
  :namespace: http://www.assero.co.uk/MDRSdtmUD/ACME/V1
  :label: Group ID
  :extension_properties: []
  :ordinal: 5
  :rule: ''
  :name: VSGRPID
  :notes: ''
  :format: ''
  :ct: ''
  :non_standard: false
  :comment: ''
  :length: 0
  :used: true
  :key_ordinal: 0
  :datatype:
    :type: http://www.assero.co.uk/BusinessDomain#VariableType
    :id: M-CDISC_SDTMMODEL_DT_CHAR
    :namespace: http://www.assero.co.uk/MDRSdtmM/CDISC/V3
    :label: Char
    :extension_properties: []
  :compliance:
    :type: http://www.assero.co.uk/BusinessDomain#VariableCompliance
    :id: IG-CDISC_SDTMIGVS_C_PERMISSIBLE
    :namespace: http://www.assero.co.uk/MDRSdtmIgD/CDISC/V3
    :label: Permissible
    :extension_properties: []
  :classification:
    :type: http://www.assero.co.uk/BusinessDomain#VariableClassification
    :id: M-CDISC_SDTMMODEL_C_IDENTIFIER
    :namespace: http://www.assero.co.uk/MDRSdtmM/CDISC/V3
    :label: Identifier
    :extension_properties: []
  :sub_classification: {}
  :variable_ref:
    :type: http://www.assero.co.uk/BusinessOperational#CReference
    :id: D-ACME_VSDomain_V5_IGV1
    :namespace: http://www.assero.co.uk/MDRSdtmUD/ACME/V1
    :label: Based on Variable Reference
    :extension_properties: []
    :enabled: true
    :optional: false
    :ordinal: 1
    :local_label: ''
    :subject_ref:
      :namespace: http://www.assero.co.uk/MDRSdtmIgD/CDISC/V3
      :id: IG-CDISC_SDTMIGVS_VSGRPID
- :type: http://www.assero.co.uk/BusinessDomain#UserVariable
  :id: D-ACME_VSDomain_V6
  :namespace: http://www.assero.co.uk/MDRSdtmUD/ACME/V1
  :label: Sponsor-Defined Identifier
  :extension_properties: []
  :ordinal: 6
  :rule: ''
  :name: VSSPID
  :notes: ''
  :format: ''
  :ct: ''
  :non_standard: false
  :comment: ''
  :length: 0
  :used: true
  :key_ordinal: 0
  :datatype:
    :type: http://www.assero.co.uk/BusinessDomain#VariableType
    :id: M-CDISC_SDTMMODEL_DT_CHAR
    :namespace: http://www.assero.co.uk/MDRSdtmM/CDISC/V3
    :label: Char
    :extension_properties: []
  :compliance:
    :type: http://www.assero.co.uk/BusinessDomain#VariableCompliance
    :id: IG-CDISC_SDTMIGVS_C_PERMISSIBLE
    :namespace: http://www.assero.co.uk/MDRSdtmIgD/CDISC/V3
    :label: Permissible
    :extension_properties: []
  :classification:
    :type: http://www.assero.co.uk/BusinessDomain#VariableClassification
    :id: M-CDISC_SDTMMODEL_C_IDENTIFIER
    :namespace: http://www.assero.co.uk/MDRSdtmM/CDISC/V3
    :label: Identifier
    :extension_properties: []
  :sub_classification: {}
  :variable_ref:
    :type: http://www.assero.co.uk/BusinessOperational#CReference
    :id: D-ACME_VSDomain_V6_IGV1
    :namespace: http://www.assero.co.uk/MDRSdtmUD/ACME/V1
    :label: Based on Variable Reference
    :extension_properties: []
    :enabled: true
    :optional: false
    :ordinal: 1
    :local_label: ''
    :subject_ref:
      :namespace: http://www.assero.co.uk/MDRSdtmIgD/CDISC/V3
      :id: IG-CDISC_SDTMIGVS_VSSPID
- :type: http://www.assero.co.uk/BusinessDomain#UserVariable
  :id: D-ACME_VSDomain_V7
  :namespace: http://www.assero.co.uk/MDRSdtmUD/ACME/V1
  :label: Vital Signs Test Short Name
  :extension_properties: []
  :ordinal: 7
  :rule: ''
  :name: VSTESTCD
  :notes: ''
  :format: ''
  :ct: VSTESTCD
  :non_standard: false
  :comment: ''
  :length: 0
  :used: true
  :key_ordinal: 0
  :datatype:
    :type: http://www.assero.co.uk/BusinessDomain#VariableType
    :id: M-CDISC_SDTMMODEL_DT_CHAR
    :namespace: http://www.assero.co.uk/MDRSdtmM/CDISC/V3
    :label: Char
    :extension_properties: []
  :compliance:
    :type: http://www.assero.co.uk/BusinessDomain#VariableCompliance
    :id: IG-CDISC_SDTMIGVS_C_REQUIRED
    :namespace: http://www.assero.co.uk/MDRSdtmIgD/CDISC/V3
    :label: Required
    :extension_properties: []
  :classification:
    :type: http://www.assero.co.uk/BusinessDomain#VariableClassification
    :id: M-CDISC_SDTMMODEL_C_TOPIC
    :namespace: http://www.assero.co.uk/MDRSdtmM/CDISC/V3
    :label: Topic
    :extension_properties: []
  :sub_classification: {}
  :variable_ref:
    :type: http://www.assero.co.uk/BusinessOperational#CReference
    :id: D-ACME_VSDomain_V7_IGV1
    :namespace: http://www.assero.co.uk/MDRSdtmUD/ACME/V1
    :label: Based on Variable Reference
    :extension_properties: []
    :enabled: true
    :optional: false
    :ordinal: 1
    :local_label: ''
    :subject_ref:
      :namespace: http://www.assero.co.uk/MDRSdtmIgD/CDISC/V3
      :id: IG-CDISC_SDTMIGVS_VSTESTCD
- :type: http://www.assero.co.uk/BusinessDomain#UserVariable
  :id: D-ACME_VSDomain_V8
  :namespace: http://www.assero.co.uk/MDRSdtmUD/ACME/V1
  :label: Vital Signs Test Name
  :extension_properties: []
  :ordinal: 8
  :rule: ''
  :name: VSTEST
  :notes: ''
  :format: ''
  :ct: VSTEST
  :non_standard: false
  :comment: ''
  :length: 0
  :used: true
  :key_ordinal: 0
  :datatype:
    :type: http://www.assero.co.uk/BusinessDomain#VariableType
    :id: M-CDISC_SDTMMODEL_DT_CHAR
    :namespace: http://www.assero.co.uk/MDRSdtmM/CDISC/V3
    :label: Char
    :extension_properties: []
  :compliance:
    :type: http://www.assero.co.uk/BusinessDomain#VariableCompliance
    :id: IG-CDISC_SDTMIGVS_C_REQUIRED
    :namespace: http://www.assero.co.uk/MDRSdtmIgD/CDISC/V3
    :label: Required
    :extension_properties: []
  :classification:
    :type: http://www.assero.co.uk/BusinessDomain#VariableClassification
    :id: M-CDISC_SDTMMODEL_C_QUALIFIER
    :namespace: http://www.assero.co.uk/MDRSdtmM/CDISC/V3
    :label: Qualifier
    :extension_properties: []
  :sub_classification:
    :type: http://www.assero.co.uk/BusinessDomain#VariableClassification
    :id: M-CDISC_SDTMMODEL_SC_SYNONYMQUALIFIER
    :namespace: http://www.assero.co.uk/MDRSdtmM/CDISC/V3
    :label: Synonym Qualifier
    :extension_properties: []
  :variable_ref:
    :type: http://www.assero.co.uk/BusinessOperational#CReference
    :id: D-ACME_VSDomain_V8_IGV1
    :namespace: http://www.assero.co.uk/MDRSdtmUD/ACME/V1
    :label: Based on Variable Reference
    :extension_properties: []
    :enabled: true
    :optional: false
    :ordinal: 1
    :local_label: ''
    :subject_ref:
      :namespace: http://www.assero.co.uk/MDRSdtmIgD/CDISC/V3
      :id: IG-CDISC_SDTMIGVS_VSTEST
- :type: http://www.assero.co.uk/BusinessDomain#UserVariable
  :id: D-ACME_VSDomain_V9
  :namespace: http://www.assero.co.uk/MDRSdtmUD/ACME/V1
  :label: Category for Vital Signs
  :extension_properties: []
  :ordinal: 9
  :rule: ''
  :name: VSCAT
  :notes: ''
  :format: ''
  :ct: ''
  :non_standard: false
  :comment: ''
  :length: 0
  :used: true
  :key_ordinal: 0
  :datatype:
    :type: http://www.assero.co.uk/BusinessDomain#VariableType
    :id: M-CDISC_SDTMMODEL_DT_CHAR
    :namespace: http://www.assero.co.uk/MDRSdtmM/CDISC/V3
    :label: Char
    :extension_properties: []
  :compliance:
    :type: http://www.assero.co.uk/BusinessDomain#VariableCompliance
    :id: IG-CDISC_SDTMIGVS_C_PERMISSIBLE
    :namespace: http://www.assero.co.uk/MDRSdtmIgD/CDISC/V3
    :label: Permissible
    :extension_properties: []
  :classification:
    :type: http://www.assero.co.uk/BusinessDomain#VariableClassification
    :id: M-CDISC_SDTMMODEL_C_QUALIFIER
    :namespace: http://www.assero.co.uk/MDRSdtmM/CDISC/V3
    :label: Qualifier
    :extension_properties: []
  :sub_classification:
    :type: http://www.assero.co.uk/BusinessDomain#VariableClassification
    :id: M-CDISC_SDTMMODEL_SC_GROUPINGQUALIFIER
    :namespace: http://www.assero.co.uk/MDRSdtmM/CDISC/V3
    :label: Grouping Qualifier
    :extension_properties: []
  :variable_ref:
    :type: http://www.assero.co.uk/BusinessOperational#CReference
    :id: D-ACME_VSDomain_V9_IGV1
    :namespace: http://www.assero.co.uk/MDRSdtmUD/ACME/V1
    :label: Based on Variable Reference
    :extension_properties: []
    :enabled: true
    :optional: false
    :ordinal: 1
    :local_label: ''
    :subject_ref:
      :namespace: http://www.assero.co.uk/MDRSdtmIgD/CDISC/V3
      :id: IG-CDISC_SDTMIGVS_VSCAT
- :type: http://www.assero.co.uk/BusinessDomain#UserVariable
  :id: D-ACME_VSDomain_V10
  :namespace: http://www.assero.co.uk/MDRSdtmUD/ACME/V1
  :label: Subcategory for Vital Signs
  :extension_properties: []
  :ordinal: 10
  :rule: ''
  :name: VSSCAT
  :notes: ''
  :format: ''
  :ct: ''
  :non_standard: false
  :comment: ''
  :length: 0
  :used: true
  :key_ordinal: 0
  :datatype:
    :type: http://www.assero.co.uk/BusinessDomain#VariableType
    :id: M-CDISC_SDTMMODEL_DT_CHAR
    :namespace: http://www.assero.co.uk/MDRSdtmM/CDISC/V3
    :label: Char
    :extension_properties: []
  :compliance:
    :type: http://www.assero.co.uk/BusinessDomain#VariableCompliance
    :id: IG-CDISC_SDTMIGVS_C_PERMISSIBLE
    :namespace: http://www.assero.co.uk/MDRSdtmIgD/CDISC/V3
    :label: Permissible
    :extension_properties: []
  :classification:
    :type: http://www.assero.co.uk/BusinessDomain#VariableClassification
    :id: M-CDISC_SDTMMODEL_C_QUALIFIER
    :namespace: http://www.assero.co.uk/MDRSdtmM/CDISC/V3
    :label: Qualifier
    :extension_properties: []
  :sub_classification:
    :type: http://www.assero.co.uk/BusinessDomain#VariableClassification
    :id: M-CDISC_SDTMMODEL_SC_GROUPINGQUALIFIER
    :namespace: http://www.assero.co.uk/MDRSdtmM/CDISC/V3
    :label: Grouping Qualifier
    :extension_properties: []
  :variable_ref:
    :type: http://www.assero.co.uk/BusinessOperational#CReference
    :id: D-ACME_VSDomain_V10_IGV1
    :namespace: http://www.assero.co.uk/MDRSdtmUD/ACME/V1
    :label: Based on Variable Reference
    :extension_properties: []
    :enabled: true
    :optional: false
    :ordinal: 1
    :local_label: ''
    :subject_ref:
      :namespace: http://www.assero.co.uk/MDRSdtmIgD/CDISC/V3
      :id: IG-CDISC_SDTMIGVS_VSSCAT
- :type: http://www.assero.co.uk/BusinessDomain#UserVariable
  :id: D-ACME_VSDomain_V11
  :namespace: http://www.assero.co.uk/MDRSdtmUD/ACME/V1
  :label: Vital Signs Position of Subject
  :extension_properties: []
  :ordinal: 11
  :rule: ''
  :name: VSPOS
  :notes: ''
  :format: ''
  :ct: POSITION
  :non_standard: false
  :comment: ''
  :length: 0
  :used: true
  :key_ordinal: 0
  :datatype:
    :type: http://www.assero.co.uk/BusinessDomain#VariableType
    :id: M-CDISC_SDTMMODEL_DT_CHAR
    :namespace: http://www.assero.co.uk/MDRSdtmM/CDISC/V3
    :label: Char
    :extension_properties: []
  :compliance:
    :type: http://www.assero.co.uk/BusinessDomain#VariableCompliance
    :id: IG-CDISC_SDTMIGVS_C_PERMISSIBLE
    :namespace: http://www.assero.co.uk/MDRSdtmIgD/CDISC/V3
    :label: Permissible
    :extension_properties: []
  :classification:
    :type: http://www.assero.co.uk/BusinessDomain#VariableClassification
    :id: M-CDISC_SDTMMODEL_C_QUALIFIER
    :namespace: http://www.assero.co.uk/MDRSdtmM/CDISC/V3
    :label: Qualifier
    :extension_properties: []
  :sub_classification:
    :type: http://www.assero.co.uk/BusinessDomain#VariableClassification
    :id: M-CDISC_SDTMMODEL_SC_RECORDQUALIFIER
    :namespace: http://www.assero.co.uk/MDRSdtmM/CDISC/V3
    :label: Record Qualifier
    :extension_properties: []
  :variable_ref:
    :type: http://www.assero.co.uk/BusinessOperational#CReference
    :id: D-ACME_VSDomain_V11_IGV1
    :namespace: http://www.assero.co.uk/MDRSdtmUD/ACME/V1
    :label: Based on Variable Reference
    :extension_properties: []
    :enabled: true
    :optional: false
    :ordinal: 1
    :local_label: ''
    :subject_ref:
      :namespace: http://www.assero.co.uk/MDRSdtmIgD/CDISC/V3
      :id: IG-CDISC_SDTMIGVS_VSPOS
- :type: http://www.assero.co.uk/BusinessDomain#UserVariable
  :id: D-ACME_VSDomain_V12
  :namespace: http://www.assero.co.uk/MDRSdtmUD/ACME/V1
  :label: Result or Finding in Original Units
  :extension_properties: []
  :ordinal: 12
  :rule: ''
  :name: VSORRES
  :notes: ''
  :format: ''
  :ct: ''
  :non_standard: false
  :comment: ''
  :length: 0
  :used: true
  :key_ordinal: 0
  :datatype:
    :type: http://www.assero.co.uk/BusinessDomain#VariableType
    :id: M-CDISC_SDTMMODEL_DT_CHAR
    :namespace: http://www.assero.co.uk/MDRSdtmM/CDISC/V3
    :label: Char
    :extension_properties: []
  :compliance:
    :type: http://www.assero.co.uk/BusinessDomain#VariableCompliance
    :id: IG-CDISC_SDTMIGVS_C_EXPECTED
    :namespace: http://www.assero.co.uk/MDRSdtmIgD/CDISC/V3
    :label: Expected
    :extension_properties: []
  :classification:
    :type: http://www.assero.co.uk/BusinessDomain#VariableClassification
    :id: M-CDISC_SDTMMODEL_C_QUALIFIER
    :namespace: http://www.assero.co.uk/MDRSdtmM/CDISC/V3
    :label: Qualifier
    :extension_properties: []
  :sub_classification:
    :type: http://www.assero.co.uk/BusinessDomain#VariableClassification
    :id: M-CDISC_SDTMMODEL_SC_RESULTQUALIFIER
    :namespace: http://www.assero.co.uk/MDRSdtmM/CDISC/V3
    :label: Result Qualifier
    :extension_properties: []
  :variable_ref:
    :type: http://www.assero.co.uk/BusinessOperational#CReference
    :id: D-ACME_VSDomain_V12_IGV1
    :namespace: http://www.assero.co.uk/MDRSdtmUD/ACME/V1
    :label: Based on Variable Reference
    :extension_properties: []
    :enabled: true
    :optional: false
    :ordinal: 1
    :local_label: ''
    :subject_ref:
      :namespace: http://www.assero.co.uk/MDRSdtmIgD/CDISC/V3
      :id: IG-CDISC_SDTMIGVS_VSORRES
- :type: http://www.assero.co.uk/BusinessDomain#UserVariable
  :id: D-ACME_VSDomain_V13
  :namespace: http://www.assero.co.uk/MDRSdtmUD/ACME/V1
  :label: Original Units
  :extension_properties: []
  :ordinal: 13
  :rule: ''
  :name: VSORRESU
  :notes: ''
  :format: ''
  :ct: VSRESU
  :non_standard: false
  :comment: ''
  :length: 0
  :used: true
  :key_ordinal: 0
  :datatype:
    :type: http://www.assero.co.uk/BusinessDomain#VariableType
    :id: M-CDISC_SDTMMODEL_DT_CHAR
    :namespace: http://www.assero.co.uk/MDRSdtmM/CDISC/V3
    :label: Char
    :extension_properties: []
  :compliance:
    :type: http://www.assero.co.uk/BusinessDomain#VariableCompliance
    :id: IG-CDISC_SDTMIGVS_C_EXPECTED
    :namespace: http://www.assero.co.uk/MDRSdtmIgD/CDISC/V3
    :label: Expected
    :extension_properties: []
  :classification:
    :type: http://www.assero.co.uk/BusinessDomain#VariableClassification
    :id: M-CDISC_SDTMMODEL_C_QUALIFIER
    :namespace: http://www.assero.co.uk/MDRSdtmM/CDISC/V3
    :label: Qualifier
    :extension_properties: []
  :sub_classification:
    :type: http://www.assero.co.uk/BusinessDomain#VariableClassification
    :id: M-CDISC_SDTMMODEL_SC_VARIABLEQUALIFIER
    :namespace: http://www.assero.co.uk/MDRSdtmM/CDISC/V3
    :label: Variable Qualifier
    :extension_properties: []
  :variable_ref:
    :type: http://www.assero.co.uk/BusinessOperational#CReference
    :id: D-ACME_VSDomain_V13_IGV1
    :namespace: http://www.assero.co.uk/MDRSdtmUD/ACME/V1
    :label: Based on Variable Reference
    :extension_properties: []
    :enabled: true
    :optional: false
    :ordinal: 1
    :local_label: ''
    :subject_ref:
      :namespace: http://www.assero.co.uk/MDRSdtmIgD/CDISC/V3
      :id: IG-CDISC_SDTMIGVS_VSORRESU
- :type: http://www.assero.co.uk/BusinessDomain#UserVariable
  :id: D-ACME_VSDomain_V14
  :namespace: http://www.assero.co.uk/MDRSdtmUD/ACME/V1
  :label: Character Result/Finding in Std Format
  :extension_properties: []
  :ordinal: 14
  :rule: ''
  :name: VSSTRESC
  :notes: ''
  :format: ''
  :ct: ''
  :non_standard: false
  :comment: ''
  :length: 0
  :used: true
  :key_ordinal: 0
  :datatype:
    :type: http://www.assero.co.uk/BusinessDomain#VariableType
    :id: M-CDISC_SDTMMODEL_DT_CHAR
    :namespace: http://www.assero.co.uk/MDRSdtmM/CDISC/V3
    :label: Char
    :extension_properties: []
  :compliance:
    :type: http://www.assero.co.uk/BusinessDomain#VariableCompliance
    :id: IG-CDISC_SDTMIGVS_C_EXPECTED
    :namespace: http://www.assero.co.uk/MDRSdtmIgD/CDISC/V3
    :label: Expected
    :extension_properties: []
  :classification:
    :type: http://www.assero.co.uk/BusinessDomain#VariableClassification
    :id: M-CDISC_SDTMMODEL_C_QUALIFIER
    :namespace: http://www.assero.co.uk/MDRSdtmM/CDISC/V3
    :label: Qualifier
    :extension_properties: []
  :sub_classification:
    :type: http://www.assero.co.uk/BusinessDomain#VariableClassification
    :id: M-CDISC_SDTMMODEL_SC_RESULTQUALIFIER
    :namespace: http://www.assero.co.uk/MDRSdtmM/CDISC/V3
    :label: Result Qualifier
    :extension_properties: []
  :variable_ref:
    :type: http://www.assero.co.uk/BusinessOperational#CReference
    :id: D-ACME_VSDomain_V14_IGV1
    :namespace: http://www.assero.co.uk/MDRSdtmUD/ACME/V1
    :label: Based on Variable Reference
    :extension_properties: []
    :enabled: true
    :optional: false
    :ordinal: 1
    :local_label: ''
    :subject_ref:
      :namespace: http://www.assero.co.uk/MDRSdtmIgD/CDISC/V3
      :id: IG-CDISC_SDTMIGVS_VSSTRESC
- :type: http://www.assero.co.uk/BusinessDomain#UserVariable
  :id: D-ACME_VSDomain_V15
  :namespace: http://www.assero.co.uk/MDRSdtmUD/ACME/V1
  :label: Numeric Result/Finding in Standard Units
  :extension_properties: []
  :ordinal: 15
  :rule: ''
  :name: VSSTRESN
  :notes: ''
  :format: ''
  :ct: ''
  :non_standard: false
  :comment: ''
  :length: 0
  :used: true
  :key_ordinal: 0
  :datatype:
    :type: http://www.assero.co.uk/BusinessDomain#VariableType
    :id: M-CDISC_SDTMMODEL_DT_NUM
    :namespace: http://www.assero.co.uk/MDRSdtmM/CDISC/V3
    :label: Num
    :extension_properties: []
  :compliance:
    :type: http://www.assero.co.uk/BusinessDomain#VariableCompliance
    :id: IG-CDISC_SDTMIGVS_C_EXPECTED
    :namespace: http://www.assero.co.uk/MDRSdtmIgD/CDISC/V3
    :label: Expected
    :extension_properties: []
  :classification:
    :type: http://www.assero.co.uk/BusinessDomain#VariableClassification
    :id: M-CDISC_SDTMMODEL_C_QUALIFIER
    :namespace: http://www.assero.co.uk/MDRSdtmM/CDISC/V3
    :label: Qualifier
    :extension_properties: []
  :sub_classification:
    :type: http://www.assero.co.uk/BusinessDomain#VariableClassification
    :id: M-CDISC_SDTMMODEL_SC_RESULTQUALIFIER
    :namespace: http://www.assero.co.uk/MDRSdtmM/CDISC/V3
    :label: Result Qualifier
    :extension_properties: []
  :variable_ref:
    :type: http://www.assero.co.uk/BusinessOperational#CReference
    :id: D-ACME_VSDomain_V15_IGV1
    :namespace: http://www.assero.co.uk/MDRSdtmUD/ACME/V1
    :label: Based on Variable Reference
    :extension_properties: []
    :enabled: true
    :optional: false
    :ordinal: 1
    :local_label: ''
    :subject_ref:
      :namespace: http://www.assero.co.uk/MDRSdtmIgD/CDISC/V3
      :id: IG-CDISC_SDTMIGVS_VSSTRESN
- :type: http://www.assero.co.uk/BusinessDomain#UserVariable
  :id: D-ACME_VSDomain_V16
  :namespace: http://www.assero.co.uk/MDRSdtmUD/ACME/V1
  :label: Standard Units
  :extension_properties: []
  :ordinal: 16
  :rule: ''
  :name: VSSTRESU
  :notes: ''
  :format: ''
  :ct: VSRESU
  :non_standard: false
  :comment: ''
  :length: 0
  :used: true
  :key_ordinal: 0
  :datatype:
    :type: http://www.assero.co.uk/BusinessDomain#VariableType
    :id: M-CDISC_SDTMMODEL_DT_CHAR
    :namespace: http://www.assero.co.uk/MDRSdtmM/CDISC/V3
    :label: Char
    :extension_properties: []
  :compliance:
    :type: http://www.assero.co.uk/BusinessDomain#VariableCompliance
    :id: IG-CDISC_SDTMIGVS_C_EXPECTED
    :namespace: http://www.assero.co.uk/MDRSdtmIgD/CDISC/V3
    :label: Expected
    :extension_properties: []
  :classification:
    :type: http://www.assero.co.uk/BusinessDomain#VariableClassification
    :id: M-CDISC_SDTMMODEL_C_QUALIFIER
    :namespace: http://www.assero.co.uk/MDRSdtmM/CDISC/V3
    :label: Qualifier
    :extension_properties: []
  :sub_classification:
    :type: http://www.assero.co.uk/BusinessDomain#VariableClassification
    :id: M-CDISC_SDTMMODEL_SC_VARIABLEQUALIFIER
    :namespace: http://www.assero.co.uk/MDRSdtmM/CDISC/V3
    :label: Variable Qualifier
    :extension_properties: []
  :variable_ref:
    :type: http://www.assero.co.uk/BusinessOperational#CReference
    :id: D-ACME_VSDomain_V16_IGV1
    :namespace: http://www.assero.co.uk/MDRSdtmUD/ACME/V1
    :label: Based on Variable Reference
    :extension_properties: []
    :enabled: true
    :optional: false
    :ordinal: 1
    :local_label: ''
    :subject_ref:
      :namespace: http://www.assero.co.uk/MDRSdtmIgD/CDISC/V3
      :id: IG-CDISC_SDTMIGVS_VSSTRESU
- :type: http://www.assero.co.uk/BusinessDomain#UserVariable
  :id: D-ACME_VSDomain_V17
  :namespace: http://www.assero.co.uk/MDRSdtmUD/ACME/V1
  :label: Completion Status
  :extension_properties: []
  :ordinal: 17
  :rule: ''
  :name: VSSTAT
  :notes: ''
  :format: ''
  :ct: ND
  :non_standard: false
  :comment: ''
  :length: 0
  :used: true
  :key_ordinal: 0
  :datatype:
    :type: http://www.assero.co.uk/BusinessDomain#VariableType
    :id: M-CDISC_SDTMMODEL_DT_CHAR
    :namespace: http://www.assero.co.uk/MDRSdtmM/CDISC/V3
    :label: Char
    :extension_properties: []
  :compliance:
    :type: http://www.assero.co.uk/BusinessDomain#VariableCompliance
    :id: IG-CDISC_SDTMIGVS_C_PERMISSIBLE
    :namespace: http://www.assero.co.uk/MDRSdtmIgD/CDISC/V3
    :label: Permissible
    :extension_properties: []
  :classification:
    :type: http://www.assero.co.uk/BusinessDomain#VariableClassification
    :id: M-CDISC_SDTMMODEL_C_QUALIFIER
    :namespace: http://www.assero.co.uk/MDRSdtmM/CDISC/V3
    :label: Qualifier
    :extension_properties: []
  :sub_classification:
    :type: http://www.assero.co.uk/BusinessDomain#VariableClassification
    :id: M-CDISC_SDTMMODEL_SC_RECORDQUALIFIER
    :namespace: http://www.assero.co.uk/MDRSdtmM/CDISC/V3
    :label: Record Qualifier
    :extension_properties: []
  :variable_ref:
    :type: http://www.assero.co.uk/BusinessOperational#CReference
    :id: D-ACME_VSDomain_V17_IGV1
    :namespace: http://www.assero.co.uk/MDRSdtmUD/ACME/V1
    :label: Based on Variable Reference
    :extension_properties: []
    :enabled: true
    :optional: false
    :ordinal: 1
    :local_label: ''
    :subject_ref:
      :namespace: http://www.assero.co.uk/MDRSdtmIgD/CDISC/V3
      :id: IG-CDISC_SDTMIGVS_VSSTAT
- :type: http://www.assero.co.uk/BusinessDomain#UserVariable
  :id: D-ACME_VSDomain_V18
  :namespace: http://www.assero.co.uk/MDRSdtmUD/ACME/V1
  :label: Reason Not Performed
  :extension_properties: []
  :ordinal: 18
  :rule: ''
  :name: VSREASND
  :notes: ''
  :format: ''
  :ct: ''
  :non_standard: false
  :comment: ''
  :length: 0
  :used: true
  :key_ordinal: 0
  :datatype:
    :type: http://www.assero.co.uk/BusinessDomain#VariableType
    :id: M-CDISC_SDTMMODEL_DT_CHAR
    :namespace: http://www.assero.co.uk/MDRSdtmM/CDISC/V3
    :label: Char
    :extension_properties: []
  :compliance:
    :type: http://www.assero.co.uk/BusinessDomain#VariableCompliance
    :id: IG-CDISC_SDTMIGVS_C_PERMISSIBLE
    :namespace: http://www.assero.co.uk/MDRSdtmIgD/CDISC/V3
    :label: Permissible
    :extension_properties: []
  :classification:
    :type: http://www.assero.co.uk/BusinessDomain#VariableClassification
    :id: M-CDISC_SDTMMODEL_C_QUALIFIER
    :namespace: http://www.assero.co.uk/MDRSdtmM/CDISC/V3
    :label: Qualifier
    :extension_properties: []
  :sub_classification:
    :type: http://www.assero.co.uk/BusinessDomain#VariableClassification
    :id: M-CDISC_SDTMMODEL_SC_RECORDQUALIFIER
    :namespace: http://www.assero.co.uk/MDRSdtmM/CDISC/V3
    :label: Record Qualifier
    :extension_properties: []
  :variable_ref:
    :type: http://www.assero.co.uk/BusinessOperational#CReference
    :id: D-ACME_VSDomain_V18_IGV1
    :namespace: http://www.assero.co.uk/MDRSdtmUD/ACME/V1
    :label: Based on Variable Reference
    :extension_properties: []
    :enabled: true
    :optional: false
    :ordinal: 1
    :local_label: ''
    :subject_ref:
      :namespace: http://www.assero.co.uk/MDRSdtmIgD/CDISC/V3
      :id: IG-CDISC_SDTMIGVS_VSREASND
- :type: http://www.assero.co.uk/BusinessDomain#UserVariable
  :id: D-ACME_VSDomain_V19
  :namespace: http://www.assero.co.uk/MDRSdtmUD/ACME/V1
  :label: Location of Vital Signs Measurement
  :extension_properties: []
  :ordinal: 19
  :rule: ''
  :name: VSLOC
  :notes: ''
  :format: ''
  :ct: LOC
  :non_standard: false
  :comment: ''
  :length: 0
  :used: true
  :key_ordinal: 0
  :datatype:
    :type: http://www.assero.co.uk/BusinessDomain#VariableType
    :id: M-CDISC_SDTMMODEL_DT_CHAR
    :namespace: http://www.assero.co.uk/MDRSdtmM/CDISC/V3
    :label: Char
    :extension_properties: []
  :compliance:
    :type: http://www.assero.co.uk/BusinessDomain#VariableCompliance
    :id: IG-CDISC_SDTMIGVS_C_PERMISSIBLE
    :namespace: http://www.assero.co.uk/MDRSdtmIgD/CDISC/V3
    :label: Permissible
    :extension_properties: []
  :classification:
    :type: http://www.assero.co.uk/BusinessDomain#VariableClassification
    :id: M-CDISC_SDTMMODEL_C_QUALIFIER
    :namespace: http://www.assero.co.uk/MDRSdtmM/CDISC/V3
    :label: Qualifier
    :extension_properties: []
  :sub_classification:
    :type: http://www.assero.co.uk/BusinessDomain#VariableClassification
    :id: M-CDISC_SDTMMODEL_SC_RECORDQUALIFIER
    :namespace: http://www.assero.co.uk/MDRSdtmM/CDISC/V3
    :label: Record Qualifier
    :extension_properties: []
  :variable_ref:
    :type: http://www.assero.co.uk/BusinessOperational#CReference
    :id: D-ACME_VSDomain_V19_IGV1
    :namespace: http://www.assero.co.uk/MDRSdtmUD/ACME/V1
    :label: Based on Variable Reference
    :extension_properties: []
    :enabled: true
    :optional: false
    :ordinal: 1
    :local_label: ''
    :subject_ref:
      :namespace: http://www.assero.co.uk/MDRSdtmIgD/CDISC/V3
      :id: IG-CDISC_SDTMIGVS_VSLOC
- :type: http://www.assero.co.uk/BusinessDomain#UserVariable
  :id: D-ACME_VSDomain_V20
  :namespace: http://www.assero.co.uk/MDRSdtmUD/ACME/V1
  :label: Laterality
  :extension_properties: []
  :ordinal: 20
  :rule: ''
  :name: VSLAT
  :notes: ''
  :format: ''
  :ct: LAT
  :non_standard: false
  :comment: ''
  :length: 0
  :used: true
  :key_ordinal: 0
  :datatype:
    :type: http://www.assero.co.uk/BusinessDomain#VariableType
    :id: M-CDISC_SDTMMODEL_DT_CHAR
    :namespace: http://www.assero.co.uk/MDRSdtmM/CDISC/V3
    :label: Char
    :extension_properties: []
  :compliance:
    :type: http://www.assero.co.uk/BusinessDomain#VariableCompliance
    :id: IG-CDISC_SDTMIGVS_C_PERMISSIBLE
    :namespace: http://www.assero.co.uk/MDRSdtmIgD/CDISC/V3
    :label: Permissible
    :extension_properties: []
  :classification:
    :type: http://www.assero.co.uk/BusinessDomain#VariableClassification
    :id: M-CDISC_SDTMMODEL_C_QUALIFIER
    :namespace: http://www.assero.co.uk/MDRSdtmM/CDISC/V3
    :label: Qualifier
    :extension_properties: []
  :sub_classification:
    :type: http://www.assero.co.uk/BusinessDomain#VariableClassification
    :id: M-CDISC_SDTMMODEL_SC_VARIABLEQUALIFIER
    :namespace: http://www.assero.co.uk/MDRSdtmM/CDISC/V3
    :label: Variable Qualifier
    :extension_properties: []
  :variable_ref:
    :type: http://www.assero.co.uk/BusinessOperational#CReference
    :id: D-ACME_VSDomain_V20_IGV1
    :namespace: http://www.assero.co.uk/MDRSdtmUD/ACME/V1
    :label: Based on Variable Reference
    :extension_properties: []
    :enabled: true
    :optional: false
    :ordinal: 1
    :local_label: ''
    :subject_ref:
      :namespace: http://www.assero.co.uk/MDRSdtmIgD/CDISC/V3
      :id: IG-CDISC_SDTMIGVS_VSLAT
- :type: http://www.assero.co.uk/BusinessDomain#UserVariable
  :id: D-ACME_VSDomain_V21
  :namespace: http://www.assero.co.uk/MDRSdtmUD/ACME/V1
  :label: Baseline Flag
  :extension_properties: []
  :ordinal: 21
  :rule: ''
  :name: VSBLFL
  :notes: ''
  :format: ''
  :ct: NY
  :non_standard: false
  :comment: ''
  :length: 0
  :used: true
  :key_ordinal: 0
  :datatype:
    :type: http://www.assero.co.uk/BusinessDomain#VariableType
    :id: M-CDISC_SDTMMODEL_DT_CHAR
    :namespace: http://www.assero.co.uk/MDRSdtmM/CDISC/V3
    :label: Char
    :extension_properties: []
  :compliance:
    :type: http://www.assero.co.uk/BusinessDomain#VariableCompliance
    :id: IG-CDISC_SDTMIGVS_C_EXPECTED
    :namespace: http://www.assero.co.uk/MDRSdtmIgD/CDISC/V3
    :label: Expected
    :extension_properties: []
  :classification:
    :type: http://www.assero.co.uk/BusinessDomain#VariableClassification
    :id: M-CDISC_SDTMMODEL_C_QUALIFIER
    :namespace: http://www.assero.co.uk/MDRSdtmM/CDISC/V3
    :label: Qualifier
    :extension_properties: []
  :sub_classification:
    :type: http://www.assero.co.uk/BusinessDomain#VariableClassification
    :id: M-CDISC_SDTMMODEL_SC_RECORDQUALIFIER
    :namespace: http://www.assero.co.uk/MDRSdtmM/CDISC/V3
    :label: Record Qualifier
    :extension_properties: []
  :variable_ref:
    :type: http://www.assero.co.uk/BusinessOperational#CReference
    :id: D-ACME_VSDomain_V21_IGV1
    :namespace: http://www.assero.co.uk/MDRSdtmUD/ACME/V1
    :label: Based on Variable Reference
    :extension_properties: []
    :enabled: true
    :optional: false
    :ordinal: 1
    :local_label: ''
    :subject_ref:
      :namespace: http://www.assero.co.uk/MDRSdtmIgD/CDISC/V3
      :id: IG-CDISC_SDTMIGVS_VSBLFL
- :type: http://www.assero.co.uk/BusinessDomain#UserVariable
  :id: D-ACME_VSDomain_V22
  :namespace: http://www.assero.co.uk/MDRSdtmUD/ACME/V1
  :label: Derived Flag
  :extension_properties: []
  :ordinal: 22
  :rule: ''
  :name: VSDRVFL
  :notes: ''
  :format: ''
  :ct: NY
  :non_standard: false
  :comment: ''
  :length: 0
  :used: true
  :key_ordinal: 0
  :datatype:
    :type: http://www.assero.co.uk/BusinessDomain#VariableType
    :id: M-CDISC_SDTMMODEL_DT_CHAR
    :namespace: http://www.assero.co.uk/MDRSdtmM/CDISC/V3
    :label: Char
    :extension_properties: []
  :compliance:
    :type: http://www.assero.co.uk/BusinessDomain#VariableCompliance
    :id: IG-CDISC_SDTMIGVS_C_PERMISSIBLE
    :namespace: http://www.assero.co.uk/MDRSdtmIgD/CDISC/V3
    :label: Permissible
    :extension_properties: []
  :classification:
    :type: http://www.assero.co.uk/BusinessDomain#VariableClassification
    :id: M-CDISC_SDTMMODEL_C_QUALIFIER
    :namespace: http://www.assero.co.uk/MDRSdtmM/CDISC/V3
    :label: Qualifier
    :extension_properties: []
  :sub_classification:
    :type: http://www.assero.co.uk/BusinessDomain#VariableClassification
    :id: M-CDISC_SDTMMODEL_SC_RECORDQUALIFIER
    :namespace: http://www.assero.co.uk/MDRSdtmM/CDISC/V3
    :label: Record Qualifier
    :extension_properties: []
  :variable_ref:
    :type: http://www.assero.co.uk/BusinessOperational#CReference
    :id: D-ACME_VSDomain_V22_IGV1
    :namespace: http://www.assero.co.uk/MDRSdtmUD/ACME/V1
    :label: Based on Variable Reference
    :extension_properties: []
    :enabled: true
    :optional: false
    :ordinal: 1
    :local_label: ''
    :subject_ref:
      :namespace: http://www.assero.co.uk/MDRSdtmIgD/CDISC/V3
      :id: IG-CDISC_SDTMIGVS_VSDRVFL
- :type: http://www.assero.co.uk/BusinessDomain#UserVariable
  :id: D-ACME_VSDomain_V23
  :namespace: http://www.assero.co.uk/MDRSdtmUD/ACME/V1
  :label: Visit Number
  :extension_properties: []
  :ordinal: 23
  :rule: ''
  :name: VISITNUM
  :notes: ''
  :format: ''
  :ct: ''
  :non_standard: false
  :comment: ''
  :length: 0
  :used: true
  :key_ordinal: 0
  :datatype:
    :type: http://www.assero.co.uk/BusinessDomain#VariableType
    :id: M-CDISC_SDTMMODEL_DT_NUM
    :namespace: http://www.assero.co.uk/MDRSdtmM/CDISC/V3
    :label: Num
    :extension_properties: []
  :compliance:
    :type: http://www.assero.co.uk/BusinessDomain#VariableCompliance
    :id: IG-CDISC_SDTMIGVS_C_EXPECTED
    :namespace: http://www.assero.co.uk/MDRSdtmIgD/CDISC/V3
    :label: Expected
    :extension_properties: []
  :classification:
    :type: http://www.assero.co.uk/BusinessDomain#VariableClassification
    :id: M-CDISC_SDTMMODEL_C_TIMING
    :namespace: http://www.assero.co.uk/MDRSdtmM/CDISC/V3
    :label: Timing
    :extension_properties: []
  :sub_classification: {}
  :variable_ref:
    :type: http://www.assero.co.uk/BusinessOperational#CReference
    :id: D-ACME_VSDomain_V23_IGV1
    :namespace: http://www.assero.co.uk/MDRSdtmUD/ACME/V1
    :label: Based on Variable Reference
    :extension_properties: []
    :enabled: true
    :optional: false
    :ordinal: 1
    :local_label: ''
    :subject_ref:
      :namespace: http://www.assero.co.uk/MDRSdtmIgD/CDISC/V3
      :id: IG-CDISC_SDTMIGVS_VISITNUM
- :type: http://www.assero.co.uk/BusinessDomain#UserVariable
  :id: D-ACME_VSDomain_V24
  :namespace: http://www.assero.co.uk/MDRSdtmUD/ACME/V1
  :label: Visit Name
  :extension_properties: []
  :ordinal: 24
  :rule: ''
  :name: VISIT
  :notes: ''
  :format: ''
  :ct: ''
  :non_standard: false
  :comment: ''
  :length: 0
  :used: true
  :key_ordinal: 0
  :datatype:
    :type: http://www.assero.co.uk/BusinessDomain#VariableType
    :id: M-CDISC_SDTMMODEL_DT_CHAR
    :namespace: http://www.assero.co.uk/MDRSdtmM/CDISC/V3
    :label: Char
    :extension_properties: []
  :compliance:
    :type: http://www.assero.co.uk/BusinessDomain#VariableCompliance
    :id: IG-CDISC_SDTMIGVS_C_PERMISSIBLE
    :namespace: http://www.assero.co.uk/MDRSdtmIgD/CDISC/V3
    :label: Permissible
    :extension_properties: []
  :classification:
    :type: http://www.assero.co.uk/BusinessDomain#VariableClassification
    :id: M-CDISC_SDTMMODEL_C_TIMING
    :namespace: http://www.assero.co.uk/MDRSdtmM/CDISC/V3
    :label: Timing
    :extension_properties: []
  :sub_classification: {}
  :variable_ref:
    :type: http://www.assero.co.uk/BusinessOperational#CReference
    :id: D-ACME_VSDomain_V24_IGV1
    :namespace: http://www.assero.co.uk/MDRSdtmUD/ACME/V1
    :label: Based on Variable Reference
    :extension_properties: []
    :enabled: true
    :optional: false
    :ordinal: 1
    :local_label: ''
    :subject_ref:
      :namespace: http://www.assero.co.uk/MDRSdtmIgD/CDISC/V3
      :id: IG-CDISC_SDTMIGVS_VISIT
- :type: http://www.assero.co.uk/BusinessDomain#UserVariable
  :id: D-ACME_VSDomain_V25
  :namespace: http://www.assero.co.uk/MDRSdtmUD/ACME/V1
  :label: Planned Study Day of Visit
  :extension_properties: []
  :ordinal: 25
  :rule: ''
  :name: VISITDY
  :notes: ''
  :format: ''
  :ct: ''
  :non_standard: false
  :comment: ''
  :length: 0
  :used: true
  :key_ordinal: 0
  :datatype:
    :type: http://www.assero.co.uk/BusinessDomain#VariableType
    :id: M-CDISC_SDTMMODEL_DT_NUM
    :namespace: http://www.assero.co.uk/MDRSdtmM/CDISC/V3
    :label: Num
    :extension_properties: []
  :compliance:
    :type: http://www.assero.co.uk/BusinessDomain#VariableCompliance
    :id: IG-CDISC_SDTMIGVS_C_PERMISSIBLE
    :namespace: http://www.assero.co.uk/MDRSdtmIgD/CDISC/V3
    :label: Permissible
    :extension_properties: []
  :classification:
    :type: http://www.assero.co.uk/BusinessDomain#VariableClassification
    :id: M-CDISC_SDTMMODEL_C_TIMING
    :namespace: http://www.assero.co.uk/MDRSdtmM/CDISC/V3
    :label: Timing
    :extension_properties: []
  :sub_classification: {}
  :variable_ref:
    :type: http://www.assero.co.uk/BusinessOperational#CReference
    :id: D-ACME_VSDomain_V25_IGV1
    :namespace: http://www.assero.co.uk/MDRSdtmUD/ACME/V1
    :label: Based on Variable Reference
    :extension_properties: []
    :enabled: true
    :optional: false
    :ordinal: 1
    :local_label: ''
    :subject_ref:
      :namespace: http://www.assero.co.uk/MDRSdtmIgD/CDISC/V3
      :id: IG-CDISC_SDTMIGVS_VISITDY
- :type: http://www.assero.co.uk/BusinessDomain#UserVariable
  :id: D-ACME_VSDomain_V26
  :namespace: http://www.assero.co.uk/MDRSdtmUD/ACME/V1
  :label: Date/Time of Measurements
  :extension_properties: []
  :ordinal: 26
  :rule: ''
  :name: VSDTC
  :notes: ''
  :format: ISO 8601
  :ct: ''
  :non_standard: false
  :comment: ''
  :length: 0
  :used: true
  :key_ordinal: 0
  :datatype:
    :type: http://www.assero.co.uk/BusinessDomain#VariableType
    :id: M-CDISC_SDTMMODEL_DT_CHAR
    :namespace: http://www.assero.co.uk/MDRSdtmM/CDISC/V3
    :label: Char
    :extension_properties: []
  :compliance:
    :type: http://www.assero.co.uk/BusinessDomain#VariableCompliance
    :id: IG-CDISC_SDTMIGVS_C_EXPECTED
    :namespace: http://www.assero.co.uk/MDRSdtmIgD/CDISC/V3
    :label: Expected
    :extension_properties: []
  :classification:
    :type: http://www.assero.co.uk/BusinessDomain#VariableClassification
    :id: M-CDISC_SDTMMODEL_C_TIMING
    :namespace: http://www.assero.co.uk/MDRSdtmM/CDISC/V3
    :label: Timing
    :extension_properties: []
  :sub_classification: {}
  :variable_ref:
    :type: http://www.assero.co.uk/BusinessOperational#CReference
    :id: D-ACME_VSDomain_V26_IGV1
    :namespace: http://www.assero.co.uk/MDRSdtmUD/ACME/V1
    :label: Based on Variable Reference
    :extension_properties: []
    :enabled: true
    :optional: false
    :ordinal: 1
    :local_label: ''
    :subject_ref:
      :namespace: http://www.assero.co.uk/MDRSdtmIgD/CDISC/V3
      :id: IG-CDISC_SDTMIGVS_VSDTC
- :type: http://www.assero.co.uk/BusinessDomain#UserVariable
  :id: D-ACME_VSDomain_V27
  :namespace: http://www.assero.co.uk/MDRSdtmUD/ACME/V1
  :label: Study Day of Vital Signs
  :extension_properties: []
  :ordinal: 27
  :rule: ''
  :name: VSDY
  :notes: ''
  :format: ''
  :ct: ''
  :non_standard: false
  :comment: ''
  :length: 0
  :used: true
  :key_ordinal: 0
  :datatype:
    :type: http://www.assero.co.uk/BusinessDomain#VariableType
    :id: M-CDISC_SDTMMODEL_DT_NUM
    :namespace: http://www.assero.co.uk/MDRSdtmM/CDISC/V3
    :label: Num
    :extension_properties: []
  :compliance:
    :type: http://www.assero.co.uk/BusinessDomain#VariableCompliance
    :id: IG-CDISC_SDTMIGVS_C_PERMISSIBLE
    :namespace: http://www.assero.co.uk/MDRSdtmIgD/CDISC/V3
    :label: Permissible
    :extension_properties: []
  :classification:
    :type: http://www.assero.co.uk/BusinessDomain#VariableClassification
    :id: M-CDISC_SDTMMODEL_C_TIMING
    :namespace: http://www.assero.co.uk/MDRSdtmM/CDISC/V3
    :label: Timing
    :extension_properties: []
  :sub_classification: {}
  :variable_ref:
    :type: http://www.assero.co.uk/BusinessOperational#CReference
    :id: D-ACME_VSDomain_V27_IGV1
    :namespace: http://www.assero.co.uk/MDRSdtmUD/ACME/V1
    :label: Based on Variable Reference
    :extension_properties: []
    :enabled: true
    :optional: false
    :ordinal: 1
    :local_label: ''
    :subject_ref:
      :namespace: http://www.assero.co.uk/MDRSdtmIgD/CDISC/V3
      :id: IG-CDISC_SDTMIGVS_VSDY
- :type: http://www.assero.co.uk/BusinessDomain#UserVariable
  :id: D-ACME_VSDomain_V28
  :namespace: http://www.assero.co.uk/MDRSdtmUD/ACME/V1
  :label: Planned Time Point Name
  :extension_properties: []
  :ordinal: 28
  :rule: ''
  :name: VSTPT
  :notes: ''
  :format: ''
  :ct: ''
  :non_standard: false
  :comment: ''
  :length: 0
  :used: true
  :key_ordinal: 0
  :datatype:
    :type: http://www.assero.co.uk/BusinessDomain#VariableType
    :id: M-CDISC_SDTMMODEL_DT_CHAR
    :namespace: http://www.assero.co.uk/MDRSdtmM/CDISC/V3
    :label: Char
    :extension_properties: []
  :compliance:
    :type: http://www.assero.co.uk/BusinessDomain#VariableCompliance
    :id: IG-CDISC_SDTMIGVS_C_PERMISSIBLE
    :namespace: http://www.assero.co.uk/MDRSdtmIgD/CDISC/V3
    :label: Permissible
    :extension_properties: []
  :classification:
    :type: http://www.assero.co.uk/BusinessDomain#VariableClassification
    :id: M-CDISC_SDTMMODEL_C_TIMING
    :namespace: http://www.assero.co.uk/MDRSdtmM/CDISC/V3
    :label: Timing
    :extension_properties: []
  :sub_classification: {}
  :variable_ref:
    :type: http://www.assero.co.uk/BusinessOperational#CReference
    :id: D-ACME_VSDomain_V28_IGV1
    :namespace: http://www.assero.co.uk/MDRSdtmUD/ACME/V1
    :label: Based on Variable Reference
    :extension_properties: []
    :enabled: true
    :optional: false
    :ordinal: 1
    :local_label: ''
    :subject_ref:
      :namespace: http://www.assero.co.uk/MDRSdtmIgD/CDISC/V3
      :id: IG-CDISC_SDTMIGVS_VSTPT
- :type: http://www.assero.co.uk/BusinessDomain#UserVariable
  :id: D-ACME_VSDomain_V29
  :namespace: http://www.assero.co.uk/MDRSdtmUD/ACME/V1
  :label: Planned Time Point Number
  :extension_properties: []
  :ordinal: 29
  :rule: ''
  :name: VSTPTNUM
  :notes: ''
  :format: ''
  :ct: ''
  :non_standard: false
  :comment: ''
  :length: 0
  :used: true
  :key_ordinal: 0
  :datatype:
    :type: http://www.assero.co.uk/BusinessDomain#VariableType
    :id: M-CDISC_SDTMMODEL_DT_NUM
    :namespace: http://www.assero.co.uk/MDRSdtmM/CDISC/V3
    :label: Num
    :extension_properties: []
  :compliance:
    :type: http://www.assero.co.uk/BusinessDomain#VariableCompliance
    :id: IG-CDISC_SDTMIGVS_C_PERMISSIBLE
    :namespace: http://www.assero.co.uk/MDRSdtmIgD/CDISC/V3
    :label: Permissible
    :extension_properties: []
  :classification:
    :type: http://www.assero.co.uk/BusinessDomain#VariableClassification
    :id: M-CDISC_SDTMMODEL_C_TIMING
    :namespace: http://www.assero.co.uk/MDRSdtmM/CDISC/V3
    :label: Timing
    :extension_properties: []
  :sub_classification: {}
  :variable_ref:
    :type: http://www.assero.co.uk/BusinessOperational#CReference
    :id: D-ACME_VSDomain_V29_IGV1
    :namespace: http://www.assero.co.uk/MDRSdtmUD/ACME/V1
    :label: Based on Variable Reference
    :extension_properties: []
    :enabled: true
    :optional: false
    :ordinal: 1
    :local_label: ''
    :subject_ref:
      :namespace: http://www.assero.co.uk/MDRSdtmIgD/CDISC/V3
      :id: IG-CDISC_SDTMIGVS_VSTPTNUM
- :type: http://www.assero.co.uk/BusinessDomain#UserVariable
  :id: D-ACME_VSDomain_V30
  :namespace: http://www.assero.co.uk/MDRSdtmUD/ACME/V1
  :label: Planned Elapsed Time from Time Point Ref
  :extension_properties: []
  :ordinal: 30
  :rule: ''
  :name: VSELTM
  :notes: ''
  :format: ISO 8601
  :ct: ''
  :non_standard: false
  :comment: ''
  :length: 0
  :used: true
  :key_ordinal: 0
  :datatype:
    :type: http://www.assero.co.uk/BusinessDomain#VariableType
    :id: M-CDISC_SDTMMODEL_DT_CHAR
    :namespace: http://www.assero.co.uk/MDRSdtmM/CDISC/V3
    :label: Char
    :extension_properties: []
  :compliance:
    :type: http://www.assero.co.uk/BusinessDomain#VariableCompliance
    :id: IG-CDISC_SDTMIGVS_C_PERMISSIBLE
    :namespace: http://www.assero.co.uk/MDRSdtmIgD/CDISC/V3
    :label: Permissible
    :extension_properties: []
  :classification:
    :type: http://www.assero.co.uk/BusinessDomain#VariableClassification
    :id: M-CDISC_SDTMMODEL_C_TIMING
    :namespace: http://www.assero.co.uk/MDRSdtmM/CDISC/V3
    :label: Timing
    :extension_properties: []
  :sub_classification: {}
  :variable_ref:
    :type: http://www.assero.co.uk/BusinessOperational#CReference
    :id: D-ACME_VSDomain_V30_IGV1
    :namespace: http://www.assero.co.uk/MDRSdtmUD/ACME/V1
    :label: Based on Variable Reference
    :extension_properties: []
    :enabled: true
    :optional: false
    :ordinal: 1
    :local_label: ''
    :subject_ref:
      :namespace: http://www.assero.co.uk/MDRSdtmIgD/CDISC/V3
      :id: IG-CDISC_SDTMIGVS_VSELTM
- :type: http://www.assero.co.uk/BusinessDomain#UserVariable
  :id: D-ACME_VSDomain_V31
  :namespace: http://www.assero.co.uk/MDRSdtmUD/ACME/V1
  :label: Time Point Reference
  :extension_properties: []
  :ordinal: 31
  :rule: ''
  :name: VSTPTREF
  :notes: ''
  :format: ''
  :ct: ''
  :non_standard: false
  :comment: ''
  :length: 0
  :used: true
  :key_ordinal: 0
  :datatype:
    :type: http://www.assero.co.uk/BusinessDomain#VariableType
    :id: M-CDISC_SDTMMODEL_DT_CHAR
    :namespace: http://www.assero.co.uk/MDRSdtmM/CDISC/V3
    :label: Char
    :extension_properties: []
  :compliance:
    :type: http://www.assero.co.uk/BusinessDomain#VariableCompliance
    :id: IG-CDISC_SDTMIGVS_C_PERMISSIBLE
    :namespace: http://www.assero.co.uk/MDRSdtmIgD/CDISC/V3
    :label: Permissible
    :extension_properties: []
  :classification:
    :type: http://www.assero.co.uk/BusinessDomain#VariableClassification
    :id: M-CDISC_SDTMMODEL_C_TIMING
    :namespace: http://www.assero.co.uk/MDRSdtmM/CDISC/V3
    :label: Timing
    :extension_properties: []
  :sub_classification: {}
  :variable_ref:
    :type: http://www.assero.co.uk/BusinessOperational#CReference
    :id: D-ACME_VSDomain_V31_IGV1
    :namespace: http://www.assero.co.uk/MDRSdtmUD/ACME/V1
    :label: Based on Variable Reference
    :extension_properties: []
    :enabled: true
    :optional: false
    :ordinal: 1
    :local_label: ''
    :subject_ref:
      :namespace: http://www.assero.co.uk/MDRSdtmIgD/CDISC/V3
      :id: IG-CDISC_SDTMIGVS_VSTPTREF
- :type: http://www.assero.co.uk/BusinessDomain#UserVariable
  :id: D-ACME_VSDomain_V32
  :namespace: http://www.assero.co.uk/MDRSdtmUD/ACME/V1
  :label: Date/Time of Reference Time Point
  :extension_properties: []
  :ordinal: 32
  :rule: ''
  :name: VSRFTDTC
  :notes: ''
  :format: ISO 8601
  :ct: ''
  :non_standard: false
  :comment: ''
  :length: 0
  :used: true
  :key_ordinal: 0
  :datatype:
    :type: http://www.assero.co.uk/BusinessDomain#VariableType
    :id: M-CDISC_SDTMMODEL_DT_CHAR
    :namespace: http://www.assero.co.uk/MDRSdtmM/CDISC/V3
    :label: Char
    :extension_properties: []
  :compliance:
    :type: http://www.assero.co.uk/BusinessDomain#VariableCompliance
    :id: IG-CDISC_SDTMIGVS_C_PERMISSIBLE
    :namespace: http://www.assero.co.uk/MDRSdtmIgD/CDISC/V3
    :label: Permissible
    :extension_properties: []
  :classification:
    :type: http://www.assero.co.uk/BusinessDomain#VariableClassification
    :id: M-CDISC_SDTMMODEL_C_TIMING
    :namespace: http://www.assero.co.uk/MDRSdtmM/CDISC/V3
    :label: Timing
    :extension_properties: []
  :sub_classification: {}
  :variable_ref:
    :type: http://www.assero.co.uk/BusinessOperational#CReference
    :id: D-ACME_VSDomain_V32_IGV1
    :namespace: http://www.assero.co.uk/MDRSdtmUD/ACME/V1
    :label: Based on Variable Reference
    :extension_properties: []
    :enabled: true
    :optional: false
    :ordinal: 1
    :local_label: ''
    :subject_ref:
      :namespace: http://www.assero.co.uk/MDRSdtmIgD/CDISC/V3
      :id: IG-CDISC_SDTMIGVS_VSRFTDTC
:bc_refs:
- :type: http://www.assero.co.uk/BusinessOperational#BcReference
  :id: D-ACME_VSDomain_BCR3
  :namespace: http://www.assero.co.uk/MDRSdtmUD/ACME/V1
  :label: BC Reference
  :extension_properties: []
  :enabled: true
  :optional: false
  :ordinal: 3
  :local_label: ''
  :subject_ref:
    :namespace: http://www.assero.co.uk/MDRBCs/V1
    :id: BC-ACME_BC_C25298
- :type: http://www.assero.co.uk/BusinessOperational#BcReference
  :id: D-ACME_VSDomain_BCR2
  :namespace: http://www.assero.co.uk/MDRSdtmUD/ACME/V1
  :label: BC Reference
  :extension_properties: []
  :enabled: true
  :optional: false
  :ordinal: 2
  :local_label: ''
  :subject_ref:
    :namespace: http://www.assero.co.uk/MDRBCs/V1
    :id: BC-ACME_BC_C25208
- :type: http://www.assero.co.uk/BusinessOperational#BcReference
  :id: D-ACME_VSDomain_BCR4
  :namespace: http://www.assero.co.uk/MDRSdtmUD/ACME/V1
  :label: BC Reference
  :extension_properties: []
  :enabled: true
  :optional: false
  :ordinal: 4
  :local_label: ''
  :subject_ref:
    :namespace: http://www.assero.co.uk/MDRBCs/V1
    :id: BC-ACME_BC_C25299
