{"sdtm_user_domain": {"namespace": "http://www.assero.co.uk/MDRSdtmUD/ACME/V1"}, "data": {"operation": {"action": "UPDATE", "new_version": 1, "new_state": "Incomplete", "identifier_edit": false}, "managed_item": {"type": "http://www.assero.co.uk/BusinessDomain#UserDomain", "id": "D-ACME_DSDomain", "namespace": "http://www.assero.co.uk/MDRSdtmUD/ACME/V1", "label": "Clone DS", "extension_properties": [], "origin": "", "change_description": "", "creation_date": "2016-12-31T09:13:12+00:00", "last_changed_date": "2017-01-02T09:13:32+00:00", "explanatory_comment": "", "registration_state": {"namespace": "http://www.assero.co.uk/MDRItems", "id": "RS-ACME_DSDomain-1", "registration_authority": {"id": "RA-123456789", "number": "123456789", "scheme": "DUNS", "owner": true, "namespace": {"namespace": "http://www.assero.co.uk/MDRItems", "id": "NS-ACME", "name": "ACME Pharma", "shortName": "ACME"}}, "registration_status": "Incomplete", "administrative_note": "", "effective_date": "2016-01-01T00:00:00+00:00", "until_date": "2016-01-01T00:00:00+00:00", "current": false, "unresolved_issue": "", "administrative_status": "", "previous_state": "Incomplete"}, "scoped_identifier": {"id": "SI-ACME_DSDomain-1", "identifier": "DS Domain", "version_label": "", "version": 1, "namespace": {"namespace": "http://www.assero.co.uk/MDRItems", "id": "NS-ACME", "name": "ACME Pharma", "shortName": "ACME"}}, "prefix": "DS", "structure": "", "notes": "Notes for DS", "model_ref": {"type": "http://www.assero.co.uk/BusinessOperational#TReference", "id": "D-ACME_DSDomain_MD1", "namespace": "http://www.assero.co.uk/MDRSdtmUD/ACME/V1", "label": "Based on Domain Reference", "extension_properties": [], "enabled": true, "optional": false, "ordinal": 1, "local_label": "", "subject_ref": {"namespace": "http://www.assero.co.uk/MDRSdtmMd/CDISC/V3", "id": "M-CDISC_SDTMMODEL_EVENTS"}}, "ig_ref": {"type": "http://www.assero.co.uk/BusinessOperational#TReference", "id": "D-ACME_DSDomain_IGD1", "namespace": "http://www.assero.co.uk/MDRSdtmUD/ACME/V1", "label": "Based on Domain Reference", "extension_properties": [], "enabled": true, "optional": false, "ordinal": 1, "local_label": "", "subject_ref": {"namespace": "http://www.assero.co.uk/MDRSdtmIgD/CDISC/V3", "id": "IG-CDISC_SDTMIGDS"}}, "children": [{"type": "http://www.assero.co.uk/BusinessDomain#UserVariable", "id": "D-ACME_DSDomain_V1", "namespace": "http://www.assero.co.uk/MDRSdtmUD/ACME/V1", "label": "Study Identifier", "extension_properties": [], "ordinal": 1, "rule": "", "name": "STUDYID", "notes": "", "format": "", "ct": "", "non_standard": false, "comment": "", "length": 0, "used": true, "key_ordinal": 0, "datatype": {"type": "http://www.assero.co.uk/BusinessDomain#VariableType", "id": "M-CDISC_SDTMMODEL_DT_CHAR", "namespace": "http://www.assero.co.uk/MDRSdtmM/CDISC/V3", "label": "Char", "extension_properties": []}, "compliance": {"type": "http://www.assero.co.uk/BusinessDomain#VariableCompliance", "id": "IG-CDISC_SDTMIGDS_C_REQUIRED", "namespace": "http://www.assero.co.uk/MDRSdtmIgD/CDISC/V3", "label": "Required", "extension_properties": []}, "classification": {"type": "http://www.assero.co.uk/BusinessDomain#VariableClassification", "id": "M-CDISC_SDTMMODEL_C_IDENTIFIER", "namespace": "http://www.assero.co.uk/MDRSdtmM/CDISC/V3", "label": "Identifier", "extension_properties": []}, "variable_ref": {"type": "http://www.assero.co.uk/BusinessOperational#CReference", "id": "D-ACME_DSDomain_V1_IGV1", "namespace": "http://www.assero.co.uk/MDRSdtmUD/ACME/V1", "label": "Based on Variable Reference", "extension_properties": [], "enabled": true, "optional": false, "ordinal": 1, "local_label": "", "subject_ref": {"namespace": "http://www.assero.co.uk/MDRSdtmIgD/CDISC/V3", "id": "IG-CDISC_SDTMIGDS_STUDYID"}}}, {"type": "http://www.assero.co.uk/BusinessDomain#UserVariable", "id": "D-ACME_DSDomain_V2", "namespace": "http://www.assero.co.uk/MDRSdtmUD/ACME/V1", "label": "Domain Abbreviation", "extension_properties": [], "ordinal": 2, "rule": "", "name": "DOMAIN", "notes": "Notes for domain", "format": "", "ct": "DOMAIN", "non_standard": false, "comment": "", "length": 0, "used": true, "key_ordinal": 0, "datatype": {"type": "http://www.assero.co.uk/BusinessDomain#VariableType", "id": "M-CDISC_SDTMMODEL_DT_CHAR", "namespace": "http://www.assero.co.uk/MDRSdtmM/CDISC/V3", "label": "Char", "extension_properties": []}, "compliance": {"type": "http://www.assero.co.uk/BusinessDomain#VariableCompliance", "id": "IG-CDISC_SDTMIGDS_C_REQUIRED", "namespace": "http://www.assero.co.uk/MDRSdtmIgD/CDISC/V3", "label": "Required", "extension_properties": []}, "classification": {"type": "http://www.assero.co.uk/BusinessDomain#VariableClassification", "id": "M-CDISC_SDTMMODEL_C_IDENTIFIER", "namespace": "http://www.assero.co.uk/MDRSdtmM/CDISC/V3", "label": "Identifier", "extension_properties": []}, "variable_ref": {"type": "http://www.assero.co.uk/BusinessOperational#CReference", "id": "D-ACME_DSDomain_V2_IGV1", "namespace": "http://www.assero.co.uk/MDRSdtmUD/ACME/V1", "label": "Based on Variable Reference", "extension_properties": [], "enabled": true, "optional": false, "ordinal": 1, "local_label": "", "subject_ref": {"namespace": "http://www.assero.co.uk/MDRSdtmIgD/CDISC/V3", "id": "IG-CDISC_SDTMIGDS_DOMAIN"}}}, {"type": "http://www.assero.co.uk/BusinessDomain#UserVariable", "id": "D-ACME_DSDomain_V3", "namespace": "http://www.assero.co.uk/MDRSdtmUD/ACME/V1", "label": "Unique Subject Identifier", "extension_properties": [], "ordinal": 3, "rule": "", "name": "USUBJID", "notes": "", "format": "", "ct": "", "non_standard": false, "comment": "", "length": 0, "used": true, "key_ordinal": 0, "datatype": {"type": "http://www.assero.co.uk/BusinessDomain#VariableType", "id": "M-CDISC_SDTMMODEL_DT_CHAR", "namespace": "http://www.assero.co.uk/MDRSdtmM/CDISC/V3", "label": "Char", "extension_properties": []}, "compliance": {"type": "http://www.assero.co.uk/BusinessDomain#VariableCompliance", "id": "IG-CDISC_SDTMIGDS_C_REQUIRED", "namespace": "http://www.assero.co.uk/MDRSdtmIgD/CDISC/V3", "label": "Required", "extension_properties": []}, "classification": {"type": "http://www.assero.co.uk/BusinessDomain#VariableClassification", "id": "M-CDISC_SDTMMODEL_C_IDENTIFIER", "namespace": "http://www.assero.co.uk/MDRSdtmM/CDISC/V3", "label": "Identifier", "extension_properties": []}, "variable_ref": {"type": "http://www.assero.co.uk/BusinessOperational#CReference", "id": "D-ACME_DSDomain_V3_IGV1", "namespace": "http://www.assero.co.uk/MDRSdtmUD/ACME/V1", "label": "Based on Variable Reference", "extension_properties": [], "enabled": true, "optional": false, "ordinal": 1, "local_label": "", "subject_ref": {"namespace": "http://www.assero.co.uk/MDRSdtmIgD/CDISC/V3", "id": "IG-CDISC_SDTMIGDS_USUBJID"}}}, {"type": "http://www.assero.co.uk/BusinessDomain#UserVariable", "id": "D-ACME_DSDomain_V4", "namespace": "http://www.assero.co.uk/MDRSdtmUD/ACME/V1", "label": "Sequence Number", "extension_properties": [], "ordinal": 4, "rule": "", "name": "DSSEQ", "notes": "", "format": "", "ct": "", "non_standard": false, "comment": "", "length": 0, "used": true, "key_ordinal": 0, "datatype": {"type": "http://www.assero.co.uk/BusinessDomain#VariableType", "id": "M-CDISC_SDTMMODEL_DT_NUM", "namespace": "http://www.assero.co.uk/MDRSdtmM/CDISC/V3", "label": "Num", "extension_properties": []}, "compliance": {"type": "http://www.assero.co.uk/BusinessDomain#VariableCompliance", "id": "IG-CDISC_SDTMIGDS_C_REQUIRED", "namespace": "http://www.assero.co.uk/MDRSdtmIgD/CDISC/V3", "label": "Required", "extension_properties": []}, "classification": {"type": "http://www.assero.co.uk/BusinessDomain#VariableClassification", "id": "M-CDISC_SDTMMODEL_C_IDENTIFIER", "namespace": "http://www.assero.co.uk/MDRSdtmM/CDISC/V3", "label": "Identifier", "extension_properties": []}, "variable_ref": {"type": "http://www.assero.co.uk/BusinessOperational#CReference", "id": "D-ACME_DSDomain_V4_IGV1", "namespace": "http://www.assero.co.uk/MDRSdtmUD/ACME/V1", "label": "Based on Variable Reference", "extension_properties": [], "enabled": true, "optional": false, "ordinal": 1, "local_label": "", "subject_ref": {"namespace": "http://www.assero.co.uk/MDRSdtmIgD/CDISC/V3", "id": "IG-CDISC_SDTMIGDS_DSSEQ"}}}, {"type": "http://www.assero.co.uk/BusinessDomain#UserVariable", "id": "D-ACME_DSDomain_V5", "namespace": "http://www.assero.co.uk/MDRSdtmUD/ACME/V1", "label": "Group ID", "extension_properties": [], "ordinal": 5, "rule": "", "name": "DSGRPID", "notes": "Notes for GRPID extended", "format": "", "ct": "", "non_standard": false, "comment": "", "length": 0, "used": true, "key_ordinal": 0, "datatype": {"type": "http://www.assero.co.uk/BusinessDomain#VariableType", "id": "M-CDISC_SDTMMODEL_DT_CHAR", "namespace": "http://www.assero.co.uk/MDRSdtmM/CDISC/V3", "label": "Char", "extension_properties": []}, "compliance": {"type": "http://www.assero.co.uk/BusinessDomain#VariableCompliance", "id": "IG-CDISC_SDTMIGDS_C_PERMISSIBLE", "namespace": "http://www.assero.co.uk/MDRSdtmIgD/CDISC/V3", "label": "Permissible", "extension_properties": []}, "classification": {"type": "http://www.assero.co.uk/BusinessDomain#VariableClassification", "id": "M-CDISC_SDTMMODEL_C_IDENTIFIER", "namespace": "http://www.assero.co.uk/MDRSdtmM/CDISC/V3", "label": "Identifier", "extension_properties": []}, "variable_ref": {"type": "http://www.assero.co.uk/BusinessOperational#CReference", "id": "D-ACME_DSDomain_V5_IGV1", "namespace": "http://www.assero.co.uk/MDRSdtmUD/ACME/V1", "label": "Based on Variable Reference", "extension_properties": [], "enabled": true, "optional": false, "ordinal": 1, "local_label": "", "subject_ref": {"namespace": "http://www.assero.co.uk/MDRSdtmIgD/CDISC/V3", "id": "IG-CDISC_SDTMIGDS_DSGRPID"}}}, {"type": "http://www.assero.co.uk/BusinessDomain#UserVariable", "id": "D-ACME_DSDomain_V6", "namespace": "http://www.assero.co.uk/MDRSdtmUD/ACME/V1", "label": "Reference ID", "extension_properties": [], "ordinal": 6, "rule": "", "name": "DSREFID", "notes": "", "format": "", "ct": "", "non_standard": false, "comment": "", "length": 0, "used": true, "key_ordinal": 0, "datatype": {"type": "http://www.assero.co.uk/BusinessDomain#VariableType", "id": "M-CDISC_SDTMMODEL_DT_CHAR", "namespace": "http://www.assero.co.uk/MDRSdtmM/CDISC/V3", "label": "Char", "extension_properties": []}, "compliance": {"type": "http://www.assero.co.uk/BusinessDomain#VariableCompliance", "id": "IG-CDISC_SDTMIGDS_C_PERMISSIBLE", "namespace": "http://www.assero.co.uk/MDRSdtmIgD/CDISC/V3", "label": "Permissible", "extension_properties": []}, "classification": {"type": "http://www.assero.co.uk/BusinessDomain#VariableClassification", "id": "M-CDISC_SDTMMODEL_C_IDENTIFIER", "namespace": "http://www.assero.co.uk/MDRSdtmM/CDISC/V3", "label": "Identifier", "extension_properties": []}, "variable_ref": {"type": "http://www.assero.co.uk/BusinessOperational#CReference", "id": "D-ACME_DSDomain_V6_IGV1", "namespace": "http://www.assero.co.uk/MDRSdtmUD/ACME/V1", "label": "Based on Variable Reference", "extension_properties": [], "enabled": true, "optional": false, "ordinal": 1, "local_label": "", "subject_ref": {"namespace": "http://www.assero.co.uk/MDRSdtmIgD/CDISC/V3", "id": "IG-CDISC_SDTMIGDS_DSREFID"}}}, {"type": "http://www.assero.co.uk/BusinessDomain#UserVariable", "id": "D-ACME_DSDomain_V7", "namespace": "http://www.assero.co.uk/MDRSdtmUD/ACME/V1", "label": "Sponsor-Defined Identifier", "extension_properties": [], "ordinal": 7, "rule": "", "name": "DSSPID", "notes": "", "format": "", "ct": "", "non_standard": false, "comment": "", "length": 0, "used": true, "key_ordinal": 0, "datatype": {"type": "http://www.assero.co.uk/BusinessDomain#VariableType", "id": "M-CDISC_SDTMMODEL_DT_CHAR", "namespace": "http://www.assero.co.uk/MDRSdtmM/CDISC/V3", "label": "Char", "extension_properties": []}, "compliance": {"type": "http://www.assero.co.uk/BusinessDomain#VariableCompliance", "id": "IG-CDISC_SDTMIGDS_C_PERMISSIBLE", "namespace": "http://www.assero.co.uk/MDRSdtmIgD/CDISC/V3", "label": "Permissible", "extension_properties": []}, "classification": {"type": "http://www.assero.co.uk/BusinessDomain#VariableClassification", "id": "M-CDISC_SDTMMODEL_C_IDENTIFIER", "namespace": "http://www.assero.co.uk/MDRSdtmM/CDISC/V3", "label": "Identifier", "extension_properties": []}, "variable_ref": {"type": "http://www.assero.co.uk/BusinessOperational#CReference", "id": "D-ACME_DSDomain_V7_IGV1", "namespace": "http://www.assero.co.uk/MDRSdtmUD/ACME/V1", "label": "Based on Variable Reference", "extension_properties": [], "enabled": true, "optional": false, "ordinal": 1, "local_label": "", "subject_ref": {"namespace": "http://www.assero.co.uk/MDRSdtmIgD/CDISC/V3", "id": "IG-CDISC_SDTMIGDS_DSSPID"}}}, {"type": "http://www.assero.co.uk/BusinessDomain#UserVariable", "id": "D-ACME_DSDomain_V8", "namespace": "http://www.assero.co.uk/MDRSdtmUD/ACME/V1", "label": "Reported Term for the Disposition Event", "extension_properties": [], "ordinal": 8, "rule": "", "name": "DSTERM", "notes": "", "format": "", "ct": "", "non_standard": false, "comment": "", "length": 0, "used": true, "key_ordinal": 0, "datatype": {"type": "http://www.assero.co.uk/BusinessDomain#VariableType", "id": "M-CDISC_SDTMMODEL_DT_CHAR", "namespace": "http://www.assero.co.uk/MDRSdtmM/CDISC/V3", "label": "Char", "extension_properties": []}, "compliance": {"type": "http://www.assero.co.uk/BusinessDomain#VariableCompliance", "id": "IG-CDISC_SDTMIGDS_C_REQUIRED", "namespace": "http://www.assero.co.uk/MDRSdtmIgD/CDISC/V3", "label": "Required", "extension_properties": []}, "classification": {"type": "http://www.assero.co.uk/BusinessDomain#VariableClassification", "id": "M-CDISC_SDTMMODEL_C_TOPIC", "namespace": "http://www.assero.co.uk/MDRSdtmM/CDISC/V3", "label": "Topic", "extension_properties": []}, "variable_ref": {"type": "http://www.assero.co.uk/BusinessOperational#CReference", "id": "D-ACME_DSDomain_V8_IGV1", "namespace": "http://www.assero.co.uk/MDRSdtmUD/ACME/V1", "label": "Based on Variable Reference", "extension_properties": [], "enabled": true, "optional": false, "ordinal": 1, "local_label": "", "subject_ref": {"namespace": "http://www.assero.co.uk/MDRSdtmIgD/CDISC/V3", "id": "IG-CDISC_SDTMIGDS_DSTERM"}}}, {"type": "http://www.assero.co.uk/BusinessDomain#UserVariable", "id": "D-ACME_DSDomain_V9", "namespace": "http://www.assero.co.uk/MDRSdtmUD/ACME/V1", "label": "Standardized Disposition Term", "extension_properties": [], "ordinal": 9, "rule": "", "name": "DSDECOD", "notes": "", "format": "", "ct": "NCOMPLT", "non_standard": false, "comment": "", "length": 0, "used": true, "key_ordinal": 0, "datatype": {"type": "http://www.assero.co.uk/BusinessDomain#VariableType", "id": "M-CDISC_SDTMMODEL_DT_CHAR", "namespace": "http://www.assero.co.uk/MDRSdtmM/CDISC/V3", "label": "Char", "extension_properties": []}, "compliance": {"type": "http://www.assero.co.uk/BusinessDomain#VariableCompliance", "id": "IG-CDISC_SDTMIGDS_C_REQUIRED", "namespace": "http://www.assero.co.uk/MDRSdtmIgD/CDISC/V3", "label": "Required", "extension_properties": []}, "classification": {"type": "http://www.assero.co.uk/BusinessDomain#VariableClassification", "id": "M-CDISC_SDTMMODEL_C_QUALIFIER", "namespace": "http://www.assero.co.uk/MDRSdtmM/CDISC/V3", "label": "Qualifier", "extension_properties": []}, "sub_classification": {"type": "http://www.assero.co.uk/BusinessDomain#VariableClassification", "id": "M-CDISC_SDTMMODEL_SC_SYNONYMQUALIFIER", "namespace": "http://www.assero.co.uk/MDRSdtmM/CDISC/V3", "label": "Synonym Qualifier", "extension_properties": []}, "variable_ref": {"type": "http://www.assero.co.uk/BusinessOperational#CReference", "id": "D-ACME_DSDomain_V9_IGV1", "namespace": "http://www.assero.co.uk/MDRSdtmUD/ACME/V1", "label": "Based on Variable Reference", "extension_properties": [], "enabled": true, "optional": false, "ordinal": 1, "local_label": "", "subject_ref": {"namespace": "http://www.assero.co.uk/MDRSdtmIgD/CDISC/V3", "id": "IG-CDISC_SDTMIGDS_DSDECOD"}}}, {"type": "http://www.assero.co.uk/BusinessDomain#UserVariable", "id": "D-ACME_DSDomain_V10", "namespace": "http://www.assero.co.uk/MDRSdtmUD/ACME/V1", "label": "Category for Disposition Event", "extension_properties": [], "ordinal": 10, "rule": "", "name": "DSCAT", "notes": "", "format": "", "ct": "DSCAT", "non_standard": false, "comment": "", "length": 0, "used": true, "key_ordinal": 0, "datatype": {"type": "http://www.assero.co.uk/BusinessDomain#VariableType", "id": "M-CDISC_SDTMMODEL_DT_CHAR", "namespace": "http://www.assero.co.uk/MDRSdtmM/CDISC/V3", "label": "Char", "extension_properties": []}, "compliance": {"type": "http://www.assero.co.uk/BusinessDomain#VariableCompliance", "id": "IG-CDISC_SDTMIGDS_C_EXPECTED", "namespace": "http://www.assero.co.uk/MDRSdtmIgD/CDISC/V3", "label": "Expected", "extension_properties": []}, "classification": {"type": "http://www.assero.co.uk/BusinessDomain#VariableClassification", "id": "M-CDISC_SDTMMODEL_C_QUALIFIER", "namespace": "http://www.assero.co.uk/MDRSdtmM/CDISC/V3", "label": "Qualifier", "extension_properties": []}, "sub_classification": {"type": "http://www.assero.co.uk/BusinessDomain#VariableClassification", "id": "M-CDISC_SDTMMODEL_SC_GROUPINGQUALIFIER", "namespace": "http://www.assero.co.uk/MDRSdtmM/CDISC/V3", "label": "Grouping Qualifier", "extension_properties": []}, "variable_ref": {"type": "http://www.assero.co.uk/BusinessOperational#CReference", "id": "D-ACME_DSDomain_V10_IGV1", "namespace": "http://www.assero.co.uk/MDRSdtmUD/ACME/V1", "label": "Based on Variable Reference", "extension_properties": [], "enabled": true, "optional": false, "ordinal": 1, "local_label": "", "subject_ref": {"namespace": "http://www.assero.co.uk/MDRSdtmIgD/CDISC/V3", "id": "IG-CDISC_SDTMIGDS_DSCAT"}}}, {"type": "http://www.assero.co.uk/BusinessDomain#UserVariable", "id": "D-ACME_DSDomain_V11", "namespace": "http://www.assero.co.uk/MDRSdtmUD/ACME/V1", "label": "Subcategory for Disposition Event", "extension_properties": [], "ordinal": 11, "rule": "", "name": "DSSCAT", "notes": "", "format": "", "ct": "", "non_standard": false, "comment": "", "length": 0, "used": true, "key_ordinal": 0, "datatype": {"type": "http://www.assero.co.uk/BusinessDomain#VariableType", "id": "M-CDISC_SDTMMODEL_DT_CHAR", "namespace": "http://www.assero.co.uk/MDRSdtmM/CDISC/V3", "label": "Char", "extension_properties": []}, "compliance": {"type": "http://www.assero.co.uk/BusinessDomain#VariableCompliance", "id": "IG-CDISC_SDTMIGDS_C_PERMISSIBLE", "namespace": "http://www.assero.co.uk/MDRSdtmIgD/CDISC/V3", "label": "Permissible", "extension_properties": []}, "classification": {"type": "http://www.assero.co.uk/BusinessDomain#VariableClassification", "id": "M-CDISC_SDTMMODEL_C_QUALIFIER", "namespace": "http://www.assero.co.uk/MDRSdtmM/CDISC/V3", "label": "Qualifier", "extension_properties": []}, "sub_classification": {"type": "http://www.assero.co.uk/BusinessDomain#VariableClassification", "id": "M-CDISC_SDTMMODEL_SC_GROUPINGQUALIFIER", "namespace": "http://www.assero.co.uk/MDRSdtmM/CDISC/V3", "label": "Grouping Qualifier", "extension_properties": []}, "variable_ref": {"type": "http://www.assero.co.uk/BusinessOperational#CReference", "id": "D-ACME_DSDomain_V11_IGV1", "namespace": "http://www.assero.co.uk/MDRSdtmUD/ACME/V1", "label": "Based on Variable Reference", "extension_properties": [], "enabled": true, "optional": false, "ordinal": 1, "local_label": "", "subject_ref": {"namespace": "http://www.assero.co.uk/MDRSdtmIgD/CDISC/V3", "id": "IG-CDISC_SDTMIGDS_DSSCAT"}}}, {"type": "http://www.assero.co.uk/BusinessDomain#UserVariable", "id": "D-ACME_DSDomain_V12", "namespace": "http://www.assero.co.uk/MDRSdtmUD/ACME/V1", "label": "Epoch", "extension_properties": [], "ordinal": 12, "rule": "", "name": "EPOCH", "notes": "", "format": "", "ct": "EPOCH", "non_standard": false, "comment": "", "length": 0, "used": true, "key_ordinal": 0, "datatype": {"type": "http://www.assero.co.uk/BusinessDomain#VariableType", "id": "M-CDISC_SDTMMODEL_DT_CHAR", "namespace": "http://www.assero.co.uk/MDRSdtmM/CDISC/V3", "label": "Char", "extension_properties": []}, "compliance": {"type": "http://www.assero.co.uk/BusinessDomain#VariableCompliance", "id": "IG-CDISC_SDTMIGDS_C_PERMISSIBLE", "namespace": "http://www.assero.co.uk/MDRSdtmIgD/CDISC/V3", "label": "Permissible", "extension_properties": []}, "classification": {"type": "http://www.assero.co.uk/BusinessDomain#VariableClassification", "id": "M-CDISC_SDTMMODEL_C_TIMING", "namespace": "http://www.assero.co.uk/MDRSdtmM/CDISC/V3", "label": "Timing", "extension_properties": []}, "variable_ref": {"type": "http://www.assero.co.uk/BusinessOperational#CReference", "id": "D-ACME_DSDomain_V12_IGV1", "namespace": "http://www.assero.co.uk/MDRSdtmUD/ACME/V1", "label": "Based on Variable Reference", "extension_properties": [], "enabled": true, "optional": false, "ordinal": 1, "local_label": "", "subject_ref": {"namespace": "http://www.assero.co.uk/MDRSdtmIgD/CDISC/V3", "id": "IG-CDISC_SDTMIGDS_EPOCH"}}}, {"type": "http://www.assero.co.uk/BusinessDomain#UserVariable", "id": "D-ACME_DSDomain_V13", "namespace": "http://www.assero.co.uk/MDRSdtmUD/ACME/V1", "label": "Date/Time of Collection", "extension_properties": [], "ordinal": 13, "rule": "", "name": "DSDTC", "notes": "", "format": "ISO 8601", "ct": "", "non_standard": false, "comment": "", "length": 0, "used": true, "key_ordinal": 0, "datatype": {"type": "http://www.assero.co.uk/BusinessDomain#VariableType", "id": "M-CDISC_SDTMMODEL_DT_CHAR", "namespace": "http://www.assero.co.uk/MDRSdtmM/CDISC/V3", "label": "Char", "extension_properties": []}, "compliance": {"type": "http://www.assero.co.uk/BusinessDomain#VariableCompliance", "id": "IG-CDISC_SDTMIGDS_C_PERMISSIBLE", "namespace": "http://www.assero.co.uk/MDRSdtmIgD/CDISC/V3", "label": "Permissible", "extension_properties": []}, "classification": {"type": "http://www.assero.co.uk/BusinessDomain#VariableClassification", "id": "M-CDISC_SDTMMODEL_C_TIMING", "namespace": "http://www.assero.co.uk/MDRSdtmM/CDISC/V3", "label": "Timing", "extension_properties": []}, "variable_ref": {"type": "http://www.assero.co.uk/BusinessOperational#CReference", "id": "D-ACME_DSDomain_V13_IGV1", "namespace": "http://www.assero.co.uk/MDRSdtmUD/ACME/V1", "label": "Based on Variable Reference", "extension_properties": [], "enabled": true, "optional": false, "ordinal": 1, "local_label": "", "subject_ref": {"namespace": "http://www.assero.co.uk/MDRSdtmIgD/CDISC/V3", "id": "IG-CDISC_SDTMIGDS_DSDTC"}}}, {"type": "http://www.assero.co.uk/BusinessDomain#UserVariable", "id": "D-ACME_DSDomain_V14", "namespace": "http://www.assero.co.uk/MDRSdtmUD/ACME/V1", "label": "Start Date/Time of Disposition Event", "extension_properties": [], "ordinal": 14, "rule": "", "name": "DSSTDTC", "notes": "", "format": "ISO 8601", "ct": "", "non_standard": false, "comment": "", "length": 0, "used": true, "key_ordinal": 0, "datatype": {"type": "http://www.assero.co.uk/BusinessDomain#VariableType", "id": "M-CDISC_SDTMMODEL_DT_CHAR", "namespace": "http://www.assero.co.uk/MDRSdtmM/CDISC/V3", "label": "Char", "extension_properties": []}, "compliance": {"type": "http://www.assero.co.uk/BusinessDomain#VariableCompliance", "id": "IG-CDISC_SDTMIGDS_C_EXPECTED", "namespace": "http://www.assero.co.uk/MDRSdtmIgD/CDISC/V3", "label": "Expected", "extension_properties": []}, "classification": {"type": "http://www.assero.co.uk/BusinessDomain#VariableClassification", "id": "M-CDISC_SDTMMODEL_C_TIMING", "namespace": "http://www.assero.co.uk/MDRSdtmM/CDISC/V3", "label": "Timing", "extension_properties": []}, "variable_ref": {"type": "http://www.assero.co.uk/BusinessOperational#CReference", "id": "D-ACME_DSDomain_V14_IGV1", "namespace": "http://www.assero.co.uk/MDRSdtmUD/ACME/V1", "label": "Based on Variable Reference", "extension_properties": [], "enabled": true, "optional": false, "ordinal": 1, "local_label": "", "subject_ref": {"namespace": "http://www.assero.co.uk/MDRSdtmIgD/CDISC/V3", "id": "IG-CDISC_SDTMIGDS_DSSTDTC"}}}, {"type": "http://www.assero.co.uk/BusinessDomain#UserVariable", "id": "D-ACME_DSDomain_V15", "namespace": "http://www.assero.co.uk/MDRSdtmUD/ACME/V1", "label": "Study Day of Start of Disposition Event", "extension_properties": [], "ordinal": 15, "rule": "", "name": "DSSTDY", "notes": "", "format": "", "ct": "", "non_standard": false, "comment": "", "length": 0, "used": true, "key_ordinal": 0, "datatype": {"type": "http://www.assero.co.uk/BusinessDomain#VariableType", "id": "M-CDISC_SDTMMODEL_DT_NUM", "namespace": "http://www.assero.co.uk/MDRSdtmM/CDISC/V3", "label": "Num", "extension_properties": []}, "compliance": {"type": "http://www.assero.co.uk/BusinessDomain#VariableCompliance", "id": "IG-CDISC_SDTMIGDS_C_PERMISSIBLE", "namespace": "http://www.assero.co.uk/MDRSdtmIgD/CDISC/V3", "label": "Permissible", "extension_properties": []}, "classification": {"type": "http://www.assero.co.uk/BusinessDomain#VariableClassification", "id": "M-CDISC_SDTMMODEL_C_TIMING", "namespace": "http://www.assero.co.uk/MDRSdtmM/CDISC/V3", "label": "Timing", "extension_properties": []}, "variable_ref": {"type": "http://www.assero.co.uk/BusinessOperational#CReference", "id": "D-ACME_DSDomain_V15_IGV1", "namespace": "http://www.assero.co.uk/MDRSdtmUD/ACME/V1", "label": "Based on Variable Reference", "extension_properties": [], "enabled": true, "optional": false, "ordinal": 1, "local_label": "", "subject_ref": {"namespace": "http://www.assero.co.uk/MDRSdtmIgD/CDISC/V3", "id": "IG-CDISC_SDTMIGDS_DSSTDY"}}}], "bc_refs": []}}, "id": "D-ACME_DSDomain"}