PREFIX : <http://www.assero.co.uk/MDRSdtmUD/ACME/V1#>
PREFIX isoR: <http://www.assero.co.uk/ISO11179Registration#>
PREFIX mdrItems: <http://www.assero.co.uk/MDRItems#>
PREFIX isoI: <http://www.assero.co.uk/ISO11179Identification#>
PREFIX isoT: <http://www.assero.co.uk/ISO11179Types#>
PREFIX bd: <http://www.assero.co.uk/BusinessDomain#>
PREFIX bo: <http://www.assero.co.uk/BusinessOperational#>
PREFIX rdf: <http://www.w3.org/1999/02/22-rdf-syntax-ns#>
PREFIX rdfs: <http://www.w3.org/2000/01/rdf-schema#>
PREFIX xsd: <http://www.w3.org/2001/XMLSchema#>
PREFIX skos: <http://www.w3.org/2004/02/skos/core#>
INSERT DATA 
{ 
<http://www.assero.co.uk/MDRSdtmUD/ACME/V1#D-ACME_XXDomain> rdf:type <http://www.assero.co.uk/BusinessDomain#UserDomain> . 
<http://www.assero.co.uk/MDRSdtmUD/ACME/V1#D-ACME_XXDomain> rdfs:label "Clone VS as XX"^^xsd:string . 
<http://www.assero.co.uk/MDRItems#RS-ACME_XXDomain-1> rdf:type isoR:RegistrationState . 
<http://www.assero.co.uk/MDRItems#RS-ACME_XXDomain-1> isoR:byAuthority mdrItems:RA-123456789 . 
<http://www.assero.co.uk/MDRItems#RS-ACME_XXDomain-1> isoR:registrationStatus "Incomplete"^^xsd:string . 
<http://www.assero.co.uk/MDRItems#RS-ACME_XXDomain-1> isoR:administrativeNote ""^^xsd:string . 
<http://www.assero.co.uk/MDRItems#RS-ACME_XXDomain-1> isoR:effectiveDate "2016-01-01T00:00:00%2B00:00"^^xsd:dateTime . 
<http://www.assero.co.uk/MDRItems#RS-ACME_XXDomain-1> isoR:untilDate "2016-01-01T00:00:00%2B00:00"^^xsd:dateTime . 
<http://www.assero.co.uk/MDRItems#RS-ACME_XXDomain-1> isoR:unresolvedIssue ""^^xsd:string . 
<http://www.assero.co.uk/MDRItems#RS-ACME_XXDomain-1> isoR:administrativeStatus ""^^xsd:string . 
<http://www.assero.co.uk/MDRItems#RS-ACME_XXDomain-1> isoR:previousState "Incomplete"^^xsd:string . 
<http://www.assero.co.uk/MDRItems#SI-ACME_XXDomain-1> isoI:identifier "XX Domain"^^xsd:string . 
<http://www.assero.co.uk/MDRItems#SI-ACME_XXDomain-1> rdf:type isoI:ScopedIdentifier . 
<http://www.assero.co.uk/MDRItems#SI-ACME_XXDomain-1> isoI:version "1"^^xsd:positiveInteger . 
<http://www.assero.co.uk/MDRItems#SI-ACME_XXDomain-1> isoI:versionLabel ""^^xsd:string . 
<http://www.assero.co.uk/MDRItems#SI-ACME_XXDomain-1> isoI:semantic_version "0.0.0"^^xsd:string . 
<http://www.assero.co.uk/MDRItems#SI-ACME_XXDomain-1> isoI:hasScope mdrItems:NS-ACME . 
<http://www.assero.co.uk/MDRSdtmUD/ACME/V1#D-ACME_XXDomain> isoI:hasIdentifier <http://www.assero.co.uk/MDRItems#SI-ACME_XXDomain-1> . 
<http://www.assero.co.uk/MDRSdtmUD/ACME/V1#D-ACME_XXDomain> isoR:hasState <http://www.assero.co.uk/MDRItems#RS-ACME_XXDomain-1> . 
<http://www.assero.co.uk/MDRSdtmUD/ACME/V1#D-ACME_XXDomain> isoT:creationDate "2017-01-11T15:15:28%2B00:00"^^xsd:dateTime . 
<http://www.assero.co.uk/MDRSdtmUD/ACME/V1#D-ACME_XXDomain> isoT:lastChangeDate "2017-01-11T15:15:28%2B00:00"^^xsd:dateTime . 
<http://www.assero.co.uk/MDRSdtmUD/ACME/V1#D-ACME_XXDomain> isoT:changeDescription ""^^xsd:string . 
<http://www.assero.co.uk/MDRSdtmUD/ACME/V1#D-ACME_XXDomain> isoT:explanatoryComment ""^^xsd:string . 
<http://www.assero.co.uk/MDRSdtmUD/ACME/V1#D-ACME_XXDomain> isoT:origin ""^^xsd:string . 
<http://www.assero.co.uk/MDRSdtmUD/ACME/V1#D-ACME_XXDomain> bd:ordinal "1"^^xsd:positiveInteger . 
<http://www.assero.co.uk/MDRSdtmUD/ACME/V1#D-ACME_XXDomain> bd:rule ""^^xsd:string . 
<http://www.assero.co.uk/MDRSdtmUD/ACME/V1#D-ACME_XXDomain> bd:prefix "XX"^^xsd:string . 
<http://www.assero.co.uk/MDRSdtmUD/ACME/V1#D-ACME_XXDomain> bd:structure ""^^xsd:string . 
<http://www.assero.co.uk/MDRSdtmUD/ACME/V1#D-ACME_XXDomain> bd:notes ""^^xsd:string . 
<http://www.assero.co.uk/MDRSdtmUD/ACME/V1#D-ACME_XXDomain_IGD1> rdf:type <http://www.assero.co.uk/BusinessOperational#TReference> . 
<http://www.assero.co.uk/MDRSdtmUD/ACME/V1#D-ACME_XXDomain_IGD1> rdfs:label "Based on Domain Reference"^^xsd:string . 
<http://www.assero.co.uk/MDRSdtmUD/ACME/V1#D-ACME_XXDomain_IGD1> bo:hasTabulation <http://www.assero.co.uk/MDRSdtmIgD/CDISC/V3#IG-CDISC_SDTMIGVS> . 
<http://www.assero.co.uk/MDRSdtmUD/ACME/V1#D-ACME_XXDomain_IGD1> bo:enabled "true"^^xsd:boolean . 
<http://www.assero.co.uk/MDRSdtmUD/ACME/V1#D-ACME_XXDomain_IGD1> bo:optional "false"^^xsd:boolean . 
<http://www.assero.co.uk/MDRSdtmUD/ACME/V1#D-ACME_XXDomain_IGD1> bo:ordinal "1"^^xsd:positiveInteger . 
<http://www.assero.co.uk/MDRSdtmUD/ACME/V1#D-ACME_XXDomain_IGD1> bo:local_label ""^^xsd:string . 
<http://www.assero.co.uk/MDRSdtmUD/ACME/V1#D-ACME_XXDomain_MD1> rdf:type <http://www.assero.co.uk/BusinessOperational#TReference> . 
<http://www.assero.co.uk/MDRSdtmUD/ACME/V1#D-ACME_XXDomain_MD1> rdfs:label "Based on Domain Reference"^^xsd:string . 
<http://www.assero.co.uk/MDRSdtmUD/ACME/V1#D-ACME_XXDomain_MD1> bo:hasTabulation <http://www.assero.co.uk/MDRSdtmMd/CDISC/V3#M-CDISC_SDTMMODEL_FINDINGS> . 
<http://www.assero.co.uk/MDRSdtmUD/ACME/V1#D-ACME_XXDomain_MD1> bo:enabled "true"^^xsd:boolean . 
<http://www.assero.co.uk/MDRSdtmUD/ACME/V1#D-ACME_XXDomain_MD1> bo:optional "false"^^xsd:boolean . 
<http://www.assero.co.uk/MDRSdtmUD/ACME/V1#D-ACME_XXDomain_MD1> bo:ordinal "1"^^xsd:positiveInteger . 
<http://www.assero.co.uk/MDRSdtmUD/ACME/V1#D-ACME_XXDomain_MD1> bo:local_label ""^^xsd:string . 
<http://www.assero.co.uk/MDRSdtmUD/ACME/V1#D-ACME_XXDomain> bd:basedOnDomain <http://www.assero.co.uk/MDRSdtmUD/ACME/V1#D-ACME_XXDomain_IGD1> . 
<http://www.assero.co.uk/MDRSdtmUD/ACME/V1#D-ACME_XXDomain> bd:basedOnDomain <http://www.assero.co.uk/MDRSdtmUD/ACME/V1#D-ACME_XXDomain_MD1> . 
<http://www.assero.co.uk/MDRSdtmUD/ACME/V1#D-ACME_XXDomain_V1> rdf:type <http://www.assero.co.uk/BusinessDomain#UserVariable> . 
<http://www.assero.co.uk/MDRSdtmUD/ACME/V1#D-ACME_XXDomain_V1> rdfs:label "Study Identifier"^^xsd:string . 
<http://www.assero.co.uk/MDRSdtmUD/ACME/V1#D-ACME_XXDomain_V1> bd:ordinal "1"^^xsd:positiveInteger . 
<http://www.assero.co.uk/MDRSdtmUD/ACME/V1#D-ACME_XXDomain_V1> bd:rule ""^^xsd:string . 
<http://www.assero.co.uk/MDRSdtmUD/ACME/V1#D-ACME_XXDomain_V1> bd:name "STUDYID"^^xsd:string . 
<http://www.assero.co.uk/MDRSdtmUD/ACME/V1#D-ACME_XXDomain_V1> bd:notes ""^^xsd:string . 
<http://www.assero.co.uk/MDRSdtmUD/ACME/V1#D-ACME_XXDomain_V1> bd:format ""^^xsd:string . 
<http://www.assero.co.uk/MDRSdtmUD/ACME/V1#D-ACME_XXDomain_V1> bd:ct ""^^xsd:string . 
<http://www.assero.co.uk/MDRSdtmUD/ACME/V1#D-ACME_XXDomain_V1> bd:non_standard "false"^^xsd:boolean . 
<http://www.assero.co.uk/MDRSdtmUD/ACME/V1#D-ACME_XXDomain_V1> bd:comment ""^^xsd:string . 
<http://www.assero.co.uk/MDRSdtmUD/ACME/V1#D-ACME_XXDomain_V1> bd:length "0"^^xsd:string . 
<http://www.assero.co.uk/MDRSdtmUD/ACME/V1#D-ACME_XXDomain_V1> bd:used "true"^^xsd:boolean . 
<http://www.assero.co.uk/MDRSdtmUD/ACME/V1#D-ACME_XXDomain_V1> bd:key_ordinal "0"^^xsd:integer . 
<http://www.assero.co.uk/MDRSdtmUD/ACME/V1#D-ACME_XXDomain_V1> bd:typedAs <http://www.assero.co.uk/MDRSdtmM/CDISC/V3#M-CDISC_SDTMMODEL_DT_CHAR> . 
<http://www.assero.co.uk/MDRSdtmUD/ACME/V1#D-ACME_XXDomain_V1> bd:compliance <http://www.assero.co.uk/MDRSdtmIgD/CDISC/V3#IG-CDISC_SDTMIGVS_C_REQUIRED> . 
<http://www.assero.co.uk/MDRSdtmUD/ACME/V1#D-ACME_XXDomain_V1> bd:classifiedAs <http://www.assero.co.uk/MDRSdtmM/CDISC/V3#M-CDISC_SDTMMODEL_C_IDENTIFIER> . 
<http://www.assero.co.uk/MDRSdtmUD/ACME/V1#D-ACME_XXDomain_V1_IGV1> rdf:type <http://www.assero.co.uk/BusinessOperational#CReference> . 
<http://www.assero.co.uk/MDRSdtmUD/ACME/V1#D-ACME_XXDomain_V1_IGV1> rdfs:label "Based on Variable Reference"^^xsd:string . 
<http://www.assero.co.uk/MDRSdtmUD/ACME/V1#D-ACME_XXDomain_V1_IGV1> bo:hasColumn <http://www.assero.co.uk/MDRSdtmIgD/CDISC/V3#IG-CDISC_SDTMIGVS_STUDYID> . 
<http://www.assero.co.uk/MDRSdtmUD/ACME/V1#D-ACME_XXDomain_V1_IGV1> bo:enabled "true"^^xsd:boolean . 
<http://www.assero.co.uk/MDRSdtmUD/ACME/V1#D-ACME_XXDomain_V1_IGV1> bo:optional "false"^^xsd:boolean . 
<http://www.assero.co.uk/MDRSdtmUD/ACME/V1#D-ACME_XXDomain_V1_IGV1> bo:ordinal "1"^^xsd:positiveInteger . 
<http://www.assero.co.uk/MDRSdtmUD/ACME/V1#D-ACME_XXDomain_V1_IGV1> bo:local_label ""^^xsd:string . 
<http://www.assero.co.uk/MDRSdtmUD/ACME/V1#D-ACME_XXDomain_V1> bd:basedOnVariable <http://www.assero.co.uk/MDRSdtmUD/ACME/V1#D-ACME_XXDomain_V1_IGV1> . 
<http://www.assero.co.uk/MDRSdtmUD/ACME/V1#D-ACME_XXDomain> bd:includesColumn <http://www.assero.co.uk/MDRSdtmUD/ACME/V1#D-ACME_XXDomain_V1> . 
<http://www.assero.co.uk/MDRSdtmUD/ACME/V1#D-ACME_XXDomain_V2> rdf:type <http://www.assero.co.uk/BusinessDomain#UserVariable> . 
<http://www.assero.co.uk/MDRSdtmUD/ACME/V1#D-ACME_XXDomain_V2> rdfs:label "Domain Abbreviation"^^xsd:string . 
<http://www.assero.co.uk/MDRSdtmUD/ACME/V1#D-ACME_XXDomain_V2> bd:ordinal "2"^^xsd:positiveInteger . 
<http://www.assero.co.uk/MDRSdtmUD/ACME/V1#D-ACME_XXDomain_V2> bd:rule ""^^xsd:string . 
<http://www.assero.co.uk/MDRSdtmUD/ACME/V1#D-ACME_XXDomain_V2> bd:name "DOMAIN"^^xsd:string . 
<http://www.assero.co.uk/MDRSdtmUD/ACME/V1#D-ACME_XXDomain_V2> bd:notes ""^^xsd:string . 
<http://www.assero.co.uk/MDRSdtmUD/ACME/V1#D-ACME_XXDomain_V2> bd:format ""^^xsd:string . 
<http://www.assero.co.uk/MDRSdtmUD/ACME/V1#D-ACME_XXDomain_V2> bd:ct "DOMAIN"^^xsd:string . 
<http://www.assero.co.uk/MDRSdtmUD/ACME/V1#D-ACME_XXDomain_V2> bd:non_standard "false"^^xsd:boolean . 
<http://www.assero.co.uk/MDRSdtmUD/ACME/V1#D-ACME_XXDomain_V2> bd:comment ""^^xsd:string . 
<http://www.assero.co.uk/MDRSdtmUD/ACME/V1#D-ACME_XXDomain_V2> bd:length "0"^^xsd:string . 
<http://www.assero.co.uk/MDRSdtmUD/ACME/V1#D-ACME_XXDomain_V2> bd:used "true"^^xsd:boolean . 
<http://www.assero.co.uk/MDRSdtmUD/ACME/V1#D-ACME_XXDomain_V2> bd:key_ordinal "0"^^xsd:integer . 
<http://www.assero.co.uk/MDRSdtmUD/ACME/V1#D-ACME_XXDomain_V2> bd:typedAs <http://www.assero.co.uk/MDRSdtmM/CDISC/V3#M-CDISC_SDTMMODEL_DT_CHAR> . 
<http://www.assero.co.uk/MDRSdtmUD/ACME/V1#D-ACME_XXDomain_V2> bd:compliance <http://www.assero.co.uk/MDRSdtmIgD/CDISC/V3#IG-CDISC_SDTMIGVS_C_REQUIRED> . 
<http://www.assero.co.uk/MDRSdtmUD/ACME/V1#D-ACME_XXDomain_V2> bd:classifiedAs <http://www.assero.co.uk/MDRSdtmM/CDISC/V3#M-CDISC_SDTMMODEL_C_IDENTIFIER> . 
<http://www.assero.co.uk/MDRSdtmUD/ACME/V1#D-ACME_XXDomain_V2_IGV1> rdf:type <http://www.assero.co.uk/BusinessOperational#CReference> . 
<http://www.assero.co.uk/MDRSdtmUD/ACME/V1#D-ACME_XXDomain_V2_IGV1> rdfs:label "Based on Variable Reference"^^xsd:string . 
<http://www.assero.co.uk/MDRSdtmUD/ACME/V1#D-ACME_XXDomain_V2_IGV1> bo:hasColumn <http://www.assero.co.uk/MDRSdtmIgD/CDISC/V3#IG-CDISC_SDTMIGVS_DOMAIN> . 
<http://www.assero.co.uk/MDRSdtmUD/ACME/V1#D-ACME_XXDomain_V2_IGV1> bo:enabled "true"^^xsd:boolean . 
<http://www.assero.co.uk/MDRSdtmUD/ACME/V1#D-ACME_XXDomain_V2_IGV1> bo:optional "false"^^xsd:boolean . 
<http://www.assero.co.uk/MDRSdtmUD/ACME/V1#D-ACME_XXDomain_V2_IGV1> bo:ordinal "1"^^xsd:positiveInteger . 
<http://www.assero.co.uk/MDRSdtmUD/ACME/V1#D-ACME_XXDomain_V2_IGV1> bo:local_label ""^^xsd:string . 
<http://www.assero.co.uk/MDRSdtmUD/ACME/V1#D-ACME_XXDomain_V2> bd:basedOnVariable <http://www.assero.co.uk/MDRSdtmUD/ACME/V1#D-ACME_XXDomain_V2_IGV1> . 
<http://www.assero.co.uk/MDRSdtmUD/ACME/V1#D-ACME_XXDomain> bd:includesColumn <http://www.assero.co.uk/MDRSdtmUD/ACME/V1#D-ACME_XXDomain_V2> . 
<http://www.assero.co.uk/MDRSdtmUD/ACME/V1#D-ACME_XXDomain_V3> rdf:type <http://www.assero.co.uk/BusinessDomain#UserVariable> . 
<http://www.assero.co.uk/MDRSdtmUD/ACME/V1#D-ACME_XXDomain_V3> rdfs:label "Unique Subject Identifier"^^xsd:string . 
<http://www.assero.co.uk/MDRSdtmUD/ACME/V1#D-ACME_XXDomain_V3> bd:ordinal "3"^^xsd:positiveInteger . 
<http://www.assero.co.uk/MDRSdtmUD/ACME/V1#D-ACME_XXDomain_V3> bd:rule ""^^xsd:string . 
<http://www.assero.co.uk/MDRSdtmUD/ACME/V1#D-ACME_XXDomain_V3> bd:name "USUBJID"^^xsd:string . 
<http://www.assero.co.uk/MDRSdtmUD/ACME/V1#D-ACME_XXDomain_V3> bd:notes ""^^xsd:string . 
<http://www.assero.co.uk/MDRSdtmUD/ACME/V1#D-ACME_XXDomain_V3> bd:format ""^^xsd:string . 
<http://www.assero.co.uk/MDRSdtmUD/ACME/V1#D-ACME_XXDomain_V3> bd:ct ""^^xsd:string . 
<http://www.assero.co.uk/MDRSdtmUD/ACME/V1#D-ACME_XXDomain_V3> bd:non_standard "false"^^xsd:boolean . 
<http://www.assero.co.uk/MDRSdtmUD/ACME/V1#D-ACME_XXDomain_V3> bd:comment ""^^xsd:string . 
<http://www.assero.co.uk/MDRSdtmUD/ACME/V1#D-ACME_XXDomain_V3> bd:length "0"^^xsd:string . 
<http://www.assero.co.uk/MDRSdtmUD/ACME/V1#D-ACME_XXDomain_V3> bd:used "true"^^xsd:boolean . 
<http://www.assero.co.uk/MDRSdtmUD/ACME/V1#D-ACME_XXDomain_V3> bd:key_ordinal "0"^^xsd:integer . 
<http://www.assero.co.uk/MDRSdtmUD/ACME/V1#D-ACME_XXDomain_V3> bd:typedAs <http://www.assero.co.uk/MDRSdtmM/CDISC/V3#M-CDISC_SDTMMODEL_DT_CHAR> . 
<http://www.assero.co.uk/MDRSdtmUD/ACME/V1#D-ACME_XXDomain_V3> bd:compliance <http://www.assero.co.uk/MDRSdtmIgD/CDISC/V3#IG-CDISC_SDTMIGVS_C_REQUIRED> . 
<http://www.assero.co.uk/MDRSdtmUD/ACME/V1#D-ACME_XXDomain_V3> bd:classifiedAs <http://www.assero.co.uk/MDRSdtmM/CDISC/V3#M-CDISC_SDTMMODEL_C_IDENTIFIER> . 
<http://www.assero.co.uk/MDRSdtmUD/ACME/V1#D-ACME_XXDomain_V3_IGV1> rdf:type <http://www.assero.co.uk/BusinessOperational#CReference> . 
<http://www.assero.co.uk/MDRSdtmUD/ACME/V1#D-ACME_XXDomain_V3_IGV1> rdfs:label "Based on Variable Reference"^^xsd:string . 
<http://www.assero.co.uk/MDRSdtmUD/ACME/V1#D-ACME_XXDomain_V3_IGV1> bo:hasColumn <http://www.assero.co.uk/MDRSdtmIgD/CDISC/V3#IG-CDISC_SDTMIGVS_USUBJID> . 
<http://www.assero.co.uk/MDRSdtmUD/ACME/V1#D-ACME_XXDomain_V3_IGV1> bo:enabled "true"^^xsd:boolean . 
<http://www.assero.co.uk/MDRSdtmUD/ACME/V1#D-ACME_XXDomain_V3_IGV1> bo:optional "false"^^xsd:boolean . 
<http://www.assero.co.uk/MDRSdtmUD/ACME/V1#D-ACME_XXDomain_V3_IGV1> bo:ordinal "1"^^xsd:positiveInteger . 
<http://www.assero.co.uk/MDRSdtmUD/ACME/V1#D-ACME_XXDomain_V3_IGV1> bo:local_label ""^^xsd:string . 
<http://www.assero.co.uk/MDRSdtmUD/ACME/V1#D-ACME_XXDomain_V3> bd:basedOnVariable <http://www.assero.co.uk/MDRSdtmUD/ACME/V1#D-ACME_XXDomain_V3_IGV1> . 
<http://www.assero.co.uk/MDRSdtmUD/ACME/V1#D-ACME_XXDomain> bd:includesColumn <http://www.assero.co.uk/MDRSdtmUD/ACME/V1#D-ACME_XXDomain_V3> . 
<http://www.assero.co.uk/MDRSdtmUD/ACME/V1#D-ACME_XXDomain_V4> rdf:type <http://www.assero.co.uk/BusinessDomain#UserVariable> . 
<http://www.assero.co.uk/MDRSdtmUD/ACME/V1#D-ACME_XXDomain_V4> rdfs:label "Sequence Number"^^xsd:string . 
<http://www.assero.co.uk/MDRSdtmUD/ACME/V1#D-ACME_XXDomain_V4> bd:ordinal "4"^^xsd:positiveInteger . 
<http://www.assero.co.uk/MDRSdtmUD/ACME/V1#D-ACME_XXDomain_V4> bd:rule ""^^xsd:string . 
<http://www.assero.co.uk/MDRSdtmUD/ACME/V1#D-ACME_XXDomain_V4> bd:name "XXSEQ"^^xsd:string . 
<http://www.assero.co.uk/MDRSdtmUD/ACME/V1#D-ACME_XXDomain_V4> bd:notes ""^^xsd:string . 
<http://www.assero.co.uk/MDRSdtmUD/ACME/V1#D-ACME_XXDomain_V4> bd:format ""^^xsd:string . 
<http://www.assero.co.uk/MDRSdtmUD/ACME/V1#D-ACME_XXDomain_V4> bd:ct ""^^xsd:string . 
<http://www.assero.co.uk/MDRSdtmUD/ACME/V1#D-ACME_XXDomain_V4> bd:non_standard "false"^^xsd:boolean . 
<http://www.assero.co.uk/MDRSdtmUD/ACME/V1#D-ACME_XXDomain_V4> bd:comment ""^^xsd:string . 
<http://www.assero.co.uk/MDRSdtmUD/ACME/V1#D-ACME_XXDomain_V4> bd:length "0"^^xsd:string . 
<http://www.assero.co.uk/MDRSdtmUD/ACME/V1#D-ACME_XXDomain_V4> bd:used "true"^^xsd:boolean . 
<http://www.assero.co.uk/MDRSdtmUD/ACME/V1#D-ACME_XXDomain_V4> bd:key_ordinal "0"^^xsd:integer . 
<http://www.assero.co.uk/MDRSdtmUD/ACME/V1#D-ACME_XXDomain_V4> bd:typedAs <http://www.assero.co.uk/MDRSdtmM/CDISC/V3#M-CDISC_SDTMMODEL_DT_NUM> . 
<http://www.assero.co.uk/MDRSdtmUD/ACME/V1#D-ACME_XXDomain_V4> bd:compliance <http://www.assero.co.uk/MDRSdtmIgD/CDISC/V3#IG-CDISC_SDTMIGVS_C_REQUIRED> . 
<http://www.assero.co.uk/MDRSdtmUD/ACME/V1#D-ACME_XXDomain_V4> bd:classifiedAs <http://www.assero.co.uk/MDRSdtmM/CDISC/V3#M-CDISC_SDTMMODEL_C_IDENTIFIER> . 
<http://www.assero.co.uk/MDRSdtmUD/ACME/V1#D-ACME_XXDomain_V4_IGV1> rdf:type <http://www.assero.co.uk/BusinessOperational#CReference> . 
<http://www.assero.co.uk/MDRSdtmUD/ACME/V1#D-ACME_XXDomain_V4_IGV1> rdfs:label "Based on Variable Reference"^^xsd:string . 
<http://www.assero.co.uk/MDRSdtmUD/ACME/V1#D-ACME_XXDomain_V4_IGV1> bo:hasColumn <http://www.assero.co.uk/MDRSdtmIgD/CDISC/V3#IG-CDISC_SDTMIGVS_VSSEQ> . 
<http://www.assero.co.uk/MDRSdtmUD/ACME/V1#D-ACME_XXDomain_V4_IGV1> bo:enabled "true"^^xsd:boolean . 
<http://www.assero.co.uk/MDRSdtmUD/ACME/V1#D-ACME_XXDomain_V4_IGV1> bo:optional "false"^^xsd:boolean . 
<http://www.assero.co.uk/MDRSdtmUD/ACME/V1#D-ACME_XXDomain_V4_IGV1> bo:ordinal "1"^^xsd:positiveInteger . 
<http://www.assero.co.uk/MDRSdtmUD/ACME/V1#D-ACME_XXDomain_V4_IGV1> bo:local_label ""^^xsd:string . 
<http://www.assero.co.uk/MDRSdtmUD/ACME/V1#D-ACME_XXDomain_V4> bd:basedOnVariable <http://www.assero.co.uk/MDRSdtmUD/ACME/V1#D-ACME_XXDomain_V4_IGV1> . 
<http://www.assero.co.uk/MDRSdtmUD/ACME/V1#D-ACME_XXDomain> bd:includesColumn <http://www.assero.co.uk/MDRSdtmUD/ACME/V1#D-ACME_XXDomain_V4> . 
<http://www.assero.co.uk/MDRSdtmUD/ACME/V1#D-ACME_XXDomain_V5> rdf:type <http://www.assero.co.uk/BusinessDomain#UserVariable> . 
<http://www.assero.co.uk/MDRSdtmUD/ACME/V1#D-ACME_XXDomain_V5> rdfs:label "Group ID"^^xsd:string . 
<http://www.assero.co.uk/MDRSdtmUD/ACME/V1#D-ACME_XXDomain_V5> bd:ordinal "5"^^xsd:positiveInteger . 
<http://www.assero.co.uk/MDRSdtmUD/ACME/V1#D-ACME_XXDomain_V5> bd:rule ""^^xsd:string . 
<http://www.assero.co.uk/MDRSdtmUD/ACME/V1#D-ACME_XXDomain_V5> bd:name "XXGRPID"^^xsd:string . 
<http://www.assero.co.uk/MDRSdtmUD/ACME/V1#D-ACME_XXDomain_V5> bd:notes ""^^xsd:string . 
<http://www.assero.co.uk/MDRSdtmUD/ACME/V1#D-ACME_XXDomain_V5> bd:format ""^^xsd:string . 
<http://www.assero.co.uk/MDRSdtmUD/ACME/V1#D-ACME_XXDomain_V5> bd:ct ""^^xsd:string . 
<http://www.assero.co.uk/MDRSdtmUD/ACME/V1#D-ACME_XXDomain_V5> bd:non_standard "false"^^xsd:boolean . 
<http://www.assero.co.uk/MDRSdtmUD/ACME/V1#D-ACME_XXDomain_V5> bd:comment ""^^xsd:string . 
<http://www.assero.co.uk/MDRSdtmUD/ACME/V1#D-ACME_XXDomain_V5> bd:length "0"^^xsd:string . 
<http://www.assero.co.uk/MDRSdtmUD/ACME/V1#D-ACME_XXDomain_V5> bd:used "true"^^xsd:boolean . 
<http://www.assero.co.uk/MDRSdtmUD/ACME/V1#D-ACME_XXDomain_V5> bd:key_ordinal "0"^^xsd:integer . 
<http://www.assero.co.uk/MDRSdtmUD/ACME/V1#D-ACME_XXDomain_V5> bd:typedAs <http://www.assero.co.uk/MDRSdtmM/CDISC/V3#M-CDISC_SDTMMODEL_DT_CHAR> . 
<http://www.assero.co.uk/MDRSdtmUD/ACME/V1#D-ACME_XXDomain_V5> bd:compliance <http://www.assero.co.uk/MDRSdtmIgD/CDISC/V3#IG-CDISC_SDTMIGVS_C_PERMISSIBLE> . 
<http://www.assero.co.uk/MDRSdtmUD/ACME/V1#D-ACME_XXDomain_V5> bd:classifiedAs <http://www.assero.co.uk/MDRSdtmM/CDISC/V3#M-CDISC_SDTMMODEL_C_IDENTIFIER> . 
<http://www.assero.co.uk/MDRSdtmUD/ACME/V1#D-ACME_XXDomain_V5_IGV1> rdf:type <http://www.assero.co.uk/BusinessOperational#CReference> . 
<http://www.assero.co.uk/MDRSdtmUD/ACME/V1#D-ACME_XXDomain_V5_IGV1> rdfs:label "Based on Variable Reference"^^xsd:string . 
<http://www.assero.co.uk/MDRSdtmUD/ACME/V1#D-ACME_XXDomain_V5_IGV1> bo:hasColumn <http://www.assero.co.uk/MDRSdtmIgD/CDISC/V3#IG-CDISC_SDTMIGVS_VSGRPID> . 
<http://www.assero.co.uk/MDRSdtmUD/ACME/V1#D-ACME_XXDomain_V5_IGV1> bo:enabled "true"^^xsd:boolean . 
<http://www.assero.co.uk/MDRSdtmUD/ACME/V1#D-ACME_XXDomain_V5_IGV1> bo:optional "false"^^xsd:boolean . 
<http://www.assero.co.uk/MDRSdtmUD/ACME/V1#D-ACME_XXDomain_V5_IGV1> bo:ordinal "1"^^xsd:positiveInteger . 
<http://www.assero.co.uk/MDRSdtmUD/ACME/V1#D-ACME_XXDomain_V5_IGV1> bo:local_label ""^^xsd:string . 
<http://www.assero.co.uk/MDRSdtmUD/ACME/V1#D-ACME_XXDomain_V5> bd:basedOnVariable <http://www.assero.co.uk/MDRSdtmUD/ACME/V1#D-ACME_XXDomain_V5_IGV1> . 
<http://www.assero.co.uk/MDRSdtmUD/ACME/V1#D-ACME_XXDomain> bd:includesColumn <http://www.assero.co.uk/MDRSdtmUD/ACME/V1#D-ACME_XXDomain_V5> . 
<http://www.assero.co.uk/MDRSdtmUD/ACME/V1#D-ACME_XXDomain_V6> rdf:type <http://www.assero.co.uk/BusinessDomain#UserVariable> . 
<http://www.assero.co.uk/MDRSdtmUD/ACME/V1#D-ACME_XXDomain_V6> rdfs:label "Sponsor-Defined Identifier"^^xsd:string . 
<http://www.assero.co.uk/MDRSdtmUD/ACME/V1#D-ACME_XXDomain_V6> bd:ordinal "6"^^xsd:positiveInteger . 
<http://www.assero.co.uk/MDRSdtmUD/ACME/V1#D-ACME_XXDomain_V6> bd:rule ""^^xsd:string . 
<http://www.assero.co.uk/MDRSdtmUD/ACME/V1#D-ACME_XXDomain_V6> bd:name "XXSPID"^^xsd:string . 
<http://www.assero.co.uk/MDRSdtmUD/ACME/V1#D-ACME_XXDomain_V6> bd:notes ""^^xsd:string . 
<http://www.assero.co.uk/MDRSdtmUD/ACME/V1#D-ACME_XXDomain_V6> bd:format ""^^xsd:string . 
<http://www.assero.co.uk/MDRSdtmUD/ACME/V1#D-ACME_XXDomain_V6> bd:ct ""^^xsd:string . 
<http://www.assero.co.uk/MDRSdtmUD/ACME/V1#D-ACME_XXDomain_V6> bd:non_standard "false"^^xsd:boolean . 
<http://www.assero.co.uk/MDRSdtmUD/ACME/V1#D-ACME_XXDomain_V6> bd:comment ""^^xsd:string . 
<http://www.assero.co.uk/MDRSdtmUD/ACME/V1#D-ACME_XXDomain_V6> bd:length "0"^^xsd:string . 
<http://www.assero.co.uk/MDRSdtmUD/ACME/V1#D-ACME_XXDomain_V6> bd:used "true"^^xsd:boolean . 
<http://www.assero.co.uk/MDRSdtmUD/ACME/V1#D-ACME_XXDomain_V6> bd:key_ordinal "0"^^xsd:integer . 
<http://www.assero.co.uk/MDRSdtmUD/ACME/V1#D-ACME_XXDomain_V6> bd:typedAs <http://www.assero.co.uk/MDRSdtmM/CDISC/V3#M-CDISC_SDTMMODEL_DT_CHAR> . 
<http://www.assero.co.uk/MDRSdtmUD/ACME/V1#D-ACME_XXDomain_V6> bd:compliance <http://www.assero.co.uk/MDRSdtmIgD/CDISC/V3#IG-CDISC_SDTMIGVS_C_PERMISSIBLE> . 
<http://www.assero.co.uk/MDRSdtmUD/ACME/V1#D-ACME_XXDomain_V6> bd:classifiedAs <http://www.assero.co.uk/MDRSdtmM/CDISC/V3#M-CDISC_SDTMMODEL_C_IDENTIFIER> . 
<http://www.assero.co.uk/MDRSdtmUD/ACME/V1#D-ACME_XXDomain_V6_IGV1> rdf:type <http://www.assero.co.uk/BusinessOperational#CReference> . 
<http://www.assero.co.uk/MDRSdtmUD/ACME/V1#D-ACME_XXDomain_V6_IGV1> rdfs:label "Based on Variable Reference"^^xsd:string . 
<http://www.assero.co.uk/MDRSdtmUD/ACME/V1#D-ACME_XXDomain_V6_IGV1> bo:hasColumn <http://www.assero.co.uk/MDRSdtmIgD/CDISC/V3#IG-CDISC_SDTMIGVS_VSSPID> . 
<http://www.assero.co.uk/MDRSdtmUD/ACME/V1#D-ACME_XXDomain_V6_IGV1> bo:enabled "true"^^xsd:boolean . 
<http://www.assero.co.uk/MDRSdtmUD/ACME/V1#D-ACME_XXDomain_V6_IGV1> bo:optional "false"^^xsd:boolean . 
<http://www.assero.co.uk/MDRSdtmUD/ACME/V1#D-ACME_XXDomain_V6_IGV1> bo:ordinal "1"^^xsd:positiveInteger . 
<http://www.assero.co.uk/MDRSdtmUD/ACME/V1#D-ACME_XXDomain_V6_IGV1> bo:local_label ""^^xsd:string . 
<http://www.assero.co.uk/MDRSdtmUD/ACME/V1#D-ACME_XXDomain_V6> bd:basedOnVariable <http://www.assero.co.uk/MDRSdtmUD/ACME/V1#D-ACME_XXDomain_V6_IGV1> . 
<http://www.assero.co.uk/MDRSdtmUD/ACME/V1#D-ACME_XXDomain> bd:includesColumn <http://www.assero.co.uk/MDRSdtmUD/ACME/V1#D-ACME_XXDomain_V6> . 
<http://www.assero.co.uk/MDRSdtmUD/ACME/V1#D-ACME_XXDomain_V7> rdf:type <http://www.assero.co.uk/BusinessDomain#UserVariable> . 
<http://www.assero.co.uk/MDRSdtmUD/ACME/V1#D-ACME_XXDomain_V7> rdfs:label "Vital Signs Test Short Name"^^xsd:string . 
<http://www.assero.co.uk/MDRSdtmUD/ACME/V1#D-ACME_XXDomain_V7> bd:ordinal "7"^^xsd:positiveInteger . 
<http://www.assero.co.uk/MDRSdtmUD/ACME/V1#D-ACME_XXDomain_V7> bd:rule ""^^xsd:string . 
<http://www.assero.co.uk/MDRSdtmUD/ACME/V1#D-ACME_XXDomain_V7> bd:name "XXTESTCD"^^xsd:string . 
<http://www.assero.co.uk/MDRSdtmUD/ACME/V1#D-ACME_XXDomain_V7> bd:notes ""^^xsd:string . 
<http://www.assero.co.uk/MDRSdtmUD/ACME/V1#D-ACME_XXDomain_V7> bd:format ""^^xsd:string . 
<http://www.assero.co.uk/MDRSdtmUD/ACME/V1#D-ACME_XXDomain_V7> bd:ct "VSTESTCD"^^xsd:string . 
<http://www.assero.co.uk/MDRSdtmUD/ACME/V1#D-ACME_XXDomain_V7> bd:non_standard "false"^^xsd:boolean . 
<http://www.assero.co.uk/MDRSdtmUD/ACME/V1#D-ACME_XXDomain_V7> bd:comment ""^^xsd:string . 
<http://www.assero.co.uk/MDRSdtmUD/ACME/V1#D-ACME_XXDomain_V7> bd:length "0"^^xsd:string . 
<http://www.assero.co.uk/MDRSdtmUD/ACME/V1#D-ACME_XXDomain_V7> bd:used "true"^^xsd:boolean . 
<http://www.assero.co.uk/MDRSdtmUD/ACME/V1#D-ACME_XXDomain_V7> bd:key_ordinal "0"^^xsd:integer . 
<http://www.assero.co.uk/MDRSdtmUD/ACME/V1#D-ACME_XXDomain_V7> bd:typedAs <http://www.assero.co.uk/MDRSdtmM/CDISC/V3#M-CDISC_SDTMMODEL_DT_CHAR> . 
<http://www.assero.co.uk/MDRSdtmUD/ACME/V1#D-ACME_XXDomain_V7> bd:compliance <http://www.assero.co.uk/MDRSdtmIgD/CDISC/V3#IG-CDISC_SDTMIGVS_C_REQUIRED> . 
<http://www.assero.co.uk/MDRSdtmUD/ACME/V1#D-ACME_XXDomain_V7> bd:classifiedAs <http://www.assero.co.uk/MDRSdtmM/CDISC/V3#M-CDISC_SDTMMODEL_C_TOPIC> . 
<http://www.assero.co.uk/MDRSdtmUD/ACME/V1#D-ACME_XXDomain_V7_IGV1> rdf:type <http://www.assero.co.uk/BusinessOperational#CReference> . 
<http://www.assero.co.uk/MDRSdtmUD/ACME/V1#D-ACME_XXDomain_V7_IGV1> rdfs:label "Based on Variable Reference"^^xsd:string . 
<http://www.assero.co.uk/MDRSdtmUD/ACME/V1#D-ACME_XXDomain_V7_IGV1> bo:hasColumn <http://www.assero.co.uk/MDRSdtmIgD/CDISC/V3#IG-CDISC_SDTMIGVS_VSTESTCD> . 
<http://www.assero.co.uk/MDRSdtmUD/ACME/V1#D-ACME_XXDomain_V7_IGV1> bo:enabled "true"^^xsd:boolean . 
<http://www.assero.co.uk/MDRSdtmUD/ACME/V1#D-ACME_XXDomain_V7_IGV1> bo:optional "false"^^xsd:boolean . 
<http://www.assero.co.uk/MDRSdtmUD/ACME/V1#D-ACME_XXDomain_V7_IGV1> bo:ordinal "1"^^xsd:positiveInteger . 
<http://www.assero.co.uk/MDRSdtmUD/ACME/V1#D-ACME_XXDomain_V7_IGV1> bo:local_label ""^^xsd:string . 
<http://www.assero.co.uk/MDRSdtmUD/ACME/V1#D-ACME_XXDomain_V7> bd:basedOnVariable <http://www.assero.co.uk/MDRSdtmUD/ACME/V1#D-ACME_XXDomain_V7_IGV1> . 
<http://www.assero.co.uk/MDRSdtmUD/ACME/V1#D-ACME_XXDomain> bd:includesColumn <http://www.assero.co.uk/MDRSdtmUD/ACME/V1#D-ACME_XXDomain_V7> . 
<http://www.assero.co.uk/MDRSdtmUD/ACME/V1#D-ACME_XXDomain_V8> rdf:type <http://www.assero.co.uk/BusinessDomain#UserVariable> . 
<http://www.assero.co.uk/MDRSdtmUD/ACME/V1#D-ACME_XXDomain_V8> rdfs:label "Vital Signs Test Name"^^xsd:string . 
<http://www.assero.co.uk/MDRSdtmUD/ACME/V1#D-ACME_XXDomain_V8> bd:ordinal "8"^^xsd:positiveInteger . 
<http://www.assero.co.uk/MDRSdtmUD/ACME/V1#D-ACME_XXDomain_V8> bd:rule ""^^xsd:string . 
<http://www.assero.co.uk/MDRSdtmUD/ACME/V1#D-ACME_XXDomain_V8> bd:name "XXTEST"^^xsd:string . 
<http://www.assero.co.uk/MDRSdtmUD/ACME/V1#D-ACME_XXDomain_V8> bd:notes ""^^xsd:string . 
<http://www.assero.co.uk/MDRSdtmUD/ACME/V1#D-ACME_XXDomain_V8> bd:format ""^^xsd:string . 
<http://www.assero.co.uk/MDRSdtmUD/ACME/V1#D-ACME_XXDomain_V8> bd:ct "VSTEST"^^xsd:string . 
<http://www.assero.co.uk/MDRSdtmUD/ACME/V1#D-ACME_XXDomain_V8> bd:non_standard "false"^^xsd:boolean . 
<http://www.assero.co.uk/MDRSdtmUD/ACME/V1#D-ACME_XXDomain_V8> bd:comment ""^^xsd:string . 
<http://www.assero.co.uk/MDRSdtmUD/ACME/V1#D-ACME_XXDomain_V8> bd:length "0"^^xsd:string . 
<http://www.assero.co.uk/MDRSdtmUD/ACME/V1#D-ACME_XXDomain_V8> bd:used "true"^^xsd:boolean . 
<http://www.assero.co.uk/MDRSdtmUD/ACME/V1#D-ACME_XXDomain_V8> bd:key_ordinal "0"^^xsd:integer . 
<http://www.assero.co.uk/MDRSdtmUD/ACME/V1#D-ACME_XXDomain_V8> bd:typedAs <http://www.assero.co.uk/MDRSdtmM/CDISC/V3#M-CDISC_SDTMMODEL_DT_CHAR> . 
<http://www.assero.co.uk/MDRSdtmUD/ACME/V1#D-ACME_XXDomain_V8> bd:compliance <http://www.assero.co.uk/MDRSdtmIgD/CDISC/V3#IG-CDISC_SDTMIGVS_C_REQUIRED> . 
<http://www.assero.co.uk/MDRSdtmUD/ACME/V1#D-ACME_XXDomain_V8> bd:classifiedAs <http://www.assero.co.uk/MDRSdtmM/CDISC/V3#M-CDISC_SDTMMODEL_SC_SYNONYMQUALIFIER> . 
<http://www.assero.co.uk/MDRSdtmUD/ACME/V1#D-ACME_XXDomain_V8_IGV1> rdf:type <http://www.assero.co.uk/BusinessOperational#CReference> . 
<http://www.assero.co.uk/MDRSdtmUD/ACME/V1#D-ACME_XXDomain_V8_IGV1> rdfs:label "Based on Variable Reference"^^xsd:string . 
<http://www.assero.co.uk/MDRSdtmUD/ACME/V1#D-ACME_XXDomain_V8_IGV1> bo:hasColumn <http://www.assero.co.uk/MDRSdtmIgD/CDISC/V3#IG-CDISC_SDTMIGVS_VSTEST> . 
<http://www.assero.co.uk/MDRSdtmUD/ACME/V1#D-ACME_XXDomain_V8_IGV1> bo:enabled "true"^^xsd:boolean . 
<http://www.assero.co.uk/MDRSdtmUD/ACME/V1#D-ACME_XXDomain_V8_IGV1> bo:optional "false"^^xsd:boolean . 
<http://www.assero.co.uk/MDRSdtmUD/ACME/V1#D-ACME_XXDomain_V8_IGV1> bo:ordinal "1"^^xsd:positiveInteger . 
<http://www.assero.co.uk/MDRSdtmUD/ACME/V1#D-ACME_XXDomain_V8_IGV1> bo:local_label ""^^xsd:string . 
<http://www.assero.co.uk/MDRSdtmUD/ACME/V1#D-ACME_XXDomain_V8> bd:basedOnVariable <http://www.assero.co.uk/MDRSdtmUD/ACME/V1#D-ACME_XXDomain_V8_IGV1> . 
<http://www.assero.co.uk/MDRSdtmUD/ACME/V1#D-ACME_XXDomain> bd:includesColumn <http://www.assero.co.uk/MDRSdtmUD/ACME/V1#D-ACME_XXDomain_V8> . 
<http://www.assero.co.uk/MDRSdtmUD/ACME/V1#D-ACME_XXDomain_V9> rdf:type <http://www.assero.co.uk/BusinessDomain#UserVariable> . 
<http://www.assero.co.uk/MDRSdtmUD/ACME/V1#D-ACME_XXDomain_V9> rdfs:label "Category for Vital Signs"^^xsd:string . 
<http://www.assero.co.uk/MDRSdtmUD/ACME/V1#D-ACME_XXDomain_V9> bd:ordinal "9"^^xsd:positiveInteger . 
<http://www.assero.co.uk/MDRSdtmUD/ACME/V1#D-ACME_XXDomain_V9> bd:rule ""^^xsd:string . 
<http://www.assero.co.uk/MDRSdtmUD/ACME/V1#D-ACME_XXDomain_V9> bd:name "XXCAT"^^xsd:string . 
<http://www.assero.co.uk/MDRSdtmUD/ACME/V1#D-ACME_XXDomain_V9> bd:notes ""^^xsd:string . 
<http://www.assero.co.uk/MDRSdtmUD/ACME/V1#D-ACME_XXDomain_V9> bd:format ""^^xsd:string . 
<http://www.assero.co.uk/MDRSdtmUD/ACME/V1#D-ACME_XXDomain_V9> bd:ct ""^^xsd:string . 
<http://www.assero.co.uk/MDRSdtmUD/ACME/V1#D-ACME_XXDomain_V9> bd:non_standard "false"^^xsd:boolean . 
<http://www.assero.co.uk/MDRSdtmUD/ACME/V1#D-ACME_XXDomain_V9> bd:comment ""^^xsd:string . 
<http://www.assero.co.uk/MDRSdtmUD/ACME/V1#D-ACME_XXDomain_V9> bd:length "0"^^xsd:string . 
<http://www.assero.co.uk/MDRSdtmUD/ACME/V1#D-ACME_XXDomain_V9> bd:used "true"^^xsd:boolean . 
<http://www.assero.co.uk/MDRSdtmUD/ACME/V1#D-ACME_XXDomain_V9> bd:key_ordinal "0"^^xsd:integer . 
<http://www.assero.co.uk/MDRSdtmUD/ACME/V1#D-ACME_XXDomain_V9> bd:typedAs <http://www.assero.co.uk/MDRSdtmM/CDISC/V3#M-CDISC_SDTMMODEL_DT_CHAR> . 
<http://www.assero.co.uk/MDRSdtmUD/ACME/V1#D-ACME_XXDomain_V9> bd:compliance <http://www.assero.co.uk/MDRSdtmIgD/CDISC/V3#IG-CDISC_SDTMIGVS_C_PERMISSIBLE> . 
<http://www.assero.co.uk/MDRSdtmUD/ACME/V1#D-ACME_XXDomain_V9> bd:classifiedAs <http://www.assero.co.uk/MDRSdtmM/CDISC/V3#M-CDISC_SDTMMODEL_SC_GROUPINGQUALIFIER> . 
<http://www.assero.co.uk/MDRSdtmUD/ACME/V1#D-ACME_XXDomain_V9_IGV1> rdf:type <http://www.assero.co.uk/BusinessOperational#CReference> . 
<http://www.assero.co.uk/MDRSdtmUD/ACME/V1#D-ACME_XXDomain_V9_IGV1> rdfs:label "Based on Variable Reference"^^xsd:string . 
<http://www.assero.co.uk/MDRSdtmUD/ACME/V1#D-ACME_XXDomain_V9_IGV1> bo:hasColumn <http://www.assero.co.uk/MDRSdtmIgD/CDISC/V3#IG-CDISC_SDTMIGVS_VSCAT> . 
<http://www.assero.co.uk/MDRSdtmUD/ACME/V1#D-ACME_XXDomain_V9_IGV1> bo:enabled "true"^^xsd:boolean . 
<http://www.assero.co.uk/MDRSdtmUD/ACME/V1#D-ACME_XXDomain_V9_IGV1> bo:optional "false"^^xsd:boolean . 
<http://www.assero.co.uk/MDRSdtmUD/ACME/V1#D-ACME_XXDomain_V9_IGV1> bo:ordinal "1"^^xsd:positiveInteger . 
<http://www.assero.co.uk/MDRSdtmUD/ACME/V1#D-ACME_XXDomain_V9_IGV1> bo:local_label ""^^xsd:string . 
<http://www.assero.co.uk/MDRSdtmUD/ACME/V1#D-ACME_XXDomain_V9> bd:basedOnVariable <http://www.assero.co.uk/MDRSdtmUD/ACME/V1#D-ACME_XXDomain_V9_IGV1> . 
<http://www.assero.co.uk/MDRSdtmUD/ACME/V1#D-ACME_XXDomain> bd:includesColumn <http://www.assero.co.uk/MDRSdtmUD/ACME/V1#D-ACME_XXDomain_V9> . 
<http://www.assero.co.uk/MDRSdtmUD/ACME/V1#D-ACME_XXDomain_V10> rdf:type <http://www.assero.co.uk/BusinessDomain#UserVariable> . 
<http://www.assero.co.uk/MDRSdtmUD/ACME/V1#D-ACME_XXDomain_V10> rdfs:label "Subcategory for Vital Signs"^^xsd:string . 
<http://www.assero.co.uk/MDRSdtmUD/ACME/V1#D-ACME_XXDomain_V10> bd:ordinal "10"^^xsd:positiveInteger . 
<http://www.assero.co.uk/MDRSdtmUD/ACME/V1#D-ACME_XXDomain_V10> bd:rule ""^^xsd:string . 
<http://www.assero.co.uk/MDRSdtmUD/ACME/V1#D-ACME_XXDomain_V10> bd:name "XXSCAT"^^xsd:string . 
<http://www.assero.co.uk/MDRSdtmUD/ACME/V1#D-ACME_XXDomain_V10> bd:notes ""^^xsd:string . 
<http://www.assero.co.uk/MDRSdtmUD/ACME/V1#D-ACME_XXDomain_V10> bd:format ""^^xsd:string . 
<http://www.assero.co.uk/MDRSdtmUD/ACME/V1#D-ACME_XXDomain_V10> bd:ct ""^^xsd:string . 
<http://www.assero.co.uk/MDRSdtmUD/ACME/V1#D-ACME_XXDomain_V10> bd:non_standard "false"^^xsd:boolean . 
<http://www.assero.co.uk/MDRSdtmUD/ACME/V1#D-ACME_XXDomain_V10> bd:comment ""^^xsd:string . 
<http://www.assero.co.uk/MDRSdtmUD/ACME/V1#D-ACME_XXDomain_V10> bd:length "0"^^xsd:string . 
<http://www.assero.co.uk/MDRSdtmUD/ACME/V1#D-ACME_XXDomain_V10> bd:used "true"^^xsd:boolean . 
<http://www.assero.co.uk/MDRSdtmUD/ACME/V1#D-ACME_XXDomain_V10> bd:key_ordinal "0"^^xsd:integer . 
<http://www.assero.co.uk/MDRSdtmUD/ACME/V1#D-ACME_XXDomain_V10> bd:typedAs <http://www.assero.co.uk/MDRSdtmM/CDISC/V3#M-CDISC_SDTMMODEL_DT_CHAR> . 
<http://www.assero.co.uk/MDRSdtmUD/ACME/V1#D-ACME_XXDomain_V10> bd:compliance <http://www.assero.co.uk/MDRSdtmIgD/CDISC/V3#IG-CDISC_SDTMIGVS_C_PERMISSIBLE> . 
<http://www.assero.co.uk/MDRSdtmUD/ACME/V1#D-ACME_XXDomain_V10> bd:classifiedAs <http://www.assero.co.uk/MDRSdtmM/CDISC/V3#M-CDISC_SDTMMODEL_SC_GROUPINGQUALIFIER> . 
<http://www.assero.co.uk/MDRSdtmUD/ACME/V1#D-ACME_XXDomain_V10_IGV1> rdf:type <http://www.assero.co.uk/BusinessOperational#CReference> . 
<http://www.assero.co.uk/MDRSdtmUD/ACME/V1#D-ACME_XXDomain_V10_IGV1> rdfs:label "Based on Variable Reference"^^xsd:string . 
<http://www.assero.co.uk/MDRSdtmUD/ACME/V1#D-ACME_XXDomain_V10_IGV1> bo:hasColumn <http://www.assero.co.uk/MDRSdtmIgD/CDISC/V3#IG-CDISC_SDTMIGVS_VSSCAT> . 
<http://www.assero.co.uk/MDRSdtmUD/ACME/V1#D-ACME_XXDomain_V10_IGV1> bo:enabled "true"^^xsd:boolean . 
<http://www.assero.co.uk/MDRSdtmUD/ACME/V1#D-ACME_XXDomain_V10_IGV1> bo:optional "false"^^xsd:boolean . 
<http://www.assero.co.uk/MDRSdtmUD/ACME/V1#D-ACME_XXDomain_V10_IGV1> bo:ordinal "1"^^xsd:positiveInteger . 
<http://www.assero.co.uk/MDRSdtmUD/ACME/V1#D-ACME_XXDomain_V10_IGV1> bo:local_label ""^^xsd:string . 
<http://www.assero.co.uk/MDRSdtmUD/ACME/V1#D-ACME_XXDomain_V10> bd:basedOnVariable <http://www.assero.co.uk/MDRSdtmUD/ACME/V1#D-ACME_XXDomain_V10_IGV1> . 
<http://www.assero.co.uk/MDRSdtmUD/ACME/V1#D-ACME_XXDomain> bd:includesColumn <http://www.assero.co.uk/MDRSdtmUD/ACME/V1#D-ACME_XXDomain_V10> . 
<http://www.assero.co.uk/MDRSdtmUD/ACME/V1#D-ACME_XXDomain_V11> rdf:type <http://www.assero.co.uk/BusinessDomain#UserVariable> . 
<http://www.assero.co.uk/MDRSdtmUD/ACME/V1#D-ACME_XXDomain_V11> rdfs:label "Vital Signs Position of Subject"^^xsd:string . 
<http://www.assero.co.uk/MDRSdtmUD/ACME/V1#D-ACME_XXDomain_V11> bd:ordinal "11"^^xsd:positiveInteger . 
<http://www.assero.co.uk/MDRSdtmUD/ACME/V1#D-ACME_XXDomain_V11> bd:rule ""^^xsd:string . 
<http://www.assero.co.uk/MDRSdtmUD/ACME/V1#D-ACME_XXDomain_V11> bd:name "XXPOS"^^xsd:string . 
<http://www.assero.co.uk/MDRSdtmUD/ACME/V1#D-ACME_XXDomain_V11> bd:notes ""^^xsd:string . 
<http://www.assero.co.uk/MDRSdtmUD/ACME/V1#D-ACME_XXDomain_V11> bd:format ""^^xsd:string . 
<http://www.assero.co.uk/MDRSdtmUD/ACME/V1#D-ACME_XXDomain_V11> bd:ct "POSITION"^^xsd:string . 
<http://www.assero.co.uk/MDRSdtmUD/ACME/V1#D-ACME_XXDomain_V11> bd:non_standard "false"^^xsd:boolean . 
<http://www.assero.co.uk/MDRSdtmUD/ACME/V1#D-ACME_XXDomain_V11> bd:comment ""^^xsd:string . 
<http://www.assero.co.uk/MDRSdtmUD/ACME/V1#D-ACME_XXDomain_V11> bd:length "0"^^xsd:string . 
<http://www.assero.co.uk/MDRSdtmUD/ACME/V1#D-ACME_XXDomain_V11> bd:used "true"^^xsd:boolean . 
<http://www.assero.co.uk/MDRSdtmUD/ACME/V1#D-ACME_XXDomain_V11> bd:key_ordinal "0"^^xsd:integer . 
<http://www.assero.co.uk/MDRSdtmUD/ACME/V1#D-ACME_XXDomain_V11> bd:typedAs <http://www.assero.co.uk/MDRSdtmM/CDISC/V3#M-CDISC_SDTMMODEL_DT_CHAR> . 
<http://www.assero.co.uk/MDRSdtmUD/ACME/V1#D-ACME_XXDomain_V11> bd:compliance <http://www.assero.co.uk/MDRSdtmIgD/CDISC/V3#IG-CDISC_SDTMIGVS_C_PERMISSIBLE> . 
<http://www.assero.co.uk/MDRSdtmUD/ACME/V1#D-ACME_XXDomain_V11> bd:classifiedAs <http://www.assero.co.uk/MDRSdtmM/CDISC/V3#M-CDISC_SDTMMODEL_SC_RECORDQUALIFIER> . 
<http://www.assero.co.uk/MDRSdtmUD/ACME/V1#D-ACME_XXDomain_V11_IGV1> rdf:type <http://www.assero.co.uk/BusinessOperational#CReference> . 
<http://www.assero.co.uk/MDRSdtmUD/ACME/V1#D-ACME_XXDomain_V11_IGV1> rdfs:label "Based on Variable Reference"^^xsd:string . 
<http://www.assero.co.uk/MDRSdtmUD/ACME/V1#D-ACME_XXDomain_V11_IGV1> bo:hasColumn <http://www.assero.co.uk/MDRSdtmIgD/CDISC/V3#IG-CDISC_SDTMIGVS_VSPOS> . 
<http://www.assero.co.uk/MDRSdtmUD/ACME/V1#D-ACME_XXDomain_V11_IGV1> bo:enabled "true"^^xsd:boolean . 
<http://www.assero.co.uk/MDRSdtmUD/ACME/V1#D-ACME_XXDomain_V11_IGV1> bo:optional "false"^^xsd:boolean . 
<http://www.assero.co.uk/MDRSdtmUD/ACME/V1#D-ACME_XXDomain_V11_IGV1> bo:ordinal "1"^^xsd:positiveInteger . 
<http://www.assero.co.uk/MDRSdtmUD/ACME/V1#D-ACME_XXDomain_V11_IGV1> bo:local_label ""^^xsd:string . 
<http://www.assero.co.uk/MDRSdtmUD/ACME/V1#D-ACME_XXDomain_V11> bd:basedOnVariable <http://www.assero.co.uk/MDRSdtmUD/ACME/V1#D-ACME_XXDomain_V11_IGV1> . 
<http://www.assero.co.uk/MDRSdtmUD/ACME/V1#D-ACME_XXDomain> bd:includesColumn <http://www.assero.co.uk/MDRSdtmUD/ACME/V1#D-ACME_XXDomain_V11> . 
<http://www.assero.co.uk/MDRSdtmUD/ACME/V1#D-ACME_XXDomain_V12> rdf:type <http://www.assero.co.uk/BusinessDomain#UserVariable> . 
<http://www.assero.co.uk/MDRSdtmUD/ACME/V1#D-ACME_XXDomain_V12> rdfs:label "Result or Finding in Original Units"^^xsd:string . 
<http://www.assero.co.uk/MDRSdtmUD/ACME/V1#D-ACME_XXDomain_V12> bd:ordinal "12"^^xsd:positiveInteger . 
<http://www.assero.co.uk/MDRSdtmUD/ACME/V1#D-ACME_XXDomain_V12> bd:rule ""^^xsd:string . 
<http://www.assero.co.uk/MDRSdtmUD/ACME/V1#D-ACME_XXDomain_V12> bd:name "XXORRES"^^xsd:string . 
<http://www.assero.co.uk/MDRSdtmUD/ACME/V1#D-ACME_XXDomain_V12> bd:notes ""^^xsd:string . 
<http://www.assero.co.uk/MDRSdtmUD/ACME/V1#D-ACME_XXDomain_V12> bd:format ""^^xsd:string . 
<http://www.assero.co.uk/MDRSdtmUD/ACME/V1#D-ACME_XXDomain_V12> bd:ct ""^^xsd:string . 
<http://www.assero.co.uk/MDRSdtmUD/ACME/V1#D-ACME_XXDomain_V12> bd:non_standard "false"^^xsd:boolean . 
<http://www.assero.co.uk/MDRSdtmUD/ACME/V1#D-ACME_XXDomain_V12> bd:comment ""^^xsd:string . 
<http://www.assero.co.uk/MDRSdtmUD/ACME/V1#D-ACME_XXDomain_V12> bd:length "0"^^xsd:string . 
<http://www.assero.co.uk/MDRSdtmUD/ACME/V1#D-ACME_XXDomain_V12> bd:used "true"^^xsd:boolean . 
<http://www.assero.co.uk/MDRSdtmUD/ACME/V1#D-ACME_XXDomain_V12> bd:key_ordinal "0"^^xsd:integer . 
<http://www.assero.co.uk/MDRSdtmUD/ACME/V1#D-ACME_XXDomain_V12> bd:typedAs <http://www.assero.co.uk/MDRSdtmM/CDISC/V3#M-CDISC_SDTMMODEL_DT_CHAR> . 
<http://www.assero.co.uk/MDRSdtmUD/ACME/V1#D-ACME_XXDomain_V12> bd:compliance <http://www.assero.co.uk/MDRSdtmIgD/CDISC/V3#IG-CDISC_SDTMIGVS_C_EXPECTED> . 
<http://www.assero.co.uk/MDRSdtmUD/ACME/V1#D-ACME_XXDomain_V12> bd:classifiedAs <http://www.assero.co.uk/MDRSdtmM/CDISC/V3#M-CDISC_SDTMMODEL_SC_RESULTQUALIFIER> . 
<http://www.assero.co.uk/MDRSdtmUD/ACME/V1#D-ACME_XXDomain_V12_IGV1> rdf:type <http://www.assero.co.uk/BusinessOperational#CReference> . 
<http://www.assero.co.uk/MDRSdtmUD/ACME/V1#D-ACME_XXDomain_V12_IGV1> rdfs:label "Based on Variable Reference"^^xsd:string . 
<http://www.assero.co.uk/MDRSdtmUD/ACME/V1#D-ACME_XXDomain_V12_IGV1> bo:hasColumn <http://www.assero.co.uk/MDRSdtmIgD/CDISC/V3#IG-CDISC_SDTMIGVS_VSORRES> . 
<http://www.assero.co.uk/MDRSdtmUD/ACME/V1#D-ACME_XXDomain_V12_IGV1> bo:enabled "true"^^xsd:boolean . 
<http://www.assero.co.uk/MDRSdtmUD/ACME/V1#D-ACME_XXDomain_V12_IGV1> bo:optional "false"^^xsd:boolean . 
<http://www.assero.co.uk/MDRSdtmUD/ACME/V1#D-ACME_XXDomain_V12_IGV1> bo:ordinal "1"^^xsd:positiveInteger . 
<http://www.assero.co.uk/MDRSdtmUD/ACME/V1#D-ACME_XXDomain_V12_IGV1> bo:local_label ""^^xsd:string . 
<http://www.assero.co.uk/MDRSdtmUD/ACME/V1#D-ACME_XXDomain_V12> bd:basedOnVariable <http://www.assero.co.uk/MDRSdtmUD/ACME/V1#D-ACME_XXDomain_V12_IGV1> . 
<http://www.assero.co.uk/MDRSdtmUD/ACME/V1#D-ACME_XXDomain> bd:includesColumn <http://www.assero.co.uk/MDRSdtmUD/ACME/V1#D-ACME_XXDomain_V12> . 
<http://www.assero.co.uk/MDRSdtmUD/ACME/V1#D-ACME_XXDomain_V13> rdf:type <http://www.assero.co.uk/BusinessDomain#UserVariable> . 
<http://www.assero.co.uk/MDRSdtmUD/ACME/V1#D-ACME_XXDomain_V13> rdfs:label "Original Units"^^xsd:string . 
<http://www.assero.co.uk/MDRSdtmUD/ACME/V1#D-ACME_XXDomain_V13> bd:ordinal "13"^^xsd:positiveInteger . 
<http://www.assero.co.uk/MDRSdtmUD/ACME/V1#D-ACME_XXDomain_V13> bd:rule ""^^xsd:string . 
<http://www.assero.co.uk/MDRSdtmUD/ACME/V1#D-ACME_XXDomain_V13> bd:name "XXORRESU"^^xsd:string . 
<http://www.assero.co.uk/MDRSdtmUD/ACME/V1#D-ACME_XXDomain_V13> bd:notes ""^^xsd:string . 
<http://www.assero.co.uk/MDRSdtmUD/ACME/V1#D-ACME_XXDomain_V13> bd:format ""^^xsd:string . 
<http://www.assero.co.uk/MDRSdtmUD/ACME/V1#D-ACME_XXDomain_V13> bd:ct "VSRESU"^^xsd:string . 
<http://www.assero.co.uk/MDRSdtmUD/ACME/V1#D-ACME_XXDomain_V13> bd:non_standard "false"^^xsd:boolean . 
<http://www.assero.co.uk/MDRSdtmUD/ACME/V1#D-ACME_XXDomain_V13> bd:comment ""^^xsd:string . 
<http://www.assero.co.uk/MDRSdtmUD/ACME/V1#D-ACME_XXDomain_V13> bd:length "0"^^xsd:string . 
<http://www.assero.co.uk/MDRSdtmUD/ACME/V1#D-ACME_XXDomain_V13> bd:used "true"^^xsd:boolean . 
<http://www.assero.co.uk/MDRSdtmUD/ACME/V1#D-ACME_XXDomain_V13> bd:key_ordinal "0"^^xsd:integer . 
<http://www.assero.co.uk/MDRSdtmUD/ACME/V1#D-ACME_XXDomain_V13> bd:typedAs <http://www.assero.co.uk/MDRSdtmM/CDISC/V3#M-CDISC_SDTMMODEL_DT_CHAR> . 
<http://www.assero.co.uk/MDRSdtmUD/ACME/V1#D-ACME_XXDomain_V13> bd:compliance <http://www.assero.co.uk/MDRSdtmIgD/CDISC/V3#IG-CDISC_SDTMIGVS_C_EXPECTED> . 
<http://www.assero.co.uk/MDRSdtmUD/ACME/V1#D-ACME_XXDomain_V13> bd:classifiedAs <http://www.assero.co.uk/MDRSdtmM/CDISC/V3#M-CDISC_SDTMMODEL_SC_VARIABLEQUALIFIER> . 
<http://www.assero.co.uk/MDRSdtmUD/ACME/V1#D-ACME_XXDomain_V13_IGV1> rdf:type <http://www.assero.co.uk/BusinessOperational#CReference> . 
<http://www.assero.co.uk/MDRSdtmUD/ACME/V1#D-ACME_XXDomain_V13_IGV1> rdfs:label "Based on Variable Reference"^^xsd:string . 
<http://www.assero.co.uk/MDRSdtmUD/ACME/V1#D-ACME_XXDomain_V13_IGV1> bo:hasColumn <http://www.assero.co.uk/MDRSdtmIgD/CDISC/V3#IG-CDISC_SDTMIGVS_VSORRESU> . 
<http://www.assero.co.uk/MDRSdtmUD/ACME/V1#D-ACME_XXDomain_V13_IGV1> bo:enabled "true"^^xsd:boolean . 
<http://www.assero.co.uk/MDRSdtmUD/ACME/V1#D-ACME_XXDomain_V13_IGV1> bo:optional "false"^^xsd:boolean . 
<http://www.assero.co.uk/MDRSdtmUD/ACME/V1#D-ACME_XXDomain_V13_IGV1> bo:ordinal "1"^^xsd:positiveInteger . 
<http://www.assero.co.uk/MDRSdtmUD/ACME/V1#D-ACME_XXDomain_V13_IGV1> bo:local_label ""^^xsd:string . 
<http://www.assero.co.uk/MDRSdtmUD/ACME/V1#D-ACME_XXDomain_V13> bd:basedOnVariable <http://www.assero.co.uk/MDRSdtmUD/ACME/V1#D-ACME_XXDomain_V13_IGV1> . 
<http://www.assero.co.uk/MDRSdtmUD/ACME/V1#D-ACME_XXDomain> bd:includesColumn <http://www.assero.co.uk/MDRSdtmUD/ACME/V1#D-ACME_XXDomain_V13> . 
<http://www.assero.co.uk/MDRSdtmUD/ACME/V1#D-ACME_XXDomain_V14> rdf:type <http://www.assero.co.uk/BusinessDomain#UserVariable> . 
<http://www.assero.co.uk/MDRSdtmUD/ACME/V1#D-ACME_XXDomain_V14> rdfs:label "Character Result/Finding in Std Format"^^xsd:string . 
<http://www.assero.co.uk/MDRSdtmUD/ACME/V1#D-ACME_XXDomain_V14> bd:ordinal "14"^^xsd:positiveInteger . 
<http://www.assero.co.uk/MDRSdtmUD/ACME/V1#D-ACME_XXDomain_V14> bd:rule ""^^xsd:string . 
<http://www.assero.co.uk/MDRSdtmUD/ACME/V1#D-ACME_XXDomain_V14> bd:name "XXSTRESC"^^xsd:string . 
<http://www.assero.co.uk/MDRSdtmUD/ACME/V1#D-ACME_XXDomain_V14> bd:notes ""^^xsd:string . 
<http://www.assero.co.uk/MDRSdtmUD/ACME/V1#D-ACME_XXDomain_V14> bd:format ""^^xsd:string . 
<http://www.assero.co.uk/MDRSdtmUD/ACME/V1#D-ACME_XXDomain_V14> bd:ct ""^^xsd:string . 
<http://www.assero.co.uk/MDRSdtmUD/ACME/V1#D-ACME_XXDomain_V14> bd:non_standard "false"^^xsd:boolean . 
<http://www.assero.co.uk/MDRSdtmUD/ACME/V1#D-ACME_XXDomain_V14> bd:comment ""^^xsd:string . 
<http://www.assero.co.uk/MDRSdtmUD/ACME/V1#D-ACME_XXDomain_V14> bd:length "0"^^xsd:string . 
<http://www.assero.co.uk/MDRSdtmUD/ACME/V1#D-ACME_XXDomain_V14> bd:used "true"^^xsd:boolean . 
<http://www.assero.co.uk/MDRSdtmUD/ACME/V1#D-ACME_XXDomain_V14> bd:key_ordinal "0"^^xsd:integer . 
<http://www.assero.co.uk/MDRSdtmUD/ACME/V1#D-ACME_XXDomain_V14> bd:typedAs <http://www.assero.co.uk/MDRSdtmM/CDISC/V3#M-CDISC_SDTMMODEL_DT_CHAR> . 
<http://www.assero.co.uk/MDRSdtmUD/ACME/V1#D-ACME_XXDomain_V14> bd:compliance <http://www.assero.co.uk/MDRSdtmIgD/CDISC/V3#IG-CDISC_SDTMIGVS_C_EXPECTED> . 
<http://www.assero.co.uk/MDRSdtmUD/ACME/V1#D-ACME_XXDomain_V14> bd:classifiedAs <http://www.assero.co.uk/MDRSdtmM/CDISC/V3#M-CDISC_SDTMMODEL_SC_RESULTQUALIFIER> . 
<http://www.assero.co.uk/MDRSdtmUD/ACME/V1#D-ACME_XXDomain_V14_IGV1> rdf:type <http://www.assero.co.uk/BusinessOperational#CReference> . 
<http://www.assero.co.uk/MDRSdtmUD/ACME/V1#D-ACME_XXDomain_V14_IGV1> rdfs:label "Based on Variable Reference"^^xsd:string . 
<http://www.assero.co.uk/MDRSdtmUD/ACME/V1#D-ACME_XXDomain_V14_IGV1> bo:hasColumn <http://www.assero.co.uk/MDRSdtmIgD/CDISC/V3#IG-CDISC_SDTMIGVS_VSSTRESC> . 
<http://www.assero.co.uk/MDRSdtmUD/ACME/V1#D-ACME_XXDomain_V14_IGV1> bo:enabled "true"^^xsd:boolean . 
<http://www.assero.co.uk/MDRSdtmUD/ACME/V1#D-ACME_XXDomain_V14_IGV1> bo:optional "false"^^xsd:boolean . 
<http://www.assero.co.uk/MDRSdtmUD/ACME/V1#D-ACME_XXDomain_V14_IGV1> bo:ordinal "1"^^xsd:positiveInteger . 
<http://www.assero.co.uk/MDRSdtmUD/ACME/V1#D-ACME_XXDomain_V14_IGV1> bo:local_label ""^^xsd:string . 
<http://www.assero.co.uk/MDRSdtmUD/ACME/V1#D-ACME_XXDomain_V14> bd:basedOnVariable <http://www.assero.co.uk/MDRSdtmUD/ACME/V1#D-ACME_XXDomain_V14_IGV1> . 
<http://www.assero.co.uk/MDRSdtmUD/ACME/V1#D-ACME_XXDomain> bd:includesColumn <http://www.assero.co.uk/MDRSdtmUD/ACME/V1#D-ACME_XXDomain_V14> . 
<http://www.assero.co.uk/MDRSdtmUD/ACME/V1#D-ACME_XXDomain_V15> rdf:type <http://www.assero.co.uk/BusinessDomain#UserVariable> . 
<http://www.assero.co.uk/MDRSdtmUD/ACME/V1#D-ACME_XXDomain_V15> rdfs:label "Numeric Result/Finding in Standard Units"^^xsd:string . 
<http://www.assero.co.uk/MDRSdtmUD/ACME/V1#D-ACME_XXDomain_V15> bd:ordinal "15"^^xsd:positiveInteger . 
<http://www.assero.co.uk/MDRSdtmUD/ACME/V1#D-ACME_XXDomain_V15> bd:rule ""^^xsd:string . 
<http://www.assero.co.uk/MDRSdtmUD/ACME/V1#D-ACME_XXDomain_V15> bd:name "XXSTRESN"^^xsd:string . 
<http://www.assero.co.uk/MDRSdtmUD/ACME/V1#D-ACME_XXDomain_V15> bd:notes ""^^xsd:string . 
<http://www.assero.co.uk/MDRSdtmUD/ACME/V1#D-ACME_XXDomain_V15> bd:format ""^^xsd:string . 
<http://www.assero.co.uk/MDRSdtmUD/ACME/V1#D-ACME_XXDomain_V15> bd:ct ""^^xsd:string . 
<http://www.assero.co.uk/MDRSdtmUD/ACME/V1#D-ACME_XXDomain_V15> bd:non_standard "false"^^xsd:boolean . 
<http://www.assero.co.uk/MDRSdtmUD/ACME/V1#D-ACME_XXDomain_V15> bd:comment ""^^xsd:string . 
<http://www.assero.co.uk/MDRSdtmUD/ACME/V1#D-ACME_XXDomain_V15> bd:length "0"^^xsd:string . 
<http://www.assero.co.uk/MDRSdtmUD/ACME/V1#D-ACME_XXDomain_V15> bd:used "true"^^xsd:boolean . 
<http://www.assero.co.uk/MDRSdtmUD/ACME/V1#D-ACME_XXDomain_V15> bd:key_ordinal "0"^^xsd:integer . 
<http://www.assero.co.uk/MDRSdtmUD/ACME/V1#D-ACME_XXDomain_V15> bd:typedAs <http://www.assero.co.uk/MDRSdtmM/CDISC/V3#M-CDISC_SDTMMODEL_DT_NUM> . 
<http://www.assero.co.uk/MDRSdtmUD/ACME/V1#D-ACME_XXDomain_V15> bd:compliance <http://www.assero.co.uk/MDRSdtmIgD/CDISC/V3#IG-CDISC_SDTMIGVS_C_EXPECTED> . 
<http://www.assero.co.uk/MDRSdtmUD/ACME/V1#D-ACME_XXDomain_V15> bd:classifiedAs <http://www.assero.co.uk/MDRSdtmM/CDISC/V3#M-CDISC_SDTMMODEL_SC_RESULTQUALIFIER> . 
<http://www.assero.co.uk/MDRSdtmUD/ACME/V1#D-ACME_XXDomain_V15_IGV1> rdf:type <http://www.assero.co.uk/BusinessOperational#CReference> . 
<http://www.assero.co.uk/MDRSdtmUD/ACME/V1#D-ACME_XXDomain_V15_IGV1> rdfs:label "Based on Variable Reference"^^xsd:string . 
<http://www.assero.co.uk/MDRSdtmUD/ACME/V1#D-ACME_XXDomain_V15_IGV1> bo:hasColumn <http://www.assero.co.uk/MDRSdtmIgD/CDISC/V3#IG-CDISC_SDTMIGVS_VSSTRESN> . 
<http://www.assero.co.uk/MDRSdtmUD/ACME/V1#D-ACME_XXDomain_V15_IGV1> bo:enabled "true"^^xsd:boolean . 
<http://www.assero.co.uk/MDRSdtmUD/ACME/V1#D-ACME_XXDomain_V15_IGV1> bo:optional "false"^^xsd:boolean . 
<http://www.assero.co.uk/MDRSdtmUD/ACME/V1#D-ACME_XXDomain_V15_IGV1> bo:ordinal "1"^^xsd:positiveInteger . 
<http://www.assero.co.uk/MDRSdtmUD/ACME/V1#D-ACME_XXDomain_V15_IGV1> bo:local_label ""^^xsd:string . 
<http://www.assero.co.uk/MDRSdtmUD/ACME/V1#D-ACME_XXDomain_V15> bd:basedOnVariable <http://www.assero.co.uk/MDRSdtmUD/ACME/V1#D-ACME_XXDomain_V15_IGV1> . 
<http://www.assero.co.uk/MDRSdtmUD/ACME/V1#D-ACME_XXDomain> bd:includesColumn <http://www.assero.co.uk/MDRSdtmUD/ACME/V1#D-ACME_XXDomain_V15> . 
<http://www.assero.co.uk/MDRSdtmUD/ACME/V1#D-ACME_XXDomain_V16> rdf:type <http://www.assero.co.uk/BusinessDomain#UserVariable> . 
<http://www.assero.co.uk/MDRSdtmUD/ACME/V1#D-ACME_XXDomain_V16> rdfs:label "Standard Units"^^xsd:string . 
<http://www.assero.co.uk/MDRSdtmUD/ACME/V1#D-ACME_XXDomain_V16> bd:ordinal "16"^^xsd:positiveInteger . 
<http://www.assero.co.uk/MDRSdtmUD/ACME/V1#D-ACME_XXDomain_V16> bd:rule ""^^xsd:string . 
<http://www.assero.co.uk/MDRSdtmUD/ACME/V1#D-ACME_XXDomain_V16> bd:name "XXSTRESU"^^xsd:string . 
<http://www.assero.co.uk/MDRSdtmUD/ACME/V1#D-ACME_XXDomain_V16> bd:notes ""^^xsd:string . 
<http://www.assero.co.uk/MDRSdtmUD/ACME/V1#D-ACME_XXDomain_V16> bd:format ""^^xsd:string . 
<http://www.assero.co.uk/MDRSdtmUD/ACME/V1#D-ACME_XXDomain_V16> bd:ct "VSRESU"^^xsd:string . 
<http://www.assero.co.uk/MDRSdtmUD/ACME/V1#D-ACME_XXDomain_V16> bd:non_standard "false"^^xsd:boolean . 
<http://www.assero.co.uk/MDRSdtmUD/ACME/V1#D-ACME_XXDomain_V16> bd:comment ""^^xsd:string . 
<http://www.assero.co.uk/MDRSdtmUD/ACME/V1#D-ACME_XXDomain_V16> bd:length "0"^^xsd:string . 
<http://www.assero.co.uk/MDRSdtmUD/ACME/V1#D-ACME_XXDomain_V16> bd:used "true"^^xsd:boolean . 
<http://www.assero.co.uk/MDRSdtmUD/ACME/V1#D-ACME_XXDomain_V16> bd:key_ordinal "0"^^xsd:integer . 
<http://www.assero.co.uk/MDRSdtmUD/ACME/V1#D-ACME_XXDomain_V16> bd:typedAs <http://www.assero.co.uk/MDRSdtmM/CDISC/V3#M-CDISC_SDTMMODEL_DT_CHAR> . 
<http://www.assero.co.uk/MDRSdtmUD/ACME/V1#D-ACME_XXDomain_V16> bd:compliance <http://www.assero.co.uk/MDRSdtmIgD/CDISC/V3#IG-CDISC_SDTMIGVS_C_EXPECTED> . 
<http://www.assero.co.uk/MDRSdtmUD/ACME/V1#D-ACME_XXDomain_V16> bd:classifiedAs <http://www.assero.co.uk/MDRSdtmM/CDISC/V3#M-CDISC_SDTMMODEL_SC_VARIABLEQUALIFIER> . 
<http://www.assero.co.uk/MDRSdtmUD/ACME/V1#D-ACME_XXDomain_V16_IGV1> rdf:type <http://www.assero.co.uk/BusinessOperational#CReference> . 
<http://www.assero.co.uk/MDRSdtmUD/ACME/V1#D-ACME_XXDomain_V16_IGV1> rdfs:label "Based on Variable Reference"^^xsd:string . 
<http://www.assero.co.uk/MDRSdtmUD/ACME/V1#D-ACME_XXDomain_V16_IGV1> bo:hasColumn <http://www.assero.co.uk/MDRSdtmIgD/CDISC/V3#IG-CDISC_SDTMIGVS_VSSTRESU> . 
<http://www.assero.co.uk/MDRSdtmUD/ACME/V1#D-ACME_XXDomain_V16_IGV1> bo:enabled "true"^^xsd:boolean . 
<http://www.assero.co.uk/MDRSdtmUD/ACME/V1#D-ACME_XXDomain_V16_IGV1> bo:optional "false"^^xsd:boolean . 
<http://www.assero.co.uk/MDRSdtmUD/ACME/V1#D-ACME_XXDomain_V16_IGV1> bo:ordinal "1"^^xsd:positiveInteger . 
<http://www.assero.co.uk/MDRSdtmUD/ACME/V1#D-ACME_XXDomain_V16_IGV1> bo:local_label ""^^xsd:string . 
<http://www.assero.co.uk/MDRSdtmUD/ACME/V1#D-ACME_XXDomain_V16> bd:basedOnVariable <http://www.assero.co.uk/MDRSdtmUD/ACME/V1#D-ACME_XXDomain_V16_IGV1> . 
<http://www.assero.co.uk/MDRSdtmUD/ACME/V1#D-ACME_XXDomain> bd:includesColumn <http://www.assero.co.uk/MDRSdtmUD/ACME/V1#D-ACME_XXDomain_V16> . 
<http://www.assero.co.uk/MDRSdtmUD/ACME/V1#D-ACME_XXDomain_V17> rdf:type <http://www.assero.co.uk/BusinessDomain#UserVariable> . 
<http://www.assero.co.uk/MDRSdtmUD/ACME/V1#D-ACME_XXDomain_V17> rdfs:label "Completion Status"^^xsd:string . 
<http://www.assero.co.uk/MDRSdtmUD/ACME/V1#D-ACME_XXDomain_V17> bd:ordinal "17"^^xsd:positiveInteger . 
<http://www.assero.co.uk/MDRSdtmUD/ACME/V1#D-ACME_XXDomain_V17> bd:rule ""^^xsd:string . 
<http://www.assero.co.uk/MDRSdtmUD/ACME/V1#D-ACME_XXDomain_V17> bd:name "XXSTAT"^^xsd:string . 
<http://www.assero.co.uk/MDRSdtmUD/ACME/V1#D-ACME_XXDomain_V17> bd:notes ""^^xsd:string . 
<http://www.assero.co.uk/MDRSdtmUD/ACME/V1#D-ACME_XXDomain_V17> bd:format ""^^xsd:string . 
<http://www.assero.co.uk/MDRSdtmUD/ACME/V1#D-ACME_XXDomain_V17> bd:ct "ND"^^xsd:string . 
<http://www.assero.co.uk/MDRSdtmUD/ACME/V1#D-ACME_XXDomain_V17> bd:non_standard "false"^^xsd:boolean . 
<http://www.assero.co.uk/MDRSdtmUD/ACME/V1#D-ACME_XXDomain_V17> bd:comment ""^^xsd:string . 
<http://www.assero.co.uk/MDRSdtmUD/ACME/V1#D-ACME_XXDomain_V17> bd:length "0"^^xsd:string . 
<http://www.assero.co.uk/MDRSdtmUD/ACME/V1#D-ACME_XXDomain_V17> bd:used "true"^^xsd:boolean . 
<http://www.assero.co.uk/MDRSdtmUD/ACME/V1#D-ACME_XXDomain_V17> bd:key_ordinal "0"^^xsd:integer . 
<http://www.assero.co.uk/MDRSdtmUD/ACME/V1#D-ACME_XXDomain_V17> bd:typedAs <http://www.assero.co.uk/MDRSdtmM/CDISC/V3#M-CDISC_SDTMMODEL_DT_CHAR> . 
<http://www.assero.co.uk/MDRSdtmUD/ACME/V1#D-ACME_XXDomain_V17> bd:compliance <http://www.assero.co.uk/MDRSdtmIgD/CDISC/V3#IG-CDISC_SDTMIGVS_C_PERMISSIBLE> . 
<http://www.assero.co.uk/MDRSdtmUD/ACME/V1#D-ACME_XXDomain_V17> bd:classifiedAs <http://www.assero.co.uk/MDRSdtmM/CDISC/V3#M-CDISC_SDTMMODEL_SC_RECORDQUALIFIER> . 
<http://www.assero.co.uk/MDRSdtmUD/ACME/V1#D-ACME_XXDomain_V17_IGV1> rdf:type <http://www.assero.co.uk/BusinessOperational#CReference> . 
<http://www.assero.co.uk/MDRSdtmUD/ACME/V1#D-ACME_XXDomain_V17_IGV1> rdfs:label "Based on Variable Reference"^^xsd:string . 
<http://www.assero.co.uk/MDRSdtmUD/ACME/V1#D-ACME_XXDomain_V17_IGV1> bo:hasColumn <http://www.assero.co.uk/MDRSdtmIgD/CDISC/V3#IG-CDISC_SDTMIGVS_VSSTAT> . 
<http://www.assero.co.uk/MDRSdtmUD/ACME/V1#D-ACME_XXDomain_V17_IGV1> bo:enabled "true"^^xsd:boolean . 
<http://www.assero.co.uk/MDRSdtmUD/ACME/V1#D-ACME_XXDomain_V17_IGV1> bo:optional "false"^^xsd:boolean . 
<http://www.assero.co.uk/MDRSdtmUD/ACME/V1#D-ACME_XXDomain_V17_IGV1> bo:ordinal "1"^^xsd:positiveInteger . 
<http://www.assero.co.uk/MDRSdtmUD/ACME/V1#D-ACME_XXDomain_V17_IGV1> bo:local_label ""^^xsd:string . 
<http://www.assero.co.uk/MDRSdtmUD/ACME/V1#D-ACME_XXDomain_V17> bd:basedOnVariable <http://www.assero.co.uk/MDRSdtmUD/ACME/V1#D-ACME_XXDomain_V17_IGV1> . 
<http://www.assero.co.uk/MDRSdtmUD/ACME/V1#D-ACME_XXDomain> bd:includesColumn <http://www.assero.co.uk/MDRSdtmUD/ACME/V1#D-ACME_XXDomain_V17> . 
<http://www.assero.co.uk/MDRSdtmUD/ACME/V1#D-ACME_XXDomain_V18> rdf:type <http://www.assero.co.uk/BusinessDomain#UserVariable> . 
<http://www.assero.co.uk/MDRSdtmUD/ACME/V1#D-ACME_XXDomain_V18> rdfs:label "Reason Not Performed"^^xsd:string . 
<http://www.assero.co.uk/MDRSdtmUD/ACME/V1#D-ACME_XXDomain_V18> bd:ordinal "18"^^xsd:positiveInteger . 
<http://www.assero.co.uk/MDRSdtmUD/ACME/V1#D-ACME_XXDomain_V18> bd:rule ""^^xsd:string . 
<http://www.assero.co.uk/MDRSdtmUD/ACME/V1#D-ACME_XXDomain_V18> bd:name "XXREASND"^^xsd:string . 
<http://www.assero.co.uk/MDRSdtmUD/ACME/V1#D-ACME_XXDomain_V18> bd:notes ""^^xsd:string . 
<http://www.assero.co.uk/MDRSdtmUD/ACME/V1#D-ACME_XXDomain_V18> bd:format ""^^xsd:string . 
<http://www.assero.co.uk/MDRSdtmUD/ACME/V1#D-ACME_XXDomain_V18> bd:ct ""^^xsd:string . 
<http://www.assero.co.uk/MDRSdtmUD/ACME/V1#D-ACME_XXDomain_V18> bd:non_standard "false"^^xsd:boolean . 
<http://www.assero.co.uk/MDRSdtmUD/ACME/V1#D-ACME_XXDomain_V18> bd:comment ""^^xsd:string . 
<http://www.assero.co.uk/MDRSdtmUD/ACME/V1#D-ACME_XXDomain_V18> bd:length "0"^^xsd:string . 
<http://www.assero.co.uk/MDRSdtmUD/ACME/V1#D-ACME_XXDomain_V18> bd:used "true"^^xsd:boolean . 
<http://www.assero.co.uk/MDRSdtmUD/ACME/V1#D-ACME_XXDomain_V18> bd:key_ordinal "0"^^xsd:integer . 
<http://www.assero.co.uk/MDRSdtmUD/ACME/V1#D-ACME_XXDomain_V18> bd:typedAs <http://www.assero.co.uk/MDRSdtmM/CDISC/V3#M-CDISC_SDTMMODEL_DT_CHAR> . 
<http://www.assero.co.uk/MDRSdtmUD/ACME/V1#D-ACME_XXDomain_V18> bd:compliance <http://www.assero.co.uk/MDRSdtmIgD/CDISC/V3#IG-CDISC_SDTMIGVS_C_PERMISSIBLE> . 
<http://www.assero.co.uk/MDRSdtmUD/ACME/V1#D-ACME_XXDomain_V18> bd:classifiedAs <http://www.assero.co.uk/MDRSdtmM/CDISC/V3#M-CDISC_SDTMMODEL_SC_RECORDQUALIFIER> . 
<http://www.assero.co.uk/MDRSdtmUD/ACME/V1#D-ACME_XXDomain_V18_IGV1> rdf:type <http://www.assero.co.uk/BusinessOperational#CReference> . 
<http://www.assero.co.uk/MDRSdtmUD/ACME/V1#D-ACME_XXDomain_V18_IGV1> rdfs:label "Based on Variable Reference"^^xsd:string . 
<http://www.assero.co.uk/MDRSdtmUD/ACME/V1#D-ACME_XXDomain_V18_IGV1> bo:hasColumn <http://www.assero.co.uk/MDRSdtmIgD/CDISC/V3#IG-CDISC_SDTMIGVS_VSREASND> . 
<http://www.assero.co.uk/MDRSdtmUD/ACME/V1#D-ACME_XXDomain_V18_IGV1> bo:enabled "true"^^xsd:boolean . 
<http://www.assero.co.uk/MDRSdtmUD/ACME/V1#D-ACME_XXDomain_V18_IGV1> bo:optional "false"^^xsd:boolean . 
<http://www.assero.co.uk/MDRSdtmUD/ACME/V1#D-ACME_XXDomain_V18_IGV1> bo:ordinal "1"^^xsd:positiveInteger . 
<http://www.assero.co.uk/MDRSdtmUD/ACME/V1#D-ACME_XXDomain_V18_IGV1> bo:local_label ""^^xsd:string . 
<http://www.assero.co.uk/MDRSdtmUD/ACME/V1#D-ACME_XXDomain_V18> bd:basedOnVariable <http://www.assero.co.uk/MDRSdtmUD/ACME/V1#D-ACME_XXDomain_V18_IGV1> . 
<http://www.assero.co.uk/MDRSdtmUD/ACME/V1#D-ACME_XXDomain> bd:includesColumn <http://www.assero.co.uk/MDRSdtmUD/ACME/V1#D-ACME_XXDomain_V18> . 
<http://www.assero.co.uk/MDRSdtmUD/ACME/V1#D-ACME_XXDomain_V19> rdf:type <http://www.assero.co.uk/BusinessDomain#UserVariable> . 
<http://www.assero.co.uk/MDRSdtmUD/ACME/V1#D-ACME_XXDomain_V19> rdfs:label "Location of Vital Signs Measurement"^^xsd:string . 
<http://www.assero.co.uk/MDRSdtmUD/ACME/V1#D-ACME_XXDomain_V19> bd:ordinal "19"^^xsd:positiveInteger . 
<http://www.assero.co.uk/MDRSdtmUD/ACME/V1#D-ACME_XXDomain_V19> bd:rule ""^^xsd:string . 
<http://www.assero.co.uk/MDRSdtmUD/ACME/V1#D-ACME_XXDomain_V19> bd:name "XXLOC"^^xsd:string . 
<http://www.assero.co.uk/MDRSdtmUD/ACME/V1#D-ACME_XXDomain_V19> bd:notes ""^^xsd:string . 
<http://www.assero.co.uk/MDRSdtmUD/ACME/V1#D-ACME_XXDomain_V19> bd:format ""^^xsd:string . 
<http://www.assero.co.uk/MDRSdtmUD/ACME/V1#D-ACME_XXDomain_V19> bd:ct "LOC"^^xsd:string . 
<http://www.assero.co.uk/MDRSdtmUD/ACME/V1#D-ACME_XXDomain_V19> bd:non_standard "false"^^xsd:boolean . 
<http://www.assero.co.uk/MDRSdtmUD/ACME/V1#D-ACME_XXDomain_V19> bd:comment ""^^xsd:string . 
<http://www.assero.co.uk/MDRSdtmUD/ACME/V1#D-ACME_XXDomain_V19> bd:length "0"^^xsd:string . 
<http://www.assero.co.uk/MDRSdtmUD/ACME/V1#D-ACME_XXDomain_V19> bd:used "true"^^xsd:boolean . 
<http://www.assero.co.uk/MDRSdtmUD/ACME/V1#D-ACME_XXDomain_V19> bd:key_ordinal "0"^^xsd:integer . 
<http://www.assero.co.uk/MDRSdtmUD/ACME/V1#D-ACME_XXDomain_V19> bd:typedAs <http://www.assero.co.uk/MDRSdtmM/CDISC/V3#M-CDISC_SDTMMODEL_DT_CHAR> . 
<http://www.assero.co.uk/MDRSdtmUD/ACME/V1#D-ACME_XXDomain_V19> bd:compliance <http://www.assero.co.uk/MDRSdtmIgD/CDISC/V3#IG-CDISC_SDTMIGVS_C_PERMISSIBLE> . 
<http://www.assero.co.uk/MDRSdtmUD/ACME/V1#D-ACME_XXDomain_V19> bd:classifiedAs <http://www.assero.co.uk/MDRSdtmM/CDISC/V3#M-CDISC_SDTMMODEL_SC_RECORDQUALIFIER> . 
<http://www.assero.co.uk/MDRSdtmUD/ACME/V1#D-ACME_XXDomain_V19_IGV1> rdf:type <http://www.assero.co.uk/BusinessOperational#CReference> . 
<http://www.assero.co.uk/MDRSdtmUD/ACME/V1#D-ACME_XXDomain_V19_IGV1> rdfs:label "Based on Variable Reference"^^xsd:string . 
<http://www.assero.co.uk/MDRSdtmUD/ACME/V1#D-ACME_XXDomain_V19_IGV1> bo:hasColumn <http://www.assero.co.uk/MDRSdtmIgD/CDISC/V3#IG-CDISC_SDTMIGVS_VSLOC> . 
<http://www.assero.co.uk/MDRSdtmUD/ACME/V1#D-ACME_XXDomain_V19_IGV1> bo:enabled "true"^^xsd:boolean . 
<http://www.assero.co.uk/MDRSdtmUD/ACME/V1#D-ACME_XXDomain_V19_IGV1> bo:optional "false"^^xsd:boolean . 
<http://www.assero.co.uk/MDRSdtmUD/ACME/V1#D-ACME_XXDomain_V19_IGV1> bo:ordinal "1"^^xsd:positiveInteger . 
<http://www.assero.co.uk/MDRSdtmUD/ACME/V1#D-ACME_XXDomain_V19_IGV1> bo:local_label ""^^xsd:string . 
<http://www.assero.co.uk/MDRSdtmUD/ACME/V1#D-ACME_XXDomain_V19> bd:basedOnVariable <http://www.assero.co.uk/MDRSdtmUD/ACME/V1#D-ACME_XXDomain_V19_IGV1> . 
<http://www.assero.co.uk/MDRSdtmUD/ACME/V1#D-ACME_XXDomain> bd:includesColumn <http://www.assero.co.uk/MDRSdtmUD/ACME/V1#D-ACME_XXDomain_V19> . 
<http://www.assero.co.uk/MDRSdtmUD/ACME/V1#D-ACME_XXDomain_V20> rdf:type <http://www.assero.co.uk/BusinessDomain#UserVariable> . 
<http://www.assero.co.uk/MDRSdtmUD/ACME/V1#D-ACME_XXDomain_V20> rdfs:label "Laterality"^^xsd:string . 
<http://www.assero.co.uk/MDRSdtmUD/ACME/V1#D-ACME_XXDomain_V20> bd:ordinal "20"^^xsd:positiveInteger . 
<http://www.assero.co.uk/MDRSdtmUD/ACME/V1#D-ACME_XXDomain_V20> bd:rule ""^^xsd:string . 
<http://www.assero.co.uk/MDRSdtmUD/ACME/V1#D-ACME_XXDomain_V20> bd:name "XXLAT"^^xsd:string . 
<http://www.assero.co.uk/MDRSdtmUD/ACME/V1#D-ACME_XXDomain_V20> bd:notes ""^^xsd:string . 
<http://www.assero.co.uk/MDRSdtmUD/ACME/V1#D-ACME_XXDomain_V20> bd:format ""^^xsd:string . 
<http://www.assero.co.uk/MDRSdtmUD/ACME/V1#D-ACME_XXDomain_V20> bd:ct "LAT"^^xsd:string . 
<http://www.assero.co.uk/MDRSdtmUD/ACME/V1#D-ACME_XXDomain_V20> bd:non_standard "false"^^xsd:boolean . 
<http://www.assero.co.uk/MDRSdtmUD/ACME/V1#D-ACME_XXDomain_V20> bd:comment ""^^xsd:string . 
<http://www.assero.co.uk/MDRSdtmUD/ACME/V1#D-ACME_XXDomain_V20> bd:length "0"^^xsd:string . 
<http://www.assero.co.uk/MDRSdtmUD/ACME/V1#D-ACME_XXDomain_V20> bd:used "true"^^xsd:boolean . 
<http://www.assero.co.uk/MDRSdtmUD/ACME/V1#D-ACME_XXDomain_V20> bd:key_ordinal "0"^^xsd:integer . 
<http://www.assero.co.uk/MDRSdtmUD/ACME/V1#D-ACME_XXDomain_V20> bd:typedAs <http://www.assero.co.uk/MDRSdtmM/CDISC/V3#M-CDISC_SDTMMODEL_DT_CHAR> . 
<http://www.assero.co.uk/MDRSdtmUD/ACME/V1#D-ACME_XXDomain_V20> bd:compliance <http://www.assero.co.uk/MDRSdtmIgD/CDISC/V3#IG-CDISC_SDTMIGVS_C_PERMISSIBLE> . 
<http://www.assero.co.uk/MDRSdtmUD/ACME/V1#D-ACME_XXDomain_V20> bd:classifiedAs <http://www.assero.co.uk/MDRSdtmM/CDISC/V3#M-CDISC_SDTMMODEL_SC_VARIABLEQUALIFIER> . 
<http://www.assero.co.uk/MDRSdtmUD/ACME/V1#D-ACME_XXDomain_V20_IGV1> rdf:type <http://www.assero.co.uk/BusinessOperational#CReference> . 
<http://www.assero.co.uk/MDRSdtmUD/ACME/V1#D-ACME_XXDomain_V20_IGV1> rdfs:label "Based on Variable Reference"^^xsd:string . 
<http://www.assero.co.uk/MDRSdtmUD/ACME/V1#D-ACME_XXDomain_V20_IGV1> bo:hasColumn <http://www.assero.co.uk/MDRSdtmIgD/CDISC/V3#IG-CDISC_SDTMIGVS_VSLAT> . 
<http://www.assero.co.uk/MDRSdtmUD/ACME/V1#D-ACME_XXDomain_V20_IGV1> bo:enabled "true"^^xsd:boolean . 
<http://www.assero.co.uk/MDRSdtmUD/ACME/V1#D-ACME_XXDomain_V20_IGV1> bo:optional "false"^^xsd:boolean . 
<http://www.assero.co.uk/MDRSdtmUD/ACME/V1#D-ACME_XXDomain_V20_IGV1> bo:ordinal "1"^^xsd:positiveInteger . 
<http://www.assero.co.uk/MDRSdtmUD/ACME/V1#D-ACME_XXDomain_V20_IGV1> bo:local_label ""^^xsd:string . 
<http://www.assero.co.uk/MDRSdtmUD/ACME/V1#D-ACME_XXDomain_V20> bd:basedOnVariable <http://www.assero.co.uk/MDRSdtmUD/ACME/V1#D-ACME_XXDomain_V20_IGV1> . 
<http://www.assero.co.uk/MDRSdtmUD/ACME/V1#D-ACME_XXDomain> bd:includesColumn <http://www.assero.co.uk/MDRSdtmUD/ACME/V1#D-ACME_XXDomain_V20> . 
<http://www.assero.co.uk/MDRSdtmUD/ACME/V1#D-ACME_XXDomain_V21> rdf:type <http://www.assero.co.uk/BusinessDomain#UserVariable> . 
<http://www.assero.co.uk/MDRSdtmUD/ACME/V1#D-ACME_XXDomain_V21> rdfs:label "Baseline Flag"^^xsd:string . 
<http://www.assero.co.uk/MDRSdtmUD/ACME/V1#D-ACME_XXDomain_V21> bd:ordinal "21"^^xsd:positiveInteger . 
<http://www.assero.co.uk/MDRSdtmUD/ACME/V1#D-ACME_XXDomain_V21> bd:rule ""^^xsd:string . 
<http://www.assero.co.uk/MDRSdtmUD/ACME/V1#D-ACME_XXDomain_V21> bd:name "XXBLFL"^^xsd:string . 
<http://www.assero.co.uk/MDRSdtmUD/ACME/V1#D-ACME_XXDomain_V21> bd:notes ""^^xsd:string . 
<http://www.assero.co.uk/MDRSdtmUD/ACME/V1#D-ACME_XXDomain_V21> bd:format ""^^xsd:string . 
<http://www.assero.co.uk/MDRSdtmUD/ACME/V1#D-ACME_XXDomain_V21> bd:ct "NY"^^xsd:string . 
<http://www.assero.co.uk/MDRSdtmUD/ACME/V1#D-ACME_XXDomain_V21> bd:non_standard "false"^^xsd:boolean . 
<http://www.assero.co.uk/MDRSdtmUD/ACME/V1#D-ACME_XXDomain_V21> bd:comment ""^^xsd:string . 
<http://www.assero.co.uk/MDRSdtmUD/ACME/V1#D-ACME_XXDomain_V21> bd:length "0"^^xsd:string . 
<http://www.assero.co.uk/MDRSdtmUD/ACME/V1#D-ACME_XXDomain_V21> bd:used "true"^^xsd:boolean . 
<http://www.assero.co.uk/MDRSdtmUD/ACME/V1#D-ACME_XXDomain_V21> bd:key_ordinal "0"^^xsd:integer . 
<http://www.assero.co.uk/MDRSdtmUD/ACME/V1#D-ACME_XXDomain_V21> bd:typedAs <http://www.assero.co.uk/MDRSdtmM/CDISC/V3#M-CDISC_SDTMMODEL_DT_CHAR> . 
<http://www.assero.co.uk/MDRSdtmUD/ACME/V1#D-ACME_XXDomain_V21> bd:compliance <http://www.assero.co.uk/MDRSdtmIgD/CDISC/V3#IG-CDISC_SDTMIGVS_C_EXPECTED> . 
<http://www.assero.co.uk/MDRSdtmUD/ACME/V1#D-ACME_XXDomain_V21> bd:classifiedAs <http://www.assero.co.uk/MDRSdtmM/CDISC/V3#M-CDISC_SDTMMODEL_SC_RECORDQUALIFIER> . 
<http://www.assero.co.uk/MDRSdtmUD/ACME/V1#D-ACME_XXDomain_V21_IGV1> rdf:type <http://www.assero.co.uk/BusinessOperational#CReference> . 
<http://www.assero.co.uk/MDRSdtmUD/ACME/V1#D-ACME_XXDomain_V21_IGV1> rdfs:label "Based on Variable Reference"^^xsd:string . 
<http://www.assero.co.uk/MDRSdtmUD/ACME/V1#D-ACME_XXDomain_V21_IGV1> bo:hasColumn <http://www.assero.co.uk/MDRSdtmIgD/CDISC/V3#IG-CDISC_SDTMIGVS_VSBLFL> . 
<http://www.assero.co.uk/MDRSdtmUD/ACME/V1#D-ACME_XXDomain_V21_IGV1> bo:enabled "true"^^xsd:boolean . 
<http://www.assero.co.uk/MDRSdtmUD/ACME/V1#D-ACME_XXDomain_V21_IGV1> bo:optional "false"^^xsd:boolean . 
<http://www.assero.co.uk/MDRSdtmUD/ACME/V1#D-ACME_XXDomain_V21_IGV1> bo:ordinal "1"^^xsd:positiveInteger . 
<http://www.assero.co.uk/MDRSdtmUD/ACME/V1#D-ACME_XXDomain_V21_IGV1> bo:local_label ""^^xsd:string . 
<http://www.assero.co.uk/MDRSdtmUD/ACME/V1#D-ACME_XXDomain_V21> bd:basedOnVariable <http://www.assero.co.uk/MDRSdtmUD/ACME/V1#D-ACME_XXDomain_V21_IGV1> . 
<http://www.assero.co.uk/MDRSdtmUD/ACME/V1#D-ACME_XXDomain> bd:includesColumn <http://www.assero.co.uk/MDRSdtmUD/ACME/V1#D-ACME_XXDomain_V21> . 
<http://www.assero.co.uk/MDRSdtmUD/ACME/V1#D-ACME_XXDomain_V22> rdf:type <http://www.assero.co.uk/BusinessDomain#UserVariable> . 
<http://www.assero.co.uk/MDRSdtmUD/ACME/V1#D-ACME_XXDomain_V22> rdfs:label "Derived Flag"^^xsd:string . 
<http://www.assero.co.uk/MDRSdtmUD/ACME/V1#D-ACME_XXDomain_V22> bd:ordinal "22"^^xsd:positiveInteger . 
<http://www.assero.co.uk/MDRSdtmUD/ACME/V1#D-ACME_XXDomain_V22> bd:rule ""^^xsd:string . 
<http://www.assero.co.uk/MDRSdtmUD/ACME/V1#D-ACME_XXDomain_V22> bd:name "XXDRVFL"^^xsd:string . 
<http://www.assero.co.uk/MDRSdtmUD/ACME/V1#D-ACME_XXDomain_V22> bd:notes ""^^xsd:string . 
<http://www.assero.co.uk/MDRSdtmUD/ACME/V1#D-ACME_XXDomain_V22> bd:format ""^^xsd:string . 
<http://www.assero.co.uk/MDRSdtmUD/ACME/V1#D-ACME_XXDomain_V22> bd:ct "NY"^^xsd:string . 
<http://www.assero.co.uk/MDRSdtmUD/ACME/V1#D-ACME_XXDomain_V22> bd:non_standard "false"^^xsd:boolean . 
<http://www.assero.co.uk/MDRSdtmUD/ACME/V1#D-ACME_XXDomain_V22> bd:comment ""^^xsd:string . 
<http://www.assero.co.uk/MDRSdtmUD/ACME/V1#D-ACME_XXDomain_V22> bd:length "0"^^xsd:string . 
<http://www.assero.co.uk/MDRSdtmUD/ACME/V1#D-ACME_XXDomain_V22> bd:used "true"^^xsd:boolean . 
<http://www.assero.co.uk/MDRSdtmUD/ACME/V1#D-ACME_XXDomain_V22> bd:key_ordinal "0"^^xsd:integer . 
<http://www.assero.co.uk/MDRSdtmUD/ACME/V1#D-ACME_XXDomain_V22> bd:typedAs <http://www.assero.co.uk/MDRSdtmM/CDISC/V3#M-CDISC_SDTMMODEL_DT_CHAR> . 
<http://www.assero.co.uk/MDRSdtmUD/ACME/V1#D-ACME_XXDomain_V22> bd:compliance <http://www.assero.co.uk/MDRSdtmIgD/CDISC/V3#IG-CDISC_SDTMIGVS_C_PERMISSIBLE> . 
<http://www.assero.co.uk/MDRSdtmUD/ACME/V1#D-ACME_XXDomain_V22> bd:classifiedAs <http://www.assero.co.uk/MDRSdtmM/CDISC/V3#M-CDISC_SDTMMODEL_SC_RECORDQUALIFIER> . 
<http://www.assero.co.uk/MDRSdtmUD/ACME/V1#D-ACME_XXDomain_V22_IGV1> rdf:type <http://www.assero.co.uk/BusinessOperational#CReference> . 
<http://www.assero.co.uk/MDRSdtmUD/ACME/V1#D-ACME_XXDomain_V22_IGV1> rdfs:label "Based on Variable Reference"^^xsd:string . 
<http://www.assero.co.uk/MDRSdtmUD/ACME/V1#D-ACME_XXDomain_V22_IGV1> bo:hasColumn <http://www.assero.co.uk/MDRSdtmIgD/CDISC/V3#IG-CDISC_SDTMIGVS_VSDRVFL> . 
<http://www.assero.co.uk/MDRSdtmUD/ACME/V1#D-ACME_XXDomain_V22_IGV1> bo:enabled "true"^^xsd:boolean . 
<http://www.assero.co.uk/MDRSdtmUD/ACME/V1#D-ACME_XXDomain_V22_IGV1> bo:optional "false"^^xsd:boolean . 
<http://www.assero.co.uk/MDRSdtmUD/ACME/V1#D-ACME_XXDomain_V22_IGV1> bo:ordinal "1"^^xsd:positiveInteger . 
<http://www.assero.co.uk/MDRSdtmUD/ACME/V1#D-ACME_XXDomain_V22_IGV1> bo:local_label ""^^xsd:string . 
<http://www.assero.co.uk/MDRSdtmUD/ACME/V1#D-ACME_XXDomain_V22> bd:basedOnVariable <http://www.assero.co.uk/MDRSdtmUD/ACME/V1#D-ACME_XXDomain_V22_IGV1> . 
<http://www.assero.co.uk/MDRSdtmUD/ACME/V1#D-ACME_XXDomain> bd:includesColumn <http://www.assero.co.uk/MDRSdtmUD/ACME/V1#D-ACME_XXDomain_V22> . 
<http://www.assero.co.uk/MDRSdtmUD/ACME/V1#D-ACME_XXDomain_V23> rdf:type <http://www.assero.co.uk/BusinessDomain#UserVariable> . 
<http://www.assero.co.uk/MDRSdtmUD/ACME/V1#D-ACME_XXDomain_V23> rdfs:label "Visit Number"^^xsd:string . 
<http://www.assero.co.uk/MDRSdtmUD/ACME/V1#D-ACME_XXDomain_V23> bd:ordinal "23"^^xsd:positiveInteger . 
<http://www.assero.co.uk/MDRSdtmUD/ACME/V1#D-ACME_XXDomain_V23> bd:rule ""^^xsd:string . 
<http://www.assero.co.uk/MDRSdtmUD/ACME/V1#D-ACME_XXDomain_V23> bd:name "VISITNUM"^^xsd:string . 
<http://www.assero.co.uk/MDRSdtmUD/ACME/V1#D-ACME_XXDomain_V23> bd:notes ""^^xsd:string . 
<http://www.assero.co.uk/MDRSdtmUD/ACME/V1#D-ACME_XXDomain_V23> bd:format ""^^xsd:string . 
<http://www.assero.co.uk/MDRSdtmUD/ACME/V1#D-ACME_XXDomain_V23> bd:ct ""^^xsd:string . 
<http://www.assero.co.uk/MDRSdtmUD/ACME/V1#D-ACME_XXDomain_V23> bd:non_standard "false"^^xsd:boolean . 
<http://www.assero.co.uk/MDRSdtmUD/ACME/V1#D-ACME_XXDomain_V23> bd:comment ""^^xsd:string . 
<http://www.assero.co.uk/MDRSdtmUD/ACME/V1#D-ACME_XXDomain_V23> bd:length "0"^^xsd:string . 
<http://www.assero.co.uk/MDRSdtmUD/ACME/V1#D-ACME_XXDomain_V23> bd:used "true"^^xsd:boolean . 
<http://www.assero.co.uk/MDRSdtmUD/ACME/V1#D-ACME_XXDomain_V23> bd:key_ordinal "0"^^xsd:integer . 
<http://www.assero.co.uk/MDRSdtmUD/ACME/V1#D-ACME_XXDomain_V23> bd:typedAs <http://www.assero.co.uk/MDRSdtmM/CDISC/V3#M-CDISC_SDTMMODEL_DT_NUM> . 
<http://www.assero.co.uk/MDRSdtmUD/ACME/V1#D-ACME_XXDomain_V23> bd:compliance <http://www.assero.co.uk/MDRSdtmIgD/CDISC/V3#IG-CDISC_SDTMIGVS_C_EXPECTED> . 
<http://www.assero.co.uk/MDRSdtmUD/ACME/V1#D-ACME_XXDomain_V23> bd:classifiedAs <http://www.assero.co.uk/MDRSdtmM/CDISC/V3#M-CDISC_SDTMMODEL_C_TIMING> . 
<http://www.assero.co.uk/MDRSdtmUD/ACME/V1#D-ACME_XXDomain_V23_IGV1> rdf:type <http://www.assero.co.uk/BusinessOperational#CReference> . 
<http://www.assero.co.uk/MDRSdtmUD/ACME/V1#D-ACME_XXDomain_V23_IGV1> rdfs:label "Based on Variable Reference"^^xsd:string . 
<http://www.assero.co.uk/MDRSdtmUD/ACME/V1#D-ACME_XXDomain_V23_IGV1> bo:hasColumn <http://www.assero.co.uk/MDRSdtmIgD/CDISC/V3#IG-CDISC_SDTMIGVS_VISITNUM> . 
<http://www.assero.co.uk/MDRSdtmUD/ACME/V1#D-ACME_XXDomain_V23_IGV1> bo:enabled "true"^^xsd:boolean . 
<http://www.assero.co.uk/MDRSdtmUD/ACME/V1#D-ACME_XXDomain_V23_IGV1> bo:optional "false"^^xsd:boolean . 
<http://www.assero.co.uk/MDRSdtmUD/ACME/V1#D-ACME_XXDomain_V23_IGV1> bo:ordinal "1"^^xsd:positiveInteger . 
<http://www.assero.co.uk/MDRSdtmUD/ACME/V1#D-ACME_XXDomain_V23_IGV1> bo:local_label ""^^xsd:string . 
<http://www.assero.co.uk/MDRSdtmUD/ACME/V1#D-ACME_XXDomain_V23> bd:basedOnVariable <http://www.assero.co.uk/MDRSdtmUD/ACME/V1#D-ACME_XXDomain_V23_IGV1> . 
<http://www.assero.co.uk/MDRSdtmUD/ACME/V1#D-ACME_XXDomain> bd:includesColumn <http://www.assero.co.uk/MDRSdtmUD/ACME/V1#D-ACME_XXDomain_V23> . 
<http://www.assero.co.uk/MDRSdtmUD/ACME/V1#D-ACME_XXDomain_V24> rdf:type <http://www.assero.co.uk/BusinessDomain#UserVariable> . 
<http://www.assero.co.uk/MDRSdtmUD/ACME/V1#D-ACME_XXDomain_V24> rdfs:label "Visit Name"^^xsd:string . 
<http://www.assero.co.uk/MDRSdtmUD/ACME/V1#D-ACME_XXDomain_V24> bd:ordinal "24"^^xsd:positiveInteger . 
<http://www.assero.co.uk/MDRSdtmUD/ACME/V1#D-ACME_XXDomain_V24> bd:rule ""^^xsd:string . 
<http://www.assero.co.uk/MDRSdtmUD/ACME/V1#D-ACME_XXDomain_V24> bd:name "VISIT"^^xsd:string . 
<http://www.assero.co.uk/MDRSdtmUD/ACME/V1#D-ACME_XXDomain_V24> bd:notes ""^^xsd:string . 
<http://www.assero.co.uk/MDRSdtmUD/ACME/V1#D-ACME_XXDomain_V24> bd:format ""^^xsd:string . 
<http://www.assero.co.uk/MDRSdtmUD/ACME/V1#D-ACME_XXDomain_V24> bd:ct ""^^xsd:string . 
<http://www.assero.co.uk/MDRSdtmUD/ACME/V1#D-ACME_XXDomain_V24> bd:non_standard "false"^^xsd:boolean . 
<http://www.assero.co.uk/MDRSdtmUD/ACME/V1#D-ACME_XXDomain_V24> bd:comment ""^^xsd:string . 
<http://www.assero.co.uk/MDRSdtmUD/ACME/V1#D-ACME_XXDomain_V24> bd:length "0"^^xsd:string . 
<http://www.assero.co.uk/MDRSdtmUD/ACME/V1#D-ACME_XXDomain_V24> bd:used "true"^^xsd:boolean . 
<http://www.assero.co.uk/MDRSdtmUD/ACME/V1#D-ACME_XXDomain_V24> bd:key_ordinal "0"^^xsd:integer . 
<http://www.assero.co.uk/MDRSdtmUD/ACME/V1#D-ACME_XXDomain_V24> bd:typedAs <http://www.assero.co.uk/MDRSdtmM/CDISC/V3#M-CDISC_SDTMMODEL_DT_CHAR> . 
<http://www.assero.co.uk/MDRSdtmUD/ACME/V1#D-ACME_XXDomain_V24> bd:compliance <http://www.assero.co.uk/MDRSdtmIgD/CDISC/V3#IG-CDISC_SDTMIGVS_C_PERMISSIBLE> . 
<http://www.assero.co.uk/MDRSdtmUD/ACME/V1#D-ACME_XXDomain_V24> bd:classifiedAs <http://www.assero.co.uk/MDRSdtmM/CDISC/V3#M-CDISC_SDTMMODEL_C_TIMING> . 
<http://www.assero.co.uk/MDRSdtmUD/ACME/V1#D-ACME_XXDomain_V24_IGV1> rdf:type <http://www.assero.co.uk/BusinessOperational#CReference> . 
<http://www.assero.co.uk/MDRSdtmUD/ACME/V1#D-ACME_XXDomain_V24_IGV1> rdfs:label "Based on Variable Reference"^^xsd:string . 
<http://www.assero.co.uk/MDRSdtmUD/ACME/V1#D-ACME_XXDomain_V24_IGV1> bo:hasColumn <http://www.assero.co.uk/MDRSdtmIgD/CDISC/V3#IG-CDISC_SDTMIGVS_VISIT> . 
<http://www.assero.co.uk/MDRSdtmUD/ACME/V1#D-ACME_XXDomain_V24_IGV1> bo:enabled "true"^^xsd:boolean . 
<http://www.assero.co.uk/MDRSdtmUD/ACME/V1#D-ACME_XXDomain_V24_IGV1> bo:optional "false"^^xsd:boolean . 
<http://www.assero.co.uk/MDRSdtmUD/ACME/V1#D-ACME_XXDomain_V24_IGV1> bo:ordinal "1"^^xsd:positiveInteger . 
<http://www.assero.co.uk/MDRSdtmUD/ACME/V1#D-ACME_XXDomain_V24_IGV1> bo:local_label ""^^xsd:string . 
<http://www.assero.co.uk/MDRSdtmUD/ACME/V1#D-ACME_XXDomain_V24> bd:basedOnVariable <http://www.assero.co.uk/MDRSdtmUD/ACME/V1#D-ACME_XXDomain_V24_IGV1> . 
<http://www.assero.co.uk/MDRSdtmUD/ACME/V1#D-ACME_XXDomain> bd:includesColumn <http://www.assero.co.uk/MDRSdtmUD/ACME/V1#D-ACME_XXDomain_V24> . 
<http://www.assero.co.uk/MDRSdtmUD/ACME/V1#D-ACME_XXDomain_V25> rdf:type <http://www.assero.co.uk/BusinessDomain#UserVariable> . 
<http://www.assero.co.uk/MDRSdtmUD/ACME/V1#D-ACME_XXDomain_V25> rdfs:label "Planned Study Day of Visit"^^xsd:string . 
<http://www.assero.co.uk/MDRSdtmUD/ACME/V1#D-ACME_XXDomain_V25> bd:ordinal "25"^^xsd:positiveInteger . 
<http://www.assero.co.uk/MDRSdtmUD/ACME/V1#D-ACME_XXDomain_V25> bd:rule ""^^xsd:string . 
<http://www.assero.co.uk/MDRSdtmUD/ACME/V1#D-ACME_XXDomain_V25> bd:name "VISITDY"^^xsd:string . 
<http://www.assero.co.uk/MDRSdtmUD/ACME/V1#D-ACME_XXDomain_V25> bd:notes ""^^xsd:string . 
<http://www.assero.co.uk/MDRSdtmUD/ACME/V1#D-ACME_XXDomain_V25> bd:format ""^^xsd:string . 
<http://www.assero.co.uk/MDRSdtmUD/ACME/V1#D-ACME_XXDomain_V25> bd:ct ""^^xsd:string . 
<http://www.assero.co.uk/MDRSdtmUD/ACME/V1#D-ACME_XXDomain_V25> bd:non_standard "false"^^xsd:boolean . 
<http://www.assero.co.uk/MDRSdtmUD/ACME/V1#D-ACME_XXDomain_V25> bd:comment ""^^xsd:string . 
<http://www.assero.co.uk/MDRSdtmUD/ACME/V1#D-ACME_XXDomain_V25> bd:length "0"^^xsd:string . 
<http://www.assero.co.uk/MDRSdtmUD/ACME/V1#D-ACME_XXDomain_V25> bd:used "true"^^xsd:boolean . 
<http://www.assero.co.uk/MDRSdtmUD/ACME/V1#D-ACME_XXDomain_V25> bd:key_ordinal "0"^^xsd:integer . 
<http://www.assero.co.uk/MDRSdtmUD/ACME/V1#D-ACME_XXDomain_V25> bd:typedAs <http://www.assero.co.uk/MDRSdtmM/CDISC/V3#M-CDISC_SDTMMODEL_DT_NUM> . 
<http://www.assero.co.uk/MDRSdtmUD/ACME/V1#D-ACME_XXDomain_V25> bd:compliance <http://www.assero.co.uk/MDRSdtmIgD/CDISC/V3#IG-CDISC_SDTMIGVS_C_PERMISSIBLE> . 
<http://www.assero.co.uk/MDRSdtmUD/ACME/V1#D-ACME_XXDomain_V25> bd:classifiedAs <http://www.assero.co.uk/MDRSdtmM/CDISC/V3#M-CDISC_SDTMMODEL_C_TIMING> . 
<http://www.assero.co.uk/MDRSdtmUD/ACME/V1#D-ACME_XXDomain_V25_IGV1> rdf:type <http://www.assero.co.uk/BusinessOperational#CReference> . 
<http://www.assero.co.uk/MDRSdtmUD/ACME/V1#D-ACME_XXDomain_V25_IGV1> rdfs:label "Based on Variable Reference"^^xsd:string . 
<http://www.assero.co.uk/MDRSdtmUD/ACME/V1#D-ACME_XXDomain_V25_IGV1> bo:hasColumn <http://www.assero.co.uk/MDRSdtmIgD/CDISC/V3#IG-CDISC_SDTMIGVS_VISITDY> . 
<http://www.assero.co.uk/MDRSdtmUD/ACME/V1#D-ACME_XXDomain_V25_IGV1> bo:enabled "true"^^xsd:boolean . 
<http://www.assero.co.uk/MDRSdtmUD/ACME/V1#D-ACME_XXDomain_V25_IGV1> bo:optional "false"^^xsd:boolean . 
<http://www.assero.co.uk/MDRSdtmUD/ACME/V1#D-ACME_XXDomain_V25_IGV1> bo:ordinal "1"^^xsd:positiveInteger . 
<http://www.assero.co.uk/MDRSdtmUD/ACME/V1#D-ACME_XXDomain_V25_IGV1> bo:local_label ""^^xsd:string . 
<http://www.assero.co.uk/MDRSdtmUD/ACME/V1#D-ACME_XXDomain_V25> bd:basedOnVariable <http://www.assero.co.uk/MDRSdtmUD/ACME/V1#D-ACME_XXDomain_V25_IGV1> . 
<http://www.assero.co.uk/MDRSdtmUD/ACME/V1#D-ACME_XXDomain> bd:includesColumn <http://www.assero.co.uk/MDRSdtmUD/ACME/V1#D-ACME_XXDomain_V25> . 
<http://www.assero.co.uk/MDRSdtmUD/ACME/V1#D-ACME_XXDomain_V26> rdf:type <http://www.assero.co.uk/BusinessDomain#UserVariable> . 
<http://www.assero.co.uk/MDRSdtmUD/ACME/V1#D-ACME_XXDomain_V26> rdfs:label "Date/Time of Measurements"^^xsd:string . 
<http://www.assero.co.uk/MDRSdtmUD/ACME/V1#D-ACME_XXDomain_V26> bd:ordinal "26"^^xsd:positiveInteger . 
<http://www.assero.co.uk/MDRSdtmUD/ACME/V1#D-ACME_XXDomain_V26> bd:rule ""^^xsd:string . 
<http://www.assero.co.uk/MDRSdtmUD/ACME/V1#D-ACME_XXDomain_V26> bd:name "XXDTC"^^xsd:string . 
<http://www.assero.co.uk/MDRSdtmUD/ACME/V1#D-ACME_XXDomain_V26> bd:notes ""^^xsd:string . 
<http://www.assero.co.uk/MDRSdtmUD/ACME/V1#D-ACME_XXDomain_V26> bd:format "ISO 8601"^^xsd:string . 
<http://www.assero.co.uk/MDRSdtmUD/ACME/V1#D-ACME_XXDomain_V26> bd:ct ""^^xsd:string . 
<http://www.assero.co.uk/MDRSdtmUD/ACME/V1#D-ACME_XXDomain_V26> bd:non_standard "false"^^xsd:boolean . 
<http://www.assero.co.uk/MDRSdtmUD/ACME/V1#D-ACME_XXDomain_V26> bd:comment ""^^xsd:string . 
<http://www.assero.co.uk/MDRSdtmUD/ACME/V1#D-ACME_XXDomain_V26> bd:length "0"^^xsd:string . 
<http://www.assero.co.uk/MDRSdtmUD/ACME/V1#D-ACME_XXDomain_V26> bd:used "true"^^xsd:boolean . 
<http://www.assero.co.uk/MDRSdtmUD/ACME/V1#D-ACME_XXDomain_V26> bd:key_ordinal "0"^^xsd:integer . 
<http://www.assero.co.uk/MDRSdtmUD/ACME/V1#D-ACME_XXDomain_V26> bd:typedAs <http://www.assero.co.uk/MDRSdtmM/CDISC/V3#M-CDISC_SDTMMODEL_DT_CHAR> . 
<http://www.assero.co.uk/MDRSdtmUD/ACME/V1#D-ACME_XXDomain_V26> bd:compliance <http://www.assero.co.uk/MDRSdtmIgD/CDISC/V3#IG-CDISC_SDTMIGVS_C_EXPECTED> . 
<http://www.assero.co.uk/MDRSdtmUD/ACME/V1#D-ACME_XXDomain_V26> bd:classifiedAs <http://www.assero.co.uk/MDRSdtmM/CDISC/V3#M-CDISC_SDTMMODEL_C_TIMING> . 
<http://www.assero.co.uk/MDRSdtmUD/ACME/V1#D-ACME_XXDomain_V26_IGV1> rdf:type <http://www.assero.co.uk/BusinessOperational#CReference> . 
<http://www.assero.co.uk/MDRSdtmUD/ACME/V1#D-ACME_XXDomain_V26_IGV1> rdfs:label "Based on Variable Reference"^^xsd:string . 
<http://www.assero.co.uk/MDRSdtmUD/ACME/V1#D-ACME_XXDomain_V26_IGV1> bo:hasColumn <http://www.assero.co.uk/MDRSdtmIgD/CDISC/V3#IG-CDISC_SDTMIGVS_VSDTC> . 
<http://www.assero.co.uk/MDRSdtmUD/ACME/V1#D-ACME_XXDomain_V26_IGV1> bo:enabled "true"^^xsd:boolean . 
<http://www.assero.co.uk/MDRSdtmUD/ACME/V1#D-ACME_XXDomain_V26_IGV1> bo:optional "false"^^xsd:boolean . 
<http://www.assero.co.uk/MDRSdtmUD/ACME/V1#D-ACME_XXDomain_V26_IGV1> bo:ordinal "1"^^xsd:positiveInteger . 
<http://www.assero.co.uk/MDRSdtmUD/ACME/V1#D-ACME_XXDomain_V26_IGV1> bo:local_label ""^^xsd:string . 
<http://www.assero.co.uk/MDRSdtmUD/ACME/V1#D-ACME_XXDomain_V26> bd:basedOnVariable <http://www.assero.co.uk/MDRSdtmUD/ACME/V1#D-ACME_XXDomain_V26_IGV1> . 
<http://www.assero.co.uk/MDRSdtmUD/ACME/V1#D-ACME_XXDomain> bd:includesColumn <http://www.assero.co.uk/MDRSdtmUD/ACME/V1#D-ACME_XXDomain_V26> . 
<http://www.assero.co.uk/MDRSdtmUD/ACME/V1#D-ACME_XXDomain_V27> rdf:type <http://www.assero.co.uk/BusinessDomain#UserVariable> . 
<http://www.assero.co.uk/MDRSdtmUD/ACME/V1#D-ACME_XXDomain_V27> rdfs:label "Study Day of Vital Signs"^^xsd:string . 
<http://www.assero.co.uk/MDRSdtmUD/ACME/V1#D-ACME_XXDomain_V27> bd:ordinal "27"^^xsd:positiveInteger . 
<http://www.assero.co.uk/MDRSdtmUD/ACME/V1#D-ACME_XXDomain_V27> bd:rule ""^^xsd:string . 
<http://www.assero.co.uk/MDRSdtmUD/ACME/V1#D-ACME_XXDomain_V27> bd:name "XXDY"^^xsd:string . 
<http://www.assero.co.uk/MDRSdtmUD/ACME/V1#D-ACME_XXDomain_V27> bd:notes ""^^xsd:string . 
<http://www.assero.co.uk/MDRSdtmUD/ACME/V1#D-ACME_XXDomain_V27> bd:format ""^^xsd:string . 
<http://www.assero.co.uk/MDRSdtmUD/ACME/V1#D-ACME_XXDomain_V27> bd:ct ""^^xsd:string . 
<http://www.assero.co.uk/MDRSdtmUD/ACME/V1#D-ACME_XXDomain_V27> bd:non_standard "false"^^xsd:boolean . 
<http://www.assero.co.uk/MDRSdtmUD/ACME/V1#D-ACME_XXDomain_V27> bd:comment ""^^xsd:string . 
<http://www.assero.co.uk/MDRSdtmUD/ACME/V1#D-ACME_XXDomain_V27> bd:length "0"^^xsd:string . 
<http://www.assero.co.uk/MDRSdtmUD/ACME/V1#D-ACME_XXDomain_V27> bd:used "true"^^xsd:boolean . 
<http://www.assero.co.uk/MDRSdtmUD/ACME/V1#D-ACME_XXDomain_V27> bd:key_ordinal "0"^^xsd:integer . 
<http://www.assero.co.uk/MDRSdtmUD/ACME/V1#D-ACME_XXDomain_V27> bd:typedAs <http://www.assero.co.uk/MDRSdtmM/CDISC/V3#M-CDISC_SDTMMODEL_DT_NUM> . 
<http://www.assero.co.uk/MDRSdtmUD/ACME/V1#D-ACME_XXDomain_V27> bd:compliance <http://www.assero.co.uk/MDRSdtmIgD/CDISC/V3#IG-CDISC_SDTMIGVS_C_PERMISSIBLE> . 
<http://www.assero.co.uk/MDRSdtmUD/ACME/V1#D-ACME_XXDomain_V27> bd:classifiedAs <http://www.assero.co.uk/MDRSdtmM/CDISC/V3#M-CDISC_SDTMMODEL_C_TIMING> . 
<http://www.assero.co.uk/MDRSdtmUD/ACME/V1#D-ACME_XXDomain_V27_IGV1> rdf:type <http://www.assero.co.uk/BusinessOperational#CReference> . 
<http://www.assero.co.uk/MDRSdtmUD/ACME/V1#D-ACME_XXDomain_V27_IGV1> rdfs:label "Based on Variable Reference"^^xsd:string . 
<http://www.assero.co.uk/MDRSdtmUD/ACME/V1#D-ACME_XXDomain_V27_IGV1> bo:hasColumn <http://www.assero.co.uk/MDRSdtmIgD/CDISC/V3#IG-CDISC_SDTMIGVS_VSDY> . 
<http://www.assero.co.uk/MDRSdtmUD/ACME/V1#D-ACME_XXDomain_V27_IGV1> bo:enabled "true"^^xsd:boolean . 
<http://www.assero.co.uk/MDRSdtmUD/ACME/V1#D-ACME_XXDomain_V27_IGV1> bo:optional "false"^^xsd:boolean . 
<http://www.assero.co.uk/MDRSdtmUD/ACME/V1#D-ACME_XXDomain_V27_IGV1> bo:ordinal "1"^^xsd:positiveInteger . 
<http://www.assero.co.uk/MDRSdtmUD/ACME/V1#D-ACME_XXDomain_V27_IGV1> bo:local_label ""^^xsd:string . 
<http://www.assero.co.uk/MDRSdtmUD/ACME/V1#D-ACME_XXDomain_V27> bd:basedOnVariable <http://www.assero.co.uk/MDRSdtmUD/ACME/V1#D-ACME_XXDomain_V27_IGV1> . 
<http://www.assero.co.uk/MDRSdtmUD/ACME/V1#D-ACME_XXDomain> bd:includesColumn <http://www.assero.co.uk/MDRSdtmUD/ACME/V1#D-ACME_XXDomain_V27> . 
<http://www.assero.co.uk/MDRSdtmUD/ACME/V1#D-ACME_XXDomain_V28> rdf:type <http://www.assero.co.uk/BusinessDomain#UserVariable> . 
<http://www.assero.co.uk/MDRSdtmUD/ACME/V1#D-ACME_XXDomain_V28> rdfs:label "Planned Time Point Name"^^xsd:string . 
<http://www.assero.co.uk/MDRSdtmUD/ACME/V1#D-ACME_XXDomain_V28> bd:ordinal "28"^^xsd:positiveInteger . 
<http://www.assero.co.uk/MDRSdtmUD/ACME/V1#D-ACME_XXDomain_V28> bd:rule ""^^xsd:string . 
<http://www.assero.co.uk/MDRSdtmUD/ACME/V1#D-ACME_XXDomain_V28> bd:name "XXTPT"^^xsd:string . 
<http://www.assero.co.uk/MDRSdtmUD/ACME/V1#D-ACME_XXDomain_V28> bd:notes ""^^xsd:string . 
<http://www.assero.co.uk/MDRSdtmUD/ACME/V1#D-ACME_XXDomain_V28> bd:format ""^^xsd:string . 
<http://www.assero.co.uk/MDRSdtmUD/ACME/V1#D-ACME_XXDomain_V28> bd:ct ""^^xsd:string . 
<http://www.assero.co.uk/MDRSdtmUD/ACME/V1#D-ACME_XXDomain_V28> bd:non_standard "false"^^xsd:boolean . 
<http://www.assero.co.uk/MDRSdtmUD/ACME/V1#D-ACME_XXDomain_V28> bd:comment ""^^xsd:string . 
<http://www.assero.co.uk/MDRSdtmUD/ACME/V1#D-ACME_XXDomain_V28> bd:length "0"^^xsd:string . 
<http://www.assero.co.uk/MDRSdtmUD/ACME/V1#D-ACME_XXDomain_V28> bd:used "true"^^xsd:boolean . 
<http://www.assero.co.uk/MDRSdtmUD/ACME/V1#D-ACME_XXDomain_V28> bd:key_ordinal "0"^^xsd:integer . 
<http://www.assero.co.uk/MDRSdtmUD/ACME/V1#D-ACME_XXDomain_V28> bd:typedAs <http://www.assero.co.uk/MDRSdtmM/CDISC/V3#M-CDISC_SDTMMODEL_DT_CHAR> . 
<http://www.assero.co.uk/MDRSdtmUD/ACME/V1#D-ACME_XXDomain_V28> bd:compliance <http://www.assero.co.uk/MDRSdtmIgD/CDISC/V3#IG-CDISC_SDTMIGVS_C_PERMISSIBLE> . 
<http://www.assero.co.uk/MDRSdtmUD/ACME/V1#D-ACME_XXDomain_V28> bd:classifiedAs <http://www.assero.co.uk/MDRSdtmM/CDISC/V3#M-CDISC_SDTMMODEL_C_TIMING> . 
<http://www.assero.co.uk/MDRSdtmUD/ACME/V1#D-ACME_XXDomain_V28_IGV1> rdf:type <http://www.assero.co.uk/BusinessOperational#CReference> . 
<http://www.assero.co.uk/MDRSdtmUD/ACME/V1#D-ACME_XXDomain_V28_IGV1> rdfs:label "Based on Variable Reference"^^xsd:string . 
<http://www.assero.co.uk/MDRSdtmUD/ACME/V1#D-ACME_XXDomain_V28_IGV1> bo:hasColumn <http://www.assero.co.uk/MDRSdtmIgD/CDISC/V3#IG-CDISC_SDTMIGVS_VSTPT> . 
<http://www.assero.co.uk/MDRSdtmUD/ACME/V1#D-ACME_XXDomain_V28_IGV1> bo:enabled "true"^^xsd:boolean . 
<http://www.assero.co.uk/MDRSdtmUD/ACME/V1#D-ACME_XXDomain_V28_IGV1> bo:optional "false"^^xsd:boolean . 
<http://www.assero.co.uk/MDRSdtmUD/ACME/V1#D-ACME_XXDomain_V28_IGV1> bo:ordinal "1"^^xsd:positiveInteger . 
<http://www.assero.co.uk/MDRSdtmUD/ACME/V1#D-ACME_XXDomain_V28_IGV1> bo:local_label ""^^xsd:string . 
<http://www.assero.co.uk/MDRSdtmUD/ACME/V1#D-ACME_XXDomain_V28> bd:basedOnVariable <http://www.assero.co.uk/MDRSdtmUD/ACME/V1#D-ACME_XXDomain_V28_IGV1> . 
<http://www.assero.co.uk/MDRSdtmUD/ACME/V1#D-ACME_XXDomain> bd:includesColumn <http://www.assero.co.uk/MDRSdtmUD/ACME/V1#D-ACME_XXDomain_V28> . 
<http://www.assero.co.uk/MDRSdtmUD/ACME/V1#D-ACME_XXDomain_V29> rdf:type <http://www.assero.co.uk/BusinessDomain#UserVariable> . 
<http://www.assero.co.uk/MDRSdtmUD/ACME/V1#D-ACME_XXDomain_V29> rdfs:label "Planned Time Point Number"^^xsd:string . 
<http://www.assero.co.uk/MDRSdtmUD/ACME/V1#D-ACME_XXDomain_V29> bd:ordinal "29"^^xsd:positiveInteger . 
<http://www.assero.co.uk/MDRSdtmUD/ACME/V1#D-ACME_XXDomain_V29> bd:rule ""^^xsd:string . 
<http://www.assero.co.uk/MDRSdtmUD/ACME/V1#D-ACME_XXDomain_V29> bd:name "XXTPTNUM"^^xsd:string . 
<http://www.assero.co.uk/MDRSdtmUD/ACME/V1#D-ACME_XXDomain_V29> bd:notes ""^^xsd:string . 
<http://www.assero.co.uk/MDRSdtmUD/ACME/V1#D-ACME_XXDomain_V29> bd:format ""^^xsd:string . 
<http://www.assero.co.uk/MDRSdtmUD/ACME/V1#D-ACME_XXDomain_V29> bd:ct ""^^xsd:string . 
<http://www.assero.co.uk/MDRSdtmUD/ACME/V1#D-ACME_XXDomain_V29> bd:non_standard "false"^^xsd:boolean . 
<http://www.assero.co.uk/MDRSdtmUD/ACME/V1#D-ACME_XXDomain_V29> bd:comment ""^^xsd:string . 
<http://www.assero.co.uk/MDRSdtmUD/ACME/V1#D-ACME_XXDomain_V29> bd:length "0"^^xsd:string . 
<http://www.assero.co.uk/MDRSdtmUD/ACME/V1#D-ACME_XXDomain_V29> bd:used "true"^^xsd:boolean . 
<http://www.assero.co.uk/MDRSdtmUD/ACME/V1#D-ACME_XXDomain_V29> bd:key_ordinal "0"^^xsd:integer . 
<http://www.assero.co.uk/MDRSdtmUD/ACME/V1#D-ACME_XXDomain_V29> bd:typedAs <http://www.assero.co.uk/MDRSdtmM/CDISC/V3#M-CDISC_SDTMMODEL_DT_NUM> . 
<http://www.assero.co.uk/MDRSdtmUD/ACME/V1#D-ACME_XXDomain_V29> bd:compliance <http://www.assero.co.uk/MDRSdtmIgD/CDISC/V3#IG-CDISC_SDTMIGVS_C_PERMISSIBLE> . 
<http://www.assero.co.uk/MDRSdtmUD/ACME/V1#D-ACME_XXDomain_V29> bd:classifiedAs <http://www.assero.co.uk/MDRSdtmM/CDISC/V3#M-CDISC_SDTMMODEL_C_TIMING> . 
<http://www.assero.co.uk/MDRSdtmUD/ACME/V1#D-ACME_XXDomain_V29_IGV1> rdf:type <http://www.assero.co.uk/BusinessOperational#CReference> . 
<http://www.assero.co.uk/MDRSdtmUD/ACME/V1#D-ACME_XXDomain_V29_IGV1> rdfs:label "Based on Variable Reference"^^xsd:string . 
<http://www.assero.co.uk/MDRSdtmUD/ACME/V1#D-ACME_XXDomain_V29_IGV1> bo:hasColumn <http://www.assero.co.uk/MDRSdtmIgD/CDISC/V3#IG-CDISC_SDTMIGVS_VSTPTNUM> . 
<http://www.assero.co.uk/MDRSdtmUD/ACME/V1#D-ACME_XXDomain_V29_IGV1> bo:enabled "true"^^xsd:boolean . 
<http://www.assero.co.uk/MDRSdtmUD/ACME/V1#D-ACME_XXDomain_V29_IGV1> bo:optional "false"^^xsd:boolean . 
<http://www.assero.co.uk/MDRSdtmUD/ACME/V1#D-ACME_XXDomain_V29_IGV1> bo:ordinal "1"^^xsd:positiveInteger . 
<http://www.assero.co.uk/MDRSdtmUD/ACME/V1#D-ACME_XXDomain_V29_IGV1> bo:local_label ""^^xsd:string . 
<http://www.assero.co.uk/MDRSdtmUD/ACME/V1#D-ACME_XXDomain_V29> bd:basedOnVariable <http://www.assero.co.uk/MDRSdtmUD/ACME/V1#D-ACME_XXDomain_V29_IGV1> . 
<http://www.assero.co.uk/MDRSdtmUD/ACME/V1#D-ACME_XXDomain> bd:includesColumn <http://www.assero.co.uk/MDRSdtmUD/ACME/V1#D-ACME_XXDomain_V29> . 
<http://www.assero.co.uk/MDRSdtmUD/ACME/V1#D-ACME_XXDomain_V30> rdf:type <http://www.assero.co.uk/BusinessDomain#UserVariable> . 
<http://www.assero.co.uk/MDRSdtmUD/ACME/V1#D-ACME_XXDomain_V30> rdfs:label "Planned Elapsed Time from Time Point Ref"^^xsd:string . 
<http://www.assero.co.uk/MDRSdtmUD/ACME/V1#D-ACME_XXDomain_V30> bd:ordinal "30"^^xsd:positiveInteger . 
<http://www.assero.co.uk/MDRSdtmUD/ACME/V1#D-ACME_XXDomain_V30> bd:rule ""^^xsd:string . 
<http://www.assero.co.uk/MDRSdtmUD/ACME/V1#D-ACME_XXDomain_V30> bd:name "XXELTM"^^xsd:string . 
<http://www.assero.co.uk/MDRSdtmUD/ACME/V1#D-ACME_XXDomain_V30> bd:notes ""^^xsd:string . 
<http://www.assero.co.uk/MDRSdtmUD/ACME/V1#D-ACME_XXDomain_V30> bd:format "ISO 8601"^^xsd:string . 
<http://www.assero.co.uk/MDRSdtmUD/ACME/V1#D-ACME_XXDomain_V30> bd:ct ""^^xsd:string . 
<http://www.assero.co.uk/MDRSdtmUD/ACME/V1#D-ACME_XXDomain_V30> bd:non_standard "false"^^xsd:boolean . 
<http://www.assero.co.uk/MDRSdtmUD/ACME/V1#D-ACME_XXDomain_V30> bd:comment ""^^xsd:string . 
<http://www.assero.co.uk/MDRSdtmUD/ACME/V1#D-ACME_XXDomain_V30> bd:length "0"^^xsd:string . 
<http://www.assero.co.uk/MDRSdtmUD/ACME/V1#D-ACME_XXDomain_V30> bd:used "true"^^xsd:boolean . 
<http://www.assero.co.uk/MDRSdtmUD/ACME/V1#D-ACME_XXDomain_V30> bd:key_ordinal "0"^^xsd:integer . 
<http://www.assero.co.uk/MDRSdtmUD/ACME/V1#D-ACME_XXDomain_V30> bd:typedAs <http://www.assero.co.uk/MDRSdtmM/CDISC/V3#M-CDISC_SDTMMODEL_DT_CHAR> . 
<http://www.assero.co.uk/MDRSdtmUD/ACME/V1#D-ACME_XXDomain_V30> bd:compliance <http://www.assero.co.uk/MDRSdtmIgD/CDISC/V3#IG-CDISC_SDTMIGVS_C_PERMISSIBLE> . 
<http://www.assero.co.uk/MDRSdtmUD/ACME/V1#D-ACME_XXDomain_V30> bd:classifiedAs <http://www.assero.co.uk/MDRSdtmM/CDISC/V3#M-CDISC_SDTMMODEL_C_TIMING> . 
<http://www.assero.co.uk/MDRSdtmUD/ACME/V1#D-ACME_XXDomain_V30_IGV1> rdf:type <http://www.assero.co.uk/BusinessOperational#CReference> . 
<http://www.assero.co.uk/MDRSdtmUD/ACME/V1#D-ACME_XXDomain_V30_IGV1> rdfs:label "Based on Variable Reference"^^xsd:string . 
<http://www.assero.co.uk/MDRSdtmUD/ACME/V1#D-ACME_XXDomain_V30_IGV1> bo:hasColumn <http://www.assero.co.uk/MDRSdtmIgD/CDISC/V3#IG-CDISC_SDTMIGVS_VSELTM> . 
<http://www.assero.co.uk/MDRSdtmUD/ACME/V1#D-ACME_XXDomain_V30_IGV1> bo:enabled "true"^^xsd:boolean . 
<http://www.assero.co.uk/MDRSdtmUD/ACME/V1#D-ACME_XXDomain_V30_IGV1> bo:optional "false"^^xsd:boolean . 
<http://www.assero.co.uk/MDRSdtmUD/ACME/V1#D-ACME_XXDomain_V30_IGV1> bo:ordinal "1"^^xsd:positiveInteger . 
<http://www.assero.co.uk/MDRSdtmUD/ACME/V1#D-ACME_XXDomain_V30_IGV1> bo:local_label ""^^xsd:string . 
<http://www.assero.co.uk/MDRSdtmUD/ACME/V1#D-ACME_XXDomain_V30> bd:basedOnVariable <http://www.assero.co.uk/MDRSdtmUD/ACME/V1#D-ACME_XXDomain_V30_IGV1> . 
<http://www.assero.co.uk/MDRSdtmUD/ACME/V1#D-ACME_XXDomain> bd:includesColumn <http://www.assero.co.uk/MDRSdtmUD/ACME/V1#D-ACME_XXDomain_V30> . 
<http://www.assero.co.uk/MDRSdtmUD/ACME/V1#D-ACME_XXDomain_V31> rdf:type <http://www.assero.co.uk/BusinessDomain#UserVariable> . 
<http://www.assero.co.uk/MDRSdtmUD/ACME/V1#D-ACME_XXDomain_V31> rdfs:label "Time Point Reference"^^xsd:string . 
<http://www.assero.co.uk/MDRSdtmUD/ACME/V1#D-ACME_XXDomain_V31> bd:ordinal "31"^^xsd:positiveInteger . 
<http://www.assero.co.uk/MDRSdtmUD/ACME/V1#D-ACME_XXDomain_V31> bd:rule ""^^xsd:string . 
<http://www.assero.co.uk/MDRSdtmUD/ACME/V1#D-ACME_XXDomain_V31> bd:name "XXTPTREF"^^xsd:string . 
<http://www.assero.co.uk/MDRSdtmUD/ACME/V1#D-ACME_XXDomain_V31> bd:notes ""^^xsd:string . 
<http://www.assero.co.uk/MDRSdtmUD/ACME/V1#D-ACME_XXDomain_V31> bd:format ""^^xsd:string . 
<http://www.assero.co.uk/MDRSdtmUD/ACME/V1#D-ACME_XXDomain_V31> bd:ct ""^^xsd:string . 
<http://www.assero.co.uk/MDRSdtmUD/ACME/V1#D-ACME_XXDomain_V31> bd:non_standard "false"^^xsd:boolean . 
<http://www.assero.co.uk/MDRSdtmUD/ACME/V1#D-ACME_XXDomain_V31> bd:comment ""^^xsd:string . 
<http://www.assero.co.uk/MDRSdtmUD/ACME/V1#D-ACME_XXDomain_V31> bd:length "0"^^xsd:string . 
<http://www.assero.co.uk/MDRSdtmUD/ACME/V1#D-ACME_XXDomain_V31> bd:used "true"^^xsd:boolean . 
<http://www.assero.co.uk/MDRSdtmUD/ACME/V1#D-ACME_XXDomain_V31> bd:key_ordinal "0"^^xsd:integer . 
<http://www.assero.co.uk/MDRSdtmUD/ACME/V1#D-ACME_XXDomain_V31> bd:typedAs <http://www.assero.co.uk/MDRSdtmM/CDISC/V3#M-CDISC_SDTMMODEL_DT_CHAR> . 
<http://www.assero.co.uk/MDRSdtmUD/ACME/V1#D-ACME_XXDomain_V31> bd:compliance <http://www.assero.co.uk/MDRSdtmIgD/CDISC/V3#IG-CDISC_SDTMIGVS_C_PERMISSIBLE> . 
<http://www.assero.co.uk/MDRSdtmUD/ACME/V1#D-ACME_XXDomain_V31> bd:classifiedAs <http://www.assero.co.uk/MDRSdtmM/CDISC/V3#M-CDISC_SDTMMODEL_C_TIMING> . 
<http://www.assero.co.uk/MDRSdtmUD/ACME/V1#D-ACME_XXDomain_V31_IGV1> rdf:type <http://www.assero.co.uk/BusinessOperational#CReference> . 
<http://www.assero.co.uk/MDRSdtmUD/ACME/V1#D-ACME_XXDomain_V31_IGV1> rdfs:label "Based on Variable Reference"^^xsd:string . 
<http://www.assero.co.uk/MDRSdtmUD/ACME/V1#D-ACME_XXDomain_V31_IGV1> bo:hasColumn <http://www.assero.co.uk/MDRSdtmIgD/CDISC/V3#IG-CDISC_SDTMIGVS_VSTPTREF> . 
<http://www.assero.co.uk/MDRSdtmUD/ACME/V1#D-ACME_XXDomain_V31_IGV1> bo:enabled "true"^^xsd:boolean . 
<http://www.assero.co.uk/MDRSdtmUD/ACME/V1#D-ACME_XXDomain_V31_IGV1> bo:optional "false"^^xsd:boolean . 
<http://www.assero.co.uk/MDRSdtmUD/ACME/V1#D-ACME_XXDomain_V31_IGV1> bo:ordinal "1"^^xsd:positiveInteger . 
<http://www.assero.co.uk/MDRSdtmUD/ACME/V1#D-ACME_XXDomain_V31_IGV1> bo:local_label ""^^xsd:string . 
<http://www.assero.co.uk/MDRSdtmUD/ACME/V1#D-ACME_XXDomain_V31> bd:basedOnVariable <http://www.assero.co.uk/MDRSdtmUD/ACME/V1#D-ACME_XXDomain_V31_IGV1> . 
<http://www.assero.co.uk/MDRSdtmUD/ACME/V1#D-ACME_XXDomain> bd:includesColumn <http://www.assero.co.uk/MDRSdtmUD/ACME/V1#D-ACME_XXDomain_V31> . 
<http://www.assero.co.uk/MDRSdtmUD/ACME/V1#D-ACME_XXDomain_V32> rdf:type <http://www.assero.co.uk/BusinessDomain#UserVariable> . 
<http://www.assero.co.uk/MDRSdtmUD/ACME/V1#D-ACME_XXDomain_V32> rdfs:label "Date/Time of Reference Time Point"^^xsd:string . 
<http://www.assero.co.uk/MDRSdtmUD/ACME/V1#D-ACME_XXDomain_V32> bd:ordinal "32"^^xsd:positiveInteger . 
<http://www.assero.co.uk/MDRSdtmUD/ACME/V1#D-ACME_XXDomain_V32> bd:rule ""^^xsd:string . 
<http://www.assero.co.uk/MDRSdtmUD/ACME/V1#D-ACME_XXDomain_V32> bd:name "XXRFTDTC"^^xsd:string . 
<http://www.assero.co.uk/MDRSdtmUD/ACME/V1#D-ACME_XXDomain_V32> bd:notes ""^^xsd:string . 
<http://www.assero.co.uk/MDRSdtmUD/ACME/V1#D-ACME_XXDomain_V32> bd:format "ISO 8601"^^xsd:string . 
<http://www.assero.co.uk/MDRSdtmUD/ACME/V1#D-ACME_XXDomain_V32> bd:ct ""^^xsd:string . 
<http://www.assero.co.uk/MDRSdtmUD/ACME/V1#D-ACME_XXDomain_V32> bd:non_standard "false"^^xsd:boolean . 
<http://www.assero.co.uk/MDRSdtmUD/ACME/V1#D-ACME_XXDomain_V32> bd:comment ""^^xsd:string . 
<http://www.assero.co.uk/MDRSdtmUD/ACME/V1#D-ACME_XXDomain_V32> bd:length "0"^^xsd:string . 
<http://www.assero.co.uk/MDRSdtmUD/ACME/V1#D-ACME_XXDomain_V32> bd:used "true"^^xsd:boolean . 
<http://www.assero.co.uk/MDRSdtmUD/ACME/V1#D-ACME_XXDomain_V32> bd:key_ordinal "0"^^xsd:integer . 
<http://www.assero.co.uk/MDRSdtmUD/ACME/V1#D-ACME_XXDomain_V32> bd:typedAs <http://www.assero.co.uk/MDRSdtmM/CDISC/V3#M-CDISC_SDTMMODEL_DT_CHAR> . 
<http://www.assero.co.uk/MDRSdtmUD/ACME/V1#D-ACME_XXDomain_V32> bd:compliance <http://www.assero.co.uk/MDRSdtmIgD/CDISC/V3#IG-CDISC_SDTMIGVS_C_PERMISSIBLE> . 
<http://www.assero.co.uk/MDRSdtmUD/ACME/V1#D-ACME_XXDomain_V32> bd:classifiedAs <http://www.assero.co.uk/MDRSdtmM/CDISC/V3#M-CDISC_SDTMMODEL_C_TIMING> . 
<http://www.assero.co.uk/MDRSdtmUD/ACME/V1#D-ACME_XXDomain_V32_IGV1> rdf:type <http://www.assero.co.uk/BusinessOperational#CReference> . 
<http://www.assero.co.uk/MDRSdtmUD/ACME/V1#D-ACME_XXDomain_V32_IGV1> rdfs:label "Based on Variable Reference"^^xsd:string . 
<http://www.assero.co.uk/MDRSdtmUD/ACME/V1#D-ACME_XXDomain_V32_IGV1> bo:hasColumn <http://www.assero.co.uk/MDRSdtmIgD/CDISC/V3#IG-CDISC_SDTMIGVS_VSRFTDTC> . 
<http://www.assero.co.uk/MDRSdtmUD/ACME/V1#D-ACME_XXDomain_V32_IGV1> bo:enabled "true"^^xsd:boolean . 
<http://www.assero.co.uk/MDRSdtmUD/ACME/V1#D-ACME_XXDomain_V32_IGV1> bo:optional "false"^^xsd:boolean . 
<http://www.assero.co.uk/MDRSdtmUD/ACME/V1#D-ACME_XXDomain_V32_IGV1> bo:ordinal "1"^^xsd:positiveInteger . 
<http://www.assero.co.uk/MDRSdtmUD/ACME/V1#D-ACME_XXDomain_V32_IGV1> bo:local_label ""^^xsd:string . 
<http://www.assero.co.uk/MDRSdtmUD/ACME/V1#D-ACME_XXDomain_V32> bd:basedOnVariable <http://www.assero.co.uk/MDRSdtmUD/ACME/V1#D-ACME_XXDomain_V32_IGV1> . 
<http://www.assero.co.uk/MDRSdtmUD/ACME/V1#D-ACME_XXDomain> bd:includesColumn <http://www.assero.co.uk/MDRSdtmUD/ACME/V1#D-ACME_XXDomain_V32> . 
}