@prefix : <http://www.assero.co.uk/BusinessOperational#> .
@prefix ba: <http://www.assero.co.uk/Annotations#> .
@prefix isoC: <http://www.assero.co.uk/ISO11179Concepts#> .
@prefix bo: <http://www.assero.co.uk/BusinessOperational#> .
@prefix owl: <http://www.w3.org/2002/07/owl#> .
@prefix rdf: <http://www.w3.org/1999/02/22-rdf-syntax-ns#> .
@prefix rdfs: <http://www.w3.org/2000/01/rdf-schema#> .
@prefix xsd: <http://www.w3.org/2001/XMLSchema#> .
@prefix skos: <http://www.w3.org/2004/02/skos/core#> .

<http://www.assero.co.uk/BusinessOperational>
	rdf:type owl:Ontology ;
.
<http://www.assero.co.uk/CHIN#89401b5b-53c1-45c0-8dc9-526560191dcb>
	rdf:type ba:ChangeInstruction ;
	isoC:label ""^^xsd:string ;
	ba:reference ""^^xsd:string ;
	ba:description "C100778 being moved from QSCAT codelist to CCAT codelist."^^xsd:string ;
	ba:current <http://www.assero.co.uk/CHIN#89401b5b-53c1-45c0-8dc9-526560191dcb_TUC2> ;
	ba:ordinal "1"^^xsd:integer ;
	ba:semantic "related terminology"^^xsd:string ;
	ba:previous <http://www.assero.co.uk/CHIN#89401b5b-53c1-45c0-8dc9-526560191dcb_TUC1> ;
.
<http://www.assero.co.uk/CHIN#89401b5b-53c1-45c0-8dc9-526560191dcb_TUC2>
	rdf:type :TucReference ;
	isoC:label ""^^xsd:string ;
	:enabled "true"^^xsd:boolean ;
	:optional "false"^^xsd:boolean ;
	:ordinal "2"^^xsd:positiveInteger ;
	:reference <http://www.cdisc.org/C118971/V69#C118971_C100778> ;
	:context <http://www.cdisc.org/CT/V69#TH> ;
	:localLabel ""^^xsd:string ;
.
<http://www.assero.co.uk/CHIN#89401b5b-53c1-45c0-8dc9-526560191dcb_TUC1>
	rdf:type :TucReference ;
	isoC:label ""^^xsd:string ;
	:enabled "true"^^xsd:boolean ;
	:optional "false"^^xsd:boolean ;
	:ordinal "1"^^xsd:positiveInteger ;
	:reference <http://www.cdisc.org/C100129/V33#C100129_C100778> ;
	:context <http://www.cdisc.org/CT/V68#TH> ;
	:localLabel ""^^xsd:string ;
.
<http://www.assero.co.uk/CHIN#63e1dffb-3dc0-4b5e-a3e1-c5cf3a910aae>
	rdf:type ba:ChangeInstruction ;
	isoC:label ""^^xsd:string ;
	ba:reference ""^^xsd:string ;
	ba:description "Remove C103387 from codelist and replace with C177992."^^xsd:string ;
	ba:current <http://www.assero.co.uk/CHIN#63e1dffb-3dc0-4b5e-a3e1-c5cf3a910aae_TUC2> ;
	ba:ordinal "2"^^xsd:integer ;
	ba:semantic "related terminology"^^xsd:string ;
	ba:previous <http://www.assero.co.uk/CHIN#63e1dffb-3dc0-4b5e-a3e1-c5cf3a910aae_TUC1> ;
.
<http://www.assero.co.uk/CHIN#63e1dffb-3dc0-4b5e-a3e1-c5cf3a910aae_TUC2>
	rdf:type :TucReference ;
	isoC:label ""^^xsd:string ;
	:enabled "true"^^xsd:boolean ;
	:optional "false"^^xsd:boolean ;
	:ordinal "2"^^xsd:positiveInteger ;
	:reference <http://www.cdisc.org/C67154/V69#C67154_C177992> ;
	:context <http://www.cdisc.org/CT/V69#TH> ;
	:localLabel ""^^xsd:string ;
.
<http://www.assero.co.uk/CHIN#63e1dffb-3dc0-4b5e-a3e1-c5cf3a910aae_TUC1>
	rdf:type :TucReference ;
	isoC:label ""^^xsd:string ;
	:enabled "true"^^xsd:boolean ;
	:optional "false"^^xsd:boolean ;
	:ordinal "1"^^xsd:positiveInteger ;
	:reference <http://www.cdisc.org/C67154/V48#C67154_C103387> ;
	:context <http://www.cdisc.org/CT/V68#TH> ;
	:localLabel ""^^xsd:string ;
.
<http://www.assero.co.uk/CHIN#cf870253-98d6-4aec-befa-a23745030f78>
	rdf:type ba:ChangeInstruction ;
	isoC:label ""^^xsd:string ;
	ba:reference ""^^xsd:string ;
	ba:description "Remove C163485 from codelist and replace with C177993."^^xsd:string ;
	ba:current <http://www.assero.co.uk/CHIN#cf870253-98d6-4aec-befa-a23745030f78_TUC2> ;
	ba:ordinal "3"^^xsd:integer ;
	ba:semantic "related terminology"^^xsd:string ;
	ba:previous <http://www.assero.co.uk/CHIN#cf870253-98d6-4aec-befa-a23745030f78_TUC1> ;
.
<http://www.assero.co.uk/CHIN#cf870253-98d6-4aec-befa-a23745030f78_TUC2>
	rdf:type :TucReference ;
	isoC:label ""^^xsd:string ;
	:enabled "true"^^xsd:boolean ;
	:optional "false"^^xsd:boolean ;
	:ordinal "2"^^xsd:positiveInteger ;
	:reference <http://www.cdisc.org/C67154/V69#C67154_C177993> ;
	:context <http://www.cdisc.org/CT/V69#TH> ;
	:localLabel ""^^xsd:string ;
.
<http://www.assero.co.uk/CHIN#cf870253-98d6-4aec-befa-a23745030f78_TUC1>
	rdf:type :TucReference ;
	isoC:label ""^^xsd:string ;
	:enabled "true"^^xsd:boolean ;
	:optional "false"^^xsd:boolean ;
	:ordinal "1"^^xsd:positiveInteger ;
	:reference <http://www.cdisc.org/C67154/V61#C67154_C163485> ;
	:context <http://www.cdisc.org/CT/V68#TH> ;
	:localLabel ""^^xsd:string ;
.
<http://www.assero.co.uk/CHIN#1a41bc14-cc25-40d8-aaa8-d0fbecf8c56e>
	rdf:type ba:ChangeInstruction ;
	isoC:label ""^^xsd:string ;
	ba:reference ""^^xsd:string ;
	ba:description "C178140 (Partial Thromboplastin Time) is being split out from C38462 (Activated Partial Thromboplastin Time); Partial Thromboplastin Time and Activated Partial Thromboplastin time are not synonymous."^^xsd:string ;
	ba:current <http://www.assero.co.uk/CHIN#1a41bc14-cc25-40d8-aaa8-d0fbecf8c56e_TUC2> ;
	ba:ordinal "4"^^xsd:integer ;
	ba:semantic "related terminology"^^xsd:string ;
	ba:previous <http://www.assero.co.uk/CHIN#1a41bc14-cc25-40d8-aaa8-d0fbecf8c56e_TUC1> ;
.
<http://www.assero.co.uk/CHIN#1a41bc14-cc25-40d8-aaa8-d0fbecf8c56e_TUC2>
	rdf:type :TucReference ;
	isoC:label ""^^xsd:string ;
	:enabled "true"^^xsd:boolean ;
	:optional "false"^^xsd:boolean ;
	:ordinal "2"^^xsd:positiveInteger ;
	:reference <http://www.cdisc.org/C67154/V69#C67154_C178140> ;
	:context <http://www.cdisc.org/CT/V69#TH> ;
	:localLabel ""^^xsd:string ;
.
<http://www.assero.co.uk/CHIN#1a41bc14-cc25-40d8-aaa8-d0fbecf8c56e_TUC1>
	rdf:type :TucReference ;
	isoC:label ""^^xsd:string ;
	:enabled "true"^^xsd:boolean ;
	:optional "false"^^xsd:boolean ;
	:ordinal "1"^^xsd:positiveInteger ;
	:reference <http://www.cdisc.org/C67154/V4#C67154_C38462> ;
	:context <http://www.cdisc.org/CT/V68#TH> ;
	:localLabel ""^^xsd:string ;
.
<http://www.assero.co.uk/CHIN#9c298d8c-e8f8-4f59-a510-9e05f8353eb1>
	rdf:type ba:ChangeInstruction ;
	isoC:label ""^^xsd:string ;
	ba:reference ""^^xsd:string ;
	ba:description "Remove C103387 from codelist and replace with C177992."^^xsd:string ;
	ba:current <http://www.assero.co.uk/CHIN#9c298d8c-e8f8-4f59-a510-9e05f8353eb1_TUC2> ;
	ba:ordinal "5"^^xsd:integer ;
	ba:semantic "related terminology"^^xsd:string ;
	ba:previous <http://www.assero.co.uk/CHIN#9c298d8c-e8f8-4f59-a510-9e05f8353eb1_TUC1> ;
.
<http://www.assero.co.uk/CHIN#9c298d8c-e8f8-4f59-a510-9e05f8353eb1_TUC2>
	rdf:type :TucReference ;
	isoC:label ""^^xsd:string ;
	:enabled "true"^^xsd:boolean ;
	:optional "false"^^xsd:boolean ;
	:ordinal "2"^^xsd:positiveInteger ;
	:reference <http://www.cdisc.org/C67154/V69#C67154_C177992> ;
	:context <http://www.cdisc.org/CT/V69#TH> ;
	:localLabel ""^^xsd:string ;
.
<http://www.assero.co.uk/CHIN#9c298d8c-e8f8-4f59-a510-9e05f8353eb1_TUC1>
	rdf:type :TucReference ;
	isoC:label ""^^xsd:string ;
	:enabled "true"^^xsd:boolean ;
	:optional "false"^^xsd:boolean ;
	:ordinal "1"^^xsd:positiveInteger ;
	:reference <http://www.cdisc.org/C67154/V48#C67154_C103387> ;
	:context <http://www.cdisc.org/CT/V68#TH> ;
	:localLabel ""^^xsd:string ;
.
<http://www.assero.co.uk/CHIN#80415bbe-2529-4e81-b706-b17620009653>
	rdf:type ba:ChangeInstruction ;
	isoC:label ""^^xsd:string ;
	ba:reference ""^^xsd:string ;
	ba:description "Remove C163485 from codelist and replace with C177993."^^xsd:string ;
	ba:current <http://www.assero.co.uk/CHIN#80415bbe-2529-4e81-b706-b17620009653_TUC2> ;
	ba:ordinal "6"^^xsd:integer ;
	ba:semantic "related terminology"^^xsd:string ;
	ba:previous <http://www.assero.co.uk/CHIN#80415bbe-2529-4e81-b706-b17620009653_TUC1> ;
.
<http://www.assero.co.uk/CHIN#80415bbe-2529-4e81-b706-b17620009653_TUC2>
	rdf:type :TucReference ;
	isoC:label ""^^xsd:string ;
	:enabled "true"^^xsd:boolean ;
	:optional "false"^^xsd:boolean ;
	:ordinal "2"^^xsd:positiveInteger ;
	:reference <http://www.cdisc.org/C67154/V69#C67154_C177993> ;
	:context <http://www.cdisc.org/CT/V69#TH> ;
	:localLabel ""^^xsd:string ;
.
<http://www.assero.co.uk/CHIN#80415bbe-2529-4e81-b706-b17620009653_TUC1>
	rdf:type :TucReference ;
	isoC:label ""^^xsd:string ;
	:enabled "true"^^xsd:boolean ;
	:optional "false"^^xsd:boolean ;
	:ordinal "1"^^xsd:positiveInteger ;
	:reference <http://www.cdisc.org/C67154/V61#C67154_C163485> ;
	:context <http://www.cdisc.org/CT/V68#TH> ;
	:localLabel ""^^xsd:string ;
.
<http://www.assero.co.uk/CHIN#cd2be111-e588-4076-bc13-8943b7eb1f2f>
	rdf:type ba:ChangeInstruction ;
	isoC:label ""^^xsd:string ;
	ba:reference ""^^xsd:string ;
	ba:description "C178140 (Partial Thromboplastin Time) is being split out from C38462 (Activated Partial Thromboplastin Time); Partial Thromboplastin Time and Activated Partial Thromboplastin time are not synonymous."^^xsd:string ;
	ba:current <http://www.assero.co.uk/CHIN#cd2be111-e588-4076-bc13-8943b7eb1f2f_TUC2> ;
	ba:ordinal "7"^^xsd:integer ;
	ba:semantic "related terminology"^^xsd:string ;
	ba:previous <http://www.assero.co.uk/CHIN#cd2be111-e588-4076-bc13-8943b7eb1f2f_TUC1> ;
.
<http://www.assero.co.uk/CHIN#cd2be111-e588-4076-bc13-8943b7eb1f2f_TUC2>
	rdf:type :TucReference ;
	isoC:label ""^^xsd:string ;
	:enabled "true"^^xsd:boolean ;
	:optional "false"^^xsd:boolean ;
	:ordinal "2"^^xsd:positiveInteger ;
	:reference <http://www.cdisc.org/C67154/V69#C67154_C178140> ;
	:context <http://www.cdisc.org/CT/V69#TH> ;
	:localLabel ""^^xsd:string ;
.
<http://www.assero.co.uk/CHIN#cd2be111-e588-4076-bc13-8943b7eb1f2f_TUC1>
	rdf:type :TucReference ;
	isoC:label ""^^xsd:string ;
	:enabled "true"^^xsd:boolean ;
	:optional "false"^^xsd:boolean ;
	:ordinal "1"^^xsd:positiveInteger ;
	:reference <http://www.cdisc.org/C67154/V4#C67154_C38462> ;
	:context <http://www.cdisc.org/CT/V68#TH> ;
	:localLabel ""^^xsd:string ;
.
<http://www.assero.co.uk/CHIN#d47d9ab5-8781-4634-a301-b9aa9ffb0171>
	rdf:type ba:ChangeInstruction ;
	isoC:label ""^^xsd:string ;
	ba:reference ""^^xsd:string ;
	ba:description "C178142 is replacing C106516 in the METHOD codelist."^^xsd:string ;
	ba:current <http://www.assero.co.uk/CHIN#d47d9ab5-8781-4634-a301-b9aa9ffb0171_TUC2> ;
	ba:ordinal "8"^^xsd:integer ;
	ba:semantic "related terminology"^^xsd:string ;
	ba:previous <http://www.assero.co.uk/CHIN#d47d9ab5-8781-4634-a301-b9aa9ffb0171_TUC1> ;
.
<http://www.assero.co.uk/CHIN#d47d9ab5-8781-4634-a301-b9aa9ffb0171_TUC2>
	rdf:type :TucReference ;
	isoC:label ""^^xsd:string ;
	:enabled "true"^^xsd:boolean ;
	:optional "false"^^xsd:boolean ;
	:ordinal "2"^^xsd:positiveInteger ;
	:reference <http://www.cdisc.org/C85492/V69#C85492_C178142> ;
	:context <http://www.cdisc.org/CT/V69#TH> ;
	:localLabel ""^^xsd:string ;
.
<http://www.assero.co.uk/CHIN#d47d9ab5-8781-4634-a301-b9aa9ffb0171_TUC1>
	rdf:type :TucReference ;
	isoC:label ""^^xsd:string ;
	:enabled "true"^^xsd:boolean ;
	:optional "false"^^xsd:boolean ;
	:ordinal "1"^^xsd:positiveInteger ;
	:reference <http://www.cdisc.org/C85492/V35#C85492_C106516> ;
	:context <http://www.cdisc.org/CT/V68#TH> ;
	:localLabel ""^^xsd:string ;
.
<http://www.assero.co.uk/CHIN#ecec59bb-33e4-427a-9cac-70b45e09d59f>
	rdf:type ba:ChangeInstruction ;
	isoC:label ""^^xsd:string ;
	ba:reference ""^^xsd:string ;
	ba:description "Remove C102280 from codelist and replace with C158220."^^xsd:string ;
	ba:current <http://www.assero.co.uk/CHIN#ecec59bb-33e4-427a-9cac-70b45e09d59f_TUC2> ;
	ba:ordinal "9"^^xsd:integer ;
	ba:semantic "related terminology"^^xsd:string ;
	ba:previous <http://www.assero.co.uk/CHIN#ecec59bb-33e4-427a-9cac-70b45e09d59f_TUC1> ;
.
<http://www.assero.co.uk/CHIN#ecec59bb-33e4-427a-9cac-70b45e09d59f_TUC2>
	rdf:type :TucReference ;
	isoC:label ""^^xsd:string ;
	:enabled "true"^^xsd:boolean ;
	:optional "false"^^xsd:boolean ;
	:ordinal "2"^^xsd:positiveInteger ;
	:reference <http://www.cdisc.org/C67154/V59#C67154_C158220> ;
	:context <http://www.cdisc.org/CT/V69#TH> ;
	:localLabel ""^^xsd:string ;
.
<http://www.assero.co.uk/CHIN#ecec59bb-33e4-427a-9cac-70b45e09d59f_TUC1>
	rdf:type :TucReference ;
	isoC:label ""^^xsd:string ;
	:enabled "true"^^xsd:boolean ;
	:optional "false"^^xsd:boolean ;
	:ordinal "1"^^xsd:positiveInteger ;
	:reference <http://www.cdisc.org/C67154/V31#C67154_C102280> ;
	:context <http://www.cdisc.org/CT/V68#TH> ;
	:localLabel ""^^xsd:string ;
.
<http://www.assero.co.uk/CHIN#1d5b7a66-db54-4df0-ac8e-7670edb7c619>
	rdf:type ba:ChangeInstruction ;
	isoC:label ""^^xsd:string ;
	ba:reference ""^^xsd:string ;
	ba:description "Remove C106499 from codelist and replace with C74732."^^xsd:string ;
	ba:current <http://www.assero.co.uk/CHIN#1d5b7a66-db54-4df0-ac8e-7670edb7c619_TUC2> ;
	ba:ordinal "10"^^xsd:integer ;
	ba:semantic "related terminology"^^xsd:string ;
	ba:previous <http://www.assero.co.uk/CHIN#1d5b7a66-db54-4df0-ac8e-7670edb7c619_TUC1> ;
.
<http://www.assero.co.uk/CHIN#1d5b7a66-db54-4df0-ac8e-7670edb7c619_TUC2>
	rdf:type :TucReference ;
	isoC:label ""^^xsd:string ;
	:enabled "true"^^xsd:boolean ;
	:optional "false"^^xsd:boolean ;
	:ordinal "2"^^xsd:positiveInteger ;
	:reference <http://www.cdisc.org/C67154/V55#C67154_C74732> ;
	:context <http://www.cdisc.org/CT/V69#TH> ;
	:localLabel ""^^xsd:string ;
.
<http://www.assero.co.uk/CHIN#1d5b7a66-db54-4df0-ac8e-7670edb7c619_TUC1>
	rdf:type :TucReference ;
	isoC:label ""^^xsd:string ;
	:enabled "true"^^xsd:boolean ;
	:optional "false"^^xsd:boolean ;
	:ordinal "1"^^xsd:positiveInteger ;
	:reference <http://www.cdisc.org/C67154/V35#C67154_C106499> ;
	:context <http://www.cdisc.org/CT/V68#TH> ;
	:localLabel ""^^xsd:string ;
.
<http://www.assero.co.uk/CHIN#4deb8e4d-95f8-4375-bbed-77315cac859f>
	rdf:type ba:ChangeInstruction ;
	isoC:label ""^^xsd:string ;
	ba:reference ""^^xsd:string ;
	ba:description "Remove C161356 from codelist and replace with C161355."^^xsd:string ;
	ba:current <http://www.assero.co.uk/CHIN#4deb8e4d-95f8-4375-bbed-77315cac859f_TUC2> ;
	ba:ordinal "11"^^xsd:integer ;
	ba:semantic "related terminology"^^xsd:string ;
	ba:previous <http://www.assero.co.uk/CHIN#4deb8e4d-95f8-4375-bbed-77315cac859f_TUC1> ;
.
<http://www.assero.co.uk/CHIN#4deb8e4d-95f8-4375-bbed-77315cac859f_TUC2>
	rdf:type :TucReference ;
	isoC:label ""^^xsd:string ;
	:enabled "true"^^xsd:boolean ;
	:optional "false"^^xsd:boolean ;
	:ordinal "2"^^xsd:positiveInteger ;
	:reference <http://www.cdisc.org/C67154/V60#C67154_C161355> ;
	:context <http://www.cdisc.org/CT/V69#TH> ;
	:localLabel ""^^xsd:string ;
.
<http://www.assero.co.uk/CHIN#4deb8e4d-95f8-4375-bbed-77315cac859f_TUC1>
	rdf:type :TucReference ;
	isoC:label ""^^xsd:string ;
	:enabled "true"^^xsd:boolean ;
	:optional "false"^^xsd:boolean ;
	:ordinal "1"^^xsd:positiveInteger ;
	:reference <http://www.cdisc.org/C67154/V60#C67154_C161356> ;
	:context <http://www.cdisc.org/CT/V68#TH> ;
	:localLabel ""^^xsd:string ;
.
<http://www.assero.co.uk/CHIN#78e3ec6c-bac7-48b4-a94e-334f570345f6>
	rdf:type ba:ChangeInstruction ;
	isoC:label ""^^xsd:string ;
	ba:reference ""^^xsd:string ;
	ba:description "Remove C102280 from codelist and replace with C158220."^^xsd:string ;
	ba:current <http://www.assero.co.uk/CHIN#78e3ec6c-bac7-48b4-a94e-334f570345f6_TUC2> ;
	ba:ordinal "12"^^xsd:integer ;
	ba:semantic "related terminology"^^xsd:string ;
	ba:previous <http://www.assero.co.uk/CHIN#78e3ec6c-bac7-48b4-a94e-334f570345f6_TUC1> ;
.
<http://www.assero.co.uk/CHIN#78e3ec6c-bac7-48b4-a94e-334f570345f6_TUC2>
	rdf:type :TucReference ;
	isoC:label ""^^xsd:string ;
	:enabled "true"^^xsd:boolean ;
	:optional "false"^^xsd:boolean ;
	:ordinal "2"^^xsd:positiveInteger ;
	:reference <http://www.cdisc.org/C67154/V59#C67154_C158220> ;
	:context <http://www.cdisc.org/CT/V69#TH> ;
	:localLabel ""^^xsd:string ;
.
<http://www.assero.co.uk/CHIN#78e3ec6c-bac7-48b4-a94e-334f570345f6_TUC1>
	rdf:type :TucReference ;
	isoC:label ""^^xsd:string ;
	:enabled "true"^^xsd:boolean ;
	:optional "false"^^xsd:boolean ;
	:ordinal "1"^^xsd:positiveInteger ;
	:reference <http://www.cdisc.org/C67154/V31#C67154_C102280> ;
	:context <http://www.cdisc.org/CT/V68#TH> ;
	:localLabel ""^^xsd:string ;
.
<http://www.assero.co.uk/CHIN#56a42d86-98df-4164-902d-c946503266dd>
	rdf:type ba:ChangeInstruction ;
	isoC:label ""^^xsd:string ;
	ba:reference ""^^xsd:string ;
	ba:description "Remove C106499 from codelist and replace with C74732."^^xsd:string ;
	ba:current <http://www.assero.co.uk/CHIN#56a42d86-98df-4164-902d-c946503266dd_TUC2> ;
	ba:ordinal "13"^^xsd:integer ;
	ba:semantic "related terminology"^^xsd:string ;
	ba:previous <http://www.assero.co.uk/CHIN#56a42d86-98df-4164-902d-c946503266dd_TUC1> ;
.
<http://www.assero.co.uk/CHIN#56a42d86-98df-4164-902d-c946503266dd_TUC2>
	rdf:type :TucReference ;
	isoC:label ""^^xsd:string ;
	:enabled "true"^^xsd:boolean ;
	:optional "false"^^xsd:boolean ;
	:ordinal "2"^^xsd:positiveInteger ;
	:reference <http://www.cdisc.org/C67154/V55#C67154_C74732> ;
	:context <http://www.cdisc.org/CT/V69#TH> ;
	:localLabel ""^^xsd:string ;
.
<http://www.assero.co.uk/CHIN#56a42d86-98df-4164-902d-c946503266dd_TUC1>
	rdf:type :TucReference ;
	isoC:label ""^^xsd:string ;
	:enabled "true"^^xsd:boolean ;
	:optional "false"^^xsd:boolean ;
	:ordinal "1"^^xsd:positiveInteger ;
	:reference <http://www.cdisc.org/C67154/V35#C67154_C106499> ;
	:context <http://www.cdisc.org/CT/V68#TH> ;
	:localLabel ""^^xsd:string ;
.
<http://www.assero.co.uk/CHIN#ade3f4f5-3281-4049-873e-ec576d710ac0>
	rdf:type ba:ChangeInstruction ;
	isoC:label ""^^xsd:string ;
	ba:reference ""^^xsd:string ;
	ba:description "Remove C161356 from codelist and replace with C161355."^^xsd:string ;
	ba:current <http://www.assero.co.uk/CHIN#ade3f4f5-3281-4049-873e-ec576d710ac0_TUC2> ;
	ba:ordinal "14"^^xsd:integer ;
	ba:semantic "related terminology"^^xsd:string ;
	ba:previous <http://www.assero.co.uk/CHIN#ade3f4f5-3281-4049-873e-ec576d710ac0_TUC1> ;
.
<http://www.assero.co.uk/CHIN#ade3f4f5-3281-4049-873e-ec576d710ac0_TUC2>
	rdf:type :TucReference ;
	isoC:label ""^^xsd:string ;
	:enabled "true"^^xsd:boolean ;
	:optional "false"^^xsd:boolean ;
	:ordinal "2"^^xsd:positiveInteger ;
	:reference <http://www.cdisc.org/C67154/V60#C67154_C161355> ;
	:context <http://www.cdisc.org/CT/V69#TH> ;
	:localLabel ""^^xsd:string ;
.
<http://www.assero.co.uk/CHIN#ade3f4f5-3281-4049-873e-ec576d710ac0_TUC1>
	rdf:type :TucReference ;
	isoC:label ""^^xsd:string ;
	:enabled "true"^^xsd:boolean ;
	:optional "false"^^xsd:boolean ;
	:ordinal "1"^^xsd:positiveInteger ;
	:reference <http://www.cdisc.org/C67154/V60#C67154_C161356> ;
	:context <http://www.cdisc.org/CT/V68#TH> ;
	:localLabel ""^^xsd:string ;
.
<http://www.assero.co.uk/CHIN#03dc2562-bf61-484a-b202-c68e9ba83592>
	rdf:type ba:ChangeInstruction ;
	isoC:label ""^^xsd:string ;
	ba:reference ""^^xsd:string ;
	ba:description "Remove C156548 from codelist. This concept will be moved to MIFTSDTL codelist. Existing, published MITST/MITSTCD values can be used instead."^^xsd:string ;
	ba:current <http://www.assero.co.uk/CHIN#03dc2562-bf61-484a-b202-c68e9ba83592_TUC2> ;
	ba:ordinal "15"^^xsd:integer ;
	ba:semantic "related terminology"^^xsd:string ;
	ba:previous <http://www.assero.co.uk/CHIN#03dc2562-bf61-484a-b202-c68e9ba83592_TUC1> ;
.
<http://www.assero.co.uk/CHIN#03dc2562-bf61-484a-b202-c68e9ba83592_TUC2>
	rdf:type :TucReference ;
	isoC:label ""^^xsd:string ;
	:enabled "true"^^xsd:boolean ;
	:optional "false"^^xsd:boolean ;
	:ordinal "2"^^xsd:positiveInteger ;
	:reference <http://www.cdisc.org/C125922/V69#C125922_C156548> ;
	:context <http://www.cdisc.org/CT/V69#TH> ;
	:localLabel ""^^xsd:string ;
.
<http://www.assero.co.uk/CHIN#03dc2562-bf61-484a-b202-c68e9ba83592_TUC1>
	rdf:type :TucReference ;
	isoC:label ""^^xsd:string ;
	:enabled "true"^^xsd:boolean ;
	:optional "false"^^xsd:boolean ;
	:ordinal "1"^^xsd:positiveInteger ;
	:reference <http://www.cdisc.org/C132262/V58#C132262_C156548> ;
	:context <http://www.cdisc.org/CT/V68#TH> ;
	:localLabel ""^^xsd:string ;
.
<http://www.assero.co.uk/CHIN#cc97fff1-0729-4d83-ae6f-846227afff78>
	rdf:type ba:ChangeInstruction ;
	isoC:label ""^^xsd:string ;
	ba:reference ""^^xsd:string ;
	ba:description "Remove C156548 from codelist. This concept will be moved to MIFTSDTL codelist. Existing, published MITST/MITSTCD values can be used instead."^^xsd:string ;
	ba:current <http://www.assero.co.uk/CHIN#cc97fff1-0729-4d83-ae6f-846227afff78_TUC2> ;
	ba:ordinal "16"^^xsd:integer ;
	ba:semantic "related terminology"^^xsd:string ;
	ba:previous <http://www.assero.co.uk/CHIN#cc97fff1-0729-4d83-ae6f-846227afff78_TUC1> ;
.
<http://www.assero.co.uk/CHIN#cc97fff1-0729-4d83-ae6f-846227afff78_TUC2>
	rdf:type :TucReference ;
	isoC:label ""^^xsd:string ;
	:enabled "true"^^xsd:boolean ;
	:optional "false"^^xsd:boolean ;
	:ordinal "2"^^xsd:positiveInteger ;
	:reference <http://www.cdisc.org/C125922/V69#C125922_C156548> ;
	:context <http://www.cdisc.org/CT/V69#TH> ;
	:localLabel ""^^xsd:string ;
.
<http://www.assero.co.uk/CHIN#cc97fff1-0729-4d83-ae6f-846227afff78_TUC1>
	rdf:type :TucReference ;
	isoC:label ""^^xsd:string ;
	:enabled "true"^^xsd:boolean ;
	:optional "false"^^xsd:boolean ;
	:ordinal "1"^^xsd:positiveInteger ;
	:reference <http://www.cdisc.org/C132263/V58#C132263_C156548> ;
	:context <http://www.cdisc.org/CT/V68#TH> ;
	:localLabel ""^^xsd:string ;
.
<http://www.assero.co.uk/CHIN#c961c377-7f23-40bb-843d-a7b6500e0265>
	rdf:type ba:ChangeInstruction ;
	isoC:label ""^^xsd:string ;
	ba:reference ""^^xsd:string ;
	ba:description "Update to CDISC submission value to consistently represent the same concept across multiple, domain-specific --TEST/--TESTCD paired codelists."^^xsd:string ;
	ba:current <http://www.assero.co.uk/CHIN#c961c377-7f23-40bb-843d-a7b6500e0265_TUC2> ;
	ba:ordinal "17"^^xsd:integer ;
	ba:semantic "related terminology"^^xsd:string ;
	ba:previous <http://www.assero.co.uk/CHIN#c961c377-7f23-40bb-843d-a7b6500e0265_TUC1> ;
.
<http://www.assero.co.uk/CHIN#c961c377-7f23-40bb-843d-a7b6500e0265_TUC2>
	rdf:type :TucReference ;
	isoC:label ""^^xsd:string ;
	:enabled "true"^^xsd:boolean ;
	:optional "false"^^xsd:boolean ;
	:ordinal "2"^^xsd:positiveInteger ;
	:reference <http://www.cdisc.org/C67154/V69#C67154_C135472> ;
	:context <http://www.cdisc.org/CT/V69#TH> ;
	:localLabel ""^^xsd:string ;
.
<http://www.assero.co.uk/CHIN#c961c377-7f23-40bb-843d-a7b6500e0265_TUC1>
	rdf:type :TucReference ;
	isoC:label ""^^xsd:string ;
	:enabled "true"^^xsd:boolean ;
	:optional "false"^^xsd:boolean ;
	:ordinal "1"^^xsd:positiveInteger ;
	:reference <http://www.cdisc.org/C67154/V65#C67154_C135472> ;
	:context <http://www.cdisc.org/CT/V68#TH> ;
	:localLabel ""^^xsd:string ;
.
<http://www.assero.co.uk/CHIN#f788a255-ebd7-4415-b0c9-b6e11d536fc3>
	rdf:type ba:ChangeInstruction ;
	isoC:label ""^^xsd:string ;
	ba:reference ""^^xsd:string ;
	ba:description "Update to CDISC submission value to consistently represent the same concept across multiple, domain-specific --TEST/--TESTCD paired codelists."^^xsd:string ;
	ba:current <http://www.assero.co.uk/CHIN#f788a255-ebd7-4415-b0c9-b6e11d536fc3_TUC2> ;
	ba:ordinal "18"^^xsd:integer ;
	ba:semantic "related terminology"^^xsd:string ;
	ba:previous <http://www.assero.co.uk/CHIN#f788a255-ebd7-4415-b0c9-b6e11d536fc3_TUC1> ;
.
<http://www.assero.co.uk/CHIN#f788a255-ebd7-4415-b0c9-b6e11d536fc3_TUC2>
	rdf:type :TucReference ;
	isoC:label ""^^xsd:string ;
	:enabled "true"^^xsd:boolean ;
	:optional "false"^^xsd:boolean ;
	:ordinal "2"^^xsd:positiveInteger ;
	:reference <http://www.cdisc.org/C67154/V69#C67154_C135472> ;
	:context <http://www.cdisc.org/CT/V69#TH> ;
	:localLabel ""^^xsd:string ;
.
<http://www.assero.co.uk/CHIN#f788a255-ebd7-4415-b0c9-b6e11d536fc3_TUC1>
	rdf:type :TucReference ;
	isoC:label ""^^xsd:string ;
	:enabled "true"^^xsd:boolean ;
	:optional "false"^^xsd:boolean ;
	:ordinal "1"^^xsd:positiveInteger ;
	:reference <http://www.cdisc.org/C67154/V65#C67154_C135472> ;
	:context <http://www.cdisc.org/CT/V68#TH> ;
	:localLabel ""^^xsd:string ;
.
<http://www.assero.co.uk/CHIN#56a7fb6c-f920-45f3-ba78-e4a579963f67>
	rdf:type ba:ChangeInstruction ;
	isoC:label ""^^xsd:string ;
	ba:reference ""^^xsd:string ;
	ba:description "C170607 was removed from the MHEDTTYP codelist and replaced with C13680. The modeling was changed in the Psoriasis TAUG to use the Non-Standard Variable --CRNORD to store 'MOST RECENT'. This synonym was added to assist in mapping."^^xsd:string ;
	ba:current <http://www.assero.co.uk/CHIN#56a7fb6c-f920-45f3-ba78-e4a579963f67_TUC2> ;
	ba:ordinal "19"^^xsd:integer ;
	ba:semantic "related terminology"^^xsd:string ;
	ba:previous <http://www.assero.co.uk/CHIN#56a7fb6c-f920-45f3-ba78-e4a579963f67_TUC1> ;
.
<http://www.assero.co.uk/CHIN#56a7fb6c-f920-45f3-ba78-e4a579963f67_TUC2>
	rdf:type :TucReference ;
	isoC:label ""^^xsd:string ;
	:enabled "true"^^xsd:boolean ;
	:optional "false"^^xsd:boolean ;
	:ordinal "2"^^xsd:positiveInteger ;
	:reference <http://www.cdisc.org/C124301/V69#C124301_C113680> ;
	:context <http://www.cdisc.org/CT/V69#TH> ;
	:localLabel ""^^xsd:string ;
.
<http://www.assero.co.uk/CHIN#56a7fb6c-f920-45f3-ba78-e4a579963f67_TUC1>
	rdf:type :TucReference ;
	isoC:label ""^^xsd:string ;
	:enabled "true"^^xsd:boolean ;
	:optional "false"^^xsd:boolean ;
	:ordinal "1"^^xsd:positiveInteger ;
	:reference <http://www.cdisc.org/C124301/V63#C124301_C170607> ;
	:context <http://www.cdisc.org/CT/V68#TH> ;
	:localLabel ""^^xsd:string ;
.
<http://www.assero.co.uk/CHIN#e74912a6-f212-4812-9c70-b3b6caf71686>
	rdf:type ba:ChangeInstruction ;
	isoC:label ""^^xsd:string ;
	ba:reference ""^^xsd:string ;
	ba:description "The concept 'Number of Live Births' C178141 was mis-coded to C16955/Parity. However these are not synonymous. Because a separate test of PARITY has been added to the RPTEST-CD codelists with P45, the existing term Number of Live Births/BRTHLVN has gotten a new C-code (C178141) while the new concept of Parity has been correctly associated with C16955."^^xsd:string ;
	ba:current <http://www.assero.co.uk/CHIN#e74912a6-f212-4812-9c70-b3b6caf71686_TUC2> ;
	ba:current <http://www.assero.co.uk/CHIN#e74912a6-f212-4812-9c70-b3b6caf71686_TUC3> ;
	ba:ordinal "20"^^xsd:integer ;
	ba:semantic "related terminology"^^xsd:string ;
	ba:previous <http://www.assero.co.uk/CHIN#e74912a6-f212-4812-9c70-b3b6caf71686_TUC1> ;
.
<http://www.assero.co.uk/CHIN#e74912a6-f212-4812-9c70-b3b6caf71686_TUC2>
	rdf:type :TucReference ;
	isoC:label ""^^xsd:string ;
	:enabled "true"^^xsd:boolean ;
	:optional "false"^^xsd:boolean ;
	:ordinal "2"^^xsd:positiveInteger ;
	:reference <http://www.cdisc.org/C106478/V69#C106478_C178141> ;
	:context <http://www.cdisc.org/CT/V69#TH> ;
	:localLabel ""^^xsd:string ;
.
<http://www.assero.co.uk/CHIN#e74912a6-f212-4812-9c70-b3b6caf71686_TUC3>
	rdf:type :TucReference ;
	isoC:label ""^^xsd:string ;
	:enabled "true"^^xsd:boolean ;
	:optional "false"^^xsd:boolean ;
	:ordinal "3"^^xsd:positiveInteger ;
	:reference <http://www.cdisc.org/C106478/V69#C106478_C16955> ;
	:context <http://www.cdisc.org/CT/V69#TH> ;
	:localLabel ""^^xsd:string ;
.
<http://www.assero.co.uk/CHIN#e74912a6-f212-4812-9c70-b3b6caf71686_TUC1>
	rdf:type :TucReference ;
	isoC:label ""^^xsd:string ;
	:enabled "true"^^xsd:boolean ;
	:optional "false"^^xsd:boolean ;
	:ordinal "1"^^xsd:positiveInteger ;
	:reference <http://www.cdisc.org/C106478/V35#C106478_C16955> ;
	:context <http://www.cdisc.org/CT/V68#TH> ;
	:localLabel ""^^xsd:string ;
.
<http://www.assero.co.uk/CHIN#1bea32f1-0674-42ed-87d9-4427859b7baf>
	rdf:type ba:ChangeInstruction ;
	isoC:label ""^^xsd:string ;
	ba:reference ""^^xsd:string ;
	ba:description "The concept 'Number of Live Births' C178141 was mis-coded to C16955/Parity. However these are not synonymous. Because a separate test of PARITY has been added to the RPTEST-CD codelists with P45, the existing term Number of Live Births/BRTHLVN has gotten a new C-code (C178141) while the new concept of Parity has been correctly associated with C16955."^^xsd:string ;
	ba:current <http://www.assero.co.uk/CHIN#1bea32f1-0674-42ed-87d9-4427859b7baf_TUC2> ;
	ba:current <http://www.assero.co.uk/CHIN#1bea32f1-0674-42ed-87d9-4427859b7baf_TUC3> ;
	ba:ordinal "21"^^xsd:integer ;
	ba:semantic "related terminology"^^xsd:string ;
	ba:previous <http://www.assero.co.uk/CHIN#1bea32f1-0674-42ed-87d9-4427859b7baf_TUC1> ;
.
<http://www.assero.co.uk/CHIN#1bea32f1-0674-42ed-87d9-4427859b7baf_TUC2>
	rdf:type :TucReference ;
	isoC:label ""^^xsd:string ;
	:enabled "true"^^xsd:boolean ;
	:optional "false"^^xsd:boolean ;
	:ordinal "2"^^xsd:positiveInteger ;
	:reference <http://www.cdisc.org/C106479/V69#C106479_C178141> ;
	:context <http://www.cdisc.org/CT/V69#TH> ;
	:localLabel ""^^xsd:string ;
.
<http://www.assero.co.uk/CHIN#1bea32f1-0674-42ed-87d9-4427859b7baf_TUC3>
	rdf:type :TucReference ;
	isoC:label ""^^xsd:string ;
	:enabled "true"^^xsd:boolean ;
	:optional "false"^^xsd:boolean ;
	:ordinal "3"^^xsd:positiveInteger ;
	:reference <http://www.cdisc.org/C106479/V69#C106479_C16955> ;
	:context <http://www.cdisc.org/CT/V69#TH> ;
	:localLabel ""^^xsd:string ;
.
<http://www.assero.co.uk/CHIN#1bea32f1-0674-42ed-87d9-4427859b7baf_TUC1>
	rdf:type :TucReference ;
	isoC:label ""^^xsd:string ;
	:enabled "true"^^xsd:boolean ;
	:optional "false"^^xsd:boolean ;
	:ordinal "1"^^xsd:positiveInteger ;
	:reference <http://www.cdisc.org/C106479/V35#C106479_C16955> ;
	:context <http://www.cdisc.org/CT/V68#TH> ;
	:localLabel ""^^xsd:string ;
.
<http://www.assero.co.uk/CHIN#ee33c5f2-7103-46f7-88be-027d615cec7a>
	rdf:type ba:ChangeInstruction ;
	isoC:label ""^^xsd:string ;
	ba:reference ""^^xsd:string ;
	ba:description "C77956 being removed from codelist and will be merged into C77662."^^xsd:string ;
	ba:current <http://www.assero.co.uk/CHIN#ee33c5f2-7103-46f7-88be-027d615cec7a_TUC2> ;
	ba:ordinal "22"^^xsd:integer ;
	ba:semantic "related terminology"^^xsd:string ;
	ba:previous <http://www.assero.co.uk/CHIN#ee33c5f2-7103-46f7-88be-027d615cec7a_TUC1> ;
.
<http://www.assero.co.uk/CHIN#ee33c5f2-7103-46f7-88be-027d615cec7a_TUC2>
	rdf:type :TucReference ;
	isoC:label ""^^xsd:string ;
	:enabled "true"^^xsd:boolean ;
	:optional "false"^^xsd:boolean ;
	:ordinal "2"^^xsd:positiveInteger ;
	:reference <http://www.cdisc.org/C77529/V69#C77529_C77662> ;
	:context <http://www.cdisc.org/CT/V69#TH> ;
	:localLabel ""^^xsd:string ;
.
<http://www.assero.co.uk/CHIN#ee33c5f2-7103-46f7-88be-027d615cec7a_TUC1>
	rdf:type :TucReference ;
	isoC:label ""^^xsd:string ;
	:enabled "true"^^xsd:boolean ;
	:optional "false"^^xsd:boolean ;
	:ordinal "1"^^xsd:positiveInteger ;
	:reference <http://www.cdisc.org/C77529/V51#C77529_C77956> ;
	:context <http://www.cdisc.org/CT/V68#TH> ;
	:localLabel ""^^xsd:string ;
.