---
:parent:
  :order: 1
  :instance:
    :operation:
      :action: CREATE
      :new_version: 1
      :new_semantic_version: 0.0.0
      :new_state: Standard
      :identifier_edit: true
    :managed_item:
      :type: http://www.assero.co.uk/BusinessDomain#ImplementationGuide
      :id: ''
      :namespace: ''
      :label: ADaM IG 2018-01-01
      :extension_properties: []
      :origin: ''
      :change_description: ''
      :creation_date: '2018-01-01'
      :last_changed_date: '2018-11-22T10:32:20+00:00'
      :explanatory_comment: ''
      :registration_state:
        :namespace: http://www.assero.co.uk/MDRItems
        :id: ''
        :registration_authority:
          :id: ''
          :number: "<Not Set>"
          :scheme: DUNS
          :owner: false
          :namespace:
            :namespace: ''
            :id: ''
            :name: ''
            :shortName: ''
        :registration_status: Not_Set
        :administrative_note: ''
        :effective_date: '2016-01-01T00:00:00+00:00'
        :until_date: '2016-01-01T00:00:00+00:00'
        :current: false
        :unresolved_issue: ''
        :administrative_status: ''
        :previous_state: Not_Set
      :scoped_identifier:
        :id: ''
        :identifier: ADAM IG
        :version_label: ADaM 2018-01-01
        :version: 0
        :semantic_version: 0.0.0
        :namespace:
          :namespace: ''
          :id: ''
          :name: ''
          :shortName: ''
      :references: []
      :ordinal: 1
:children:
- :order: 1
  :instance:
    :operation:
      :action: CREATE
      :new_version: 1
      :new_semantic_version: 0.0.0
      :new_state: Standard
      :identifier_edit: true
    :managed_item:
      :type: http://www.assero.co.uk/BusinessDomain#IgDomain
      :id: ''
      :namespace: ''
      :label: Subject Level Analysis Dataset
      :extension_properties: []
      :origin: ''
      :change_description: ''
      :creation_date: '2018-01-01'
      :last_changed_date: '2018-11-22T10:32:20+00:00'
      :explanatory_comment: ''
      :registration_state:
        :namespace: http://www.assero.co.uk/MDRItems
        :id: ''
        :registration_authority:
          :id: ''
          :number: "<Not Set>"
          :scheme: DUNS
          :owner: false
          :namespace:
            :namespace: ''
            :id: ''
            :name: ''
            :shortName: ''
        :registration_status: Not_Set
        :administrative_note: ''
        :effective_date: '2016-01-01T00:00:00+00:00'
        :until_date: '2016-01-01T00:00:00+00:00'
        :current: false
        :unresolved_issue: ''
        :administrative_status: ''
        :previous_state: Not_Set
      :scoped_identifier:
        :id: ''
        :identifier: ADAMIG ADSL
        :version_label: ADaM 2018-01-01
        :version: 0
        :semantic_version: 0.0.0
        :namespace:
          :namespace: ''
          :id: ''
          :name: ''
          :shortName: ''
      :ordinal: 1
      :rule: ''
      :prefix: "--"
      :structure: ''
      :children:
      - :type: http://www.assero.co.uk/BusinessDomain#IgVariable
        :id: ''
        :namespace: ''
        :label: Study Identifier
        :extension_properties: []
        :ordinal: 1
        :rule: ''
        :name: STUDYID
        :notes: DM.STUDYID
        :ct: ''
        :ct_notes: ''
        :compliance:
          :type: http://www.assero.co.uk/BusinessDomain#VariableCompliance
          :id: ''
          :namespace: ''
          :label: Required
          :extension_properties: []
        :datatype:
          :type: http://www.assero.co.uk/BusinessDomain#VariableType
          :id: ''
          :namespace: ''
          :label: Character
          :extension_properties: []
      - :type: http://www.assero.co.uk/BusinessDomain#IgVariable
        :id: ''
        :namespace: ''
        :label: Unique Subject Identifier
        :extension_properties: []
        :ordinal: 2
        :rule: ''
        :name: USUBJID
        :notes: DM.USUBJID
        :ct: ''
        :ct_notes: ''
        :compliance:
          :type: http://www.assero.co.uk/BusinessDomain#VariableCompliance
          :id: ''
          :namespace: ''
          :label: Required
          :extension_properties: []
        :datatype:
          :type: http://www.assero.co.uk/BusinessDomain#VariableType
          :id: ''
          :namespace: ''
          :label: Character
          :extension_properties: []
      - :type: http://www.assero.co.uk/BusinessDomain#IgVariable
        :id: ''
        :namespace: ''
        :label: Subject Identifier for the Study
        :extension_properties: []
        :ordinal: 3
        :rule: ''
        :name: SUBJID
        :notes: DM.SUBJID. SUBJID is required in ADSL, but permissible in other datasets.
        :ct: ''
        :ct_notes: ''
        :compliance:
          :type: http://www.assero.co.uk/BusinessDomain#VariableCompliance
          :id: ''
          :namespace: ''
          :label: Required
          :extension_properties: []
        :datatype:
          :type: http://www.assero.co.uk/BusinessDomain#VariableType
          :id: ''
          :namespace: ''
          :label: Character
          :extension_properties: []
      - :type: http://www.assero.co.uk/BusinessDomain#IgVariable
        :id: ''
        :namespace: ''
        :label: Study Site Identifier
        :extension_properties: []
        :ordinal: 4
        :rule: ''
        :name: SITEID
        :notes: DM.SITEID. SITEID is required in ADSL, but permissible in other datasets.
        :ct: ''
        :ct_notes: ''
        :compliance:
          :type: http://www.assero.co.uk/BusinessDomain#VariableCompliance
          :id: ''
          :namespace: ''
          :label: Required
          :extension_properties: []
        :datatype:
          :type: http://www.assero.co.uk/BusinessDomain#VariableType
          :id: ''
          :namespace: ''
          :label: Character
          :extension_properties: []
      - :type: http://www.assero.co.uk/BusinessDomain#IgVariable
        :id: ''
        :namespace: ''
        :label: Pooled Site Group y
        :extension_properties: []
        :ordinal: 5
        :rule: ''
        :name: SITEGRy
        :notes: Character description of a grouping or pooling of clinical sites for
          analysis purposes. For example, SITEGR3 is the name of a variable containing
          site group (pooled site) names, where the grouping has been done according
          to the third site grouping algorithm, defined in variable metadata; SITEGR3
          does not mean the third group of sites.
        :ct: ''
        :ct_notes: ''
        :compliance:
          :type: http://www.assero.co.uk/BusinessDomain#VariableCompliance
          :id: ''
          :namespace: ''
          :label: Permissible
          :extension_properties: []
        :datatype:
          :type: http://www.assero.co.uk/BusinessDomain#VariableType
          :id: ''
          :namespace: ''
          :label: Character
          :extension_properties: []
      - :type: http://www.assero.co.uk/BusinessDomain#IgVariable
        :id: ''
        :namespace: ''
        :label: Pooled Site Group y (N)
        :extension_properties: []
        :ordinal: 6
        :rule: ''
        :name: SITEGRyN
        :notes: The numeric code for SITEGRy. One-to-one mapping to SITEGRy within
          a study.
        :ct: ''
        :ct_notes: ''
        :compliance:
          :type: http://www.assero.co.uk/BusinessDomain#VariableCompliance
          :id: ''
          :namespace: ''
          :label: Permissible
          :extension_properties: []
        :datatype:
          :type: http://www.assero.co.uk/BusinessDomain#VariableType
          :id: ''
          :namespace: ''
          :label: Numeric
          :extension_properties: []
      - :type: http://www.assero.co.uk/BusinessDomain#IgVariable
        :id: ''
        :namespace: ''
        :label: Geographic Region y
        :extension_properties: []
        :ordinal: 7
        :rule: ''
        :name: REGIONy
        :notes: Character description of geographical region. For example, REGION1
          might have values of ‘Asia’, ‘Europe’, ‘North America’, ‘Rest of World’;
          REGION2 might have values of ‘United States’, ‘Rest of World’.
        :ct: ''
        :ct_notes: ''
        :compliance:
          :type: http://www.assero.co.uk/BusinessDomain#VariableCompliance
          :id: ''
          :namespace: ''
          :label: Permissible
          :extension_properties: []
        :datatype:
          :type: http://www.assero.co.uk/BusinessDomain#VariableType
          :id: ''
          :namespace: ''
          :label: Character
          :extension_properties: []
      - :type: http://www.assero.co.uk/BusinessDomain#IgVariable
        :id: ''
        :namespace: ''
        :label: Geographic Region y (N)
        :extension_properties: []
        :ordinal: 8
        :rule: ''
        :name: REGIONyN
        :notes: The numeric code for REGIONy. Orders REGIONy for analysis and reporting.
          One-to-one mapping to REGIONy within a study.
        :ct: ''
        :ct_notes: ''
        :compliance:
          :type: http://www.assero.co.uk/BusinessDomain#VariableCompliance
          :id: ''
          :namespace: ''
          :label: Permissible
          :extension_properties: []
        :datatype:
          :type: http://www.assero.co.uk/BusinessDomain#VariableType
          :id: ''
          :namespace: ''
          :label: Numeric
          :extension_properties: []
      - :type: http://www.assero.co.uk/BusinessDomain#IgVariable
        :id: ''
        :namespace: ''
        :label: Age
        :extension_properties: []
        :ordinal: 9
        :rule: ''
        :name: AGE
        :notes: DM.AGE. If analysis needs require a derived age that does not match
          DM.AGE, then AAGE must be added
        :ct: ''
        :ct_notes: ''
        :compliance:
          :type: http://www.assero.co.uk/BusinessDomain#VariableCompliance
          :id: ''
          :namespace: ''
          :label: Required
          :extension_properties: []
        :datatype:
          :type: http://www.assero.co.uk/BusinessDomain#VariableType
          :id: ''
          :namespace: ''
          :label: Numeric
          :extension_properties: []
      - :type: http://www.assero.co.uk/BusinessDomain#IgVariable
        :id: ''
        :namespace: ''
        :label: Age Units
        :extension_properties: []
        :ordinal: 10
        :rule: ''
        :name: AGEU
        :notes: DM.AGEU
        :ct: AGEU
        :ct_notes: ''
        :compliance:
          :type: http://www.assero.co.uk/BusinessDomain#VariableCompliance
          :id: ''
          :namespace: ''
          :label: Required
          :extension_properties: []
        :datatype:
          :type: http://www.assero.co.uk/BusinessDomain#VariableType
          :id: ''
          :namespace: ''
          :label: Character
          :extension_properties: []
      - :type: http://www.assero.co.uk/BusinessDomain#IgVariable
        :id: ''
        :namespace: ''
        :label: Pooled Age Group y
        :extension_properties: []
        :ordinal: 11
        :rule: ''
        :name: AGEGRy
        :notes: Character description of a grouping or pooling of the subject's age
          for analysis purposes. For example, AGEGR1 might have values of "<18", "18-65",
          and ">65"; AGEGR2 might have values of "Less than 35 y old" and "At least
          35 y old".
        :ct: ''
        :ct_notes: ''
        :compliance:
          :type: http://www.assero.co.uk/BusinessDomain#VariableCompliance
          :id: ''
          :namespace: ''
          :label: Permissible
          :extension_properties: []
        :datatype:
          :type: http://www.assero.co.uk/BusinessDomain#VariableType
          :id: ''
          :namespace: ''
          :label: Character
          :extension_properties: []
      - :type: http://www.assero.co.uk/BusinessDomain#IgVariable
        :id: ''
        :namespace: ''
        :label: Pooled Age Group y (N)
        :extension_properties: []
        :ordinal: 12
        :rule: ''
        :name: AGEGRyN
        :notes: The numeric code for AGEGRy. Orders the grouping or pooling of subject
          age for analysis and reporting. One-to-one mapping to AGEGRy within a study.
        :ct: ''
        :ct_notes: ''
        :compliance:
          :type: http://www.assero.co.uk/BusinessDomain#VariableCompliance
          :id: ''
          :namespace: ''
          :label: Permissible
          :extension_properties: []
        :datatype:
          :type: http://www.assero.co.uk/BusinessDomain#VariableType
          :id: ''
          :namespace: ''
          :label: Numeric
          :extension_properties: []
      - :type: http://www.assero.co.uk/BusinessDomain#IgVariable
        :id: ''
        :namespace: ''
        :label: Analysis Age
        :extension_properties: []
        :ordinal: 13
        :rule: ''
        :name: AAGE
        :notes: Age used for analysis that is derived differently from DM.AGE. AAGE
          is required if age is calculated differently than in SDTM.
        :ct: ''
        :ct_notes: ''
        :compliance:
          :type: http://www.assero.co.uk/BusinessDomain#VariableCompliance
          :id: ''
          :namespace: ''
          :label: Conditional
          :extension_properties: []
        :datatype:
          :type: http://www.assero.co.uk/BusinessDomain#VariableType
          :id: ''
          :namespace: ''
          :label: Numeric
          :extension_properties: []
      - :type: http://www.assero.co.uk/BusinessDomain#IgVariable
        :id: ''
        :namespace: ''
        :label: Sex
        :extension_properties: []
        :ordinal: 14
        :rule: ''
        :name: SEX
        :notes: The sex of the subject is a required variable in ADSL; must be identical
          to DM.SEX.
        :ct: SEX
        :ct_notes: ''
        :compliance:
          :type: http://www.assero.co.uk/BusinessDomain#VariableCompliance
          :id: ''
          :namespace: ''
          :label: Required
          :extension_properties: []
        :datatype:
          :type: http://www.assero.co.uk/BusinessDomain#VariableType
          :id: ''
          :namespace: ''
          :label: Character
          :extension_properties: []
      - :type: http://www.assero.co.uk/BusinessDomain#IgVariable
        :id: ''
        :namespace: ''
        :label: Race
        :extension_properties: []
        :ordinal: 15
        :rule: ''
        :name: RACE
        :notes: The race of the subject is a required variable in ADSL; must be identical
          to DM.RACE.
        :ct: RACE
        :ct_notes: ''
        :compliance:
          :type: http://www.assero.co.uk/BusinessDomain#VariableCompliance
          :id: ''
          :namespace: ''
          :label: Required
          :extension_properties: []
        :datatype:
          :type: http://www.assero.co.uk/BusinessDomain#VariableType
          :id: ''
          :namespace: ''
          :label: Character
          :extension_properties: []
      - :type: http://www.assero.co.uk/BusinessDomain#IgVariable
        :id: ''
        :namespace: ''
        :label: Pooled Race Group y
        :extension_properties: []
        :ordinal: 16
        :rule: ''
        :name: RACEGRy
        :notes: Character description of a grouping or pooling of the subject's race
          for analysis purposes.
        :ct: ''
        :ct_notes: ''
        :compliance:
          :type: http://www.assero.co.uk/BusinessDomain#VariableCompliance
          :id: ''
          :namespace: ''
          :label: Permissible
          :extension_properties: []
        :datatype:
          :type: http://www.assero.co.uk/BusinessDomain#VariableType
          :id: ''
          :namespace: ''
          :label: Character
          :extension_properties: []
      - :type: http://www.assero.co.uk/BusinessDomain#IgVariable
        :id: ''
        :namespace: ''
        :label: Pooled Race Group y (N)
        :extension_properties: []
        :ordinal: 17
        :rule: ''
        :name: RACEGRyN
        :notes: The numeric code for RACEGRy. Orders the grouping or pooling of subject
          race for analysis and reporting. One-to-one mapping to RACEGRy within a
          study.
        :ct: ''
        :ct_notes: ''
        :compliance:
          :type: http://www.assero.co.uk/BusinessDomain#VariableCompliance
          :id: ''
          :namespace: ''
          :label: Permissible
          :extension_properties: []
        :datatype:
          :type: http://www.assero.co.uk/BusinessDomain#VariableType
          :id: ''
          :namespace: ''
          :label: Numeric
          :extension_properties: []
      - :type: http://www.assero.co.uk/BusinessDomain#IgVariable
        :id: ''
        :namespace: ''
        :label: Full Analysis Set Population Flag
        :extension_properties: []
        :ordinal: 18
        :rule: ''
        :name: FASFL
        :notes: These flags identify whether or not the subject is included in the
          specified population. A minimum of one subject-level population flag variable
          is required in ADSL.
        :ct: ''
        :ct_notes: Y, N
        :compliance:
          :type: http://www.assero.co.uk/BusinessDomain#VariableCompliance
          :id: ''
          :namespace: ''
          :label: Conditional
          :extension_properties: []
        :datatype:
          :type: http://www.assero.co.uk/BusinessDomain#VariableType
          :id: ''
          :namespace: ''
          :label: Character
          :extension_properties: []
      - :type: http://www.assero.co.uk/BusinessDomain#IgVariable
        :id: ''
        :namespace: ''
        :label: Safety Population Flag
        :extension_properties: []
        :ordinal: 19
        :rule: ''
        :name: SAFFL
        :notes: Not all of the indicators listed here need to be included in ADSL.
          As stated in Section 3.1.4, Item 2, only those indicators corresponding
          to populations defined in the statistical analysis plan or populations used
          as a basis for analysis need be included in ADSL.
        :ct: ''
        :ct_notes: Y, N
        :compliance:
          :type: http://www.assero.co.uk/BusinessDomain#VariableCompliance
          :id: ''
          :namespace: ''
          :label: Conditional
          :extension_properties: []
        :datatype:
          :type: http://www.assero.co.uk/BusinessDomain#VariableType
          :id: ''
          :namespace: ''
          :label: Character
          :extension_properties: []
      - :type: http://www.assero.co.uk/BusinessDomain#IgVariable
        :id: ''
        :namespace: ''
        :label: Intent-To-Treat Population Flag
        :extension_properties: []
        :ordinal: 20
        :rule: ''
        :name: ITTFL
        :notes: This list of flags is not meant to be all-inclusive. Additional population
          flags may be added.
        :ct: ''
        :ct_notes: Y, N
        :compliance:
          :type: http://www.assero.co.uk/BusinessDomain#VariableCompliance
          :id: ''
          :namespace: ''
          :label: Conditional
          :extension_properties: []
        :datatype:
          :type: http://www.assero.co.uk/BusinessDomain#VariableType
          :id: ''
          :namespace: ''
          :label: Character
          :extension_properties: []
      - :type: http://www.assero.co.uk/BusinessDomain#IgVariable
        :id: ''
        :namespace: ''
        :label: Per-Protocol Population Flag
        :extension_properties: []
        :ordinal: 21
        :rule: ''
        :name: PPROTFL
        :notes: The values of subject-level population flags cannot be blank. If a
          flag is used, the corresponding numeric version (*FN, where 0=no and 1=yes)
          of the population flag can also be included. Please also refer to Section
          3.1.4.
        :ct: ''
        :ct_notes: Y, N
        :compliance:
          :type: http://www.assero.co.uk/BusinessDomain#VariableCompliance
          :id: ''
          :namespace: ''
          :label: Conditional
          :extension_properties: []
        :datatype:
          :type: http://www.assero.co.uk/BusinessDomain#VariableType
          :id: ''
          :namespace: ''
          :label: Character
          :extension_properties: []
      - :type: http://www.assero.co.uk/BusinessDomain#IgVariable
        :id: ''
        :namespace: ''
        :label: Completers Population Flag
        :extension_properties: []
        :ordinal: 22
        :rule: ''
        :name: COMPLFL
        :notes: The values of subject-level population flags cannot be blank. If a
          flag is used, the corresponding numeric version (*FN, where 0=no and 1=yes)
          of the population flag can also be included. Please also refer to Section
          3.1.4.
        :ct: ''
        :ct_notes: Y, N
        :compliance:
          :type: http://www.assero.co.uk/BusinessDomain#VariableCompliance
          :id: ''
          :namespace: ''
          :label: Conditional
          :extension_properties: []
        :datatype:
          :type: http://www.assero.co.uk/BusinessDomain#VariableType
          :id: ''
          :namespace: ''
          :label: Character
          :extension_properties: []
      - :type: http://www.assero.co.uk/BusinessDomain#IgVariable
        :id: ''
        :namespace: ''
        :label: Randomized Population Flag
        :extension_properties: []
        :ordinal: 23
        :rule: ''
        :name: RANDFL
        :notes: The values of subject-level population flags cannot be blank. If a
          flag is used, the corresponding numeric version (*FN, where 0=no and 1=yes)
          of the population flag can also be included. Please also refer to Section
          3.1.4.
        :ct: ''
        :ct_notes: Y, N
        :compliance:
          :type: http://www.assero.co.uk/BusinessDomain#VariableCompliance
          :id: ''
          :namespace: ''
          :label: Conditional
          :extension_properties: []
        :datatype:
          :type: http://www.assero.co.uk/BusinessDomain#VariableType
          :id: ''
          :namespace: ''
          :label: Character
          :extension_properties: []
      - :type: http://www.assero.co.uk/BusinessDomain#IgVariable
        :id: ''
        :namespace: ''
        :label: Enrolled Population Flag
        :extension_properties: []
        :ordinal: 24
        :rule: ''
        :name: ENRLFL
        :notes: The values of subject-level population flags cannot be blank. If a
          flag is used, the corresponding numeric version (*FN, where 0=no and 1=yes)
          of the population flag can also be included. Please also refer to Section
          3.1.4.
        :ct: ''
        :ct_notes: Y, N
        :compliance:
          :type: http://www.assero.co.uk/BusinessDomain#VariableCompliance
          :id: ''
          :namespace: ''
          :label: Conditional
          :extension_properties: []
        :datatype:
          :type: http://www.assero.co.uk/BusinessDomain#VariableType
          :id: ''
          :namespace: ''
          :label: Character
          :extension_properties: []
      - :type: http://www.assero.co.uk/BusinessDomain#IgVariable
        :id: ''
        :namespace: ''
        :label: Description of Planned Arm
        :extension_properties: []
        :ordinal: 25
        :rule: ''
        :name: ARM
        :notes: DM.ARM
        :ct: ''
        :ct_notes: ''
        :compliance:
          :type: http://www.assero.co.uk/BusinessDomain#VariableCompliance
          :id: ''
          :namespace: ''
          :label: Required
          :extension_properties: []
        :datatype:
          :type: http://www.assero.co.uk/BusinessDomain#VariableType
          :id: ''
          :namespace: ''
          :label: Character
          :extension_properties: []
      - :type: http://www.assero.co.uk/BusinessDomain#IgVariable
        :id: ''
        :namespace: ''
        :label: Description of Actual Arm
        :extension_properties: []
        :ordinal: 26
        :rule: ''
        :name: ACTARM
        :notes: DM.ACTARM
        :ct: ''
        :ct_notes: ''
        :compliance:
          :type: http://www.assero.co.uk/BusinessDomain#VariableCompliance
          :id: ''
          :namespace: ''
          :label: Permissible
          :extension_properties: []
        :datatype:
          :type: http://www.assero.co.uk/BusinessDomain#VariableType
          :id: ''
          :namespace: ''
          :label: Character
          :extension_properties: []
      - :type: http://www.assero.co.uk/BusinessDomain#IgVariable
        :id: ''
        :namespace: ''
        :label: Planned Treatment for Period xx
        :extension_properties: []
        :ordinal: 27
        :rule: ''
        :name: TRTxxP
        :notes: Subject-level identifier that represents the planned treatment for
          period xx. In a one-period randomized trial, TRT01P would be the treatment
          to which the subject was randomized. TRTxxP might be derived from the SDTM
          DM variable ARM. At least TRT01P is required.
        :ct: ''
        :ct_notes: ''
        :compliance:
          :type: http://www.assero.co.uk/BusinessDomain#VariableCompliance
          :id: ''
          :namespace: ''
          :label: Required
          :extension_properties: []
        :datatype:
          :type: http://www.assero.co.uk/BusinessDomain#VariableType
          :id: ''
          :namespace: ''
          :label: Character
          :extension_properties: []
      - :type: http://www.assero.co.uk/BusinessDomain#IgVariable
        :id: ''
        :namespace: ''
        :label: Planned Treatment for Period xx (N)
        :extension_properties: []
        :ordinal: 28
        :rule: ''
        :name: TRTxxPN
        :notes: The numeric code variable for TRTxxP. One-to-one mapping to TRTxxP
          within a study.
        :ct: ''
        :ct_notes: ''
        :compliance:
          :type: http://www.assero.co.uk/BusinessDomain#VariableCompliance
          :id: ''
          :namespace: ''
          :label: Permissible
          :extension_properties: []
        :datatype:
          :type: http://www.assero.co.uk/BusinessDomain#VariableType
          :id: ''
          :namespace: ''
          :label: Numeric
          :extension_properties: []
      - :type: http://www.assero.co.uk/BusinessDomain#IgVariable
        :id: ''
        :namespace: ''
        :label: Actual Treatment for Period xx
        :extension_properties: []
        :ordinal: 29
        :rule: ''
        :name: TRTxxA
        :notes: Subject-level identifier that represents the actual treatment for
          the subject for period xx. Required when actual treatment does not match
          planned and there is an analysis of the data as treated.
        :ct: ''
        :ct_notes: ''
        :compliance:
          :type: http://www.assero.co.uk/BusinessDomain#VariableCompliance
          :id: ''
          :namespace: ''
          :label: Conditional
          :extension_properties: []
        :datatype:
          :type: http://www.assero.co.uk/BusinessDomain#VariableType
          :id: ''
          :namespace: ''
          :label: Character
          :extension_properties: []
      - :type: http://www.assero.co.uk/BusinessDomain#IgVariable
        :id: ''
        :namespace: ''
        :label: Actual Treatment for Period xx (N)
        :extension_properties: []
        :ordinal: 30
        :rule: ''
        :name: TRTxxAN
        :notes: The numeric code variable for TRTxxA. One-to-one mapping to TRTxxA
          within a study.
        :ct: ''
        :ct_notes: ''
        :compliance:
          :type: http://www.assero.co.uk/BusinessDomain#VariableCompliance
          :id: ''
          :namespace: ''
          :label: Permissible
          :extension_properties: []
        :datatype:
          :type: http://www.assero.co.uk/BusinessDomain#VariableType
          :id: ''
          :namespace: ''
          :label: Numeric
          :extension_properties: []
      - :type: http://www.assero.co.uk/BusinessDomain#IgVariable
        :id: ''
        :namespace: ''
        :label: Planned Sequence of Treatments
        :extension_properties: []
        :ordinal: 31
        :rule: ''
        :name: TRTSEQP
        :notes: Required when there is an analysis based on the sequence of treatments,
          for example in a crossover design. TRTSEQP is not necessarily equal to ARM,
          for example if ARM contains elements that are not relevant to analysis of
          treatments or ARM is not fully descriptive (e.g., “GROUP 1,” “GROUP 2”).
          When analyzing based on the sequence of treatments, TRTSEQP is required
          even if identical to ARM.
        :ct: ''
        :ct_notes: ''
        :compliance:
          :type: http://www.assero.co.uk/BusinessDomain#VariableCompliance
          :id: ''
          :namespace: ''
          :label: Conditional
          :extension_properties: []
        :datatype:
          :type: http://www.assero.co.uk/BusinessDomain#VariableType
          :id: ''
          :namespace: ''
          :label: Character
          :extension_properties: []
      - :type: http://www.assero.co.uk/BusinessDomain#IgVariable
        :id: ''
        :namespace: ''
        :label: Planned Sequence of Treatments (N)
        :extension_properties: []
        :ordinal: 32
        :rule: ''
        :name: TRTSEQPN
        :notes: Numeric version of TRTSEQP. One-to-one mapping to TRTSEQP within a
          study.
        :ct: ''
        :ct_notes: ''
        :compliance:
          :type: http://www.assero.co.uk/BusinessDomain#VariableCompliance
          :id: ''
          :namespace: ''
          :label: Permissible
          :extension_properties: []
        :datatype:
          :type: http://www.assero.co.uk/BusinessDomain#VariableType
          :id: ''
          :namespace: ''
          :label: Numeric
          :extension_properties: []
      - :type: http://www.assero.co.uk/BusinessDomain#IgVariable
        :id: ''
        :namespace: ''
        :label: Actual Sequence of Treatments
        :extension_properties: []
        :ordinal: 33
        :rule: ''
        :name: TRTSEQA
        :notes: TRTSEQA is required if a situation occurred in the conduct of the
          trial where a subject received a sequence of treatments other than what
          was planned and there is an analysis based on the sequence of treatments.
        :ct: ''
        :ct_notes: ''
        :compliance:
          :type: http://www.assero.co.uk/BusinessDomain#VariableCompliance
          :id: ''
          :namespace: ''
          :label: Conditional
          :extension_properties: []
        :datatype:
          :type: http://www.assero.co.uk/BusinessDomain#VariableType
          :id: ''
          :namespace: ''
          :label: Character
          :extension_properties: []
      - :type: http://www.assero.co.uk/BusinessDomain#IgVariable
        :id: ''
        :namespace: ''
        :label: Actual Sequence of Treatments (N)
        :extension_properties: []
        :ordinal: 34
        :rule: ''
        :name: TRTSEQAN
        :notes: Numeric version of TRTSEQA. One-to-one mapping to TRTSEQA within a
          study.
        :ct: ''
        :ct_notes: ''
        :compliance:
          :type: http://www.assero.co.uk/BusinessDomain#VariableCompliance
          :id: ''
          :namespace: ''
          :label: Permissible
          :extension_properties: []
        :datatype:
          :type: http://www.assero.co.uk/BusinessDomain#VariableType
          :id: ''
          :namespace: ''
          :label: Numeric
          :extension_properties: []
      - :type: http://www.assero.co.uk/BusinessDomain#IgVariable
        :id: ''
        :namespace: ''
        :label: Planned Pooled Treatment y for Period xx
        :extension_properties: []
        :ordinal: 35
        :rule: ''
        :name: TRxxPGy
        :notes: Planned pooled treatment y for period xx. Useful when planned treatments
          (TRTxxP) in the specified period xx are pooled together for analysis according
          to pooling algorithm y. For example when in period 2 the first pooling algorithm
          dictates that all doses of Drug A (TR02PG1=“All doses of Drug A”) are pooled
          together for comparison to all doses of Drug B (TR02PG1=“All doses of Drug
          B”). Each value of TRTxxP is pooled within at most one value of TRxxPGy.
        :ct: ''
        :ct_notes: ''
        :compliance:
          :type: http://www.assero.co.uk/BusinessDomain#VariableCompliance
          :id: ''
          :namespace: ''
          :label: Permissible
          :extension_properties: []
        :datatype:
          :type: http://www.assero.co.uk/BusinessDomain#VariableType
          :id: ''
          :namespace: ''
          :label: Character
          :extension_properties: []
      - :type: http://www.assero.co.uk/BusinessDomain#IgVariable
        :id: ''
        :namespace: ''
        :label: Planned Pooled Trt y for Period xx (N)
        :extension_properties: []
        :ordinal: 36
        :rule: ''
        :name: TRxxPGyN
        :notes: The numeric code for TRxxPGy. One-to-one mapping to TRxxPGy within
          a study.
        :ct: ''
        :ct_notes: ''
        :compliance:
          :type: http://www.assero.co.uk/BusinessDomain#VariableCompliance
          :id: ''
          :namespace: ''
          :label: Permissible
          :extension_properties: []
        :datatype:
          :type: http://www.assero.co.uk/BusinessDomain#VariableType
          :id: ''
          :namespace: ''
          :label: Numeric
          :extension_properties: []
      - :type: http://www.assero.co.uk/BusinessDomain#IgVariable
        :id: ''
        :namespace: ''
        :label: Actual Pooled Treatment y for Period xx
        :extension_properties: []
        :ordinal: 37
        :rule: ''
        :name: TRxxAGy
        :notes: Actual pooled treatment y for period xx. Required when TRxxPGy is
          present and TRTxxA is present.
        :ct: ''
        :ct_notes: ''
        :compliance:
          :type: http://www.assero.co.uk/BusinessDomain#VariableCompliance
          :id: ''
          :namespace: ''
          :label: Conditional
          :extension_properties: []
        :datatype:
          :type: http://www.assero.co.uk/BusinessDomain#VariableType
          :id: ''
          :namespace: ''
          :label: Character
          :extension_properties: []
      - :type: http://www.assero.co.uk/BusinessDomain#IgVariable
        :id: ''
        :namespace: ''
        :label: Actual Pooled Trt y for Period xx (N)
        :extension_properties: []
        :ordinal: 38
        :rule: ''
        :name: TRxxAGyN
        :notes: The numeric code for TRxxAGy. One-to-one mapping to TRxxAGy within
          a study.
        :ct: ''
        :ct_notes: ''
        :compliance:
          :type: http://www.assero.co.uk/BusinessDomain#VariableCompliance
          :id: ''
          :namespace: ''
          :label: Permissible
          :extension_properties: []
        :datatype:
          :type: http://www.assero.co.uk/BusinessDomain#VariableType
          :id: ''
          :namespace: ''
          :label: Numeric
          :extension_properties: []
      - :type: http://www.assero.co.uk/BusinessDomain#IgVariable
        :id: ''
        :namespace: ''
        :label: Planned Pooled Treatment Sequence y
        :extension_properties: []
        :ordinal: 39
        :rule: ''
        :name: TSEQPGy
        :notes: Planned pooled treatment sequence y. Useful when planned treatment
          sequences (TRTSEQP) are pooled together for analysis according to pooling
          algorithm y. For example, this might be used in an analysis of an extension
          study when the analysis is based on what the subject received in the parent
          study as well as in the extension study.
        :ct: ''
        :ct_notes: ''
        :compliance:
          :type: http://www.assero.co.uk/BusinessDomain#VariableCompliance
          :id: ''
          :namespace: ''
          :label: Permissible
          :extension_properties: []
        :datatype:
          :type: http://www.assero.co.uk/BusinessDomain#VariableType
          :id: ''
          :namespace: ''
          :label: Character
          :extension_properties: []
      - :type: http://www.assero.co.uk/BusinessDomain#IgVariable
        :id: ''
        :namespace: ''
        :label: Planned Pooled Treatment Sequence y (N)
        :extension_properties: []
        :ordinal: 40
        :rule: ''
        :name: TSEQPGyN
        :notes: Numeric version of TSEQPGy. One-to-one mapping to TSEQPGy within a
          study.
        :ct: ''
        :ct_notes: ''
        :compliance:
          :type: http://www.assero.co.uk/BusinessDomain#VariableCompliance
          :id: ''
          :namespace: ''
          :label: Permissible
          :extension_properties: []
        :datatype:
          :type: http://www.assero.co.uk/BusinessDomain#VariableType
          :id: ''
          :namespace: ''
          :label: Numeric
          :extension_properties: []
      - :type: http://www.assero.co.uk/BusinessDomain#IgVariable
        :id: ''
        :namespace: ''
        :label: Actual Pooled Treatment Sequence y
        :extension_properties: []
        :ordinal: 41
        :rule: ''
        :name: TSEQAGy
        :notes: Actual pooled treatment sequence y. Required when TSEQPGy is present
          and TRTSEQA is present.
        :ct: ''
        :ct_notes: ''
        :compliance:
          :type: http://www.assero.co.uk/BusinessDomain#VariableCompliance
          :id: ''
          :namespace: ''
          :label: Conditional
          :extension_properties: []
        :datatype:
          :type: http://www.assero.co.uk/BusinessDomain#VariableType
          :id: ''
          :namespace: ''
          :label: Character
          :extension_properties: []
      - :type: http://www.assero.co.uk/BusinessDomain#IgVariable
        :id: ''
        :namespace: ''
        :label: Actual Pooled Treatment Sequence y (N)
        :extension_properties: []
        :ordinal: 42
        :rule: ''
        :name: TSEQAGyN
        :notes: Numeric version of TSEQAGy. One-to-one mapping to TSEQAGy within a
          study.
        :ct: ''
        :ct_notes: ''
        :compliance:
          :type: http://www.assero.co.uk/BusinessDomain#VariableCompliance
          :id: ''
          :namespace: ''
          :label: Permissible
          :extension_properties: []
        :datatype:
          :type: http://www.assero.co.uk/BusinessDomain#VariableType
          :id: ''
          :namespace: ''
          :label: Numeric
          :extension_properties: []
      - :type: http://www.assero.co.uk/BusinessDomain#IgVariable
        :id: ''
        :namespace: ''
        :label: Planned Treatment Dose for Period xx
        :extension_properties: []
        :ordinal: 43
        :rule: ''
        :name: DOSExxP
        :notes: Subject-level identifier that represents the planned treatment dosage
          for period xx.
        :ct: ''
        :ct_notes: ''
        :compliance:
          :type: http://www.assero.co.uk/BusinessDomain#VariableCompliance
          :id: ''
          :namespace: ''
          :label: Permissible
          :extension_properties: []
        :datatype:
          :type: http://www.assero.co.uk/BusinessDomain#VariableType
          :id: ''
          :namespace: ''
          :label: Numeric
          :extension_properties: []
      - :type: http://www.assero.co.uk/BusinessDomain#IgVariable
        :id: ''
        :namespace: ''
        :label: Actual Treatment Dose for Period xx
        :extension_properties: []
        :ordinal: 44
        :rule: ''
        :name: DOSExxA
        :notes: Subject-level identifier that represents the actual treatment dosage
          for period xx.
        :ct: ''
        :ct_notes: ''
        :compliance:
          :type: http://www.assero.co.uk/BusinessDomain#VariableCompliance
          :id: ''
          :namespace: ''
          :label: Permissible
          :extension_properties: []
        :datatype:
          :type: http://www.assero.co.uk/BusinessDomain#VariableType
          :id: ''
          :namespace: ''
          :label: Numeric
          :extension_properties: []
      - :type: http://www.assero.co.uk/BusinessDomain#IgVariable
        :id: ''
        :namespace: ''
        :label: Units for Dose for Period xx
        :extension_properties: []
        :ordinal: 45
        :rule: ''
        :name: DOSExxU
        :notes: The units for DOSExxP and DOSExxA. It is permissible to use suffixes
          such as “P” and “A” if needed, with labels modified accordingly.
        :ct: ''
        :ct_notes: ''
        :compliance:
          :type: http://www.assero.co.uk/BusinessDomain#VariableCompliance
          :id: ''
          :namespace: ''
          :label: Permissible
          :extension_properties: []
        :datatype:
          :type: http://www.assero.co.uk/BusinessDomain#VariableType
          :id: ''
          :namespace: ''
          :label: Character
          :extension_properties: []
      - :type: http://www.assero.co.uk/BusinessDomain#IgVariable
        :id: ''
        :namespace: ''
        :label: Date of First Exposure to Treatment
        :extension_properties: []
        :ordinal: 46
        :rule: ''
        :name: TRTSDT
        :notes: Date of first exposure to treatment for a subject in a study. TRTSDT
          and/or TRTSDTM are required if there is an investigational product. Note
          that TRTSDT is not required to have the same value as the SDTM DM variable
          RFXSTDTC. While both of these dates reflect the concept of first exposure,
          the ADaM date may be derived to support the analysis which may not necessarily
          be the very first date in the SDTM EX domain.
        :ct: ''
        :ct_notes: ''
        :compliance:
          :type: http://www.assero.co.uk/BusinessDomain#VariableCompliance
          :id: ''
          :namespace: ''
          :label: Conditional
          :extension_properties: []
        :datatype:
          :type: http://www.assero.co.uk/BusinessDomain#VariableType
          :id: ''
          :namespace: ''
          :label: Numeric
          :extension_properties: []
      - :type: http://www.assero.co.uk/BusinessDomain#IgVariable
        :id: ''
        :namespace: ''
        :label: Time of First Exposure to Treatment
        :extension_properties: []
        :ordinal: 47
        :rule: ''
        :name: TRTSTM
        :notes: Time of first exposure to treatment for a subject in a study.
        :ct: ''
        :ct_notes: ''
        :compliance:
          :type: http://www.assero.co.uk/BusinessDomain#VariableCompliance
          :id: ''
          :namespace: ''
          :label: Permissible
          :extension_properties: []
        :datatype:
          :type: http://www.assero.co.uk/BusinessDomain#VariableType
          :id: ''
          :namespace: ''
          :label: Numeric
          :extension_properties: []
      - :type: http://www.assero.co.uk/BusinessDomain#IgVariable
        :id: ''
        :namespace: ''
        :label: Datetime of First Exposure to Treatment
        :extension_properties: []
        :ordinal: 48
        :rule: ''
        :name: TRTSDTM
        :notes: Datetime of first exposure to treatment for a subject in a study.
          TRTSDT and/or TRTSDTM are required if there is an investigational product.
        :ct: ''
        :ct_notes: ''
        :compliance:
          :type: http://www.assero.co.uk/BusinessDomain#VariableCompliance
          :id: ''
          :namespace: ''
          :label: Conditional
          :extension_properties: []
        :datatype:
          :type: http://www.assero.co.uk/BusinessDomain#VariableType
          :id: ''
          :namespace: ''
          :label: Numeric
          :extension_properties: []
      - :type: http://www.assero.co.uk/BusinessDomain#IgVariable
        :id: ''
        :namespace: ''
        :label: Date of First Exposure Imput. Flag
        :extension_properties: []
        :ordinal: 49
        :rule: ''
        :name: TRTSDTF
        :notes: The level of imputation of date of first exposure to treatment. If
          TRTSDT (or the date part of TRTSDTM) was imputed, TRTSDTF must be populated
          and is required. See Section 3.1.3.
        :ct: DATEFL
        :ct_notes: ''
        :compliance:
          :type: http://www.assero.co.uk/BusinessDomain#VariableCompliance
          :id: ''
          :namespace: ''
          :label: Conditional
          :extension_properties: []
        :datatype:
          :type: http://www.assero.co.uk/BusinessDomain#VariableType
          :id: ''
          :namespace: ''
          :label: Character
          :extension_properties: []
      - :type: http://www.assero.co.uk/BusinessDomain#IgVariable
        :id: ''
        :namespace: ''
        :label: Time of First Exposure Imput. Flag
        :extension_properties: []
        :ordinal: 50
        :rule: ''
        :name: TRTSTMF
        :notes: The level of imputation of time of first exposure to treatment. If
          TRTSTM (or the time part of TRTSDTM) was imputed, TRTSTMF must be populated
          and is required. See Section 3.1.3.
        :ct: TIMEFL
        :ct_notes: ''
        :compliance:
          :type: http://www.assero.co.uk/BusinessDomain#VariableCompliance
          :id: ''
          :namespace: ''
          :label: Conditional
          :extension_properties: []
        :datatype:
          :type: http://www.assero.co.uk/BusinessDomain#VariableType
          :id: ''
          :namespace: ''
          :label: Character
          :extension_properties: []
      - :type: http://www.assero.co.uk/BusinessDomain#IgVariable
        :id: ''
        :namespace: ''
        :label: Date of Last Exposure to Treatment
        :extension_properties: []
        :ordinal: 51
        :rule: ''
        :name: TRTEDT
        :notes: Date of last exposure to treatment for a subject in a study. TRTEDT
          and/or TRTEDTM are required if there is an investigational product. Note
          that TRTEDT is not required to have the same value as the SDTM DM variable
          RFXENDTC. While both of these dates reflect the concept of last exposure,
          the ADaM date may be derived to support the analysis which may not necessarily
          be the very last date in the SDTM EX domain.
        :ct: ''
        :ct_notes: ''
        :compliance:
          :type: http://www.assero.co.uk/BusinessDomain#VariableCompliance
          :id: ''
          :namespace: ''
          :label: Conditional
          :extension_properties: []
        :datatype:
          :type: http://www.assero.co.uk/BusinessDomain#VariableType
          :id: ''
          :namespace: ''
          :label: Numeric
          :extension_properties: []
      - :type: http://www.assero.co.uk/BusinessDomain#IgVariable
        :id: ''
        :namespace: ''
        :label: Time of Last Exposure to Treatment
        :extension_properties: []
        :ordinal: 52
        :rule: ''
        :name: TRTETM
        :notes: Time of last exposure to treatment for a subject in a study.
        :ct: ''
        :ct_notes: ''
        :compliance:
          :type: http://www.assero.co.uk/BusinessDomain#VariableCompliance
          :id: ''
          :namespace: ''
          :label: Permissible
          :extension_properties: []
        :datatype:
          :type: http://www.assero.co.uk/BusinessDomain#VariableType
          :id: ''
          :namespace: ''
          :label: Numeric
          :extension_properties: []
      - :type: http://www.assero.co.uk/BusinessDomain#IgVariable
        :id: ''
        :namespace: ''
        :label: Datetime of Last Exposure to Treatment
        :extension_properties: []
        :ordinal: 53
        :rule: ''
        :name: TRTEDTM
        :notes: Datetime of last exposure to treatment for a subject in a study. TRTEDT
          and/or TRTEDTM are required if there is an investigational product.
        :ct: ''
        :ct_notes: ''
        :compliance:
          :type: http://www.assero.co.uk/BusinessDomain#VariableCompliance
          :id: ''
          :namespace: ''
          :label: Conditional
          :extension_properties: []
        :datatype:
          :type: http://www.assero.co.uk/BusinessDomain#VariableType
          :id: ''
          :namespace: ''
          :label: Numeric
          :extension_properties: []
      - :type: http://www.assero.co.uk/BusinessDomain#IgVariable
        :id: ''
        :namespace: ''
        :label: Date of Last Exposure Imput. Flag
        :extension_properties: []
        :ordinal: 54
        :rule: ''
        :name: TRTEDTF
        :notes: The level of imputation of date of last exposure to treatment. If
          TRTEDT (or the date part of TRTEDTM) was imputed, TRTEDTF must be populated
          and is required. See Section 3.1.3.
        :ct: DATEFL
        :ct_notes: ''
        :compliance:
          :type: http://www.assero.co.uk/BusinessDomain#VariableCompliance
          :id: ''
          :namespace: ''
          :label: Conditional
          :extension_properties: []
        :datatype:
          :type: http://www.assero.co.uk/BusinessDomain#VariableType
          :id: ''
          :namespace: ''
          :label: Character
          :extension_properties: []
      - :type: http://www.assero.co.uk/BusinessDomain#IgVariable
        :id: ''
        :namespace: ''
        :label: Time of Last Exposure Imput. Flag
        :extension_properties: []
        :ordinal: 55
        :rule: ''
        :name: TRTETMF
        :notes: The level of imputation of time of last exposure to treatment. If
          TRTETM (or the time part of TRTEDTM) was imputed, TRTETMF must be populated
          and is required. See Section 3.1.3.
        :ct: TIMEFL
        :ct_notes: ''
        :compliance:
          :type: http://www.assero.co.uk/BusinessDomain#VariableCompliance
          :id: ''
          :namespace: ''
          :label: Conditional
          :extension_properties: []
        :datatype:
          :type: http://www.assero.co.uk/BusinessDomain#VariableType
          :id: ''
          :namespace: ''
          :label: Character
          :extension_properties: []
      - :type: http://www.assero.co.uk/BusinessDomain#IgVariable
        :id: ''
        :namespace: ''
        :label: Date of First Exposure in Period xx
        :extension_properties: []
        :ordinal: 56
        :rule: ''
        :name: TRxxSDT
        :notes: Date of first exposure to treatment in period xx. TRxxSDT and/or TRxxSDTM
          are only required in trial designs where multiple treatments are given to
          the same subject, such as a crossover design, but are permissible for other
          trial designs. Also useful in designs where multiple periods exist for the
          same treatment (i.e., multiple cycles of the same study treatment).
        :ct: ''
        :ct_notes: ''
        :compliance:
          :type: http://www.assero.co.uk/BusinessDomain#VariableCompliance
          :id: ''
          :namespace: ''
          :label: Conditional
          :extension_properties: []
        :datatype:
          :type: http://www.assero.co.uk/BusinessDomain#VariableType
          :id: ''
          :namespace: ''
          :label: Numeric
          :extension_properties: []
      - :type: http://www.assero.co.uk/BusinessDomain#IgVariable
        :id: ''
        :namespace: ''
        :label: Time of First Exposure in Period xx
        :extension_properties: []
        :ordinal: 57
        :rule: ''
        :name: TRxxSTM
        :notes: The starting time of exposure to treatment in period xx. TRxxSTM and/or
          TRxxSDTM are only required in trial designs where multiple treatments are
          given to the same subject, such as a crossover design (but are permissible
          for other trial designs), and time is important to the analysis.
        :ct: ''
        :ct_notes: ''
        :compliance:
          :type: http://www.assero.co.uk/BusinessDomain#VariableCompliance
          :id: ''
          :namespace: ''
          :label: Conditional
          :extension_properties: []
        :datatype:
          :type: http://www.assero.co.uk/BusinessDomain#VariableType
          :id: ''
          :namespace: ''
          :label: Numeric
          :extension_properties: []
      - :type: http://www.assero.co.uk/BusinessDomain#IgVariable
        :id: ''
        :namespace: ''
        :label: Datetime of First Exposure in Period xx
        :extension_properties: []
        :ordinal: 58
        :rule: ''
        :name: TRxxSDTM
        :notes: Datetime of first exposure to treatment in period xx. TRxxSDT and/or
          TRxxSDTM are only required in trial designs where multiple treatments are
          given to the same subject, such as a crossover design, but are permissible
          for other trial designs.
        :ct: ''
        :ct_notes: ''
        :compliance:
          :type: http://www.assero.co.uk/BusinessDomain#VariableCompliance
          :id: ''
          :namespace: ''
          :label: Conditional
          :extension_properties: []
        :datatype:
          :type: http://www.assero.co.uk/BusinessDomain#VariableType
          :id: ''
          :namespace: ''
          :label: Numeric
          :extension_properties: []
      - :type: http://www.assero.co.uk/BusinessDomain#IgVariable
        :id: ''
        :namespace: ''
        :label: Date 1st Exposure Period xx Imput. Flag
        :extension_properties: []
        :ordinal: 59
        :rule: ''
        :name: TRxxSDTF
        :notes: The level of imputation of date of first exposure to treatment in
          period xx. If TRxxSDT (or the date part of TRxxSDTM) was imputed, TRxxSDTF
          must be populated and is required. See Section 3.1.3.
        :ct: DATEFL
        :ct_notes: ''
        :compliance:
          :type: http://www.assero.co.uk/BusinessDomain#VariableCompliance
          :id: ''
          :namespace: ''
          :label: Conditional
          :extension_properties: []
        :datatype:
          :type: http://www.assero.co.uk/BusinessDomain#VariableType
          :id: ''
          :namespace: ''
          :label: Character
          :extension_properties: []
      - :type: http://www.assero.co.uk/BusinessDomain#IgVariable
        :id: ''
        :namespace: ''
        :label: Time 1st Exposure Period xx Imput. Flag
        :extension_properties: []
        :ordinal: 60
        :rule: ''
        :name: TRxxSTMF
        :notes: The level of imputation of time of first exposure to treatment in
          period xx. If TRxxSTM (or the time part of TRxxSDTM) was imputed, TRxxSTMF
          must be populated and is required. See Section 3.1.3.
        :ct: TIMEFL
        :ct_notes: ''
        :compliance:
          :type: http://www.assero.co.uk/BusinessDomain#VariableCompliance
          :id: ''
          :namespace: ''
          :label: Conditional
          :extension_properties: []
        :datatype:
          :type: http://www.assero.co.uk/BusinessDomain#VariableType
          :id: ''
          :namespace: ''
          :label: Character
          :extension_properties: []
      - :type: http://www.assero.co.uk/BusinessDomain#IgVariable
        :id: ''
        :namespace: ''
        :label: Date of Last Exposure in Period xx
        :extension_properties: []
        :ordinal: 61
        :rule: ''
        :name: TRxxEDT
        :notes: Date of last exposure to treatment in period xx. TRxxEDT and/or TRxxEDTM
          are only required in trial designs where multiple treatments are given to
          the same subject, such as a crossover design, but are permissible for other
          trial designs.
        :ct: ''
        :ct_notes: ''
        :compliance:
          :type: http://www.assero.co.uk/BusinessDomain#VariableCompliance
          :id: ''
          :namespace: ''
          :label: Conditional
          :extension_properties: []
        :datatype:
          :type: http://www.assero.co.uk/BusinessDomain#VariableType
          :id: ''
          :namespace: ''
          :label: Numeric
          :extension_properties: []
      - :type: http://www.assero.co.uk/BusinessDomain#IgVariable
        :id: ''
        :namespace: ''
        :label: Time of Last Exposure in Period xx
        :extension_properties: []
        :ordinal: 62
        :rule: ''
        :name: TRxxETM
        :notes: The ending time of exposure to treatment in period xx. TRxxETM and/or
          TRxxEDTM are only required in trial designs where multiple treatments are
          given to the same subject, such as a crossover design, and ending time is
          important to the analysis, but are permissible for other trial designs.
        :ct: ''
        :ct_notes: ''
        :compliance:
          :type: http://www.assero.co.uk/BusinessDomain#VariableCompliance
          :id: ''
          :namespace: ''
          :label: Conditional
          :extension_properties: []
        :datatype:
          :type: http://www.assero.co.uk/BusinessDomain#VariableType
          :id: ''
          :namespace: ''
          :label: Numeric
          :extension_properties: []
      - :type: http://www.assero.co.uk/BusinessDomain#IgVariable
        :id: ''
        :namespace: ''
        :label: Datetime of Last Exposure in Period xx
        :extension_properties: []
        :ordinal: 63
        :rule: ''
        :name: TRxxEDTM
        :notes: The datetime of last exposure to treatment in period xx. TRxxEDT and/or
          TRxxEDTM are only required in trial designs where multiple treatments are
          given to the same subject, such as a crossover design, but are permissible
          for other trial designs.
        :ct: ''
        :ct_notes: ''
        :compliance:
          :type: http://www.assero.co.uk/BusinessDomain#VariableCompliance
          :id: ''
          :namespace: ''
          :label: Conditional
          :extension_properties: []
        :datatype:
          :type: http://www.assero.co.uk/BusinessDomain#VariableType
          :id: ''
          :namespace: ''
          :label: Numeric
          :extension_properties: []
      - :type: http://www.assero.co.uk/BusinessDomain#IgVariable
        :id: ''
        :namespace: ''
        :label: Date Last Exposure Period xx Imput. Flag
        :extension_properties: []
        :ordinal: 64
        :rule: ''
        :name: TRxxEDTF
        :notes: The level of imputation of date of last exposure to treatment in period
          xx. If TRxxEDT (or the date part of TRxxEDTM) was imputed, TRxxEDTF must
          be populated and is required. See Section 3.1.3.
        :ct: DATEFL
        :ct_notes: ''
        :compliance:
          :type: http://www.assero.co.uk/BusinessDomain#VariableCompliance
          :id: ''
          :namespace: ''
          :label: Conditional
          :extension_properties: []
        :datatype:
          :type: http://www.assero.co.uk/BusinessDomain#VariableType
          :id: ''
          :namespace: ''
          :label: Character
          :extension_properties: []
      - :type: http://www.assero.co.uk/BusinessDomain#IgVariable
        :id: ''
        :namespace: ''
        :label: Time Last Exposure Period xx Imput. Flag
        :extension_properties: []
        :ordinal: 65
        :rule: ''
        :name: TRxxETMF
        :notes: The level of imputation of time of last exposure to treatment in period
          xx. If TRxxETM (or the time part of TRxxEDTM) was imputed, TRxxETMF must
          be populated and is required. See Section 3.1.3.
        :ct: TIMEFL
        :ct_notes: ''
        :compliance:
          :type: http://www.assero.co.uk/BusinessDomain#VariableCompliance
          :id: ''
          :namespace: ''
          :label: Conditional
          :extension_properties: []
        :datatype:
          :type: http://www.assero.co.uk/BusinessDomain#VariableType
          :id: ''
          :namespace: ''
          :label: Character
          :extension_properties: []
      - :type: http://www.assero.co.uk/BusinessDomain#IgVariable
        :id: ''
        :namespace: ''
        :label: Period xx Start Date
        :extension_properties: []
        :ordinal: 66
        :rule: ''
        :name: APxxSDT
        :notes: The starting date of period xx.
        :ct: ''
        :ct_notes: ''
        :compliance:
          :type: http://www.assero.co.uk/BusinessDomain#VariableCompliance
          :id: ''
          :namespace: ''
          :label: Permissible
          :extension_properties: []
        :datatype:
          :type: http://www.assero.co.uk/BusinessDomain#VariableType
          :id: ''
          :namespace: ''
          :label: Numeric
          :extension_properties: []
      - :type: http://www.assero.co.uk/BusinessDomain#IgVariable
        :id: ''
        :namespace: ''
        :label: Period xx Start Time
        :extension_properties: []
        :ordinal: 67
        :rule: ''
        :name: APxxSTM
        :notes: The starting time of period xx.
        :ct: ''
        :ct_notes: ''
        :compliance:
          :type: http://www.assero.co.uk/BusinessDomain#VariableCompliance
          :id: ''
          :namespace: ''
          :label: Permissible
          :extension_properties: []
        :datatype:
          :type: http://www.assero.co.uk/BusinessDomain#VariableType
          :id: ''
          :namespace: ''
          :label: Numeric
          :extension_properties: []
      - :type: http://www.assero.co.uk/BusinessDomain#IgVariable
        :id: ''
        :namespace: ''
        :label: Period xx Start Datetime
        :extension_properties: []
        :ordinal: 68
        :rule: ''
        :name: APxxSDTM
        :notes: The starting datetime of period xx.
        :ct: ''
        :ct_notes: ''
        :compliance:
          :type: http://www.assero.co.uk/BusinessDomain#VariableCompliance
          :id: ''
          :namespace: ''
          :label: Permissible
          :extension_properties: []
        :datatype:
          :type: http://www.assero.co.uk/BusinessDomain#VariableType
          :id: ''
          :namespace: ''
          :label: Numeric
          :extension_properties: []
      - :type: http://www.assero.co.uk/BusinessDomain#IgVariable
        :id: ''
        :namespace: ''
        :label: Period xx Start Date Imput. Flag
        :extension_properties: []
        :ordinal: 69
        :rule: ''
        :name: APxxSDTF
        :notes: The level of imputation of period xx start date. See Section 3.1.3.
        :ct: DATEFL
        :ct_notes: ''
        :compliance:
          :type: http://www.assero.co.uk/BusinessDomain#VariableCompliance
          :id: ''
          :namespace: ''
          :label: Conditional
          :extension_properties: []
        :datatype:
          :type: http://www.assero.co.uk/BusinessDomain#VariableType
          :id: ''
          :namespace: ''
          :label: Character
          :extension_properties: []
      - :type: http://www.assero.co.uk/BusinessDomain#IgVariable
        :id: ''
        :namespace: ''
        :label: Period xx Start Time Imput. Flag
        :extension_properties: []
        :ordinal: 70
        :rule: ''
        :name: APxxSTMF
        :notes: The level of imputation of period xx start time. See Section 3.1.3.
        :ct: TIMEFL
        :ct_notes: ''
        :compliance:
          :type: http://www.assero.co.uk/BusinessDomain#VariableCompliance
          :id: ''
          :namespace: ''
          :label: Conditional
          :extension_properties: []
        :datatype:
          :type: http://www.assero.co.uk/BusinessDomain#VariableType
          :id: ''
          :namespace: ''
          :label: Character
          :extension_properties: []
      - :type: http://www.assero.co.uk/BusinessDomain#IgVariable
        :id: ''
        :namespace: ''
        :label: Period xx End Date
        :extension_properties: []
        :ordinal: 71
        :rule: ''
        :name: APxxEDT
        :notes: The ending date of period xx.
        :ct: ''
        :ct_notes: ''
        :compliance:
          :type: http://www.assero.co.uk/BusinessDomain#VariableCompliance
          :id: ''
          :namespace: ''
          :label: Permissible
          :extension_properties: []
        :datatype:
          :type: http://www.assero.co.uk/BusinessDomain#VariableType
          :id: ''
          :namespace: ''
          :label: Numeric
          :extension_properties: []
      - :type: http://www.assero.co.uk/BusinessDomain#IgVariable
        :id: ''
        :namespace: ''
        :label: Period xx End Time
        :extension_properties: []
        :ordinal: 72
        :rule: ''
        :name: APxxETM
        :notes: The ending time of period xx.
        :ct: ''
        :ct_notes: ''
        :compliance:
          :type: http://www.assero.co.uk/BusinessDomain#VariableCompliance
          :id: ''
          :namespace: ''
          :label: Permissible
          :extension_properties: []
        :datatype:
          :type: http://www.assero.co.uk/BusinessDomain#VariableType
          :id: ''
          :namespace: ''
          :label: Numeric
          :extension_properties: []
      - :type: http://www.assero.co.uk/BusinessDomain#IgVariable
        :id: ''
        :namespace: ''
        :label: Period xx End Datetime
        :extension_properties: []
        :ordinal: 73
        :rule: ''
        :name: APxxEDTM
        :notes: The ending datetime of period xx.
        :ct: ''
        :ct_notes: ''
        :compliance:
          :type: http://www.assero.co.uk/BusinessDomain#VariableCompliance
          :id: ''
          :namespace: ''
          :label: Permissible
          :extension_properties: []
        :datatype:
          :type: http://www.assero.co.uk/BusinessDomain#VariableType
          :id: ''
          :namespace: ''
          :label: Numeric
          :extension_properties: []
      - :type: http://www.assero.co.uk/BusinessDomain#IgVariable
        :id: ''
        :namespace: ''
        :label: Period xx End Date Imput. Flag
        :extension_properties: []
        :ordinal: 74
        :rule: ''
        :name: APxxEDTF
        :notes: The level of imputation of period xx end date. See Section 3.1.3.
        :ct: DATEFL
        :ct_notes: ''
        :compliance:
          :type: http://www.assero.co.uk/BusinessDomain#VariableCompliance
          :id: ''
          :namespace: ''
          :label: Conditional
          :extension_properties: []
        :datatype:
          :type: http://www.assero.co.uk/BusinessDomain#VariableType
          :id: ''
          :namespace: ''
          :label: Character
          :extension_properties: []
      - :type: http://www.assero.co.uk/BusinessDomain#IgVariable
        :id: ''
        :namespace: ''
        :label: Period xx End Time Imput. Flag
        :extension_properties: []
        :ordinal: 75
        :rule: ''
        :name: APxxETMF
        :notes: The level of imputation of period xx end time. See Section 3.1.3.
        :ct: TIMEFL
        :ct_notes: ''
        :compliance:
          :type: http://www.assero.co.uk/BusinessDomain#VariableCompliance
          :id: ''
          :namespace: ''
          :label: Conditional
          :extension_properties: []
        :datatype:
          :type: http://www.assero.co.uk/BusinessDomain#VariableType
          :id: ''
          :namespace: ''
          :label: Character
          :extension_properties: []
      - :type: http://www.assero.co.uk/BusinessDomain#IgVariable
        :id: ''
        :namespace: ''
        :label: Description of  Period xx Subperiod w
        :extension_properties: []
        :ordinal: 76
        :rule: ''
        :name: PxxSw
        :notes: Description of analysis subperiod w within period xx.
        :ct: ''
        :ct_notes: ''
        :compliance:
          :type: http://www.assero.co.uk/BusinessDomain#VariableCompliance
          :id: ''
          :namespace: ''
          :label: Permissible
          :extension_properties: []
        :datatype:
          :type: http://www.assero.co.uk/BusinessDomain#VariableType
          :id: ''
          :namespace: ''
          :label: Character
          :extension_properties: []
      - :type: http://www.assero.co.uk/BusinessDomain#IgVariable
        :id: ''
        :namespace: ''
        :label: Period xx Subperiod w Start Date
        :extension_properties: []
        :ordinal: 77
        :rule: ''
        :name: PxxSwSDT
        :notes: The starting date of subperiod w within period xx.
        :ct: ''
        :ct_notes: ''
        :compliance:
          :type: http://www.assero.co.uk/BusinessDomain#VariableCompliance
          :id: ''
          :namespace: ''
          :label: Permissible
          :extension_properties: []
        :datatype:
          :type: http://www.assero.co.uk/BusinessDomain#VariableType
          :id: ''
          :namespace: ''
          :label: Numeric
          :extension_properties: []
      - :type: http://www.assero.co.uk/BusinessDomain#IgVariable
        :id: ''
        :namespace: ''
        :label: Period xx Subperiod w Start Time
        :extension_properties: []
        :ordinal: 78
        :rule: ''
        :name: PxxSwSTM
        :notes: The starting time of subperiod w within period xx.
        :ct: ''
        :ct_notes: ''
        :compliance:
          :type: http://www.assero.co.uk/BusinessDomain#VariableCompliance
          :id: ''
          :namespace: ''
          :label: Permissible
          :extension_properties: []
        :datatype:
          :type: http://www.assero.co.uk/BusinessDomain#VariableType
          :id: ''
          :namespace: ''
          :label: Numeric
          :extension_properties: []
      - :type: http://www.assero.co.uk/BusinessDomain#IgVariable
        :id: ''
        :namespace: ''
        :label: Period xx Subperiod w Start Datetime
        :extension_properties: []
        :ordinal: 79
        :rule: ''
        :name: PxxSwSDM
        :notes: The starting datetime of subperiod w within period xx.
        :ct: ''
        :ct_notes: ''
        :compliance:
          :type: http://www.assero.co.uk/BusinessDomain#VariableCompliance
          :id: ''
          :namespace: ''
          :label: Permissible
          :extension_properties: []
        :datatype:
          :type: http://www.assero.co.uk/BusinessDomain#VariableType
          :id: ''
          :namespace: ''
          :label: Numeric
          :extension_properties: []
      - :type: http://www.assero.co.uk/BusinessDomain#IgVariable
        :id: ''
        :namespace: ''
        :label: Period xx Subper w Start Date Imput Flag
        :extension_properties: []
        :ordinal: 80
        :rule: ''
        :name: PxxSwSDF
        :notes: The level of imputation of the start date for subperiod w within period
          xx. See Section 3.1.3.
        :ct: DATEFL
        :ct_notes: ''
        :compliance:
          :type: http://www.assero.co.uk/BusinessDomain#VariableCompliance
          :id: ''
          :namespace: ''
          :label: Conditional
          :extension_properties: []
        :datatype:
          :type: http://www.assero.co.uk/BusinessDomain#VariableType
          :id: ''
          :namespace: ''
          :label: Character
          :extension_properties: []
      - :type: http://www.assero.co.uk/BusinessDomain#IgVariable
        :id: ''
        :namespace: ''
        :label: Period xx Subper w Start Time Imput Flag
        :extension_properties: []
        :ordinal: 81
        :rule: ''
        :name: PxxSwSTF
        :notes: The level of imputation of the start time for subperiod w within period
          xx. See Section 3.1.3.
        :ct: TIMEFL
        :ct_notes: ''
        :compliance:
          :type: http://www.assero.co.uk/BusinessDomain#VariableCompliance
          :id: ''
          :namespace: ''
          :label: Conditional
          :extension_properties: []
        :datatype:
          :type: http://www.assero.co.uk/BusinessDomain#VariableType
          :id: ''
          :namespace: ''
          :label: Character
          :extension_properties: []
      - :type: http://www.assero.co.uk/BusinessDomain#IgVariable
        :id: ''
        :namespace: ''
        :label: Period xx Subperiod w End Date
        :extension_properties: []
        :ordinal: 82
        :rule: ''
        :name: PxxSwEDT
        :notes: The ending date of subperiod w within period xx.
        :ct: ''
        :ct_notes: ''
        :compliance:
          :type: http://www.assero.co.uk/BusinessDomain#VariableCompliance
          :id: ''
          :namespace: ''
          :label: Permissible
          :extension_properties: []
        :datatype:
          :type: http://www.assero.co.uk/BusinessDomain#VariableType
          :id: ''
          :namespace: ''
          :label: Numeric
          :extension_properties: []
      - :type: http://www.assero.co.uk/BusinessDomain#IgVariable
        :id: ''
        :namespace: ''
        :label: Period xx Subperiod w End Time
        :extension_properties: []
        :ordinal: 83
        :rule: ''
        :name: PxxSwETM
        :notes: The ending time of subperiod w within period xx.
        :ct: ''
        :ct_notes: ''
        :compliance:
          :type: http://www.assero.co.uk/BusinessDomain#VariableCompliance
          :id: ''
          :namespace: ''
          :label: Permissible
          :extension_properties: []
        :datatype:
          :type: http://www.assero.co.uk/BusinessDomain#VariableType
          :id: ''
          :namespace: ''
          :label: Numeric
          :extension_properties: []
      - :type: http://www.assero.co.uk/BusinessDomain#IgVariable
        :id: ''
        :namespace: ''
        :label: Period xx Subperiod w End Datetime
        :extension_properties: []
        :ordinal: 84
        :rule: ''
        :name: PxxSwEDM
        :notes: The ending datetime of subperiod w within period xx.
        :ct: ''
        :ct_notes: ''
        :compliance:
          :type: http://www.assero.co.uk/BusinessDomain#VariableCompliance
          :id: ''
          :namespace: ''
          :label: Permissible
          :extension_properties: []
        :datatype:
          :type: http://www.assero.co.uk/BusinessDomain#VariableType
          :id: ''
          :namespace: ''
          :label: Numeric
          :extension_properties: []
      - :type: http://www.assero.co.uk/BusinessDomain#IgVariable
        :id: ''
        :namespace: ''
        :label: Period xx Subper w End Date Imput Flag
        :extension_properties: []
        :ordinal: 85
        :rule: ''
        :name: PxxSwEDF
        :notes: The level of imputation of the end date for subperiod w within period
          xx. See Section 3.1.3.
        :ct: DATEFL
        :ct_notes: ''
        :compliance:
          :type: http://www.assero.co.uk/BusinessDomain#VariableCompliance
          :id: ''
          :namespace: ''
          :label: Conditional
          :extension_properties: []
        :datatype:
          :type: http://www.assero.co.uk/BusinessDomain#VariableType
          :id: ''
          :namespace: ''
          :label: Character
          :extension_properties: []
      - :type: http://www.assero.co.uk/BusinessDomain#IgVariable
        :id: ''
        :namespace: ''
        :label: Period xx Subper w End Time Imput Flag
        :extension_properties: []
        :ordinal: 86
        :rule: ''
        :name: PxxSwETF
        :notes: The level of imputation of the end time for subperiod w within period
          xx. See Section 3.1.3.
        :ct: TIMEFL
        :ct_notes: ''
        :compliance:
          :type: http://www.assero.co.uk/BusinessDomain#VariableCompliance
          :id: ''
          :namespace: ''
          :label: Conditional
          :extension_properties: []
        :datatype:
          :type: http://www.assero.co.uk/BusinessDomain#VariableType
          :id: ''
          :namespace: ''
          :label: Character
          :extension_properties: []
      - :type: http://www.assero.co.uk/BusinessDomain#IgVariable
        :id: ''
        :namespace: ''
        :label: Description of Phase w
        :extension_properties: []
        :ordinal: 87
        :rule: ''
        :name: APHASEw
        :notes: Description of analysis phase w.
        :ct: ''
        :ct_notes: ''
        :compliance:
          :type: http://www.assero.co.uk/BusinessDomain#VariableCompliance
          :id: ''
          :namespace: ''
          :label: Permissible
          :extension_properties: []
        :datatype:
          :type: http://www.assero.co.uk/BusinessDomain#VariableType
          :id: ''
          :namespace: ''
          :label: Character
          :extension_properties: []
      - :type: http://www.assero.co.uk/BusinessDomain#IgVariable
        :id: ''
        :namespace: ''
        :label: Phase w Start Date
        :extension_properties: []
        :ordinal: 88
        :rule: ''
        :name: PHwSDT
        :notes: The starting date of phase w.
        :ct: ''
        :ct_notes: ''
        :compliance:
          :type: http://www.assero.co.uk/BusinessDomain#VariableCompliance
          :id: ''
          :namespace: ''
          :label: Permissible
          :extension_properties: []
        :datatype:
          :type: http://www.assero.co.uk/BusinessDomain#VariableType
          :id: ''
          :namespace: ''
          :label: Numeric
          :extension_properties: []
      - :type: http://www.assero.co.uk/BusinessDomain#IgVariable
        :id: ''
        :namespace: ''
        :label: Phase w Start Time
        :extension_properties: []
        :ordinal: 89
        :rule: ''
        :name: PHwSTM
        :notes: The starting time of phase w.
        :ct: ''
        :ct_notes: ''
        :compliance:
          :type: http://www.assero.co.uk/BusinessDomain#VariableCompliance
          :id: ''
          :namespace: ''
          :label: Permissible
          :extension_properties: []
        :datatype:
          :type: http://www.assero.co.uk/BusinessDomain#VariableType
          :id: ''
          :namespace: ''
          :label: Numeric
          :extension_properties: []
      - :type: http://www.assero.co.uk/BusinessDomain#IgVariable
        :id: ''
        :namespace: ''
        :label: Phase w Start Datetime
        :extension_properties: []
        :ordinal: 90
        :rule: ''
        :name: PHwSDTM
        :notes: The starting datetime of phase w.
        :ct: ''
        :ct_notes: ''
        :compliance:
          :type: http://www.assero.co.uk/BusinessDomain#VariableCompliance
          :id: ''
          :namespace: ''
          :label: Permissible
          :extension_properties: []
        :datatype:
          :type: http://www.assero.co.uk/BusinessDomain#VariableType
          :id: ''
          :namespace: ''
          :label: Numeric
          :extension_properties: []
      - :type: http://www.assero.co.uk/BusinessDomain#IgVariable
        :id: ''
        :namespace: ''
        :label: Phase w Start Date Imputation Flag
        :extension_properties: []
        :ordinal: 91
        :rule: ''
        :name: PHwSDTF
        :notes: The level of imputation of the start date for phase w. See Section
          3.1.3.
        :ct: DATEFL
        :ct_notes: ''
        :compliance:
          :type: http://www.assero.co.uk/BusinessDomain#VariableCompliance
          :id: ''
          :namespace: ''
          :label: Conditional
          :extension_properties: []
        :datatype:
          :type: http://www.assero.co.uk/BusinessDomain#VariableType
          :id: ''
          :namespace: ''
          :label: Character
          :extension_properties: []
      - :type: http://www.assero.co.uk/BusinessDomain#IgVariable
        :id: ''
        :namespace: ''
        :label: Phase w Start Time Imputation Flag
        :extension_properties: []
        :ordinal: 92
        :rule: ''
        :name: PHwSTMF
        :notes: The level of imputation of the start time for phase w. See Section
          3.1.3.
        :ct: TIMEFL
        :ct_notes: ''
        :compliance:
          :type: http://www.assero.co.uk/BusinessDomain#VariableCompliance
          :id: ''
          :namespace: ''
          :label: Conditional
          :extension_properties: []
        :datatype:
          :type: http://www.assero.co.uk/BusinessDomain#VariableType
          :id: ''
          :namespace: ''
          :label: Character
          :extension_properties: []
      - :type: http://www.assero.co.uk/BusinessDomain#IgVariable
        :id: ''
        :namespace: ''
        :label: Phase w End Date
        :extension_properties: []
        :ordinal: 93
        :rule: ''
        :name: PHwEDT
        :notes: The ending date of phase w.
        :ct: ''
        :ct_notes: ''
        :compliance:
          :type: http://www.assero.co.uk/BusinessDomain#VariableCompliance
          :id: ''
          :namespace: ''
          :label: Permissible
          :extension_properties: []
        :datatype:
          :type: http://www.assero.co.uk/BusinessDomain#VariableType
          :id: ''
          :namespace: ''
          :label: Numeric
          :extension_properties: []
      - :type: http://www.assero.co.uk/BusinessDomain#IgVariable
        :id: ''
        :namespace: ''
        :label: Phase w End Time
        :extension_properties: []
        :ordinal: 94
        :rule: ''
        :name: PHwETM
        :notes: The ending time of phase w.
        :ct: ''
        :ct_notes: ''
        :compliance:
          :type: http://www.assero.co.uk/BusinessDomain#VariableCompliance
          :id: ''
          :namespace: ''
          :label: Permissible
          :extension_properties: []
        :datatype:
          :type: http://www.assero.co.uk/BusinessDomain#VariableType
          :id: ''
          :namespace: ''
          :label: Numeric
          :extension_properties: []
      - :type: http://www.assero.co.uk/BusinessDomain#IgVariable
        :id: ''
        :namespace: ''
        :label: Phase w End Datetime
        :extension_properties: []
        :ordinal: 95
        :rule: ''
        :name: PHwEDTM
        :notes: The ending datetime of phase w.
        :ct: ''
        :ct_notes: ''
        :compliance:
          :type: http://www.assero.co.uk/BusinessDomain#VariableCompliance
          :id: ''
          :namespace: ''
          :label: Permissible
          :extension_properties: []
        :datatype:
          :type: http://www.assero.co.uk/BusinessDomain#VariableType
          :id: ''
          :namespace: ''
          :label: Numeric
          :extension_properties: []
      - :type: http://www.assero.co.uk/BusinessDomain#IgVariable
        :id: ''
        :namespace: ''
        :label: Phase w End Date Imputation Flag
        :extension_properties: []
        :ordinal: 96
        :rule: ''
        :name: PHwEDTF
        :notes: The level of imputation of the end date for phase w. See Section 3.1.3.
        :ct: DATEFL
        :ct_notes: ''
        :compliance:
          :type: http://www.assero.co.uk/BusinessDomain#VariableCompliance
          :id: ''
          :namespace: ''
          :label: Conditional
          :extension_properties: []
        :datatype:
          :type: http://www.assero.co.uk/BusinessDomain#VariableType
          :id: ''
          :namespace: ''
          :label: Character
          :extension_properties: []
      - :type: http://www.assero.co.uk/BusinessDomain#IgVariable
        :id: ''
        :namespace: ''
        :label: Phase w End Time Imputation Flag
        :extension_properties: []
        :ordinal: 97
        :rule: ''
        :name: PHwETMF
        :notes: The level of imputation of the end time for phase w. See Section 3.1.3.
        :ct: TIMEFL
        :ct_notes: ''
        :compliance:
          :type: http://www.assero.co.uk/BusinessDomain#VariableCompliance
          :id: ''
          :namespace: ''
          :label: Conditional
          :extension_properties: []
        :datatype:
          :type: http://www.assero.co.uk/BusinessDomain#VariableType
          :id: ''
          :namespace: ''
          :label: Character
          :extension_properties: []
      - :type: http://www.assero.co.uk/BusinessDomain#IgVariable
        :id: ''
        :namespace: ''
        :label: End of Study Status
        :extension_properties: []
        :ordinal: 98
        :rule: ''
        :name: EOSSTT
        :notes: 'The subject’s status as of the end of study or data cutoff. Examples:
          COMPLETED, DISCONTINUED, ONGOING.'
        :ct: ''
        :ct_notes: ''
        :compliance:
          :type: http://www.assero.co.uk/BusinessDomain#VariableCompliance
          :id: ''
          :namespace: ''
          :label: Permissible
          :extension_properties: []
        :datatype:
          :type: http://www.assero.co.uk/BusinessDomain#VariableType
          :id: ''
          :namespace: ''
          :label: Character
          :extension_properties: []
      - :type: http://www.assero.co.uk/BusinessDomain#IgVariable
        :id: ''
        :namespace: ''
        :label: End of Study Date
        :extension_properties: []
        :ordinal: 99
        :rule: ''
        :name: EOSDT
        :notes: Date subject ended the study – either date of completion or date of
          discontinuation or data cutoff date for interim analyses.
        :ct: ''
        :ct_notes: ''
        :compliance:
          :type: http://www.assero.co.uk/BusinessDomain#VariableCompliance
          :id: ''
          :namespace: ''
          :label: Permissible
          :extension_properties: []
        :datatype:
          :type: http://www.assero.co.uk/BusinessDomain#VariableType
          :id: ''
          :namespace: ''
          :label: Numeric
          :extension_properties: []
      - :type: http://www.assero.co.uk/BusinessDomain#IgVariable
        :id: ''
        :namespace: ''
        :label: Reason for Discontinuation from Study
        :extension_properties: []
        :ordinal: 100
        :rule: ''
        :name: DCSREAS
        :notes: Reason for subject’s discontinuation from study. The source would
          most likely be the SDTM DS dataset. Null for subjects who completed the
          study.
        :ct: ''
        :ct_notes: ''
        :compliance:
          :type: http://www.assero.co.uk/BusinessDomain#VariableCompliance
          :id: ''
          :namespace: ''
          :label: Permissible
          :extension_properties: []
        :datatype:
          :type: http://www.assero.co.uk/BusinessDomain#VariableType
          :id: ''
          :namespace: ''
          :label: Character
          :extension_properties: []
      - :type: http://www.assero.co.uk/BusinessDomain#IgVariable
        :id: ''
        :namespace: ''
        :label: Reason Spec for Discont from Study
        :extension_properties: []
        :ordinal: 101
        :rule: ''
        :name: DCSREASP
        :notes: Additional detail regarding subject’s discontinuation from study (e.g.,
          description of “other”).
        :ct: ''
        :ct_notes: ''
        :compliance:
          :type: http://www.assero.co.uk/BusinessDomain#VariableCompliance
          :id: ''
          :namespace: ''
          :label: Permissible
          :extension_properties: []
        :datatype:
          :type: http://www.assero.co.uk/BusinessDomain#VariableType
          :id: ''
          :namespace: ''
          :label: Character
          :extension_properties: []
      - :type: http://www.assero.co.uk/BusinessDomain#IgVariable
        :id: ''
        :namespace: ''
        :label: End of Treatment Status
        :extension_properties: []
        :ordinal: 102
        :rule: ''
        :name: EOTSTT
        :notes: 'The subject’s status as of the end of treatment or data cutoff. Examples:
          COMPLETED, DISCONTINUED, ONGOING.'
        :ct: ''
        :ct_notes: ''
        :compliance:
          :type: http://www.assero.co.uk/BusinessDomain#VariableCompliance
          :id: ''
          :namespace: ''
          :label: Permissible
          :extension_properties: []
        :datatype:
          :type: http://www.assero.co.uk/BusinessDomain#VariableType
          :id: ''
          :namespace: ''
          :label: Character
          :extension_properties: []
      - :type: http://www.assero.co.uk/BusinessDomain#IgVariable
        :id: ''
        :namespace: ''
        :label: Reason for Discontinuation of Treatment
        :extension_properties: []
        :ordinal: 103
        :rule: ''
        :name: DCTREAS
        :notes: If a subject discontinued treatment in the study, then this variable
          indicates the reason for discontinuation. This is for discontinuation of
          treatment in the overall study and not to be used for discontinuation reason
          within individual treatment periods.
        :ct: ''
        :ct_notes: ''
        :compliance:
          :type: http://www.assero.co.uk/BusinessDomain#VariableCompliance
          :id: ''
          :namespace: ''
          :label: Permissible
          :extension_properties: []
        :datatype:
          :type: http://www.assero.co.uk/BusinessDomain#VariableType
          :id: ''
          :namespace: ''
          :label: Character
          :extension_properties: []
      - :type: http://www.assero.co.uk/BusinessDomain#IgVariable
        :id: ''
        :namespace: ''
        :label: Reason Specify for Discont of Treatment
        :extension_properties: []
        :ordinal: 104
        :rule: ''
        :name: DCTREASP
        :notes: Additional detail regarding subject’s discontinuation from treatment
          (e.g., description of “other”).
        :ct: ''
        :ct_notes: ''
        :compliance:
          :type: http://www.assero.co.uk/BusinessDomain#VariableCompliance
          :id: ''
          :namespace: ''
          :label: Permissible
          :extension_properties: []
        :datatype:
          :type: http://www.assero.co.uk/BusinessDomain#VariableType
          :id: ''
          :namespace: ''
          :label: Character
          :extension_properties: []
      - :type: http://www.assero.co.uk/BusinessDomain#IgVariable
        :id: ''
        :namespace: ''
        :label: End of Treatment Status in Period xx
        :extension_properties: []
        :ordinal: 105
        :rule: ''
        :name: EOTxxSTT
        :notes: 'The subject’s treatment status as of the end of period xx, or data
          cutoff if within period xx. Examples: COMPLETED, DISCONTINUED, ONGOING.'
        :ct: ''
        :ct_notes: ''
        :compliance:
          :type: http://www.assero.co.uk/BusinessDomain#VariableCompliance
          :id: ''
          :namespace: ''
          :label: Permissible
          :extension_properties: []
        :datatype:
          :type: http://www.assero.co.uk/BusinessDomain#VariableType
          :id: ''
          :namespace: ''
          :label: Character
          :extension_properties: []
      - :type: http://www.assero.co.uk/BusinessDomain#IgVariable
        :id: ''
        :namespace: ''
        :label: Reason for Discont of Treat in Period xx
        :extension_properties: []
        :ordinal: 106
        :rule: ''
        :name: DCTxxRS
        :notes: Reason for discontinuing treatment in period xx.
        :ct: ''
        :ct_notes: ''
        :compliance:
          :type: http://www.assero.co.uk/BusinessDomain#VariableCompliance
          :id: ''
          :namespace: ''
          :label: Permissible
          :extension_properties: []
        :datatype:
          :type: http://www.assero.co.uk/BusinessDomain#VariableType
          :id: ''
          :namespace: ''
          :label: Character
          :extension_properties: []
      - :type: http://www.assero.co.uk/BusinessDomain#IgVariable
        :id: ''
        :namespace: ''
        :label: Reason Spec for Disc of Trt in Period xx
        :extension_properties: []
        :ordinal: 107
        :rule: ''
        :name: DCTxxRSP
        :notes: Additional detail regarding subject’s discontinuation of treatment
          in period xx (e.g., description of “other”).
        :ct: ''
        :ct_notes: ''
        :compliance:
          :type: http://www.assero.co.uk/BusinessDomain#VariableCompliance
          :id: ''
          :namespace: ''
          :label: Permissible
          :extension_properties: []
        :datatype:
          :type: http://www.assero.co.uk/BusinessDomain#VariableType
          :id: ''
          :namespace: ''
          :label: Character
          :extension_properties: []
      - :type: http://www.assero.co.uk/BusinessDomain#IgVariable
        :id: ''
        :namespace: ''
        :label: End of Period xx Status
        :extension_properties: []
        :ordinal: 108
        :rule: ''
        :name: EOPxxSTT
        :notes: 'The subject’s status as of the end of period xx, or data cutoff if
          within period xx. Examples: COMPLETED, DISCONTINUED, ONGOING.'
        :ct: ''
        :ct_notes: ''
        :compliance:
          :type: http://www.assero.co.uk/BusinessDomain#VariableCompliance
          :id: ''
          :namespace: ''
          :label: Permissible
          :extension_properties: []
        :datatype:
          :type: http://www.assero.co.uk/BusinessDomain#VariableType
          :id: ''
          :namespace: ''
          :label: Character
          :extension_properties: []
      - :type: http://www.assero.co.uk/BusinessDomain#IgVariable
        :id: ''
        :namespace: ''
        :label: Reason for Discont from Period xx
        :extension_properties: []
        :ordinal: 109
        :rule: ''
        :name: DCPxxRS
        :notes: Reason for discontinuing analysis period xx.
        :ct: ''
        :ct_notes: ''
        :compliance:
          :type: http://www.assero.co.uk/BusinessDomain#VariableCompliance
          :id: ''
          :namespace: ''
          :label: Permissible
          :extension_properties: []
        :datatype:
          :type: http://www.assero.co.uk/BusinessDomain#VariableType
          :id: ''
          :namespace: ''
          :label: Character
          :extension_properties: []
      - :type: http://www.assero.co.uk/BusinessDomain#IgVariable
        :id: ''
        :namespace: ''
        :label: Reason Spec for Discont from Period xx
        :extension_properties: []
        :ordinal: 110
        :rule: ''
        :name: DCPxxRSP
        :notes: Additional detail regarding subject’s discontinuation from period
          xx (e.g., description of “other”).
        :ct: ''
        :ct_notes: ''
        :compliance:
          :type: http://www.assero.co.uk/BusinessDomain#VariableCompliance
          :id: ''
          :namespace: ''
          :label: Permissible
          :extension_properties: []
        :datatype:
          :type: http://www.assero.co.uk/BusinessDomain#VariableType
          :id: ''
          :namespace: ''
          :label: Character
          :extension_properties: []
      - :type: http://www.assero.co.uk/BusinessDomain#IgVariable
        :id: ''
        :namespace: ''
        :label: Date of Informed Consent
        :extension_properties: []
        :ordinal: 111
        :rule: ''
        :name: RFICDT
        :notes: Date subject gave informed consent. Generally equivalent to DM.RFICDTC.
        :ct: ''
        :ct_notes: ''
        :compliance:
          :type: http://www.assero.co.uk/BusinessDomain#VariableCompliance
          :id: ''
          :namespace: ''
          :label: Permissible
          :extension_properties: []
        :datatype:
          :type: http://www.assero.co.uk/BusinessDomain#VariableType
          :id: ''
          :namespace: ''
          :label: Numeric
          :extension_properties: []
      - :type: http://www.assero.co.uk/BusinessDomain#IgVariable
        :id: ''
        :namespace: ''
        :label: Date of Enrollment
        :extension_properties: []
        :ordinal: 112
        :rule: ''
        :name: ENRLDT
        :notes: Date of subject’s enrollment into trial.
        :ct: ''
        :ct_notes: ''
        :compliance:
          :type: http://www.assero.co.uk/BusinessDomain#VariableCompliance
          :id: ''
          :namespace: ''
          :label: Permissible
          :extension_properties: []
        :datatype:
          :type: http://www.assero.co.uk/BusinessDomain#VariableType
          :id: ''
          :namespace: ''
          :label: Numeric
          :extension_properties: []
      - :type: http://www.assero.co.uk/BusinessDomain#IgVariable
        :id: ''
        :namespace: ''
        :label: Date of Randomization
        :extension_properties: []
        :ordinal: 113
        :rule: ''
        :name: RANDDT
        :notes: Required in randomized trials.
        :ct: ''
        :ct_notes: ''
        :compliance:
          :type: http://www.assero.co.uk/BusinessDomain#VariableCompliance
          :id: ''
          :namespace: ''
          :label: Conditional
          :extension_properties: []
        :datatype:
          :type: http://www.assero.co.uk/BusinessDomain#VariableType
          :id: ''
          :namespace: ''
          :label: Numeric
          :extension_properties: []
      - :type: http://www.assero.co.uk/BusinessDomain#IgVariable
        :id: ''
        :namespace: ''
        :label: Date of Informed Consent y
        :extension_properties: []
        :ordinal: 114
        :rule: ''
        :name: RFICyDT
        :notes: This variable may be used in the case where there are multiple consent
          dates within a study. This date does not need to repeat the date in RFICDT.
          ‘y’ can start with 1 but it is not required to start with 1.
        :ct: ''
        :ct_notes: ''
        :compliance:
          :type: http://www.assero.co.uk/BusinessDomain#VariableCompliance
          :id: ''
          :namespace: ''
          :label: Permissible
          :extension_properties: []
        :datatype:
          :type: http://www.assero.co.uk/BusinessDomain#VariableType
          :id: ''
          :namespace: ''
          :label: Numeric
          :extension_properties: []
      - :type: http://www.assero.co.uk/BusinessDomain#IgVariable
        :id: ''
        :namespace: ''
        :label: Date of Enrollment y
        :extension_properties: []
        :ordinal: 115
        :rule: ''
        :name: ENRLyDT
        :notes: This variable may be used in the case where there are multiple enrollment
          dates within a study. This date does not need to repeat the date in ENRLDT.
          ‘y’ can start with 1 but it is not required to start with 1.
        :ct: ''
        :ct_notes: ''
        :compliance:
          :type: http://www.assero.co.uk/BusinessDomain#VariableCompliance
          :id: ''
          :namespace: ''
          :label: Permissible
          :extension_properties: []
        :datatype:
          :type: http://www.assero.co.uk/BusinessDomain#VariableType
          :id: ''
          :namespace: ''
          :label: Numeric
          :extension_properties: []
      - :type: http://www.assero.co.uk/BusinessDomain#IgVariable
        :id: ''
        :namespace: ''
        :label: Date of Randomization y
        :extension_properties: []
        :ordinal: 116
        :rule: ''
        :name: RANDyDT
        :notes: This variable may be used in the case where there are multiple randomization
          dates within a study. This date does not need to repeat the date in RANDDT.
          ‘y’ can start with 1 but it is not required to start with 1.
        :ct: ''
        :ct_notes: ''
        :compliance:
          :type: http://www.assero.co.uk/BusinessDomain#VariableCompliance
          :id: ''
          :namespace: ''
          :label: Permissible
          :extension_properties: []
        :datatype:
          :type: http://www.assero.co.uk/BusinessDomain#VariableType
          :id: ''
          :namespace: ''
          :label: Numeric
          :extension_properties: []
      - :type: http://www.assero.co.uk/BusinessDomain#IgVariable
        :id: ''
        :namespace: ''
        :label: Date Last Known Alive
        :extension_properties: []
        :ordinal: 117
        :rule: ''
        :name: LSTALVDT
        :notes: If this variable is included in ADSL, the best practice is to populate
          it for everyone. If the derivation for subjects who died differs from the
          derivation for subjects who are not known to have died, the differences
          should be noted in metadata.
        :ct: ''
        :ct_notes: ''
        :compliance:
          :type: http://www.assero.co.uk/BusinessDomain#VariableCompliance
          :id: ''
          :namespace: ''
          :label: Permissible
          :extension_properties: []
        :datatype:
          :type: http://www.assero.co.uk/BusinessDomain#VariableType
          :id: ''
          :namespace: ''
          :label: Numeric
          :extension_properties: []
      - :type: http://www.assero.co.uk/BusinessDomain#IgVariable
        :id: ''
        :namespace: ''
        :label: Treatment Compliance (%)
        :extension_properties: []
        :ordinal: 118
        :rule: ''
        :name: TRCMP
        :notes: Overall percent compliance with treatment in the trial. TRCMP may
          be useful for inclusion in ADSL for reasons such as defining subgroups and/or
          populations.
        :ct: ''
        :ct_notes: ''
        :compliance:
          :type: http://www.assero.co.uk/BusinessDomain#VariableCompliance
          :id: ''
          :namespace: ''
          :label: Permissible
          :extension_properties: []
        :datatype:
          :type: http://www.assero.co.uk/BusinessDomain#VariableType
          :id: ''
          :namespace: ''
          :label: Numeric
          :extension_properties: []
      - :type: http://www.assero.co.uk/BusinessDomain#IgVariable
        :id: ''
        :namespace: ''
        :label: Treatment Compliance (%) Group y
        :extension_properties: []
        :ordinal: 119
        :rule: ''
        :name: TRCMPGy
        :notes: Grouping ‘y’ of TRCMP, treatment compliance percentage.
        :ct: ''
        :ct_notes: ''
        :compliance:
          :type: http://www.assero.co.uk/BusinessDomain#VariableCompliance
          :id: ''
          :namespace: ''
          :label: Permissible
          :extension_properties: []
        :datatype:
          :type: http://www.assero.co.uk/BusinessDomain#VariableType
          :id: ''
          :namespace: ''
          :label: Character
          :extension_properties: []
      - :type: http://www.assero.co.uk/BusinessDomain#IgVariable
        :id: ''
        :namespace: ''
        :label: Treatment Compliance (%) Group y (N)
        :extension_properties: []
        :ordinal: 120
        :rule: ''
        :name: TRCMPGyN
        :notes: Numeric version of treatment compliance (%) grouping ‘y’. Must have
          a one-to-one mapping to TRCMPGy.
        :ct: ''
        :ct_notes: ''
        :compliance:
          :type: http://www.assero.co.uk/BusinessDomain#VariableCompliance
          :id: ''
          :namespace: ''
          :label: Permissible
          :extension_properties: []
        :datatype:
          :type: http://www.assero.co.uk/BusinessDomain#VariableType
          :id: ''
          :namespace: ''
          :label: Numeric
          :extension_properties: []
      - :type: http://www.assero.co.uk/BusinessDomain#IgVariable
        :id: ''
        :namespace: ''
        :label: Treatment Duration in Period xx (Days)
        :extension_properties: []
        :ordinal: 121
        :rule: ''
        :name: TRxxDURD
        :notes: Treatment duration for period xx as measured in days. More than one
          of TRxxDURD, TRxxDURM, and TRxxDURY can be populated, but each represents
          the entire duration in its respective units.
        :ct: ''
        :ct_notes: ''
        :compliance:
          :type: http://www.assero.co.uk/BusinessDomain#VariableCompliance
          :id: ''
          :namespace: ''
          :label: Permissible
          :extension_properties: []
        :datatype:
          :type: http://www.assero.co.uk/BusinessDomain#VariableType
          :id: ''
          :namespace: ''
          :label: Numeric
          :extension_properties: []
      - :type: http://www.assero.co.uk/BusinessDomain#IgVariable
        :id: ''
        :namespace: ''
        :label: Treatment Duration in Period xx (Months)
        :extension_properties: []
        :ordinal: 122
        :rule: ''
        :name: TRxxDURM
        :notes: Treatment duration for period xx, as measure in months. More than
          one of TRxxDURD, TRxxDURM, and TRxxDURY can be populated, but each represents
          the entire duration in its respective units.
        :ct: ''
        :ct_notes: ''
        :compliance:
          :type: http://www.assero.co.uk/BusinessDomain#VariableCompliance
          :id: ''
          :namespace: ''
          :label: Permissible
          :extension_properties: []
        :datatype:
          :type: http://www.assero.co.uk/BusinessDomain#VariableType
          :id: ''
          :namespace: ''
          :label: Numeric
          :extension_properties: []
      - :type: http://www.assero.co.uk/BusinessDomain#IgVariable
        :id: ''
        :namespace: ''
        :label: Treatment Duration in Period xx (Years)
        :extension_properties: []
        :ordinal: 123
        :rule: ''
        :name: TRxxDURY
        :notes: Treatment duration for period xx, as measured in years. More than
          one of TRxxDURD, TRxxDURM, and TRxxDURY can be populated, but each represents
          the entire duration in its respective units.
        :ct: ''
        :ct_notes: ''
        :compliance:
          :type: http://www.assero.co.uk/BusinessDomain#VariableCompliance
          :id: ''
          :namespace: ''
          :label: Permissible
          :extension_properties: []
        :datatype:
          :type: http://www.assero.co.uk/BusinessDomain#VariableType
          :id: ''
          :namespace: ''
          :label: Numeric
          :extension_properties: []
      - :type: http://www.assero.co.uk/BusinessDomain#IgVariable
        :id: ''
        :namespace: ''
        :label: Total Treatment Duration (Days)
        :extension_properties: []
        :ordinal: 124
        :rule: ''
        :name: TRTDURD
        :notes: Total treatment duration, as measured in days. More than one of TRTDURD,
          TRTDURM, and TRTDURY can be populated, but each represents the entire duration
          in its respective units.
        :ct: ''
        :ct_notes: ''
        :compliance:
          :type: http://www.assero.co.uk/BusinessDomain#VariableCompliance
          :id: ''
          :namespace: ''
          :label: Permissible
          :extension_properties: []
        :datatype:
          :type: http://www.assero.co.uk/BusinessDomain#VariableType
          :id: ''
          :namespace: ''
          :label: Numeric
          :extension_properties: []
      - :type: http://www.assero.co.uk/BusinessDomain#IgVariable
        :id: ''
        :namespace: ''
        :label: Total Treatment Duration (Months)
        :extension_properties: []
        :ordinal: 125
        :rule: ''
        :name: TRTDURM
        :notes: Total treatment duration, as measured in months. More than one of
          TRTDURD, TRTDURM, and TRTDURY can be populated, but each represents the
          entire duration in its respective units.
        :ct: ''
        :ct_notes: ''
        :compliance:
          :type: http://www.assero.co.uk/BusinessDomain#VariableCompliance
          :id: ''
          :namespace: ''
          :label: Permissible
          :extension_properties: []
        :datatype:
          :type: http://www.assero.co.uk/BusinessDomain#VariableType
          :id: ''
          :namespace: ''
          :label: Numeric
          :extension_properties: []
      - :type: http://www.assero.co.uk/BusinessDomain#IgVariable
        :id: ''
        :namespace: ''
        :label: Total Treatment Duration (Years)
        :extension_properties: []
        :ordinal: 126
        :rule: ''
        :name: TRTDURY
        :notes: Total treatment duration, as measured in years. More than one of TRTDURD,
          TRTDURM, and TRTDURY can be populated, but each represents the entire duration
          in its respective units.
        :ct: ''
        :ct_notes: ''
        :compliance:
          :type: http://www.assero.co.uk/BusinessDomain#VariableCompliance
          :id: ''
          :namespace: ''
          :label: Permissible
          :extension_properties: []
        :datatype:
          :type: http://www.assero.co.uk/BusinessDomain#VariableType
          :id: ''
          :namespace: ''
          :label: Numeric
          :extension_properties: []
      - :type: http://www.assero.co.uk/BusinessDomain#IgVariable
        :id: ''
        :namespace: ''
        :label: Date of Death
        :extension_properties: []
        :ordinal: 127
        :rule: ''
        :name: DTHDT
        :notes: Date of subject’s death. Derived from DM.DTHDTC.
        :ct: ''
        :ct_notes: ''
        :compliance:
          :type: http://www.assero.co.uk/BusinessDomain#VariableCompliance
          :id: ''
          :namespace: ''
          :label: Permissible
          :extension_properties: []
        :datatype:
          :type: http://www.assero.co.uk/BusinessDomain#VariableType
          :id: ''
          :namespace: ''
          :label: Numeric
          :extension_properties: []
      - :type: http://www.assero.co.uk/BusinessDomain#IgVariable
        :id: ''
        :namespace: ''
        :label: Date of Death Imputation Flag
        :extension_properties: []
        :ordinal: 128
        :rule: ''
        :name: DTHDTF
        :notes: Imputation flag for date of subject’s death. If DTHDT was imputed,
          DTHDTF must be populated and is required. See Section 3.1.3.
        :ct: ''
        :ct_notes: ''
        :compliance:
          :type: http://www.assero.co.uk/BusinessDomain#VariableCompliance
          :id: ''
          :namespace: ''
          :label: Conditional
          :extension_properties: []
        :datatype:
          :type: http://www.assero.co.uk/BusinessDomain#VariableType
          :id: ''
          :namespace: ''
          :label: Character
          :extension_properties: []
      - :type: http://www.assero.co.uk/BusinessDomain#IgVariable
        :id: ''
        :namespace: ''
        :label: Cause of Death
        :extension_properties: []
        :ordinal: 129
        :rule: ''
        :name: DTHCAUS
        :notes: Cause of Death.
        :ct: ''
        :ct_notes: ''
        :compliance:
          :type: http://www.assero.co.uk/BusinessDomain#VariableCompliance
          :id: ''
          :namespace: ''
          :label: Permissible
          :extension_properties: []
        :datatype:
          :type: http://www.assero.co.uk/BusinessDomain#VariableType
          :id: ''
          :namespace: ''
          :label: Character
          :extension_properties: []
      - :type: http://www.assero.co.uk/BusinessDomain#IgVariable
        :id: ''
        :namespace: ''
        :label: Cause of Death (N)
        :extension_properties: []
        :ordinal: 130
        :rule: ''
        :name: DTHCAUSN
        :notes: Numeric representation of cause of death. Must have a one-to-one mapping
          to DTHCAUS.
        :ct: ''
        :ct_notes: ''
        :compliance:
          :type: http://www.assero.co.uk/BusinessDomain#VariableCompliance
          :id: ''
          :namespace: ''
          :label: Permissible
          :extension_properties: []
        :datatype:
          :type: http://www.assero.co.uk/BusinessDomain#VariableType
          :id: ''
          :namespace: ''
          :label: Numeric
          :extension_properties: []
      - :type: http://www.assero.co.uk/BusinessDomain#IgVariable
        :id: ''
        :namespace: ''
        :label: Cause of Death Group y
        :extension_properties: []
        :ordinal: 131
        :rule: ''
        :name: DTHCGRy
        :notes: Grouping ‘y’ of DTHCAUS, the subject’s cause of death.
        :ct: ''
        :ct_notes: ''
        :compliance:
          :type: http://www.assero.co.uk/BusinessDomain#VariableCompliance
          :id: ''
          :namespace: ''
          :label: Permissible
          :extension_properties: []
        :datatype:
          :type: http://www.assero.co.uk/BusinessDomain#VariableType
          :id: ''
          :namespace: ''
          :label: Character
          :extension_properties: []
      - :type: http://www.assero.co.uk/BusinessDomain#IgVariable
        :id: ''
        :namespace: ''
        :label: Cause of Death Group y (N)
        :extension_properties: []
        :ordinal: 132
        :rule: ''
        :name: DTHCGRyN
        :notes: Numeric version of grouping ‘y’ of the subject’s cause of death. Must
          have a one-to-one mapping to DTHCGRy.
        :ct: ''
        :ct_notes: ''
        :compliance:
          :type: http://www.assero.co.uk/BusinessDomain#VariableCompliance
          :id: ''
          :namespace: ''
          :label: Permissible
          :extension_properties: []
        :datatype:
          :type: http://www.assero.co.uk/BusinessDomain#VariableType
          :id: ''
          :namespace: ''
          :label: Numeric
          :extension_properties: []
- :order: 2
  :instance:
    :operation:
      :action: CREATE
      :new_version: 1
      :new_semantic_version: 0.0.0
      :new_state: Standard
      :identifier_edit: true
    :managed_item:
      :type: http://www.assero.co.uk/BusinessDomain#IgDomain
      :id: ''
      :namespace: ''
      :label: Basic Data Structure
      :extension_properties: []
      :origin: ''
      :change_description: ''
      :creation_date: '2018-01-01'
      :last_changed_date: '2018-11-22T10:32:20+00:00'
      :explanatory_comment: ''
      :registration_state:
        :namespace: http://www.assero.co.uk/MDRItems
        :id: ''
        :registration_authority:
          :id: ''
          :number: "<Not Set>"
          :scheme: DUNS
          :owner: false
          :namespace:
            :namespace: ''
            :id: ''
            :name: ''
            :shortName: ''
        :registration_status: Not_Set
        :administrative_note: ''
        :effective_date: '2016-01-01T00:00:00+00:00'
        :until_date: '2016-01-01T00:00:00+00:00'
        :current: false
        :unresolved_issue: ''
        :administrative_status: ''
        :previous_state: Not_Set
      :scoped_identifier:
        :id: ''
        :identifier: ADAMIG BDS
        :version_label: ADaM 2018-01-01
        :version: 0
        :semantic_version: 0.0.0
        :namespace:
          :namespace: ''
          :id: ''
          :name: ''
          :shortName: ''
      :ordinal: 2
      :rule: ''
      :prefix: "--"
      :structure: ''
      :children:
      - :type: http://www.assero.co.uk/BusinessDomain#IgVariable
        :id: ''
        :namespace: ''
        :label: Study Identifier
        :extension_properties: []
        :ordinal: 1
        :rule: ''
        :name: STUDYID
        :notes: DM.STUDYID
        :ct: ''
        :ct_notes: ''
        :compliance:
          :type: http://www.assero.co.uk/BusinessDomain#VariableCompliance
          :id: ''
          :namespace: ''
          :label: Required
          :extension_properties: []
        :datatype:
          :type: http://www.assero.co.uk/BusinessDomain#VariableType
          :id: ''
          :namespace: ''
          :label: Character
          :extension_properties: []
      - :type: http://www.assero.co.uk/BusinessDomain#IgVariable
        :id: ''
        :namespace: ''
        :label: Unique Subject Identifier
        :extension_properties: []
        :ordinal: 2
        :rule: ''
        :name: USUBJID
        :notes: DM.USUBJID
        :ct: ''
        :ct_notes: ''
        :compliance:
          :type: http://www.assero.co.uk/BusinessDomain#VariableCompliance
          :id: ''
          :namespace: ''
          :label: Required
          :extension_properties: []
        :datatype:
          :type: http://www.assero.co.uk/BusinessDomain#VariableType
          :id: ''
          :namespace: ''
          :label: Character
          :extension_properties: []
      - :type: http://www.assero.co.uk/BusinessDomain#IgVariable
        :id: ''
        :namespace: ''
        :label: Subject Identifier for the Study
        :extension_properties: []
        :ordinal: 3
        :rule: ''
        :name: SUBJID
        :notes: DM.SUBJID. SUBJID is required in ADSL, but permissible in other datasets.
        :ct: ''
        :ct_notes: ''
        :compliance:
          :type: http://www.assero.co.uk/BusinessDomain#VariableCompliance
          :id: ''
          :namespace: ''
          :label: Permissible
          :extension_properties: []
        :datatype:
          :type: http://www.assero.co.uk/BusinessDomain#VariableType
          :id: ''
          :namespace: ''
          :label: Character
          :extension_properties: []
      - :type: http://www.assero.co.uk/BusinessDomain#IgVariable
        :id: ''
        :namespace: ''
        :label: Study Site Identifier
        :extension_properties: []
        :ordinal: 4
        :rule: ''
        :name: SITEID
        :notes: DM.SITEID. SITEID is required in ADSL, but permissible in other datasets.
        :ct: ''
        :ct_notes: ''
        :compliance:
          :type: http://www.assero.co.uk/BusinessDomain#VariableCompliance
          :id: ''
          :namespace: ''
          :label: Permissible
          :extension_properties: []
        :datatype:
          :type: http://www.assero.co.uk/BusinessDomain#VariableType
          :id: ''
          :namespace: ''
          :label: Character
          :extension_properties: []
      - :type: http://www.assero.co.uk/BusinessDomain#IgVariable
        :id: ''
        :namespace: ''
        :label: Analysis Sequence Number
        :extension_properties: []
        :ordinal: 5
        :rule: ''
        :name: ASEQ
        :notes: "Sequence number given to ensure uniqueness of subject records within
          an ADaM dataset. As long as values are unique within a subject within the
          dataset, any valid number can be used for ASEQ. ASEQ uniquely indexes records
          within a subject within an ADaM dataset.\n\nASEQ is useful for traceability
          when the dataset is used as input to another ADaM dataset. To refer to a
          record in a predecessor ADaM dataset, set SRCDOM to the name of the predecessor
          dataset, and set SRCSEQ to the value of ASEQ in the predecessor dataset.
          \nnumber can be used for ASEQ. ASEQ uniquely indexes records within a subject
          within an ADaM dataset."
        :ct: ''
        :ct_notes: ''
        :compliance:
          :type: http://www.assero.co.uk/BusinessDomain#VariableCompliance
          :id: ''
          :namespace: ''
          :label: Permissible
          :extension_properties: []
        :datatype:
          :type: http://www.assero.co.uk/BusinessDomain#VariableType
          :id: ''
          :namespace: ''
          :label: Numeric
          :extension_properties: []
      - :type: http://www.assero.co.uk/BusinessDomain#IgVariable
        :id: ''
        :namespace: ''
        :label: Planned Treatment
        :extension_properties: []
        :ordinal: 6
        :rule: ''
        :name: TRTP
        :notes: |-
          TRTP is a record-level identifier that represents the planned treatment attributed to a record for analysis purposes. TRTP indicates how treatment varies by record within a subject and enables analysis of crossover and other designs. Though there is no requirement that TRTP will correspond to the TRTxxP as defined by the record’s value of APERIOD, if populated, TRTP must match at least one value of the character planned treatment variables in ADSL (e.g., TRTxxP, TRTSEQP, TRxxPGy).

          As noted previously, at least one treatment variable is required even in non-randomized trials. This requirement is satisfied by any subject-level or record-level treatment variables (e.g., TRTxxP, TRTP, TRTA). Even if not used for analysis, any ADSL treatment variable may be included in the BDS dataset.
        :ct: ''
        :ct_notes: ''
        :compliance:
          :type: http://www.assero.co.uk/BusinessDomain#VariableCompliance
          :id: ''
          :namespace: ''
          :label: Conditional
          :extension_properties: []
        :datatype:
          :type: http://www.assero.co.uk/BusinessDomain#VariableType
          :id: ''
          :namespace: ''
          :label: Character
          :extension_properties: []
      - :type: http://www.assero.co.uk/BusinessDomain#IgVariable
        :id: ''
        :namespace: ''
        :label: Planned Treatment (N)
        :extension_properties: []
        :ordinal: 7
        :rule: ''
        :name: TRTPN
        :notes: The numeric code for TRTP. One-to-one mapping within a study to TRTP.
        :ct: ''
        :ct_notes: ''
        :compliance:
          :type: http://www.assero.co.uk/BusinessDomain#VariableCompliance
          :id: ''
          :namespace: ''
          :label: Permissible
          :extension_properties: []
        :datatype:
          :type: http://www.assero.co.uk/BusinessDomain#VariableType
          :id: ''
          :namespace: ''
          :label: Numeric
          :extension_properties: []
      - :type: http://www.assero.co.uk/BusinessDomain#IgVariable
        :id: ''
        :namespace: ''
        :label: Actual Treatment
        :extension_properties: []
        :ordinal: 8
        :rule: ''
        :name: TRTA
        :notes: "TRTA is a record-level identifier that represents the actual treatment
          attributed to a record for analysis purposes. TRTA indicates how treatment
          varies by record within a subject and enables analysis of crossover and
          other multi-period designs. Though there is no requirement that TRTA will
          correspond to the TRTxxA as defined by the record’s value of APERIOD, TRTA
          must match at least one value of the character actual treatment variables
          in ADSL (e.g., TRTxxA, TRTSEQA, TRxxAGy). \n\nAs noted previously, at least
          one treatment variable is required. This requirement is satisfied by any
          subject-level or record-level treatment variables (e.g., TRTxxP, TRTP, TRTA).
          Even if not used for analysis, any ADSL treatment variable may be included
          in the BDS dataset."
        :ct: ''
        :ct_notes: ''
        :compliance:
          :type: http://www.assero.co.uk/BusinessDomain#VariableCompliance
          :id: ''
          :namespace: ''
          :label: Conditional
          :extension_properties: []
        :datatype:
          :type: http://www.assero.co.uk/BusinessDomain#VariableType
          :id: ''
          :namespace: ''
          :label: Character
          :extension_properties: []
      - :type: http://www.assero.co.uk/BusinessDomain#IgVariable
        :id: ''
        :namespace: ''
        :label: Actual Treatment (N)
        :extension_properties: []
        :ordinal: 9
        :rule: ''
        :name: TRTAN
        :notes: The numeric code for TRTA. One-to-one mapping within a study to TRTA.
        :ct: ''
        :ct_notes: ''
        :compliance:
          :type: http://www.assero.co.uk/BusinessDomain#VariableCompliance
          :id: ''
          :namespace: ''
          :label: Permissible
          :extension_properties: []
        :datatype:
          :type: http://www.assero.co.uk/BusinessDomain#VariableType
          :id: ''
          :namespace: ''
          :label: Numeric
          :extension_properties: []
      - :type: http://www.assero.co.uk/BusinessDomain#IgVariable
        :id: ''
        :namespace: ''
        :label: Planned Pooled Treatment y
        :extension_properties: []
        :ordinal: 10
        :rule: ''
        :name: TRTPGy
        :notes: TRTPGy is the planned pooled treatment y attributed to a record for
          analysis purposes. “y” represents an integer [1-99, not zero-padded] corresponding
          to a particular pooling scheme. Useful when planned treatments (TRTP) are
          pooled together for analysis, for example when all doses of Drug A (TRTPG1=All
          doses of Drug A) are compared to all doses of Drug B (TRTPG1=All doses of
          Drug B). Each value of TRTP is pooled within at most one value of TRTPGy.
        :ct: ''
        :ct_notes: ''
        :compliance:
          :type: http://www.assero.co.uk/BusinessDomain#VariableCompliance
          :id: ''
          :namespace: ''
          :label: Permissible
          :extension_properties: []
        :datatype:
          :type: http://www.assero.co.uk/BusinessDomain#VariableType
          :id: ''
          :namespace: ''
          :label: Character
          :extension_properties: []
      - :type: http://www.assero.co.uk/BusinessDomain#IgVariable
        :id: ''
        :namespace: ''
        :label: Planned Pooled Treatment y (N)
        :extension_properties: []
        :ordinal: 11
        :rule: ''
        :name: TRTPGyN
        :notes: The numeric code for TRTPGy. One-to-one mapping within a study to
          TRTPGy.
        :ct: ''
        :ct_notes: ''
        :compliance:
          :type: http://www.assero.co.uk/BusinessDomain#VariableCompliance
          :id: ''
          :namespace: ''
          :label: Permissible
          :extension_properties: []
        :datatype:
          :type: http://www.assero.co.uk/BusinessDomain#VariableType
          :id: ''
          :namespace: ''
          :label: Numeric
          :extension_properties: []
      - :type: http://www.assero.co.uk/BusinessDomain#IgVariable
        :id: ''
        :namespace: ''
        :label: Actual Pooled Treatment y
        :extension_properties: []
        :ordinal: 12
        :rule: ''
        :name: TRTAGy
        :notes: TRTAGy is the actual pooled treatment y attributed to a record for
          analysis purposes. “y” represents an integer [1-99, not zero-padded] corresponding
          to a particular pooling scheme. Required when TRTPGy is present and TRTA
          is present.
        :ct: ''
        :ct_notes: ''
        :compliance:
          :type: http://www.assero.co.uk/BusinessDomain#VariableCompliance
          :id: ''
          :namespace: ''
          :label: Conditional
          :extension_properties: []
        :datatype:
          :type: http://www.assero.co.uk/BusinessDomain#VariableType
          :id: ''
          :namespace: ''
          :label: Character
          :extension_properties: []
      - :type: http://www.assero.co.uk/BusinessDomain#IgVariable
        :id: ''
        :namespace: ''
        :label: Actual Pooled Treatment y (N)
        :extension_properties: []
        :ordinal: 13
        :rule: ''
        :name: TRTAGyN
        :notes: The numeric code for TRTAGy. One-to-one mapping within a study to
          TRTAGy.
        :ct: ''
        :ct_notes: ''
        :compliance:
          :type: http://www.assero.co.uk/BusinessDomain#VariableCompliance
          :id: ''
          :namespace: ''
          :label: Permissible
          :extension_properties: []
        :datatype:
          :type: http://www.assero.co.uk/BusinessDomain#VariableType
          :id: ''
          :namespace: ''
          :label: Numeric
          :extension_properties: []
      - :type: http://www.assero.co.uk/BusinessDomain#IgVariable
        :id: ''
        :namespace: ''
        :label: Planned Treatment Dose
        :extension_properties: []
        :ordinal: 14
        :rule: ''
        :name: DOSEP
        :notes: DOSEP represents the planned treatment dosage associated with the
          record.
        :ct: ''
        :ct_notes: ''
        :compliance:
          :type: http://www.assero.co.uk/BusinessDomain#VariableCompliance
          :id: ''
          :namespace: ''
          :label: Permissible
          :extension_properties: []
        :datatype:
          :type: http://www.assero.co.uk/BusinessDomain#VariableType
          :id: ''
          :namespace: ''
          :label: Numeric
          :extension_properties: []
      - :type: http://www.assero.co.uk/BusinessDomain#IgVariable
        :id: ''
        :namespace: ''
        :label: Cumulative Planned Treatment Dose
        :extension_properties: []
        :ordinal: 15
        :rule: ''
        :name: DOSCUMP
        :notes: Cumulative planned dosage of treatment for the subject at the point
          in time of the record (e.g., ADT).
        :ct: ''
        :ct_notes: ''
        :compliance:
          :type: http://www.assero.co.uk/BusinessDomain#VariableCompliance
          :id: ''
          :namespace: ''
          :label: Permissible
          :extension_properties: []
        :datatype:
          :type: http://www.assero.co.uk/BusinessDomain#VariableType
          :id: ''
          :namespace: ''
          :label: Numeric
          :extension_properties: []
      - :type: http://www.assero.co.uk/BusinessDomain#IgVariable
        :id: ''
        :namespace: ''
        :label: Actual Treatment Dose
        :extension_properties: []
        :ordinal: 16
        :rule: ''
        :name: DOSEA
        :notes: DOSEA represents the actual treatment dosage associated with the record.
        :ct: ''
        :ct_notes: ''
        :compliance:
          :type: http://www.assero.co.uk/BusinessDomain#VariableCompliance
          :id: ''
          :namespace: ''
          :label: Permissible
          :extension_properties: []
        :datatype:
          :type: http://www.assero.co.uk/BusinessDomain#VariableType
          :id: ''
          :namespace: ''
          :label: Numeric
          :extension_properties: []
      - :type: http://www.assero.co.uk/BusinessDomain#IgVariable
        :id: ''
        :namespace: ''
        :label: Cumulative Actual Treatment Dose
        :extension_properties: []
        :ordinal: 17
        :rule: ''
        :name: DOSCUMA
        :notes: Cumulative actual dosage of treatment for the subject at the point
          in time of the record (e.g., ADT).
        :ct: ''
        :ct_notes: ''
        :compliance:
          :type: http://www.assero.co.uk/BusinessDomain#VariableCompliance
          :id: ''
          :namespace: ''
          :label: Permissible
          :extension_properties: []
        :datatype:
          :type: http://www.assero.co.uk/BusinessDomain#VariableType
          :id: ''
          :namespace: ''
          :label: Numeric
          :extension_properties: []
      - :type: http://www.assero.co.uk/BusinessDomain#IgVariable
        :id: ''
        :namespace: ''
        :label: Treatment Dose Units
        :extension_properties: []
        :ordinal: 18
        :rule: ''
        :name: DOSEU
        :notes: The units for DOSEP, DOSCUMP, DOSEA, and DOSCUMA. It is permissible
          to use suffixes such as “P” and “A” if needed, with labels modified accordingly.
        :ct: ''
        :ct_notes: ''
        :compliance:
          :type: http://www.assero.co.uk/BusinessDomain#VariableCompliance
          :id: ''
          :namespace: ''
          :label: Permissible
          :extension_properties: []
        :datatype:
          :type: http://www.assero.co.uk/BusinessDomain#VariableType
          :id: ''
          :namespace: ''
          :label: Character
          :extension_properties: []
      - :type: http://www.assero.co.uk/BusinessDomain#IgVariable
        :id: ''
        :namespace: ''
        :label: Analysis Date
        :extension_properties: []
        :ordinal: 19
        :rule: ''
        :name: ADT
        :notes: The date associated with AVAL and/or AVALC in numeric format.
        :ct: ''
        :ct_notes: ''
        :compliance:
          :type: http://www.assero.co.uk/BusinessDomain#VariableCompliance
          :id: ''
          :namespace: ''
          :label: Permissible
          :extension_properties: []
        :datatype:
          :type: http://www.assero.co.uk/BusinessDomain#VariableType
          :id: ''
          :namespace: ''
          :label: Numeric
          :extension_properties: []
      - :type: http://www.assero.co.uk/BusinessDomain#IgVariable
        :id: ''
        :namespace: ''
        :label: Analysis Time
        :extension_properties: []
        :ordinal: 20
        :rule: ''
        :name: ATM
        :notes: The time associated with AVAL and/or AVALC in numeric format.
        :ct: ''
        :ct_notes: ''
        :compliance:
          :type: http://www.assero.co.uk/BusinessDomain#VariableCompliance
          :id: ''
          :namespace: ''
          :label: Permissible
          :extension_properties: []
        :datatype:
          :type: http://www.assero.co.uk/BusinessDomain#VariableType
          :id: ''
          :namespace: ''
          :label: Numeric
          :extension_properties: []
      - :type: http://www.assero.co.uk/BusinessDomain#IgVariable
        :id: ''
        :namespace: ''
        :label: Analysis Datetime
        :extension_properties: []
        :ordinal: 21
        :rule: ''
        :name: ADTM
        :notes: The datetime associated with AVAL and/or AVALC in numeric format.
        :ct: ''
        :ct_notes: ''
        :compliance:
          :type: http://www.assero.co.uk/BusinessDomain#VariableCompliance
          :id: ''
          :namespace: ''
          :label: Permissible
          :extension_properties: []
        :datatype:
          :type: http://www.assero.co.uk/BusinessDomain#VariableType
          :id: ''
          :namespace: ''
          :label: Numeric
          :extension_properties: []
      - :type: http://www.assero.co.uk/BusinessDomain#IgVariable
        :id: ''
        :namespace: ''
        :label: Analysis Relative Day
        :extension_properties: []
        :ordinal: 22
        :rule: ''
        :name: ADY
        :notes: The relative day of AVAL and/or AVALC. The number of days from an
          anchor date (not necessarily DM.RFSTDTC) to ADT. See Section 3.1.2.
        :ct: ''
        :ct_notes: ''
        :compliance:
          :type: http://www.assero.co.uk/BusinessDomain#VariableCompliance
          :id: ''
          :namespace: ''
          :label: Permissible
          :extension_properties: []
        :datatype:
          :type: http://www.assero.co.uk/BusinessDomain#VariableType
          :id: ''
          :namespace: ''
          :label: Numeric
          :extension_properties: []
      - :type: http://www.assero.co.uk/BusinessDomain#IgVariable
        :id: ''
        :namespace: ''
        :label: Analysis Date Imputation Flag
        :extension_properties: []
        :ordinal: 23
        :rule: ''
        :name: ADTF
        :notes: The level of imputation of analysis date. If ADT (or the date part
          of ADTM) was imputed, ADTF must be populated and is required. See Section
          3.1.3.
        :ct: DATEFL
        :ct_notes: ''
        :compliance:
          :type: http://www.assero.co.uk/BusinessDomain#VariableCompliance
          :id: ''
          :namespace: ''
          :label: Conditional
          :extension_properties: []
        :datatype:
          :type: http://www.assero.co.uk/BusinessDomain#VariableType
          :id: ''
          :namespace: ''
          :label: Character
          :extension_properties: []
      - :type: http://www.assero.co.uk/BusinessDomain#IgVariable
        :id: ''
        :namespace: ''
        :label: Analysis Time Imputation Flag
        :extension_properties: []
        :ordinal: 24
        :rule: ''
        :name: ATMF
        :notes: The level of imputation of analysis time. If ATM (or the time part
          of ADTM) was imputed, ATMF must be populated and is required. See Section
          3.1.3.
        :ct: TIMEFL
        :ct_notes: ''
        :compliance:
          :type: http://www.assero.co.uk/BusinessDomain#VariableCompliance
          :id: ''
          :namespace: ''
          :label: Conditional
          :extension_properties: []
        :datatype:
          :type: http://www.assero.co.uk/BusinessDomain#VariableType
          :id: ''
          :namespace: ''
          :label: Character
          :extension_properties: []
      - :type: http://www.assero.co.uk/BusinessDomain#IgVariable
        :id: ''
        :namespace: ''
        :label: Analysis Start Date
        :extension_properties: []
        :ordinal: 25
        :rule: ''
        :name: ASTDT
        :notes: The start date associated with AVAL and/or AVALC. ASTDT and AENDT
          may be useful for traceability when AVAL summarizes data collected over
          an interval of time, or when AVAL is a duration.
        :ct: ''
        :ct_notes: ''
        :compliance:
          :type: http://www.assero.co.uk/BusinessDomain#VariableCompliance
          :id: ''
          :namespace: ''
          :label: Permissible
          :extension_properties: []
        :datatype:
          :type: http://www.assero.co.uk/BusinessDomain#VariableType
          :id: ''
          :namespace: ''
          :label: Numeric
          :extension_properties: []
      - :type: http://www.assero.co.uk/BusinessDomain#IgVariable
        :id: ''
        :namespace: ''
        :label: Analysis Start Time
        :extension_properties: []
        :ordinal: 26
        :rule: ''
        :name: ASTTM
        :notes: The start time associated with AVAL and/or AVALC. ASTTM and AENTM
          may be useful for traceability when AVAL summarizes data collected over
          an interval of time, or when AVAL is a duration.
        :ct: ''
        :ct_notes: ''
        :compliance:
          :type: http://www.assero.co.uk/BusinessDomain#VariableCompliance
          :id: ''
          :namespace: ''
          :label: Permissible
          :extension_properties: []
        :datatype:
          :type: http://www.assero.co.uk/BusinessDomain#VariableType
          :id: ''
          :namespace: ''
          :label: Numeric
          :extension_properties: []
      - :type: http://www.assero.co.uk/BusinessDomain#IgVariable
        :id: ''
        :namespace: ''
        :label: Analysis Start Datetime
        :extension_properties: []
        :ordinal: 27
        :rule: ''
        :name: ASTDTM
        :notes: The start datetime associated with AVAL and/or AVALC. ASTDTM and AENDTM
          may be useful for traceability when AVAL summarizes data collected over
          an interval of time, or when AVAL is a duration.
        :ct: ''
        :ct_notes: ''
        :compliance:
          :type: http://www.assero.co.uk/BusinessDomain#VariableCompliance
          :id: ''
          :namespace: ''
          :label: Permissible
          :extension_properties: []
        :datatype:
          :type: http://www.assero.co.uk/BusinessDomain#VariableType
          :id: ''
          :namespace: ''
          :label: Numeric
          :extension_properties: []
      - :type: http://www.assero.co.uk/BusinessDomain#IgVariable
        :id: ''
        :namespace: ''
        :label: Analysis Start Relative Day
        :extension_properties: []
        :ordinal: 28
        :rule: ''
        :name: ASTDY
        :notes: The number of days from an anchor date (not necessarily DM.RFSTDTC)
          to ASTDT. See Section 3.1.2.
        :ct: ''
        :ct_notes: ''
        :compliance:
          :type: http://www.assero.co.uk/BusinessDomain#VariableCompliance
          :id: ''
          :namespace: ''
          :label: Permissible
          :extension_properties: []
        :datatype:
          :type: http://www.assero.co.uk/BusinessDomain#VariableType
          :id: ''
          :namespace: ''
          :label: Numeric
          :extension_properties: []
      - :type: http://www.assero.co.uk/BusinessDomain#IgVariable
        :id: ''
        :namespace: ''
        :label: Analysis Start Date Imputation Flag
        :extension_properties: []
        :ordinal: 29
        :rule: ''
        :name: ASTDTF
        :notes: The level of imputation of analysis start date. If ASTDT (or the date
          part of ASTDTM) was imputed, ASTDTF must be populated and is required. See
          Section 3.1.3.
        :ct: DATEFL
        :ct_notes: ''
        :compliance:
          :type: http://www.assero.co.uk/BusinessDomain#VariableCompliance
          :id: ''
          :namespace: ''
          :label: Conditional
          :extension_properties: []
        :datatype:
          :type: http://www.assero.co.uk/BusinessDomain#VariableType
          :id: ''
          :namespace: ''
          :label: Character
          :extension_properties: []
      - :type: http://www.assero.co.uk/BusinessDomain#IgVariable
        :id: ''
        :namespace: ''
        :label: Analysis Start Time Imputation Flag
        :extension_properties: []
        :ordinal: 30
        :rule: ''
        :name: ASTTMF
        :notes: The level of imputation of analysis start time. If ASTTM (or the time
          part of ASTDTM) was imputed, ASTTMF must be populated and is required. See
          Section 3.1.3.
        :ct: TIMEFL
        :ct_notes: ''
        :compliance:
          :type: http://www.assero.co.uk/BusinessDomain#VariableCompliance
          :id: ''
          :namespace: ''
          :label: Conditional
          :extension_properties: []
        :datatype:
          :type: http://www.assero.co.uk/BusinessDomain#VariableType
          :id: ''
          :namespace: ''
          :label: Character
          :extension_properties: []
      - :type: http://www.assero.co.uk/BusinessDomain#IgVariable
        :id: ''
        :namespace: ''
        :label: Analysis End Date
        :extension_properties: []
        :ordinal: 31
        :rule: ''
        :name: AENDT
        :notes: The end date associated with AVAL and/or AVALC. See also ASTDT.
        :ct: ''
        :ct_notes: ''
        :compliance:
          :type: http://www.assero.co.uk/BusinessDomain#VariableCompliance
          :id: ''
          :namespace: ''
          :label: Permissible
          :extension_properties: []
        :datatype:
          :type: http://www.assero.co.uk/BusinessDomain#VariableType
          :id: ''
          :namespace: ''
          :label: Numeric
          :extension_properties: []
      - :type: http://www.assero.co.uk/BusinessDomain#IgVariable
        :id: ''
        :namespace: ''
        :label: Analysis End Time
        :extension_properties: []
        :ordinal: 32
        :rule: ''
        :name: AENTM
        :notes: The end time associated with AVAL and/or AVALC. See also ASTTM.
        :ct: ''
        :ct_notes: ''
        :compliance:
          :type: http://www.assero.co.uk/BusinessDomain#VariableCompliance
          :id: ''
          :namespace: ''
          :label: Permissible
          :extension_properties: []
        :datatype:
          :type: http://www.assero.co.uk/BusinessDomain#VariableType
          :id: ''
          :namespace: ''
          :label: Numeric
          :extension_properties: []
      - :type: http://www.assero.co.uk/BusinessDomain#IgVariable
        :id: ''
        :namespace: ''
        :label: Analysis End Datetime
        :extension_properties: []
        :ordinal: 33
        :rule: ''
        :name: AENDTM
        :notes: The end datetime associated with AVAL and/or AVALC. See also ASTDTM.
        :ct: ''
        :ct_notes: ''
        :compliance:
          :type: http://www.assero.co.uk/BusinessDomain#VariableCompliance
          :id: ''
          :namespace: ''
          :label: Permissible
          :extension_properties: []
        :datatype:
          :type: http://www.assero.co.uk/BusinessDomain#VariableType
          :id: ''
          :namespace: ''
          :label: Numeric
          :extension_properties: []
      - :type: http://www.assero.co.uk/BusinessDomain#IgVariable
        :id: ''
        :namespace: ''
        :label: Analysis End Relative Day
        :extension_properties: []
        :ordinal: 34
        :rule: ''
        :name: AENDY
        :notes: The number of days from an anchor date (not necessarily DM.RFSTDTC)
          to AENDT. See Section 3.1.2.
        :ct: ''
        :ct_notes: ''
        :compliance:
          :type: http://www.assero.co.uk/BusinessDomain#VariableCompliance
          :id: ''
          :namespace: ''
          :label: Permissible
          :extension_properties: []
        :datatype:
          :type: http://www.assero.co.uk/BusinessDomain#VariableType
          :id: ''
          :namespace: ''
          :label: Numeric
          :extension_properties: []
      - :type: http://www.assero.co.uk/BusinessDomain#IgVariable
        :id: ''
        :namespace: ''
        :label: Analysis End Date Imputation Flag
        :extension_properties: []
        :ordinal: 35
        :rule: ''
        :name: AENDTF
        :notes: The level of imputation of analysis end date. If AENDT (or the date
          part of AENDTM) was imputed, AENDTF must be populated and is required. See
          Section 3.1.3.
        :ct: DATEFL
        :ct_notes: ''
        :compliance:
          :type: http://www.assero.co.uk/BusinessDomain#VariableCompliance
          :id: ''
          :namespace: ''
          :label: Conditional
          :extension_properties: []
        :datatype:
          :type: http://www.assero.co.uk/BusinessDomain#VariableType
          :id: ''
          :namespace: ''
          :label: Character
          :extension_properties: []
      - :type: http://www.assero.co.uk/BusinessDomain#IgVariable
        :id: ''
        :namespace: ''
        :label: Analysis End Time Imputation Flag
        :extension_properties: []
        :ordinal: 36
        :rule: ''
        :name: AENTMF
        :notes: The level of imputation of analysis end time. If AENTM (or the time
          part of AENDTM) was imputed, AENTMF must be populated and is required. See
          Section 3.1.3.
        :ct: TIMEFL
        :ct_notes: ''
        :compliance:
          :type: http://www.assero.co.uk/BusinessDomain#VariableCompliance
          :id: ''
          :namespace: ''
          :label: Conditional
          :extension_properties: []
        :datatype:
          :type: http://www.assero.co.uk/BusinessDomain#VariableType
          :id: ''
          :namespace: ''
          :label: Character
          :extension_properties: []
      - :type: http://www.assero.co.uk/BusinessDomain#IgVariable
        :id: ''
        :namespace: ''
        :label: Analysis Visit
        :extension_properties: []
        :ordinal: 37
        :rule: ''
        :name: AVISIT
        :notes: The analysis visit description; required if an analysis is done by
          nominal, assigned or analysis visit. AVISIT may contain the visit names
          as observed (i.e., from SDTM VISIT), derived visit names, time window names,
          conceptual descriptions (such as Average, Endpoint, etc.), or a combination
          of any of these. AVISIT is a derived field and does not have to map to VISIT
          from the SDTM. AVISIT represents the analysis visit of the record, but it
          does not mean that the record was analyzed. There are often multiple records
          for the same subject and parameter that have the same value of AVISIT. ANLzzFL
          and other variables may be needed to identify the records selected for any
          given analysis. See Section 3.3.8 for information about flag variables.
          AVISIT should be unique for a given analysis visit window. In the event
          that a record does not fall within any predefined analysis timepoint window,
          AVISIT can be populated in any way that the producer chooses to indicate
          this fact (i.e., blank or “Not Windowed”). The way that AVISIT is calculated,
          including the variables used in its derivation, should be indicated in the
          variable metadata for AVISIT. The values and the rules for deriving AVISIT
          may be different for different parameters within the same dataset. Values
          of AVISIT are producer-defined, and are often directly usable in Clinical
          Study Report displays.
        :ct: ''
        :ct_notes: ''
        :compliance:
          :type: http://www.assero.co.uk/BusinessDomain#VariableCompliance
          :id: ''
          :namespace: ''
          :label: Conditional
          :extension_properties: []
        :datatype:
          :type: http://www.assero.co.uk/BusinessDomain#VariableType
          :id: ''
          :namespace: ''
          :label: Character
          :extension_properties: []
      - :type: http://www.assero.co.uk/BusinessDomain#IgVariable
        :id: ''
        :namespace: ''
        :label: Analysis Visit (N)
        :extension_properties: []
        :ordinal: 38
        :rule: ''
        :name: AVISITN
        :notes: |-
          A numeric representation of AVISIT. Since study visits are usually defined by certain timepoints, defining AVISITN so that it represents the timepoint associated with the visit can facilitate plotting and interpretation of the values. Alternatively, AVISITN may be a protocol visit number, a cycle number, an analysis visit number, or any other number logically related to AVISIT or useful for sorting that is needed for analysis.

          Within a parameter, there is a one-to-one mapping between AVISITN and AVISIT so that AVISITN has the same value for each distinct AVISIT. (Best practice would dictate that the mapping would be one-to-one within a study, but that is not an ADaM requirement.) In the event that a record does not fall within any predefined analysis timepoint window, AVISITN can be populated in any way that the producer chooses to indicate this fact (e.g., may be null). Values of AVISITN are producer-defined.
        :ct: ''
        :ct_notes: ''
        :compliance:
          :type: http://www.assero.co.uk/BusinessDomain#VariableCompliance
          :id: ''
          :namespace: ''
          :label: Permissible
          :extension_properties: []
        :datatype:
          :type: http://www.assero.co.uk/BusinessDomain#VariableType
          :id: ''
          :namespace: ''
          :label: Numeric
          :extension_properties: []
      - :type: http://www.assero.co.uk/BusinessDomain#IgVariable
        :id: ''
        :namespace: ''
        :label: Analysis Timepoint
        :extension_properties: []
        :ordinal: 39
        :rule: ''
        :name: ATPT
        :notes: "The analysis timepoint description; required if an analysis is done
          by nominal, assigned or analysis timepoint (instead of or in addition to
          by-visit). Timepoints are relative to ATPTREF. ATPT may contain the timepoint
          names as observed (i.e., from SDTM --TPT), derived timepoint names, time
          window names, conceptual descriptions (such as Average, Endpoint, etc.),
          or a combination of any of these. This variable is often used in conjunction
          with AVISIT. ATPT represents the analysis timepoint of the record. \nATPT
          can be within an analysis visit (e.g., blood pressure assessments at 10
          min, 20 min, and 30 min post-dose at AVISIT=Week 1) or can be unrelated
          to AVISIT (e.g., migraine symptoms 30 min, 60 min, and 120 min post-dose
          for attack 1).\n\nThe way that ATPT is calculated, including the variables
          used in its derivation, should be indicated in the variable metadata for
          ATPT. The values and the rules for deriving ATPT may be different for different
          parameters within the same dataset. Values of ATPT are producer-defined,
          and are often directly usable in Clinical Study Report displays."
        :ct: ''
        :ct_notes: ''
        :compliance:
          :type: http://www.assero.co.uk/BusinessDomain#VariableCompliance
          :id: ''
          :namespace: ''
          :label: Conditional
          :extension_properties: []
        :datatype:
          :type: http://www.assero.co.uk/BusinessDomain#VariableType
          :id: ''
          :namespace: ''
          :label: Character
          :extension_properties: []
      - :type: http://www.assero.co.uk/BusinessDomain#IgVariable
        :id: ''
        :namespace: ''
        :label: Analysis Timepoint (N)
        :extension_properties: []
        :ordinal: 40
        :rule: ''
        :name: ATPTN
        :notes: ATPTN provides a numeric representation of ATPT. Defining ATPTN so
          that its values represent the planned timepoints (e.g., minutes or hours
          after dosing) is not required but can facilitate plotting and interpretation
          of the values. Within the same parameter, there is a one-to-one mapping
          between ATPT and ATPTN. (Best practice would dictate that the mapping would
          be one-to-one within a study, but that is not an ADaM requirement.)
        :ct: ''
        :ct_notes: ''
        :compliance:
          :type: http://www.assero.co.uk/BusinessDomain#VariableCompliance
          :id: ''
          :namespace: ''
          :label: Permissible
          :extension_properties: []
        :datatype:
          :type: http://www.assero.co.uk/BusinessDomain#VariableType
          :id: ''
          :namespace: ''
          :label: Numeric
          :extension_properties: []
      - :type: http://www.assero.co.uk/BusinessDomain#IgVariable
        :id: ''
        :namespace: ''
        :label: Analysis Timepoint Reference
        :extension_properties: []
        :ordinal: 41
        :rule: ''
        :name: ATPTREF
        :notes: Description of the fixed reference point referred to by ATPT/ATPTN
          (e.g., time of dose).
        :ct: ''
        :ct_notes: ''
        :compliance:
          :type: http://www.assero.co.uk/BusinessDomain#VariableCompliance
          :id: ''
          :namespace: ''
          :label: Permissible
          :extension_properties: []
        :datatype:
          :type: http://www.assero.co.uk/BusinessDomain#VariableType
          :id: ''
          :namespace: ''
          :label: Character
          :extension_properties: []
      - :type: http://www.assero.co.uk/BusinessDomain#IgVariable
        :id: ''
        :namespace: ''
        :label: Phase
        :extension_properties: []
        :ordinal: 42
        :rule: ''
        :name: APHASE
        :notes: APHASE is a categorization of timing within a study, for example a
          higher-level categorization of APERIOD or an analysis epoch. For example,
          APHASE could describe spans of time for SCREENING, ON TREATMENT, and FOLLOW-UP.
        :ct: ''
        :ct_notes: ''
        :compliance:
          :type: http://www.assero.co.uk/BusinessDomain#VariableCompliance
          :id: ''
          :namespace: ''
          :label: Permissible
          :extension_properties: []
        :datatype:
          :type: http://www.assero.co.uk/BusinessDomain#VariableType
          :id: ''
          :namespace: ''
          :label: Character
          :extension_properties: []
      - :type: http://www.assero.co.uk/BusinessDomain#IgVariable
        :id: ''
        :namespace: ''
        :label: Phase (N)
        :extension_properties: []
        :ordinal: 43
        :rule: ''
        :name: APHASEN
        :notes: APHASEN provides a numeric representation of APHASE. Within a study,
          there is a one-to-one mapping between APHASE and APHASEN.
        :ct: ''
        :ct_notes: ''
        :compliance:
          :type: http://www.assero.co.uk/BusinessDomain#VariableCompliance
          :id: ''
          :namespace: ''
          :label: Permissible
          :extension_properties: []
        :datatype:
          :type: http://www.assero.co.uk/BusinessDomain#VariableType
          :id: ''
          :namespace: ''
          :label: Numeric
          :extension_properties: []
      - :type: http://www.assero.co.uk/BusinessDomain#IgVariable
        :id: ''
        :namespace: ''
        :label: Period
        :extension_properties: []
        :ordinal: 44
        :rule: ''
        :name: APERIOD
        :notes: APERIOD is a record-level timing variable that represents the analysis
          period within the study associated with the record for analysis purposes.
          The value of APERIOD (if populated) must be one of the xx values found in
          the ADSL TRTxxP variables.
        :ct: ''
        :ct_notes: ''
        :compliance:
          :type: http://www.assero.co.uk/BusinessDomain#VariableCompliance
          :id: ''
          :namespace: ''
          :label: Permissible
          :extension_properties: []
        :datatype:
          :type: http://www.assero.co.uk/BusinessDomain#VariableType
          :id: ''
          :namespace: ''
          :label: Numeric
          :extension_properties: []
      - :type: http://www.assero.co.uk/BusinessDomain#IgVariable
        :id: ''
        :namespace: ''
        :label: Period (C)
        :extension_properties: []
        :ordinal: 45
        :rule: ''
        :name: APERIODC
        :notes: Text characterizing to which analysis period the record belongs. One-to-one
          mapping within a dataset to APERIOD.
        :ct: ''
        :ct_notes: ''
        :compliance:
          :type: http://www.assero.co.uk/BusinessDomain#VariableCompliance
          :id: ''
          :namespace: ''
          :label: Permissible
          :extension_properties: []
        :datatype:
          :type: http://www.assero.co.uk/BusinessDomain#VariableType
          :id: ''
          :namespace: ''
          :label: Character
          :extension_properties: []
      - :type: http://www.assero.co.uk/BusinessDomain#IgVariable
        :id: ''
        :namespace: ''
        :label: Subperiod within Period
        :extension_properties: []
        :ordinal: 46
        :rule: ''
        :name: ASPER
        :notes: The numeric value characterizing a sublevel within APERIOD to which
          the record belongs. Within each APERIOD, the first ASPER is 1 (i.e., it
          resets to 1 when the APERIOD value changes).
        :ct: ''
        :ct_notes: ''
        :compliance:
          :type: http://www.assero.co.uk/BusinessDomain#VariableCompliance
          :id: ''
          :namespace: ''
          :label: Permissible
          :extension_properties: []
        :datatype:
          :type: http://www.assero.co.uk/BusinessDomain#VariableType
          :id: ''
          :namespace: ''
          :label: Numeric
          :extension_properties: []
      - :type: http://www.assero.co.uk/BusinessDomain#IgVariable
        :id: ''
        :namespace: ''
        :label: Subperiod within Period (C)
        :extension_properties: []
        :ordinal: 47
        :rule: ''
        :name: ASPERC
        :notes: Text characterizing to which subperiod the record belongs. One-to-one
          mapping within a period to ASPER.
        :ct: ''
        :ct_notes: ''
        :compliance:
          :type: http://www.assero.co.uk/BusinessDomain#VariableCompliance
          :id: ''
          :namespace: ''
          :label: Permissible
          :extension_properties: []
        :datatype:
          :type: http://www.assero.co.uk/BusinessDomain#VariableType
          :id: ''
          :namespace: ''
          :label: Character
          :extension_properties: []
      - :type: http://www.assero.co.uk/BusinessDomain#IgVariable
        :id: ''
        :namespace: ''
        :label: Analysis Relative Time
        :extension_properties: []
        :ordinal: 48
        :rule: ''
        :name: ARELTM
        :notes: The time relative to an anchor time. The amount of time from an anchor
          time to ATM. When ARELTM is present, the anchor time variable and ARELTMU
          must also be included in the dataset, and the anchor time variable must
          be identified in the metadata for ARELTM.
        :ct: ''
        :ct_notes: ''
        :compliance:
          :type: http://www.assero.co.uk/BusinessDomain#VariableCompliance
          :id: ''
          :namespace: ''
          :label: Permissible
          :extension_properties: []
        :datatype:
          :type: http://www.assero.co.uk/BusinessDomain#VariableType
          :id: ''
          :namespace: ''
          :label: Numeric
          :extension_properties: []
      - :type: http://www.assero.co.uk/BusinessDomain#IgVariable
        :id: ''
        :namespace: ''
        :label: Analysis Relative Time Unit
        :extension_properties: []
        :ordinal: 49
        :rule: ''
        :name: ARELTMU
        :notes: The units of ARELTM. For example, “HOURS” or “MINUTES.” ARELTMU is
          required if ARELTM is present.
        :ct: ''
        :ct_notes: ''
        :compliance:
          :type: http://www.assero.co.uk/BusinessDomain#VariableCompliance
          :id: ''
          :namespace: ''
          :label: Permissible
          :extension_properties: []
        :datatype:
          :type: http://www.assero.co.uk/BusinessDomain#VariableType
          :id: ''
          :namespace: ''
          :label: Character
          :extension_properties: []
      - :type: http://www.assero.co.uk/BusinessDomain#IgVariable
        :id: ''
        :namespace: ''
        :label: Period Start Date
        :extension_properties: []
        :ordinal: 50
        :rule: ''
        :name: APERSDT
        :notes: The starting date for the period defined by APERIOD.
        :ct: ''
        :ct_notes: ''
        :compliance:
          :type: http://www.assero.co.uk/BusinessDomain#VariableCompliance
          :id: ''
          :namespace: ''
          :label: Permissible
          :extension_properties: []
        :datatype:
          :type: http://www.assero.co.uk/BusinessDomain#VariableType
          :id: ''
          :namespace: ''
          :label: Numeric
          :extension_properties: []
      - :type: http://www.assero.co.uk/BusinessDomain#IgVariable
        :id: ''
        :namespace: ''
        :label: Period Start Time
        :extension_properties: []
        :ordinal: 51
        :rule: ''
        :name: APERSTM
        :notes: The starting time for the period defined by APERIOD.
        :ct: ''
        :ct_notes: ''
        :compliance:
          :type: http://www.assero.co.uk/BusinessDomain#VariableCompliance
          :id: ''
          :namespace: ''
          :label: Permissible
          :extension_properties: []
        :datatype:
          :type: http://www.assero.co.uk/BusinessDomain#VariableType
          :id: ''
          :namespace: ''
          :label: Numeric
          :extension_properties: []
      - :type: http://www.assero.co.uk/BusinessDomain#IgVariable
        :id: ''
        :namespace: ''
        :label: Period Start Datetime
        :extension_properties: []
        :ordinal: 52
        :rule: ''
        :name: APERSDTM
        :notes: The starting datetime for the period defined by APERIOD.
        :ct: ''
        :ct_notes: ''
        :compliance:
          :type: http://www.assero.co.uk/BusinessDomain#VariableCompliance
          :id: ''
          :namespace: ''
          :label: Permissible
          :extension_properties: []
        :datatype:
          :type: http://www.assero.co.uk/BusinessDomain#VariableType
          :id: ''
          :namespace: ''
          :label: Numeric
          :extension_properties: []
      - :type: http://www.assero.co.uk/BusinessDomain#IgVariable
        :id: ''
        :namespace: ''
        :label: Period Start Date Imput. Flag
        :extension_properties: []
        :ordinal: 53
        :rule: ''
        :name: APERSDTF
        :notes: The level of imputation of period start date. If APERSDT (or the date
          part of APERSDTM) was imputed, APERSDTF must be populated and is required.
          See Section 3.1.3.
        :ct: DATEFL
        :ct_notes: ''
        :compliance:
          :type: http://www.assero.co.uk/BusinessDomain#VariableCompliance
          :id: ''
          :namespace: ''
          :label: Conditional
          :extension_properties: []
        :datatype:
          :type: http://www.assero.co.uk/BusinessDomain#VariableType
          :id: ''
          :namespace: ''
          :label: Character
          :extension_properties: []
      - :type: http://www.assero.co.uk/BusinessDomain#IgVariable
        :id: ''
        :namespace: ''
        :label: Period Start Time Imput. Flag
        :extension_properties: []
        :ordinal: 54
        :rule: ''
        :name: APERSTMF
        :notes: The level of imputation of period start time. If APERSTM (or the time
          part of APERSDTM) was imputed, APERSTMF must be populated and is required.
          See Section 3.1.3.
        :ct: TIMEFL
        :ct_notes: ''
        :compliance:
          :type: http://www.assero.co.uk/BusinessDomain#VariableCompliance
          :id: ''
          :namespace: ''
          :label: Conditional
          :extension_properties: []
        :datatype:
          :type: http://www.assero.co.uk/BusinessDomain#VariableType
          :id: ''
          :namespace: ''
          :label: Character
          :extension_properties: []
      - :type: http://www.assero.co.uk/BusinessDomain#IgVariable
        :id: ''
        :namespace: ''
        :label: Period End Date
        :extension_properties: []
        :ordinal: 55
        :rule: ''
        :name: APEREDT
        :notes: The ending date for the period defined by APERIOD.
        :ct: ''
        :ct_notes: ''
        :compliance:
          :type: http://www.assero.co.uk/BusinessDomain#VariableCompliance
          :id: ''
          :namespace: ''
          :label: Permissible
          :extension_properties: []
        :datatype:
          :type: http://www.assero.co.uk/BusinessDomain#VariableType
          :id: ''
          :namespace: ''
          :label: Numeric
          :extension_properties: []
      - :type: http://www.assero.co.uk/BusinessDomain#IgVariable
        :id: ''
        :namespace: ''
        :label: Period End Time
        :extension_properties: []
        :ordinal: 56
        :rule: ''
        :name: APERETM
        :notes: The ending time for the period defined by APERIOD.
        :ct: ''
        :ct_notes: ''
        :compliance:
          :type: http://www.assero.co.uk/BusinessDomain#VariableCompliance
          :id: ''
          :namespace: ''
          :label: Permissible
          :extension_properties: []
        :datatype:
          :type: http://www.assero.co.uk/BusinessDomain#VariableType
          :id: ''
          :namespace: ''
          :label: Numeric
          :extension_properties: []
      - :type: http://www.assero.co.uk/BusinessDomain#IgVariable
        :id: ''
        :namespace: ''
        :label: Period End Datetime
        :extension_properties: []
        :ordinal: 57
        :rule: ''
        :name: APEREDTM
        :notes: The ending datetime for the period defined by APERIOD.
        :ct: ''
        :ct_notes: ''
        :compliance:
          :type: http://www.assero.co.uk/BusinessDomain#VariableCompliance
          :id: ''
          :namespace: ''
          :label: Permissible
          :extension_properties: []
        :datatype:
          :type: http://www.assero.co.uk/BusinessDomain#VariableType
          :id: ''
          :namespace: ''
          :label: Numeric
          :extension_properties: []
      - :type: http://www.assero.co.uk/BusinessDomain#IgVariable
        :id: ''
        :namespace: ''
        :label: Period End Date Imput. Flag
        :extension_properties: []
        :ordinal: 58
        :rule: ''
        :name: APEREDTF
        :notes: The level of imputation of period end date. If APEREDT (or the date
          part of APEREDTM) was imputed, APEREDTF must be populated and is required.
          See Section 3.1.3.
        :ct: DATEFL
        :ct_notes: ''
        :compliance:
          :type: http://www.assero.co.uk/BusinessDomain#VariableCompliance
          :id: ''
          :namespace: ''
          :label: Conditional
          :extension_properties: []
        :datatype:
          :type: http://www.assero.co.uk/BusinessDomain#VariableType
          :id: ''
          :namespace: ''
          :label: Character
          :extension_properties: []
      - :type: http://www.assero.co.uk/BusinessDomain#IgVariable
        :id: ''
        :namespace: ''
        :label: Period End Time Imput. Flag
        :extension_properties: []
        :ordinal: 59
        :rule: ''
        :name: APERETMF
        :notes: The level of imputation of period end time. If APERETM (or the time
          part of APEREDTM) was imputed, APERETMF must be populated and is required.
          See Section 3.1.3.
        :ct: TIMEFL
        :ct_notes: ''
        :compliance:
          :type: http://www.assero.co.uk/BusinessDomain#VariableCompliance
          :id: ''
          :namespace: ''
          :label: Conditional
          :extension_properties: []
        :datatype:
          :type: http://www.assero.co.uk/BusinessDomain#VariableType
          :id: ''
          :namespace: ''
          :label: Character
          :extension_properties: []
      - :type: http://www.assero.co.uk/BusinessDomain#IgVariable
        :id: ''
        :namespace: ''
        :label: Subperiod Start Date
        :extension_properties: []
        :ordinal: 60
        :rule: ''
        :name: ASPRSDT
        :notes: The starting date for the subperiod defined by ASPER.
        :ct: ''
        :ct_notes: ''
        :compliance:
          :type: http://www.assero.co.uk/BusinessDomain#VariableCompliance
          :id: ''
          :namespace: ''
          :label: Permissible
          :extension_properties: []
        :datatype:
          :type: http://www.assero.co.uk/BusinessDomain#VariableType
          :id: ''
          :namespace: ''
          :label: Numeric
          :extension_properties: []
      - :type: http://www.assero.co.uk/BusinessDomain#IgVariable
        :id: ''
        :namespace: ''
        :label: Subperiod Start Time
        :extension_properties: []
        :ordinal: 61
        :rule: ''
        :name: ASPRSTM
        :notes: The starting time for the subperiod defined by ASPER.
        :ct: ''
        :ct_notes: ''
        :compliance:
          :type: http://www.assero.co.uk/BusinessDomain#VariableCompliance
          :id: ''
          :namespace: ''
          :label: Permissible
          :extension_properties: []
        :datatype:
          :type: http://www.assero.co.uk/BusinessDomain#VariableType
          :id: ''
          :namespace: ''
          :label: Numeric
          :extension_properties: []
      - :type: http://www.assero.co.uk/BusinessDomain#IgVariable
        :id: ''
        :namespace: ''
        :label: Subperiod Start Datetime
        :extension_properties: []
        :ordinal: 62
        :rule: ''
        :name: ASPRSDTM
        :notes: The starting datetime for the subperiod defined by ASPER.
        :ct: ''
        :ct_notes: ''
        :compliance:
          :type: http://www.assero.co.uk/BusinessDomain#VariableCompliance
          :id: ''
          :namespace: ''
          :label: Permissible
          :extension_properties: []
        :datatype:
          :type: http://www.assero.co.uk/BusinessDomain#VariableType
          :id: ''
          :namespace: ''
          :label: Numeric
          :extension_properties: []
      - :type: http://www.assero.co.uk/BusinessDomain#IgVariable
        :id: ''
        :namespace: ''
        :label: Subperiod Start Date Imput. Flag
        :extension_properties: []
        :ordinal: 63
        :rule: ''
        :name: ASPRSDTF
        :notes: The level of imputation of subperiod start date. If ASPRSDT (or the
          date part of ASPRSDTM) was imputed, ASPRSDTF must be populated and is required.
          See Section 3.1.3.
        :ct: DATEFL
        :ct_notes: ''
        :compliance:
          :type: http://www.assero.co.uk/BusinessDomain#VariableCompliance
          :id: ''
          :namespace: ''
          :label: Conditional
          :extension_properties: []
        :datatype:
          :type: http://www.assero.co.uk/BusinessDomain#VariableType
          :id: ''
          :namespace: ''
          :label: Character
          :extension_properties: []
      - :type: http://www.assero.co.uk/BusinessDomain#IgVariable
        :id: ''
        :namespace: ''
        :label: Subperiod Start Time Imput. Flag
        :extension_properties: []
        :ordinal: 64
        :rule: ''
        :name: ASPRSTMF
        :notes: The level of imputation of subperiod start time. If ASPRSTM (or the
          time part of ASPRSDTM) was imputed, ASPRSTMF must be populated and is required.
          See Section 3.1.3.
        :ct: TIMEFL
        :ct_notes: ''
        :compliance:
          :type: http://www.assero.co.uk/BusinessDomain#VariableCompliance
          :id: ''
          :namespace: ''
          :label: Conditional
          :extension_properties: []
        :datatype:
          :type: http://www.assero.co.uk/BusinessDomain#VariableType
          :id: ''
          :namespace: ''
          :label: Character
          :extension_properties: []
      - :type: http://www.assero.co.uk/BusinessDomain#IgVariable
        :id: ''
        :namespace: ''
        :label: Subperiod End Date
        :extension_properties: []
        :ordinal: 65
        :rule: ''
        :name: ASPREDT
        :notes: The ending date for the subperiod defined by ASPER.
        :ct: ''
        :ct_notes: ''
        :compliance:
          :type: http://www.assero.co.uk/BusinessDomain#VariableCompliance
          :id: ''
          :namespace: ''
          :label: Permissible
          :extension_properties: []
        :datatype:
          :type: http://www.assero.co.uk/BusinessDomain#VariableType
          :id: ''
          :namespace: ''
          :label: Numeric
          :extension_properties: []
      - :type: http://www.assero.co.uk/BusinessDomain#IgVariable
        :id: ''
        :namespace: ''
        :label: Subperiod End Time
        :extension_properties: []
        :ordinal: 66
        :rule: ''
        :name: ASPRETM
        :notes: The ending time for the subperiod defined by ASPER.
        :ct: ''
        :ct_notes: ''
        :compliance:
          :type: http://www.assero.co.uk/BusinessDomain#VariableCompliance
          :id: ''
          :namespace: ''
          :label: Permissible
          :extension_properties: []
        :datatype:
          :type: http://www.assero.co.uk/BusinessDomain#VariableType
          :id: ''
          :namespace: ''
          :label: Numeric
          :extension_properties: []
      - :type: http://www.assero.co.uk/BusinessDomain#IgVariable
        :id: ''
        :namespace: ''
        :label: Subperiod End Datetime
        :extension_properties: []
        :ordinal: 67
        :rule: ''
        :name: ASPREDTM
        :notes: The ending datetime for the subperiod defined by ASPER.
        :ct: ''
        :ct_notes: ''
        :compliance:
          :type: http://www.assero.co.uk/BusinessDomain#VariableCompliance
          :id: ''
          :namespace: ''
          :label: Permissible
          :extension_properties: []
        :datatype:
          :type: http://www.assero.co.uk/BusinessDomain#VariableType
          :id: ''
          :namespace: ''
          :label: Numeric
          :extension_properties: []
      - :type: http://www.assero.co.uk/BusinessDomain#IgVariable
        :id: ''
        :namespace: ''
        :label: Subperiod End Date Imput. Flag
        :extension_properties: []
        :ordinal: 68
        :rule: ''
        :name: ASPREDTF
        :notes: The level of imputation of subperiod end date. If ASPREDT (or the
          date part of ASPREDTM) was imputed, ASPREDTF must be populated and is required.
          See Section 3.1.3.
        :ct: DATEFL
        :ct_notes: ''
        :compliance:
          :type: http://www.assero.co.uk/BusinessDomain#VariableCompliance
          :id: ''
          :namespace: ''
          :label: Conditional
          :extension_properties: []
        :datatype:
          :type: http://www.assero.co.uk/BusinessDomain#VariableType
          :id: ''
          :namespace: ''
          :label: Character
          :extension_properties: []
      - :type: http://www.assero.co.uk/BusinessDomain#IgVariable
        :id: ''
        :namespace: ''
        :label: Subperiod End Time Imput. Flag
        :extension_properties: []
        :ordinal: 69
        :rule: ''
        :name: ASPRETMF
        :notes: The level of imputation of subperiod end time. If ASPRETM (or the
          time part of ASPREDTM) was imputed, ASPRETMF must be populated and is required.
          See Section 3.1.3.
        :ct: TIMEFL
        :ct_notes: ''
        :compliance:
          :type: http://www.assero.co.uk/BusinessDomain#VariableCompliance
          :id: ''
          :namespace: ''
          :label: Conditional
          :extension_properties: []
        :datatype:
          :type: http://www.assero.co.uk/BusinessDomain#VariableType
          :id: ''
          :namespace: ''
          :label: Character
          :extension_properties: []
      - :type: http://www.assero.co.uk/BusinessDomain#IgVariable
        :id: ''
        :namespace: ''
        :label: Phase Start Date
        :extension_properties: []
        :ordinal: 70
        :rule: ''
        :name: PHSDT
        :notes: The starting date for the phase defined by APHASE.
        :ct: ''
        :ct_notes: ''
        :compliance:
          :type: http://www.assero.co.uk/BusinessDomain#VariableCompliance
          :id: ''
          :namespace: ''
          :label: Permissible
          :extension_properties: []
        :datatype:
          :type: http://www.assero.co.uk/BusinessDomain#VariableType
          :id: ''
          :namespace: ''
          :label: Numeric
          :extension_properties: []
      - :type: http://www.assero.co.uk/BusinessDomain#IgVariable
        :id: ''
        :namespace: ''
        :label: Phase Start Time
        :extension_properties: []
        :ordinal: 71
        :rule: ''
        :name: PHSTM
        :notes: The starting time for the phase defined by APHASE.
        :ct: ''
        :ct_notes: ''
        :compliance:
          :type: http://www.assero.co.uk/BusinessDomain#VariableCompliance
          :id: ''
          :namespace: ''
          :label: Permissible
          :extension_properties: []
        :datatype:
          :type: http://www.assero.co.uk/BusinessDomain#VariableType
          :id: ''
          :namespace: ''
          :label: Numeric
          :extension_properties: []
      - :type: http://www.assero.co.uk/BusinessDomain#IgVariable
        :id: ''
        :namespace: ''
        :label: Phase Start Datetime
        :extension_properties: []
        :ordinal: 72
        :rule: ''
        :name: PHSDTM
        :notes: The starting datetime for the phase defined by APHASE.
        :ct: ''
        :ct_notes: ''
        :compliance:
          :type: http://www.assero.co.uk/BusinessDomain#VariableCompliance
          :id: ''
          :namespace: ''
          :label: Permissible
          :extension_properties: []
        :datatype:
          :type: http://www.assero.co.uk/BusinessDomain#VariableType
          :id: ''
          :namespace: ''
          :label: Numeric
          :extension_properties: []
      - :type: http://www.assero.co.uk/BusinessDomain#IgVariable
        :id: ''
        :namespace: ''
        :label: Phase Start Date Imput. Flag
        :extension_properties: []
        :ordinal: 73
        :rule: ''
        :name: PHSDTF
        :notes: The level of imputation of phase start date. If PHSDT (or the date
          part of PHSDTM) was imputed, PHSDTF must be populated and is required. See
          Section 3.1.3.
        :ct: DATEFL
        :ct_notes: ''
        :compliance:
          :type: http://www.assero.co.uk/BusinessDomain#VariableCompliance
          :id: ''
          :namespace: ''
          :label: Conditional
          :extension_properties: []
        :datatype:
          :type: http://www.assero.co.uk/BusinessDomain#VariableType
          :id: ''
          :namespace: ''
          :label: Character
          :extension_properties: []
      - :type: http://www.assero.co.uk/BusinessDomain#IgVariable
        :id: ''
        :namespace: ''
        :label: Phase Start Time Imput. Flag
        :extension_properties: []
        :ordinal: 74
        :rule: ''
        :name: PHSTMF
        :notes: The level of imputation of phase start time. If PHSTM (or the time
          part of PHSDTM) was imputed, PHSTMF must be populated and is required. See
          Section 3.1.3.
        :ct: TIMEFL
        :ct_notes: ''
        :compliance:
          :type: http://www.assero.co.uk/BusinessDomain#VariableCompliance
          :id: ''
          :namespace: ''
          :label: Conditional
          :extension_properties: []
        :datatype:
          :type: http://www.assero.co.uk/BusinessDomain#VariableType
          :id: ''
          :namespace: ''
          :label: Character
          :extension_properties: []
      - :type: http://www.assero.co.uk/BusinessDomain#IgVariable
        :id: ''
        :namespace: ''
        :label: Phase End Date
        :extension_properties: []
        :ordinal: 75
        :rule: ''
        :name: PHEDT
        :notes: The ending date for the phase defined by APHASE.
        :ct: ''
        :ct_notes: ''
        :compliance:
          :type: http://www.assero.co.uk/BusinessDomain#VariableCompliance
          :id: ''
          :namespace: ''
          :label: Permissible
          :extension_properties: []
        :datatype:
          :type: http://www.assero.co.uk/BusinessDomain#VariableType
          :id: ''
          :namespace: ''
          :label: Numeric
          :extension_properties: []
      - :type: http://www.assero.co.uk/BusinessDomain#IgVariable
        :id: ''
        :namespace: ''
        :label: Phase End Time
        :extension_properties: []
        :ordinal: 76
        :rule: ''
        :name: PHETM
        :notes: The ending time for the phase defined by APHASE.
        :ct: ''
        :ct_notes: ''
        :compliance:
          :type: http://www.assero.co.uk/BusinessDomain#VariableCompliance
          :id: ''
          :namespace: ''
          :label: Permissible
          :extension_properties: []
        :datatype:
          :type: http://www.assero.co.uk/BusinessDomain#VariableType
          :id: ''
          :namespace: ''
          :label: Numeric
          :extension_properties: []
      - :type: http://www.assero.co.uk/BusinessDomain#IgVariable
        :id: ''
        :namespace: ''
        :label: Phase End Datetime
        :extension_properties: []
        :ordinal: 77
        :rule: ''
        :name: PHEDTM
        :notes: The ending datetime for the phase defined by APHASE.
        :ct: ''
        :ct_notes: ''
        :compliance:
          :type: http://www.assero.co.uk/BusinessDomain#VariableCompliance
          :id: ''
          :namespace: ''
          :label: Permissible
          :extension_properties: []
        :datatype:
          :type: http://www.assero.co.uk/BusinessDomain#VariableType
          :id: ''
          :namespace: ''
          :label: Numeric
          :extension_properties: []
      - :type: http://www.assero.co.uk/BusinessDomain#IgVariable
        :id: ''
        :namespace: ''
        :label: Phase End Date Imput. Flag
        :extension_properties: []
        :ordinal: 78
        :rule: ''
        :name: PHEDTF
        :notes: The level of imputation of phase end date. If PHEDT (or the date part
          of PHEDTM) was imputed, PHEDTF must be populated and is required. See Section
          3.1.3.
        :ct: DATEFL
        :ct_notes: ''
        :compliance:
          :type: http://www.assero.co.uk/BusinessDomain#VariableCompliance
          :id: ''
          :namespace: ''
          :label: Conditional
          :extension_properties: []
        :datatype:
          :type: http://www.assero.co.uk/BusinessDomain#VariableType
          :id: ''
          :namespace: ''
          :label: Character
          :extension_properties: []
      - :type: http://www.assero.co.uk/BusinessDomain#IgVariable
        :id: ''
        :namespace: ''
        :label: Phase End Time Imput. Flag
        :extension_properties: []
        :ordinal: 79
        :rule: ''
        :name: PHETMF
        :notes: The level of imputation of phase end time. If PHETM (or the time part
          of PHEDTM) was imputed, PHETMF must be populated and is required. See Section
          3.1.3.
        :ct: TIMEFL
        :ct_notes: ''
        :compliance:
          :type: http://www.assero.co.uk/BusinessDomain#VariableCompliance
          :id: ''
          :namespace: ''
          :label: Conditional
          :extension_properties: []
        :datatype:
          :type: http://www.assero.co.uk/BusinessDomain#VariableType
          :id: ''
          :namespace: ''
          :label: Character
          :extension_properties: []
      - :type: http://www.assero.co.uk/BusinessDomain#IgVariable
        :id: ''
        :namespace: ''
        :label: "{Date}"
        :extension_properties: []
        :ordinal: 80
        :rule: ''
        :name: "*DT"
        :notes: Analysis date not directly characterizing AVAL and/or AVALC in numeric
          format.
        :ct: ''
        :ct_notes: ''
        :compliance:
          :type: http://www.assero.co.uk/BusinessDomain#VariableCompliance
          :id: ''
          :namespace: ''
          :label: Permissible
          :extension_properties: []
        :datatype:
          :type: http://www.assero.co.uk/BusinessDomain#VariableType
          :id: ''
          :namespace: ''
          :label: Numeric
          :extension_properties: []
      - :type: http://www.assero.co.uk/BusinessDomain#IgVariable
        :id: ''
        :namespace: ''
        :label: "{Time}"
        :extension_properties: []
        :ordinal: 81
        :rule: ''
        :name: "*TM"
        :notes: Analysis time not directly characterizing AVAL and/or AVALC in numeric
          format.
        :ct: ''
        :ct_notes: ''
        :compliance:
          :type: http://www.assero.co.uk/BusinessDomain#VariableCompliance
          :id: ''
          :namespace: ''
          :label: Permissible
          :extension_properties: []
        :datatype:
          :type: http://www.assero.co.uk/BusinessDomain#VariableType
          :id: ''
          :namespace: ''
          :label: Numeric
          :extension_properties: []
      - :type: http://www.assero.co.uk/BusinessDomain#IgVariable
        :id: ''
        :namespace: ''
        :label: "{Datetime}"
        :extension_properties: []
        :ordinal: 82
        :rule: ''
        :name: "*DTM"
        :notes: Analysis datetime not directly characterizing AVAL and/or AVALC in
          numeric format.
        :ct: ''
        :ct_notes: ''
        :compliance:
          :type: http://www.assero.co.uk/BusinessDomain#VariableCompliance
          :id: ''
          :namespace: ''
          :label: Permissible
          :extension_properties: []
        :datatype:
          :type: http://www.assero.co.uk/BusinessDomain#VariableType
          :id: ''
          :namespace: ''
          :label: Numeric
          :extension_properties: []
      - :type: http://www.assero.co.uk/BusinessDomain#IgVariable
        :id: ''
        :namespace: ''
        :label: "{Relative Day}"
        :extension_properties: []
        :ordinal: 83
        :rule: ''
        :name: "*ADY"
        :notes: Analysis relative day not directly characterizing AVAL and/or AVALC.
        :ct: ''
        :ct_notes: ''
        :compliance:
          :type: http://www.assero.co.uk/BusinessDomain#VariableCompliance
          :id: ''
          :namespace: ''
          :label: Permissible
          :extension_properties: []
        :datatype:
          :type: http://www.assero.co.uk/BusinessDomain#VariableType
          :id: ''
          :namespace: ''
          :label: Numeric
          :extension_properties: []
      - :type: http://www.assero.co.uk/BusinessDomain#IgVariable
        :id: ''
        :namespace: ''
        :label: "{Date Imputation Flag}"
        :extension_properties: []
        :ordinal: 84
        :rule: ''
        :name: "*DTF"
        :notes: The level of imputation of *DT. If *DT (or the date part of *DTM)
          was imputed, *DTF must be populated and is required. See Section 3.1.3.
        :ct: DATEFL
        :ct_notes: ''
        :compliance:
          :type: http://www.assero.co.uk/BusinessDomain#VariableCompliance
          :id: ''
          :namespace: ''
          :label: Conditional
          :extension_properties: []
        :datatype:
          :type: http://www.assero.co.uk/BusinessDomain#VariableType
          :id: ''
          :namespace: ''
          :label: Character
          :extension_properties: []
      - :type: http://www.assero.co.uk/BusinessDomain#IgVariable
        :id: ''
        :namespace: ''
        :label: "{Time Imputation Flag}"
        :extension_properties: []
        :ordinal: 85
        :rule: ''
        :name: "*TMF"
        :notes: The level of imputation of *TM. If *TM (or the time part of *DTM)
          was imputed, *TMF must be populated and is required. See Section 3.1.3.
        :ct: TIMEFL
        :ct_notes: ''
        :compliance:
          :type: http://www.assero.co.uk/BusinessDomain#VariableCompliance
          :id: ''
          :namespace: ''
          :label: Conditional
          :extension_properties: []
        :datatype:
          :type: http://www.assero.co.uk/BusinessDomain#VariableType
          :id: ''
          :namespace: ''
          :label: Character
          :extension_properties: []
      - :type: http://www.assero.co.uk/BusinessDomain#IgVariable
        :id: ''
        :namespace: ''
        :label: "{Start Date}"
        :extension_properties: []
        :ordinal: 86
        :rule: ''
        :name: "*SDT"
        :notes: Starting analysis date not directly characterizing AVAL and/or AVALC
          in numeric format.
        :ct: ''
        :ct_notes: ''
        :compliance:
          :type: http://www.assero.co.uk/BusinessDomain#VariableCompliance
          :id: ''
          :namespace: ''
          :label: Permissible
          :extension_properties: []
        :datatype:
          :type: http://www.assero.co.uk/BusinessDomain#VariableType
          :id: ''
          :namespace: ''
          :label: Numeric
          :extension_properties: []
      - :type: http://www.assero.co.uk/BusinessDomain#IgVariable
        :id: ''
        :namespace: ''
        :label: "{Start Time}"
        :extension_properties: []
        :ordinal: 87
        :rule: ''
        :name: "*STM"
        :notes: Starting analysis time not directly characterizing AVAL and/or AVALC
          in numeric format.
        :ct: ''
        :ct_notes: ''
        :compliance:
          :type: http://www.assero.co.uk/BusinessDomain#VariableCompliance
          :id: ''
          :namespace: ''
          :label: Permissible
          :extension_properties: []
        :datatype:
          :type: http://www.assero.co.uk/BusinessDomain#VariableType
          :id: ''
          :namespace: ''
          :label: Numeric
          :extension_properties: []
      - :type: http://www.assero.co.uk/BusinessDomain#IgVariable
        :id: ''
        :namespace: ''
        :label: "{Start Datetime}"
        :extension_properties: []
        :ordinal: 88
        :rule: ''
        :name: "*SDTM"
        :notes: Starting analysis datetime not directly characterizing AVAL and/or
          AVALC in numeric format.
        :ct: ''
        :ct_notes: ''
        :compliance:
          :type: http://www.assero.co.uk/BusinessDomain#VariableCompliance
          :id: ''
          :namespace: ''
          :label: Permissible
          :extension_properties: []
        :datatype:
          :type: http://www.assero.co.uk/BusinessDomain#VariableType
          :id: ''
          :namespace: ''
          :label: Numeric
          :extension_properties: []
      - :type: http://www.assero.co.uk/BusinessDomain#IgVariable
        :id: ''
        :namespace: ''
        :label: "{Relative Start Day}"
        :extension_properties: []
        :ordinal: 89
        :rule: ''
        :name: "*SDY"
        :notes: Starting analysis relative day not directly characterizing AVAL and/or
          AVALC.
        :ct: ''
        :ct_notes: ''
        :compliance:
          :type: http://www.assero.co.uk/BusinessDomain#VariableCompliance
          :id: ''
          :namespace: ''
          :label: Permissible
          :extension_properties: []
        :datatype:
          :type: http://www.assero.co.uk/BusinessDomain#VariableType
          :id: ''
          :namespace: ''
          :label: Numeric
          :extension_properties: []
      - :type: http://www.assero.co.uk/BusinessDomain#IgVariable
        :id: ''
        :namespace: ''
        :label: "{Start Date Imputation Flag}"
        :extension_properties: []
        :ordinal: 90
        :rule: ''
        :name: "*SDTF"
        :notes: The level of imputation of *SDT. If *SDT (or the date part of *SDTM)
          was imputed, *SDTF must be populated and is required. See Section 3.1.3.
        :ct: DATEFL
        :ct_notes: ''
        :compliance:
          :type: http://www.assero.co.uk/BusinessDomain#VariableCompliance
          :id: ''
          :namespace: ''
          :label: Conditional
          :extension_properties: []
        :datatype:
          :type: http://www.assero.co.uk/BusinessDomain#VariableType
          :id: ''
          :namespace: ''
          :label: Character
          :extension_properties: []
      - :type: http://www.assero.co.uk/BusinessDomain#IgVariable
        :id: ''
        :namespace: ''
        :label: "{Start Time Imputation Flag}"
        :extension_properties: []
        :ordinal: 91
        :rule: ''
        :name: "*STMF"
        :notes: The level of imputation of *STM. If *STM (or the time part of *SDTM)
          was imputed, *STMF must be populated and is required. See Section 3.1.3.
        :ct: TIMEFL
        :ct_notes: ''
        :compliance:
          :type: http://www.assero.co.uk/BusinessDomain#VariableCompliance
          :id: ''
          :namespace: ''
          :label: Conditional
          :extension_properties: []
        :datatype:
          :type: http://www.assero.co.uk/BusinessDomain#VariableType
          :id: ''
          :namespace: ''
          :label: Character
          :extension_properties: []
      - :type: http://www.assero.co.uk/BusinessDomain#IgVariable
        :id: ''
        :namespace: ''
        :label: "{End Date}"
        :extension_properties: []
        :ordinal: 92
        :rule: ''
        :name: "*EDT"
        :notes: Ending analysis date not directly characterizing AVAL and/or AVALC
          in numeric format.
        :ct: ''
        :ct_notes: ''
        :compliance:
          :type: http://www.assero.co.uk/BusinessDomain#VariableCompliance
          :id: ''
          :namespace: ''
          :label: Permissible
          :extension_properties: []
        :datatype:
          :type: http://www.assero.co.uk/BusinessDomain#VariableType
          :id: ''
          :namespace: ''
          :label: Numeric
          :extension_properties: []
      - :type: http://www.assero.co.uk/BusinessDomain#IgVariable
        :id: ''
        :namespace: ''
        :label: "{End Time}"
        :extension_properties: []
        :ordinal: 93
        :rule: ''
        :name: "*ETM"
        :notes: Ending analysis time not directly characterizing AVAL and/or AVALC
          in numeric format.
        :ct: ''
        :ct_notes: ''
        :compliance:
          :type: http://www.assero.co.uk/BusinessDomain#VariableCompliance
          :id: ''
          :namespace: ''
          :label: Permissible
          :extension_properties: []
        :datatype:
          :type: http://www.assero.co.uk/BusinessDomain#VariableType
          :id: ''
          :namespace: ''
          :label: Numeric
          :extension_properties: []
      - :type: http://www.assero.co.uk/BusinessDomain#IgVariable
        :id: ''
        :namespace: ''
        :label: "{End Datetime}"
        :extension_properties: []
        :ordinal: 94
        :rule: ''
        :name: "*EDTM"
        :notes: Ending analysis datetime not directly characterizing AVAL and/or AVALC
          in numeric format.
        :ct: ''
        :ct_notes: ''
        :compliance:
          :type: http://www.assero.co.uk/BusinessDomain#VariableCompliance
          :id: ''
          :namespace: ''
          :label: Permissible
          :extension_properties: []
        :datatype:
          :type: http://www.assero.co.uk/BusinessDomain#VariableType
          :id: ''
          :namespace: ''
          :label: Numeric
          :extension_properties: []
      - :type: http://www.assero.co.uk/BusinessDomain#IgVariable
        :id: ''
        :namespace: ''
        :label: "{Relative End Day}"
        :extension_properties: []
        :ordinal: 95
        :rule: ''
        :name: "*EDY"
        :notes: Ending analysis relative day not directly characterizing AVAL and/or
          AVALC.
        :ct: ''
        :ct_notes: ''
        :compliance:
          :type: http://www.assero.co.uk/BusinessDomain#VariableCompliance
          :id: ''
          :namespace: ''
          :label: Permissible
          :extension_properties: []
        :datatype:
          :type: http://www.assero.co.uk/BusinessDomain#VariableType
          :id: ''
          :namespace: ''
          :label: Numeric
          :extension_properties: []
      - :type: http://www.assero.co.uk/BusinessDomain#IgVariable
        :id: ''
        :namespace: ''
        :label: "{End Date Imputation Flag}"
        :extension_properties: []
        :ordinal: 96
        :rule: ''
        :name: "*EDTF"
        :notes: The level of imputation of *EDT. If *EDT (or the date part of *EDTM)
          was imputed, *EDTF must be populated and is required. See Section 3.1.3.
        :ct: DATEFL
        :ct_notes: ''
        :compliance:
          :type: http://www.assero.co.uk/BusinessDomain#VariableCompliance
          :id: ''
          :namespace: ''
          :label: Conditional
          :extension_properties: []
        :datatype:
          :type: http://www.assero.co.uk/BusinessDomain#VariableType
          :id: ''
          :namespace: ''
          :label: Character
          :extension_properties: []
      - :type: http://www.assero.co.uk/BusinessDomain#IgVariable
        :id: ''
        :namespace: ''
        :label: "{End Time Imputation Flag}"
        :extension_properties: []
        :ordinal: 97
        :rule: ''
        :name: "*ETMF"
        :notes: The level of imputation of *ETM. If *ETM (or the time part of *EDTM)
          was imputed, *ETMF must be populated and is required. See Section 3.1.3.
        :ct: TIMEFL
        :ct_notes: ''
        :compliance:
          :type: http://www.assero.co.uk/BusinessDomain#VariableCompliance
          :id: ''
          :namespace: ''
          :label: Conditional
          :extension_properties: []
        :datatype:
          :type: http://www.assero.co.uk/BusinessDomain#VariableType
          :id: ''
          :namespace: ''
          :label: Character
