---
- :type: ADAM IG
  :order: 1
  :instance:
    :operation:
      :action: CREATE
      :new_version: 1
      :new_semantic_version: 0.0.0
      :new_state: Standard
      :identifier_edit: true
    :managed_item:
      :type: http://www.assero.co.uk/BusinessDomain#ImplementationGuide
      :id: ''
      :namespace: ''
      :label: ADaM IG 2018-01-01
      :extension_properties: []
      :origin: ''
      :change_description: ''
      :creation_date: '2018-01-01'
      :last_changed_date: '2018-10-30T14:22:49+00:00'
      :explanatory_comment: ''
      :registration_state:
        :namespace: http://www.assero.co.uk/MDRItems
        :id: ''
        :registration_authority:
          :id: ''
          :number: "<Not Set>"
          :scheme: DUNS
          :owner: false
          :namespace:
            :namespace: ''
            :id: ''
            :name: ''
            :shortName: ''
        :registration_status: Not_Set
        :administrative_note: ''
        :effective_date: '2016-01-01T00:00:00+00:00'
        :until_date: '2016-01-01T00:00:00+00:00'
        :current: false
        :unresolved_issue: ''
        :administrative_status: ''
        :previous_state: Not_Set
      :scoped_identifier:
        :id: ''
        :identifier: ADAM IG
        :version_label: ADaM 2018-01-01
        :version: 0
        :semantic_version: 0.0.0
        :namespace:
          :namespace: ''
          :id: ''
          :name: ''
          :shortName: ''
      :ordinal: 1
      :rule: ''
- :type: ADAM IG DATASET
  :order: 1
  :instance:
    :operation:
      :action: CREATE
      :new_version: 1
      :new_semantic_version: 0.0.0
      :new_state: Standard
      :identifier_edit: true
    :managed_item:
      :type: http://www.assero.co.uk/BusinessDomain#IgDomain
      :id: ''
      :namespace: ''
      :label: Subject Level Analysis Dataset
      :extension_properties: []
      :origin: ''
      :change_description: ''
      :creation_date: '2018-01-01'
      :last_changed_date: '2018-10-30T14:22:50+00:00'
      :explanatory_comment: ''
      :registration_state:
        :namespace: http://www.assero.co.uk/MDRItems
        :id: ''
        :registration_authority:
          :id: ''
          :number: "<Not Set>"
          :scheme: DUNS
          :owner: false
          :namespace:
            :namespace: ''
            :id: ''
            :name: ''
            :shortName: ''
        :registration_status: Not_Set
        :administrative_note: ''
        :effective_date: '2016-01-01T00:00:00+00:00'
        :until_date: '2016-01-01T00:00:00+00:00'
        :current: false
        :unresolved_issue: ''
        :administrative_status: ''
        :previous_state: Not_Set
      :scoped_identifier:
        :id: ''
        :identifier: ADAMIG ADSL
        :version_label: 
        :version: 0
        :semantic_version: 0.0.0
        :namespace:
          :namespace: ''
          :id: ''
          :name: ''
          :shortName: ''
      :ordinal: 1
      :rule: ''
      :prefix: "--"
      :structure: ''
      :children:
      - :type: http://www.assero.co.uk/BusinessDomain#IgVariable
        :id: ''
        :namespace: ''
        :label: Cause of Death Group y (N)
        :extension_properties: []
        :ordinal: 0
        :rule: ''
        :name: DTHCGRyN
        :notes: Numeric version of grouping ‘y’ of the subject’s cause of death. Must
          have a one-to-one mapping to DTHCGRy.
        :ct: ''
        :ct_notes: ''
        :compliance:
          :type: http://www.assero.co.uk/BusinessDomain#VariableCompliance
          :id: ''
          :namespace: ''
          :label: Permissible
          :extension_properties: []
      - :type: http://www.assero.co.uk/BusinessDomain#IgVariable
        :id: ''
        :namespace: ''
        :label: Unique Subject Identifier
        :extension_properties: []
        :ordinal: 0
        :rule: ''
        :name: USUBJID
        :notes: DM.USUBJID
        :ct: ''
        :ct_notes: ''
        :compliance:
          :type: http://www.assero.co.uk/BusinessDomain#VariableCompliance
          :id: ''
          :namespace: ''
          :label: Required
          :extension_properties: []
      - :type: http://www.assero.co.uk/BusinessDomain#IgVariable
        :id: ''
        :namespace: ''
        :label: Subject Identifier for the Study
        :extension_properties: []
        :ordinal: 0
        :rule: ''
        :name: SUBJID
        :notes: DM.SUBJID. SUBJID is required in ADSL, but permissible in other datasets.
        :ct: ''
        :ct_notes: ''
        :compliance:
          :type: http://www.assero.co.uk/BusinessDomain#VariableCompliance
          :id: ''
          :namespace: ''
          :label: Required
          :extension_properties: []
      - :type: http://www.assero.co.uk/BusinessDomain#IgVariable
        :id: ''
        :namespace: ''
        :label: Study Site Identifier
        :extension_properties: []
        :ordinal: 0
        :rule: ''
        :name: SITEID
        :notes: DM.SITEID. SITEID is required in ADSL, but permissible in other datasets.
        :ct: ''
        :ct_notes: ''
        :compliance:
          :type: http://www.assero.co.uk/BusinessDomain#VariableCompliance
          :id: ''
          :namespace: ''
          :label: Required
          :extension_properties: []
      - :type: http://www.assero.co.uk/BusinessDomain#IgVariable
        :id: ''
        :namespace: ''
        :label: Pooled Site Group y
        :extension_properties: []
        :ordinal: 0
        :rule: ''
        :name: SITEGRy
        :notes: Character description of a grouping or pooling of clinical sites for
          analysis purposes. For example, SITEGR3 is the name of a variable containing
          site group (pooled site) names, where the grouping has been done according
          to the third site grouping algorithm, defined in variable metadata; SITEGR3
          does not mean the third group of sites.
        :ct: ''
        :ct_notes: ''
        :compliance:
          :type: http://www.assero.co.uk/BusinessDomain#VariableCompliance
          :id: ''
          :namespace: ''
          :label: Permissible
          :extension_properties: []
      - :type: http://www.assero.co.uk/BusinessDomain#IgVariable
        :id: ''
        :namespace: ''
        :label: Pooled Site Group y (N)
        :extension_properties: []
        :ordinal: 0
        :rule: ''
        :name: SITEGRyN
        :notes: The numeric code for SITEGRy. One-to-one mapping to SITEGRy within
          a study.
        :ct: ''
        :ct_notes: ''
        :compliance:
          :type: http://www.assero.co.uk/BusinessDomain#VariableCompliance
          :id: ''
          :namespace: ''
          :label: Permissible
          :extension_properties: []
      - :type: http://www.assero.co.uk/BusinessDomain#IgVariable
        :id: ''
        :namespace: ''
        :label: Geographic Region y
        :extension_properties: []
        :ordinal: 0
        :rule: ''
        :name: REGIONy
        :notes: Character description of geographical region. For example, REGION1
          might have values of ‘Asia’, ‘Europe’, ‘North America’, ‘Rest of World’;
          REGION2 might have values of ‘United States’, ‘Rest of World’.
        :ct: ''
        :ct_notes: ''
        :compliance:
          :type: http://www.assero.co.uk/BusinessDomain#VariableCompliance
          :id: ''
          :namespace: ''
          :label: Permissible
          :extension_properties: []
      - :type: http://www.assero.co.uk/BusinessDomain#IgVariable
        :id: ''
        :namespace: ''
        :label: Geographic Region y (N)
        :extension_properties: []
        :ordinal: 0
        :rule: ''
        :name: REGIONyN
        :notes: The numeric code for REGIONy. Orders REGIONy for analysis and reporting.
          One-to-one mapping to REGIONy within a study.
        :ct: ''
        :ct_notes: ''
        :compliance:
          :type: http://www.assero.co.uk/BusinessDomain#VariableCompliance
          :id: ''
          :namespace: ''
          :label: Permissible
          :extension_properties: []
      - :type: http://www.assero.co.uk/BusinessDomain#IgVariable
        :id: ''
        :namespace: ''
        :label: Age
        :extension_properties: []
        :ordinal: 0
        :rule: ''
        :name: AGE
        :notes: DM.AGE. If analysis needs require a derived age that does not match
          DM.AGE, then AAGE must be added
        :ct: ''
        :ct_notes: ''
        :compliance:
          :type: http://www.assero.co.uk/BusinessDomain#VariableCompliance
          :id: ''
          :namespace: ''
          :label: Required
          :extension_properties: []
      - :type: http://www.assero.co.uk/BusinessDomain#IgVariable
        :id: ''
        :namespace: ''
        :label: Age Units
        :extension_properties: []
        :ordinal: 0
        :rule: ''
        :name: AGEU
        :notes: DM.AGEU
        :ct: AGEU
        :ct_notes: ''
        :compliance:
          :type: http://www.assero.co.uk/BusinessDomain#VariableCompliance
          :id: ''
          :namespace: ''
          :label: Required
          :extension_properties: []
      - :type: http://www.assero.co.uk/BusinessDomain#IgVariable
        :id: ''
        :namespace: ''
        :label: Pooled Age Group y
        :extension_properties: []
        :ordinal: 0
        :rule: ''
        :name: AGEGRy
        :notes: Character description of a grouping or pooling of the subject's age
          for analysis purposes. For example, AGEGR1 might have values of "<18", "18-65",
          and ">65"; AGEGR2 might have values of "Less than 35 y old" and "At least
          35 y old".
        :ct: ''
        :ct_notes: ''
        :compliance:
          :type: http://www.assero.co.uk/BusinessDomain#VariableCompliance
          :id: ''
          :namespace: ''
          :label: Permissible
          :extension_properties: []
      - :type: http://www.assero.co.uk/BusinessDomain#IgVariable
        :id: ''
        :namespace: ''
        :label: Pooled Age Group y (N)
        :extension_properties: []
        :ordinal: 0
        :rule: ''
        :name: AGEGRyN
        :notes: The numeric code for AGEGRy. Orders the grouping or pooling of subject
          age for analysis and reporting. One-to-one mapping to AGEGRy within a study.
        :ct: ''
        :ct_notes: ''
        :compliance:
          :type: http://www.assero.co.uk/BusinessDomain#VariableCompliance
          :id: ''
          :namespace: ''
          :label: Permissible
          :extension_properties: []
      - :type: http://www.assero.co.uk/BusinessDomain#IgVariable
        :id: ''
        :namespace: ''
        :label: Analysis Age
        :extension_properties: []
        :ordinal: 0
        :rule: ''
        :name: AAGE
        :notes: Age used for analysis that is derived differently from DM.AGE. AAGE
          is required if age is calculated differently than in SDTM.
        :ct: ''
        :ct_notes: ''
        :compliance:
          :type: http://www.assero.co.uk/BusinessDomain#VariableCompliance
          :id: ''
          :namespace: ''
          :label: Conditional
          :extension_properties: []
      - :type: http://www.assero.co.uk/BusinessDomain#IgVariable
        :id: ''
        :namespace: ''
        :label: Sex
        :extension_properties: []
        :ordinal: 0
        :rule: ''
        :name: SEX
        :notes: The sex of the subject is a required variable in ADSL; must be identical
          to DM.SEX.
        :ct: SEX
        :ct_notes: ''
        :compliance:
          :type: http://www.assero.co.uk/BusinessDomain#VariableCompliance
          :id: ''
          :namespace: ''
          :label: Required
          :extension_properties: []
      - :type: http://www.assero.co.uk/BusinessDomain#IgVariable
        :id: ''
        :namespace: ''
        :label: Race
        :extension_properties: []
        :ordinal: 0
        :rule: ''
        :name: RACE
        :notes: The race of the subject is a required variable in ADSL; must be identical
          to DM.RACE.
        :ct: RACE
        :ct_notes: ''
        :compliance:
          :type: http://www.assero.co.uk/BusinessDomain#VariableCompliance
          :id: ''
          :namespace: ''
          :label: Required
          :extension_properties: []
      - :type: http://www.assero.co.uk/BusinessDomain#IgVariable
        :id: ''
        :namespace: ''
        :label: Pooled Race Group y
        :extension_properties: []
        :ordinal: 0
        :rule: ''
        :name: RACEGRy
        :notes: Character description of a grouping or pooling of the subject's race
          for analysis purposes.
        :ct: ''
        :ct_notes: ''
        :compliance:
          :type: http://www.assero.co.uk/BusinessDomain#VariableCompliance
          :id: ''
          :namespace: ''
          :label: Permissible
          :extension_properties: []
      - :type: http://www.assero.co.uk/BusinessDomain#IgVariable
        :id: ''
        :namespace: ''
        :label: Pooled Race Group y (N)
        :extension_properties: []
        :ordinal: 0
        :rule: ''
        :name: RACEGRyN
        :notes: The numeric code for RACEGRy. Orders the grouping or pooling of subject
          race for analysis and reporting. One-to-one mapping to RACEGRy within a
          study.
        :ct: ''
        :ct_notes: ''
        :compliance:
          :type: http://www.assero.co.uk/BusinessDomain#VariableCompliance
          :id: ''
          :namespace: ''
          :label: Permissible
          :extension_properties: []
      - :type: http://www.assero.co.uk/BusinessDomain#IgVariable
        :id: ''
        :namespace: ''
        :label: Full Analysis Set Population Flag
        :extension_properties: []
        :ordinal: 0
        :rule: ''
        :name: FASFL
        :notes: These flags identify whether or not the subject is included in the
          specified population. A minimum of one subject-level population flag variable
          is required in ADSL.
        :ct: ''
        :ct_notes: Y, N
        :compliance:
          :type: http://www.assero.co.uk/BusinessDomain#VariableCompliance
          :id: ''
          :namespace: ''
          :label: Conditional
          :extension_properties: []
      - :type: http://www.assero.co.uk/BusinessDomain#IgVariable
        :id: ''
        :namespace: ''
        :label: Safety Population Flag
        :extension_properties: []
        :ordinal: 0
        :rule: ''
        :name: SAFFL
        :notes: Not all of the indicators listed here need to be included in ADSL.
          As stated in Section 3.1.4, Item 2, only those indicators corresponding
          to populations defined in the statistical analysis plan or populations used
          as a basis for analysis need be included in ADSL.
        :ct: ''
        :ct_notes: Y, N
        :compliance:
          :type: http://www.assero.co.uk/BusinessDomain#VariableCompliance
          :id: ''
          :namespace: ''
          :label: Conditional
          :extension_properties: []
      - :type: http://www.assero.co.uk/BusinessDomain#IgVariable
        :id: ''
        :namespace: ''
        :label: Intent-To-Treat Population Flag
        :extension_properties: []
        :ordinal: 0
        :rule: ''
        :name: ITTFL
        :notes: This list of flags is not meant to be all-inclusive. Additional population
          flags may be added.
        :ct: ''
        :ct_notes: Y, N
        :compliance:
          :type: http://www.assero.co.uk/BusinessDomain#VariableCompliance
          :id: ''
          :namespace: ''
          :label: Conditional
          :extension_properties: []
      - :type: http://www.assero.co.uk/BusinessDomain#IgVariable
        :id: ''
        :namespace: ''
        :label: Per-Protocol Population Flag
        :extension_properties: []
        :ordinal: 0
        :rule: ''
        :name: PPROTFL
        :notes: The values of subject-level population flags cannot be blank. If a
          flag is used, the corresponding numeric version (*FN, where 0=no and 1=yes)
          of the population flag can also be included. Please also refer to Section
          3.1.4.
        :ct: ''
        :ct_notes: Y, N
        :compliance:
          :type: http://www.assero.co.uk/BusinessDomain#VariableCompliance
          :id: ''
          :namespace: ''
          :label: Conditional
          :extension_properties: []
      - :type: http://www.assero.co.uk/BusinessDomain#IgVariable
        :id: ''
        :namespace: ''
        :label: Completers Population Flag
        :extension_properties: []
        :ordinal: 0
        :rule: ''
        :name: COMPLFL
        :notes: The values of subject-level population flags cannot be blank. If a
          flag is used, the corresponding numeric version (*FN, where 0=no and 1=yes)
          of the population flag can also be included. Please also refer to Section
          3.1.4.
        :ct: ''
        :ct_notes: Y, N
        :compliance:
          :type: http://www.assero.co.uk/BusinessDomain#VariableCompliance
          :id: ''
          :namespace: ''
          :label: Conditional
          :extension_properties: []
      - :type: http://www.assero.co.uk/BusinessDomain#IgVariable
        :id: ''
        :namespace: ''
        :label: Randomized Population Flag
        :extension_properties: []
        :ordinal: 0
        :rule: ''
        :name: RANDFL
        :notes: The values of subject-level population flags cannot be blank. If a
          flag is used, the corresponding numeric version (*FN, where 0=no and 1=yes)
          of the population flag can also be included. Please also refer to Section
          3.1.4.
        :ct: ''
        :ct_notes: Y, N
        :compliance:
          :type: http://www.assero.co.uk/BusinessDomain#VariableCompliance
          :id: ''
          :namespace: ''
          :label: Conditional
          :extension_properties: []
      - :type: http://www.assero.co.uk/BusinessDomain#IgVariable
        :id: ''
        :namespace: ''
        :label: Enrolled Population Flag
        :extension_properties: []
        :ordinal: 0
        :rule: ''
        :name: ENRLFL
        :notes: The values of subject-level population flags cannot be blank. If a
          flag is used, the corresponding numeric version (*FN, where 0=no and 1=yes)
          of the population flag can also be included. Please also refer to Section
          3.1.4.
        :ct: ''
        :ct_notes: Y, N
        :compliance:
          :type: http://www.assero.co.uk/BusinessDomain#VariableCompliance
          :id: ''
          :namespace: ''
          :label: Conditional
          :extension_properties: []
      - :type: http://www.assero.co.uk/BusinessDomain#IgVariable
        :id: ''
        :namespace: ''
        :label: Description of Planned Arm
        :extension_properties: []
        :ordinal: 0
        :rule: ''
        :name: ARM
        :notes: DM.ARM
        :ct: ''
        :ct_notes: ''
        :compliance:
          :type: http://www.assero.co.uk/BusinessDomain#VariableCompliance
          :id: ''
          :namespace: ''
          :label: Required
          :extension_properties: []
      - :type: http://www.assero.co.uk/BusinessDomain#IgVariable
        :id: ''
        :namespace: ''
        :label: Description of Actual Arm
        :extension_properties: []
        :ordinal: 0
        :rule: ''
        :name: ACTARM
        :notes: DM.ACTARM
        :ct: ''
        :ct_notes: ''
        :compliance:
          :type: http://www.assero.co.uk/BusinessDomain#VariableCompliance
          :id: ''
          :namespace: ''
          :label: Permissible
          :extension_properties: []
      - :type: http://www.assero.co.uk/BusinessDomain#IgVariable
        :id: ''
        :namespace: ''
        :label: Planned Treatment for Period xx
        :extension_properties: []
        :ordinal: 0
        :rule: ''
        :name: TRTxxP
        :notes: Subject-level identifier that represents the planned treatment for
          period xx. In a one-period randomized trial, TRT01P would be the treatment
          to which the subject was randomized. TRTxxP might be derived from the SDTM
          DM variable ARM. At least TRT01P is required.
        :ct: ''
        :ct_notes: ''
        :compliance:
          :type: http://www.assero.co.uk/BusinessDomain#VariableCompliance
          :id: ''
          :namespace: ''
          :label: Required
          :extension_properties: []
      - :type: http://www.assero.co.uk/BusinessDomain#IgVariable
        :id: ''
        :namespace: ''
        :label: Planned Treatment for Period xx (N)
        :extension_properties: []
        :ordinal: 0
        :rule: ''
        :name: TRTxxPN
        :notes: The numeric code variable for TRTxxP. One-to-one mapping to TRTxxP
          within a study.
        :ct: ''
        :ct_notes: ''
        :compliance:
          :type: http://www.assero.co.uk/BusinessDomain#VariableCompliance
          :id: ''
          :namespace: ''
          :label: Permissible
          :extension_properties: []
      - :type: http://www.assero.co.uk/BusinessDomain#IgVariable
        :id: ''
        :namespace: ''
        :label: Actual Treatment for Period xx
        :extension_properties: []
        :ordinal: 0
        :rule: ''
        :name: TRTxxA
        :notes: Subject-level identifier that represents the actual treatment for
          the subject for period xx. Required when actual treatment does not match
          planned and there is an analysis of the data as treated.
        :ct: ''
        :ct_notes: ''
        :compliance:
          :type: http://www.assero.co.uk/BusinessDomain#VariableCompliance
          :id: ''
          :namespace: ''
          :label: Conditional
          :extension_properties: []
      - :type: http://www.assero.co.uk/BusinessDomain#IgVariable
        :id: ''
        :namespace: ''
        :label: Actual Treatment for Period xx (N)
        :extension_properties: []
        :ordinal: 0
        :rule: ''
        :name: TRTxxAN
        :notes: The numeric code variable for TRTxxA. One-to-one mapping to TRTxxA
          within a study.
        :ct: ''
        :ct_notes: ''
        :compliance:
          :type: http://www.assero.co.uk/BusinessDomain#VariableCompliance
          :id: ''
          :namespace: ''
          :label: Permissible
          :extension_properties: []
      - :type: http://www.assero.co.uk/BusinessDomain#IgVariable
        :id: ''
        :namespace: ''
        :label: Planned Sequence of Treatments
        :extension_properties: []
        :ordinal: 0
        :rule: ''
        :name: TRTSEQP
        :notes: Required when there is an analysis based on the sequence of treatments,
          for example in a crossover design. TRTSEQP is not necessarily equal to ARM,
          for example if ARM contains elements that are not relevant to analysis of
          treatments or ARM is not fully descriptive (e.g., “GROUP 1,” “GROUP 2”).
          When analyzing based on the sequence of treatments, TRTSEQP is required
          even if identical to ARM.
        :ct: ''
        :ct_notes: ''
        :compliance:
          :type: http://www.assero.co.uk/BusinessDomain#VariableCompliance
          :id: ''
          :namespace: ''
          :label: Conditional
          :extension_properties: []
      - :type: http://www.assero.co.uk/BusinessDomain#IgVariable
        :id: ''
        :namespace: ''
        :label: Planned Sequence of Treatments (N)
        :extension_properties: []
        :ordinal: 0
        :rule: ''
        :name: TRTSEQPN
        :notes: Numeric version of TRTSEQP. One-to-one mapping to TRTSEQP within a
          study.
        :ct: ''
        :ct_notes: ''
        :compliance:
          :type: http://www.assero.co.uk/BusinessDomain#VariableCompliance
          :id: ''
          :namespace: ''
          :label: Permissible
          :extension_properties: []
      - :type: http://www.assero.co.uk/BusinessDomain#IgVariable
        :id: ''
        :namespace: ''
        :label: Actual Sequence of Treatments
        :extension_properties: []
        :ordinal: 0
        :rule: ''
        :name: TRTSEQA
        :notes: TRTSEQA is required if a situation occurred in the conduct of the
          trial where a subject received a sequence of treatments other than what
          was planned and there is an analysis based on the sequence of treatments.
        :ct: ''
        :ct_notes: ''
        :compliance:
          :type: http://www.assero.co.uk/BusinessDomain#VariableCompliance
          :id: ''
          :namespace: ''
          :label: Conditional
          :extension_properties: []
      - :type: http://www.assero.co.uk/BusinessDomain#IgVariable
        :id: ''
        :namespace: ''
        :label: Actual Sequence of Treatments (N)
        :extension_properties: []
        :ordinal: 0
        :rule: ''
        :name: TRTSEQAN
        :notes: Numeric version of TRTSEQA. One-to-one mapping to TRTSEQA within a
          study.
        :ct: ''
        :ct_notes: ''
        :compliance:
          :type: http://www.assero.co.uk/BusinessDomain#VariableCompliance
          :id: ''
          :namespace: ''
          :label: Permissible
          :extension_properties: []
      - :type: http://www.assero.co.uk/BusinessDomain#IgVariable
        :id: ''
        :namespace: ''
        :label: Planned Pooled Treatment y for Period xx
        :extension_properties: []
        :ordinal: 0
        :rule: ''
        :name: TRxxPGy
        :notes: Planned pooled treatment y for period xx. Useful when planned treatments
          (TRTxxP) in the specified period xx are pooled together for analysis according
          to pooling algorithm y. For example when in period 2 the first pooling algorithm
          dictates that all doses of Drug A (TR02PG1=“All doses of Drug A”) are pooled
          together for comparison to all doses of Drug B (TR02PG1=“All doses of Drug
          B”). Each value of TRTxxP is pooled within at most one value of TRxxPGy.
        :ct: ''
        :ct_notes: ''
        :compliance:
          :type: http://www.assero.co.uk/BusinessDomain#VariableCompliance
          :id: ''
          :namespace: ''
          :label: Permissible
          :extension_properties: []
      - :type: http://www.assero.co.uk/BusinessDomain#IgVariable
        :id: ''
        :namespace: ''
        :label: Planned Pooled Trt y for Period xx (N)
        :extension_properties: []
        :ordinal: 0
        :rule: ''
        :name: TRxxPGyN
        :notes: The numeric code for TRxxPGy. One-to-one mapping to TRxxPGy within
          a study.
        :ct: ''
        :ct_notes: ''
        :compliance:
          :type: http://www.assero.co.uk/BusinessDomain#VariableCompliance
          :id: ''
          :namespace: ''
          :label: Permissible
          :extension_properties: []
      - :type: http://www.assero.co.uk/BusinessDomain#IgVariable
        :id: ''
        :namespace: ''
        :label: Actual Pooled Treatment y for Period xx
        :extension_properties: []
        :ordinal: 0
        :rule: ''
        :name: TRxxAGy
        :notes: Actual pooled treatment y for period xx. Required when TRxxPGy is
          present and TRTxxA is present.
        :ct: ''
        :ct_notes: ''
        :compliance:
          :type: http://www.assero.co.uk/BusinessDomain#VariableCompliance
          :id: ''
          :namespace: ''
          :label: Conditional
          :extension_properties: []
      - :type: http://www.assero.co.uk/BusinessDomain#IgVariable
        :id: ''
        :namespace: ''
        :label: Actual Pooled Trt y for Period xx (N)
        :extension_properties: []
        :ordinal: 0
        :rule: ''
        :name: TRxxAGyN
        :notes: The numeric code for TRxxAGy. One-to-one mapping to TRxxAGy within
          a study.
        :ct: ''
        :ct_notes: ''
        :compliance:
          :type: http://www.assero.co.uk/BusinessDomain#VariableCompliance
          :id: ''
          :namespace: ''
          :label: Permissible
          :extension_properties: []
      - :type: http://www.assero.co.uk/BusinessDomain#IgVariable
        :id: ''
        :namespace: ''
        :label: Planned Pooled Treatment Sequence y
        :extension_properties: []
        :ordinal: 0
        :rule: ''
        :name: TSEQPGy
        :notes: Planned pooled treatment sequence y. Useful when planned treatment
          sequences (TRTSEQP) are pooled together for analysis according to pooling
          algorithm y. For example, this might be used in an analysis of an extension
          study when the analysis is based on what the subject received in the parent
          study as well as in the extension study.
        :ct: ''
        :ct_notes: ''
        :compliance:
          :type: http://www.assero.co.uk/BusinessDomain#VariableCompliance
          :id: ''
          :namespace: ''
          :label: Permissible
          :extension_properties: []
      - :type: http://www.assero.co.uk/BusinessDomain#IgVariable
        :id: ''
        :namespace: ''
        :label: Planned Pooled Treatment Sequence y (N)
        :extension_properties: []
        :ordinal: 0
        :rule: ''
        :name: TSEQPGyN
        :notes: Numeric version of TSEQPGy. One-to-one mapping to TSEQPGy within a
          study.
        :ct: ''
        :ct_notes: ''
        :compliance:
          :type: http://www.assero.co.uk/BusinessDomain#VariableCompliance
          :id: ''
          :namespace: ''
          :label: Permissible
          :extension_properties: []
      - :type: http://www.assero.co.uk/BusinessDomain#IgVariable
        :id: ''
        :namespace: ''
        :label: Actual Pooled Treatment Sequence y
        :extension_properties: []
        :ordinal: 0
        :rule: ''
        :name: TSEQAGy
        :notes: Actual pooled treatment sequence y. Required when TSEQPGy is present
          and TRTSEQA is present.
        :ct: ''
        :ct_notes: ''
        :compliance:
          :type: http://www.assero.co.uk/BusinessDomain#VariableCompliance
          :id: ''
          :namespace: ''
          :label: Conditional
          :extension_properties: []
      - :type: http://www.assero.co.uk/BusinessDomain#IgVariable
        :id: ''
        :namespace: ''
        :label: Actual Pooled Treatment Sequence y (N)
        :extension_properties: []
        :ordinal: 0
        :rule: ''
        :name: TSEQAGyN
        :notes: Numeric version of TSEQAGy. One-to-one mapping to TSEQAGy within a
          study.
        :ct: ''
        :ct_notes: ''
        :compliance:
          :type: http://www.assero.co.uk/BusinessDomain#VariableCompliance
          :id: ''
          :namespace: ''
          :label: Permissible
          :extension_properties: []
      - :type: http://www.assero.co.uk/BusinessDomain#IgVariable
        :id: ''
        :namespace: ''
        :label: Planned Treatment Dose for Period xx
        :extension_properties: []
        :ordinal: 0
        :rule: ''
        :name: DOSExxP
        :notes: Subject-level identifier that represents the planned treatment dosage
          for period xx.
        :ct: ''
        :ct_notes: ''
        :compliance:
          :type: http://www.assero.co.uk/BusinessDomain#VariableCompliance
          :id: ''
          :namespace: ''
          :label: Permissible
          :extension_properties: []
      - :type: http://www.assero.co.uk/BusinessDomain#IgVariable
        :id: ''
        :namespace: ''
        :label: Actual Treatment Dose for Period xx
        :extension_properties: []
        :ordinal: 0
        :rule: ''
        :name: DOSExxA
        :notes: Subject-level identifier that represents the actual treatment dosage
          for period xx.
        :ct: ''
        :ct_notes: ''
        :compliance:
          :type: http://www.assero.co.uk/BusinessDomain#VariableCompliance
          :id: ''
          :namespace: ''
          :label: Permissible
          :extension_properties: []
      - :type: http://www.assero.co.uk/BusinessDomain#IgVariable
        :id: ''
        :namespace: ''
        :label: Units for Dose for Period xx
        :extension_properties: []
        :ordinal: 0
        :rule: ''
        :name: DOSExxU
        :notes: The units for DOSExxP and DOSExxA. It is permissible to use suffixes
          such as “P” and “A” if needed, with labels modified accordingly.
        :ct: ''
        :ct_notes: ''
        :compliance:
          :type: http://www.assero.co.uk/BusinessDomain#VariableCompliance
          :id: ''
          :namespace: ''
          :label: Permissible
          :extension_properties: []
      - :type: http://www.assero.co.uk/BusinessDomain#IgVariable
        :id: ''
        :namespace: ''
        :label: Date of First Exposure to Treatment
        :extension_properties: []
        :ordinal: 0
        :rule: ''
        :name: TRTSDT
        :notes: Date of first exposure to treatment for a subject in a study. TRTSDT
          and/or TRTSDTM are required if there is an investigational product. Note
          that TRTSDT is not required to have the same value as the SDTM DM variable
          RFXSTDTC. While both of these dates reflect the concept of first exposure,
          the ADaM date may be derived to support the analysis which may not necessarily
          be the very first date in the SDTM EX domain.
        :ct: ''
        :ct_notes: ''
        :compliance:
          :type: http://www.assero.co.uk/BusinessDomain#VariableCompliance
          :id: ''
          :namespace: ''
          :label: Conditional
          :extension_properties: []
      - :type: http://www.assero.co.uk/BusinessDomain#IgVariable
        :id: ''
        :namespace: ''
        :label: Time of First Exposure to Treatment
        :extension_properties: []
        :ordinal: 0
        :rule: ''
        :name: TRTSTM
        :notes: Time of first exposure to treatment for a subject in a study.
        :ct: ''
        :ct_notes: ''
        :compliance:
          :type: http://www.assero.co.uk/BusinessDomain#VariableCompliance
          :id: ''
          :namespace: ''
          :label: Permissible
          :extension_properties: []
      - :type: http://www.assero.co.uk/BusinessDomain#IgVariable
        :id: ''
        :namespace: ''
        :label: Datetime of First Exposure to Treatment
        :extension_properties: []
        :ordinal: 0
        :rule: ''
        :name: TRTSDTM
        :notes: Datetime of first exposure to treatment for a subject in a study.
          TRTSDT and/or TRTSDTM are required if there is an investigational product.
        :ct: ''
        :ct_notes: ''
        :compliance:
          :type: http://www.assero.co.uk/BusinessDomain#VariableCompliance
          :id: ''
          :namespace: ''
          :label: Conditional
          :extension_properties: []
      - :type: http://www.assero.co.uk/BusinessDomain#IgVariable
        :id: ''
        :namespace: ''
        :label: Date of First Exposure Imput. Flag
        :extension_properties: []
        :ordinal: 0
        :rule: ''
        :name: TRTSDTF
        :notes: The level of imputation of date of first exposure to treatment. If
          TRTSDT (or the date part of TRTSDTM) was imputed, TRTSDTF must be populated
          and is required. See Section 3.1.3.
        :ct: DATEFL
        :ct_notes: ''
        :compliance:
          :type: http://www.assero.co.uk/BusinessDomain#VariableCompliance
          :id: ''
          :namespace: ''
          :label: Conditional
          :extension_properties: []
      - :type: http://www.assero.co.uk/BusinessDomain#IgVariable
        :id: ''
        :namespace: ''
        :label: Time of First Exposure Imput. Flag
        :extension_properties: []
        :ordinal: 0
        :rule: ''
        :name: TRTSTMF
        :notes: The level of imputation of time of first exposure to treatment. If
          TRTSTM (or the time part of TRTSDTM) was imputed, TRTSTMF must be populated
          and is required. See Section 3.1.3.
        :ct: TIMEFL
        :ct_notes: ''
        :compliance:
          :type: http://www.assero.co.uk/BusinessDomain#VariableCompliance
          :id: ''
          :namespace: ''
          :label: Conditional
          :extension_properties: []
      - :type: http://www.assero.co.uk/BusinessDomain#IgVariable
        :id: ''
        :namespace: ''
        :label: Date of Last Exposure to Treatment
        :extension_properties: []
        :ordinal: 0
        :rule: ''
        :name: TRTEDT
        :notes: Date of last exposure to treatment for a subject in a study. TRTEDT
          and/or TRTEDTM are required if there is an investigational product. Note
          that TRTEDT is not required to have the same value as the SDTM DM variable
          RFXENDTC. While both of these dates reflect the concept of last exposure,
          the ADaM date may be derived to support the analysis which may not necessarily
          be the very last date in the SDTM EX domain.
        :ct: ''
        :ct_notes: ''
        :compliance:
          :type: http://www.assero.co.uk/BusinessDomain#VariableCompliance
          :id: ''
          :namespace: ''
          :label: Conditional
          :extension_properties: []
      - :type: http://www.assero.co.uk/BusinessDomain#IgVariable
        :id: ''
        :namespace: ''
        :label: Time of Last Exposure to Treatment
        :extension_properties: []
        :ordinal: 0
        :rule: ''
        :name: TRTETM
        :notes: Time of last exposure to treatment for a subject in a study.
        :ct: ''
        :ct_notes: ''
        :compliance:
          :type: http://www.assero.co.uk/BusinessDomain#VariableCompliance
          :id: ''
          :namespace: ''
          :label: Permissible
          :extension_properties: []
      - :type: http://www.assero.co.uk/BusinessDomain#IgVariable
        :id: ''
        :namespace: ''
        :label: Datetime of Last Exposure to Treatment
        :extension_properties: []
        :ordinal: 0
        :rule: ''
        :name: TRTEDTM
        :notes: Datetime of last exposure to treatment for a subject in a study. TRTEDT
          and/or TRTEDTM are required if there is an investigational product.
        :ct: ''
        :ct_notes: ''
        :compliance:
          :type: http://www.assero.co.uk/BusinessDomain#VariableCompliance
          :id: ''
          :namespace: ''
          :label: Conditional
          :extension_properties: []
      - :type: http://www.assero.co.uk/BusinessDomain#IgVariable
        :id: ''
        :namespace: ''
        :label: Date of Last Exposure Imput. Flag
        :extension_properties: []
        :ordinal: 0
        :rule: ''
        :name: TRTEDTF
        :notes: The level of imputation of date of last exposure to treatment. If
          TRTEDT (or the date part of TRTEDTM) was imputed, TRTEDTF must be populated
          and is required. See Section 3.1.3.
        :ct: DATEFL
        :ct_notes: ''
        :compliance:
          :type: http://www.assero.co.uk/BusinessDomain#VariableCompliance
          :id: ''
          :namespace: ''
          :label: Conditional
          :extension_properties: []
      - :type: http://www.assero.co.uk/BusinessDomain#IgVariable
        :id: ''
        :namespace: ''
        :label: Time of Last Exposure Imput. Flag
        :extension_properties: []
        :ordinal: 0
        :rule: ''
        :name: TRTETMF
        :notes: The level of imputation of time of last exposure to treatment. If
          TRTETM (or the time part of TRTEDTM) was imputed, TRTETMF must be populated
          and is required. See Section 3.1.3.
        :ct: TIMEFL
        :ct_notes: ''
        :compliance:
          :type: http://www.assero.co.uk/BusinessDomain#VariableCompliance
          :id: ''
          :namespace: ''
          :label: Conditional
          :extension_properties: []
      - :type: http://www.assero.co.uk/BusinessDomain#IgVariable
        :id: ''
        :namespace: ''
        :label: Date of First Exposure in Period xx
        :extension_properties: []
        :ordinal: 0
        :rule: ''
        :name: TRxxSDT
        :notes: Date of first exposure to treatment in period xx. TRxxSDT and/or TRxxSDTM
          are only required in trial designs where multiple treatments are given to
          the same subject, such as a crossover design, but are permissible for other
          trial designs. Also useful in designs where multiple periods exist for the
          same treatment (i.e., multiple cycles of the same study treatment).
        :ct: ''
        :ct_notes: ''
        :compliance:
          :type: http://www.assero.co.uk/BusinessDomain#VariableCompliance
          :id: ''
          :namespace: ''
          :label: Conditional
          :extension_properties: []
      - :type: http://www.assero.co.uk/BusinessDomain#IgVariable
        :id: ''
        :namespace: ''
        :label: Time of First Exposure in Period xx
        :extension_properties: []
        :ordinal: 0
        :rule: ''
        :name: TRxxSTM
        :notes: The starting time of exposure to treatment in period xx. TRxxSTM and/or
          TRxxSDTM are only required in trial designs where multiple treatments are
          given to the same subject, such as a crossover design (but are permissible
          for other trial designs), and time is important to the analysis.
        :ct: ''
        :ct_notes: ''
        :compliance:
          :type: http://www.assero.co.uk/BusinessDomain#VariableCompliance
          :id: ''
          :namespace: ''
          :label: Conditional
          :extension_properties: []
      - :type: http://www.assero.co.uk/BusinessDomain#IgVariable
        :id: ''
        :namespace: ''
        :label: Datetime of First Exposure in Period xx
        :extension_properties: []
        :ordinal: 0
        :rule: ''
        :name: TRxxSDTM
        :notes: Datetime of first exposure to treatment in period xx. TRxxSDT and/or
          TRxxSDTM are only required in trial designs where multiple treatments are
          given to the same subject, such as a crossover design, but are permissible
          for other trial designs.
        :ct: ''
        :ct_notes: ''
        :compliance:
          :type: http://www.assero.co.uk/BusinessDomain#VariableCompliance
          :id: ''
          :namespace: ''
          :label: Conditional
          :extension_properties: []
      - :type: http://www.assero.co.uk/BusinessDomain#IgVariable
        :id: ''
        :namespace: ''
        :label: Date 1st Exposure Period xx Imput. Flag
        :extension_properties: []
        :ordinal: 0
        :rule: ''
        :name: TRxxSDTF
        :notes: The level of imputation of date of first exposure to treatment in
          period xx. If TRxxSDT (or the date part of TRxxSDTM) was imputed, TRxxSDTF
          must be populated and is required. See Section 3.1.3.
        :ct: DATEFL
        :ct_notes: ''
        :compliance:
          :type: http://www.assero.co.uk/BusinessDomain#VariableCompliance
          :id: ''
          :namespace: ''
          :label: Conditional
          :extension_properties: []
      - :type: http://www.assero.co.uk/BusinessDomain#IgVariable
        :id: ''
        :namespace: ''
        :label: Time 1st Exposure Period xx Imput. Flag
        :extension_properties: []
        :ordinal: 0
        :rule: ''
        :name: TRxxSTMF
        :notes: The level of imputation of time of first exposure to treatment in
          period xx. If TRxxSTM (or the time part of TRxxSDTM) was imputed, TRxxSTMF
          must be populated and is required. See Section 3.1.3.
        :ct: TIMEFL
        :ct_notes: ''
        :compliance:
          :type: http://www.assero.co.uk/BusinessDomain#VariableCompliance
          :id: ''
          :namespace: ''
          :label: Conditional
          :extension_properties: []
      - :type: http://www.assero.co.uk/BusinessDomain#IgVariable
        :id: ''
        :namespace: ''
        :label: Date of Last Exposure in Period xx
        :extension_properties: []
        :ordinal: 0
        :rule: ''
        :name: TRxxEDT
        :notes: Date of last exposure to treatment in period xx. TRxxEDT and/or TRxxEDTM
          are only required in trial designs where multiple treatments are given to
          the same subject, such as a crossover design, but are permissible for other
          trial designs.
        :ct: ''
        :ct_notes: ''
        :compliance:
          :type: http://www.assero.co.uk/BusinessDomain#VariableCompliance
          :id: ''
          :namespace: ''
          :label: Conditional
          :extension_properties: []
      - :type: http://www.assero.co.uk/BusinessDomain#IgVariable
        :id: ''
        :namespace: ''
        :label: Time of Last Exposure in Period xx
        :extension_properties: []
        :ordinal: 0
        :rule: ''
        :name: TRxxETM
        :notes: The ending time of exposure to treatment in period xx. TRxxETM and/or
          TRxxEDTM are only required in trial designs where multiple treatments are
          given to the same subject, such as a crossover design, and ending time is
          important to the analysis, but are permissible for other trial designs.
        :ct: ''
        :ct_notes: ''
        :compliance:
          :type: http://www.assero.co.uk/BusinessDomain#VariableCompliance
          :id: ''
          :namespace: ''
          :label: Conditional
          :extension_properties: []
      - :type: http://www.assero.co.uk/BusinessDomain#IgVariable
        :id: ''
        :namespace: ''
        :label: Datetime of Last Exposure in Period xx
        :extension_properties: []
        :ordinal: 0
        :rule: ''
        :name: TRxxEDTM
        :notes: The datetime of last exposure to treatment in period xx. TRxxEDT and/or
          TRxxEDTM are only required in trial designs where multiple treatments are
          given to the same subject, such as a crossover design, but are permissible
          for other trial designs.
        :ct: ''
        :ct_notes: ''
        :compliance:
          :type: http://www.assero.co.uk/BusinessDomain#VariableCompliance
          :id: ''
          :namespace: ''
          :label: Conditional
          :extension_properties: []
      - :type: http://www.assero.co.uk/BusinessDomain#IgVariable
        :id: ''
        :namespace: ''
        :label: Date Last Exposure Period xx Imput. Flag
        :extension_properties: []
        :ordinal: 0
        :rule: ''
        :name: TRxxEDTF
        :notes: The level of imputation of date of last exposure to treatment in period
          xx. If TRxxEDT (or the date part of TRxxEDTM) was imputed, TRxxEDTF must
          be populated and is required. See Section 3.1.3.
        :ct: DATEFL
        :ct_notes: ''
        :compliance:
          :type: http://www.assero.co.uk/BusinessDomain#VariableCompliance
          :id: ''
          :namespace: ''
          :label: Conditional
          :extension_properties: []
      - :type: http://www.assero.co.uk/BusinessDomain#IgVariable
        :id: ''
        :namespace: ''
        :label: Time Last Exposure Period xx Imput. Flag
        :extension_properties: []
        :ordinal: 0
        :rule: ''
        :name: TRxxETMF
        :notes: The level of imputation of time of last exposure to treatment in period
          xx. If TRxxETM (or the time part of TRxxEDTM) was imputed, TRxxETMF must
          be populated and is required. See Section 3.1.3.
        :ct: TIMEFL
        :ct_notes: ''
        :compliance:
          :type: http://www.assero.co.uk/BusinessDomain#VariableCompliance
          :id: ''
          :namespace: ''
          :label: Conditional
          :extension_properties: []
      - :type: http://www.assero.co.uk/BusinessDomain#IgVariable
        :id: ''
        :namespace: ''
        :label: Period xx Start Date
        :extension_properties: []
        :ordinal: 0
        :rule: ''
        :name: APxxSDT
        :notes: The starting date of period xx.
        :ct: ''
        :ct_notes: ''
        :compliance:
          :type: http://www.assero.co.uk/BusinessDomain#VariableCompliance
          :id: ''
          :namespace: ''
          :label: Permissible
          :extension_properties: []
      - :type: http://www.assero.co.uk/BusinessDomain#IgVariable
        :id: ''
        :namespace: ''
        :label: Period xx Start Time
        :extension_properties: []
        :ordinal: 0
        :rule: ''
        :name: APxxSTM
        :notes: The starting time of period xx.
        :ct: ''
        :ct_notes: ''
        :compliance:
          :type: http://www.assero.co.uk/BusinessDomain#VariableCompliance
          :id: ''
          :namespace: ''
          :label: Permissible
          :extension_properties: []
      - :type: http://www.assero.co.uk/BusinessDomain#IgVariable
        :id: ''
        :namespace: ''
        :label: Period xx Start Datetime
        :extension_properties: []
        :ordinal: 0
        :rule: ''
        :name: APxxSDTM
        :notes: The starting datetime of period xx.
        :ct: ''
        :ct_notes: ''
        :compliance:
          :type: http://www.assero.co.uk/BusinessDomain#VariableCompliance
          :id: ''
          :namespace: ''
          :label: Permissible
          :extension_properties: []
      - :type: http://www.assero.co.uk/BusinessDomain#IgVariable
        :id: ''
        :namespace: ''
        :label: Period xx Start Date Imput. Flag
        :extension_properties: []
        :ordinal: 0
        :rule: ''
        :name: APxxSDTF
        :notes: The level of imputation of period xx start date. See Section 3.1.3.
        :ct: DATEFL
        :ct_notes: ''
        :compliance:
          :type: http://www.assero.co.uk/BusinessDomain#VariableCompliance
          :id: ''
          :namespace: ''
          :label: Conditional
          :extension_properties: []
      - :type: http://www.assero.co.uk/BusinessDomain#IgVariable
        :id: ''
        :namespace: ''
        :label: Period xx Start Time Imput. Flag
        :extension_properties: []
        :ordinal: 0
        :rule: ''
        :name: APxxSTMF
        :notes: The level of imputation of period xx start time. See Section 3.1.3.
        :ct: TIMEFL
        :ct_notes: ''
        :compliance:
          :type: http://www.assero.co.uk/BusinessDomain#VariableCompliance
          :id: ''
          :namespace: ''
          :label: Conditional
          :extension_properties: []
      - :type: http://www.assero.co.uk/BusinessDomain#IgVariable
        :id: ''
        :namespace: ''
        :label: Period xx End Date
        :extension_properties: []
        :ordinal: 0
        :rule: ''
        :name: APxxEDT
        :notes: The ending date of period xx.
        :ct: ''
        :ct_notes: ''
        :compliance:
          :type: http://www.assero.co.uk/BusinessDomain#VariableCompliance
          :id: ''
          :namespace: ''
          :label: Permissible
          :extension_properties: []
      - :type: http://www.assero.co.uk/BusinessDomain#IgVariable
        :id: ''
        :namespace: ''
        :label: Period xx End Time
        :extension_properties: []
        :ordinal: 0
        :rule: ''
        :name: APxxETM
        :notes: The ending time of period xx.
        :ct: ''
        :ct_notes: ''
        :compliance:
          :type: http://www.assero.co.uk/BusinessDomain#VariableCompliance
          :id: ''
          :namespace: ''
          :label: Permissible
          :extension_properties: []
      - :type: http://www.assero.co.uk/BusinessDomain#IgVariable
        :id: ''
        :namespace: ''
        :label: Period xx End Datetime
        :extension_properties: []
        :ordinal: 0
        :rule: ''
        :name: APxxEDTM
        :notes: The ending datetime of period xx.
        :ct: ''
        :ct_notes: ''
        :compliance:
          :type: http://www.assero.co.uk/BusinessDomain#VariableCompliance
          :id: ''
          :namespace: ''
          :label: Permissible
          :extension_properties: []
      - :type: http://www.assero.co.uk/BusinessDomain#IgVariable
        :id: ''
        :namespace: ''
        :label: Period xx End Date Imput. Flag
        :extension_properties: []
        :ordinal: 0
        :rule: ''
        :name: APxxEDTF
        :notes: The level of imputation of period xx end date. See Section 3.1.3.
        :ct: DATEFL
        :ct_notes: ''
        :compliance:
          :type: http://www.assero.co.uk/BusinessDomain#VariableCompliance
          :id: ''
          :namespace: ''
          :label: Conditional
          :extension_properties: []
      - :type: http://www.assero.co.uk/BusinessDomain#IgVariable
        :id: ''
        :namespace: ''
        :label: Period xx End Time Imput. Flag
        :extension_properties: []
        :ordinal: 0
        :rule: ''
        :name: APxxETMF
        :notes: The level of imputation of period xx end time. See Section 3.1.3.
        :ct: TIMEFL
        :ct_notes: ''
        :compliance:
          :type: http://www.assero.co.uk/BusinessDomain#VariableCompliance
          :id: ''
          :namespace: ''
          :label: Conditional
          :extension_properties: []
      - :type: http://www.assero.co.uk/BusinessDomain#IgVariable
        :id: ''
        :namespace: ''
        :label: Description of  Period xx Subperiod w
        :extension_properties: []
        :ordinal: 0
        :rule: ''
        :name: PxxSw
        :notes: Description of analysis subperiod w within period xx.
        :ct: ''
        :ct_notes: ''
        :compliance:
          :type: http://www.assero.co.uk/BusinessDomain#VariableCompliance
          :id: ''
          :namespace: ''
          :label: Permissible
          :extension_properties: []
      - :type: http://www.assero.co.uk/BusinessDomain#IgVariable
        :id: ''
        :namespace: ''
        :label: Period xx Subperiod w Start Date
        :extension_properties: []
        :ordinal: 0
        :rule: ''
        :name: PxxSwSDT
        :notes: The starting date of subperiod w within period xx.
        :ct: ''
        :ct_notes: ''
        :compliance:
          :type: http://www.assero.co.uk/BusinessDomain#VariableCompliance
          :id: ''
          :namespace: ''
          :label: Permissible
          :extension_properties: []
      - :type: http://www.assero.co.uk/BusinessDomain#IgVariable
        :id: ''
        :namespace: ''
        :label: Period xx Subperiod w Start Time
        :extension_properties: []
        :ordinal: 0
        :rule: ''
        :name: PxxSwSTM
        :notes: The starting time of subperiod w within period xx.
        :ct: ''
        :ct_notes: ''
        :compliance:
          :type: http://www.assero.co.uk/BusinessDomain#VariableCompliance
          :id: ''
          :namespace: ''
          :label: Permissible
          :extension_properties: []
      - :type: http://www.assero.co.uk/BusinessDomain#IgVariable
        :id: ''
        :namespace: ''
        :label: Period xx Subperiod w Start Datetime
        :extension_properties: []
        :ordinal: 0
        :rule: ''
        :name: PxxSwSDM
        :notes: The starting datetime of subperiod w within period xx.
        :ct: ''
        :ct_notes: ''
        :compliance:
          :type: http://www.assero.co.uk/BusinessDomain#VariableCompliance
          :id: ''
          :namespace: ''
          :label: Permissible
          :extension_properties: []
      - :type: http://www.assero.co.uk/BusinessDomain#IgVariable
        :id: ''
        :namespace: ''
        :label: Period xx Subper w Start Date Imput Flag
        :extension_properties: []
        :ordinal: 0
        :rule: ''
        :name: PxxSwSDF
        :notes: The level of imputation of the start date for subperiod w within period
          xx. See Section 3.1.3.
        :ct: DATEFL
        :ct_notes: ''
        :compliance:
          :type: http://www.assero.co.uk/BusinessDomain#VariableCompliance
          :id: ''
          :namespace: ''
          :label: Conditional
          :extension_properties: []
      - :type: http://www.assero.co.uk/BusinessDomain#IgVariable
        :id: ''
        :namespace: ''
        :label: Period xx Subper w Start Time Imput Flag
        :extension_properties: []
        :ordinal: 0
        :rule: ''
        :name: PxxSwSTF
        :notes: The level of imputation of the start time for subperiod w within period
          xx. See Section 3.1.3.
        :ct: TIMEFL
        :ct_notes: ''
        :compliance:
          :type: http://www.assero.co.uk/BusinessDomain#VariableCompliance
          :id: ''
          :namespace: ''
          :label: Conditional
          :extension_properties: []
      - :type: http://www.assero.co.uk/BusinessDomain#IgVariable
        :id: ''
        :namespace: ''
        :label: Period xx Subperiod w End Date
        :extension_properties: []
        :ordinal: 0
        :rule: ''
        :name: PxxSwEDT
        :notes: The ending date of subperiod w within period xx.
        :ct: ''
        :ct_notes: ''
        :compliance:
          :type: http://www.assero.co.uk/BusinessDomain#VariableCompliance
          :id: ''
          :namespace: ''
          :label: Permissible
          :extension_properties: []
      - :type: http://www.assero.co.uk/BusinessDomain#IgVariable
        :id: ''
        :namespace: ''
        :label: Period xx Subperiod w End Time
        :extension_properties: []
        :ordinal: 0
        :rule: ''
        :name: PxxSwETM
        :notes: The ending time of subperiod w within period xx.
        :ct: ''
        :ct_notes: ''
        :compliance:
          :type: http://www.assero.co.uk/BusinessDomain#VariableCompliance
          :id: ''
          :namespace: ''
          :label: Permissible
          :extension_properties: []
      - :type: http://www.assero.co.uk/BusinessDomain#IgVariable
        :id: ''
        :namespace: ''
        :label: Period xx Subperiod w End Datetime
        :extension_properties: []
        :ordinal: 0
        :rule: ''
        :name: PxxSwEDM
        :notes: The ending datetime of subperiod w within period xx.
        :ct: ''
        :ct_notes: ''
        :compliance:
          :type: http://www.assero.co.uk/BusinessDomain#VariableCompliance
          :id: ''
          :namespace: ''
          :label: Permissible
          :extension_properties: []
      - :type: http://www.assero.co.uk/BusinessDomain#IgVariable
        :id: ''
        :namespace: ''
        :label: Period xx Subper w End Date Imput Flag
        :extension_properties: []
        :ordinal: 0
        :rule: ''
        :name: PxxSwEDF
        :notes: The level of imputation of the end date for subperiod w within period
          xx. See Section 3.1.3.
        :ct: DATEFL
        :ct_notes: ''
        :compliance:
          :type: http://www.assero.co.uk/BusinessDomain#VariableCompliance
          :id: ''
          :namespace: ''
          :label: Conditional
          :extension_properties: []
      - :type: http://www.assero.co.uk/BusinessDomain#IgVariable
        :id: ''
        :namespace: ''
        :label: Period xx Subper w End Time Imput Flag
        :extension_properties: []
        :ordinal: 0
        :rule: ''
        :name: PxxSwETF
        :notes: The level of imputation of the end time for subperiod w within period
          xx. See Section 3.1.3.
        :ct: TIMEFL
        :ct_notes: ''
        :compliance:
          :type: http://www.assero.co.uk/BusinessDomain#VariableCompliance
          :id: ''
          :namespace: ''
          :label: Conditional
          :extension_properties: []
      - :type: http://www.assero.co.uk/BusinessDomain#IgVariable
        :id: ''
        :namespace: ''
        :label: Description of Phase w
        :extension_properties: []
        :ordinal: 0
        :rule: ''
        :name: APHASEw
        :notes: Description of analysis phase w.
        :ct: ''
        :ct_notes: ''
        :compliance:
          :type: http://www.assero.co.uk/BusinessDomain#VariableCompliance
          :id: ''
          :namespace: ''
          :label: Permissible
          :extension_properties: []
      - :type: http://www.assero.co.uk/BusinessDomain#IgVariable
        :id: ''
        :namespace: ''
        :label: Phase w Start Date
        :extension_properties: []
        :ordinal: 0
        :rule: ''
        :name: PHwSDT
        :notes: The starting date of phase w.
        :ct: ''
        :ct_notes: ''
        :compliance:
          :type: http://www.assero.co.uk/BusinessDomain#VariableCompliance
          :id: ''
          :namespace: ''
          :label: Permissible
          :extension_properties: []
      - :type: http://www.assero.co.uk/BusinessDomain#IgVariable
        :id: ''
        :namespace: ''
        :label: Phase w Start Time
        :extension_properties: []
        :ordinal: 0
        :rule: ''
        :name: PHwSTM
        :notes: The starting time of phase w.
        :ct: ''
        :ct_notes: ''
        :compliance:
          :type: http://www.assero.co.uk/BusinessDomain#VariableCompliance
          :id: ''
          :namespace: ''
          :label: Permissible
          :extension_properties: []
      - :type: http://www.assero.co.uk/BusinessDomain#IgVariable
        :id: ''
        :namespace: ''
        :label: Phase w Start Datetime
        :extension_properties: []
        :ordinal: 0
        :rule: ''
        :name: PHwSDTM
        :notes: The starting datetime of phase w.
        :ct: ''
        :ct_notes: ''
        :compliance:
          :type: http://www.assero.co.uk/BusinessDomain#VariableCompliance
          :id: ''
          :namespace: ''
          :label: Permissible
          :extension_properties: []
      - :type: http://www.assero.co.uk/BusinessDomain#IgVariable
        :id: ''
        :namespace: ''
        :label: Phase w Start Date Imputation Flag
        :extension_properties: []
        :ordinal: 0
        :rule: ''
        :name: PHwSDTF
        :notes: The level of imputation of the start date for phase w. See Section
          3.1.3.
        :ct: DATEFL
        :ct_notes: ''
        :compliance:
          :type: http://www.assero.co.uk/BusinessDomain#VariableCompliance
          :id: ''
          :namespace: ''
          :label: Conditional
          :extension_properties: []
      - :type: http://www.assero.co.uk/BusinessDomain#IgVariable
        :id: ''
        :namespace: ''
        :label: Phase w Start Time Imputation Flag
        :extension_properties: []
        :ordinal: 0
        :rule: ''
        :name: PHwSTMF
        :notes: The level of imputation of the start time for phase w. See Section
          3.1.3.
        :ct: TIMEFL
        :ct_notes: ''
        :compliance:
          :type: http://www.assero.co.uk/BusinessDomain#VariableCompliance
          :id: ''
          :namespace: ''
          :label: Conditional
          :extension_properties: []
      - :type: http://www.assero.co.uk/BusinessDomain#IgVariable
        :id: ''
        :namespace: ''
        :label: Phase w End Date
        :extension_properties: []
        :ordinal: 0
        :rule: ''
        :name: PHwEDT
        :notes: The ending date of phase w.
        :ct: ''
        :ct_notes: ''
        :compliance:
          :type: http://www.assero.co.uk/BusinessDomain#VariableCompliance
          :id: ''
          :namespace: ''
          :label: Permissible
          :extension_properties: []
      - :type: http://www.assero.co.uk/BusinessDomain#IgVariable
        :id: ''
        :namespace: ''
        :label: Phase w End Time
        :extension_properties: []
        :ordinal: 0
        :rule: ''
        :name: PHwETM
        :notes: The ending time of phase w.
        :ct: ''
        :ct_notes: ''
        :compliance:
          :type: http://www.assero.co.uk/BusinessDomain#VariableCompliance
          :id: ''
          :namespace: ''
          :label: Permissible
          :extension_properties: []
      - :type: http://www.assero.co.uk/BusinessDomain#IgVariable
        :id: ''
        :namespace: ''
        :label: Phase w End Datetime
        :extension_properties: []
        :ordinal: 0
        :rule: ''
        :name: PHwEDTM
        :notes: The ending datetime of phase w.
        :ct: ''
        :ct_notes: ''
        :compliance:
          :type: http://www.assero.co.uk/BusinessDomain#VariableCompliance
          :id: ''
          :namespace: ''
          :label: Permissible
          :extension_properties: []
      - :type: http://www.assero.co.uk/BusinessDomain#IgVariable
        :id: ''
        :namespace: ''
        :label: Phase w End Date Imputation Flag
        :extension_properties: []
        :ordinal: 0
        :rule: ''
        :name: PHwEDTF
        :notes: The level of imputation of the end date for phase w. See Section 3.1.3.
        :ct: DATEFL
        :ct_notes: ''
        :compliance:
          :type: http://www.assero.co.uk/BusinessDomain#VariableCompliance
          :id: ''
          :namespace: ''
          :label: Conditional
          :extension_properties: []
      - :type: http://www.assero.co.uk/BusinessDomain#IgVariable
        :id: ''
        :namespace: ''
        :label: Phase w End Time Imputation Flag
        :extension_properties: []
        :ordinal: 0
        :rule: ''
        :name: PHwETMF
        :notes: The level of imputation of the end time for phase w. See Section 3.1.3.
        :ct: TIMEFL
        :ct_notes: ''
        :compliance:
          :type: http://www.assero.co.uk/BusinessDomain#VariableCompliance
          :id: ''
          :namespace: ''
          :label: Conditional
          :extension_properties: []
      - :type: http://www.assero.co.uk/BusinessDomain#IgVariable
        :id: ''
        :namespace: ''
        :label: End of Study Status
        :extension_properties: []
        :ordinal: 0
        :rule: ''
        :name: EOSSTT
        :notes: 'The subject’s status as of the end of study or data cutoff. Examples:
          COMPLETED, DISCONTINUED, ONGOING.'
        :ct: ''
        :ct_notes: ''
        :compliance:
          :type: http://www.assero.co.uk/BusinessDomain#VariableCompliance
          :id: ''
          :namespace: ''
          :label: Permissible
          :extension_properties: []
      - :type: http://www.assero.co.uk/BusinessDomain#IgVariable
        :id: ''
        :namespace: ''
        :label: End of Study Date
        :extension_properties: []
        :ordinal: 0
        :rule: ''
        :name: EOSDT
        :notes: Date subject ended the study – either date of completion or date of
          discontinuation or data cutoff date for interim analyses.
        :ct: ''
        :ct_notes: ''
        :compliance:
          :type: http://www.assero.co.uk/BusinessDomain#VariableCompliance
          :id: ''
          :namespace: ''
          :label: Permissible
          :extension_properties: []
      - :type: http://www.assero.co.uk/BusinessDomain#IgVariable
        :id: ''
        :namespace: ''
        :label: Reason for Discontinuation from Study
        :extension_properties: []
        :ordinal: 0
        :rule: ''
        :name: DCSREAS
        :notes: Reason for subject’s discontinuation from study. The source would
          most likely be the SDTM DS dataset. Null for subjects who completed the
          study.
        :ct: ''
        :ct_notes: ''
        :compliance:
          :type: http://www.assero.co.uk/BusinessDomain#VariableCompliance
          :id: ''
          :namespace: ''
          :label: Permissible
          :extension_properties: []
      - :type: http://www.assero.co.uk/BusinessDomain#IgVariable
        :id: ''
        :namespace: ''
        :label: Reason Spec for Discont from Study
        :extension_properties: []
        :ordinal: 0
        :rule: ''
        :name: DCSREASP
        :notes: Additional detail regarding subject’s discontinuation from study (e.g.,
          description of “other”).
        :ct: ''
        :ct_notes: ''
        :compliance:
          :type: http://www.assero.co.uk/BusinessDomain#VariableCompliance
          :id: ''
          :namespace: ''
          :label: Permissible
          :extension_properties: []
      - :type: http://www.assero.co.uk/BusinessDomain#IgVariable
        :id: ''
        :namespace: ''
        :label: End of Treatment Status
        :extension_properties: []
        :ordinal: 0
        :rule: ''
        :name: EOTSTT
        :notes: 'The subject’s status as of the end of treatment or data cutoff. Examples:
          COMPLETED, DISCONTINUED, ONGOING.'
        :ct: ''
        :ct_notes: ''
        :compliance:
          :type: http://www.assero.co.uk/BusinessDomain#VariableCompliance
          :id: ''
          :namespace: ''
          :label: Permissible
          :extension_properties: []
      - :type: http://www.assero.co.uk/BusinessDomain#IgVariable
        :id: ''
        :namespace: ''
        :label: Reason for Discontinuation of Treatment
        :extension_properties: []
        :ordinal: 0
        :rule: ''
        :name: DCTREAS
        :notes: If a subject discontinued treatment in the study, then this variable
          indicates the reason for discontinuation. This is for discontinuation of
          treatment in the overall study and not to be used for discontinuation reason
          within individual treatment periods.
        :ct: ''
        :ct_notes: ''
        :compliance:
          :type: http://www.assero.co.uk/BusinessDomain#VariableCompliance
          :id: ''
          :namespace: ''
          :label: Permissible
          :extension_properties: []
      - :type: http://www.assero.co.uk/BusinessDomain#IgVariable
        :id: ''
        :namespace: ''
        :label: Reason Specify for Discont of Treatment
        :extension_properties: []
        :ordinal: 0
        :rule: ''
        :name: DCTREASP
        :notes: Additional detail regarding subject’s discontinuation from treatment
          (e.g., description of “other”).
        :ct: ''
        :ct_notes: ''
        :compliance:
          :type: http://www.assero.co.uk/BusinessDomain#VariableCompliance
          :id: ''
          :namespace: ''
          :label: Permissible
          :extension_properties: []
      - :type: http://www.assero.co.uk/BusinessDomain#IgVariable
        :id: ''
        :namespace: ''
        :label: End of Treatment Status in Period xx
        :extension_properties: []
        :ordinal: 0
        :rule: ''
        :name: EOTxxSTT
        :notes: 'The subject’s treatment status as of the end of period xx, or data
          cutoff if within period xx. Examples: COMPLETED, DISCONTINUED, ONGOING.'
        :ct: ''
        :ct_notes: ''
        :compliance:
          :type: http://www.assero.co.uk/BusinessDomain#VariableCompliance
          :id: ''
          :namespace: ''
          :label: Permissible
          :extension_properties: []
      - :type: http://www.assero.co.uk/BusinessDomain#IgVariable
        :id: ''
        :namespace: ''
        :label: Reason for Discont of Treat in Period xx
        :extension_properties: []
        :ordinal: 0
        :rule: ''
        :name: DCTxxRS
        :notes: Reason for discontinuing treatment in period xx.
        :ct: ''
        :ct_notes: ''
        :compliance:
          :type: http://www.assero.co.uk/BusinessDomain#VariableCompliance
          :id: ''
          :namespace: ''
          :label: Permissible
          :extension_properties: []
      - :type: http://www.assero.co.uk/BusinessDomain#IgVariable
        :id: ''
        :namespace: ''
        :label: Reason Spec for Disc of Trt in Period xx
        :extension_properties: []
        :ordinal: 0
        :rule: ''
        :name: DCTxxRSP
        :notes: Additional detail regarding subject’s discontinuation of treatment
          in period xx (e.g., description of “other”).
        :ct: ''
        :ct_notes: ''
        :compliance:
          :type: http://www.assero.co.uk/BusinessDomain#VariableCompliance
          :id: ''
          :namespace: ''
          :label: Permissible
          :extension_properties: []
      - :type: http://www.assero.co.uk/BusinessDomain#IgVariable
        :id: ''
        :namespace: ''
        :label: End of Period xx Status
        :extension_properties: []
        :ordinal: 0
        :rule: ''
        :name: EOPxxSTT
        :notes: 'The subject’s status as of the end of period xx, or data cutoff if
          within period xx. Examples: COMPLETED, DISCONTINUED, ONGOING.'
        :ct: ''
        :ct_notes: ''
        :compliance:
          :type: http://www.assero.co.uk/BusinessDomain#VariableCompliance
          :id: ''
          :namespace: ''
          :label: Permissible
          :extension_properties: []
      - :type: http://www.assero.co.uk/BusinessDomain#IgVariable
        :id: ''
        :namespace: ''
        :label: Reason for Discont from Period xx
        :extension_properties: []
        :ordinal: 0
        :rule: ''
        :name: DCPxxRS
        :notes: Reason for discontinuing analysis period xx.
        :ct: ''
        :ct_notes: ''
        :compliance:
          :type: http://www.assero.co.uk/BusinessDomain#VariableCompliance
          :id: ''
          :namespace: ''
          :label: Permissible
          :extension_properties: []
      - :type: http://www.assero.co.uk/BusinessDomain#IgVariable
        :id: ''
        :namespace: ''
        :label: Reason Spec for Discont from Period xx
        :extension_properties: []
        :ordinal: 0
        :rule: ''
        :name: DCPxxRSP
        :notes: Additional detail regarding subject’s discontinuation from period
          xx (e.g., description of “other”).
        :ct: ''
        :ct_notes: ''
        :compliance:
          :type: http://www.assero.co.uk/BusinessDomain#VariableCompliance
          :id: ''
          :namespace: ''
          :label: Permissible
          :extension_properties: []
      - :type: http://www.assero.co.uk/BusinessDomain#IgVariable
        :id: ''
        :namespace: ''
        :label: Date of Informed Consent
        :extension_properties: []
        :ordinal: 0
        :rule: ''
        :name: RFICDT
        :notes: Date subject gave informed consent. Generally equivalent to DM.RFICDTC.
        :ct: ''
        :ct_notes: ''
        :compliance:
          :type: http://www.assero.co.uk/BusinessDomain#VariableCompliance
          :id: ''
          :namespace: ''
          :label: Permissible
          :extension_properties: []
      - :type: http://www.assero.co.uk/BusinessDomain#IgVariable
        :id: ''
        :namespace: ''
        :label: Date of Enrollment
        :extension_properties: []
        :ordinal: 0
        :rule: ''
        :name: ENRLDT
        :notes: Date of subject’s enrollment into trial.
        :ct: ''
        :ct_notes: ''
        :compliance:
          :type: http://www.assero.co.uk/BusinessDomain#VariableCompliance
          :id: ''
          :namespace: ''
          :label: Permissible
          :extension_properties: []
      - :type: http://www.assero.co.uk/BusinessDomain#IgVariable
        :id: ''
        :namespace: ''
        :label: Date of Randomization
        :extension_properties: []
        :ordinal: 0
        :rule: ''
        :name: RANDDT
        :notes: Required in randomized trials.
        :ct: ''
        :ct_notes: ''
        :compliance:
          :type: http://www.assero.co.uk/BusinessDomain#VariableCompliance
          :id: ''
          :namespace: ''
          :label: Conditional
          :extension_properties: []
      - :type: http://www.assero.co.uk/BusinessDomain#IgVariable
        :id: ''
        :namespace: ''
        :label: Date of Informed Consent y
        :extension_properties: []
        :ordinal: 0
        :rule: ''
        :name: RFICyDT
        :notes: This variable may be used in the case where there are multiple consent
          dates within a study. This date does not need to repeat the date in RFICDT.
          ‘y’ can start with 1 but it is not required to start with 1.
        :ct: ''
        :ct_notes: ''
        :compliance:
          :type: http://www.assero.co.uk/BusinessDomain#VariableCompliance
          :id: ''
          :namespace: ''
          :label: Permissible
          :extension_properties: []
      - :type: http://www.assero.co.uk/BusinessDomain#IgVariable
        :id: ''
        :namespace: ''
        :label: Date of Enrollment y
        :extension_properties: []
        :ordinal: 0
        :rule: ''
        :name: ENRLyDT
        :notes: This variable may be used in the case where there are multiple enrollment
          dates within a study. This date does not need to repeat the date in ENRLDT.
          ‘y’ can start with 1 but it is not required to start with 1.
        :ct: ''
        :ct_notes: ''
        :compliance:
          :type: http://www.assero.co.uk/BusinessDomain#VariableCompliance
          :id: ''
          :namespace: ''
          :label: Permissible
          :extension_properties: []
      - :type: http://www.assero.co.uk/BusinessDomain#IgVariable
        :id: ''
        :namespace: ''
        :label: Date of Randomization y
        :extension_properties: []
        :ordinal: 0
        :rule: ''
        :name: RANDyDT
        :notes: This variable may be used in the case where there are multiple randomization
          dates within a study. This date does not need to repeat the date in RANDDT.
          ‘y’ can start with 1 but it is not required to start with 1.
        :ct: ''
        :ct_notes: ''
        :compliance:
          :type: http://www.assero.co.uk/BusinessDomain#VariableCompliance
          :id: ''
          :namespace: ''
          :label: Permissible
          :extension_properties: []
      - :type: http://www.assero.co.uk/BusinessDomain#IgVariable
        :id: ''
        :namespace: ''
        :label: Date Last Known Alive
        :extension_properties: []
        :ordinal: 0
        :rule: ''
        :name: LSTALVDT
        :notes: If this variable is included in ADSL, the best practice is to populate
          it for everyone. If the derivation for subjects who died differs from the
          derivation for subjects who are not known to have died, the differences
          should be noted in metadata.
        :ct: ''
        :ct_notes: ''
        :compliance:
          :type: http://www.assero.co.uk/BusinessDomain#VariableCompliance
          :id: ''
          :namespace: ''
          :label: Permissible
          :extension_properties: []
      - :type: http://www.assero.co.uk/BusinessDomain#IgVariable
        :id: ''
        :namespace: ''
        :label: Treatment Compliance (%)
        :extension_properties: []
        :ordinal: 0
        :rule: ''
        :name: TRCMP
        :notes: Overall percent compliance with treatment in the trial. TRCMP may
          be useful for inclusion in ADSL for reasons such as defining subgroups and/or
          populations.
        :ct: ''
        :ct_notes: ''
        :compliance:
          :type: http://www.assero.co.uk/BusinessDomain#VariableCompliance
          :id: ''
          :namespace: ''
          :label: Permissible
          :extension_properties: []
      - :type: http://www.assero.co.uk/BusinessDomain#IgVariable
        :id: ''
        :namespace: ''
        :label: Treatment Compliance (%) Group y
        :extension_properties: []
        :ordinal: 0
        :rule: ''
        :name: TRCMPGy
        :notes: Grouping ‘y’ of TRCMP, treatment compliance percentage.
        :ct: ''
        :ct_notes: ''
        :compliance:
          :type: http://www.assero.co.uk/BusinessDomain#VariableCompliance
          :id: ''
          :namespace: ''
          :label: Permissible
          :extension_properties: []
      - :type: http://www.assero.co.uk/BusinessDomain#IgVariable
        :id: ''
        :namespace: ''
        :label: Treatment Compliance (%) Group y (N)
        :extension_properties: []
        :ordinal: 0
        :rule: ''
        :name: TRCMPGyN
        :notes: Numeric version of treatment compliance (%) grouping ‘y’. Must have
          a one-to-one mapping to TRCMPGy.
        :ct: ''
        :ct_notes: ''
        :compliance:
          :type: http://www.assero.co.uk/BusinessDomain#VariableCompliance
          :id: ''
          :namespace: ''
          :label: Permissible
          :extension_properties: []
      - :type: http://www.assero.co.uk/BusinessDomain#IgVariable
        :id: ''
        :namespace: ''
        :label: Treatment Duration in Period xx (Days)
        :extension_properties: []
        :ordinal: 0
        :rule: ''
        :name: TRxxDURD
        :notes: Treatment duration for period xx as measured in days. More than one
          of TRxxDURD, TRxxDURM, and TRxxDURY can be populated, but each represents
          the entire duration in its respective units.
        :ct: ''
        :ct_notes: ''
        :compliance:
          :type: http://www.assero.co.uk/BusinessDomain#VariableCompliance
          :id: ''
          :namespace: ''
          :label: Permissible
          :extension_properties: []
      - :type: http://www.assero.co.uk/BusinessDomain#IgVariable
        :id: ''
        :namespace: ''
        :label: Treatment Duration in Period xx (Months)
        :extension_properties: []
        :ordinal: 0
        :rule: ''
        :name: TRxxDURM
        :notes: Treatment duration for period xx, as measure in months. More than
          one of TRxxDURD, TRxxDURM, and TRxxDURY can be populated, but each represents
          the entire duration in its respective units.
        :ct: ''
        :ct_notes: ''
        :compliance:
          :type: http://www.assero.co.uk/BusinessDomain#VariableCompliance
          :id: ''
          :namespace: ''
          :label: Permissible
          :extension_properties: []
      - :type: http://www.assero.co.uk/BusinessDomain#IgVariable
        :id: ''
        :namespace: ''
        :label: Treatment Duration in Period xx (Years)
        :extension_properties: []
        :ordinal: 0
        :rule: ''
        :name: TRxxDURY
        :notes: Treatment duration for period xx, as measured in years. More than
          one of TRxxDURD, TRxxDURM, and TRxxDURY can be populated, but each represents
          the entire duration in its respective units.
        :ct: ''
        :ct_notes: ''
        :compliance:
          :type: http://www.assero.co.uk/BusinessDomain#VariableCompliance
          :id: ''
          :namespace: ''
          :label: Permissible
          :extension_properties: []
      - :type: http://www.assero.co.uk/BusinessDomain#IgVariable
        :id: ''
        :namespace: ''
        :label: Total Treatment Duration (Days)
        :extension_properties: []
        :ordinal: 0
        :rule: ''
        :name: TRTDURD
        :notes: Total treatment duration, as measured in days. More than one of TRTDURD,
          TRTDURM, and TRTDURY can be populated, but each represents the entire duration
          in its respective units.
        :ct: ''
        :ct_notes: ''
        :compliance:
          :type: http://www.assero.co.uk/BusinessDomain#VariableCompliance
          :id: ''
          :namespace: ''
          :label: Permissible
          :extension_properties: []
      - :type: http://www.assero.co.uk/BusinessDomain#IgVariable
        :id: ''
        :namespace: ''
        :label: Total Treatment Duration (Months)
        :extension_properties: []
        :ordinal: 0
        :rule: ''
        :name: TRTDURM
        :notes: Total treatment duration, as measured in months. More than one of
          TRTDURD, TRTDURM, and TRTDURY can be populated, but each represents the
          entire duration in its respective units.
        :ct: ''
        :ct_notes: ''
        :compliance:
          :type: http://www.assero.co.uk/BusinessDomain#VariableCompliance
          :id: ''
          :namespace: ''
          :label: Permissible
          :extension_properties: []
      - :type: http://www.assero.co.uk/BusinessDomain#IgVariable
        :id: ''
        :namespace: ''
        :label: Total Treatment Duration (Years)
        :extension_properties: []
        :ordinal: 0
        :rule: ''
        :name: TRTDURY
        :notes: Total treatment duration, as measured in years. More than one of TRTDURD,
          TRTDURM, and TRTDURY can be populated, but each represents the entire duration
          in its respective units.
        :ct: ''
        :ct_notes: ''
        :compliance:
          :type: http://www.assero.co.uk/BusinessDomain#VariableCompliance
          :id: ''
          :namespace: ''
          :label: Permissible
          :extension_properties: []
      - :type: http://www.assero.co.uk/BusinessDomain#IgVariable
        :id: ''
        :namespace: ''
        :label: Date of Death
        :extension_properties: []
        :ordinal: 0
        :rule: ''
        :name: DTHDT
        :notes: Date of subject’s death. Derived from DM.DTHDTC.
        :ct: ''
        :ct_notes: ''
        :compliance:
          :type: http://www.assero.co.uk/BusinessDomain#VariableCompliance
          :id: ''
          :namespace: ''
          :label: Permissible
          :extension_properties: []
      - :type: http://www.assero.co.uk/BusinessDomain#IgVariable
        :id: ''
        :namespace: ''
        :label: Date of Death Imputation Flag
        :extension_properties: []
        :ordinal: 0
        :rule: ''
        :name: DTHDTF
        :notes: Imputation flag for date of subject’s death. If DTHDT was imputed,
          DTHDTF must be populated and is required. See Section 3.1.3.
        :ct: ''
        :ct_notes: ''
        :compliance:
          :type: http://www.assero.co.uk/BusinessDomain#VariableCompliance
          :id: ''
          :namespace: ''
          :label: Conditional
          :extension_properties: []
      - :type: http://www.assero.co.uk/BusinessDomain#IgVariable
        :id: ''
        :namespace: ''
        :label: Cause of Death
        :extension_properties: []
        :ordinal: 0
        :rule: ''
        :name: DTHCAUS
        :notes: Cause of Death.
        :ct: ''
        :ct_notes: ''
        :compliance:
          :type: http://www.assero.co.uk/BusinessDomain#VariableCompliance
          :id: ''
          :namespace: ''
          :label: Permissible
          :extension_properties: []
      - :type: http://www.assero.co.uk/BusinessDomain#IgVariable
        :id: ''
        :namespace: ''
        :label: Cause of Death (N)
        :extension_properties: []
        :ordinal: 0
        :rule: ''
        :name: DTHCAUSN
        :notes: Numeric representation of cause of death. Must have a one-to-one mapping
          to DTHCAUS.
        :ct: ''
        :ct_notes: ''
        :compliance:
          :type: http://www.assero.co.uk/BusinessDomain#VariableCompliance
          :id: ''
          :namespace: ''
          :label: Permissible
          :extension_properties: []
      - :type: http://www.assero.co.uk/BusinessDomain#IgVariable
        :id: ''
        :namespace: ''
        :label: Cause of Death Group y
        :extension_properties: []
        :ordinal: 0
        :rule: ''
        :name: DTHCGRy
        :notes: Grouping ‘y’ of DTHCAUS, the subject’s cause of death.
        :ct: ''
        :ct_notes: ''
        :compliance:
          :type: http://www.assero.co.uk/BusinessDomain#VariableCompliance
          :id: ''
          :namespace: ''
          :label: Permissible
          :extension_properties: []
      - :type: http://www.assero.co.uk/BusinessDomain#IgVariable
        :id: ''
        :namespace: ''
        :label: Study Identifier
        :extension_properties: []
        :ordinal: 0
        :rule: ''
        :name: STUDYID
        :notes: DM.STUDYID
        :ct: ''
        :ct_notes: ''
        :compliance:
          :type: http://www.assero.co.uk/BusinessDomain#VariableCompliance
          :id: ''
          :namespace: ''
          :label: Required
          :extension_properties: []
- :type: ADAM IG DATASET
  :order: 2
  :instance:
    :operation:
      :action: CREATE
      :new_version: 1
      :new_semantic_version: 0.0.0
      :new_state: Standard
      :identifier_edit: true
    :managed_item:
      :type: http://www.assero.co.uk/BusinessDomain#IgDomain
      :id: ''
      :namespace: ''
      :label: Basic Data Structure
      :extension_properties: []
      :origin: ''
      :change_description: ''
      :creation_date: '2018-01-01'
      :last_changed_date: '2018-10-30T14:22:50+00:00'
      :explanatory_comment: ''
      :registration_state:
        :namespace: http://www.assero.co.uk/MDRItems
        :id: ''
        :registration_authority:
          :id: ''
          :number: "<Not Set>"
          :scheme: DUNS
          :owner: false
          :namespace:
            :namespace: ''
            :id: ''
            :name: ''
            :shortName: ''
        :registration_status: Not_Set
        :administrative_note: ''
        :effective_date: '2016-01-01T00:00:00+00:00'
        :until_date: '2016-01-01T00:00:00+00:00'
        :current: false
        :unresolved_issue: ''
        :administrative_status: ''
        :previous_state: Not_Set
      :scoped_identifier:
        :id: ''
        :identifier: ADAMIG BDS
        :version_label: 
        :version: 0
        :semantic_version: 0.0.0
        :namespace:
          :namespace: ''
          :id: ''
          :name: ''
          :shortName: ''
      :ordinal: 2
      :rule: ''
      :prefix: "--"
      :structure: ''
      :children:
      - :type: http://www.assero.co.uk/BusinessDomain#IgVariable
        :id: ''
        :namespace: ''
        :label: Source Sequence Number
        :extension_properties: []
        :ordinal: 0
        :rule: ''
        :name: SRCSEQ
        :notes: The sequence number --SEQ or ASEQ of the row (in the domain or dataset
          identified by SRCDOM) that relates to the analysis value (e.g., AVAL or
          AVALC in a BDS dataset). In the event that SRCDOM is a SUPPQUAL, then this
          variable will contain the sequence number of the relevant related domain
          record.
        :ct: ''
        :ct_notes: ''
        :compliance:
          :type: http://www.assero.co.uk/BusinessDomain#VariableCompliance
          :id: ''
          :namespace: ''
          :label: Permissible
          :extension_properties: []
      - :type: http://www.assero.co.uk/BusinessDomain#IgVariable
        :id: ''
        :namespace: ''
        :label: Unique Subject Identifier
        :extension_properties: []
        :ordinal: 0
        :rule: ''
        :name: USUBJID
        :notes: DM.USUBJID
        :ct: ''
        :ct_notes: ''
        :compliance:
          :type: http://www.assero.co.uk/BusinessDomain#VariableCompliance
          :id: ''
          :namespace: ''
          :label: Required
          :extension_properties: []
      - :type: http://www.assero.co.uk/BusinessDomain#IgVariable
        :id: ''
        :namespace: ''
        :label: Subject Identifier for the Study
        :extension_properties: []
        :ordinal: 0
        :rule: ''
        :name: SUBJID
        :notes: DM.SUBJID. SUBJID is required in ADSL, but permissible in other datasets.
        :ct: ''
        :ct_notes: ''
        :compliance:
          :type: http://www.assero.co.uk/BusinessDomain#VariableCompliance
          :id: ''
          :namespace: ''
          :label: Permissible
          :extension_properties: []
      - :type: http://www.assero.co.uk/BusinessDomain#IgVariable
        :id: ''
        :namespace: ''
        :label: Study Site Identifier
        :extension_properties: []
        :ordinal: 0
        :rule: ''
        :name: SITEID
        :notes: DM.SITEID. SITEID is required in ADSL, but permissible in other datasets.
        :ct: ''
        :ct_notes: ''
        :compliance:
          :type: http://www.assero.co.uk/BusinessDomain#VariableCompliance
          :id: ''
          :namespace: ''
          :label: Permissible
          :extension_properties: []
      - :type: http://www.assero.co.uk/BusinessDomain#IgVariable
        :id: ''
        :namespace: ''
        :label: Analysis Sequence Number
        :extension_properties: []
        :ordinal: 0
        :rule: ''
        :name: ASEQ
        :notes: "Sequence number given to ensure uniqueness of subject records within
          an ADaM dataset. As long as values are unique within a subject within the
          dataset, any valid number can be used for ASEQ. ASEQ uniquely indexes records
          within a subject within an ADaM dataset.\n\nASEQ is useful for traceability
          when the dataset is used as input to another ADaM dataset. To refer to a
          record in a predecessor ADaM dataset, set SRCDOM to the name of the predecessor
          dataset, and set SRCSEQ to the value of ASEQ in the predecessor dataset.
          \nnumber can be used for ASEQ. ASEQ uniquely indexes records within a subject
          within an ADaM dataset."
        :ct: ''
        :ct_notes: ''
        :compliance:
          :type: http://www.assero.co.uk/BusinessDomain#VariableCompliance
          :id: ''
          :namespace: ''
          :label: Permissible
          :extension_properties: []
      - :type: http://www.assero.co.uk/BusinessDomain#IgVariable
        :id: ''
        :namespace: ''
        :label: Planned Treatment
        :extension_properties: []
        :ordinal: 0
        :rule: ''
        :name: TRTP
        :notes: |-
          TRTP is a record-level identifier that represents the planned treatment attributed to a record for analysis purposes. TRTP indicates how treatment varies by record within a subject and enables analysis of crossover and other designs. Though there is no requirement that TRTP will correspond to the TRTxxP as defined by the record’s value of APERIOD, if populated, TRTP must match at least one value of the character planned treatment variables in ADSL (e.g., TRTxxP, TRTSEQP, TRxxPGy).

          As noted previously, at least one treatment variable is required even in non-randomized trials. This requirement is satisfied by any subject-level or record-level treatment variables (e.g., TRTxxP, TRTP, TRTA). Even if not used for analysis, any ADSL treatment variable may be included in the BDS dataset.
        :ct: ''
        :ct_notes: ''
        :compliance:
          :type: http://www.assero.co.uk/BusinessDomain#VariableCompliance
          :id: ''
          :namespace: ''
          :label: Conditional
          :extension_properties: []
      - :type: http://www.assero.co.uk/BusinessDomain#IgVariable
        :id: ''
        :namespace: ''
        :label: Planned Treatment (N)
        :extension_properties: []
        :ordinal: 0
        :rule: ''
        :name: TRTPN
        :notes: The numeric code for TRTP. One-to-one mapping within a study to TRTP.
        :ct: ''
        :ct_notes: ''
        :compliance:
          :type: http://www.assero.co.uk/BusinessDomain#VariableCompliance
          :id: ''
          :namespace: ''
          :label: Permissible
          :extension_properties: []
      - :type: http://www.assero.co.uk/BusinessDomain#IgVariable
        :id: ''
        :namespace: ''
        :label: Actual Treatment
        :extension_properties: []
        :ordinal: 0
        :rule: ''
        :name: TRTA
        :notes: "TRTA is a record-level identifier that represents the actual treatment
          attributed to a record for analysis purposes. TRTA indicates how treatment
          varies by record within a subject and enables analysis of crossover and
          other multi-period designs. Though there is no requirement that TRTA will
          correspond to the TRTxxA as defined by the record’s value of APERIOD, TRTA
          must match at least one value of the character actual treatment variables
          in ADSL (e.g., TRTxxA, TRTSEQA, TRxxAGy). \n\nAs noted previously, at least
          one treatment variable is required. This requirement is satisfied by any
          subject-level or record-level treatment variables (e.g., TRTxxP, TRTP, TRTA).
          Even if not used for analysis, any ADSL treatment variable may be included
          in the BDS dataset."
        :ct: ''
        :ct_notes: ''
        :compliance:
          :type: http://www.assero.co.uk/BusinessDomain#VariableCompliance
          :id: ''
          :namespace: ''
          :label: Conditional
          :extension_properties: []
      - :type: http://www.assero.co.uk/BusinessDomain#IgVariable
        :id: ''
        :namespace: ''
        :label: Actual Treatment (N)
        :extension_properties: []
        :ordinal: 0
        :rule: ''
        :name: TRTAN
        :notes: The numeric code for TRTA. One-to-one mapping within a study to TRTA.
        :ct: ''
        :ct_notes: ''
        :compliance:
          :type: http://www.assero.co.uk/BusinessDomain#VariableCompliance
          :id: ''
          :namespace: ''
          :label: Permissible
          :extension_properties: []
      - :type: http://www.assero.co.uk/BusinessDomain#IgVariable
        :id: ''
        :namespace: ''
        :label: Planned Pooled Treatment y
        :extension_properties: []
        :ordinal: 0
        :rule: ''
        :name: TRTPGy
        :notes: TRTPGy is the planned pooled treatment y attributed to a record for
          analysis purposes. “y” represents an integer [1-99, not zero-padded] corresponding
          to a particular pooling scheme. Useful when planned treatments (TRTP) are
          pooled together for analysis, for example when all doses of Drug A (TRTPG1=All
          doses of Drug A) are compared to all doses of Drug B (TRTPG1=All doses of
          Drug B). Each value of TRTP is pooled within at most one value of TRTPGy.
        :ct: ''
        :ct_notes: ''
        :compliance:
          :type: http://www.assero.co.uk/BusinessDomain#VariableCompliance
          :id: ''
          :namespace: ''
          :label: Permissible
          :extension_properties: []
      - :type: http://www.assero.co.uk/BusinessDomain#IgVariable
        :id: ''
        :namespace: ''
        :label: Planned Pooled Treatment y (N)
        :extension_properties: []
        :ordinal: 0
        :rule: ''
        :name: TRTPGyN
        :notes: The numeric code for TRTPGy. One-to-one mapping within a study to
          TRTPGy.
        :ct: ''
        :ct_notes: ''
        :compliance:
          :type: http://www.assero.co.uk/BusinessDomain#VariableCompliance
          :id: ''
          :namespace: ''
          :label: Permissible
          :extension_properties: []
      - :type: http://www.assero.co.uk/BusinessDomain#IgVariable
        :id: ''
        :namespace: ''
        :label: Actual Pooled Treatment y
        :extension_properties: []
        :ordinal: 0
        :rule: ''
        :name: TRTAGy
        :notes: TRTAGy is the actual pooled treatment y attributed to a record for
          analysis purposes. “y” represents an integer [1-99, not zero-padded] corresponding
          to a particular pooling scheme. Required when TRTPGy is present and TRTA
          is present.
        :ct: ''
        :ct_notes: ''
        :compliance:
          :type: http://www.assero.co.uk/BusinessDomain#VariableCompliance
          :id: ''
          :namespace: ''
          :label: Conditional
          :extension_properties: []
      - :type: http://www.assero.co.uk/BusinessDomain#IgVariable
        :id: ''
        :namespace: ''
        :label: Actual Pooled Treatment y (N)
        :extension_properties: []
        :ordinal: 0
        :rule: ''
        :name: TRTAGyN
        :notes: The numeric code for TRTAGy. One-to-one mapping within a study to
          TRTAGy.
        :ct: ''
        :ct_notes: ''
        :compliance:
          :type: http://www.assero.co.uk/BusinessDomain#VariableCompliance
          :id: ''
          :namespace: ''
          :label: Permissible
          :extension_properties: []
      - :type: http://www.assero.co.uk/BusinessDomain#IgVariable
        :id: ''
        :namespace: ''
        :label: Planned Treatment Dose
        :extension_properties: []
        :ordinal: 0
        :rule: ''
        :name: DOSEP
        :notes: DOSEP represents the planned treatment dosage associated with the
          record.
        :ct: ''
        :ct_notes: ''
        :compliance:
          :type: http://www.assero.co.uk/BusinessDomain#VariableCompliance
          :id: ''
          :namespace: ''
          :label: Permissible
          :extension_properties: []
      - :type: http://www.assero.co.uk/BusinessDomain#IgVariable
        :id: ''
        :namespace: ''
        :label: Cumulative Planned Treatment Dose
        :extension_properties: []
        :ordinal: 0
        :rule: ''
        :name: DOSCUMP
        :notes: Cumulative planned dosage of treatment for the subject at the point
          in time of the record (e.g., ADT).
        :ct: ''
        :ct_notes: ''
        :compliance:
          :type: http://www.assero.co.uk/BusinessDomain#VariableCompliance
          :id: ''
          :namespace: ''
          :label: Permissible
          :extension_properties: []
      - :type: http://www.assero.co.uk/BusinessDomain#IgVariable
        :id: ''
        :namespace: ''
        :label: Actual Treatment Dose
        :extension_properties: []
        :ordinal: 0
        :rule: ''
        :name: DOSEA
        :notes: DOSEA represents the actual treatment dosage associated with the record.
        :ct: ''
        :ct_notes: ''
        :compliance:
          :type: http://www.assero.co.uk/BusinessDomain#VariableCompliance
          :id: ''
          :namespace: ''
          :label: Permissible
          :extension_properties: []
      - :type: http://www.assero.co.uk/BusinessDomain#IgVariable
        :id: ''
        :namespace: ''
        :label: Cumulative Actual Treatment Dose
        :extension_properties: []
        :ordinal: 0
        :rule: ''
        :name: DOSCUMA
        :notes: Cumulative actual dosage of treatment for the subject at the point
          in time of the record (e.g., ADT).
        :ct: ''
        :ct_notes: ''
        :compliance:
          :type: http://www.assero.co.uk/BusinessDomain#VariableCompliance
          :id: ''
          :namespace: ''
          :label: Permissible
          :extension_properties: []
      - :type: http://www.assero.co.uk/BusinessDomain#IgVariable
        :id: ''
        :namespace: ''
        :label: Treatment Dose Units
        :extension_properties: []
        :ordinal: 0
        :rule: ''
        :name: DOSEU
        :notes: The units for DOSEP, DOSCUMP, DOSEA, and DOSCUMA. It is permissible
          to use suffixes such as “P” and “A” if needed, with labels modified accordingly.
        :ct: ''
        :ct_notes: ''
        :compliance:
          :type: http://www.assero.co.uk/BusinessDomain#VariableCompliance
          :id: ''
          :namespace: ''
          :label: Permissible
          :extension_properties: []
      - :type: http://www.assero.co.uk/BusinessDomain#IgVariable
        :id: ''
        :namespace: ''
        :label: Analysis Date
        :extension_properties: []
        :ordinal: 0
        :rule: ''
        :name: ADT
        :notes: The date associated with AVAL and/or AVALC in numeric format.
        :ct: ''
        :ct_notes: ''
        :compliance:
          :type: http://www.assero.co.uk/BusinessDomain#VariableCompliance
          :id: ''
          :namespace: ''
          :label: Permissible
          :extension_properties: []
      - :type: http://www.assero.co.uk/BusinessDomain#IgVariable
        :id: ''
        :namespace: ''
        :label: Analysis Time
        :extension_properties: []
        :ordinal: 0
        :rule: ''
        :name: ATM
        :notes: The time associated with AVAL and/or AVALC in numeric format.
        :ct: ''
        :ct_notes: ''
        :compliance:
          :type: http://www.assero.co.uk/BusinessDomain#VariableCompliance
          :id: ''
          :namespace: ''
          :label: Permissible
          :extension_properties: []
      - :type: http://www.assero.co.uk/BusinessDomain#IgVariable
        :id: ''
        :namespace: ''
        :label: Analysis Datetime
        :extension_properties: []
        :ordinal: 0
        :rule: ''
        :name: ADTM
        :notes: The datetime associated with AVAL and/or AVALC in numeric format.
        :ct: ''
        :ct_notes: ''
        :compliance:
          :type: http://www.assero.co.uk/BusinessDomain#VariableCompliance
          :id: ''
          :namespace: ''
          :label: Permissible
          :extension_properties: []
      - :type: http://www.assero.co.uk/BusinessDomain#IgVariable
        :id: ''
        :namespace: ''
        :label: Analysis Relative Day
        :extension_properties: []
        :ordinal: 0
        :rule: ''
        :name: ADY
        :notes: The relative day of AVAL and/or AVALC. The number of days from an
          anchor date (not necessarily DM.RFSTDTC) to ADT. See Section 3.1.2.
        :ct: ''
        :ct_notes: ''
        :compliance:
          :type: http://www.assero.co.uk/BusinessDomain#VariableCompliance
          :id: ''
          :namespace: ''
          :label: Permissible
          :extension_properties: []
      - :type: http://www.assero.co.uk/BusinessDomain#IgVariable
        :id: ''
        :namespace: ''
        :label: Analysis Date Imputation Flag
        :extension_properties: []
        :ordinal: 0
        :rule: ''
        :name: ADTF
        :notes: The level of imputation of analysis date. If ADT (or the date part
          of ADTM) was imputed, ADTF must be populated and is required. See Section
          3.1.3.
        :ct: DATEFL
        :ct_notes: ''
        :compliance:
          :type: http://www.assero.co.uk/BusinessDomain#VariableCompliance
          :id: ''
          :namespace: ''
          :label: Conditional
          :extension_properties: []
      - :type: http://www.assero.co.uk/BusinessDomain#IgVariable
        :id: ''
        :namespace: ''
        :label: Analysis Time Imputation Flag
        :extension_properties: []
        :ordinal: 0
        :rule: ''
        :name: ATMF
        :notes: The level of imputation of analysis time. If ATM (or the time part
          of ADTM) was imputed, ATMF must be populated and is required. See Section
          3.1.3.
        :ct: TIMEFL
        :ct_notes: ''
        :compliance:
          :type: http://www.assero.co.uk/BusinessDomain#VariableCompliance
          :id: ''
          :namespace: ''
          :label: Conditional
          :extension_properties: []
      - :type: http://www.assero.co.uk/BusinessDomain#IgVariable
        :id: ''
        :namespace: ''
        :label: Analysis Start Date
        :extension_properties: []
        :ordinal: 0
        :rule: ''
        :name: ASTDT
        :notes: The start date associated with AVAL and/or AVALC. ASTDT and AENDT
          may be useful for traceability when AVAL summarizes data collected over
          an interval of time, or when AVAL is a duration.
        :ct: ''
        :ct_notes: ''
        :compliance:
          :type: http://www.assero.co.uk/BusinessDomain#VariableCompliance
          :id: ''
          :namespace: ''
          :label: Permissible
          :extension_properties: []
      - :type: http://www.assero.co.uk/BusinessDomain#IgVariable
        :id: ''
        :namespace: ''
        :label: Analysis Start Time
        :extension_properties: []
        :ordinal: 0
        :rule: ''
        :name: ASTTM
        :notes: The start time associated with AVAL and/or AVALC. ASTTM and AENTM
          may be useful for traceability when AVAL summarizes data collected over
          an interval of time, or when AVAL is a duration.
        :ct: ''
        :ct_notes: ''
        :compliance:
          :type: http://www.assero.co.uk/BusinessDomain#VariableCompliance
          :id: ''
          :namespace: ''
          :label: Permissible
          :extension_properties: []
      - :type: http://www.assero.co.uk/BusinessDomain#IgVariable
        :id: ''
        :namespace: ''
        :label: Analysis Start Datetime
        :extension_properties: []
        :ordinal: 0
        :rule: ''
        :name: ASTDTM
        :notes: The start datetime associated with AVAL and/or AVALC. ASTDTM and AENDTM
          may be useful for traceability when AVAL summarizes data collected over
          an interval of time, or when AVAL is a duration.
        :ct: ''
        :ct_notes: ''
        :compliance:
          :type: http://www.assero.co.uk/BusinessDomain#VariableCompliance
          :id: ''
          :namespace: ''
          :label: Permissible
          :extension_properties: []
      - :type: http://www.assero.co.uk/BusinessDomain#IgVariable
        :id: ''
        :namespace: ''
        :label: Analysis Start Relative Day
        :extension_properties: []
        :ordinal: 0
        :rule: ''
        :name: ASTDY
        :notes: The number of days from an anchor date (not necessarily DM.RFSTDTC)
          to ASTDT. See Section 3.1.2.
        :ct: ''
        :ct_notes: ''
        :compliance:
          :type: http://www.assero.co.uk/BusinessDomain#VariableCompliance
          :id: ''
          :namespace: ''
          :label: Permissible
          :extension_properties: []
      - :type: http://www.assero.co.uk/BusinessDomain#IgVariable
        :id: ''
        :namespace: ''
        :label: Analysis Start Date Imputation Flag
        :extension_properties: []
        :ordinal: 0
        :rule: ''
        :name: ASTDTF
        :notes: The level of imputation of analysis start date. If ASTDT (or the date
          part of ASTDTM) was imputed, ASTDTF must be populated and is required. See
          Section 3.1.3.
        :ct: DATEFL
        :ct_notes: ''
        :compliance:
          :type: http://www.assero.co.uk/BusinessDomain#VariableCompliance
          :id: ''
          :namespace: ''
          :label: Conditional
          :extension_properties: []
      - :type: http://www.assero.co.uk/BusinessDomain#IgVariable
        :id: ''
        :namespace: ''
        :label: Analysis Start Time Imputation Flag
        :extension_properties: []
        :ordinal: 0
        :rule: ''
        :name: ASTTMF
        :notes: The level of imputation of analysis start time. If ASTTM (or the time
          part of ASTDTM) was imputed, ASTTMF must be populated and is required. See
          Section 3.1.3.
        :ct: TIMEFL
        :ct_notes: ''
        :compliance:
          :type: http://www.assero.co.uk/BusinessDomain#VariableCompliance
          :id: ''
          :namespace: ''
          :label: Conditional
          :extension_properties: []
      - :type: http://www.assero.co.uk/BusinessDomain#IgVariable
        :id: ''
        :namespace: ''
        :label: Analysis End Date
        :extension_properties: []
        :ordinal: 0
        :rule: ''
        :name: AENDT
        :notes: The end date associated with AVAL and/or AVALC. See also ASTDT.
        :ct: ''
        :ct_notes: ''
        :compliance:
          :type: http://www.assero.co.uk/BusinessDomain#VariableCompliance
          :id: ''
          :namespace: ''
          :label: Permissible
          :extension_properties: []
      - :type: http://www.assero.co.uk/BusinessDomain#IgVariable
        :id: ''
        :namespace: ''
        :label: Analysis End Time
        :extension_properties: []
        :ordinal: 0
        :rule: ''
        :name: AENTM
        :notes: The end time associated with AVAL and/or AVALC. See also ASTTM.
        :ct: ''
        :ct_notes: ''
        :compliance:
          :type: http://www.assero.co.uk/BusinessDomain#VariableCompliance
          :id: ''
          :namespace: ''
          :label: Permissible
          :extension_properties: []
      - :type: http://www.assero.co.uk/BusinessDomain#IgVariable
        :id: ''
        :namespace: ''
        :label: Analysis End Datetime
        :extension_properties: []
        :ordinal: 0
        :rule: ''
        :name: AENDTM
        :notes: The end datetime associated with AVAL and/or AVALC. See also ASTDTM.
        :ct: ''
        :ct_notes: ''
        :compliance:
          :type: http://www.assero.co.uk/BusinessDomain#VariableCompliance
          :id: ''
          :namespace: ''
          :label: Permissible
          :extension_properties: []
      - :type: http://www.assero.co.uk/BusinessDomain#IgVariable
        :id: ''
        :namespace: ''
        :label: Analysis End Relative Day
        :extension_properties: []
        :ordinal: 0
        :rule: ''
        :name: AENDY
        :notes: The number of days from an anchor date (not necessarily DM.RFSTDTC)
          to AENDT. See Section 3.1.2.
        :ct: ''
        :ct_notes: ''
        :compliance:
          :type: http://www.assero.co.uk/BusinessDomain#VariableCompliance
          :id: ''
          :namespace: ''
          :label: Permissible
          :extension_properties: []
      - :type: http://www.assero.co.uk/BusinessDomain#IgVariable
        :id: ''
        :namespace: ''
        :label: Analysis End Date Imputation Flag
        :extension_properties: []
        :ordinal: 0
        :rule: ''
        :name: AENDTF
        :notes: The level of imputation of analysis end date. If AENDT (or the date
          part of AENDTM) was imputed, AENDTF must be populated and is required. See
          Section 3.1.3.
        :ct: DATEFL
        :ct_notes: ''
        :compliance:
          :type: http://www.assero.co.uk/BusinessDomain#VariableCompliance
          :id: ''
          :namespace: ''
          :label: Conditional
          :extension_properties: []
      - :type: http://www.assero.co.uk/BusinessDomain#IgVariable
        :id: ''
        :namespace: ''
        :label: Analysis End Time Imputation Flag
        :extension_properties: []
        :ordinal: 0
        :rule: ''
        :name: AENTMF
        :notes: The level of imputation of analysis end time. If AENTM (or the time
          part of AENDTM) was imputed, AENTMF must be populated and is required. See
          Section 3.1.3.
        :ct: TIMEFL
        :ct_notes: ''
        :compliance:
          :type: http://www.assero.co.uk/BusinessDomain#VariableCompliance
          :id: ''
          :namespace: ''
          :label: Conditional
          :extension_properties: []
      - :type: http://www.assero.co.uk/BusinessDomain#IgVariable
        :id: ''
        :namespace: ''
        :label: Analysis Visit
        :extension_properties: []
        :ordinal: 0
        :rule: ''
        :name: AVISIT
        :notes: The analysis visit description; required if an analysis is done by
          nominal, assigned or analysis visit. AVISIT may contain the visit names
          as observed (i.e., from SDTM VISIT), derived visit names, time window names,
          conceptual descriptions (such as Average, Endpoint, etc.), or a combination
          of any of these. AVISIT is a derived field and does not have to map to VISIT
          from the SDTM. AVISIT represents the analysis visit of the record, but it
          does not mean that the record was analyzed. There are often multiple records
          for the same subject and parameter that have the same value of AVISIT. ANLzzFL
          and other variables may be needed to identify the records selected for any
          given analysis. See Section 3.3.8 for information about flag variables.
          AVISIT should be unique for a given analysis visit window. In the event
          that a record does not fall within any predefined analysis timepoint window,
          AVISIT can be populated in any way that the producer chooses to indicate
          this fact (i.e., blank or “Not Windowed”). The way that AVISIT is calculated,
          including the variables used in its derivation, should be indicated in the
          variable metadata for AVISIT. The values and the rules for deriving AVISIT
          may be different for different parameters within the same dataset. Values
          of AVISIT are producer-defined, and are often directly usable in Clinical
          Study Report displays.
        :ct: ''
        :ct_notes: ''
        :compliance:
          :type: http://www.assero.co.uk/BusinessDomain#VariableCompliance
          :id: ''
          :namespace: ''
          :label: Conditional
          :extension_properties: []
      - :type: http://www.assero.co.uk/BusinessDomain#IgVariable
        :id: ''
        :namespace: ''
        :label: Analysis Visit (N)
        :extension_properties: []
        :ordinal: 0
        :rule: ''
        :name: AVISITN
        :notes: |-
          A numeric representation of AVISIT. Since study visits are usually defined by certain timepoints, defining AVISITN so that it represents the timepoint associated with the visit can facilitate plotting and interpretation of the values. Alternatively, AVISITN may be a protocol visit number, a cycle number, an analysis visit number, or any other number logically related to AVISIT or useful for sorting that is needed for analysis.

          Within a parameter, there is a one-to-one mapping between AVISITN and AVISIT so that AVISITN has the same value for each distinct AVISIT. (Best practice would dictate that the mapping would be one-to-one within a study, but that is not an ADaM requirement.) In the event that a record does not fall within any predefined analysis timepoint window, AVISITN can be populated in any way that the producer chooses to indicate this fact (e.g., may be null). Values of AVISITN are producer-defined.
        :ct: ''
        :ct_notes: ''
        :compliance:
          :type: http://www.assero.co.uk/BusinessDomain#VariableCompliance
          :id: ''
          :namespace: ''
          :label: Permissible
          :extension_properties: []
      - :type: http://www.assero.co.uk/BusinessDomain#IgVariable
        :id: ''
        :namespace: ''
        :label: Analysis Timepoint
        :extension_properties: []
        :ordinal: 0
        :rule: ''
        :name: ATPT
        :notes: "The analysis timepoint description; required if an analysis is done
          by nominal, assigned or analysis timepoint (instead of or in addition to
          by-visit). Timepoints are relative to ATPTREF. ATPT may contain the timepoint
          names as observed (i.e., from SDTM --TPT), derived timepoint names, time
          window names, conceptual descriptions (such as Average, Endpoint, etc.),
          or a combination of any of these. This variable is often used in conjunction
          with AVISIT. ATPT represents the analysis timepoint of the record. \nATPT
          can be within an analysis visit (e.g., blood pressure assessments at 10
          min, 20 min, and 30 min post-dose at AVISIT=Week 1) or can be unrelated
          to AVISIT (e.g., migraine symptoms 30 min, 60 min, and 120 min post-dose
          for attack 1).\n\nThe way that ATPT is calculated, including the variables
          used in its derivation, should be indicated in the variable metadata for
          ATPT. The values and the rules for deriving ATPT may be different for different
          parameters within the same dataset. Values of ATPT are producer-defined,
          and are often directly usable in Clinical Study Report displays."
        :ct: ''
        :ct_notes: ''
        :compliance:
          :type: http://www.assero.co.uk/BusinessDomain#VariableCompliance
          :id: ''
          :namespace: ''
          :label: Conditional
          :extension_properties: []
      - :type: http://www.assero.co.uk/BusinessDomain#IgVariable
        :id: ''
        :namespace: ''
        :label: Analysis Timepoint (N)
        :extension_properties: []
        :ordinal: 0
        :rule: ''
        :name: ATPTN
        :notes: ATPTN provides a numeric representation of ATPT. Defining ATPTN so
          that its values represent the planned timepoints (e.g., minutes or hours
          after dosing) is not required but can facilitate plotting and interpretation
          of the values. Within the same parameter, there is a one-to-one mapping
          between ATPT and ATPTN. (Best practice would dictate that the mapping would
          be one-to-one within a study, but that is not an ADaM requirement.)
        :ct: ''
        :ct_notes: ''
        :compliance:
          :type: http://www.assero.co.uk/BusinessDomain#VariableCompliance
          :id: ''
          :namespace: ''
          :label: Permissible
          :extension_properties: []
      - :type: http://www.assero.co.uk/BusinessDomain#IgVariable
        :id: ''
        :namespace: ''
        :label: Analysis Timepoint Reference
        :extension_properties: []
        :ordinal: 0
        :rule: ''
        :name: ATPTREF
        :notes: Description of the fixed reference point referred to by ATPT/ATPTN
          (e.g., time of dose).
        :ct: ''
        :ct_notes: ''
        :compliance:
          :type: http://www.assero.co.uk/BusinessDomain#VariableCompliance
          :id: ''
          :namespace: ''
          :label: Permissible
          :extension_properties: []
      - :type: http://www.assero.co.uk/BusinessDomain#IgVariable
        :id: ''
        :namespace: ''
        :label: Phase
        :extension_properties: []
        :ordinal: 0
        :rule: ''
        :name: APHASE
        :notes: APHASE is a categorization of timing within a study, for example a
          higher-level categorization of APERIOD or an analysis epoch. For example,
          APHASE could describe spans of time for SCREENING, ON TREATMENT, and FOLLOW-UP.
        :ct: ''
        :ct_notes: ''
        :compliance:
          :type: http://www.assero.co.uk/BusinessDomain#VariableCompliance
          :id: ''
          :namespace: ''
          :label: Permissible
          :extension_properties: []
      - :type: http://www.assero.co.uk/BusinessDomain#IgVariable
        :id: ''
        :namespace: ''
        :label: Phase (N)
        :extension_properties: []
        :ordinal: 0
        :rule: ''
        :name: APHASEN
        :notes: APHASEN provides a numeric representation of APHASE. Within a study,
          there is a one-to-one mapping between APHASE and APHASEN.
        :ct: ''
        :ct_notes: ''
        :compliance:
          :type: http://www.assero.co.uk/BusinessDomain#VariableCompliance
          :id: ''
          :namespace: ''
          :label: Permissible
          :extension_properties: []
      - :type: http://www.assero.co.uk/BusinessDomain#IgVariable
        :id: ''
        :namespace: ''
        :label: Period
        :extension_properties: []
        :ordinal: 0
        :rule: ''
        :name: APERIOD
        :notes: APERIOD is a record-level timing variable that represents the analysis
          period within the study associated with the record for analysis purposes.
          The value of APERIOD (if populated) must be one of the xx values found in
          the ADSL TRTxxP variables.
        :ct: ''
        :ct_notes: ''
        :compliance:
          :type: http://www.assero.co.uk/BusinessDomain#VariableCompliance
          :id: ''
          :namespace: ''
          :label: Permissible
          :extension_properties: []
      - :type: http://www.assero.co.uk/BusinessDomain#IgVariable
        :id: ''
        :namespace: ''
        :label: Period (C)
        :extension_properties: []
        :ordinal: 0
        :rule: ''
        :name: APERIODC
        :notes: Text characterizing to which analysis period the record belongs. One-to-one
          mapping within a dataset to APERIOD.
        :ct: ''
        :ct_notes: ''
        :compliance:
          :type: http://www.assero.co.uk/BusinessDomain#VariableCompliance
          :id: ''
          :namespace: ''
          :label: Permissible
          :extension_properties: []
      - :type: http://www.assero.co.uk/BusinessDomain#IgVariable
        :id: ''
        :namespace: ''
        :label: Subperiod within Period
        :extension_properties: []
        :ordinal: 0
        :rule: ''
        :name: ASPER
        :notes: The numeric value characterizing a sublevel within APERIOD to which
          the record belongs. Within each APERIOD, the first ASPER is 1 (i.e., it
          resets to 1 when the APERIOD value changes).
        :ct: ''
        :ct_notes: ''
        :compliance:
          :type: http://www.assero.co.uk/BusinessDomain#VariableCompliance
          :id: ''
          :namespace: ''
          :label: Permissible
          :extension_properties: []
      - :type: http://www.assero.co.uk/BusinessDomain#IgVariable
        :id: ''
        :namespace: ''
        :label: Subperiod within Period (C)
        :extension_properties: []
        :ordinal: 0
        :rule: ''
        :name: ASPERC
        :notes: Text characterizing to which subperiod the record belongs. One-to-one
          mapping within a period to ASPER.
        :ct: ''
        :ct_notes: ''
        :compliance:
          :type: http://www.assero.co.uk/BusinessDomain#VariableCompliance
          :id: ''
          :namespace: ''
          :label: Permissible
          :extension_properties: []
      - :type: http://www.assero.co.uk/BusinessDomain#IgVariable
        :id: ''
        :namespace: ''
        :label: Analysis Relative Time
        :extension_properties: []
        :ordinal: 0
        :rule: ''
        :name: ARELTM
        :notes: The time relative to an anchor time. The amount of time from an anchor
          time to ATM. When ARELTM is present, the anchor time variable and ARELTMU
          must also be included in the dataset, and the anchor time variable must
          be identified in the metadata for ARELTM.
        :ct: ''
        :ct_notes: ''
        :compliance:
          :type: http://www.assero.co.uk/BusinessDomain#VariableCompliance
          :id: ''
          :namespace: ''
          :label: Permissible
          :extension_properties: []
      - :type: http://www.assero.co.uk/BusinessDomain#IgVariable
        :id: ''
        :namespace: ''
        :label: Analysis Relative Time Unit
        :extension_properties: []
        :ordinal: 0
        :rule: ''
        :name: ARELTMU
        :notes: The units of ARELTM. For example, “HOURS” or “MINUTES.” ARELTMU is
          required if ARELTM is present.
        :ct: ''
        :ct_notes: ''
        :compliance:
          :type: http://www.assero.co.uk/BusinessDomain#VariableCompliance
          :id: ''
          :namespace: ''
          :label: Permissible
          :extension_properties: []
      - :type: http://www.assero.co.uk/BusinessDomain#IgVariable
        :id: ''
        :namespace: ''
        :label: Period Start Date
        :extension_properties: []
        :ordinal: 0
        :rule: ''
        :name: APERSDT
        :notes: The starting date for the period defined by APERIOD.
        :ct: ''
        :ct_notes: ''
        :compliance:
          :type: http://www.assero.co.uk/BusinessDomain#VariableCompliance
          :id: ''
          :namespace: ''
          :label: Permissible
          :extension_properties: []
      - :type: http://www.assero.co.uk/BusinessDomain#IgVariable
        :id: ''
        :namespace: ''
        :label: Period Start Time
        :extension_properties: []
        :ordinal: 0
        :rule: ''
        :name: APERSTM
        :notes: The starting time for the period defined by APERIOD.
        :ct: ''
        :ct_notes: ''
        :compliance:
          :type: http://www.assero.co.uk/BusinessDomain#VariableCompliance
          :id: ''
          :namespace: ''
          :label: Permissible
          :extension_properties: []
      - :type: http://www.assero.co.uk/BusinessDomain#IgVariable
        :id: ''
        :namespace: ''
        :label: Period Start Datetime
        :extension_properties: []
        :ordinal: 0
        :rule: ''
        :name: APERSDTM
        :notes: The starting datetime for the period defined by APERIOD.
        :ct: ''
        :ct_notes: ''
        :compliance:
          :type: http://www.assero.co.uk/BusinessDomain#VariableCompliance
          :id: ''
          :namespace: ''
          :label: Permissible
          :extension_properties: []
      - :type: http://www.assero.co.uk/BusinessDomain#IgVariable
        :id: ''
        :namespace: ''
        :label: Period Start Date Imput. Flag
        :extension_properties: []
        :ordinal: 0
        :rule: ''
        :name: APERSDTF
        :notes: The level of imputation of period start date. If APERSDT (or the date
          part of APERSDTM) was imputed, APERSDTF must be populated and is required.
          See Section 3.1.3.
        :ct: DATEFL
        :ct_notes: ''
        :compliance:
          :type: http://www.assero.co.uk/BusinessDomain#VariableCompliance
          :id: ''
          :namespace: ''
          :label: Conditional
          :extension_properties: []
      - :type: http://www.assero.co.uk/BusinessDomain#IgVariable
        :id: ''
        :namespace: ''
        :label: Period Start Time Imput. Flag
        :extension_properties: []
        :ordinal: 0
        :rule: ''
        :name: APERSTMF
        :notes: The level of imputation of period start time. If APERSTM (or the time
          part of APERSDTM) was imputed, APERSTMF must be populated and is required.
          See Section 3.1.3.
        :ct: TIMEFL
        :ct_notes: ''
        :compliance:
          :type: http://www.assero.co.uk/BusinessDomain#VariableCompliance
          :id: ''
          :namespace: ''
          :label: Conditional
          :extension_properties: []
      - :type: http://www.assero.co.uk/BusinessDomain#IgVariable
        :id: ''
        :namespace: ''
        :label: Period End Date
        :extension_properties: []
        :ordinal: 0
        :rule: ''
        :name: APEREDT
        :notes: The ending date for the period defined by APERIOD.
        :ct: ''
        :ct_notes: ''
        :compliance:
          :type: http://www.assero.co.uk/BusinessDomain#VariableCompliance
          :id: ''
          :namespace: ''
          :label: Permissible
          :extension_properties: []
      - :type: http://www.assero.co.uk/BusinessDomain#IgVariable
        :id: ''
        :namespace: ''
        :label: Period End Time
        :extension_properties: []
        :ordinal: 0
        :rule: ''
        :name: APERETM
        :notes: The ending time for the period defined by APERIOD.
        :ct: ''
        :ct_notes: ''
        :compliance:
          :type: http://www.assero.co.uk/BusinessDomain#VariableCompliance
          :id: ''
          :namespace: ''
          :label: Permissible
          :extension_properties: []
      - :type: http://www.assero.co.uk/BusinessDomain#IgVariable
        :id: ''
        :namespace: ''
        :label: Period End Datetime
        :extension_properties: []
        :ordinal: 0
        :rule: ''
        :name: APEREDTM
        :notes: The ending datetime for the period defined by APERIOD.
        :ct: ''
        :ct_notes: ''
        :compliance:
          :type: http://www.assero.co.uk/BusinessDomain#VariableCompliance
          :id: ''
          :namespace: ''
          :label: Permissible
          :extension_properties: []
      - :type: http://www.assero.co.uk/BusinessDomain#IgVariable
        :id: ''
        :namespace: ''
        :label: Period End Date Imput. Flag
        :extension_properties: []
        :ordinal: 0
        :rule: ''
        :name: APEREDTF
        :notes: The level of imputation of period end date. If APEREDT (or the date
          part of APEREDTM) was imputed, APEREDTF must be populated and is required.
          See Section 3.1.3.
        :ct: DATEFL
        :ct_notes: ''
        :compliance:
          :type: http://www.assero.co.uk/BusinessDomain#VariableCompliance
          :id: ''
          :namespace: ''
          :label: Conditional
          :extension_properties: []
      - :type: http://www.assero.co.uk/BusinessDomain#IgVariable
        :id: ''
        :namespace: ''
        :label: Period End Time Imput. Flag
        :extension_properties: []
        :ordinal: 0
        :rule: ''
        :name: APERETMF
        :notes: The level of imputation of period end time. If APERETM (or the time
          part of APEREDTM) was imputed, APERETMF must be populated and is required.
          See Section 3.1.3.
        :ct: TIMEFL
        :ct_notes: ''
        :compliance:
          :type: http://www.assero.co.uk/BusinessDomain#VariableCompliance
          :id: ''
          :namespace: ''
          :label: Conditional
          :extension_properties: []
      - :type: http://www.assero.co.uk/BusinessDomain#IgVariable
        :id: ''
        :namespace: ''
        :label: Subperiod Start Date
        :extension_properties: []
        :ordinal: 0
        :rule: ''
        :name: ASPRSDT
        :notes: The starting date for the subperiod defined by ASPER.
        :ct: ''
        :ct_notes: ''
        :compliance:
          :type: http://www.assero.co.uk/BusinessDomain#VariableCompliance
          :id: ''
          :namespace: ''
          :label: Permissible
          :extension_properties: []
      - :type: http://www.assero.co.uk/BusinessDomain#IgVariable
        :id: ''
        :namespace: ''
        :label: Subperiod Start Time
        :extension_properties: []
        :ordinal: 0
        :rule: ''
        :name: ASPRSTM
        :notes: The starting time for the subperiod defined by ASPER.
        :ct: ''
        :ct_notes: ''
        :compliance:
          :type: http://www.assero.co.uk/BusinessDomain#VariableCompliance
          :id: ''
          :namespace: ''
          :label: Permissible
          :extension_properties: []
      - :type: http://www.assero.co.uk/BusinessDomain#IgVariable
        :id: ''
        :namespace: ''
        :label: Subperiod Start Datetime
        :extension_properties: []
        :ordinal: 0
        :rule: ''
        :name: ASPRSDTM
        :notes: The starting datetime for the subperiod defined by ASPER.
        :ct: ''
        :ct_notes: ''
        :compliance:
          :type: http://www.assero.co.uk/BusinessDomain#VariableCompliance
          :id: ''
          :namespace: ''
          :label: Permissible
          :extension_properties: []
      - :type: http://www.assero.co.uk/BusinessDomain#IgVariable
        :id: ''
        :namespace: ''
        :label: Subperiod Start Date Imput. Flag
        :extension_properties: []
        :ordinal: 0
        :rule: ''
        :name: ASPRSDTF
        :notes: The level of imputation of subperiod start date. If ASPRSDT (or the
          date part of ASPRSDTM) was imputed, ASPRSDTF must be populated and is required.
          See Section 3.1.3.
        :ct: DATEFL
        :ct_notes: ''
        :compliance:
          :type: http://www.assero.co.uk/BusinessDomain#VariableCompliance
          :id: ''
          :namespace: ''
          :label: Conditional
          :extension_properties: []
      - :type: http://www.assero.co.uk/BusinessDomain#IgVariable
        :id: ''
        :namespace: ''
        :label: Subperiod Start Time Imput. Flag
        :extension_properties: []
        :ordinal: 0
        :rule: ''
        :name: ASPRSTMF
        :notes: The level of imputation of subperiod start time. If ASPRSTM (or the
          time part of ASPRSDTM) was imputed, ASPRSTMF must be populated and is required.
          See Section 3.1.3.
        :ct: TIMEFL
        :ct_notes: ''
        :compliance:
          :type: http://www.assero.co.uk/BusinessDomain#VariableCompliance
          :id: ''
          :namespace: ''
          :label: Conditional
          :extension_properties: []
      - :type: http://www.assero.co.uk/BusinessDomain#IgVariable
        :id: ''
        :namespace: ''
        :label: Subperiod End Date
        :extension_properties: []
        :ordinal: 0
        :rule: ''
        :name: ASPREDT
        :notes: The ending date for the subperiod defined by ASPER.
        :ct: ''
        :ct_notes: ''
        :compliance:
          :type: http://www.assero.co.uk/BusinessDomain#VariableCompliance
          :id: ''
          :namespace: ''
          :label: Permissible
          :extension_properties: []
      - :type: http://www.assero.co.uk/BusinessDomain#IgVariable
        :id: ''
        :namespace: ''
        :label: Subperiod End Time
        :extension_properties: []
        :ordinal: 0
        :rule: ''
        :name: ASPRETM
        :notes: The ending time for the subperiod defined by ASPER.
        :ct: ''
        :ct_notes: ''
        :compliance:
          :type: http://www.assero.co.uk/BusinessDomain#VariableCompliance
          :id: ''
          :namespace: ''
          :label: Permissible
          :extension_properties: []
      - :type: http://www.assero.co.uk/BusinessDomain#IgVariable
        :id: ''
        :namespace: ''
        :label: Subperiod End Datetime
        :extension_properties: []
        :ordinal: 0
        :rule: ''
        :name: ASPREDTM
        :notes: The ending datetime for the subperiod defined by ASPER.
        :ct: ''
        :ct_notes: ''
        :compliance:
          :type: http://www.assero.co.uk/BusinessDomain#VariableCompliance
          :id: ''
          :namespace: ''
          :label: Permissible
          :extension_properties: []
      - :type: http://www.assero.co.uk/BusinessDomain#IgVariable
        :id: ''
        :namespace: ''
        :label: Subperiod End Date Imput. Flag
        :extension_properties: []
        :ordinal: 0
        :rule: ''
        :name: ASPREDTF
        :notes: The level of imputation of subperiod end date. If ASPREDT (or the
          date part of ASPREDTM) was imputed, ASPREDTF must be populated and is required.
          See Section 3.1.3.
        :ct: DATEFL
        :ct_notes: ''
        :compliance:
          :type: http://www.assero.co.uk/BusinessDomain#VariableCompliance
          :id: ''
          :namespace: ''
          :label: Conditional
          :extension_properties: []
      - :type: http://www.assero.co.uk/BusinessDomain#IgVariable
        :id: ''
        :namespace: ''
        :label: Subperiod End Time Imput. Flag
        :extension_properties: []
        :ordinal: 0
        :rule: ''
        :name: ASPRETMF
        :notes: The level of imputation of subperiod end time. If ASPRETM (or the
          time part of ASPREDTM) was imputed, ASPRETMF must be populated and is required.
          See Section 3.1.3.
        :ct: TIMEFL
        :ct_notes: ''
        :compliance:
          :type: http://www.assero.co.uk/BusinessDomain#VariableCompliance
          :id: ''
          :namespace: ''
          :label: Conditional
          :extension_properties: []
      - :type: http://www.assero.co.uk/BusinessDomain#IgVariable
        :id: ''
        :namespace: ''
        :label: Phase Start Date
        :extension_properties: []
        :ordinal: 0
        :rule: ''
        :name: PHSDT
        :notes: The starting date for the phase defined by APHASE.
        :ct: ''
        :ct_notes: ''
        :compliance:
          :type: http://www.assero.co.uk/BusinessDomain#VariableCompliance
          :id: ''
          :namespace: ''
          :label: Permissible
          :extension_properties: []
      - :type: http://www.assero.co.uk/BusinessDomain#IgVariable
        :id: ''
        :namespace: ''
        :label: Phase Start Time
        :extension_properties: []
        :ordinal: 0
        :rule: ''
        :name: PHSTM
        :notes: The starting time for the phase defined by APHASE.
        :ct: ''
        :ct_notes: ''
        :compliance:
          :type: http://www.assero.co.uk/BusinessDomain#VariableCompliance
          :id: ''
          :namespace: ''
          :label: Permissible
          :extension_properties: []
      - :type: http://www.assero.co.uk/BusinessDomain#IgVariable
        :id: ''
        :namespace: ''
        :label: Phase Start Datetime
        :extension_properties: []
        :ordinal: 0
        :rule: ''
        :name: PHSDTM
        :notes: The starting datetime for the phase defined by APHASE.
        :ct: ''
        :ct_notes: ''
        :compliance:
          :type: http://www.assero.co.uk/BusinessDomain#VariableCompliance
          :id: ''
          :namespace: ''
          :label: Permissible
          :extension_properties: []
      - :type: http://www.assero.co.uk/BusinessDomain#IgVariable
        :id: ''
        :namespace: ''
        :label: Phase Start Date Imput. Flag
        :extension_properties: []
        :ordinal: 0
        :rule: ''
        :name: PHSDTF
        :notes: The level of imputation of phase start date. If PHSDT (or the date
          part of PHSDTM) was imputed, PHSDTF must be populated and is required. See
          Section 3.1.3.
        :ct: DATEFL
        :ct_notes: ''
        :compliance:
          :type: http://www.assero.co.uk/BusinessDomain#VariableCompliance
          :id: ''
          :namespace: ''
          :label: Conditional
          :extension_properties: []
      - :type: http://www.assero.co.uk/BusinessDomain#IgVariable
        :id: ''
        :namespace: ''
        :label: Phase Start Time Imput. Flag
        :extension_properties: []
        :ordinal: 0
        :rule: ''
        :name: PHSTMF
        :notes: The level of imputation of phase start time. If PHSTM (or the time
          part of PHSDTM) was imputed, PHSTMF must be populated and is required. See
          Section 3.1.3.
        :ct: TIMEFL
        :ct_notes: ''
        :compliance:
          :type: http://www.assero.co.uk/BusinessDomain#VariableCompliance
          :id: ''
          :namespace: ''
          :label: Conditional
          :extension_properties: []
      - :type: http://www.assero.co.uk/BusinessDomain#IgVariable
        :id: ''
        :namespace: ''
        :label: Phase End Date
        :extension_properties: []
        :ordinal: 0
        :rule: ''
        :name: PHEDT
        :notes: The ending date for the phase defined by APHASE.
        :ct: ''
        :ct_notes: ''
        :compliance:
          :type: http://www.assero.co.uk/BusinessDomain#VariableCompliance
          :id: ''
          :namespace: ''
          :label: Permissible
          :extension_properties: []
      - :type: http://www.assero.co.uk/BusinessDomain#IgVariable
        :id: ''
        :namespace: ''
        :label: Phase End Time
        :extension_properties: []
        :ordinal: 0
        :rule: ''
        :name: PHETM
        :notes: The ending time for the phase defined by APHASE.
        :ct: ''
        :ct_notes: ''
        :compliance:
          :type: http://www.assero.co.uk/BusinessDomain#VariableCompliance
          :id: ''
          :namespace: ''
          :label: Permissible
          :extension_properties: []
      - :type: http://www.assero.co.uk/BusinessDomain#IgVariable
        :id: ''
        :namespace: ''
        :label: Phase End Datetime
        :extension_properties: []
        :ordinal: 0
        :rule: ''
        :name: PHEDTM
        :notes: The ending datetime for the phase defined by APHASE.
        :ct: ''
        :ct_notes: ''
        :compliance:
          :type: http://www.assero.co.uk/BusinessDomain#VariableCompliance
          :id: ''
          :namespace: ''
          :label: Permissible
          :extension_properties: []
      - :type: http://www.assero.co.uk/BusinessDomain#IgVariable
        :id: ''
        :namespace: ''
        :label: Phase End Date Imput. Flag
        :extension_properties: []
        :ordinal: 0
        :rule: ''
        :name: PHEDTF
        :notes: The level of imputation of phase end date. If PHEDT (or the date part
          of PHEDTM) was imputed, PHEDTF must be populated and is required. See Section
          3.1.3.
        :ct: DATEFL
        :ct_notes: ''
        :compliance:
          :type: http://www.assero.co.uk/BusinessDomain#VariableCompliance
          :id: ''
          :namespace: ''
          :label: Conditional
          :extension_properties: []
      - :type: http://www.assero.co.uk/BusinessDomain#IgVariable
        :id: ''
        :namespace: ''
        :label: Phase End Time Imput. Flag
        :extension_properties: []
        :ordinal: 0
        :rule: ''
        :name: PHETMF
        :notes: The level of imputation of phase end time. If PHETM (or the time part
          of PHEDTM) was imputed, PHETMF must be populated and is required. See Section
          3.1.3.
        :ct: TIMEFL
        :ct_notes: ''
        :compliance:
          :type: http://www.assero.co.uk/BusinessDomain#VariableCompliance
          :id: ''
          :namespace: ''
          :label: Conditional
          :extension_properties: []
      - :type: http://www.assero.co.uk/BusinessDomain#IgVariable
        :id: ''
        :namespace: ''
        :label: "{Date}"
        :extension_properties: []
        :ordinal: 0
        :rule: ''
        :name: "*DT"
        :notes: Analysis date not directly characterizing AVAL and/or AVALC in numeric
          format.
        :ct: ''
        :ct_notes: ''
        :compliance:
          :type: http://www.assero.co.uk/BusinessDomain#VariableCompliance
          :id: ''
          :namespace: ''
          :label: Permissible
          :extension_properties: []
      - :type: http://www.assero.co.uk/BusinessDomain#IgVariable
        :id: ''
        :namespace: ''
        :label: "{Time}"
        :extension_properties: []
        :ordinal: 0
        :rule: ''
        :name: "*TM"
        :notes: Analysis time not directly characterizing AVAL and/or AVALC in numeric
          format.
        :ct: ''
        :ct_notes: ''
        :compliance:
          :type: http://www.assero.co.uk/BusinessDomain#VariableCompliance
          :id: ''
          :namespace: ''
          :label: Permissible
          :extension_properties: []
      - :type: http://www.assero.co.uk/BusinessDomain#IgVariable
        :id: ''
        :namespace: ''
        :label: "{Datetime}"
        :extension_properties: []
        :ordinal: 0
        :rule: ''
        :name: "*DTM"
        :notes: Analysis datetime not directly characterizing AVAL and/or AVALC in
          numeric format.
        :ct: ''
        :ct_notes: ''
        :compliance:
          :type: http://www.assero.co.uk/BusinessDomain#VariableCompliance
          :id: ''
          :namespace: ''
          :label: Permissible
          :extension_properties: []
      - :type: http://www.assero.co.uk/BusinessDomain#IgVariable
        :id: ''
        :namespace: ''
        :label: "{Relative Day}"
        :extension_properties: []
        :ordinal: 0
        :rule: ''
        :name: "*ADY"
        :notes: Analysis relative day not directly characterizing AVAL and/or AVALC.
        :ct: ''
        :ct_notes: ''
        :compliance:
          :type: http://www.assero.co.uk/BusinessDomain#VariableCompliance
          :id: ''
          :namespace: ''
          :label: Permissible
          :extension_properties: []
      - :type: http://www.assero.co.uk/BusinessDomain#IgVariable
        :id: ''
        :namespace: ''
        :label: "{Date Imputation Flag}"
        :extension_properties: []
        :ordinal: 0
        :rule: ''
        :name: "*DTF"
        :notes: The level of imputation of *DT. If *DT (or the date part of *DTM)
          was imputed, *DTF must be populated and is required. See Section 3.1.3.
        :ct: DATEFL
        :ct_notes: ''
        :compliance:
          :type: http://www.assero.co.uk/BusinessDomain#VariableCompliance
          :id: ''
          :namespace: ''
          :label: Conditional
          :extension_properties: []
      - :type: http://www.assero.co.uk/BusinessDomain#IgVariable
        :id: ''
        :namespace: ''
        :label: "{Time Imputation Flag}"
        :extension_properties: []
        :ordinal: 0
        :rule: ''
        :name: "*TMF"
        :notes: The level of imputation of *TM. If *TM (or the time part of *DTM)
          was imputed, *TMF must be populated and is required. See Section 3.1.3.
        :ct: TIMEFL
        :ct_notes: ''
        :compliance:
          :type: http://www.assero.co.uk/BusinessDomain#VariableCompliance
          :id: ''
          :namespace: ''
          :label: Conditional
          :extension_properties: []
      - :type: http://www.assero.co.uk/BusinessDomain#IgVariable
        :id: ''
        :namespace: ''
        :label: "{Start Date}"
        :extension_properties: []
        :ordinal: 0
        :rule: ''
        :name: "*SDT"
        :notes: Starting analysis date not directly characterizing AVAL and/or AVALC
          in numeric format.
        :ct: ''
        :ct_notes: ''
        :compliance:
          :type: http://www.assero.co.uk/BusinessDomain#VariableCompliance
          :id: ''
          :namespace: ''
          :label: Permissible
          :extension_properties: []
      - :type: http://www.assero.co.uk/BusinessDomain#IgVariable
        :id: ''
        :namespace: ''
        :label: "{Start Time}"
        :extension_properties: []
        :ordinal: 0
        :rule: ''
        :name: "*STM"
        :notes: Starting analysis time not directly characterizing AVAL and/or AVALC
          in numeric format.
        :ct: ''
        :ct_notes: ''
        :compliance:
          :type: http://www.assero.co.uk/BusinessDomain#VariableCompliance
          :id: ''
          :namespace: ''
          :label: Permissible
          :extension_properties: []
      - :type: http://www.assero.co.uk/BusinessDomain#IgVariable
        :id: ''
        :namespace: ''
        :label: "{Start Datetime}"
        :extension_properties: []
        :ordinal: 0
        :rule: ''
        :name: "*SDTM"
        :notes: Starting analysis datetime not directly characterizing AVAL and/or
          AVALC in numeric format.
        :ct: ''
        :ct_notes: ''
        :compliance:
          :type: http://www.assero.co.uk/BusinessDomain#VariableCompliance
          :id: ''
          :namespace: ''
          :label: Permissible
          :extension_properties: []
      - :type: http://www.assero.co.uk/BusinessDomain#IgVariable
        :id: ''
        :namespace: ''
        :label: "{Relative Start Day}"
        :extension_properties: []
        :ordinal: 0
        :rule: ''
        :name: "*SDY"
        :notes: Starting analysis relative day not directly characterizing AVAL and/or
          AVALC.
        :ct: ''
        :ct_notes: ''
        :compliance:
          :type: http://www.assero.co.uk/BusinessDomain#VariableCompliance
          :id: ''
          :namespace: ''
          :label: Permissible
          :extension_properties: []
      - :type: http://www.assero.co.uk/BusinessDomain#IgVariable
        :id: ''
        :namespace: ''
        :label: "{Start Date Imputation Flag}"
        :extension_properties: []
        :ordinal: 0
        :rule: ''
        :name: "*SDTF"
        :notes: The level of imputation of *SDT. If *SDT (or the date part of *SDTM)
          was imputed, *SDTF must be populated and is required. See Section 3.1.3.
        :ct: DATEFL
        :ct_notes: ''
        :compliance:
          :type: http://www.assero.co.uk/BusinessDomain#VariableCompliance
          :id: ''
          :namespace: ''
          :label: Conditional
          :extension_properties: []
      - :type: http://www.assero.co.uk/BusinessDomain#IgVariable
        :id: ''
        :namespace: ''
        :label: "{Start Time Imputation Flag}"
        :extension_properties: []
        :ordinal: 0
        :rule: ''
        :name: "*STMF"
        :notes: The level of imputation of *STM. If *STM (or the time part of *SDTM)
          was imputed, *STMF must be populated and is required. See Section 3.1.3.
        :ct: TIMEFL
        :ct_notes: ''
        :compliance:
          :type: http://www.assero.co.uk/BusinessDomain#VariableCompliance
          :id: ''
          :namespace: ''
          :label: Conditional
          :extension_properties: []
      - :type: http://www.assero.co.uk/BusinessDomain#IgVariable
        :id: ''
        :namespace: ''
        :label: "{End Date}"
        :extension_properties: []
        :ordinal: 0
        :rule: ''
        :name: "*EDT"
        :notes: Ending analysis date not directly characterizing AVAL and/or AVALC
          in numeric format.
        :ct: ''
        :ct_notes: ''
        :compliance:
          :type: http://www.assero.co.uk/BusinessDomain#VariableCompliance
          :id: ''
          :namespace: ''
          :label: Permissible
          :extension_properties: []
      - :type: http://www.assero.co.uk/BusinessDomain#IgVariable
        :id: ''
        :namespace: ''
        :label: "{End Time}"
        :extension_properties: []
        :ordinal: 0
        :rule: ''
        :name: "*ETM"
        :notes: Ending analysis time not directly characterizing AVAL and/or AVALC
          in numeric format.
        :ct: ''
        :ct_notes: ''
        :compliance:
          :type: http://www.assero.co.uk/BusinessDomain#VariableCompliance
          :id: ''
          :namespace: ''
          :label: Permissible
          :extension_properties: []
      - :type: http://www.assero.co.uk/BusinessDomain#IgVariable
        :id: ''
        :namespace: ''
        :label: "{End Datetime}"
        :extension_properties: []
        :ordinal: 0
        :rule: ''
        :name: "*EDTM"
        :notes: Ending analysis datetime not directly characterizing AVAL and/or AVALC
          in numeric format.
        :ct: ''
        :ct_notes: ''
        :compliance:
          :type: http://www.assero.co.uk/BusinessDomain#VariableCompliance
          :id: ''
          :namespace: ''
          :label: Permissible
          :extension_properties: []
      - :type: http://www.assero.co.uk/BusinessDomain#IgVariable
        :id: ''
        :namespace: ''
        :label: "{Relative End Day}"
        :extension_properties: []
        :ordinal: 0
        :rule: ''
        :name: "*EDY"
        :notes: Ending analysis relative day not directly characterizing AVAL and/or
          AVALC.
        :ct: ''
        :ct_notes: ''
        :compliance:
          :type: http://www.assero.co.uk/BusinessDomain#VariableCompliance
          :id: ''
          :namespace: ''
          :label: Permissible
          :extension_properties: []
      - :type: http://www.assero.co.uk/BusinessDomain#IgVariable
        :id: ''
        :namespace: ''
        :label: "{End Date Imputation Flag}"
        :extension_properties: []
        :ordinal: 0
        :rule: ''
        :name: "*EDTF"
        :notes: The level of imputation of *EDT. If *EDT (or the date part of *EDTM)
          was imputed, *EDTF must be populated and is required. See Section 3.1.3.
        :ct: DATEFL
        :ct_notes: ''
        :compliance:
          :type: http://www.assero.co.uk/BusinessDomain#VariableCompliance
          :id: ''
          :namespace: ''
          :label: Conditional
          :extension_properties: []
      - :type: http://www.assero.co.uk/BusinessDomain#IgVariable
        :id: ''
        :namespace: ''
        :label: "{End Time Imputation Flag}"
        :extension_properties: []
        :ordinal: 0
        :rule: ''
        :name: "*ETMF"
        :notes: The level of imputation of *ETM. If *ETM (or the time part of *EDTM)
          was imputed, *ETMF must be populated and is required. See Section 3.1.3.
        :ct: TIMEFL
        :ct_notes: ''
        :compliance:
          :type: http://www.assero.co.uk/BusinessDomain#VariableCompliance
          :id: ''
          :namespace: ''
          :label: Conditional
          :extension_properties: []
      - :type: http://www.assero.co.uk/BusinessDomain#IgVariable
        :id: ''
        :namespace: ''
        :label: Parameter
        :extension_properties: []
        :ordinal: 0
        :rule: ''
        :name: PARAM
        :notes: "The description of the analysis parameter. Examples include: “Supine
          Systolic Blood Pressure (mm Hg)”, “Log10 (Weight (kg))”, “Time to First
          Hypertension Event (Days)”, “Estimated Tumor Growth Rate”, etc. PARAM should
          be sufficient to describe unambiguously the contents of AVAL and/or AVALC.
          PARAM must include all descriptive and qualifying information relevant to
          the analysis purpose of the parameter.\n\nExamples of qualifying information
          that might be relevant to analysis and therefore are candidates for inclusion
          in PARAM are units, specimen type, location, position, machine type, and
          transformation function. There is no need to include qualifiers that are
          not relevant to the analysis of PARAM. In contrast to SDTM --TEST, no additional
          variable is needed to further qualify PARAM. \n\nPARAM may be longer than
          40 characters in length but is restricted to a maximum of 200 characters.
          PARAM is often directly usable in Clinical Study Report displays. Note that
          in the ADaMIG, “parameter” is a synonym of “analysis parameter.”"
        :ct: ''
        :ct_notes: ''
        :compliance:
          :type: http://www.assero.co.uk/BusinessDomain#VariableCompliance
          :id: ''
          :namespace: ''
          :label: Required
          :extension_properties: []
      - :type: http://www.assero.co.uk/BusinessDomain#IgVariable
        :id: ''
        :namespace: ''
        :label: Parameter Code
        :extension_properties: []
        :ordinal: 0
        :rule: ''
        :name: PARAMCD
        :notes: The short name of the analysis parameter in PARAM. Values of PARAMCD
          should follow the SAS Version 5 transport file format and Oracle constraints
          as noted under General Variable Conventions in Section 3.1.1. There must
          be a one-to-one mapping to PARAM within a dataset.
        :ct: ''
        :ct_notes: ''
        :compliance:
          :type: http://www.assero.co.uk/BusinessDomain#VariableCompliance
          :id: ''
          :namespace: ''
          :label: Required
          :extension_properties: []
      - :type: http://www.assero.co.uk/BusinessDomain#IgVariable
        :id: ''
        :namespace: ''
        :label: Parameter (N)
        :extension_properties: []
        :ordinal: 0
        :rule: ''
        :name: PARAMN
        :notes: A numeric representation of PARAM. Useful for ordering and programmatic
          manipulation. There must be a one-to-one mapping to PARAM within a dataset.
        :ct: ''
        :ct_notes: ''
        :compliance:
          :type: http://www.assero.co.uk/BusinessDomain#VariableCompliance
          :id: ''
          :namespace: ''
          :label: Permissible
          :extension_properties: []
      - :type: http://www.assero.co.uk/BusinessDomain#IgVariable
        :id: ''
        :namespace: ''
        :label: Parameter Type
        :extension_properties: []
        :ordinal: 0
        :rule: ''
        :name: PARAMTYP
        :notes: "ndicator of whether the parameter is derived as a function of one
          or more other parameters. \nThis variable will be retired from the ADaMIG
          in the next version because it was confused with the concept of DTYPE and
          therefore was being misused. The variable metadata should be adequate to
          indicate when a parameter is wholly derived."
        :ct: PARAMTYP
        :ct_notes: ''
        :compliance:
          :type: http://www.assero.co.uk/BusinessDomain#VariableCompliance
          :id: ''
          :namespace: ''
          :label: Permissible
          :extension_properties: []
      - :type: http://www.assero.co.uk/BusinessDomain#IgVariable
        :id: ''
        :namespace: ''
        :label: Parameter Category y
        :extension_properties: []
        :ordinal: 0
        :rule: ''
        :name: PARCATy
        :notes: A categorization of PARAM within a dataset. For example, values of
          PARCAT1 might group the parameters having to do with a particular questionnaire,
          lab specimen type, or area of investigation. Note that PARCATy is not a
          qualifier for PARAM. PARAM to PARCATy is a many-to-one mapping; any given
          PARAM may be associated with at most one level of PARCATy (e.g., one level
          of PARCAT1 and one level of PARCAT2).
        :ct: ''
        :ct_notes: ''
        :compliance:
          :type: http://www.assero.co.uk/BusinessDomain#VariableCompliance
          :id: ''
          :namespace: ''
          :label: Permissible
          :extension_properties: []
      - :type: http://www.assero.co.uk/BusinessDomain#IgVariable
        :id: ''
        :namespace: ''
        :label: Parameter Category y (N)
        :extension_properties: []
        :ordinal: 0
        :rule: ''
        :name: PARCATyN
        :notes: A numeric representation of PARCATy. This can be used for operations
          on PARCATy. There must be a one-to-one relationship within a dataset between
          PARCATy and PARCATyN.
        :ct: ''
        :ct_notes: ''
        :compliance:
          :type: http://www.assero.co.uk/BusinessDomain#VariableCompliance
          :id: ''
          :namespace: ''
          :label: Permissible
          :extension_properties: []
      - :type: http://www.assero.co.uk/BusinessDomain#IgVariable
        :id: ''
        :namespace: ''
        :label: Analysis Value
        :extension_properties: []
        :ordinal: 0
        :rule: ''
        :name: AVAL
        :notes: Numeric analysis value described by PARAM. On a given record, it is
          permissible for AVAL, AVALC, or both to be null. AVAL is required if AVALC
          is not present, since either AVAL or AVALC must be present in the dataset.
        :ct: ''
        :ct_notes: ''
        :compliance:
          :type: http://www.assero.co.uk/BusinessDomain#VariableCompliance
          :id: ''
          :namespace: ''
          :label: Conditional
          :extension_properties: []
      - :type: http://www.assero.co.uk/BusinessDomain#IgVariable
        :id: ''
        :namespace: ''
        :label: Analysis Value (C)
        :extension_properties: []
        :ordinal: 0
        :rule: ''
        :name: AVALC
        :notes: |-
          Character analysis value described by PARAM. AVALC can be a character string mapping to AVAL, but if so there must be a one-to-one map between AVAL and AVALC within a given PARAM. AVALC should not be used to categorize the values of AVAL. Within a given parameter, if there exists a row on which both AVALC and AVAL are populated, then there must be a one-to-one mapping between AVALC and AVAL on all rows on which both variables are populated. (In other words, there is no requirement that records with a null value in either AVAL or AVALC be included when determining whether the one-to-one mapping requirement is satisfied.) On a given record, it is permissible for AVAL, AVALC, or both to be null.

          AVALC is required if AVAL is not present, since either AVAL or AVALC must be present in the dataset.
        :ct: ''
        :ct_notes: ''
        :compliance:
          :type: http://www.assero.co.uk/BusinessDomain#VariableCompliance
          :id: ''
          :namespace: ''
          :label: Conditional
          :extension_properties: []
      - :type: http://www.assero.co.uk/BusinessDomain#IgVariable
        :id: ''
        :namespace: ''
        :label: Analysis Value Category y
        :extension_properties: []
        :ordinal: 0
        :rule: ''
        :name: AVALCATy
        :notes: A categorization of AVAL or AVALC within a parameter. Not necessarily
          a one-to-one mapping to AVAL and/or AVALC. For example, if PARAM is “Headache
          Severity” and AVAL has values 0, 1, 2, or 3, AVALCAT1 can categorize AVAL
          into “None or Mild” (for AVAL 0 or 1) and “Moderate or Severe” (for AVAL
          2 or 3).
        :ct: ''
        :ct_notes: ''
        :compliance:
          :type: http://www.assero.co.uk/BusinessDomain#VariableCompliance
          :id: ''
          :namespace: ''
          :label: Permissible
          :extension_properties: []
      - :type: http://www.assero.co.uk/BusinessDomain#IgVariable
        :id: ''
        :namespace: ''
        :label: Analysis Value Category y (N)
        :extension_properties: []
        :ordinal: 0
        :rule: ''
        :name: AVALCAyN
        :notes: A numeric representation of AVALCATy. This can be used for ordering
          of values of AVALCATy or for other purposes. There must be a one-to-one
          relationship within a parameter between AVALCATy and AVALCAyN.
        :ct: ''
        :ct_notes: ''
        :compliance:
          :type: http://www.assero.co.uk/BusinessDomain#VariableCompliance
          :id: ''
          :namespace: ''
          :label: Permissible
          :extension_properties: []
      - :type: http://www.assero.co.uk/BusinessDomain#IgVariable
        :id: ''
        :namespace: ''
        :label: Baseline Value
        :extension_properties: []
        :ordinal: 0
        :rule: ''
        :name: BASE
        :notes: The subject’s baseline analysis value for a parameter and baseline
          definition (i.e. BASETYPE) if present. BASE contains the value of AVAL copied
          from a record within the parameter on which ABLFL = “Y”. Required if dataset
          supports analysis or review of numeric baseline value or functions of numeric
          baseline value. If BASE is populated for a parameter, and BASE is non-null
          for a subject for that parameter, then there must be a record flagged by
          ABLFL for that subject and parameter. Note that a baseline record may be
          derived (e.g., it may be an average) in which case DTYPE must be populated
          on the baseline record.
        :ct: ''
        :ct_notes: ''
        :compliance:
          :type: http://www.assero.co.uk/BusinessDomain#VariableCompliance
          :id: ''
          :namespace: ''
          :label: Conditional
          :extension_properties: []
      - :type: http://www.assero.co.uk/BusinessDomain#IgVariable
        :id: ''
        :namespace: ''
        :label: Baseline Value (C)
        :extension_properties: []
        :ordinal: 0
        :rule: ''
        :name: BASEC
        :notes: "The subject’s baseline value of AVALC for a parameter and baseline
          definition (i.e. BASETYPE) if present. May be needed when AVALC is of interest.
          BASEC contains the value of AVALC copied from a record within the parameter
          on which ABLFL = “Y”. If both AVAL and AVALC are populated within a parameter,
          the baseline record for AVALC must be the same record as that for AVAL.
          \n\nWithin a given parameter, if there exists a row on which both BASEC
          and BASE are populated, then there must be a one-to-one mapping between
          BASEC and BASE on all rows on which both variables are populated. (In other
          words, there is no requirement that records with a null value in either
          BASE or BASEC be included when determining whether the one-to-one mapping
          requirement is satisfied.) On a given record, it is permissible for BASE,
          BASEC, or both to be null."
        :ct: ''
        :ct_notes: ''
        :compliance:
          :type: http://www.assero.co.uk/BusinessDomain#VariableCompliance
          :id: ''
          :namespace: ''
          :label: Permissible
          :extension_properties: []
      - :type: http://www.assero.co.uk/BusinessDomain#IgVariable
        :id: ''
        :namespace: ''
        :label: Baseline Category y
        :extension_properties: []
        :ordinal: 0
        :rule: ''
        :name: BASECATy
        :notes: A categorization of BASE or BASEC within a parameter. Not necessarily
          a one-to-one mapping to BASE or BASEC. For example, if PARAM is “Headache
          Severity” and AVAL has values 0, 1, 2, or 3, BASECAT1 can categorize BASE
          into “None or Mild” (for BASE 0 or 1) and “Moderate or Severe” (for BASE
          2 or 3).
        :ct: ''
        :ct_notes: ''
        :compliance:
          :type: http://www.assero.co.uk/BusinessDomain#VariableCompliance
          :id: ''
          :namespace: ''
          :label: Permissible
          :extension_properties: []
      - :type: http://www.assero.co.uk/BusinessDomain#IgVariable
        :id: ''
        :namespace: ''
        :label: Baseline Category y (N)
        :extension_properties: []
        :ordinal: 0
        :rule: ''
        :name: BASECAyN
        :notes: A numeric representation of BASECATy. This can be used for ordering
          of values of BASECATy or for other purposes. There must be a one-to-one
          relationship within a parameter between BASECATy and BASECAyN.
        :ct: ''
        :ct_notes: ''
        :compliance:
          :type: http://www.assero.co.uk/BusinessDomain#VariableCompliance
          :id: ''
          :namespace: ''
          :label: Permissible
          :extension_properties: []
      - :type: http://www.assero.co.uk/BusinessDomain#IgVariable
        :id: ''
        :namespace: ''
        :label: Baseline Type
        :extension_properties: []
        :ordinal: 0
        :rule: ''
        :name: BASETYPE
        :notes: Producer-defined text describing the definition of baseline relevant
          to the value of BASE on the current record. Required when there are multiple
          ways that baseline is defined. If used for any PARAM within a dataset, should
          be non-null for all records of that dataset. Refer to Section 4.2.1, Rule
          6, for an example.
        :ct: ''
        :ct_notes: ''
        :compliance:
          :type: http://www.assero.co.uk/BusinessDomain#VariableCompliance
          :id: ''
          :namespace: ''
          :label: Conditional
          :extension_properties: []
      - :type: http://www.assero.co.uk/BusinessDomain#IgVariable
        :id: ''
        :namespace: ''
        :label: Change from Baseline
        :extension_properties: []
        :ordinal: 0
        :rule: ''
        :name: CHG
        :notes: Change from baseline analysis value. Equal to AVAL-BASE. If used for
          a given PARAM, should be populated for all post-baseline records of that
          PARAM regardless of whether that record is used for analysis. The decision
          on how to populate pre-baseline and baseline values of CHG is left to producer
          choice.
        :ct: ''
        :ct_notes: ''
        :compliance:
          :type: http://www.assero.co.uk/BusinessDomain#VariableCompliance
          :id: ''
          :namespace: ''
          :label: Permissible
          :extension_properties: []
      - :type: http://www.assero.co.uk/BusinessDomain#IgVariable
        :id: ''
        :namespace: ''
        :label: Change from Baseline Category y
        :extension_properties: []
        :ordinal: 0
        :rule: ''
        :name: CHGCATy
        :notes: A categorization of CHG within a parameter. Not necessarily a one-to-one
          mapping to CHG. The definition of CHGCATy may vary by PARAM. For example,
          CHGCAT1 may be used to categorize CHG with respect to ranges of change in
          SYSBP; “-10 to -5 mm Hg”, “-5 to 0 mm Hg” categories.
        :ct: ''
        :ct_notes: ''
        :compliance:
          :type: http://www.assero.co.uk/BusinessDomain#VariableCompliance
          :id: ''
          :namespace: ''
          :label: Permissible
          :extension_properties: []
      - :type: http://www.assero.co.uk/BusinessDomain#IgVariable
        :id: ''
        :namespace: ''
        :label: Change from Baseline Category y (N)
        :extension_properties: []
        :ordinal: 0
        :rule: ''
        :name: CHGCATyN
        :notes: A numeric representation of CHGCATy. This can be used for ordering
          of values of CHGCATy or for other purposes. There must be a one-to-one relationship
          within a parameter between CHGCATy and CHGCATyN.
        :ct: ''
        :ct_notes: ''
        :compliance:
          :type: http://www.assero.co.uk/BusinessDomain#VariableCompliance
          :id: ''
          :namespace: ''
          :label: Permissible
          :extension_properties: []
      - :type: http://www.assero.co.uk/BusinessDomain#IgVariable
        :id: ''
        :namespace: ''
        :label: Percent Change from Baseline
        :extension_properties: []
        :ordinal: 0
        :rule: ''
        :name: PCHG
        :notes: Percent change from baseline analysis value. Equal to ((AVAL-BASE)/BASE)*100.
          If used for a given PARAM, should be populated (when calculable) for all
          post-baseline records of that PARAM regardless of whether that record is
          used for analysis. The decision on how to populate pre-baseline and baseline
          values of PCHG is left to producer choice.
        :ct: ''
        :ct_notes: ''
        :compliance:
          :type: http://www.assero.co.uk/BusinessDomain#VariableCompliance
          :id: ''
          :namespace: ''
          :label: Permissible
          :extension_properties: []
      - :type: http://www.assero.co.uk/BusinessDomain#IgVariable
        :id: ''
        :namespace: ''
        :label: Percent Chg from Baseline Category y
        :extension_properties: []
        :ordinal: 0
        :rule: ''
        :name: PCHGCATy
        :notes: A categorization of PCHG within a parameter. Not necessarily a one-to-one
          mapping to PCHG. The definition of PCHGCATy may vary by PARAM. For example,
          PCHGCAT1 may be used to categorize PCHG with respect to ranges of change
          in SYSBP; “>5%”, “>10%” categories.
        :ct: ''
        :ct_notes: ''
        :compliance:
          :type: http://www.assero.co.uk/BusinessDomain#VariableCompliance
          :id: ''
          :namespace: ''
          :label: Permissible
          :extension_properties: []
      - :type: http://www.assero.co.uk/BusinessDomain#IgVariable
        :id: ''
        :namespace: ''
        :label: Percent Chg from Baseline Category y (N)
        :extension_properties: []
        :ordinal: 0
        :rule: ''
        :name: PCHGCAyN
        :notes: A numeric representation of PCHGCATy. This can be used for ordering
          of values of PCHGCATy or for other purposes. There must be a one-to-one
          relationship within a parameter between PCHGCATy and PCHGCAyN.
        :ct: ''
        :ct_notes: ''
        :compliance:
          :type: http://www.assero.co.uk/BusinessDomain#VariableCompliance
          :id: ''
          :namespace: ''
          :label: Permissible
          :extension_properties: []
      - :type: http://www.assero.co.uk/BusinessDomain#IgVariable
        :id: ''
        :namespace: ''
        :label: Ratio to Baseline
        :extension_properties: []
        :ordinal: 0
        :rule: ''
        :name: R2BASE
        :notes: Ratio to the baseline value. Equal to AVAL / BASE. If used for a given
          PARAM, should be populated for all post-baseline records of that PARAM regardless
          of whether that record is used for analysis. The decision on how to populate
          pre-baseline and baseline values of R2BASE is left to producer choice.
        :ct: ''
        :ct_notes: ''
        :compliance:
          :type: http://www.assero.co.uk/BusinessDomain#VariableCompliance
          :id: ''
          :namespace: ''
          :label: Permissible
          :extension_properties: []
      - :type: http://www.assero.co.uk/BusinessDomain#IgVariable
        :id: ''
        :namespace: ''
        :label: Ratio to Analysis Range y Lower Limit
        :extension_properties: []
        :ordinal: 0
        :rule: ''
        :name: R2AyLO
        :notes: Ratio to the lower limit of the analysis range y. Equal to AVAL /
          AyLO. AyLO must exist in the ADaM dataset. If used for a given PARAM, should
          be populated for all post-baseline records of that PARAM regardless of whether
          that record is used for analysis. The decision on how to populate pre-baseline
          and baseline values of R2AyLO is left to producer choice.
        :ct: ''
        :ct_notes: ''
        :compliance:
          :type: http://www.assero.co.uk/BusinessDomain#VariableCompliance
          :id: ''
          :namespace: ''
          :label: Permissible
          :extension_properties: []
      - :type: http://www.assero.co.uk/BusinessDomain#IgVariable
        :id: ''
        :namespace: ''
        :label: Ratio to Analysis Range y Upper Limit
        :extension_properties: []
        :ordinal: 0
        :rule: ''
        :name: R2AyHI
        :notes: Ratio to the upper limit of the analysis range y. Equal to AVAL /
          AyHI. AyHI must exist in the ADaM dataset. If used for a given PARAM, should
          be populated for all post-baseline records of that PARAM regardless of whether
          that record is used for analysis. The decision on how to populate pre-baseline
          and baseline values of R2AyHI is left to producer choice.
        :ct: ''
        :ct_notes: ''
        :compliance:
          :type: http://www.assero.co.uk/BusinessDomain#VariableCompliance
          :id: ''
          :namespace: ''
          :label: Permissible
          :extension_properties: []
      - :type: http://www.assero.co.uk/BusinessDomain#IgVariable
        :id: ''
        :namespace: ''
        :label: Shift y
        :extension_properties: []
        :ordinal: 0
        :rule: ''
        :name: SHIFTy
        :notes: A shift in values depending on the defined pairing for group y. SHIFTy
          can be based on the change in value of any of the following pairs (BASECATy,
          AVALCATy), (BNRIND, ANRIND), (ByIND, AyIND), (BTOXGR, ATOXGR), (BASE, AVAL)
          or (BASEC, AVALC). Useful for shift tables. For example, “NORMAL to HIGH”.
          If used for a given PARAM, should be populated (when calculable) for all
          post-baseline records of that PARAM regardless of whether that record is
          used for analysis. The decision on how to populate baseline and pre-baseline
          values of SHIFTy is left to producer choice.
        :ct: ''
        :ct_notes: ''
        :compliance:
          :type: http://www.assero.co.uk/BusinessDomain#VariableCompliance
          :id: ''
          :namespace: ''
          :label: Permissible
          :extension_properties: []
      - :type: http://www.assero.co.uk/BusinessDomain#IgVariable
        :id: ''
        :namespace: ''
        :label: Shift y (N)
        :extension_properties: []
        :ordinal: 0
        :rule: ''
        :name: SHIFTyN
        :notes: Numeric version of SHIFTy. SHIFTyN maps one-to-one to SHIFTy within
          a parameter. If used for a given PARAM, should be populated (when calculable)
          for all post-baseline records of that PARAM regardless of whether that record
          is used for analysis. The decision on how to populate baseline and pre-baseline
          values of SHIFTyN is left to producer choice.
        :ct: ''
        :ct_notes: ''
        :compliance:
          :type: http://www.assero.co.uk/BusinessDomain#VariableCompliance
          :id: ''
          :namespace: ''
          :label: Permissible
          :extension_properties: []
      - :type: http://www.assero.co.uk/BusinessDomain#IgVariable
        :id: ''
        :namespace: ''
        :label: Analysis Criterion y
        :extension_properties: []
        :ordinal: 0
        :rule: ''
        :name: CRITy
        :notes: A text string identifying a pre-specified criterion within a parameter,
          for example SYSBP > 90. Required if CRITyFL exists. In some cases, the presence
          of the text string indicates that the criterion is satisfied on this record
          and CRITyFL is set to Y, while a null value indicates that the criterion
          is not satisfied or is not evaluable and is accompanied by a null value
          in CRITyFL. In other cases, the text string identifies the criterion being
          evaluated and is populated on every row for the parameter, but whether or
          not the criterion is satisfied is indicated by the value of the variable
          CRITyFL. See CRITyFL and CRITyFN. Refer to Section 4.7 for additional discussion
          of CRITy, CRITyFL and CRITyFN.
        :ct: ''
        :ct_notes: ''
        :compliance:
          :type: http://www.assero.co.uk/BusinessDomain#VariableCompliance
          :id: ''
          :namespace: ''
          :label: Permissible
          :extension_properties: []
      - :type: http://www.assero.co.uk/BusinessDomain#IgVariable
        :id: ''
        :namespace: ''
        :label: Criterion y Evaluation Result Flag
        :extension_properties: []
        :ordinal: 0
        :rule: ''
        :name: CRITyFL
        :notes: Character flag variable indicating whether the criterion defined in
          CRITy was met by the data on the record. See CRITy for more information
          regarding how to use CRITy and CRITyFL to indicate whether a criterion is
          met. Required if CRITy exists. Refer to Section 4.7 for additional discussion.
        :ct: ''
        :ct_notes: "Y \nor\nY, N"
        :compliance:
          :type: http://www.assero.co.uk/BusinessDomain#VariableCompliance
          :id: ''
          :namespace: ''
          :label: Conditional
          :extension_properties: []
      - :type: http://www.assero.co.uk/BusinessDomain#IgVariable
        :id: ''
        :namespace: ''
        :label: Criterion y Evaluation Result Flag (N)
        :extension_properties: []
        :ordinal: 0
        :rule: ''
        :name: CRITyFN
        :notes: Numeric representation of CRITyFL. There is a one-to-one mapping between
          CRITyFL and CRITyFN. CRITyFN can be included only if CRITyFL is also included.
        :ct: ''
        :ct_notes: |-
          1
          or
          1, 0
        :compliance:
          :type: http://www.assero.co.uk/BusinessDomain#VariableCompliance
          :id: ''
          :namespace: ''
          :label: Permissible
          :extension_properties: []
      - :type: http://www.assero.co.uk/BusinessDomain#IgVariable
        :id: ''
        :namespace: ''
        :label: Analysis Multi-Response Criterion y
        :extension_properties: []
        :ordinal: 0
        :rule: ''
        :name: MCRITy
        :notes: A text string identifying a pre-specified criterion within a parameter,
          where the criterion can have multiple responses (as opposed to CRITy which
          has binary responses). Required if MCRITyML exists. For example, the grade
          of a lab analyte is compared to the baseline grade, with the possible conditions
          being 0 to 1, 0 to 2, etc. The text string identifies the criterion being
          evaluated (for example, “Grade increase”) and is populated on every row
          for the parameter; which level of the criterion is satisfied is indicated
          by the value of the variable MCRITyML (for example “0 to 1”, “0 to 2”, etc.)
          See MCRITyML and MCRITyMN below, and refer to Section 4.7 for additional
          discussion of MCRITy, MCRITyML, and MCRITyMN.
        :ct: ''
        :ct_notes: ''
        :compliance:
          :type: http://www.assero.co.uk/BusinessDomain#VariableCompliance
          :id: ''
          :namespace: ''
          :label: Permissible
          :extension_properties: []
      - :type: http://www.assero.co.uk/BusinessDomain#IgVariable
        :id: ''
        :namespace: ''
        :label: Multi-Response Criterion y Evaluation
        :extension_properties: []
        :ordinal: 0
        :rule: ''
        :name: MCRITyML
        :notes: Character variable indicating which level of the criterion defined
          in MCRITy was met by the data on the record. See MCRITy for more information
          regarding how to use MCRITy and MCRITyML to indicate whether a criterion
          was met. Content is sponsor-defined. Required if MCRITy exists.
        :ct: ''
        :ct_notes: ''
        :compliance:
          :type: http://www.assero.co.uk/BusinessDomain#VariableCompliance
          :id: ''
          :namespace: ''
          :label: Conditional
          :extension_properties: []
      - :type: http://www.assero.co.uk/BusinessDomain#IgVariable
        :id: ''
        :namespace: ''
        :label: Multi-Response Criterion y Eval (N)
        :extension_properties: []
        :ordinal: 0
        :rule: ''
        :name: MCRITyMN
        :notes: Numeric representation of MCRITyML. There is a one-to-one mapping
          between MCRITyML and MCRITyMN. Content is sponsor-defined. MCRITyMN can
          be included only if MCRITyML is also included.
        :ct: ''
        :ct_notes: ''
        :compliance:
          :type: http://www.assero.co.uk/BusinessDomain#VariableCompliance
          :id: ''
          :namespace: ''
          :label: Permissible
          :extension_properties: []
      - :type: http://www.assero.co.uk/BusinessDomain#IgVariable
        :id: ''
        :namespace: ''
        :label: Derivation Type
        :extension_properties: []
        :ordinal: 0
        :rule: ''
        :name: DTYPE
        :notes: "Analysis value derivation method. DTYPE is used to denote, and is
          required to be populated, when the value of AVAL or AVALC has been imputed
          or derived differently than the other analysis values within the parameter.
          DTYPE is required to be populated even if AVAL and AVALC are null on the
          derived record. \n\nThree common situations when DTYPE should be populated:
          \n(1) a new row is added within a parameter with the analysis value populated
          based on other rows within the parameter, \n(2) a new row is added within
          a parameter with the analysis value populated based on a constant value
          or data from other subjects, \n(3) an analysis value (AVAL or AVALC) on
          an existing record is being replaced with a value based on a pre-specified
          algorithm.\n\nDTYPE is used to denote analysis values that are “special
          cases” within a parameter. For each value of DTYPE, the precise derivation
          algorithm must be defined in analysis variable metadata, even for DTYPE
          values in the controlled terminology. The controlled terminology for DTYPE
          is extensible. See Section 4 for examples of the use of DTYPE.\n\nExamples
          of DTYPE values:\nLOCF = last observation carried forward.\nWOCF = worst
          observation carried forward.\nAVERAGE = average of values."
        :ct: DTYPE
        :ct_notes: ''
        :compliance:
          :type: http://www.assero.co.uk/BusinessDomain#VariableCompliance
          :id: ''
          :namespace: ''
          :label: Conditional
          :extension_properties: []
      - :type: http://www.assero.co.uk/BusinessDomain#IgVariable
        :id: ''
        :namespace: ''
        :label: Analysis Window Valid Relative Range
        :extension_properties: []
        :ordinal: 0
        :rule: ''
        :name: AWRANGE
        :notes: The range of values that are valid for a given analysis timepoint
          (a given value of AVISIT). For example, “5-9 DAYS”.
        :ct: ''
        :ct_notes: ''
        :compliance:
          :type: http://www.assero.co.uk/BusinessDomain#VariableCompliance
          :id: ''
          :namespace: ''
          :label: Permissible
          :extension_properties: []
      - :type: http://www.assero.co.uk/BusinessDomain#IgVariable
        :id: ''
        :namespace: ''
        :label: Analysis Window Target
        :extension_properties: []
        :ordinal: 0
        :rule: ''
        :name: AWTARGET
        :notes: The target or most desired analysis relative day (ADY) value or analysis
          relative time (ARELTM) value for a given value of AVISIT.
        :ct: ''
        :ct_notes: ''
        :compliance:
          :type: http://www.assero.co.uk/BusinessDomain#VariableCompliance
          :id: ''
          :namespace: ''
          :label: Permissible
          :extension_properties: []
      - :type: http://www.assero.co.uk/BusinessDomain#IgVariable
        :id: ''
        :namespace: ''
        :label: Analysis Window Diff from Target
        :extension_properties: []
        :ordinal: 0
        :rule: ''
        :name: AWTDIFF
        :notes: |-
          Absolute difference between ADY or ARELTM and AWTARGET. It will be necessary to adjust for the fact that there is no day 0 in the event that ADY and AWTARGET are not of the same sign.

          If the sign of the difference is important, then AWTDIFF might have to be used in conjunction with ADY or ARELTM and possibly AWTARGET when choosing among records.
        :ct: ''
        :ct_notes: ''
        :compliance:
          :type: http://www.assero.co.uk/BusinessDomain#VariableCompliance
          :id: ''
          :namespace: ''
          :label: Permissible
          :extension_properties: []
      - :type: http://www.assero.co.uk/BusinessDomain#IgVariable
        :id: ''
        :namespace: ''
        :label: Analysis Window Beginning Timepoint
        :extension_properties: []
        :ordinal: 0
        :rule: ''
        :name: AWLO
        :notes: The value of the beginning timepoint (inclusive) needs to be used
          in conjunction to AWRANGE. For example, if AWRANGE is “5-9 DAYS”, then AWLO
          is “5”.
        :ct: ''
        :ct_notes: ''
        :compliance:
          :type: http://www.assero.co.uk/BusinessDomain#VariableCompliance
          :id: ''
          :namespace: ''
          :label: Permissible
          :extension_properties: []
      - :type: http://www.assero.co.uk/BusinessDomain#IgVariable
        :id: ''
        :namespace: ''
        :label: Analysis Window Ending Timepoint
        :extension_properties: []
        :ordinal: 0
        :rule: ''
        :name: AWHI
        :notes: The value of the ending timepoint (inclusive) needs to be used in
          conjunction to AWRANGE. For example, if AWRANGE is “5-9 DAYS”, then AWHI
          is “9”.
        :ct: ''
        :ct_notes: ''
        :compliance:
          :type: http://www.assero.co.uk/BusinessDomain#VariableCompliance
          :id: ''
          :namespace: ''
          :label: Permissible
          :extension_properties: []
      - :type: http://www.assero.co.uk/BusinessDomain#IgVariable
        :id: ''
        :namespace: ''
        :label: Analysis Window Unit
        :extension_properties: []
        :ordinal: 0
        :rule: ''
        :name: AWU
        :notes: 'Unit used for AWLO and AWHI. Examples: DAYS, HOURS.'
        :ct: ''
        :ct_notes: ''
        :compliance:
          :type: http://www.assero.co.uk/BusinessDomain#VariableCompliance
          :id: ''
          :namespace: ''
          :label: Permissible
          :extension_properties: []
      - :type: http://www.assero.co.uk/BusinessDomain#IgVariable
        :id: ''
        :namespace: ''
        :label: Time-to-Event Origin Date for Subject
        :extension_properties: []
        :ordinal: 0
        :rule: ''
        :name: STARTDT
        :notes: The original date of risk for the time-to-event analysis. This is
          generally the time at which a subject is first at risk for the event of
          interest evaluation (as defined in the Protocol or Statistical Analysis
          Plan). For example, this may be the randomization date or the date of first
          study therapy exposure.
        :ct: ''
        :ct_notes: ''
        :compliance:
          :type: http://www.assero.co.uk/BusinessDomain#VariableCompliance
          :id: ''
          :namespace: ''
          :label: Permissible
          :extension_properties: []
      - :type: http://www.assero.co.uk/BusinessDomain#IgVariable
        :id: ''
        :namespace: ''
        :label: Time-to-Event Origin Datetime
        :extension_properties: []
        :ordinal: 0
        :rule: ''
        :name: STARTDTM
        :notes: The datetime associated with STARTDT in numeric format.
        :ct: ''
        :ct_notes: ''
        :compliance:
          :type: http://www.assero.co.uk/BusinessDomain#VariableCompliance
          :id: ''
          :namespace: ''
          :label: Permissible
          :extension_properties: []
      - :type: http://www.assero.co.uk/BusinessDomain#IgVariable
        :id: ''
        :namespace: ''
        :label: Origin Date Imputation Flag
        :extension_properties: []
        :ordinal: 0
        :rule: ''
        :name: STARTDTF
        :notes: The level of imputation of the start date. See Section 3.1.3.
        :ct: DATEFL
        :ct_notes: ''
        :compliance:
          :type: http://www.assero.co.uk/BusinessDomain#VariableCompliance
          :id: ''
          :namespace: ''
          :label: Conditional
          :extension_properties: []
      - :type: http://www.assero.co.uk/BusinessDomain#IgVariable
        :id: ''
        :namespace: ''
        :label: Origin Time Imputation Flag
        :extension_properties: []
        :ordinal: 0
        :rule: ''
        :name: STARTTMF
        :notes: The level of imputation of the start time. See Section 3.1.3.
        :ct: TIMEFL
        :ct_notes: ''
        :compliance:
          :type: http://www.assero.co.uk/BusinessDomain#VariableCompliance
          :id: ''
          :namespace: ''
          :label: Conditional
          :extension_properties: []
      - :type: http://www.assero.co.uk/BusinessDomain#IgVariable
        :id: ''
        :namespace: ''
        :label: Censor
        :extension_properties: []
        :ordinal: 0
        :rule: ''
        :name: CNSR
        :notes: Defines whether the event was censored for the subject within the
          parameter (period of observation truncated prior to event being observed).
          It is strongly recommended to use 0 as an event indicator and positive integers
          as censoring indicators. It is also recommended that unique positive integers
          be used to indicate coded descriptions of censoring reasons. CNSR is required
          for time-to-event parameters.
        :ct: ''
        :ct_notes: ''
        :compliance:
          :type: http://www.assero.co.uk/BusinessDomain#VariableCompliance
          :id: ''
          :namespace: ''
          :label: Conditional
          :extension_properties: []
      - :type: http://www.assero.co.uk/BusinessDomain#IgVariable
        :id: ''
        :namespace: ''
        :label: Event or Censoring Description
        :extension_properties: []
        :ordinal: 0
        :rule: ''
        :name: EVNTDESC
        :notes: Description of the event of interest or censoring reason for the subject
          within the parameter.
        :ct: ''
        :ct_notes: ''
        :compliance:
          :type: http://www.assero.co.uk/BusinessDomain#VariableCompliance
          :id: ''
          :namespace: ''
          :label: Permissible
          :extension_properties: []
      - :type: http://www.assero.co.uk/BusinessDomain#IgVariable
        :id: ''
        :namespace: ''
        :label: Censor Date Description
        :extension_properties: []
        :ordinal: 0
        :rule: ''
        :name: CNSDTDSC
        :notes: Describes the circumstance represented by the censoring date if different
          from the event date that warrants censoring.
        :ct: ''
        :ct_notes: ''
        :compliance:
          :type: http://www.assero.co.uk/BusinessDomain#VariableCompliance
          :id: ''
          :namespace: ''
          :label: Permissible
          :extension_properties: []
      - :type: http://www.assero.co.uk/BusinessDomain#IgVariable
        :id: ''
        :namespace: ''
        :label: Analysis Toxicity Grade
        :extension_properties: []
        :ordinal: 0
        :rule: ''
        :name: ATOXGR
        :notes: Toxicity grade of AVAL or AVALC for analysis; may be based on SDTM
          --TOXGR or an imputed or assigned value.
        :ct: ''
        :ct_notes: ''
        :compliance:
          :type: http://www.assero.co.uk/BusinessDomain#VariableCompliance
          :id: ''
          :namespace: ''
          :label: Permissible
          :extension_properties: []
      - :type: http://www.assero.co.uk/BusinessDomain#IgVariable
        :id: ''
        :namespace: ''
        :label: Baseline Toxicity Grade
        :extension_properties: []
        :ordinal: 0
        :rule: ''
        :name: BTOXGR
        :notes: ATOXGR of the baseline record identified by ABLFL.
        :ct: ''
        :ct_notes: ''
        :compliance:
          :type: http://www.assero.co.uk/BusinessDomain#VariableCompliance
          :id: ''
          :namespace: ''
          :label: Permissible
          :extension_properties: []
      - :type: http://www.assero.co.uk/BusinessDomain#IgVariable
        :id: ''
        :namespace: ''
        :label: Analysis Reference Range Indicator
        :extension_properties: []
        :ordinal: 0
        :rule: ''
        :name: ANRIND
        :notes: Indicates where AVAL or AVALC falls with respect to the normal reference
          range for analysis; may be based on SDTM --NRIND or an imputed or assigned
          value.
        :ct: ''
        :ct_notes: ''
        :compliance:
          :type: http://www.assero.co.uk/BusinessDomain#VariableCompliance
          :id: ''
          :namespace: ''
          :label: Permissible
          :extension_properties: []
      - :type: http://www.assero.co.uk/BusinessDomain#IgVariable
        :id: ''
        :namespace: ''
        :label: Baseline Reference Range Indicator
        :extension_properties: []
        :ordinal: 0
        :rule: ''
        :name: BNRIND
        :notes: ANRIND of the baseline record identified by ABLFL.
        :ct: ''
        :ct_notes: ''
        :compliance:
          :type: http://www.assero.co.uk/BusinessDomain#VariableCompliance
          :id: ''
          :namespace: ''
          :label: Permissible
          :extension_properties: []
      - :type: http://www.assero.co.uk/BusinessDomain#IgVariable
        :id: ''
        :namespace: ''
        :label: Analysis Normal Range Lower Limit
        :extension_properties: []
        :ordinal: 0
        :rule: ''
        :name: ANRLO
        :notes: Normal range lower limit for analysis; may be based on SDTM --NRLO
          or an imputed or assigned value.
        :ct: ''
        :ct_notes: ''
        :compliance:
          :type: http://www.assero.co.uk/BusinessDomain#VariableCompliance
          :id: ''
          :namespace: ''
          :label: Permissible
          :extension_properties: []
      - :type: http://www.assero.co.uk/BusinessDomain#IgVariable
        :id: ''
        :namespace: ''
        :label: Analysis Normal Range Lower Limit (C)
        :extension_properties: []
        :ordinal: 0
        :rule: ''
        :name: ANRLOC
        :notes: Character analysis normal range lower limit. ANRLOC can be a character
          string mapping to ANRLO, but if so there must be a one-to-one map between
          ANRLO and ANRLOC within a given PARAM. ANRLOC should not be used to categorize
          the values of ANRLO. Within a given parameter, if there exists a row on
          which both ANRLOC and ANRLO are populated, then there must be a one-to-one
          mapping between ANRLOC and ANRLO on all rows on which both variables are
          populated. (In other words, there is no requirement that records with a
          null value in either ANRLO or ANRLOC be included when determining whether
          the one-to-one mapping requirement is satisfied.) On a given record, it
          is permissible for ANRLO, ANRLOC, or both to be null.
        :ct: ''
        :ct_notes: ''
        :compliance:
          :type: http://www.assero.co.uk/BusinessDomain#VariableCompliance
