@prefix : <http://www.cdisc.org/SDTM_IG/V2#> .
@prefix bd: <http://www.assero.co.uk/Tabulation#> .
@prefix isoC: <http://www.assero.co.uk/ISO11179Concepts#> .
@prefix isoT: <http://www.assero.co.uk/ISO11179Types#> .
@prefix isoR: <http://www.assero.co.uk/ISO11179Registration#> .
@prefix isoI: <http://www.assero.co.uk/ISO11179Identification#> .
@prefix bo: <http://www.assero.co.uk/BusinessOperational#> .
@prefix owl: <http://www.w3.org/2002/07/owl#> .
@prefix rdf: <http://www.w3.org/1999/02/22-rdf-syntax-ns#> .
@prefix rdfs: <http://www.w3.org/2000/01/rdf-schema#> .
@prefix xsd: <http://www.w3.org/2001/XMLSchema#> .
@prefix skos: <http://www.w3.org/2004/02/skos/core#> .

<http://www.cdisc.org/SDTM_IG/V2>
	rdf:type owl:Ontology ;
.
:IG
	rdf:type bd:SDTMImplementationGuide ;
	isoC:label "Controlled Terminology"^^xsd:string ;
	isoT:hasState :IG_RS ;
	isoT:hasIdentifier :IG_SI ;
	isoT:hasPreviousVersion <http://www.cdisc.org/SDTM_IG/V1#IG> ;
	isoT:origin "Created from files: 'sdtm_ig_3-1-3.xlsx'"^^xsd:string ;
	isoT:changeDescription ""^^xsd:string ;
	isoT:creationDate "2012-07-16T00:00:00+00:00"^^xsd:dateTime ;
	isoT:lastChangeDate "2012-07-16T00:00:00+00:00"^^xsd:dateTime ;
	isoT:explanatoryComment ""^^xsd:string ;
	bo:hasManaged :IG_R1 ;
	bo:hasManaged :IG_R2 ;
	bo:hasManaged :IG_R3 ;
	bo:hasManaged :IG_R4 ;
	bo:hasManaged :IG_R5 ;
	bo:hasManaged :IG_R6 ;
	bo:hasManaged :IG_R7 ;
	bo:hasManaged :IG_R8 ;
	bo:hasManaged :IG_R9 ;
	bo:hasManaged :IG_R10 ;
	bo:hasManaged :IG_R11 ;
	bo:hasManaged :IG_R12 ;
	bo:hasManaged :IG_R13 ;
	bo:hasManaged :IG_R14 ;
	bo:hasManaged :IG_R15 ;
	bo:hasManaged :IG_R16 ;
	bo:hasManaged :IG_R17 ;
	bo:hasManaged :IG_R18 ;
	bo:hasManaged :IG_R19 ;
	bo:hasManaged :IG_R20 ;
	bo:hasManaged :IG_R21 ;
	bo:hasManaged :IG_R22 ;
	bo:hasManaged :IG_R23 ;
	bo:hasManaged :IG_R24 ;
	bo:hasManaged :IG_R25 ;
	bo:hasManaged :IG_R26 ;
	bo:hasManaged :IG_R27 ;
	bo:hasManaged :IG_R28 ;
	bo:hasManaged :IG_R29 ;
	bo:hasManaged :IG_R30 ;
	bo:hasManaged :IG_R31 ;
	bo:hasManaged :IG_R32 ;
	bo:hasManaged :IG_R33 ;
	bo:hasManaged :IG_R34 ;
	bo:hasManaged :IG_R35 ;
.
:IG_RS
	rdf:type isoR:RegistrationState ;
	isoR:registrationStatus "Standard"^^xsd:string ;
	isoR:administrativeNote ""^^xsd:string ;
	isoR:effectiveDate "2016-01-01T00:00:00+00:00"^^xsd:dateTime ;
	isoR:untilDate "2016-01-01T00:00:00+00:00"^^xsd:dateTime ;
	isoR:unresolvedIssue ""^^xsd:string ;
	isoR:administrativeStatus ""^^xsd:string ;
	isoR:previousState "Standard"^^xsd:string ;
	isoR:multipleEdit "false"^^xsd:boolean ;
	isoR:byAuthority <http://www.assero.co.uk/RA#DUNS084433759> ;
.
:IG_SI
	rdf:type isoI:ScopedIdentifier ;
	isoI:identifier "SDTM IG"^^xsd:string ;
	isoI:versionLabel "2012-07-16 Release"^^xsd:string ;
	isoI:version "2"^^xsd:positiveInteger ;
	isoI:semanticVersion "2.0.0"^^xsd:string ;
	isoI:hasScope <http://www.assero.co.uk/NS#CDISC> ;
.
:IG_R1
	rdf:type bo:Reference ;
	isoC:label ""^^xsd:string ;
	bo:enabled "true"^^xsd:boolean ;
	bo:optional "false"^^xsd:boolean ;
	bo:ordinal "1"^^xsd:positiveInteger ;
	bo:reference <http://www.cdisc.org/DM/V2> ;
.
:IG_R2
	rdf:type bo:Reference ;
	isoC:label ""^^xsd:string ;
	bo:enabled "true"^^xsd:boolean ;
	bo:optional "false"^^xsd:boolean ;
	bo:ordinal "2"^^xsd:positiveInteger ;
	bo:reference <http://www.cdisc.org/CO/V2> ;
.
:IG_R3
	rdf:type bo:Reference ;
	isoC:label ""^^xsd:string ;
	bo:enabled "true"^^xsd:boolean ;
	bo:optional "false"^^xsd:boolean ;
	bo:ordinal "3"^^xsd:positiveInteger ;
	bo:reference <http://www.cdisc.org/SE/V2> ;
.
:IG_R4
	rdf:type bo:Reference ;
	isoC:label ""^^xsd:string ;
	bo:enabled "true"^^xsd:boolean ;
	bo:optional "false"^^xsd:boolean ;
	bo:ordinal "4"^^xsd:positiveInteger ;
	bo:reference <http://www.cdisc.org/SV/V2> ;
.
:IG_R5
	rdf:type bo:Reference ;
	isoC:label ""^^xsd:string ;
	bo:enabled "true"^^xsd:boolean ;
	bo:optional "false"^^xsd:boolean ;
	bo:ordinal "5"^^xsd:positiveInteger ;
	bo:reference <http://www.cdisc.org/CM/V2> ;
.
:IG_R6
	rdf:type bo:Reference ;
	isoC:label ""^^xsd:string ;
	bo:enabled "true"^^xsd:boolean ;
	bo:optional "false"^^xsd:boolean ;
	bo:ordinal "6"^^xsd:positiveInteger ;
	bo:reference <http://www.cdisc.org/EX/V2> ;
.
:IG_R7
	rdf:type bo:Reference ;
	isoC:label ""^^xsd:string ;
	bo:enabled "true"^^xsd:boolean ;
	bo:optional "false"^^xsd:boolean ;
	bo:ordinal "7"^^xsd:positiveInteger ;
	bo:reference <http://www.cdisc.org/SU/V2> ;
.
:IG_R8
	rdf:type bo:Reference ;
	isoC:label ""^^xsd:string ;
	bo:enabled "true"^^xsd:boolean ;
	bo:optional "false"^^xsd:boolean ;
	bo:ordinal "8"^^xsd:positiveInteger ;
	bo:reference <http://www.cdisc.org/AE/V2> ;
.
:IG_R9
	rdf:type bo:Reference ;
	isoC:label ""^^xsd:string ;
	bo:enabled "true"^^xsd:boolean ;
	bo:optional "false"^^xsd:boolean ;
	bo:ordinal "9"^^xsd:positiveInteger ;
	bo:reference <http://www.cdisc.org/DS/V2> ;
.
:IG_R10
	rdf:type bo:Reference ;
	isoC:label ""^^xsd:string ;
	bo:enabled "true"^^xsd:boolean ;
	bo:optional "false"^^xsd:boolean ;
	bo:ordinal "10"^^xsd:positiveInteger ;
	bo:reference <http://www.cdisc.org/MH/V2> ;
.
:IG_R11
	rdf:type bo:Reference ;
	isoC:label ""^^xsd:string ;
	bo:enabled "true"^^xsd:boolean ;
	bo:optional "false"^^xsd:boolean ;
	bo:ordinal "11"^^xsd:positiveInteger ;
	bo:reference <http://www.cdisc.org/DV/V2> ;
.
:IG_R12
	rdf:type bo:Reference ;
	isoC:label ""^^xsd:string ;
	bo:enabled "true"^^xsd:boolean ;
	bo:optional "false"^^xsd:boolean ;
	bo:ordinal "12"^^xsd:positiveInteger ;
	bo:reference <http://www.cdisc.org/CE/V2> ;
.
:IG_R13
	rdf:type bo:Reference ;
	isoC:label ""^^xsd:string ;
	bo:enabled "true"^^xsd:boolean ;
	bo:optional "false"^^xsd:boolean ;
	bo:ordinal "13"^^xsd:positiveInteger ;
	bo:reference <http://www.cdisc.org/EG/V2> ;
.
:IG_R14
	rdf:type bo:Reference ;
	isoC:label ""^^xsd:string ;
	bo:enabled "true"^^xsd:boolean ;
	bo:optional "false"^^xsd:boolean ;
	bo:ordinal "14"^^xsd:positiveInteger ;
	bo:reference <http://www.cdisc.org/IE/V2> ;
.
:IG_R15
	rdf:type bo:Reference ;
	isoC:label ""^^xsd:string ;
	bo:enabled "true"^^xsd:boolean ;
	bo:optional "false"^^xsd:boolean ;
	bo:ordinal "15"^^xsd:positiveInteger ;
	bo:reference <http://www.cdisc.org/LB/V2> ;
.
:IG_R16
	rdf:type bo:Reference ;
	isoC:label ""^^xsd:string ;
	bo:enabled "true"^^xsd:boolean ;
	bo:optional "false"^^xsd:boolean ;
	bo:ordinal "16"^^xsd:positiveInteger ;
	bo:reference <http://www.cdisc.org/PE/V2> ;
.
:IG_R17
	rdf:type bo:Reference ;
	isoC:label ""^^xsd:string ;
	bo:enabled "true"^^xsd:boolean ;
	bo:optional "false"^^xsd:boolean ;
	bo:ordinal "17"^^xsd:positiveInteger ;
	bo:reference <http://www.cdisc.org/QS/V2> ;
.
:IG_R18
	rdf:type bo:Reference ;
	isoC:label ""^^xsd:string ;
	bo:enabled "true"^^xsd:boolean ;
	bo:optional "false"^^xsd:boolean ;
	bo:ordinal "18"^^xsd:positiveInteger ;
	bo:reference <http://www.cdisc.org/SC/V2> ;
.
:IG_R19
	rdf:type bo:Reference ;
	isoC:label ""^^xsd:string ;
	bo:enabled "true"^^xsd:boolean ;
	bo:optional "false"^^xsd:boolean ;
	bo:ordinal "19"^^xsd:positiveInteger ;
	bo:reference <http://www.cdisc.org/VS/V2> ;
.
:IG_R20
	rdf:type bo:Reference ;
	isoC:label ""^^xsd:string ;
	bo:enabled "true"^^xsd:boolean ;
	bo:optional "false"^^xsd:boolean ;
	bo:ordinal "20"^^xsd:positiveInteger ;
	bo:reference <http://www.cdisc.org/DA/V2> ;
.
:IG_R21
	rdf:type bo:Reference ;
	isoC:label ""^^xsd:string ;
	bo:enabled "true"^^xsd:boolean ;
	bo:optional "false"^^xsd:boolean ;
	bo:ordinal "21"^^xsd:positiveInteger ;
	bo:reference <http://www.cdisc.org/MB/V2> ;
.
:IG_R22
	rdf:type bo:Reference ;
	isoC:label ""^^xsd:string ;
	bo:enabled "true"^^xsd:boolean ;
	bo:optional "false"^^xsd:boolean ;
	bo:ordinal "22"^^xsd:positiveInteger ;
	bo:reference <http://www.cdisc.org/MS/V2> ;
.
:IG_R23
	rdf:type bo:Reference ;
	isoC:label ""^^xsd:string ;
	bo:enabled "true"^^xsd:boolean ;
	bo:optional "false"^^xsd:boolean ;
	bo:ordinal "23"^^xsd:positiveInteger ;
	bo:reference <http://www.cdisc.org/PC/V2> ;
.
:IG_R24
	rdf:type bo:Reference ;
	isoC:label ""^^xsd:string ;
	bo:enabled "true"^^xsd:boolean ;
	bo:optional "false"^^xsd:boolean ;
	bo:ordinal "24"^^xsd:positiveInteger ;
	bo:reference <http://www.cdisc.org/PP/V2> ;
.
:IG_R25
	rdf:type bo:Reference ;
	isoC:label ""^^xsd:string ;
	bo:enabled "true"^^xsd:boolean ;
	bo:optional "false"^^xsd:boolean ;
	bo:ordinal "25"^^xsd:positiveInteger ;
	bo:reference <http://www.cdisc.org/TU/V2> ;
.
:IG_R26
	rdf:type bo:Reference ;
	isoC:label ""^^xsd:string ;
	bo:enabled "true"^^xsd:boolean ;
	bo:optional "false"^^xsd:boolean ;
	bo:ordinal "26"^^xsd:positiveInteger ;
	bo:reference <http://www.cdisc.org/TR/V2> ;
.
:IG_R27
	rdf:type bo:Reference ;
	isoC:label ""^^xsd:string ;
	bo:enabled "true"^^xsd:boolean ;
	bo:optional "false"^^xsd:boolean ;
	bo:ordinal "27"^^xsd:positiveInteger ;
	bo:reference <http://www.cdisc.org/RS/V2> ;
.
:IG_R28
	rdf:type bo:Reference ;
	isoC:label ""^^xsd:string ;
	bo:enabled "true"^^xsd:boolean ;
	bo:optional "false"^^xsd:boolean ;
	bo:ordinal "28"^^xsd:positiveInteger ;
	bo:reference <http://www.cdisc.org/FA/V2> ;
.
:IG_R29
	rdf:type bo:Reference ;
	isoC:label ""^^xsd:string ;
	bo:enabled "true"^^xsd:boolean ;
	bo:optional "false"^^xsd:boolean ;
	bo:ordinal "29"^^xsd:positiveInteger ;
	bo:reference <http://www.cdisc.org/TA/V2> ;
.
:IG_R30
	rdf:type bo:Reference ;
	isoC:label ""^^xsd:string ;
	bo:enabled "true"^^xsd:boolean ;
	bo:optional "false"^^xsd:boolean ;
	bo:ordinal "30"^^xsd:positiveInteger ;
	bo:reference <http://www.cdisc.org/TE/V2> ;
.
:IG_R31
	rdf:type bo:Reference ;
	isoC:label ""^^xsd:string ;
	bo:enabled "true"^^xsd:boolean ;
	bo:optional "false"^^xsd:boolean ;
	bo:ordinal "31"^^xsd:positiveInteger ;
	bo:reference <http://www.cdisc.org/TV/V2> ;
.
:IG_R32
	rdf:type bo:Reference ;
	isoC:label ""^^xsd:string ;
	bo:enabled "true"^^xsd:boolean ;
	bo:optional "false"^^xsd:boolean ;
	bo:ordinal "32"^^xsd:positiveInteger ;
	bo:reference <http://www.cdisc.org/TI/V2> ;
.
:IG_R33
	rdf:type bo:Reference ;
	isoC:label ""^^xsd:string ;
	bo:enabled "true"^^xsd:boolean ;
	bo:optional "false"^^xsd:boolean ;
	bo:ordinal "33"^^xsd:positiveInteger ;
	bo:reference <http://www.cdisc.org/TS/V2> ;
.
:IG_R34
	rdf:type bo:Reference ;
	isoC:label ""^^xsd:string ;
	bo:enabled "true"^^xsd:boolean ;
	bo:optional "false"^^xsd:boolean ;
	bo:ordinal "34"^^xsd:positiveInteger ;
	bo:reference <http://www.cdisc.org/RELREC/V2> ;
.
:IG_R35
	rdf:type bo:Reference ;
	isoC:label ""^^xsd:string ;
	bo:enabled "true"^^xsd:boolean ;
	bo:optional "false"^^xsd:boolean ;
	bo:ordinal "35"^^xsd:positiveInteger ;
	bo:reference <http://www.cdisc.org/SUPPQUAL/V2> ;
.
<http://www.cdisc.org/DM/V2>
	rdf:type bd:SdtmDomain ;
	isoC:label "Demographics"^^xsd:string ;
	isoT:hasState <http://www.cdisc.org/DM/V2#RS> ;
	isoT:hasIdentifier <http://www.cdisc.org/DM/V2#SI> ;
	isoT:hasPreviousVersion <http://www.cdisc.org/DM/V1> ;
	isoT:origin ""^^xsd:string ;
	isoT:changeDescription ""^^xsd:string ;
	isoT:creationDate "2012-07-16T00:00:00+00:00"^^xsd:dateTime ;
	isoT:lastChangeDate "2012-07-16T00:00:00+00:00"^^xsd:dateTime ;
	isoT:explanatoryComment ""^^xsd:string ;
	bd:rule ""^^xsd:string ;
	bd:ordinal "1"^^xsd:positiveInteger ;
	bd:includesColumn <http://www.cdisc.org/DM/V1#STUDYID> ;
	bd:includesColumn <http://www.cdisc.org/DM/V2#DOMAIN> ;
	bd:includesColumn <http://www.cdisc.org/DM/V2#USUBJID> ;
	bd:includesColumn <http://www.cdisc.org/DM/V1#SUBJID> ;
	bd:includesColumn <http://www.cdisc.org/DM/V1#RFSTDTC> ;
	bd:includesColumn <http://www.cdisc.org/DM/V1#RFENDTC> ;
	bd:includesColumn <http://www.cdisc.org/DM/V2#RFXSTDTC> ;
	bd:includesColumn <http://www.cdisc.org/DM/V2#RFXENDTC> ;
	bd:includesColumn <http://www.cdisc.org/DM/V2#RFICDTC> ;
	bd:includesColumn <http://www.cdisc.org/DM/V2#RFPENDTC> ;
	bd:includesColumn <http://www.cdisc.org/DM/V2#DTHDTC> ;
	bd:includesColumn <http://www.cdisc.org/DM/V2#DTHFL> ;
	bd:includesColumn <http://www.cdisc.org/DM/V2#SITEID> ;
	bd:includesColumn <http://www.cdisc.org/DM/V2#INVID> ;
	bd:includesColumn <http://www.cdisc.org/DM/V2#INVNAM> ;
	bd:includesColumn <http://www.cdisc.org/DM/V2#BRTHDTC> ;
	bd:includesColumn <http://www.cdisc.org/DM/V2#AGE> ;
	bd:includesColumn <http://www.cdisc.org/DM/V2#AGEU> ;
	bd:includesColumn <http://www.cdisc.org/DM/V2#SEX> ;
	bd:includesColumn <http://www.cdisc.org/DM/V2#RACE> ;
	bd:includesColumn <http://www.cdisc.org/DM/V2#ETHNIC> ;
	bd:includesColumn <http://www.cdisc.org/DM/V2#ARMCD> ;
	bd:includesColumn <http://www.cdisc.org/DM/V2#ARM> ;
	bd:includesColumn <http://www.cdisc.org/DM/V2#ACTARMCD> ;
	bd:includesColumn <http://www.cdisc.org/DM/V2#ACTARM> ;
	bd:includesColumn <http://www.cdisc.org/DM/V2#COUNTRY> ;
	bd:includesColumn <http://www.cdisc.org/DM/V2#DMDTC> ;
	bd:includesColumn <http://www.cdisc.org/DM/V2#DMDY> ;
	bd:prefix "DM"^^xsd:string ;
	bd:structure "One record per subject"^^xsd:string ;
	bd:basedOnClass <http://www.cdisc.org/SDTM_MODEL_DM/V2#CL> ;
.
<http://www.cdisc.org/DM/V2#RS>
	rdf:type isoR:RegistrationState ;
	isoR:registrationStatus "Standard"^^xsd:string ;
	isoR:administrativeNote ""^^xsd:string ;
	isoR:effectiveDate "2016-01-01T00:00:00+00:00"^^xsd:dateTime ;
	isoR:untilDate "2016-01-01T00:00:00+00:00"^^xsd:dateTime ;
	isoR:unresolvedIssue ""^^xsd:string ;
	isoR:administrativeStatus ""^^xsd:string ;
	isoR:previousState "Standard"^^xsd:string ;
	isoR:multipleEdit "false"^^xsd:boolean ;
	isoR:byAuthority <http://www.assero.co.uk/RA#DUNS084433759> ;
.
<http://www.cdisc.org/DM/V2#SI>
	rdf:type isoI:ScopedIdentifier ;
	isoI:identifier "DM"^^xsd:string ;
	isoI:versionLabel "2012-07-16 Release"^^xsd:string ;
	isoI:version "2"^^xsd:positiveInteger ;
	isoI:semanticVersion "2.0.0"^^xsd:string ;
	isoI:hasScope <http://www.assero.co.uk/NS#CDISC> ;
.
<http://www.cdisc.org/DM/V2#DOMAIN>
	rdf:type bd:SdtmDomainVariable ;
	isoC:label "Domain Abbreviation"^^xsd:string ;
	bd:rule ""^^xsd:string ;
	bd:ordinal "2"^^xsd:positiveInteger ;
	bd:name "DOMAIN"^^xsd:string ;
	bd:description "Two-character abbreviation for the domain."^^xsd:string ;
	bd:format ""^^xsd:string ;
	bd:ctAndFormat "(DOMAIN)"^^xsd:string ;
	bd:compliance <http://www.assero.co.uk/CSN#52070084-cdd3-4ba8-8377-f670e4b0276c> ;
	bd:ctReference <http://www.cdisc.org/DM/V2#DOMAIN_TMC1> ;
	bd:basedOnClassVariable <http://www.cdisc.org/SDTM_MODEL_DM/V1#CL_DOMAIN> ;
.
<http://www.cdisc.org/DM/V2#DOMAIN_TMC1>
	rdf:type bo:TMcReference ;
	isoC:label "DOMAIN"^^xsd:string ;
	bo:enabled "true"^^xsd:boolean ;
	bo:optional "false"^^xsd:boolean ;
	bo:ordinal "1"^^xsd:positiveInteger ;
	bo:reference <http://www.cdisc.org/C66734/V28#C66734> ;
	bo:context <http://www.cdisc.org/CT/V31#TH> ;
.
<http://www.cdisc.org/DM/V2#USUBJID>
	rdf:type bd:SdtmDomainVariable ;
	isoC:label "Unique Subject Identifier"^^xsd:string ;
	bd:rule ""^^xsd:string ;
	bd:ordinal "3"^^xsd:positiveInteger ;
	bd:name "USUBJID"^^xsd:string ;
	bd:description "Identifier used to uniquely identify a subject across all studies for all applications or submissions involving the product. This must be a unique number, and could be a compound identifier formed by concatenating STUDYID-SITEID-SUBJID."^^xsd:string ;
	bd:format ""^^xsd:string ;
	bd:ctAndFormat ""^^xsd:string ;
	bd:compliance <http://www.assero.co.uk/CSN#52070084-cdd3-4ba8-8377-f670e4b0276c> ;
	bd:basedOnClassVariable <http://www.cdisc.org/SDTM_MODEL_DM/V2#CL_USUBJID> ;
.
<http://www.cdisc.org/DM/V2#RFXSTDTC>
	rdf:type bd:SdtmDomainVariable ;
	isoC:label "Date/Time of First Study Treatment"^^xsd:string ;
	bd:rule ""^^xsd:string ;
	bd:ordinal "7"^^xsd:positiveInteger ;
	bd:name "RFXSTDTC"^^xsd:string ;
	bd:description "First date of exposure to any protocol-specified treatment or therapy, equal to the earliest value of EXSTDTC."^^xsd:string ;
	bd:format "ISO 8601"^^xsd:string ;
	bd:ctAndFormat "ISO 8601"^^xsd:string ;
	bd:compliance <http://www.assero.co.uk/CSN#046f6c24-9eaf-4f60-8390-f36328c82ec4> ;
	bd:basedOnClassVariable <http://www.cdisc.org/SDTM_MODEL_DM/V2#CL_RFXSTDTC> ;
.
<http://www.cdisc.org/DM/V2#RFXENDTC>
	rdf:type bd:SdtmDomainVariable ;
	isoC:label "Date/Time of Last Study Treatment"^^xsd:string ;
	bd:rule ""^^xsd:string ;
	bd:ordinal "8"^^xsd:positiveInteger ;
	bd:name "RFXENDTC"^^xsd:string ;
	bd:description "Last date of exposure to any protocol-specified treatment or therapy, equal to the latest value of EXENDTC (or the latest value of EXSTDTC if EXENDTC was not collected or is missing)."^^xsd:string ;
	bd:format "ISO 8601"^^xsd:string ;
	bd:ctAndFormat "ISO 8601"^^xsd:string ;
	bd:compliance <http://www.assero.co.uk/CSN#046f6c24-9eaf-4f60-8390-f36328c82ec4> ;
	bd:basedOnClassVariable <http://www.cdisc.org/SDTM_MODEL_DM/V2#CL_RFXENDTC> ;
.
<http://www.cdisc.org/DM/V2#RFICDTC>
	rdf:type bd:SdtmDomainVariable ;
	isoC:label "Date/Time of Informed Consent"^^xsd:string ;
	bd:rule ""^^xsd:string ;
	bd:ordinal "9"^^xsd:positiveInteger ;
	bd:name "RFICDTC"^^xsd:string ;
	bd:description "Date/time of informed consent in ISO 8601 character format. This will be the same as the date of informed consent in the Disposition domain, if that protocol milestone is documented. Would be null only in studies not collecting the date of informed consent."^^xsd:string ;
	bd:format "ISO 8601"^^xsd:string ;
	bd:ctAndFormat "ISO 8601"^^xsd:string ;
	bd:compliance <http://www.assero.co.uk/CSN#046f6c24-9eaf-4f60-8390-f36328c82ec4> ;
	bd:basedOnClassVariable <http://www.cdisc.org/SDTM_MODEL_DM/V2#CL_RFICDTC> ;
.
<http://www.cdisc.org/DM/V2#RFPENDTC>
	rdf:type bd:SdtmDomainVariable ;
	isoC:label "Date/Time of End of Participation"^^xsd:string ;
	bd:rule ""^^xsd:string ;
	bd:ordinal "10"^^xsd:positiveInteger ;
	bd:name "RFPENDTC"^^xsd:string ;
	bd:description "Date/time when subject ended participation or follow-up in a trial, as defined in the protocol, in ISO 8601 character format. Should correspond to the last known date of contact. Examples include completion date, withdrawal date, last follow-up, date recorded for lost to follow up, or death date."^^xsd:string ;
	bd:format "ISO 8601"^^xsd:string ;
	bd:ctAndFormat "ISO 8601"^^xsd:string ;
	bd:compliance <http://www.assero.co.uk/CSN#046f6c24-9eaf-4f60-8390-f36328c82ec4> ;
	bd:basedOnClassVariable <http://www.cdisc.org/SDTM_MODEL_DM/V2#CL_RFPENDTC> ;
.
<http://www.cdisc.org/DM/V2#DTHDTC>
	rdf:type bd:SdtmDomainVariable ;
	isoC:label "Date/Time of Death"^^xsd:string ;
	bd:rule ""^^xsd:string ;
	bd:ordinal "11"^^xsd:positiveInteger ;
	bd:name "DTHDTC"^^xsd:string ;
	bd:description "Date/time of death for any subject who died, in ISO 8601 format. Should represent the date/time that is captured in the clinical-trial database."^^xsd:string ;
	bd:format "ISO 8601"^^xsd:string ;
	bd:ctAndFormat "ISO 8601"^^xsd:string ;
	bd:compliance <http://www.assero.co.uk/CSN#046f6c24-9eaf-4f60-8390-f36328c82ec4> ;
	bd:basedOnClassVariable <http://www.cdisc.org/SDTM_MODEL_DM/V2#CL_DTHDTC> ;
.
<http://www.cdisc.org/DM/V2#DTHFL>
	rdf:type bd:SdtmDomainVariable ;
	isoC:label "Subject Death Flag"^^xsd:string ;
	bd:rule ""^^xsd:string ;
	bd:ordinal "12"^^xsd:positiveInteger ;
	bd:name "DTHFL"^^xsd:string ;
	bd:description "Indicates the subject died. Should be Y or null. Should be populated even when the death date is unknown."^^xsd:string ;
	bd:format ""^^xsd:string ;
	bd:ctAndFormat "(NY)"^^xsd:string ;
	bd:compliance <http://www.assero.co.uk/CSN#046f6c24-9eaf-4f60-8390-f36328c82ec4> ;
	bd:ctReference <http://www.cdisc.org/DM/V2#DTHFL_TMC1> ;
	bd:basedOnClassVariable <http://www.cdisc.org/SDTM_MODEL_DM/V2#CL_DTHFL> ;
.
<http://www.cdisc.org/DM/V2#DTHFL_TMC1>
	rdf:type bo:TMcReference ;
	isoC:label "NY"^^xsd:string ;
	bo:enabled "true"^^xsd:boolean ;
	bo:optional "false"^^xsd:boolean ;
	bo:ordinal "1"^^xsd:positiveInteger ;
	bo:reference <http://www.cdisc.org/C66742/V4#C66742> ;
	bo:context <http://www.cdisc.org/CT/V31#TH> ;
.
<http://www.cdisc.org/DM/V2#SITEID>
	rdf:type bd:SdtmDomainVariable ;
	isoC:label "Study Site Identifier"^^xsd:string ;
	bd:rule ""^^xsd:string ;
	bd:ordinal "13"^^xsd:positiveInteger ;
	bd:name "SITEID"^^xsd:string ;
	bd:description "Unique identifier for a site within a study."^^xsd:string ;
	bd:format ""^^xsd:string ;
	bd:ctAndFormat ""^^xsd:string ;
	bd:compliance <http://www.assero.co.uk/CSN#52070084-cdd3-4ba8-8377-f670e4b0276c> ;
	bd:basedOnClassVariable <http://www.cdisc.org/SDTM_MODEL_DM/V2#CL_SITEID> ;
.
<http://www.cdisc.org/DM/V2#INVID>
	rdf:type bd:SdtmDomainVariable ;
	isoC:label "Investigator Identifier"^^xsd:string ;
	bd:rule ""^^xsd:string ;
	bd:ordinal "14"^^xsd:positiveInteger ;
	bd:name "INVID"^^xsd:string ;
	bd:description "An identifier to describe the Investigator for the study. May be used in addition to SITEID. Not needed if SITEID is equivalent to INVID."^^xsd:string ;
	bd:format ""^^xsd:string ;
	bd:ctAndFormat ""^^xsd:string ;
	bd:compliance <http://www.assero.co.uk/CSN#f7d9d4e1-a00a-487e-89db-ebece910ba0d> ;
	bd:basedOnClassVariable <http://www.cdisc.org/SDTM_MODEL_DM/V2#CL_INVID> ;
.
<http://www.cdisc.org/DM/V2#INVNAM>
	rdf:type bd:SdtmDomainVariable ;
	isoC:label "Investigator Name"^^xsd:string ;
	bd:rule ""^^xsd:string ;
	bd:ordinal "15"^^xsd:positiveInteger ;
	bd:name "INVNAM"^^xsd:string ;
	bd:description "Name of the investigator for a site."^^xsd:string ;
	bd:format ""^^xsd:string ;
	bd:ctAndFormat ""^^xsd:string ;
	bd:compliance <http://www.assero.co.uk/CSN#f7d9d4e1-a00a-487e-89db-ebece910ba0d> ;
	bd:basedOnClassVariable <http://www.cdisc.org/SDTM_MODEL_DM/V2#CL_INVNAM> ;
.
<http://www.cdisc.org/DM/V2#BRTHDTC>
	rdf:type bd:SdtmDomainVariable ;
	isoC:label "Date/Time of Birth"^^xsd:string ;
	bd:rule ""^^xsd:string ;
	bd:ordinal "16"^^xsd:positiveInteger ;
	bd:name "BRTHDTC"^^xsd:string ;
	bd:description "Date/time of birth of the subject."^^xsd:string ;
	bd:format "ISO 8601"^^xsd:string ;
	bd:ctAndFormat "ISO 8601"^^xsd:string ;
	bd:compliance <http://www.assero.co.uk/CSN#f7d9d4e1-a00a-487e-89db-ebece910ba0d> ;
	bd:basedOnClassVariable <http://www.cdisc.org/SDTM_MODEL_DM/V2#CL_BRTHDTC> ;
.
<http://www.cdisc.org/DM/V2#AGE>
	rdf:type bd:SdtmDomainVariable ;
	isoC:label "Age"^^xsd:string ;
	bd:rule ""^^xsd:string ;
	bd:ordinal "17"^^xsd:positiveInteger ;
	bd:name "AGE"^^xsd:string ;
	bd:description "Age expressed in AGEU. May be derived from RFSTDTC and BRTHDTC, but BRTHDTC may not be available in all cases (due to subject privacy concerns)."^^xsd:string ;
	bd:format ""^^xsd:string ;
	bd:ctAndFormat ""^^xsd:string ;
	bd:compliance <http://www.assero.co.uk/CSN#046f6c24-9eaf-4f60-8390-f36328c82ec4> ;
	bd:basedOnClassVariable <http://www.cdisc.org/SDTM_MODEL_DM/V2#CL_AGE> ;
.
<http://www.cdisc.org/DM/V2#AGEU>
	rdf:type bd:SdtmDomainVariable ;
	isoC:label "Age Units"^^xsd:string ;
	bd:rule ""^^xsd:string ;
	bd:ordinal "18"^^xsd:positiveInteger ;
	bd:name "AGEU"^^xsd:string ;
	bd:description "Units associated with AGE."^^xsd:string ;
	bd:format ""^^xsd:string ;
	bd:ctAndFormat "(AGEU)"^^xsd:string ;
	bd:compliance <http://www.assero.co.uk/CSN#046f6c24-9eaf-4f60-8390-f36328c82ec4> ;
	bd:ctReference <http://www.cdisc.org/DM/V2#AGEU_TMC1> ;
	bd:basedOnClassVariable <http://www.cdisc.org/SDTM_MODEL_DM/V2#CL_AGEU> ;
.
<http://www.cdisc.org/DM/V2#AGEU_TMC1>
	rdf:type bo:TMcReference ;
	isoC:label "AGEU"^^xsd:string ;
	bo:enabled "true"^^xsd:boolean ;
	bo:optional "false"^^xsd:boolean ;
	bo:ordinal "1"^^xsd:positiveInteger ;
	bo:reference <http://www.cdisc.org/C66781/V28#C66781> ;
	bo:context <http://www.cdisc.org/CT/V31#TH> ;
.
<http://www.cdisc.org/DM/V2#SEX>
	rdf:type bd:SdtmDomainVariable ;
	isoC:label "Sex"^^xsd:string ;
	bd:rule ""^^xsd:string ;
	bd:ordinal "19"^^xsd:positiveInteger ;
	bd:name "SEX"^^xsd:string ;
	bd:description "Sex of the subject."^^xsd:string ;
	bd:format ""^^xsd:string ;
	bd:ctAndFormat "(SEX)"^^xsd:string ;
	bd:compliance <http://www.assero.co.uk/CSN#52070084-cdd3-4ba8-8377-f670e4b0276c> ;
	bd:ctReference <http://www.cdisc.org/DM/V2#SEX_TMC1> ;
	bd:basedOnClassVariable <http://www.cdisc.org/SDTM_MODEL_DM/V2#CL_SEX> ;
.
<http://www.cdisc.org/DM/V2#SEX_TMC1>
	rdf:type bo:TMcReference ;
	isoC:label "SEX"^^xsd:string ;
	bo:enabled "true"^^xsd:boolean ;
	bo:optional "false"^^xsd:boolean ;
	bo:ordinal "1"^^xsd:positiveInteger ;
	bo:reference <http://www.cdisc.org/C66731/V16#C66731> ;
	bo:context <http://www.cdisc.org/CT/V31#TH> ;
.
<http://www.cdisc.org/DM/V2#RACE>
	rdf:type bd:SdtmDomainVariable ;
	isoC:label "Race"^^xsd:string ;
	bd:rule ""^^xsd:string ;
	bd:ordinal "20"^^xsd:positiveInteger ;
	bd:name "RACE"^^xsd:string ;
	bd:description "Race of the subject. Sponsors should refer to \"Collection of Race and Ethnicity Data in Clinical Trials\" (FDA, September 2005) for guidance regarding the collection of race (http://www.fda.gov/cder/guidance/5656fnl.htm) See Assumption below regarding RACE."^^xsd:string ;
	bd:format ""^^xsd:string ;
	bd:ctAndFormat "(RACE)"^^xsd:string ;
	bd:compliance <http://www.assero.co.uk/CSN#046f6c24-9eaf-4f60-8390-f36328c82ec4> ;
	bd:ctReference <http://www.cdisc.org/DM/V2#RACE_TMC1> ;
	bd:basedOnClassVariable <http://www.cdisc.org/SDTM_MODEL_DM/V2#CL_RACE> ;
.
<http://www.cdisc.org/DM/V2#RACE_TMC1>
	rdf:type bo:TMcReference ;
	isoC:label "RACE"^^xsd:string ;
	bo:enabled "true"^^xsd:boolean ;
	bo:optional "false"^^xsd:boolean ;
	bo:ordinal "1"^^xsd:positiveInteger ;
	bo:reference <http://www.cdisc.org/C74457/V10#C74457> ;
	bo:context <http://www.cdisc.org/CT/V31#TH> ;
.
<http://www.cdisc.org/DM/V2#ETHNIC>
	rdf:type bd:SdtmDomainVariable ;
	isoC:label "Ethnicity"^^xsd:string ;
	bd:rule ""^^xsd:string ;
	bd:ordinal "21"^^xsd:positiveInteger ;
	bd:name "ETHNIC"^^xsd:string ;
	bd:description "The ethnicity of the subject. Sponsors should refer to \"Collection of Race and Ethnicity Data in Clinical Trials\" (FDA, September 2005) for guidance regarding the collection of ethnicity (http://www.fda.gov/cder/guidance/5656fnl.htm)."^^xsd:string ;
	bd:format ""^^xsd:string ;
	bd:ctAndFormat "(ETHNIC)"^^xsd:string ;
	bd:compliance <http://www.assero.co.uk/CSN#f7d9d4e1-a00a-487e-89db-ebece910ba0d> ;
	bd:ctReference <http://www.cdisc.org/DM/V2#ETHNIC_TMC1> ;
	bd:basedOnClassVariable <http://www.cdisc.org/SDTM_MODEL_DM/V2#CL_ETHNIC> ;
.
<http://www.cdisc.org/DM/V2#ETHNIC_TMC1>
	rdf:type bo:TMcReference ;
	isoC:label "ETHNIC"^^xsd:string ;
	bo:enabled "true"^^xsd:boolean ;
	bo:optional "false"^^xsd:boolean ;
	bo:ordinal "1"^^xsd:positiveInteger ;
	bo:reference <http://www.cdisc.org/C66790/V19#C66790> ;
	bo:context <http://www.cdisc.org/CT/V31#TH> ;
.
<http://www.cdisc.org/DM/V2#ARMCD>
	rdf:type bd:SdtmDomainVariable ;
	isoC:label "Planned Arm Code"^^xsd:string ;
	bd:rule ""^^xsd:string ;
	bd:ordinal "22"^^xsd:positiveInteger ;
	bd:name "ARMCD"^^xsd:string ;
	bd:description "ARMCD is limited to 20 characters and does not have special character restrictions. The maximum length of ARMCD is longer than for other \"short\" variables to accommodate the kind of values that are likely to be needed for crossover trials. For example, if ARMCD values for a seven-period crossover were constructed using two-character abbreviations for each treatment and separating hyphens, the length of ARMCD values would be 20."^^xsd:string ;
	bd:format ""^^xsd:string ;
	bd:ctAndFormat ""^^xsd:string ;
	bd:compliance <http://www.assero.co.uk/CSN#52070084-cdd3-4ba8-8377-f670e4b0276c> ;
	bd:basedOnClassVariable <http://www.cdisc.org/SDTM_MODEL_DM/V2#CL_ARMCD> ;
.
<http://www.cdisc.org/DM/V2#ARM>
	rdf:type bd:SdtmDomainVariable ;
	isoC:label "Description of Planned Arm"^^xsd:string ;
	bd:rule ""^^xsd:string ;
	bd:ordinal "23"^^xsd:positiveInteger ;
	bd:name "ARM"^^xsd:string ;
	bd:description "Name of the Arm to which the subject was assigned."^^xsd:string ;
	bd:format ""^^xsd:string ;
	bd:ctAndFormat ""^^xsd:string ;
	bd:compliance <http://www.assero.co.uk/CSN#52070084-cdd3-4ba8-8377-f670e4b0276c> ;
	bd:basedOnClassVariable <http://www.cdisc.org/SDTM_MODEL_DM/V2#CL_ARM> ;
.
<http://www.cdisc.org/DM/V2#ACTARMCD>
	rdf:type bd:SdtmDomainVariable ;
	isoC:label "Actual Arm Code"^^xsd:string ;
	bd:rule ""^^xsd:string ;
	bd:ordinal "24"^^xsd:positiveInteger ;
	bd:name "ACTARMCD"^^xsd:string ;
	bd:description "Code of actual Arm. When an Arm is not planned (not in Trial Arms), ACTARMCD will be UNPLAN. Randomized subjects who were not treated will be given a value of NOTTRT. Values should be \"SCRNFAIL\" for screen failures and \"NOTASSGN\" for subjects not assigned to treatment. Restricted to values in Trial Arms in all other cases.\n\nACTARMCD is limited to 20 characters and does not have special character restrictions. The maximum length of ACTARMCD is longer than for other short variables to accommodate the kind of values that are likely to be needed for crossover trials."^^xsd:string ;
	bd:format ""^^xsd:string ;
	bd:ctAndFormat ""^^xsd:string ;
	bd:compliance <http://www.assero.co.uk/CSN#52070084-cdd3-4ba8-8377-f670e4b0276c> ;
	bd:basedOnClassVariable <http://www.cdisc.org/SDTM_MODEL_DM/V2#CL_ACTARMCD> ;
.
<http://www.cdisc.org/DM/V2#ACTARM>
	rdf:type bd:SdtmDomainVariable ;
	isoC:label "Description of Actual Arm"^^xsd:string ;
	bd:rule ""^^xsd:string ;
	bd:ordinal "25"^^xsd:positiveInteger ;
	bd:name "ACTARM"^^xsd:string ;
	bd:description "Description of actual Arm. When an Arm is not planned (not in Trial Arms), ACTARM will be \"Unplanned Treatment\". Randomized subjects who were not treated will be given a value of \"Not Treated\". Values should be \"Screen Failure\" for screen failures and \"Not Assigned\" for subjects not assigned to treatment. Restricted to values in Trial Arms in all other cases."^^xsd:string ;
	bd:format ""^^xsd:string ;
	bd:ctAndFormat ""^^xsd:string ;
	bd:compliance <http://www.assero.co.uk/CSN#52070084-cdd3-4ba8-8377-f670e4b0276c> ;
	bd:basedOnClassVariable <http://www.cdisc.org/SDTM_MODEL_DM/V2#CL_ACTARM> ;
.
<http://www.cdisc.org/DM/V2#COUNTRY>
	rdf:type bd:SdtmDomainVariable ;
	isoC:label "Country"^^xsd:string ;
	bd:rule ""^^xsd:string ;
	bd:ordinal "26"^^xsd:positiveInteger ;
	bd:name "COUNTRY"^^xsd:string ;
	bd:description "Country of the investigational site in which the subject participated in the trial."^^xsd:string ;
	bd:format ""^^xsd:string ;
	bd:ctAndFormat "(COUNTRY)\nISO 3166"^^xsd:string ;
	bd:compliance <http://www.assero.co.uk/CSN#52070084-cdd3-4ba8-8377-f670e4b0276c> ;
	bd:ctReference <http://www.cdisc.org/DM/V2#COUNTRY_TMC1> ;
	bd:basedOnClassVariable <http://www.cdisc.org/SDTM_MODEL_DM/V2#CL_COUNTRY> ;
.
<http://www.cdisc.org/DM/V2#COUNTRY_TMC1>
	rdf:type bo:TMcReference ;
	isoC:label "COUNTRY"^^xsd:string ;
	bo:enabled "true"^^xsd:boolean ;
	bo:optional "false"^^xsd:boolean ;
	bo:ordinal "1"^^xsd:positiveInteger ;
	bo:reference <http://www.cdisc.org/C66786/V31#C66786> ;
	bo:context <http://www.cdisc.org/CT/V31#TH> ;
.
<http://www.cdisc.org/DM/V2#DMDTC>
	rdf:type bd:SdtmDomainVariable ;
	isoC:label "Date/Time of Collection"^^xsd:string ;
	bd:rule ""^^xsd:string ;
	bd:ordinal "27"^^xsd:positiveInteger ;
	bd:name "DMDTC"^^xsd:string ;
	bd:description "Date/time of demographic data collection."^^xsd:string ;
	bd:format "ISO 8601"^^xsd:string ;
	bd:ctAndFormat "ISO 8601"^^xsd:string ;
	bd:compliance <http://www.assero.co.uk/CSN#f7d9d4e1-a00a-487e-89db-ebece910ba0d> ;
	bd:basedOnClassVariable <http://www.cdisc.org/SDTM_MODEL_DM/V2#CL_DMDTC> ;
.
<http://www.cdisc.org/DM/V2#DMDY>
	rdf:type bd:SdtmDomainVariable ;
	isoC:label "Study Day of Collection"^^xsd:string ;
	bd:rule ""^^xsd:string ;
	bd:ordinal "28"^^xsd:positiveInteger ;
	bd:name "DMDY"^^xsd:string ;
	bd:description "Study day of collection measured as integer days."^^xsd:string ;
	bd:format ""^^xsd:string ;
	bd:ctAndFormat ""^^xsd:string ;
	bd:compliance <http://www.assero.co.uk/CSN#f7d9d4e1-a00a-487e-89db-ebece910ba0d> ;
	bd:basedOnClassVariable <http://www.cdisc.org/SDTM_MODEL_DM/V2#CL_DMDY> ;
.
<http://www.cdisc.org/CO/V2>
	rdf:type bd:SdtmDomain ;
	isoC:label "Comments"^^xsd:string ;
	isoT:hasState <http://www.cdisc.org/CO/V2#RS> ;
	isoT:hasIdentifier <http://www.cdisc.org/CO/V2#SI> ;
	isoT:hasPreviousVersion <http://www.cdisc.org/CO/V1> ;
	isoT:origin ""^^xsd:string ;
	isoT:changeDescription ""^^xsd:string ;
	isoT:creationDate "2012-07-16T00:00:00+00:00"^^xsd:dateTime ;
	isoT:lastChangeDate "2012-07-16T00:00:00+00:00"^^xsd:dateTime ;
	isoT:explanatoryComment ""^^xsd:string ;
	bd:rule ""^^xsd:string ;
	bd:ordinal "1"^^xsd:positiveInteger ;
	bd:includesColumn <http://www.cdisc.org/CO/V1#STUDYID> ;
	bd:includesColumn <http://www.cdisc.org/CO/V2#DOMAIN> ;
	bd:includesColumn <http://www.cdisc.org/CO/V2#RDOMAIN> ;
	bd:includesColumn <http://www.cdisc.org/CO/V1#USUBJID> ;
	bd:includesColumn <http://www.cdisc.org/CO/V1#COSEQ> ;
	bd:includesColumn <http://www.cdisc.org/CO/V2#IDVAR> ;
	bd:includesColumn <http://www.cdisc.org/CO/V2#IDVARVAL> ;
	bd:includesColumn <http://www.cdisc.org/CO/V1#COREF> ;
	bd:includesColumn <http://www.cdisc.org/CO/V1#COVAL> ;
	bd:includesColumn <http://www.cdisc.org/CO/V1#COEVAL> ;
	bd:includesColumn <http://www.cdisc.org/CO/V1#CODTC> ;
	bd:prefix "CO"^^xsd:string ;
	bd:structure "One record per comment per subject"^^xsd:string ;
	bd:basedOnClass <http://www.cdisc.org/SDTM_MODEL_CO/V2#CL> ;
.
<http://www.cdisc.org/CO/V2#RS>
	rdf:type isoR:RegistrationState ;
	isoR:registrationStatus "Standard"^^xsd:string ;
	isoR:administrativeNote ""^^xsd:string ;
	isoR:effectiveDate "2016-01-01T00:00:00+00:00"^^xsd:dateTime ;
	isoR:untilDate "2016-01-01T00:00:00+00:00"^^xsd:dateTime ;
	isoR:unresolvedIssue ""^^xsd:string ;
	isoR:administrativeStatus ""^^xsd:string ;
	isoR:previousState "Standard"^^xsd:string ;
	isoR:multipleEdit "false"^^xsd:boolean ;
	isoR:byAuthority <http://www.assero.co.uk/RA#DUNS084433759> ;
.
<http://www.cdisc.org/CO/V2#SI>
	rdf:type isoI:ScopedIdentifier ;
	isoI:identifier "CO"^^xsd:string ;
	isoI:versionLabel "2012-07-16 Release"^^xsd:string ;
	isoI:version "2"^^xsd:positiveInteger ;
	isoI:semanticVersion "2.0.0"^^xsd:string ;
	isoI:hasScope <http://www.assero.co.uk/NS#CDISC> ;
.
<http://www.cdisc.org/CO/V2#DOMAIN>
	rdf:type bd:SdtmDomainVariable ;
	isoC:label "Domain Abbreviation"^^xsd:string ;
	bd:rule ""^^xsd:string ;
	bd:ordinal "2"^^xsd:positiveInteger ;
	bd:name "DOMAIN"^^xsd:string ;
	bd:description "Two-character abbreviation for the domain."^^xsd:string ;
	bd:format ""^^xsd:string ;
	bd:ctAndFormat "(DOMAIN)"^^xsd:string ;
	bd:compliance <http://www.assero.co.uk/CSN#52070084-cdd3-4ba8-8377-f670e4b0276c> ;
	bd:ctReference <http://www.cdisc.org/CO/V2#DOMAIN_TMC1> ;
	bd:basedOnClassVariable <http://www.cdisc.org/SDTM_MODEL_CO/V1#CL_DOMAIN> ;
.
<http://www.cdisc.org/CO/V2#DOMAIN_TMC1>
	rdf:type bo:TMcReference ;
	isoC:label "DOMAIN"^^xsd:string ;
	bo:enabled "true"^^xsd:boolean ;
	bo:optional "false"^^xsd:boolean ;
	bo:ordinal "1"^^xsd:positiveInteger ;
	bo:reference <http://www.cdisc.org/C66734/V28#C66734> ;
	bo:context <http://www.cdisc.org/CT/V31#TH> ;
.
<http://www.cdisc.org/CO/V2#RDOMAIN>
	rdf:type bd:SdtmDomainVariable ;
	isoC:label "Related Domain Abbreviation"^^xsd:string ;
	bd:rule ""^^xsd:string ;
	bd:ordinal "3"^^xsd:positiveInteger ;
	bd:name "RDOMAIN"^^xsd:string ;
	bd:description "Two-character abbreviation for the domain of the parent record(s). Null for comments collected on a general comments or additional information CRF page."^^xsd:string ;
	bd:format ""^^xsd:string ;
	bd:ctAndFormat ""^^xsd:string ;
	bd:compliance <http://www.assero.co.uk/CSN#f7d9d4e1-a00a-487e-89db-ebece910ba0d> ;
	bd:basedOnClassVariable <http://www.cdisc.org/SDTM_MODEL_CO/V2#CL_RDOMAIN> ;
.
<http://www.cdisc.org/CO/V2#IDVAR>
	rdf:type bd:SdtmDomainVariable ;
	isoC:label "Identifying Variable"^^xsd:string ;
	bd:rule ""^^xsd:string ;
	bd:ordinal "6"^^xsd:positiveInteger ;
	bd:name "IDVAR"^^xsd:string ;
	bd:description "Identifying variable in the parent dataset that identifies the record(s) to which the comment applies. Examples AESEQ or CMGRPID. Used only when individual comments are related to domain records. Null for comments collected on separate CRFs."^^xsd:string ;
	bd:format ""^^xsd:string ;
	bd:ctAndFormat ""^^xsd:string ;
	bd:compliance <http://www.assero.co.uk/CSN#f7d9d4e1-a00a-487e-89db-ebece910ba0d> ;
	bd:basedOnClassVariable <http://www.cdisc.org/SDTM_MODEL_CO/V2#CL_IDVAR> ;
.
<http://www.cdisc.org/CO/V2#IDVARVAL>
	rdf:type bd:SdtmDomainVariable ;
	isoC:label "Identifying Variable Value"^^xsd:string ;
	bd:rule ""^^xsd:string ;
	bd:ordinal "7"^^xsd:positiveInteger ;
	bd:name "IDVARVAL"^^xsd:string ;
	bd:description "Value of identifying variable of the parent record(s). Used only when individual comments are related to domain records. Null for comments collected on separate CRFs."^^xsd:string ;
	bd:format ""^^xsd:string ;
	bd:ctAndFormat ""^^xsd:string ;
	bd:compliance <http://www.assero.co.uk/CSN#f7d9d4e1-a00a-487e-89db-ebece910ba0d> ;
	bd:basedOnClassVariable <http://www.cdisc.org/SDTM_MODEL_CO/V2#CL_IDVARVAL> ;
.
<http://www.cdisc.org/SE/V2>
	rdf:type bd:SdtmDomain ;
	isoC:label "Subject Elements"^^xsd:string ;
	isoT:hasState <http://www.cdisc.org/SE/V2#RS> ;
	isoT:hasIdentifier <http://www.cdisc.org/SE/V2#SI> ;
	isoT:hasPreviousVersion <http://www.cdisc.org/SE/V1> ;
	isoT:origin ""^^xsd:string ;
	isoT:changeDescription ""^^xsd:string ;
	isoT:creationDate "2012-07-16T00:00:00+00:00"^^xsd:dateTime ;
	isoT:lastChangeDate "2012-07-16T00:00:00+00:00"^^xsd:dateTime ;
	isoT:explanatoryComment ""^^xsd:string ;
	bd:rule ""^^xsd:string ;
	bd:ordinal "1"^^xsd:positiveInteger ;
	bd:includesColumn <http://www.cdisc.org/SE/V1#STUDYID> ;
	bd:includesColumn <http://www.cdisc.org/SE/V2#DOMAIN> ;
	bd:includesColumn <http://www.cdisc.org/SE/V1#USUBJID> ;
	bd:includesColumn <http://www.cdisc.org/SE/V1#SESEQ> ;
	bd:includesColumn <http://www.cdisc.org/SE/V2#ETCD> ;
	bd:includesColumn <http://www.cdisc.org/SE/V2#ELEMENT> ;
	bd:includesColumn <http://www.cdisc.org/SE/V1#SESTDTC> ;
	bd:includesColumn <http://www.cdisc.org/SE/V1#SEENDTC> ;
	bd:includesColumn <http://www.cdisc.org/SE/V2#TAETORD> ;
	bd:includesColumn <http://www.cdisc.org/SE/V1#EPOCH> ;
	bd:includesColumn <http://www.cdisc.org/SE/V2#SEUPDES> ;
	bd:prefix "SE"^^xsd:string ;
	bd:structure "One record per actual Element per subject"^^xsd:string ;
	bd:basedOnClass <http://www.cdisc.org/SDTM_MODEL_SE/V2#CL> ;
.
<http://www.cdisc.org/SE/V2#RS>
	rdf:type isoR:RegistrationState ;
	isoR:registrationStatus "Standard"^^xsd:string ;
	isoR:administrativeNote ""^^xsd:string ;
	isoR:effectiveDate "2016-01-01T00:00:00+00:00"^^xsd:dateTime ;
	isoR:untilDate "2016-01-01T00:00:00+00:00"^^xsd:dateTime ;
	isoR:unresolvedIssue ""^^xsd:string ;
	isoR:administrativeStatus ""^^xsd:string ;
	isoR:previousState "Standard"^^xsd:string ;
	isoR:multipleEdit "false"^^xsd:boolean ;
	isoR:byAuthority <http://www.assero.co.uk/RA#DUNS084433759> ;
.
<http://www.cdisc.org/SE/V2#SI>
	rdf:type isoI:ScopedIdentifier ;
	isoI:identifier "SE"^^xsd:string ;
	isoI:versionLabel "2012-07-16 Release"^^xsd:string ;
	isoI:version "2"^^xsd:positiveInteger ;
	isoI:semanticVersion "2.0.0"^^xsd:string ;
	isoI:hasScope <http://www.assero.co.uk/NS#CDISC> ;
.
<http://www.cdisc.org/SE/V2#DOMAIN>
	rdf:type bd:SdtmDomainVariable ;
	isoC:label "Domain Abbreviation"^^xsd:string ;
	bd:rule ""^^xsd:string ;
	bd:ordinal "2"^^xsd:positiveInteger ;
	bd:name "DOMAIN"^^xsd:string ;
	bd:description "Two-character abbreviation for the domain."^^xsd:string ;
	bd:format ""^^xsd:string ;
	bd:ctAndFormat "(DOMAIN)"^^xsd:string ;
	bd:compliance <http://www.assero.co.uk/CSN#52070084-cdd3-4ba8-8377-f670e4b0276c> ;
	bd:ctReference <http://www.cdisc.org/SE/V2#DOMAIN_TMC1> ;
	bd:basedOnClassVariable <http://www.cdisc.org/SDTM_MODEL_SE/V1#CL_DOMAIN> ;
.
<http://www.cdisc.org/SE/V2#DOMAIN_TMC1>
	rdf:type bo:TMcReference ;
	isoC:label "DOMAIN"^^xsd:string ;
	bo:enabled "true"^^xsd:boolean ;
	bo:optional "false"^^xsd:boolean ;
	bo:ordinal "1"^^xsd:positiveInteger ;
	bo:reference <http://www.cdisc.org/C66734/V28#C66734> ;
	bo:context <http://www.cdisc.org/CT/V31#TH> ;
.
<http://www.cdisc.org/SE/V2#ETCD>
	rdf:type bd:SdtmDomainVariable ;
	isoC:label "Element Code"^^xsd:string ;
	bd:rule ""^^xsd:string ;
	bd:ordinal "5"^^xsd:positiveInteger ;
	bd:name "ETCD"^^xsd:string ;
	bd:description "1. ETCD (the companion to ELEMENT) is limited to 8 characters and does not have special character restrictions. These values should be short for ease of use in programming, but it is not expected that ETCD will need to serve as a variable name.\n2. If an encountered Element differs from the planned Element to the point that it is considered a new Element, then use \"UNPLAN\" as the value for ETCD to represent this Element."^^xsd:string ;
	bd:format ""^^xsd:string ;
	bd:ctAndFormat ""^^xsd:string ;
	bd:compliance <http://www.assero.co.uk/CSN#52070084-cdd3-4ba8-8377-f670e4b0276c> ;
	bd:basedOnClassVariable <http://www.cdisc.org/SDTM_MODEL_SE/V2#CL_ETCD> ;
.
<http://www.cdisc.org/SE/V2#ELEMENT>
	rdf:type bd:SdtmDomainVariable ;
	isoC:label "Description of Element"^^xsd:string ;
	bd:rule ""^^xsd:string ;
	bd:ordinal "6"^^xsd:positiveInteger ;
	bd:name "ELEMENT"^^xsd:string ;
	bd:description "The name of the Element. If ETCD has a value of \"UNPLAN\" then ELEMENT should be Null."^^xsd:string ;
	bd:format ""^^xsd:string ;
	bd:ctAndFormat ""^^xsd:string ;
	bd:compliance <http://www.assero.co.uk/CSN#f7d9d4e1-a00a-487e-89db-ebece910ba0d> ;
	bd:basedOnClassVariable <http://www.cdisc.org/SDTM_MODEL_SE/V2#CL_ELEMENT> ;
.
<http://www.cdisc.org/SE/V2#TAETORD>
	rdf:type bd:SdtmDomainVariable ;
	isoC:label "Planned Order of Element within Arm"^^xsd:string ;
	bd:rule ""^^xsd:string ;
	bd:ordinal "9"^^xsd:positiveInteger ;
	bd:name "TAETORD"^^xsd:string ;
	bd:description "Number that gives the planned order of the Element within the subject's assigned ARM."^^xsd:string ;
	bd:format ""^^xsd:string ;
	bd:ctAndFormat ""^^xsd:string ;
	bd:compliance <http://www.assero.co.uk/CSN#f7d9d4e1-a00a-487e-89db-ebece910ba0d> ;
	bd:basedOnClassVariable <http://www.cdisc.org/SDTM_MODEL_SE/V2#CL_TAETORD> ;
.
<http://www.cdisc.org/SE/V2#SEUPDES>
	rdf:type bd:SdtmDomainVariable ;
	isoC:label "Description of Unplanned Element"^^xsd:string ;
	bd:rule ""^^xsd:string ;
	bd:ordinal "11"^^xsd:positiveInteger ;
	bd:name "SEUPDES"^^xsd:string ;
	bd:description "Description of what happened to the subject during this unplanned Element. Used only if ETCD has the value of \"UNPLAN\"."^^xsd:string ;
	bd:format ""^^xsd:string ;
	bd:ctAndFormat ""^^xsd:string ;
	bd:compliance <http://www.assero.co.uk/CSN#f7d9d4e1-a00a-487e-89db-ebece910ba0d> ;
	bd:basedOnClassVariable <http://www.cdisc.org/SDTM_MODEL_SE/V2#CL_SEUPDES> ;
.
<http://www.cdisc.org/SV/V2>
	rdf:type bd:SdtmDomain ;
	isoC:label "Subject Visits"^^xsd:string ;
	isoT:hasState <http://www.cdisc.org/SV/V2#RS> ;
	isoT:hasIdentifier <http://www.cdisc.org/SV/V2#SI> ;
	isoT:hasPreviousVersion <http://www.cdisc.org/SV/V1> ;
	isoT:origin ""^^xsd:string ;
	isoT:changeDescription ""^^xsd:string ;
	isoT:creationDate "2012-07-16T00:00:00+00:00"^^xsd:dateTime ;
	isoT:lastChangeDate "2012-07-16T00:00:00+00:00"^^xsd:dateTime ;
	isoT:explanatoryComment ""^^xsd:string ;
	bd:rule ""^^xsd:string ;
	bd:ordinal "1"^^xsd:positiveInteger ;
	bd:includesColumn <http://www.cdisc.org/SV/V1#STUDYID> ;
	bd:includesColumn <http://www.cdisc.org/SV/V2#DOMAIN> ;
	bd:includesColumn <http://www.cdisc.org/SV/V1#USUBJID> ;
	bd:includesColumn <http://www.cdisc.org/SV/V2#VISITNUM> ;
	bd:includesColumn <http://www.cdisc.org/SV/V2#VISIT> ;
	bd:includesColumn <http://www.cdisc.org/SV/V2#VISITDY> ;
	bd:includesColumn <http://www.cdisc.org/SV/V1#SVSTDTC> ;
	bd:includesColumn <http://www.cdisc.org/SV/V1#SVENDTC> ;
	bd:includesColumn <http://www.cdisc.org/SV/V1#SVSTDY> ;
	bd:includesColumn <http://www.cdisc.org/SV/V1#SVENDY> ;
	bd:includesColumn <http://www.cdisc.org/SV/V1#SVUPDES> ;
	bd:prefix "SV"^^xsd:string ;
	bd:structure "One record per subject per actual visit"^^xsd:string ;
	bd:basedOnClass <http://www.cdisc.org/SDTM_MODEL_SV/V2#CL> ;
.
<http://www.cdisc.org/SV/V2#RS>
	rdf:type isoR:RegistrationState ;
	isoR:registrationStatus "Standard"^^xsd:string ;
	isoR:administrativeNote ""^^xsd:string ;
	isoR:effectiveDate "2016-01-01T00:00:00+00:00"^^xsd:dateTime ;
	isoR:untilDate "2016-01-01T00:00:00+00:00"^^xsd:dateTime ;
	isoR:unresolvedIssue ""^^xsd:string ;
	isoR:administrativeStatus ""^^xsd:string ;
	isoR:previousState "Standard"^^xsd:string ;
	isoR:multipleEdit "false"^^xsd:boolean ;
	isoR:byAuthority <http://www.assero.co.uk/RA#DUNS084433759> ;
.
<http://www.cdisc.org/SV/V2#SI>
	rdf:type isoI:ScopedIdentifier ;
	isoI:identifier "SV"^^xsd:string ;
	isoI:versionLabel "2012-07-16 Release"^^xsd:string ;
	isoI:version "2"^^xsd:positiveInteger ;
	isoI:semanticVersion "2.0.0"^^xsd:string ;
	isoI:hasScope <http://www.assero.co.uk/NS#CDISC> ;
.
<http://www.cdisc.org/SV/V2#DOMAIN>
	rdf:type bd:SdtmDomainVariable ;
	isoC:label "Domain Abbreviation"^^xsd:string ;
	bd:rule ""^^xsd:string ;
	bd:ordinal "2"^^xsd:positiveInteger ;
	bd:name "DOMAIN"^^xsd:string ;
	bd:description "Two-character abbreviation for the domain."^^xsd:string ;
	bd:format ""^^xsd:string ;
	bd:ctAndFormat "(DOMAIN)"^^xsd:string ;
	bd:compliance <http://www.assero.co.uk/CSN#52070084-cdd3-4ba8-8377-f670e4b0276c> ;
	bd:ctReference <http://www.cdisc.org/SV/V2#DOMAIN_TMC1> ;
	bd:basedOnClassVariable <http://www.cdisc.org/SDTM_MODEL_SV/V1#CL_DOMAIN> ;
.
<http://www.cdisc.org/SV/V2#DOMAIN_TMC1>
	rdf:type bo:TMcReference ;
	isoC:label "DOMAIN"^^xsd:string ;
	bo:enabled "true"^^xsd:boolean ;
	bo:optional "false"^^xsd:boolean ;
	bo:ordinal "1"^^xsd:positiveInteger ;
	bo:reference <http://www.cdisc.org/C66734/V28#C66734> ;
	bo:context <http://www.cdisc.org/CT/V31#TH> ;
.
<http://www.cdisc.org/SV/V2#VISITNUM>
	rdf:type bd:SdtmDomainVariable ;
	isoC:label "Visit Number"^^xsd:string ;
	bd:rule ""^^xsd:string ;
	bd:ordinal "4"^^xsd:positiveInteger ;
	bd:name "VISITNUM"^^xsd:string ;
	bd:description "1. Clinical encounter number. (Decimal numbering may be useful for inserting unplanned visits.)\n2. Numeric version of VISIT, used for sorting."^^xsd:string ;
	bd:format ""^^xsd:string ;
	bd:ctAndFormat ""^^xsd:string ;
	bd:compliance <http://www.assero.co.uk/CSN#52070084-cdd3-4ba8-8377-f670e4b0276c> ;
	bd:basedOnClassVariable <http://www.cdisc.org/SDTM_MODEL_SV/V2#CL_VISITNUM> ;
.
<http://www.cdisc.org/SV/V2#VISIT>
	rdf:type bd:SdtmDomainVariable ;
	isoC:label "Visit Name"^^xsd:string ;
	bd:rule ""^^xsd:string ;
	bd:ordinal "5"^^xsd:positiveInteger ;
	bd:name "VISIT"^^xsd:string ;
	bd:description "1. Protocol-defined description of clinical encounter.\n2. May be used in addition to VISITNUM and/or VISITDY as a text description of the clinical encounter."^^xsd:string ;
	bd:format ""^^xsd:string ;
	bd:ctAndFormat ""^^xsd:string ;
	bd:compliance <http://www.assero.co.uk/CSN#f7d9d4e1-a00a-487e-89db-ebece910ba0d> ;
	bd:basedOnClassVariable <http://www.cdisc.org/SDTM_MODEL_SV/V2#CL_VISIT> ;
.
<http://www.cdisc.org/SV/V2#VISITDY>
	rdf:type bd:SdtmDomainVariable ;
	isoC:label "Planned Study Day of Visit"^^xsd:string ;
	bd:rule ""^^xsd:string ;
	bd:ordinal "6"^^xsd:positiveInteger ;
	bd:name "VISITDY"^^xsd:string ;
	bd:description "Planned study day of the start of the visit based upon RFSTDTC in Demographics."^^xsd:string ;
	bd:format ""^^xsd:string ;
	bd:ctAndFormat ""^^xsd:string ;
	bd:compliance <http://www.assero.co.uk/CSN#f7d9d4e1-a00a-487e-89db-ebece910ba0d> ;
	bd:basedOnClassVariable <http://www.cdisc.org/SDTM_MODEL_SV/V2#CL_VISITDY> ;
.
<http://www.cdisc.org/CM/V2>
	rdf:type bd:SdtmDomain ;
	isoC:label "Concomitant/Prior Medications"^^xsd:string ;
	isoT:hasState <http://www.cdisc.org/CM/V2#RS> ;
	isoT:hasIdentifier <http://www.cdisc.org/CM/V2#SI> ;
	isoT:hasPreviousVersion <http://www.cdisc.org/CM/V1> ;
	isoT:origin ""^^xsd:string ;
	isoT:changeDescription ""^^xsd:string ;
	isoT:creationDate "2012-07-16T00:00:00+00:00"^^xsd:dateTime ;
	isoT:lastChangeDate "2012-07-16T00:00:00+00:00"^^xsd:dateTime ;
	isoT:explanatoryComment ""^^xsd:string ;
	bd:rule ""^^xsd:string ;
	bd:ordinal "1"^^xsd:positiveInteger ;
	bd:includesColumn <http://www.cdisc.org/CM/V1#STUDYID> ;
	bd:includesColumn <http://www.cdisc.org/CM/V2#DOMAIN> ;
	bd:includesColumn <http://www.cdisc.org/CM/V1#USUBJID> ;
	bd:includesColumn <http://www.cdisc.org/CM/V1#CMSEQ> ;
	bd:includesColumn <http://www.cdisc.org/CM/V1#CMGRPID> ;
	bd:includesColumn <http://www.cdisc.org/CM/V1#CMSPID> ;
	bd:includesColumn <http://www.cdisc.org/CM/V1#CMTRT> ;
	bd:includesColumn <http://www.cdisc.org/CM/V1#CMMODIFY> ;
	bd:includesColumn <http://www.cdisc.org/CM/V1#CMDECOD> ;
	bd:includesColumn <http://www.cdisc.org/CM/V1#CMCAT> ;
	bd:includesColumn <http://www.cdisc.org/CM/V1#CMSCAT> ;
	bd:includesColumn <http://www.cdisc.org/CM/V1#CMPRESP> ;
	bd:includesColumn <http://www.cdisc.org/CM/V1#CMOCCUR> ;
	bd:includesColumn <http://www.cdisc.org/CM/V1#CMSTAT> ;
	bd:includesColumn <http://www.cdisc.org/CM/V1#CMREASND> ;
	bd:includesColumn <http://www.cdisc.org/CM/V1#CMINDC> ;
	bd:includesColumn <http://www.cdisc.org/CM/V1#CMCLAS> ;
	bd:includesColumn <http://www.cdisc.org/CM/V1#CMCLASCD> ;
	bd:includesColumn <http://www.cdisc.org/CM/V1#CMDOSE> ;
	bd:includesColumn <http://www.cdisc.org/CM/V1#CMDOSTXT> ;
	bd:includesColumn <http://www.cdisc.org/CM/V1#CMDOSU> ;
	bd:includesColumn <http://www.cdisc.org/CM/V1#CMDOSFRM> ;
	bd:includesColumn <http://www.cdisc.org/CM/V1#CMDOSFRQ> ;
	bd:includesColumn <http://www.cdisc.org/CM/V1#CMDOSTOT> ;
	bd:includesColumn <http://www.cdisc.org/CM/V1#CMDOSRGM> ;
	bd:includesColumn <http://www.cdisc.org/CM/V1#CMROUTE> ;
	bd:includesColumn <http://www.cdisc.org/CM/V1#CMSTDTC> ;
	bd:includesColumn <http://www.cdisc.org/CM/V1#CMENDTC> ;
	bd:includesColumn <http://www.cdisc.org/CM/V1#CMSTDY> ;
	bd:includesColumn <http://www.cdisc.org/CM/V1#CMENDY> ;
	bd:includesColumn <http://www.cdisc.org/CM/V1#CMDUR> ;
	bd:includesColumn <http://www.cdisc.org/CM/V2#CMSTRF> ;
	bd:includesColumn <http://www.cdisc.org/CM/V2#CMENRF> ;
	bd:includesColumn <http://www.cdisc.org/CM/V1#CMSTRTPT> ;
	bd:includesColumn <http://www.cdisc.org/CM/V2#CMSTTPT> ;
	bd:includesColumn <http://www.cdisc.org/CM/V2#CMENRTPT> ;
	bd:includesColumn <http://www.cdisc.org/CM/V2#CMENTPT> ;
	bd:prefix "CM"^^xsd:string ;
	bd:structure "One record per recorded intervention occurrence or constant-dosing interval per subject"^^xsd:string ;
	bd:basedOnClass <http://www.cdisc.org/SDTM_MODEL_INTERVENTIONS/V2#CL> ;
.
<http://www.cdisc.org/CM/V2#RS>
	rdf:type isoR:RegistrationState ;
	isoR:registrationStatus "Standard"^^xsd:string ;
	isoR:administrativeNote ""^^xsd:string ;
	isoR:effectiveDate "2016-01-01T00:00:00+00:00"^^xsd:dateTime ;
	isoR:untilDate "2016-01-01T00:00:00+00:00"^^xsd:dateTime ;
	isoR:unresolvedIssue ""^^xsd:string ;
	isoR:administrativeStatus ""^^xsd:string ;
	isoR:previousState "Standard"^^xsd:string ;
	isoR:multipleEdit "false"^^xsd:boolean ;
	isoR:byAuthority <http://www.assero.co.uk/RA#DUNS084433759> ;
.
<http://www.cdisc.org/CM/V2#SI>
	rdf:type isoI:ScopedIdentifier ;
	isoI:identifier "CM"^^xsd:string ;
	isoI:versionLabel "2012-07-16 Release"^^xsd:string ;
	isoI:version "2"^^xsd:positiveInteger ;
	isoI:semanticVersion "2.0.0"^^xsd:string ;
	isoI:hasScope <http://www.assero.co.uk/NS#CDISC> ;
.
<http://www.cdisc.org/CM/V2#DOMAIN>
	rdf:type bd:SdtmDomainVariable ;
	isoC:label "Domain Abbreviation"^^xsd:string ;
	bd:rule ""^^xsd:string ;
	bd:ordinal "2"^^xsd:positiveInteger ;
	bd:name "DOMAIN"^^xsd:string ;
	bd:description "Two-character abbreviation for the domain."^^xsd:string ;
	bd:format ""^^xsd:string ;
	bd:ctAndFormat "(DOMAIN)"^^xsd:string ;
	bd:compliance <http://www.assero.co.uk/CSN#52070084-cdd3-4ba8-8377-f670e4b0276c> ;
	bd:ctReference <http://www.cdisc.org/CM/V2#DOMAIN_TMC1> ;
	bd:basedOnClassVariable <http://www.cdisc.org/SDTM_MODEL_ALL/V2#CL_DOMAIN> ;
.
<http://www.cdisc.org/CM/V2#DOMAIN_TMC1>
	rdf:type bo:TMcReference ;
	isoC:label "DOMAIN"^^xsd:string ;
	bo:enabled "true"^^xsd:boolean ;
	bo:optional "false"^^xsd:boolean ;
	bo:ordinal "1"^^xsd:positiveInteger ;
	bo:reference <http://www.cdisc.org/C66734/V28#C66734> ;
	bo:context <http://www.cdisc.org/CT/V31#TH> ;
.
<http://www.cdisc.org/CM/V2#CMSTRF>
	rdf:type bd:SdtmDomainVariable ;
	isoC:label "Start Relative to Reference Period"^^xsd:string ;
	bd:rule ""^^xsd:string ;
	bd:ordinal "32"^^xsd:positiveInteger ;
	bd:name "CMSTRF"^^xsd:string ;
	bd:description "Describes the start of the medication relative to sponsor-defined reference period. The sponsor-defined reference period is a continuous period of time defined by a discrete starting point and a discrete ending point (represented by RFSTDTC and RFENDTC in Demographics). If information such as \"PRIOR\", \"ONGOING\", or \"CONTINUING\" was collected, this information may be translated into CMSTRF."^^xsd:string ;
	bd:format ""^^xsd:string ;
	bd:ctAndFormat "(STENRF)"^^xsd:string ;
	bd:compliance <http://www.assero.co.uk/CSN#f7d9d4e1-a00a-487e-89db-ebece910ba0d> ;
	bd:ctReference <http://www.cdisc.org/CM/V2#CMSTRF_TMC1> ;
	bd:basedOnClassVariable <http://www.cdisc.org/SDTM_MODEL_ALL/V2#CL_--STRF> ;
.
<http://www.cdisc.org/CM/V2#CMSTRF_TMC1>
	rdf:type bo:TMcReference ;
	isoC:label "STENRF"^^xsd:string ;
	bo:enabled "true"^^xsd:boolean ;
	bo:optional "false"^^xsd:boolean ;
	bo:ordinal "1"^^xsd:positiveInteger ;
	bo:reference <http://www.cdisc.org/C66728/V27#C66728> ;
	bo:context <http://www.cdisc.org/CT/V31#TH> ;
.
<http://www.cdisc.org/CM/V2#CMENRF>
	rdf:type bd:SdtmDomainVariable ;
	isoC:label "End Relative to Reference Period"^^xsd:string ;
	bd:rule ""^^xsd:string ;
	bd:ordinal "33"^^xsd:positiveInteger ;
	bd:name "CMENRF"^^xsd:string ;
	bd:description "Describes the end of the medication relative to the sponsor-defined reference period. The sponsor-defined reference period is a continuous period of time defined by a discrete starting point and a discrete ending point (represented by RFSTDTC and RFENDTC in Demographics). If information such as \"PRIOR\", \"ONGOING\", or \"CONTINUING\" was collected, this information may be translated into CMENRF."^^xsd:string ;
	bd:format ""^^xsd:string ;
	bd:ctAndFormat "(STENRF)"^^xsd:string ;
	bd:compliance <http://www.assero.co.uk/CSN#f7d9d4e1-a00a-487e-89db-ebece910ba0d> ;
	bd:ctReference <http://www.cdisc.org/CM/V2#CMENRF_TMC1> ;
	bd:basedOnClassVariable <http://www.cdisc.org/SDTM_MODEL_ALL/V2#CL_--ENRF> ;
.
<http://www.cdisc.org/CM/V2#CMENRF_TMC1>
	rdf:type bo:TMcReference ;
	isoC:label "STENRF"^^xsd:string ;
	bo:enabled "true"^^xsd:boolean ;
	bo:optional "false"^^xsd:boolean ;
	bo:ordinal "1"^^xsd:positiveInteger ;
	bo:reference <http://www.cdisc.org/C66728/V27#C66728> ;
	bo:context <http://www.cdisc.org/CT/V31#TH> ;
.
<http://www.cdisc.org/CM/V2#CMSTTPT>
	rdf:type bd:SdtmDomainVariable ;
	isoC:label "Start Reference Time Point"^^xsd:string ;
	bd:rule ""^^xsd:string ;
	bd:ordinal "35"^^xsd:positiveInteger ;
	bd:name "CMSTTPT"^^xsd:string ;
	bd:description "Description or date/time in ISO 8601 character format of the reference point referred to by CMSTRTPT. Examples: \"2003-12-15\" or \"VISIT 1\"."^^xsd:string ;
	bd:format ""^^xsd:string ;
	bd:ctAndFormat ""^^xsd:string ;
	bd:compliance <http://www.assero.co.uk/CSN#f7d9d4e1-a00a-487e-89db-ebece910ba0d> ;
	bd:basedOnClassVariable <http://www.cdisc.org/SDTM_MODEL_ALL/V2#CL_--STTPT> ;
.
<http://www.cdisc.org/CM/V2#CMENRTPT>
	rdf:type bd:SdtmDomainVariable ;
	isoC:label "End Relative to Reference Time Point"^^xsd:string ;
	bd:rule ""^^xsd:string ;
	bd:ordinal "36"^^xsd:positiveInteger ;
	bd:name "CMENRTPT"^^xsd:string ;
	bd:description "Identifies the end of the medication as being before or after the reference time point defined by variable CMENTPT."^^xsd:string ;
	bd:format "BEFORE, COINCIDENT, AFTER, ONGOING, U"^^xsd:string ;
	bd:ctAndFormat "BEFORE, COINCIDENT, AFTER, ONGOING, U"^^xsd:string ;
	bd:compliance <http://www.assero.co.uk/CSN#f7d9d4e1-a00a-487e-89db-ebece910ba0d> ;
	bd:basedOnClassVariable <http://www.cdisc.org/SDTM_MODEL_ALL/V2#CL_--ENRTPT> ;
.
<http://www.cdisc.org/CM/V2#CMENTPT>
	rdf:type bd:SdtmDomainVariable ;
	isoC:label "End Reference Time Point"^^xsd:string ;
	bd:rule ""^^xsd:string ;
	bd:ordinal "37"^^xsd:positiveInteger ;
	bd:name "CMENTPT"^^xsd:string ;
	bd:description "Description or date/time in ISO 8601 character format of the reference point referred to by CMENRTPT. Examples: \"2003-12-25\" or \"VISIT 2\"."^^xsd:string ;
	bd:format ""^^xsd:string ;
	bd:ctAndFormat ""^^xsd:string ;
	bd:compliance <http://www.assero.co.uk/CSN#f7d9d4e1-a00a-487e-89db-ebece910ba0d> ;
	bd:basedOnClassVariable <http://www.cdisc.org/SDTM_MODEL_ALL/V2#CL_--ENTPT> ;
.
<http://www.cdisc.org/EX/V2>
	rdf:type bd:SdtmDomain ;
	isoC:label "Exposure"^^xsd:string ;
	isoT:hasState <http://www.cdisc.org/EX/V2#RS> ;
	isoT:hasIdentifier <http://www.cdisc.org/EX/V2#SI> ;
	isoT:hasPreviousVersion <http://www.cdisc.org/EX/V1> ;
	isoT:origin ""^^xsd:string ;
	isoT:changeDescription ""^^xsd:string ;
	isoT:creationDate "2012-07-16T00:00:00+00:00"^^xsd:dateTime ;
	isoT:lastChangeDate "2012-07-16T00:00:00+00:00"^^xsd:dateTime ;
	isoT:explanatoryComment ""^^xsd:string ;
	bd:rule ""^^xsd:string ;
	bd:ordinal "1"^^xsd:positiveInteger ;
	bd:includesColumn <http://www.cdisc.org/EX/V1#STUDYID> ;
	bd:includesColumn <http://www.cdisc.org/EX/V2#DOMAIN> ;
	bd:includesColumn <http://www.cdisc.org/EX/V1#USUBJID> ;
	bd:includesColumn <http://www.cdisc.org/EX/V1#EXSEQ> ;
	bd:includesColumn <http://www.cdisc.org/EX/V1#EXGRPID> ;
	bd:includesColumn <http://www.cdisc.org/EX/V2#EXSPID> ;
	bd:includesColumn <http://www.cdisc.org/EX/V1#EXTRT> ;
	bd:includesColumn <http://www.cdisc.org/EX/V1#EXCAT> ;
	bd:includesColumn <http://www.cdisc.org/EX/V1#EXSCAT> ;
	bd:includesColumn <http://www.cdisc.org/EX/V1#EXDOSE> ;
	bd:includesColumn <http://www.cdisc.org/EX/V1#EXDOSTXT> ;
	bd:includesColumn <http://www.cdisc.org/EX/V1#EXDOSU> ;
	bd:includesColumn <http://www.cdisc.org/EX/V1#EXDOSFRM> ;
	bd:includesColumn <http://www.cdisc.org/EX/V1#EXDOSFRQ> ;
	bd:includesColumn <http://www.cdisc.org/EX/V1#EXDOSTOT> ;
	bd:includesColumn <http://www.cdisc.org/EX/V1#EXDOSRGM> ;
	bd:includesColumn <http://www.cdisc.org/EX/V1#EXROUTE> ;
	bd:includesColumn <http://www.cdisc.org/EX/V1#EXLOT> ;
	bd:includesColumn <http://www.cdisc.org/EX/V1#EXLOC> ;
	bd:includesColumn <http://www.cdisc.org/EX/V1#EXTRTV> ;
	bd:includesColumn <http://www.cdisc.org/EX/V1#EXVAMT> ;
	bd:includesColumn <http://www.cdisc.org/EX/V1#EXVAMTU> ;
	bd:includesColumn <http://www.cdisc.org/EX/V1#EXADJ> ;
	bd:includesColumn <http://www.cdisc.org/EX/V2#TAETORD> ;
	bd:includesColumn <http://www.cdisc.org/EX/V2#EPOCH> ;
	bd:includesColumn <http://www.cdisc.org/EX/V1#EXSTDTC> ;
	bd:includesColumn <http://www.cdisc.org/EX/V1#EXENDTC> ;
	bd:includesColumn <http://www.cdisc.org/EX/V1#EXSTDY> ;
	bd:includesColumn <http://www.cdisc.org/EX/V1#EXENDY> ;
	bd:includesColumn <http://www.cdisc.org/EX/V1#EXDUR> ;
	bd:includesColumn <http://www.cdisc.org/EX/V2#EXTPT> ;
	bd:includesColumn <http://www.cdisc.org/EX/V1#EXTPTNUM> ;
	bd:includesColumn <http://www.cdisc.org/EX/V1#EXELTM> ;
	bd:includesColumn <http://www.cdisc.org/EX/V1#EXTPTREF> ;
	bd:prefix "EX"^^xsd:string ;
	bd:structure "One record per protocol-specified study treatment, constant-dosing interval, per subject"^^xsd:string ;
	bd:basedOnClass <http://www.cdisc.org/SDTM_MODEL_INTERVENTIONS/V2#CL> ;
.
<http://www.cdisc.org/EX/V2#RS>
	rdf:type isoR:RegistrationState ;
	isoR:registrationStatus "Standard"^^xsd:string ;
	isoR:administrativeNote ""^^xsd:string ;
	isoR:effectiveDate "2016-01-01T00:00:00+00:00"^^xsd:dateTime ;
	isoR:untilDate "2016-01-01T00:00:00+00:00"^^xsd:dateTime ;
	isoR:unresolvedIssue ""^^xsd:string ;
	isoR:administrativeStatus ""^^xsd:string ;
	isoR:previousState "Standard"^^xsd:string ;
	isoR:multipleEdit "false"^^xsd:boolean ;
	isoR:byAuthority <http://www.assero.co.uk/RA#DUNS084433759> ;
.
<http://www.cdisc.org/EX/V2#SI>
	rdf:type isoI:ScopedIdentifier ;
	isoI:identifier "EX"^^xsd:string ;
	isoI:versionLabel "2012-07-16 Release"^^xsd:string ;
	isoI:version "2"^^xsd:positiveInteger ;
	isoI:semanticVersion "2.0.0"^^xsd:string ;
	isoI:hasScope <http://www.assero.co.uk/NS#CDISC> ;
.
<http://www.cdisc.org/EX/V2#DOMAIN>
	rdf:type bd:SdtmDomainVariable ;
	isoC:label "Domain Abbreviation"^^xsd:string ;
	bd:rule ""^^xsd:string ;
	bd:ordinal "2"^^xsd:positiveInteger ;
	bd:name "DOMAIN"^^xsd:string ;
	bd:description "Two-character abbreviation for the domain."^^xsd:string ;
	bd:format ""^^xsd:string ;
	bd:ctAndFormat "(DOMAIN)"^^xsd:string ;
	bd:compliance <http://www.assero.co.uk/CSN#52070084-cdd3-4ba8-8377-f670e4b0276c> ;
	bd:ctReference <http://www.cdisc.org/EX/V2#DOMAIN_TMC1> ;
	bd:basedOnClassVariable <http://www.cdisc.org/SDTM_MODEL_ALL/V2#CL_DOMAIN> ;
.
<http://www.cdisc.org/EX/V2#DOMAIN_TMC1>
	rdf:type bo:TMcReference ;
	isoC:label "DOMAIN"^^xsd:string ;
	bo:enabled "true"^^xsd:boolean ;
	bo:optional "false"^^xsd:boolean ;
	bo:ordinal "1"^^xsd:positiveInteger ;
	bo:reference <http://www.cdisc.org/C66734/V28#C66734> ;
	bo:context <http://www.cdisc.org/CT/V31#TH> ;
.
<http://www.cdisc.org/EX/V2#EXSPID>
	rdf:type bd:SdtmDomainVariable ;
	isoC:label "Sponsor-Defined Identifier"^^xsd:string ;
	bd:rule ""^^xsd:string ;
	bd:ordinal "6"^^xsd:positiveInteger ;
	bd:name "EXSPID"^^xsd:string ;
	bd:description "Sponsor-defined identifier. Perhaps pre-printed on the CRF as an explicit line identifier or defined in the sponsor's operational database. Example: Line number on a CRF Page."^^xsd:string ;
	bd:format ""^^xsd:string ;
	bd:ctAndFormat ""^^xsd:string ;
	bd:compliance <http://www.assero.co.uk/CSN#f7d9d4e1-a00a-487e-89db-ebece910ba0d> ;
	bd:basedOnClassVariable <http://www.cdisc.org/SDTM_MODEL_ALL/V2#CL_--SPID> ;
.
<http://www.cdisc.org/EX/V2#TAETORD>
	rdf:type bd:SdtmDomainVariable ;
	isoC:label "Planned Order of Element within Arm"^^xsd:string ;
	bd:rule ""^^xsd:string ;
	bd:ordinal "24"^^xsd:positiveInteger ;
	bd:name "TAETORD"^^xsd:string ;
	bd:description "Number that gives the order of the Element within the Arm."^^xsd:string ;
	bd:format ""^^xsd:string ;
	bd:ctAndFormat ""^^xsd:string ;
	bd:compliance <http://www.assero.co.uk/CSN#f7d9d4e1-a00a-487e-89db-ebece910ba0d> ;
	bd:basedOnClassVariable <http://www.cdisc.org/SDTM_MODEL_ALL/V2#CL_TAETORD> ;
.
<http://www.cdisc.org/EX/V2#EPOCH>
	rdf:type bd:SdtmDomainVariable ;
	isoC:label "Epoch"^^xsd:string ;
	bd:rule ""^^xsd:string ;
	bd:ordinal "25"^^xsd:positiveInteger ;
	bd:name "EPOCH"^^xsd:string ;
	bd:description "Trial Epoch of the Exposure record. Examples: SCREENING, TREATMENT PHASE, FOLLOW-UP"^^xsd:string ;
	bd:format ""^^xsd:string ;
	bd:ctAndFormat ""^^xsd:string ;
	bd:compliance <http://www.assero.co.uk/CSN#f7d9d4e1-a00a-487e-89db-ebece910ba0d> ;
	bd:basedOnClassVariable <http://www.cdisc.org/SDTM_MODEL_ALL/V2#CL_EPOCH> ;
.
<http://www.cdisc.org/EX/V2#EXTPT>
	rdf:type bd:SdtmDomainVariable ;
	isoC:label "Planned Time Point Name"^^xsd:string ;
	bd:rule ""^^xsd:string ;
	bd:ordinal "31"^^xsd:positiveInteger ;
	bd:name "EXTPT"^^xsd:string ;
	bd:description "1. Text Description of time when a dose should be given.\n2. This may be represented as an elapsed time relative to a fixed reference point, such as time of last dose. See EXTPTNUM and EXTPTREF. Examples: Start or 5 min post."^^xsd:string ;
	bd:format ""^^xsd:string ;
	bd:ctAndFormat ""^^xsd:string ;
	bd:compliance <http://www.assero.co.uk/CSN#f7d9d4e1-a00a-487e-89db-ebece910ba0d> ;
	bd:basedOnClassVariable <http://www.cdisc.org/SDTM_MODEL_ALL/V2#CL_--TPT> ;
.
<http://www.cdisc.org/SU/V2>
	rdf:type bd:SdtmDomain ;
	isoC:label "Substance Use"^^xsd:string ;
	isoT:hasState <http://www.cdisc.org/SU/V2#RS> ;
	isoT:hasIdentifier <http://www.cdisc.org/SU/V2#SI> ;
	isoT:hasPreviousVersion <http://www.cdisc.org/SU/V1> ;
	isoT:origin ""^^xsd:string ;
	isoT:changeDescription ""^^xsd:string ;
	isoT:creationDate "2012-07-16T00:00:00+00:00"^^xsd:dateTime ;
	isoT:lastChangeDate "2012-07-16T00:00:00+00:00"^^xsd:dateTime ;
	isoT:explanatoryComment ""^^xsd:string ;
	bd:rule ""^^xsd:string ;
	bd:ordinal "1"^^xsd:positiveInteger ;
	bd:includesColumn <http://www.cdisc.org/SU/V1#STUDYID> ;
	bd:includesColumn <http://www.cdisc.org/SU/V2#DOMAIN> ;
	bd:includesColumn <http://www.cdisc.org/SU/V1#USUBJID> ;
	bd:includesColumn <http://www.cdisc.org/SU/V1#SUSEQ> ;
	bd:includesColumn <http://www.cdisc.org/SU/V1#SUGRPID> ;
	bd:includesColumn <http://www.cdisc.org/SU/V1#SUSPID> ;
	bd:includesColumn <http://www.cdisc.org/SU/V1#SUTRT> ;
	bd:includesColumn <http://www.cdisc.org/SU/V1#SUMODIFY> ;
	bd:includesColumn <http://www.cdisc.org/SU/V1#SUDECOD> ;
	bd:includesColumn <http://www.cdisc.org/SU/V1#SUCAT> ;
	bd:includesColumn <http://www.cdisc.org/SU/V1#SUSCAT> ;
	bd:includesColumn <http://www.cdisc.org/SU/V1#SUPRESP> ;
	bd:includesColumn <http://www.cdisc.org/SU/V1#SUOCCUR> ;
	bd:includesColumn <http://www.cdisc.org/SU/V1#SUSTAT> ;
	bd:includesColumn <http://www.cdisc.org/SU/V1#SUREASND> ;
	bd:includesColumn <http://www.cdisc.org/SU/V2#SUCLAS> ;
	bd:includesColumn <http://www.cdisc.org/SU/V1#SUCLASCD> ;
	bd:includesColumn <http://www.cdisc.org/SU/V1#SUDOSE> ;
	bd:includesColumn <http://www.cdisc.org/SU/V1#SUDOSTXT> ;
	bd:includesColumn <http://www.cdisc.org/SU/V1#SUDOSU> ;
	bd:includesColumn <http://www.cdisc.org/SU/V1#SUDOSFRM> ;
	bd:includesColumn <http://www.cdisc.org/SU/V1#SUDOSFRQ> ;
	bd:includesColumn <http://www.cdisc.org/SU/V1#SUDOSTOT> ;
	bd:includesColumn <http://www.cdisc.org/SU/V1#SUROUTE> ;
	bd:includesColumn <http://www.cdisc.org/SU/V1#SUSTDTC> ;
	bd:includesColumn <http://www.cdisc.org/SU/V1#SUENDTC> ;
	bd:includesColumn <http://www.cdisc.org/SU/V1#SUSTDY> ;
	bd:includesColumn <http://www.cdisc.org/SU/V1#SUENDY> ;
	bd:includesColumn <http://www.cdisc.org/SU/V1#SUDUR> ;
	bd:includesColumn <http://www.cdisc.org/SU/V2#SUSTRF> ;
	bd:includesColumn <http://www.cdisc.org/SU/V2#SUENRF> ;
	bd:includesColumn <http://www.cdisc.org/SU/V2#SUSTRTPT> ;
	bd:includesColumn <http://www.cdisc.org/SU/V2#SUSTTPT> ;
	bd:includesColumn <http://www.cdisc.org/SU/V2#SUENRTPT> ;
	bd:includesColumn <http://www.cdisc.org/SU/V2#SUENTPT> ;
	bd:prefix "SU"^^xsd:string ;
	bd:structure "One record per substance type per reported occurrence per subject"^^xsd:string ;
	bd:basedOnClass <http://www.cdisc.org/SDTM_MODEL_INTERVENTIONS/V2#CL> ;
.
<http://www.cdisc.org/SU/V2#RS>
	rdf:type isoR:RegistrationState ;
	isoR:registrationStatus "Standard"^^xsd:string ;
	isoR:administrativeNote ""^^xsd:string ;
	isoR:effectiveDate "2016-01-01T00:00:00+00:00"^^xsd:dateTime ;
	isoR:untilDate "2016-01-01T00:00:00+00:00"^^xsd:dateTime ;
	isoR:unresolvedIssue ""^^xsd:string ;
	isoR:administrativeStatus ""^^xsd:string ;
	isoR:previousState "Standard"^^xsd:string ;
	isoR:multipleEdit "false"^^xsd:boolean ;
	isoR:byAuthority <http://www.assero.co.uk/RA#DUNS084433759> ;
.
<http://www.cdisc.org/SU/V2#SI>
	rdf:type isoI:ScopedIdentifier ;
	isoI:identifier "SU"^^xsd:string ;
	isoI:versionLabel "2012-07-16 Release"^^xsd:string ;
	isoI:version "2"^^xsd:positiveInteger ;
	isoI:semanticVersion "2.0.0"^^xsd:string ;
	isoI:hasScope <http://www.assero.co.uk/NS#CDISC> ;
.
<http://www.cdisc.org/SU/V2#DOMAIN>
	rdf:type bd:SdtmDomainVariable ;
	isoC:label "Domain Abbreviation"^^xsd:string ;
	bd:rule ""^^xsd:string ;
	bd:ordinal "2"^^xsd:positiveInteger ;
	bd:name "DOMAIN"^^xsd:string ;
	bd:description "Two-character abbreviation for the domain."^^xsd:string ;
	bd:format ""^^xsd:string ;
	bd:ctAndFormat "(DOMAIN)"^^xsd:string ;
	bd:compliance <http://www.assero.co.uk/CSN#52070084-cdd3-4ba8-8377-f670e4b0276c> ;
	bd:ctReference <http://www.cdisc.org/SU/V2#DOMAIN_TMC1> ;
	bd:basedOnClassVariable <http://www.cdisc.org/SDTM_MODEL_ALL/V2#CL_DOMAIN> ;
.
<http://www.cdisc.org/SU/V2#DOMAIN_TMC1>
	rdf:type bo:TMcReference ;
	isoC:label "DOMAIN"^^xsd:string ;
	bo:enabled "true"^^xsd:boolean ;
	bo:optional "false"^^xsd:boolean ;
	bo:ordinal "1"^^xsd:positiveInteger ;
	bo:reference <http://www.cdisc.org/C66734/V28#C66734> ;
	bo:context <http://www.cdisc.org/CT/V31#TH> ;
.
<http://www.cdisc.org/SU/V2#SUCLAS>
	rdf:type bd:SdtmDomainVariable ;
	isoC:label "Substance Use Class"^^xsd:string ;
	bd:rule ""^^xsd:string ;
	bd:ordinal "16"^^xsd:positiveInteger ;
	bd:name "SUCLAS"^^xsd:string ;
	bd:description "Substance use class. May be obtained from coding. When coding to a single class, populate with class value. If using a dictionary and coding to multiple classes, then follow assumption 4.1.2.8.3 or omit SUCLAS."^^xsd:string ;
	bd:format ""^^xsd:string ;
	bd:ctAndFormat ""^^xsd:string ;
	bd:compliance <http://www.assero.co.uk/CSN#f7d9d4e1-a00a-487e-89db-ebece910ba0d> ;
	bd:basedOnClassVariable <http://www.cdisc.org/SDTM_MODEL_INTERVENTIONS/V1#CL_--CLAS> ;
.
<http://www.cdisc.org/SU/V2#SUSTRF>
	rdf:type bd:SdtmDomainVariable ;
	isoC:label "Start Relative to Reference Period"^^xsd:string ;
	bd:rule ""^^xsd:string ;
	bd:ordinal "30"^^xsd:positiveInteger ;
	bd:name "SUSTRF"^^xsd:string ;
	bd:description "Describes the start of the substance use relative to the sponsor-defined reference period. The sponsor-defined reference period is a continuous period of time defined by a discrete starting point and a discrete ending point (represented by RFSTDTC and RFENDTC in Demographics). If information such as \"PRIOR\", \"ONGOING\", or \"CONTINUING\" was collected, this information may be translated into SUSTRF."^^xsd:string ;
	bd:format ""^^xsd:string ;
	bd:ctAndFormat "(STENRF)"^^xsd:string ;
	bd:compliance <http://www.assero.co.uk/CSN#f7d9d4e1-a00a-487e-89db-ebece910ba0d> ;
	bd:ctReference <http://www.cdisc.org/SU/V2#SUSTRF_TMC1> ;
	bd:basedOnClassVariable <http://www.cdisc.org/SDTM_MODEL_ALL/V2#CL_--STRF> ;
.
<http://www.cdisc.org/SU/V2#SUSTRF_TMC1>
	rdf:type bo:TMcReference ;
	isoC:label "STENRF"^^xsd:string ;
	bo:enabled "true"^^xsd:boolean ;
	bo:optional "false"^^xsd:boolean ;
	bo:ordinal "1"^^xsd:positiveInteger ;
	bo:reference <http://www.cdisc.org/C66728/V27#C66728> ;
	bo:context <http://www.cdisc.org/CT/V31#TH> ;
.
<http://www.cdisc.org/SU/V2#SUENRF>
	rdf:type bd:SdtmDomainVariable ;
	isoC:label "End Relative to Reference Period"^^xsd:string ;
	bd:rule ""^^xsd:string ;
	bd:ordinal "31"^^xsd:positiveInteger ;
	bd:name "SUENRF"^^xsd:string ;
	bd:description "Describes the end of the substance use with relative to the sponsor-defined reference period. The sponsor-defined reference period is a continuous period of time defined by a discrete starting point and a discrete ending point (represented by RFSTDTC and RFENDTC in Demographics). If information such as \"PRIOR\", \"ONGOING\", or \"CONTINUING\" was collected, this information may be translated into SUENRF."^^xsd:string ;
	bd:format ""^^xsd:string ;
	bd:ctAndFormat "(STENRF)"^^xsd:string ;
	bd:compliance <http://www.assero.co.uk/CSN#f7d9d4e1-a00a-487e-89db-ebece910ba0d> ;
	bd:ctReference <http://www.cdisc.org/SU/V2#SUENRF_TMC1> ;
	bd:basedOnClassVariable <http://www.cdisc.org/SDTM_MODEL_ALL/V2#CL_--ENRF> ;
.
<http://www.cdisc.org/SU/V2#SUENRF_TMC1>
	rdf:type bo:TMcReference ;
	isoC:label "STENRF"^^xsd:string ;
	bo:enabled "true"^^xsd:boolean ;
	bo:optional "false"^^xsd:boolean ;
	bo:ordinal "1"^^xsd:positiveInteger ;
	bo:reference <http://www.cdisc.org/C66728/V27#C66728> ;
	bo:context <http://www.cdisc.org/CT/V31#TH> ;
.
<http://www.cdisc.org/SU/V2#SUSTRTPT>
	rdf:type bd:SdtmDomainVariable ;
	isoC:label "Start Relative to Reference Time Point"^^xsd:string ;
	bd:rule ""^^xsd:string ;
	bd:ordinal "32"^^xsd:positiveInteger ;
	bd:name "SUSTRTPT"^^xsd:string ;
	bd:description "Identifies the start of the substance as being before or after the reference time point defined by variable SUSTTPT."^^xsd:string ;
	bd:format "BEFORE, COINCIDENT, AFTER, U"^^xsd:string ;
	bd:ctAndFormat "BEFORE, COINCIDENT, AFTER, U"^^xsd:string ;
	bd:compliance <http://www.assero.co.uk/CSN#f7d9d4e1-a00a-487e-89db-ebece910ba0d> ;
	bd:basedOnClassVariable <http://www.cdisc.org/SDTM_MODEL_ALL/V2#CL_--STRTPT> ;
.
<http://www.cdisc.org/SU/V2#SUSTTPT>
	rdf:type bd:SdtmDomainVariable ;
	isoC:label "Start Reference Time Point"^^xsd:string ;
	bd:rule ""^^xsd:string ;
	bd:ordinal "33"^^xsd:positiveInteger ;
	bd:name "SUSTTPT"^^xsd:string ;
	bd:description "Description or date/time in ISO 8601 character format of the reference point referred to by SUSTRTPT. Examples: \"2003-12-15\" or \"VISIT 1\"."^^xsd:string ;
	bd:format ""^^xsd:string ;
	bd:ctAndFormat ""^^xsd:string ;
	bd:compliance <http://www.assero.co.uk/CSN#f7d9d4e1-a00a-487e-89db-ebece910ba0d> ;
	bd:basedOnClassVariable <http://www.cdisc.org/SDTM_MODEL_ALL/V2#CL_--STTPT> ;
.
<http://www.cdisc.org/SU/V2#SUENRTPT>
	rdf:type bd:SdtmDomainVariable ;
	isoC:label "End Relative to Reference Time Point"^^xsd:string ;
	bd:rule ""^^xsd:string ;
	bd:ordinal "34"^^xsd:positiveInteger ;
	bd:name "SUENRTPT"^^xsd:string ;
	bd:description "Identifies the end of the substance as being before or after the reference time point defined by variable SUENTPT."^^xsd:string ;
	bd:format "BEFORE, COINCIDENT, AFTER, ONGOING, U"^^xsd:string ;
	bd:ctAndFormat "BEFORE, COINCIDENT, AFTER, ONGOING, U"^^xsd:string ;
	bd:compliance <http://www.assero.co.uk/CSN#f7d9d4e1-a00a-487e-89db-ebece910ba0d> ;
	bd:basedOnClassVariable <http://www.cdisc.org/SDTM_MODEL_ALL/V2#CL_--ENRTPT> ;
.
<http://www.cdisc.org/SU/V2#SUENTPT>
	rdf:type bd:SdtmDomainVariable ;
	isoC:label "End Reference Time Point"^^xsd:string ;
	bd:rule ""^^xsd:string ;
	bd:ordinal "35"^^xsd:positiveInteger ;
	bd:name "SUENTPT"^^xsd:string ;
	bd:description "Description or date/time in ISO 8601 character format of the reference point referred to by SUENRTPT. Examples: \"2003-12-25\" or \"VISIT 2\"."^^xsd:string ;
	bd:format ""^^xsd:string ;
	bd:ctAndFormat ""^^xsd:string ;
	bd:compliance <http://www.assero.co.uk/CSN#f7d9d4e1-a00a-487e-89db-ebece910ba0d> ;
	bd:basedOnClassVariable <http://www.cdisc.org/SDTM_MODEL_ALL/V2#CL_--ENTPT> ;
.
<http://www.cdisc.org/AE/V2>
	rdf:type bd:SdtmDomain ;
	isoC:label "Adverse Events"^^xsd:string ;
	isoT:hasState <http://www.cdisc.org/AE/V2#RS> ;
	isoT:hasIdentifier <http://www.cdisc.org/AE/V2#SI> ;
	isoT:hasPreviousVersion <http://www.cdisc.org/AE/V1> ;
	isoT:origin ""^^xsd:string ;
	isoT:changeDescription ""^^xsd:string ;
	isoT:creationDate "2012-07-16T00:00:00+00:00"^^xsd:dateTime ;
	isoT:lastChangeDate "2012-07-16T00:00:00+00:00"^^xsd:dateTime ;
	isoT:explanatoryComment ""^^xsd:string ;
	bd:rule ""^^xsd:string ;
	bd:ordinal "1"^^xsd:positiveInteger ;
	bd:includesColumn <http://www.cdisc.org/AE/V1#STUDYID> ;
	bd:includesColumn <http://www.cdisc.org/AE/V2#DOMAIN> ;
	bd:includesColumn <http://www.cdisc.org/AE/V1#USUBJID> ;
	bd:includesColumn <http://www.cdisc.org/AE/V1#AESEQ> ;
	bd:includesColumn <http://www.cdisc.org/AE/V1#AEGRPID> ;
	bd:includesColumn <http://www.cdisc.org/AE/V1#AEREFID> ;
	bd:includesColumn <http://www.cdisc.org/AE/V1#AESPID> ;
	bd:includesColumn <http://www.cdisc.org/AE/V1#AETERM> ;
	bd:includesColumn <http://www.cdisc.org/AE/V1#AEMODIFY> ;
	bd:includesColumn <http://www.cdisc.org/AE/V2#AELLT> ;
	bd:includesColumn <http://www.cdisc.org/AE/V2#AELLTCD> ;
	bd:includesColumn <http://www.cdisc.org/AE/V2#AEDECOD> ;
	bd:includesColumn <http://www.cdisc.org/AE/V2#AEPTCD> ;
	bd:includesColumn <http://www.cdisc.org/AE/V2#AEHLT> ;
	bd:includesColumn <http://www.cdisc.org/AE/V2#AEHLTCD> ;
	bd:includesColumn <http://www.cdisc.org/AE/V2#AEHLGT> ;
	bd:includesColumn <http://www.cdisc.org/AE/V2#AEHLGTCD> ;
	bd:includesColumn <http://www.cdisc.org/AE/V2#AECAT> ;
	bd:includesColumn <http://www.cdisc.org/AE/V2#AESCAT> ;
	bd:includesColumn <http://www.cdisc.org/AE/V2#AEPRESP> ;
	bd:includesColumn <http://www.cdisc.org/AE/V2#AEBODSYS> ;
	bd:includesColumn <http://www.cdisc.org/AE/V2#AEBDSYCD> ;
	bd:includesColumn <http://www.cdisc.org/AE/V2#AESOC> ;
	bd:includesColumn <http://www.cdisc.org/AE/V2#AESOCCD> ;
	bd:includesColumn <http://www.cdisc.org/AE/V2#AELOC> ;
	bd:includesColumn <http://www.cdisc.org/AE/V2#AESEV> ;
	bd:includesColumn <http://www.cdisc.org/AE/V2#AESER> ;
	bd:includesColumn <http://www.cdisc.org/AE/V2#AEACN> ;
	bd:includesColumn <http://www.cdisc.org/AE/V2#AEACNOTH> ;
	bd:includesColumn <http://www.cdisc.org/AE/V2#AEREL> ;
	bd:includesColumn <http://www.cdisc.org/AE/V2#AERELNST> ;
	bd:includesColumn <http://www.cdisc.org/AE/V2#AEPATT> ;
	bd:includesColumn <http://www.cdisc.org/AE/V2#AEOUT> ;
	bd:includesColumn <http://www.cdisc.org/AE/V2#AESCAN> ;
	bd:includesColumn <http://www.cdisc.org/AE/V2#AESCONG> ;
	bd:includesColumn <http://www.cdisc.org/AE/V2#AESDISAB> ;
	bd:includesColumn <http://www.cdisc.org/AE/V2#AESDTH> ;
	bd:includesColumn <http://www.cdisc.org/AE/V2#AESHOSP> ;
	bd:includesColumn <http://www.cdisc.org/AE/V2#AESLIFE> ;
	bd:includesColumn <http://www.cdisc.org/AE/V2#AESOD> ;
	bd:includesColumn <http://www.cdisc.org/AE/V2#AESMIE> ;
	bd:includesColumn <http://www.cdisc.org/AE/V2#AECONTRT> ;
	bd:includesColumn <http://www.cdisc.org/AE/V2#AETOXGR> ;
	bd:includesColumn <http://www.cdisc.org/AE/V2#AESTDTC> ;
	bd:includesColumn <http://www.cdisc.org/AE/V2#AEENDTC> ;
	bd:includesColumn <http://www.cdisc.org/AE/V2#AESTDY> ;
	bd:includesColumn <http://www.cdisc.org/AE/V2#AEENDY> ;
	bd:includesColumn <http://www.cdisc.org/AE/V2#AEDUR> ;
	bd:includesColumn <http://www.cdisc.org/AE/V2#AEENRF> ;
	bd:includesColumn <http://www.cdisc.org/AE/V2#AEENRTPT> ;
	bd:includesColumn <http://www.cdisc.org/AE/V2#AEENTPT> ;
	bd:prefix "AE"^^xsd:string ;
	bd:structure "One record per adverse event per subject"^^xsd:string ;
	bd:basedOnClass <http://www.cdisc.org/SDTM_MODEL_EVENTS/V2#CL> ;
.
<http://www.cdisc.org/AE/V2#RS>
	rdf:type isoR:RegistrationState ;
	isoR:registrationStatus "Standard"^^xsd:string ;
	isoR:administrativeNote ""^^xsd:string ;
	isoR:effectiveDate "2016-01-01T00:00:00+00:00"^^xsd:dateTime ;
	isoR:untilDate "2016-01-01T00:00:00+00:00"^^xsd:dateTime ;
	isoR:unresolvedIssue ""^^xsd:string ;
	isoR:administrativeStatus ""^^xsd:string ;
	isoR:previousState "Standard"^^xsd:string ;
	isoR:multipleEdit "false"^^xsd:boolean ;
	isoR:byAuthority <http://www.assero.co.uk/RA#DUNS084433759> ;
.
<http://www.cdisc.org/AE/V2#SI>
	rdf:type isoI:ScopedIdentifier ;
	isoI:identifier "AE"^^xsd:string ;
	isoI:versionLabel "2012-07-16 Release"^^xsd:string ;
	isoI:version "2"^^xsd:positiveInteger ;
	isoI:semanticVersion "2.0.0"^^xsd:string ;
	isoI:hasScope <http://www.assero.co.uk/NS#CDISC> ;
.
<http://www.cdisc.org/AE/V2#DOMAIN>
	rdf:type bd:SdtmDomainVariable ;
	isoC:label "Domain Abbreviation"^^xsd:string ;
	bd:rule ""^^xsd:string ;
	bd:ordinal "2"^^xsd:positiveInteger ;
	bd:name "DOMAIN"^^xsd:string ;
	bd:description "Two-character abbreviation for the domain."^^xsd:string ;
	bd:format ""^^xsd:string ;
	bd:ctAndFormat "(DOMAIN)"^^xsd:string ;
	bd:compliance <http://www.assero.co.uk/CSN#52070084-cdd3-4ba8-8377-f670e4b0276c> ;
	bd:ctReference <http://www.cdisc.org/AE/V2#DOMAIN_TMC1> ;
	bd:basedOnClassVariable <http://www.cdisc.org/SDTM_MODEL_ALL/V2#CL_DOMAIN> ;
.
<http://www.cdisc.org/AE/V2#DOMAIN_TMC1>
	rdf:type bo:TMcReference ;
	isoC:label "DOMAIN"^^xsd:string ;
	bo:enabled "true"^^xsd:boolean ;
	bo:optional "false"^^xsd:boolean ;
	bo:ordinal "1"^^xsd:positiveInteger ;
	bo:reference <http://www.cdisc.org/C66734/V28#C66734> ;
	bo:context <http://www.cdisc.org/CT/V31#TH> ;
.
<http://www.cdisc.org/AE/V2#AELLT>
	rdf:type bd:SdtmDomainVariable ;
	isoC:label "Lowest Level Term"^^xsd:string ;
	bd:rule ""^^xsd:string ;
	bd:ordinal "10"^^xsd:positiveInteger ;
	bd:name "AELLT"^^xsd:string ;
	bd:description "Dictionary-derived text description of the Lowest Level Term."^^xsd:string ;
	bd:format "MedDRA"^^xsd:string ;
	bd:ctAndFormat "MedDRA"^^xsd:string ;
	bd:compliance <http://www.assero.co.uk/CSN#046f6c24-9eaf-4f60-8390-f36328c82ec4> ;
	bd:basedOnClassVariable <http://www.cdisc.org/SDTM_MODEL_EVENTS/V2#CL_--LLT> ;
.
<http://www.cdisc.org/AE/V2#AELLTCD>
	rdf:type bd:SdtmDomainVariable ;
	isoC:label "Lowest Level Term Code"^^xsd:string ;
	bd:rule ""^^xsd:string ;
	bd:ordinal "11"^^xsd:positiveInteger ;
	bd:name "AELLTCD"^^xsd:string ;
	bd:description "Dictionary-derived code for the Lowest Level Term."^^xsd:string ;
	bd:format "MedDRA"^^xsd:string ;
	bd:ctAndFormat "MedDRA"^^xsd:string ;
	bd:compliance <http://www.assero.co.uk/CSN#046f6c24-9eaf-4f60-8390-f36328c82ec4> ;
	bd:basedOnClassVariable <http://www.cdisc.org/SDTM_MODEL_EVENTS/V2#CL_--LLTCD> ;
.
<http://www.cdisc.org/AE/V2#AEDECOD>
	rdf:type bd:SdtmDomainVariable ;
	isoC:label "Dictionary-Derived Term"^^xsd:string ;
	bd:rule ""^^xsd:string ;
	bd:ordinal "12"^^xsd:positiveInteger ;
	bd:name "AEDECOD"^^xsd:string ;
	bd:description "Dictionary-derived text description of AETERM or AEMODIFY. Equivalent to the Preferred Term (PT in MedDRA). The sponsor is expected to provide the dictionary name and version used to map the terms utilizing the define.xml external codelist attributes"^^xsd:string ;
	bd:format ""^^xsd:string ;
	bd:ctAndFormat ""^^xsd:string ;
	bd:compliance <http://www.assero.co.uk/CSN#52070084-cdd3-4ba8-8377-f670e4b0276c> ;
	bd:basedOnClassVariable <http://www.cdisc.org/SDTM_MODEL_EVENTS/V2#CL_--DECOD> ;
.
<http://www.cdisc.org/AE/V2#AEPTCD>
	rdf:type bd:SdtmDomainVariable ;
	isoC:label "Preferred Term Code"^^xsd:string ;
	bd:rule ""^^xsd:string ;
	bd:ordinal "13"^^xsd:positiveInteger ;
	bd:name "AEPTCD"^^xsd:string ;
	bd:description "Dictionary-derived code for the Preferred Term."^^xsd:string ;
	bd:format "MedDRA"^^xsd:string ;
	bd:ctAndFormat "MedDRA"^^xsd:string ;
	bd:compliance <http://www.assero.co.uk/CSN#046f6c24-9eaf-4f60-8390-f36328c82ec4> ;
	bd:basedOnClassVariable <http://www.cdisc.org/SDTM_MODEL_EVENTS/V2#CL_--PTCD> ;
.
<http://www.cdisc.org/AE/V2#AEHLT>
	rdf:type bd:SdtmDomainVariable ;
	isoC:label "High Level Term"^^xsd:string ;
	bd:rule ""^^xsd:string ;
	bd:ordinal "14"^^xsd:positiveInteger ;
	bd:name "AEHLT"^^xsd:string ;
	bd:description "Dictionary-derived text description of the High Level Term for the primary System Organ Class."^^xsd:string ;
	bd:format "MedDRA"^^xsd:string ;
	bd:ctAndFormat "MedDRA"^^xsd:string ;
	bd:compliance <http://www.assero.co.uk/CSN#046f6c24-9eaf-4f60-8390-f36328c82ec4> ;
	bd:basedOnClassVariable <http://www.cdisc.org/SDTM_MODEL_EVENTS/V2#CL_--HLT> ;
.
<http://www.cdisc.org/AE/V2#AEHLTCD>
	rdf:type bd:SdtmDomainVariable ;
	isoC:label "High Level Term Code"^^xsd:string ;
	bd:rule ""^^xsd:string ;
	bd:ordinal "15"^^xsd:positiveInteger ;
	bd:name "AEHLTCD"^^xsd:string ;
	bd:description "Dictionary-derived code for the High Level Term for the primary System Organ Class."^^xsd:string ;
	bd:format "MedDRA"^^xsd:string ;
	bd:ctAndFormat "MedDRA"^^xsd:string ;
	bd:compliance <http://www.assero.co.uk/CSN#046f6c24-9eaf-4f60-8390-f36328c82ec4> ;
	bd:basedOnClassVariable <http://www.cdisc.org/SDTM_MODEL_EVENTS/V2#CL_--HLTCD> ;
.
<http://www.cdisc.org/AE/V2#AEHLGT>
	rdf:type bd:SdtmDomainVariable ;
	isoC:label "High Level Group Term"^^xsd:string ;
	bd:rule ""^^xsd:string ;
	bd:ordinal "16"^^xsd:positiveInteger ;
	bd:name "AEHLGT"^^xsd:string ;
	bd:description "Dictionary-derived text description of the High Level Group Term for the primary System Organ Class."^^xsd:string ;
	bd:format "MedDRA"^^xsd:string ;
	bd:ctAndFormat "MedDRA"^^xsd:string ;
	bd:compliance <http://www.assero.co.uk/CSN#046f6c24-9eaf-4f60-8390-f36328c82ec4> ;
	bd:basedOnClassVariable <http://www.cdisc.org/SDTM_MODEL_EVENTS/V2#CL_--HLGT> ;
.
<http://www.cdisc.org/AE/V2#AEHLGTCD>
	rdf:type bd:SdtmDomainVariable ;
	isoC:label "High Level Group Term Code"^^xsd:string ;
	bd:rule ""^^xsd:string ;
	bd:ordinal "17"^^xsd:positiveInteger ;
	bd:name "AEHLGTCD"^^xsd:string ;
	bd:description "Dictionary-derived code for the High Level Group Term for the primary System Organ Class."^^xsd:string ;
	bd:format "MedDRA"^^xsd:string ;
	bd:ctAndFormat "MedDRA"^^xsd:string ;
	bd:compliance <http://www.assero.co.uk/CSN#046f6c24-9eaf-4f60-8390-f36328c82ec4> ;
	bd:basedOnClassVariable <http://www.cdisc.org/SDTM_MODEL_EVENTS/V2#CL_--HLGTCD> ;
.
<http://www.cdisc.org/AE/V2#AECAT>
	rdf:type bd:SdtmDomainVariable ;
	isoC:label "Category for Adverse Event"^^xsd:string ;
	bd:rule ""^^xsd:string ;
	bd:ordinal "18"^^xsd:positiveInteger ;
	bd:name "AECAT"^^xsd:string ;
	bd:description "Used to define a category of related records. Example: BLEEDING, NEUROPSYCHIATRIC."^^xsd:string ;
	bd:format ""^^xsd:string ;
	bd:ctAndFormat ""^^xsd:string ;
	bd:compliance <http://www.assero.co.uk/CSN#f7d9d4e1-a00a-487e-89db-ebece910ba0d> ;
	bd:basedOnClassVariable <http://www.cdisc.org/SDTM_MODEL_EVENTS/V2#CL_--CAT> ;
	bd:isA <http://www.s-cubed.dk/CAR#a3c686e711e4720f99b4562bb3dbaae7ab658cf2> ;
.
<http://www.cdisc.org/AE/V2#AESCAT>
	rdf:type bd:SdtmDomainVariable ;
	isoC:label "Subcategory for Adverse Event"^^xsd:string ;
	bd:rule ""^^xsd:string ;
	bd:ordinal "19"^^xsd:positiveInteger ;
	bd:name "AESCAT"^^xsd:string ;
	bd:description "A further categorization of adverse event. Example: NEUROLOGIC."^^xsd:string ;
	bd:format ""^^xsd:string ;
	bd:ctAndFormat ""^^xsd:string ;
	bd:compliance <http://www.assero.co.uk/CSN#f7d9d4e1-a00a-487e-89db-ebece910ba0d> ;
	bd:basedOnClassVariable <http://www.cdisc.org/SDTM_MODEL_EVENTS/V2#CL_--SCAT> ;
	bd:isA <http://www.s-cubed.dk/CAR#479a67983e739413da55faf0dc509f83fd5dea64> ;
.
<http://www.cdisc.org/AE/V2#AEPRESP>
	rdf:type bd:SdtmDomainVariable ;
	isoC:label "Pre-Specified Adverse Event"^^xsd:string ;
	bd:rule ""^^xsd:string ;
	bd:ordinal "20"^^xsd:positiveInteger ;
	bd:name "AEPRESP"^^xsd:string ;
	bd:description "A value of \"Y\" indicates that this adverse event was pre-specified on the CRF. Values are null for spontaneously reported events (i.e., those collected as free-text verbatim terms)"^^xsd:string ;
	bd:format ""^^xsd:string ;
	bd:ctAndFormat "(NY)"^^xsd:string ;
	bd:compliance <http://www.assero.co.uk/CSN#f7d9d4e1-a00a-487e-89db-ebece910ba0d> ;
	bd:ctReference <http://www.cdisc.org/AE/V2#AEPRESP_TMC1> ;
	bd:basedOnClassVariable <http://www.cdisc.org/SDTM_MODEL_EVENTS/V2#CL_--PRESP> ;
.
<http://www.cdisc.org/AE/V2#AEPRESP_TMC1>
	rdf:type bo:TMcReference ;
	isoC:label "NY"^^xsd:string ;
	bo:enabled "true"^^xsd:boolean ;
	bo:optional "false"^^xsd:boolean ;
	bo:ordinal "1"^^xsd:positiveInteger ;
	bo:reference <http://www.cdisc.org/C66742/V4#C66742> ;
	bo:context <http://www.cdisc.org/CT/V31#TH> ;
.
<http://www.cdisc.org/AE/V2#AEBODSYS>
	rdf:type bd:SdtmDomainVariable ;
	isoC:label "Body System or Organ Class"^^xsd:string ;
	bd:rule ""^^xsd:string ;
	bd:ordinal "21"^^xsd:positiveInteger ;
	bd:name "AEBODSYS"^^xsd:string ;
	bd:description "Dictionary derived. Body system or organ class used by the sponsor from the coding dictionary (e.g., MedDRA). When using a multi-axial dictionary such as MedDRA, this should contain the SOC used for the sponsor's analyses and summary tables which may not necessarily be the primary SOC."^^xsd:string ;
	bd:format ""^^xsd:string ;
	bd:ctAndFormat ""^^xsd:string ;
	bd:compliance <http://www.assero.co.uk/CSN#046f6c24-9eaf-4f60-8390-f36328c82ec4> ;
	bd:basedOnClassVariable <http://www.cdisc.org/SDTM_MODEL_EVENTS/V2#CL_--BODSYS> ;
.
<http://www.cdisc.org/AE/V2#AEBDSYCD>
	rdf:type bd:SdtmDomainVariable ;
	isoC:label "Body System or Organ Class Code"^^xsd:string ;
	bd:rule ""^^xsd:string ;
	bd:ordinal "22"^^xsd:positiveInteger ;
	bd:name "AEBDSYCD"^^xsd:string ;
	bd:description "Dictionary derived. Code for the body system or organ class used by the sponsor. When using a multi-axial dictionary such as MedDRA, this should contain the SOC used for the sponsor's analyses and summary tables, which may not necessarily be the primary SOC."^^xsd:string ;
	bd:format "MedDRA"^^xsd:string ;
	bd:ctAndFormat "MedDRA"^^xsd:string ;
	bd:compliance <http://www.assero.co.uk/CSN#046f6c24-9eaf-4f60-8390-f36328c82ec4> ;
	bd:basedOnClassVariable <http://www.cdisc.org/SDTM_MODEL_EVENTS/V2#CL_--BDSYCD> ;
.
<http://www.cdisc.org/AE/V2#AESOC>
	rdf:type bd:SdtmDomainVariable ;
	isoC:label "Primary System Organ Class"^^xsd:string ;
	bd:rule ""^^xsd:string ;
	bd:ordinal "23"^^xsd:positiveInteger ;
	bd:name "AESOC"^^xsd:string ;
	bd:description "Dictionary-derived text description of the primary System Organ Class. Will be the same as AEBODSYS if the primary SOC was used for analysis."^^xsd:string ;
	bd:format "MedDRA"^^xsd:string ;
	bd:ctAndFormat "MedDRA"^^xsd:string ;
	bd:compliance <http://www.assero.co.uk/CSN#046f6c24-9eaf-4f60-8390-f36328c82ec4> ;
	bd:basedOnClassVariable <http://www.cdisc.org/SDTM_MODEL_EVENTS/V2#CL_--SOC> ;
.
<http://www.cdisc.org/AE/V2#AESOCCD>
	rdf:type bd:SdtmDomainVariable ;
	isoC:label "Primary System Organ Class Code"^^xsd:string ;
	bd:rule ""^^xsd:string ;
	bd:ordinal "24"^^xsd:positiveInteger ;
	bd:name "AESOCCD"^^xsd:string ;
	bd:description "Dictionary-derived code for the primary System Organ Class. Will be the same as AEBDSYCD if the primary SOC was used for analysis."^^xsd:string ;
	bd:format "MedDRA"^^xsd:string ;
	bd:ctAndFormat "MedDRA"^^xsd:string ;
	bd:compliance <http://www.assero.co.uk/CSN#046f6c24-9eaf-4f60-8390-f36328c82ec4> ;
	bd:basedOnClassVariable <http://www.cdisc.org/SDTM_MODEL_EVENTS/V2#CL_--SOCCD> ;
.
<http://www.cdisc.org/AE/V2#AELOC>
	rdf:type bd:SdtmDomainVariable ;
	isoC:label "Location of Event"^^xsd:string ;
	bd:rule ""^^xsd:string ;
	bd:ordinal "25"^^xsd:positiveInteger ;
	bd:name "AELOC"^^xsd:string ;
	bd:description "Describes anatomical location relevant for the event (e.g., LEFT ARM for skin rash)."^^xsd:string ;
	bd:format ""^^xsd:string ;
	bd:ctAndFormat "(LOC)"^^xsd:string ;
	bd:compliance <http://www.assero.co.uk/CSN#f7d9d4e1-a00a-487e-89db-ebece910ba0d> ;
	bd:ctReference <http://www.cdisc.org/AE/V2#AELOC_TMC1> ;
	bd:basedOnClassVariable <http://www.cdisc.org/SDTM_MODEL_EVENTS/V2#CL_--LOC> ;
	bd:isA <http://www.s-cubed.dk/CAR#d219c68101f532de10add2cf42fb9dbeca73d3be> ;
.
<http://www.cdisc.org/AE/V2#AELOC_TMC1>
	rdf:type bo:TMcReference ;
	isoC:label "LOC"^^xsd:string ;
	bo:enabled "true"^^xsd:boolean ;
	bo:optional "false"^^xsd:boolean ;
	bo:ordinal "1"^^xsd:positiveInteger ;
	bo:reference <http://www.cdisc.org/C74456/V31#C74456> ;
	bo:context <http://www.cdisc.org/CT/V31#TH> ;
.
<http://www.cdisc.org/AE/V2#AESEV>
	rdf:type bd:SdtmDomainVariable ;
	isoC:label "Severity/Intensity"^^xsd:string ;
	bd:rule ""^^xsd:string ;
	bd:ordinal "26"^^xsd:positiveInteger ;
	bd:name "AESEV"^^xsd:string ;
	bd:description "The severity or intensity of the event. Examples: MILD, MODERATE, SEVERE."^^xsd:string ;
	bd:format ""^^xsd:string ;
	bd:ctAndFormat "(AESEV)"^^xsd:string ;
	bd:compliance <http://www.assero.co.uk/CSN#f7d9d4e1-a00a-487e-89db-ebece910ba0d> ;
	bd:ctReference <http://www.cdisc.org/AE/V2#AESEV_TMC1> ;
	bd:basedOnClassVariable <http://www.cdisc.org/SDTM_MODEL_EVENTS/V2#CL_--SEV> ;
	bd:isA <http://www.s-cubed.dk/CAR#de314fa0c9d9e359b633f2fdab4659c886fe5986> ;
.
<http://www.cdisc.org/AE/V2#AESEV_TMC1>
	rdf:type bo:TMcReference ;
	isoC:label "AESEV"^^xsd:string ;
	bo:enabled "true"^^xsd:boolean ;
	bo:optional "false"^^xsd:boolean ;
	bo:ordinal "1"^^xsd:positiveInteger ;
	bo:reference <http://www.cdisc.org/C66769/V17#C66769> ;
	bo:context <http://www.cdisc.org/CT/V31#TH> ;
.
<http://www.cdisc.org/AE/V2#AESER>
	rdf:type bd:SdtmDomainVariable ;
	isoC:label "Serious Event"^^xsd:string ;
	bd:rule ""^^xsd:string ;
	bd:ordinal "27"^^xsd:positiveInteger ;
	bd:name "AESER"^^xsd:string ;
	bd:description "Is this a serious event?"^^xsd:string ;
	bd:format ""^^xsd:string ;
	bd:ctAndFormat "(NY)"^^xsd:string ;
	bd:compliance <http://www.assero.co.uk/CSN#046f6c24-9eaf-4f60-8390-f36328c82ec4> ;
	bd:ctReference <http://www.cdisc.org/AE/V2#AESER_TMC1> ;
	bd:basedOnClassVariable <http://www.cdisc.org/SDTM_MODEL_EVENTS/V2#CL_--SER> ;
	bd:isA <http://www.s-cubed.dk/CAR#bc7845e67c63c354e69a957bab304d72da2f9fb7> ;
.
<http://www.cdisc.org/AE/V2#AESER_TMC1>
	rdf:type bo:TMcReference ;
	isoC:label "NY"^^xsd:string ;
	bo:enabled "true"^^xsd:boolean ;
	bo:optional "false"^^xsd:boolean ;
	bo:ordinal "1"^^xsd:positiveInteger ;
	bo:reference <http://www.cdisc.org/C66742/V4#C66742> ;
	bo:context <http://www.cdisc.org/CT/V31#TH> ;
.
<http://www.cdisc.org/AE/V2#AEACN>
	rdf:type bd:SdtmDomainVariable ;
	isoC:label "Action Taken with Study Treatment"^^xsd:string ;
	bd:rule ""^^xsd:string ;
	bd:ordinal "28"^^xsd:positiveInteger ;
	bd:name "AEACN"^^xsd:string ;
	bd:description "Describes changes to the study treatment as a result of the event. AEACN is specifically for the relationship to study treatment. AEACNOTH is for actions unrelated to dose adjustments of study treatment. Examples of AEACN values include ICH E2B values: DRUG WITHDRAWN, DOSE REDUCED, DOSE INCREASED, DOSE NOT CHANGED, UNKNOWN or NOT APPLICABLE"^^xsd:string ;
	bd:format ""^^xsd:string ;
	bd:ctAndFormat "(ACN)"^^xsd:string ;
	bd:compliance <http://www.assero.co.uk/CSN#046f6c24-9eaf-4f60-8390-f36328c82ec4> ;
	bd:ctReference <http://www.cdisc.org/AE/V2#AEACN_TMC1> ;
	bd:basedOnClassVariable <http://www.cdisc.org/SDTM_MODEL_EVENTS/V2#CL_--ACN> ;
	bd:isA <http://www.s-cubed.dk/CAR#485290959383eee39c093e50e84fdc851ac37a32> ;
.
<http://www.cdisc.org/AE/V2#AEACN_TMC1>
	rdf:type bo:TMcReference ;
	isoC:label "ACN"^^xsd:string ;
	bo:enabled "true"^^xsd:boolean ;
	bo:optional "false"^^xsd:boolean ;
	bo:ordinal "1"^^xsd:positiveInteger ;
	bo:reference <http://www.cdisc.org/C66767/V28#C66767> ;
	bo:context <http://www.cdisc.org/CT/V31#TH> ;
.
<http://www.cdisc.org/AE/V2#AEACNOTH>
	rdf:type bd:SdtmDomainVariable ;
	isoC:label "Other Action Taken"^^xsd:string ;
	bd:rule ""^^xsd:string ;
	bd:ordinal "29"^^xsd:positiveInteger ;
	bd:name "AEACNOTH"^^xsd:string ;
	bd:description "Describes other actions taken as a result of the event that are unrelated to dose adjustments of study treatment. Usually reported as free text. Example: \"TREATMENT UNBLINDED. PRIMARY CARE PHYSICIAN NOTIFIED.\""^^xsd:string ;
	bd:format ""^^xsd:string ;
	bd:ctAndFormat ""^^xsd:string ;
	bd:compliance <http://www.assero.co.uk/CSN#f7d9d4e1-a00a-487e-89db-ebece910ba0d> ;
	bd:basedOnClassVariable <http://www.cdisc.org/SDTM_MODEL_EVENTS/V2#CL_--ACNOTH> ;
	bd:isA <http://www.s-cubed.dk/CAR#1baf5ac06f7430ac72727c2dfb3f152e07d9d5da> ;
.
<http://www.cdisc.org/AE/V2#AEREL>
	rdf:type bd:SdtmDomainVariable ;
	isoC:label "Causality"^^xsd:string ;
	bd:rule ""^^xsd:string ;
	bd:ordinal "30"^^xsd:positiveInteger ;
	bd:name "AEREL"^^xsd:string ;
	bd:description "Records the investigator's opinion as to the causality of the event to the treatment. ICH E2A and E2B examples include NOT RELATED, UNLIKELY RELATED, POSSIBLY RELATED, RELATED. Controlled Terminology may be defined in the future. Check with regulatory authority for population of this variable"^^xsd:string ;
	bd:format ""^^xsd:string ;
	bd:ctAndFormat ""^^xsd:string ;
	bd:compliance <http://www.assero.co.uk/CSN#046f6c24-9eaf-4f60-8390-f36328c82ec4> ;
	bd:basedOnClassVariable <http://www.cdisc.org/SDTM_MODEL_EVENTS/V2#CL_--REL> ;
.
<http://www.cdisc.org/AE/V2#AERELNST>
	rdf:type bd:SdtmDomainVariable ;
	isoC:label "Relationship to Non-Study Treatment"^^xsd:string ;
	bd:rule ""^^xsd:string ;
	bd:ordinal "31"^^xsd:positiveInteger ;
	bd:name "AERELNST"^^xsd:string ;
	bd:description "Records the investigator's opinion as to whether the event may have been due to a treatment other than study drug. May be reported as free text. Example: \"MORE LIKELY RELATED TO ASPIRIN USE.\"."^^xsd:string ;
	bd:format ""^^xsd:string ;
	bd:ctAndFormat ""^^xsd:string ;
	bd:compliance <http://www.assero.co.uk/CSN#f7d9d4e1-a00a-487e-89db-ebece910ba0d> ;
	bd:basedOnClassVariable <http://www.cdisc.org/SDTM_MODEL_EVENTS/V2#CL_--RELNST> ;
.
<http://www.cdisc.org/AE/V2#AEPATT>
	rdf:type bd:SdtmDomainVariable ;
	isoC:label "Pattern of Adverse Event"^^xsd:string ;
	bd:rule ""^^xsd:string ;
	bd:ordinal "32"^^xsd:positiveInteger ;
	bd:name "AEPATT"^^xsd:string ;
	bd:description "Used to indicate the pattern of the event over time. Examples: INTERMITTENT, CONTINUOUS, SINGLE EVENT."^^xsd:string ;
	bd:format ""^^xsd:string ;
	bd:ctAndFormat ""^^xsd:string ;
	bd:compliance <http://www.assero.co.uk/CSN#f7d9d4e1-a00a-487e-89db-ebece910ba0d> ;
	bd:basedOnClassVariable <http://www.cdisc.org/SDTM_MODEL_EVENTS/V2#CL_--PATT> ;
	bd:isA <http://www.s-cubed.dk/CAR#1fff6a31661b491fc40cc9c1ad7fe5e479cb7500> ;
.
<http://www.cdisc.org/AE/V2#AEOUT>
	rdf:type bd:SdtmDomainVariable ;
	isoC:label "Outcome of Adverse Event"^^xsd:string ;
	bd:rule ""^^xsd:string ;
	bd:ordinal "33"^^xsd:positiveInteger ;
	bd:name "AEOUT"^^xsd:string ;
	bd:description "Description of the outcome of an event."^^xsd:string ;
	bd:format ""^^xsd:string ;
	bd:ctAndFormat "(OUT)"^^xsd:string ;
	bd:compliance <http://www.assero.co.uk/CSN#f7d9d4e1-a00a-487e-89db-ebece910ba0d> ;
	bd:ctReference <http://www.cdisc.org/AE/V2#AEOUT_TMC1> ;
	bd:basedOnClassVariable <http://www.cdisc.org/SDTM_MODEL_EVENTS/V2#CL_--OUT> ;
	bd:isA <http://www.s-cubed.dk/CAR#73a0f131076b513c16bfe3f4cff9ab8b765c9f23> ;
.
<http://www.cdisc.org/AE/V2#AEOUT_TMC1>
	rdf:type bo:TMcReference ;
	isoC:label "OUT"^^xsd:string ;
	bo:enabled "true"^^xsd:boolean ;
	bo:optional "false"^^xsd:boolean ;
	bo:ordinal "1"^^xsd:positiveInteger ;
	bo:reference <http://www.cdisc.org/C66768/V28#C66768> ;
	bo:context <http://www.cdisc.org/CT/V31#TH> ;
.
<http://www.cdisc.org/AE/V2#AESCAN>
	rdf:type bd:SdtmDomainVariable ;
	isoC:label "Involves Cancer"^^xsd:string ;
	bd:rule ""^^xsd:string ;
	bd:ordinal "34"^^xsd:positiveInteger ;
	bd:name "AESCAN"^^xsd:string ;
	bd:description "Was the serious event associated with the development of cancer?"^^xsd:string ;
	bd:format ""^^xsd:string ;
	bd:ctAndFormat "(NY)"^^xsd:string ;
	bd:compliance <http://www.assero.co.uk/CSN#f7d9d4e1-a00a-487e-89db-ebece910ba0d> ;
	bd:ctReference <http://www.cdisc.org/AE/V2#AESCAN_TMC1> ;
	bd:basedOnClassVariable <http://www.cdisc.org/SDTM_MODEL_EVENTS/V2#CL_--SCAN> ;
.
<http://www.cdisc.org/AE/V2#AESCAN_TMC1>
	rdf:type bo:TMcReference ;
	isoC:label "NY"^^xsd:string ;
	bo:enabled "true"^^xsd:boolean ;
	bo:optional "false"^^xsd:boolean ;
	bo:ordinal "1"^^xsd:positiveInteger ;
	bo:reference <http://www.cdisc.org/C66742/V4#C66742> ;
	bo:context <http://www.cdisc.org/CT/V31#TH> ;
.
<http://www.cdisc.org/AE/V2#AESCONG>
	rdf:type bd:SdtmDomainVariable ;
	isoC:label "Congenital Anomaly or Birth Defect"^^xsd:string ;
	bd:rule ""^^xsd:string ;
	bd:ordinal "35"^^xsd:positiveInteger ;
	bd:name "AESCONG"^^xsd:string ;
	bd:description "Was the serious event associated with congenital anomaly or birth defect?"^^xsd:string ;
	bd:format ""^^xsd:string ;
	bd:ctAndFormat "(NY)"^^xsd:string ;
	bd:compliance <http://www.assero.co.uk/CSN#f7d9d4e1-a00a-487e-89db-ebece910ba0d> ;
	bd:ctReference <http://www.cdisc.org/AE/V2#AESCONG_TMC1> ;
	bd:basedOnClassVariable <http://www.cdisc.org/SDTM_MODEL_EVENTS/V2#CL_--SCONG> ;
.
<http://www.cdisc.org/AE/V2#AESCONG_TMC1>
	rdf:type bo:TMcReference ;
	isoC:label "NY"^^xsd:string ;
	bo:enabled "true"^^xsd:boolean ;
	bo:optional "false"^^xsd:boolean ;
	bo:ordinal "1"^^xsd:positiveInteger ;
	bo:reference <http://www.cdisc.org/C66742/V4#C66742> ;
	bo:context <http://www.cdisc.org/CT/V31#TH> ;
.
<http://www.cdisc.org/AE/V2#AESDISAB>
	rdf:type bd:SdtmDomainVariable ;
	isoC:label "Persist or Signif Disability/Incapacity"^^xsd:string ;
	bd:rule ""^^xsd:string ;
	bd:ordinal "36"^^xsd:positiveInteger ;
	bd:name "AESDISAB"^^xsd:string ;
	bd:description "Did the serious event result in persistent or significant disability/incapacity?"^^xsd:string ;
	bd:format ""^^xsd:string ;
	bd:ctAndFormat "(NY)"^^xsd:string ;
	bd:compliance <http://www.assero.co.uk/CSN#f7d9d4e1-a00a-487e-89db-ebece910ba0d> ;
	bd:ctReference <http://www.cdisc.org/AE/V2#AESDISAB_TMC1> ;
	bd:basedOnClassVariable <http://www.cdisc.org/SDTM_MODEL_EVENTS/V2#CL_--SDISAB> ;
.
<http://www.cdisc.org/AE/V2#AESDISAB_TMC1>
	rdf:type bo:TMcReference ;
	isoC:label "NY"^^xsd:string ;
	bo:enabled "true"^^xsd:boolean ;
	bo:optional "false"^^xsd:boolean ;
	bo:ordinal "1"^^xsd:positiveInteger ;
	bo:reference <http://www.cdisc.org/C66742/V4#C66742> ;
	bo:context <http://www.cdisc.org/CT/V31#TH> ;
.
<http://www.cdisc.org/AE/V2#AESDTH>
	rdf:type bd:SdtmDomainVariable ;
	isoC:label "Results in Death"^^xsd:string ;
	bd:rule ""^^xsd:string ;
	bd:ordinal "37"^^xsd:positiveInteger ;
	bd:name "AESDTH"^^xsd:string ;
	bd:description "Did the serious event result in death?"^^xsd:string ;
	bd:format ""^^xsd:string ;
	bd:ctAndFormat "(NY)"^^xsd:string ;
	bd:compliance <http://www.assero.co.uk/CSN#f7d9d4e1-a00a-487e-89db-ebece910ba0d> ;
	bd:ctReference <http://www.cdisc.org/AE/V2#AESDTH_TMC1> ;
	bd:basedOnClassVariable <http://www.cdisc.org/SDTM_MODEL_EVENTS/V2#CL_--SDTH> ;
.
<http://www.cdisc.org/AE/V2#AESDTH_TMC1>
	rdf:type bo:TMcReference ;
	isoC:label "NY"^^xsd:string ;
	bo:enabled "true"^^xsd:boolean ;
	bo:optional "false"^^xsd:boolean ;
	bo:ordinal "1"^^xsd:positiveInteger ;
	bo:reference <http://www.cdisc.org/C66742/V4#C66742> ;
	bo:context <http://www.cdisc.org/CT/V31#TH> ;
.
<http://www.cdisc.org/AE/V2#AESHOSP>
	rdf:type bd:SdtmDomainVariable ;
	isoC:label "Requires or Prolongs Hospitalization"^^xsd:string ;
	bd:rule ""^^xsd:string ;
	bd:ordinal "38"^^xsd:positiveInteger ;
	bd:name "AESHOSP"^^xsd:string ;
	bd:description "Did the serious event require or prolong hospitalization?"^^xsd:string ;
	bd:format ""^^xsd:string ;
	bd:ctAndFormat "(NY)"^^xsd:string ;
	bd:compliance <http://www.assero.co.uk/CSN#f7d9d4e1-a00a-487e-89db-ebece910ba0d> ;
	bd:ctReference <http://www.cdisc.org/AE/V2#AESHOSP_TMC1> ;
	bd:basedOnClassVariable <http://www.cdisc.org/SDTM_MODEL_EVENTS/V2#CL_--SHOSP> ;
	bd:isA <http://www.s-cubed.dk/CAR#3239c890f4b1b44ea81233e5766557a1008c0b6b> ;
.
<http://www.cdisc.org/AE/V2#AESHOSP_TMC1>
	rdf:type bo:TMcReference ;
	isoC:label "NY"^^xsd:string ;
	bo:enabled "true"^^xsd:boolean ;
	bo:optional "false"^^xsd:boolean ;
	bo:ordinal "1"^^xsd:positiveInteger ;
	bo:reference <http://www.cdisc.org/C66742/V4#C66742> ;
	bo:context <http://www.cdisc.org/CT/V31#TH> ;
.
<http://www.cdisc.org/AE/V2#AESLIFE>
	rdf:type bd:SdtmDomainVariable ;
	isoC:label "Is Life Threatening"^^xsd:string ;
	bd:rule ""^^xsd:string ;
	bd:ordinal "39"^^xsd:positiveInteger ;
	bd:name "AESLIFE"^^xsd:string ;
	bd:description "Was the serious event life threatening?"^^xsd:string ;
	bd:format ""^^xsd:string ;
	bd:ctAndFormat "(NY)"^^xsd:string ;
	bd:compliance <http://www.assero.co.uk/CSN#f7d9d4e1-a00a-487e-89db-ebece910ba0d> ;
	bd:ctReference <http://www.cdisc.org/AE/V2#AESLIFE_TMC1> ;
	bd:basedOnClassVariable <http://www.cdisc.org/SDTM_MODEL_EVENTS/V2#CL_--SLIFE> ;
.
<http://www.cdisc.org/AE/V2#AESLIFE_TMC1>
	rdf:type bo:TMcReference ;
	isoC:label "NY"^^xsd:string ;
	bo:enabled "true"^^xsd:boolean ;
	bo:optional "false"^^xsd:boolean ;
	bo:ordinal "1"^^xsd:positiveInteger ;
	bo:reference <http://www.cdisc.org/C66742/V4#C66742> ;
	bo:context <http://www.cdisc.org/CT/V31#TH> ;
.
<http://www.cdisc.org/AE/V2#AESOD>
	rdf:type bd:SdtmDomainVariable ;
	isoC:label "Occurred with Overdose"^^xsd:string ;
	bd:rule ""^^xsd:string ;
	bd:ordinal "40"^^xsd:positiveInteger ;
	bd:name "AESOD"^^xsd:string ;
	bd:description "Did the serious event occur with an overdose?"^^xsd:string ;
	bd:format ""^^xsd:string ;
	bd:ctAndFormat "(NY)"^^xsd:string ;
	bd:compliance <http://www.assero.co.uk/CSN#f7d9d4e1-a00a-487e-89db-ebece910ba0d> ;
	bd:ctReference <http://www.cdisc.org/AE/V2#AESOD_TMC1> ;
	bd:basedOnClassVariable <http://www.cdisc.org/SDTM_MODEL_EVENTS/V2#CL_--SOD> ;
.
<http://www.cdisc.org/AE/V2#AESOD_TMC1>
	rdf:type bo:TMcReference ;
	isoC:label "NY"^^xsd:string ;
	bo:enabled "true"^^xsd:boolean ;
	bo:optional "false"^^xsd:boolean ;
	bo:ordinal "1"^^xsd:positiveInteger ;
	bo:reference <http://www.cdisc.org/C66742/V4#C66742> ;
	bo:context <http://www.cdisc.org/CT/V31#TH> ;
.
<http://www.cdisc.org/AE/V2#AESMIE>
	rdf:type bd:SdtmDomainVariable ;
	isoC:label "Other Medically Important Serious Event"^^xsd:string ;
	bd:rule ""^^xsd:string ;
	bd:ordinal "41"^^xsd:positiveInteger ;
	bd:name "AESMIE"^^xsd:string ;
	bd:description "Do additional categories for seriousness apply?"^^xsd:string ;
	bd:format ""^^xsd:string ;
	bd:ctAndFormat "(NY)"^^xsd:string ;
	bd:compliance <http://www.assero.co.uk/CSN#f7d9d4e1-a00a-487e-89db-ebece910ba0d> ;
	bd:ctReference <http://www.cdisc.org/AE/V2#AESMIE_TMC1> ;
	bd:basedOnClassVariable <http://www.cdisc.org/SDTM_MODEL_EVENTS/V2#CL_--SMIE> ;
.
<http://www.cdisc.org/AE/V2#AESMIE_TMC1>
	rdf:type bo:TMcReference ;
	isoC:label "NY"^^xsd:string ;
	bo:enabled "true"^^xsd:boolean ;
	bo:optional "false"^^xsd:boolean ;
	bo:ordinal "1"^^xsd:positiveInteger ;
	bo:reference <http://www.cdisc.org/C66742/V4#C66742> ;
	bo:context <http://www.cdisc.org/CT/V31#TH> ;
.
<http://www.cdisc.org/AE/V2#AECONTRT>
	rdf:type bd:SdtmDomainVariable ;
	isoC:label "Concomitant or Additional Trtmnt Given"^^xsd:string ;
	bd:rule ""^^xsd:string ;
	bd:ordinal "42"^^xsd:positiveInteger ;
	bd:name "AECONTRT"^^xsd:string ;
	bd:description "Was another treatment given because of the occurrence of the event?"^^xsd:string ;
	bd:format ""^^xsd:string ;
	bd:ctAndFormat "(NY)"^^xsd:string ;
	bd:compliance <http://www.assero.co.uk/CSN#f7d9d4e1-a00a-487e-89db-ebece910ba0d> ;
	bd:ctReference <http://www.cdisc.org/AE/V2#AECONTRT_TMC1> ;
	bd:basedOnClassVariable <http://www.cdisc.org/SDTM_MODEL_EVENTS/V2#CL_--CONTRT> ;
.
<http://www.cdisc.org/AE/V2#AECONTRT_TMC1>
	rdf:type bo:TMcReference ;
	isoC:label "NY"^^xsd:string ;
	bo:enabled "true"^^xsd:boolean ;
	bo:optional "false"^^xsd:boolean ;
	bo:ordinal "1"^^xsd:positiveInteger ;
	bo:reference <http://www.cdisc.org/C66742/V4#C66742> ;
	bo:context <http://www.cdisc.org/CT/V31#TH> ;
.
<http://www.cdisc.org/AE/V2#AETOXGR>
	rdf:type bd:SdtmDomainVariable ;
	isoC:label "Standard Toxicity Grade"^^xsd:string ;
	bd:rule ""^^xsd:string ;
	bd:ordinal "43"^^xsd:positiveInteger ;
	bd:name "AETOXGR"^^xsd:string ;
	bd:description "Toxicity grade according to a standard toxicity scale such as Common Terminology Criteria for Adverse Events v3.0 (CTCAE). Sponsor should specify name of the scale and version used in the metadata (see Section 6.2.1.1, Assumption 6d). If value is from a numeric scale, represent only the number (e.g., \"2\" and not \"Grade 2\")."^^xsd:string ;
	bd:format ""^^xsd:string ;
	bd:ctAndFormat ""^^xsd:string ;
	bd:compliance <http://www.assero.co.uk/CSN#f7d9d4e1-a00a-487e-89db-ebece910ba0d> ;
	bd:basedOnClassVariable <http://www.cdisc.org/SDTM_MODEL_EVENTS/V2#CL_--TOXGR> ;
.
<http://www.cdisc.org/AE/V2#AESTDTC>
	rdf:type bd:SdtmDomainVariable ;
	isoC:label "Start Date/Time of Adverse Event"^^xsd:string ;
	bd:rule ""^^xsd:string ;
	bd:ordinal "44"^^xsd:positiveInteger ;
	bd:name "AESTDTC"^^xsd:string ;
	bd:description ""^^xsd:string ;
	bd:format "ISO 8601"^^xsd:string ;
	bd:ctAndFormat "ISO 8601"^^xsd:string ;
	bd:compliance <http://www.assero.co.uk/CSN#046f6c24-9eaf-4f60-8390-f36328c82ec4> ;
	bd:basedOnClassVariable <http://www.cdisc.org/SDTM_MODEL_ALL/V2#CL_--STDTC> ;
	bd:isA <http://www.s-cubed.dk/CAR#83c87956785cde43c109e30fcbd95cca63a18d38> ;
.
<http://www.cdisc.org/AE/V2#AEENDTC>
	rdf:type bd:SdtmDomainVariable ;
	isoC:label "End Date/Time of Adverse Event"^^xsd:string ;
	bd:rule ""^^xsd:string ;
	bd:ordinal "45"^^xsd:positiveInteger ;
	bd:name "AEENDTC"^^xsd:string ;
	bd:description ""^^xsd:string ;
	bd:format "ISO 8601"^^xsd:string ;
	bd:ctAndFormat "ISO 8601"^^xsd:string ;
	bd:compliance <http://www.assero.co.uk/CSN#046f6c24-9eaf-4f60-8390-f36328c82ec4> ;
	bd:basedOnClassVariable <http://www.cdisc.org/SDTM_MODEL_ALL/V2#CL_--ENDTC> ;
	bd:isA <http://www.s-cubed.dk/CAR#71c54c70967ea84127e4bd588bd627ec0e581dfb> ;
.
<http://www.cdisc.org/AE/V2#AESTDY>
	rdf:type bd:SdtmDomainVariable ;
	isoC:label "Study Day of Start of Adverse Event"^^xsd:string ;
	bd:rule ""^^xsd:string ;
	bd:ordinal "46"^^xsd:positiveInteger ;
	bd:name "AESTDY"^^xsd:string ;
	bd:description "Study day of start of adverse event relative to the sponsor-defined RFSTDTC."^^xsd:string ;
	bd:format ""^^xsd:string ;
	bd:ctAndFormat ""^^xsd:string ;
	bd:compliance <http://www.assero.co.uk/CSN#f7d9d4e1-a00a-487e-89db-ebece910ba0d> ;
	bd:basedOnClassVariable <http://www.cdisc.org/SDTM_MODEL_ALL/V2#CL_--STDY> ;
.
<http://www.cdisc.org/AE/V2#AEENDY>
	rdf:type bd:SdtmDomainVariable ;
	isoC:label "Study Day of End of Adverse Event"^^xsd:string ;
	bd:rule ""^^xsd:string ;
	bd:ordinal "47"^^xsd:positiveInteger ;
	bd:name "AEENDY"^^xsd:string ;
	bd:description "Study day of end of event relative to the sponsor-defined RFSTDTC."^^xsd:string ;
	bd:format ""^^xsd:string ;
	bd:ctAndFormat ""^^xsd:string ;
	bd:compliance <http://www.assero.co.uk/CSN#f7d9d4e1-a00a-487e-89db-ebece910ba0d> ;
	bd:basedOnClassVariable <http://www.cdisc.org/SDTM_MODEL_ALL/V2#CL_--ENDY> ;
.
<http://www.cdisc.org/AE/V2#AEDUR>
	rdf:type bd:SdtmDomainVariable ;
	isoC:label "Duration of Adverse Event"^^xsd:string ;
	bd:rule ""^^xsd:string ;
	bd:ordinal "48"^^xsd:positiveInteger ;
	bd:name "AEDUR"^^xsd:string ;
	bd:description "Collected duration and unit of an adverse event. Used only if collected on the CRF and not derived from start and end date/times. Example: P1DT2H (for 1 day, 2 hours)."^^xsd:string ;
	bd:format "ISO 8601"^^xsd:string ;
	bd:ctAndFormat "ISO 8601"^^xsd:string ;
	bd:compliance <http://www.assero.co.uk/CSN#f7d9d4e1-a00a-487e-89db-ebece910ba0d> ;
	bd:basedOnClassVariable <http://www.cdisc.org/SDTM_MODEL_ALL/V2#CL_--DUR> ;
.
<http://www.cdisc.org/AE/V2#AEENRF>
	rdf:type bd:SdtmDomainVariable ;
	isoC:label "End Relative to Reference Period"^^xsd:string ;
	bd:rule ""^^xsd:string ;
	bd:ordinal "49"^^xsd:positiveInteger ;
	bd:name "AEENRF"^^xsd:string ;
	bd:description "Describes the end of the event relative to the sponsor-defined reference period. The sponsor-defined reference period is a continuous period of time defined by a discrete starting point (RFSTDTC) and a discrete ending point (RFENDTC) of the trial."^^xsd:string ;
	bd:format ""^^xsd:string ;
	bd:ctAndFormat "(STENRF)"^^xsd:string ;
	bd:compliance <http://www.assero.co.uk/CSN#f7d9d4e1-a00a-487e-89db-ebece910ba0d> ;
	bd:ctReference <http://www.cdisc.org/AE/V2#AEENRF_TMC1> ;
	bd:basedOnClassVariable <http://www.cdisc.org/SDTM_MODEL_ALL/V2#CL_--ENRF> ;
.
<http://www.cdisc.org/AE/V2#AEENRF_TMC1>
	rdf:type bo:TMcReference ;
	isoC:label "STENRF"^^xsd:string ;
	bo:enabled "true"^^xsd:boolean ;
	bo:optional "false"^^xsd:boolean ;
	bo:ordinal "1"^^xsd:positiveInteger ;
	bo:reference <http://www.cdisc.org/C66728/V27#C66728> ;
	bo:context <http://www.cdisc.org/CT/V31#TH> ;
.
<http://www.cdisc.org/AE/V2#AEENRTPT>
	rdf:type bd:SdtmDomainVariable ;
	isoC:label "End Relative to Reference Time Point"^^xsd:string ;
	bd:rule ""^^xsd:string ;
	bd:ordinal "50"^^xsd:positiveInteger ;
	bd:name "AEENRTPT"^^xsd:string ;
	bd:description "Identifies the end of the event as being before or after the reference time point defined by variable AEENTPT."^^xsd:string ;
	bd:format "BEFORE, AFTER, COINCIDENT, ONGOING, U"^^xsd:string ;
	bd:ctAndFormat "BEFORE, AFTER, COINCIDENT, ONGOING, U"^^xsd:string ;
	bd:compliance <http://www.assero.co.uk/CSN#f7d9d4e1-a00a-487e-89db-ebece910ba0d> ;
	bd:basedOnClassVariable <http://www.cdisc.org/SDTM_MODEL_ALL/V2#CL_--ENRTPT> ;
.
<http://www.cdisc.org/AE/V2#AEENTPT>
	rdf:type bd:SdtmDomainVariable ;
	isoC:label "End Reference Time Point"^^xsd:string ;
	bd:rule ""^^xsd:string ;
	bd:ordinal "51"^^xsd:positiveInteger ;
	bd:name "AEENTPT"^^xsd:string ;
	bd:description "Description of date/time in ISO 8601 character format of the reference point referred to by AEENRTPT. Examples: \"2003-12-25\" or \"VISIT 2\"."^^xsd:string ;
	bd:format ""^^xsd:string ;
	bd:ctAndFormat ""^^xsd:string ;
	bd:compliance <http://www.assero.co.uk/CSN#f7d9d4e1-a00a-487e-89db-ebece910ba0d> ;
	bd:basedOnClassVariable <http://www.cdisc.org/SDTM_MODEL_ALL/V2#CL_--ENTPT> ;
.
<http://www.cdisc.org/DS/V2>
	rdf:type bd:SdtmDomain ;
	isoC:label "Disposition"^^xsd:string ;
	isoT:hasState <http://www.cdisc.org/DS/V2#RS> ;
	isoT:hasIdentifier <http://www.cdisc.org/DS/V2#SI> ;
	isoT:hasPreviousVersion <http://www.cdisc.org/DS/V1> ;
	isoT:origin ""^^xsd:string ;
	isoT:changeDescription ""^^xsd:string ;
	isoT:creationDate "2012-07-16T00:00:00+00:00"^^xsd:dateTime ;
	isoT:lastChangeDate "2012-07-16T00:00:00+00:00"^^xsd:dateTime ;
	isoT:explanatoryComment ""^^xsd:string ;
	bd:rule ""^^xsd:string ;
	bd:ordinal "1"^^xsd:positiveInteger ;
	bd:includesColumn <http://www.cdisc.org/DS/V1#STUDYID> ;
	bd:includesColumn <http://www.cdisc.org/DS/V2#DOMAIN> ;
	bd:includesColumn <http://www.cdisc.org/DS/V1#USUBJID> ;
	bd:includesColumn <http://www.cdisc.org/DS/V1#DSSEQ> ;
	bd:includesColumn <http://www.cdisc.org/DS/V1#DSGRPID> ;
	bd:includesColumn <http://www.cdisc.org/DS/V1#DSREFID> ;
	bd:includesColumn <http://www.cdisc.org/DS/V1#DSSPID> ;
	bd:includesColumn <http://www.cdisc.org/DS/V2#DSTERM> ;
	bd:includesColumn <http://www.cdisc.org/DS/V1#DSDECOD> ;
	bd:includesColumn <http://www.cdisc.org/DS/V2#DSCAT> ;
	bd:includesColumn <http://www.cdisc.org/DS/V1#DSSCAT> ;
	bd:includesColumn <http://www.cdisc.org/DS/V2#EPOCH> ;
	bd:includesColumn <http://www.cdisc.org/DS/V1#DSDTC> ;
	bd:includesColumn <http://www.cdisc.org/DS/V1#DSSTDTC> ;
	bd:includesColumn <http://www.cdisc.org/DS/V1#DSSTDY> ;
	bd:prefix "DS"^^xsd:string ;
	bd:structure "One record per disposition status or protocol milestone per subject"^^xsd:string ;
	bd:basedOnClass <http://www.cdisc.org/SDTM_MODEL_EVENTS/V2#CL> ;
.
<http://www.cdisc.org/DS/V2#RS>
	rdf:type isoR:RegistrationState ;
	isoR:registrationStatus "Standard"^^xsd:string ;
	isoR:administrativeNote ""^^xsd:string ;
	isoR:effectiveDate "2016-01-01T00:00:00+00:00"^^xsd:dateTime ;
	isoR:untilDate "2016-01-01T00:00:00+00:00"^^xsd:dateTime ;
	isoR:unresolvedIssue ""^^xsd:string ;
	isoR:administrativeStatus ""^^xsd:string ;
	isoR:previousState "Standard"^^xsd:string ;
	isoR:multipleEdit "false"^^xsd:boolean ;
	isoR:byAuthority <http://www.assero.co.uk/RA#DUNS084433759> ;
.
<http://www.cdisc.org/DS/V2#SI>
	rdf:type isoI:ScopedIdentifier ;
	isoI:identifier "DS"^^xsd:string ;
	isoI:versionLabel "2012-07-16 Release"^^xsd:string ;
	isoI:version "2"^^xsd:positiveInteger ;
	isoI:semanticVersion "2.0.0"^^xsd:string ;
	isoI:hasScope <http://www.assero.co.uk/NS#CDISC> ;
.
<http://www.cdisc.org/DS/V2#DOMAIN>
	rdf:type bd:SdtmDomainVariable ;
	isoC:label "Domain Abbreviation"^^xsd:string ;
	bd:rule ""^^xsd:string ;
	bd:ordinal "2"^^xsd:positiveInteger ;
	bd:name "DOMAIN"^^xsd:string ;
	bd:description "Two-character abbreviation for the domain."^^xsd:string ;
	bd:format ""^^xsd:string ;
	bd:ctAndFormat "(DOMAIN)"^^xsd:string ;
	bd:compliance <http://www.assero.co.uk/CSN#52070084-cdd3-4ba8-8377-f670e4b0276c> ;
	bd:ctReference <http://www.cdisc.org/DS/V2#DOMAIN_TMC1> ;
	bd:basedOnClassVariable <http://www.cdisc.org/SDTM_MODEL_ALL/V2#CL_DOMAIN> ;
.
<http://www.cdisc.org/DS/V2#DOMAIN_TMC1>
	rdf:type bo:TMcReference ;
	isoC:label "DOMAIN"^^xsd:string ;
	bo:enabled "true"^^xsd:boolean ;
	bo:optional "false"^^xsd:boolean ;
	bo:ordinal "1"^^xsd:positiveInteger ;
	bo:reference <http://www.cdisc.org/C66734/V28#C66734> ;
	bo:context <http://www.cdisc.org/CT/V31#TH> ;
.
<http://www.cdisc.org/DS/V2#DSTERM>
	rdf:type bd:SdtmDomainVariable ;
	isoC:label "Reported Term for the Disposition Event"^^xsd:string ;
	bd:rule ""^^xsd:string ;
	bd:ordinal "8"^^xsd:positiveInteger ;
	bd:name "DSTERM"^^xsd:string ;
	bd:description "Verbatim name of the event or protocol milestone. Some terms in DSTERM will match DSDECOD, but others, such as \"Subject moved\" will map to controlled terminology in DSDECOD, such as \"LOST TO FOLLOW-UP.\""^^xsd:string ;
	bd:format ""^^xsd:string ;
	bd:ctAndFormat ""^^xsd:string ;
	bd:compliance <http://www.assero.co.uk/CSN#52070084-cdd3-4ba8-8377-f670e4b0276c> ;
	bd:basedOnClassVariable <http://www.cdisc.org/SDTM_MODEL_EVENTS/V1#CL_--TERM> ;
	bd:isA <http://www.s-cubed.dk/CAR#2a4eb8036d87ab68656ba5b80bbf77123f088904> ;
.
<http://www.cdisc.org/DS/V2#DSCAT>
	rdf:type bd:SdtmDomainVariable ;
	isoC:label "Category for Disposition Event"^^xsd:string ;
	bd:rule ""^^xsd:string ;
	bd:ordinal "10"^^xsd:positiveInteger ;
	bd:name "DSCAT"^^xsd:string ;
	bd:description "Used to define a category of related records. DSCAT is now an \"Expected\" variable. DSCAT was permissible in SDTMIG 3.1.1 and earlier versions. The change from \"permissible\" to \"expected\" is based on the requirement to distinguish protocol milestones and/or other events from disposition events. DSCAT may be null if there are only \"disposition events\"; however, it is recommended that DSCAT always be populated."^^xsd:string ;
	bd:format ""^^xsd:string ;
	bd:ctAndFormat "(DSCAT)"^^xsd:string ;
	bd:compliance <http://www.assero.co.uk/CSN#046f6c24-9eaf-4f60-8390-f36328c82ec4> ;
	bd:ctReference <http://www.cdisc.org/DS/V2#DSCAT_TMC1> ;
	bd:basedOnClassVariable <http://www.cdisc.org/SDTM_MODEL_EVENTS/V2#CL_--CAT> ;
	bd:isA <http://www.s-cubed.dk/CAR#a3c686e711e4720f99b4562bb3dbaae7ab658cf2> ;
.
<http://www.cdisc.org/DS/V2#DSCAT_TMC1>
	rdf:type bo:TMcReference ;
	isoC:label "DSCAT"^^xsd:string ;
	bo:enabled "true"^^xsd:boolean ;
	bo:optional "false"^^xsd:boolean ;
	bo:ordinal "1"^^xsd:positiveInteger ;
	bo:reference <http://www.cdisc.org/C74558/V8#C74558> ;
	bo:context <http://www.cdisc.org/CT/V31#TH> ;
.
<http://www.cdisc.org/DS/V2#EPOCH>
	rdf:type bd:SdtmDomainVariable ;
	isoC:label "Epoch"^^xsd:string ;
	bd:rule ""^^xsd:string ;
	bd:ordinal "12"^^xsd:positiveInteger ;
	bd:name "EPOCH"^^xsd:string ;
	bd:description "EPOCH may be used when DSCAT = \"DISPOSITION EVENT\". Examples: SCREENING, TREATMENT PHASE, FOLLOW-UP"^^xsd:string ;
	bd:format ""^^xsd:string ;
	bd:ctAndFormat ""^^xsd:string ;
	bd:compliance <http://www.assero.co.uk/CSN#f7d9d4e1-a00a-487e-89db-ebece910ba0d> ;
	bd:basedOnClassVariable <http://www.cdisc.org/SDTM_MODEL_ALL/V2#CL_EPOCH> ;
.
<http://www.cdisc.org/MH/V2>
	rdf:type bd:SdtmDomain ;
	isoC:label "Medical History"^^xsd:string ;
	isoT:hasState <http://www.cdisc.org/MH/V2#RS> ;
	isoT:hasIdentifier <http://www.cdisc.org/MH/V2#SI> ;
	isoT:hasPreviousVersion <http://www.cdisc.org/MH/V1> ;
	isoT:origin ""^^xsd:string ;
	isoT:changeDescription ""^^xsd:string ;
	isoT:creationDate "2012-07-16T00:00:00+00:00"^^xsd:dateTime ;
	isoT:lastChangeDate "2012-07-16T00:00:00+00:00"^^xsd:dateTime ;
	isoT:explanatoryComment ""^^xsd:string ;
	bd:rule ""^^xsd:string ;
	bd:ordinal "1"^^xsd:positiveInteger ;
	bd:includesColumn <http://www.cdisc.org/MH/V1#STUDYID> ;
	bd:includesColumn <http://www.cdisc.org/MH/V2#DOMAIN> ;
	bd:includesColumn <http://www.cdisc.org/MH/V1#USUBJID> ;
	bd:includesColumn <http://www.cdisc.org/MH/V1#MHSEQ> ;
	bd:includesColumn <http://www.cdisc.org/MH/V1#MHGRPID> ;
	bd:includesColumn <http://www.cdisc.org/MH/V1#MHREFID> ;
	bd:includesColumn <http://www.cdisc.org/MH/V1#MHSPID> ;
	bd:includesColumn <http://www.cdisc.org/MH/V1#MHTERM> ;
	bd:includesColumn <http://www.cdisc.org/MH/V1#MHMODIFY> ;
	bd:includesColumn <http://www.cdisc.org/MH/V1#MHDECOD> ;
	bd:includesColumn <http://www.cdisc.org/MH/V1#MHCAT> ;
	bd:includesColumn <http://www.cdisc.org/MH/V1#MHSCAT> ;
	bd:includesColumn <http://www.cdisc.org/MH/V2#MHPRESP> ;
	bd:includesColumn <http://www.cdisc.org/MH/V1#MHOCCUR> ;
	bd:includesColumn <http://www.cdisc.org/MH/V1#MHSTAT> ;
	bd:includesColumn <http://www.cdisc.org/MH/V1#MHREASND> ;
	bd:includesColumn <http://www.cdisc.org/MH/V1#MHBODSYS> ;
	bd:includesColumn <http://www.cdisc.org/MH/V1#MHDTC> ;
	bd:includesColumn <http://www.cdisc.org/MH/V1#MHSTDTC> ;
	bd:includesColumn <http://www.cdisc.org/MH/V1#MHENDTC> ;
	bd:includesColumn <http://www.cdisc.org/MH/V2#MHDY> ;
	bd:includesColumn <http://www.cdisc.org/MH/V1#MHENRF> ;
	bd:includesColumn <http://www.cdisc.org/MH/V1#MHENRTPT> ;
	bd:includesColumn <http://www.cdisc.org/MH/V2#MHENTPT> ;
	bd:prefix "MH"^^xsd:string ;
	bd:structure "One record per medical history event per subject"^^xsd:string ;
	bd:basedOnClass <http://www.cdisc.org/SDTM_MODEL_EVENTS/V2#CL> ;
.
<http://www.cdisc.org/MH/V2#RS>
	rdf:type isoR:RegistrationState ;
	isoR:registrationStatus "Standard"^^xsd:string ;
	isoR:administrativeNote ""^^xsd:string ;
	isoR:effectiveDate "2016-01-01T00:00:00+00:00"^^xsd:dateTime ;
	isoR:untilDate "2016-01-01T00:00:00+00:00"^^xsd:dateTime ;
	isoR:unresolvedIssue ""^^xsd:string ;
	isoR:administrativeStatus ""^^xsd:string ;
	isoR:previousState "Standard"^^xsd:string ;
	isoR:multipleEdit "false"^^xsd:boolean ;
	isoR:byAuthority <http://www.assero.co.uk/RA#DUNS084433759> ;
.
<http://www.cdisc.org/MH/V2#SI>
	rdf:type isoI:ScopedIdentifier ;
	isoI:identifier "MH"^^xsd:string ;
	isoI:versionLabel "2012-07-16 Release"^^xsd:string ;
	isoI:version "2"^^xsd:positiveInteger ;
	isoI:semanticVersion "2.0.0"^^xsd:string ;
	isoI:hasScope <http://www.assero.co.uk/NS#CDISC> ;
.
<http://www.cdisc.org/MH/V2#DOMAIN>
	rdf:type bd:SdtmDomainVariable ;
	isoC:label "Domain Abbreviation"^^xsd:string ;
	bd:rule ""^^xsd:string ;
	bd:ordinal "2"^^xsd:positiveInteger ;
	bd:name "DOMAIN"^^xsd:string ;
	bd:description "Two-character abbreviation for the domain."^^xsd:string ;
	bd:format ""^^xsd:string ;
	bd:ctAndFormat "(DOMAIN)"^^xsd:string ;
	bd:compliance <http://www.assero.co.uk/CSN#52070084-cdd3-4ba8-8377-f670e4b0276c> ;
	bd:ctReference <http://www.cdisc.org/MH/V2#DOMAIN_TMC1> ;
	bd:basedOnClassVariable <http://www.cdisc.org/SDTM_MODEL_ALL/V2#CL_DOMAIN> ;
.
<http://www.cdisc.org/MH/V2#DOMAIN_TMC1>
	rdf:type bo:TMcReference ;
	isoC:label "DOMAIN"^^xsd:string ;
	bo:enabled "true"^^xsd:boolean ;
	bo:optional "false"^^xsd:boolean ;
	bo:ordinal "1"^^xsd:positiveInteger ;
	bo:reference <http://www.cdisc.org/C66734/V28#C66734> ;
	bo:context <http://www.cdisc.org/CT/V31#TH> ;
.
<http://www.cdisc.org/MH/V2#MHPRESP>
	rdf:type bd:SdtmDomainVariable ;
	isoC:label "Medical History Event Pre-Specified"^^xsd:string ;
	bd:rule ""^^xsd:string ;
	bd:ordinal "13"^^xsd:positiveInteger ;
	bd:name "MHPRESP"^^xsd:string ;
	bd:description "A value of \"Y\" indicates that this medical history event was pre-specified on the CRF. Values are null for spontaneously reported events (i.e., those collected as free-text verbatim terms)"^^xsd:string ;
	bd:format ""^^xsd:string ;
	bd:ctAndFormat "(NY)"^^xsd:string ;
	bd:compliance <http://www.assero.co.uk/CSN#f7d9d4e1-a00a-487e-89db-ebece910ba0d> ;
	bd:ctReference <http://www.cdisc.org/MH/V2#MHPRESP_TMC1> ;
	bd:basedOnClassVariable <http://www.cdisc.org/SDTM_MODEL_EVENTS/V2#CL_--PRESP> ;
.
<http://www.cdisc.org/MH/V2#MHPRESP_TMC1>
	rdf:type bo:TMcReference ;
	isoC:label "NY"^^xsd:string ;
	bo:enabled "true"^^xsd:boolean ;
	bo:optional "false"^^xsd:boolean ;
	bo:ordinal "1"^^xsd:positiveInteger ;
	bo:reference <http://www.cdisc.org/C66742/V4#C66742> ;
	bo:context <http://www.cdisc.org/CT/V31#TH> ;
.
<http://www.cdisc.org/MH/V2#MHDY>
	rdf:type bd:SdtmDomainVariable ;
	isoC:label "Study Day of History Collection"^^xsd:string ;
	bd:rule ""^^xsd:string ;
	bd:ordinal "21"^^xsd:positiveInteger ;
	bd:name "MHDY"^^xsd:string ;
	bd:description "1. Study day of medical history collection, measured as integer days.\n2. Algorithm for calculations must be relative to the sponsor-defined RFSTDTC variable in Demographics. This formula should be consistent across the submission."^^xsd:string ;
	bd:format ""^^xsd:string ;
	bd:ctAndFormat ""^^xsd:string ;
	bd:compliance <http://www.assero.co.uk/CSN#f7d9d4e1-a00a-487e-89db-ebece910ba0d> ;
	bd:basedOnClassVariable <http://www.cdisc.org/SDTM_MODEL_ALL/V2#CL_--DY> ;
.
<http://www.cdisc.org/MH/V2#MHENTPT>
	rdf:type bd:SdtmDomainVariable ;
	isoC:label "End Reference Time Point"^^xsd:string ;
	bd:rule ""^^xsd:string ;
	bd:ordinal "24"^^xsd:positiveInteger ;
	bd:name "MHENTPT"^^xsd:string ;
	bd:description "Description or date/time in ISO 8601 character format of the reference point referred to by MHENRTPT. Examples: \"2003-12-25\" or \"VISIT 2\"."^^xsd:string ;
	bd:format ""^^xsd:string ;
	bd:ctAndFormat ""^^xsd:string ;
	bd:compliance <http://www.assero.co.uk/CSN#f7d9d4e1-a00a-487e-89db-ebece910ba0d> ;
	bd:basedOnClassVariable <http://www.cdisc.org/SDTM_MODEL_ALL/V2#CL_--ENTPT> ;
.
<http://www.cdisc.org/DV/V2>
	rdf:type bd:SdtmDomain ;
	isoC:label "Protocol Deviations"^^xsd:string ;
	isoT:hasState <http://www.cdisc.org/DV/V2#RS> ;
	isoT:hasIdentifier <http://www.cdisc.org/DV/V2#SI> ;
	isoT:hasPreviousVersion <http://www.cdisc.org/DV/V1> ;
	isoT:origin ""^^xsd:string ;
	isoT:changeDescription ""^^xsd:string ;
	isoT:creationDate "2012-07-16T00:00:00+00:00"^^xsd:dateTime ;
	isoT:lastChangeDate "2012-07-16T00:00:00+00:00"^^xsd:dateTime ;
	isoT:explanatoryComment ""^^xsd:string ;
	bd:rule ""^^xsd:string ;
	bd:ordinal "1"^^xsd:positiveInteger ;
	bd:includesColumn <http://www.cdisc.org/DV/V1#STUDYID> ;
	bd:includesColumn <http://www.cdisc.org/DV/V2#DOMAIN> ;
	bd:includesColumn <http://www.cdisc.org/DV/V1#USUBJID> ;
	bd:includesColumn <http://www.cdisc.org/DV/V1#DVSEQ> ;
	bd:includesColumn <http://www.cdisc.org/DV/V1#DVREFID> ;
	bd:includesColumn <http://www.cdisc.org/DV/V1#DVSPID> ;
	bd:includesColumn <http://www.cdisc.org/DV/V1#DVTERM> ;
	bd:includesColumn <http://www.cdisc.org/DV/V1#DVDECOD> ;
	bd:includesColumn <http://www.cdisc.org/DV/V1#DVCAT> ;
	bd:includesColumn <http://www.cdisc.org/DV/V1#DVSCAT> ;
	bd:includesColumn <http://www.cdisc.org/DV/V2#EPOCH> ;
	bd:includesColumn <http://www.cdisc.org/DV/V1#DVSTDTC> ;
	bd:includesColumn <http://www.cdisc.org/DV/V1#DVENDTC> ;
	bd:prefix "DV"^^xsd:string ;
	bd:structure "One record per protocol deviation per subject"^^xsd:string ;
	bd:basedOnClass <http://www.cdisc.org/SDTM_MODEL_EVENTS/V2#CL> ;
.
<http://www.cdisc.org/DV/V2#RS>
	rdf:type isoR:RegistrationState ;
	isoR:registrationStatus "Standard"^^xsd:string ;
	isoR:administrativeNote ""^^xsd:string ;
	isoR:effectiveDate "2016-01-01T00:00:00+00:00"^^xsd:dateTime ;
	isoR:untilDate "2016-01-01T00:00:00+00:00"^^xsd:dateTime ;
	isoR:unresolvedIssue ""^^xsd:string ;
	isoR:administrativeStatus ""^^xsd:string ;
	isoR:previousState "Standard"^^xsd:string ;
	isoR:multipleEdit "false"^^xsd:boolean ;
	isoR:byAuthority <http://www.assero.co.uk/RA#DUNS084433759> ;
.
<http://www.cdisc.org/DV/V2#SI>
	rdf:type isoI:ScopedIdentifier ;
	isoI:identifier "DV"^^xsd:string ;
	isoI:versionLabel "2012-07-16 Release"^^xsd:string ;
	isoI:version "2"^^xsd:positiveInteger ;
	isoI:semanticVersion "2.0.0"^^xsd:string ;
	isoI:hasScope <http://www.assero.co.uk/NS#CDISC> ;
.
<http://www.cdisc.org/DV/V2#DOMAIN>
	rdf:type bd:SdtmDomainVariable ;
	isoC:label "Domain Abbreviation"^^xsd:string ;
	bd:rule ""^^xsd:string ;
	bd:ordinal "2"^^xsd:positiveInteger ;
	bd:name "DOMAIN"^^xsd:string ;
	bd:description "Two-character abbreviation for the domain."^^xsd:string ;
	bd:format ""^^xsd:string ;
	bd:ctAndFormat "(DOMAIN)"^^xsd:string ;
	bd:compliance <http://www.assero.co.uk/CSN#52070084-cdd3-4ba8-8377-f670e4b0276c> ;
	bd:ctReference <http://www.cdisc.org/DV/V2#DOMAIN_TMC1> ;
	bd:basedOnClassVariable <http://www.cdisc.org/SDTM_MODEL_ALL/V2#CL_DOMAIN> ;
.
<http://www.cdisc.org/DV/V2#DOMAIN_TMC1>
	rdf:type bo:TMcReference ;
	isoC:label "DOMAIN"^^xsd:string ;
	bo:enabled "true"^^xsd:boolean ;
	bo:optional "false"^^xsd:boolean ;
	bo:ordinal "1"^^xsd:positiveInteger ;
	bo:reference <http://www.cdisc.org/C66734/V28#C66734> ;
	bo:context <http://www.cdisc.org/CT/V31#TH> ;
.
<http://www.cdisc.org/DV/V2#EPOCH>
	rdf:type bd:SdtmDomainVariable ;
	isoC:label "Epoch"^^xsd:string ;
	bd:rule ""^^xsd:string ;
	bd:ordinal "11"^^xsd:positiveInteger ;
	bd:name "EPOCH"^^xsd:string ;
	bd:description "Epoch associated with the start date/time of the deviation. Examples: TREATMENT PHASE, SCREENING, and FOLLOW-UP."^^xsd:string ;
	bd:format ""^^xsd:string ;
	bd:ctAndFormat ""^^xsd:string ;
	bd:compliance <http://www.assero.co.uk/CSN#f7d9d4e1-a00a-487e-89db-ebece910ba0d> ;
	bd:basedOnClassVariable <http://www.cdisc.org/SDTM_MODEL_ALL/V2#CL_EPOCH> ;
.
<http://www.cdisc.org/CE/V2>
	rdf:type bd:SdtmDomain ;
	isoC:label "Clinical Events"^^xsd:string ;
	isoT:hasState <http://www.cdisc.org/CE/V2#RS> ;
	isoT:hasIdentifier <http://www.cdisc.org/CE/V2#SI> ;
	isoT:hasPreviousVersion <http://www.cdisc.org/CE/V1> ;
	isoT:origin ""^^xsd:string ;
	isoT:changeDescription ""^^xsd:string ;
	isoT:creationDate "2012-07-16T00:00:00+00:00"^^xsd:dateTime ;
	isoT:lastChangeDate "2012-07-16T00:00:00+00:00"^^xsd:dateTime ;
	isoT:explanatoryComment ""^^xsd:string ;
	bd:rule ""^^xsd:string ;
	bd:ordinal "1"^^xsd:positiveInteger ;
	bd:includesColumn <http://www.cdisc.org/CE/V1#STUDYID> ;
	bd:includesColumn <http://www.cdisc.org/CE/V2#DOMAIN> ;
	bd:includesColumn <http://www.cdisc.org/CE/V1#USUBJID> ;
	bd:includesColumn <http://www.cdisc.org/CE/V1#CESEQ> ;
	bd:includesColumn <http://www.cdisc.org/CE/V1#CEGRPID> ;
	bd:includesColumn <http://www.cdisc.org/CE/V1#CEREFID> ;
	bd:includesColumn <http://www.cdisc.org/CE/V1#CESPID> ;
	bd:includesColumn <http://www.cdisc.org/CE/V1#CETERM> ;
	bd:includesColumn <http://www.cdisc.org/CE/V1#CEDECOD> ;
	bd:includesColumn <http://www.cdisc.org/CE/V1#CECAT> ;
	bd:includesColumn <http://www.cdisc.org/CE/V1#CESCAT> ;
	bd:includesColumn <http://www.cdisc.org/CE/V1#CEPRESP> ;
	bd:includesColumn <http://www.cdisc.org/CE/V1#CEOCCUR> ;
	bd:includesColumn <http://www.cdisc.org/CE/V1#CESTAT> ;
	bd:includesColumn <http://www.cdisc.org/CE/V1#CEREASND> ;
	bd:includesColumn <http://www.cdisc.org/CE/V1#CEBODSYS> ;
	bd:includesColumn <http://www.cdisc.org/CE/V1#CESEV> ;
	bd:includesColumn <http://www.cdisc.org/CE/V1#CEDTC> ;
	bd:includesColumn <http://www.cdisc.org/CE/V1#CESTDTC> ;
	bd:includesColumn <http://www.cdisc.org/CE/V1#CEENDTC> ;
	bd:includesColumn <http://www.cdisc.org/CE/V2#CEDY> ;
	bd:includesColumn <http://www.cdisc.org/CE/V1#CESTRF> ;
	bd:includesColumn <http://www.cdisc.org/CE/V1#CEENRF> ;
	bd:includesColumn <http://www.cdisc.org/CE/V1#CESTRTPT> ;
	bd:includesColumn <http://www.cdisc.org/CE/V2#CESTTPT> ;
	bd:includesColumn <http://www.cdisc.org/CE/V1#CEENRTPT> ;
	bd:includesColumn <http://www.cdisc.org/CE/V2#CEENTPT> ;
	bd:prefix "CE"^^xsd:string ;
	bd:structure "One record per event per subject"^^xsd:string ;
	bd:basedOnClass <http://www.cdisc.org/SDTM_MODEL_EVENTS/V2#CL> ;
.
<http://www.cdisc.org/CE/V2#RS>
	rdf:type isoR:RegistrationState ;
	isoR:registrationStatus "Standard"^^xsd:string ;
	isoR:administrativeNote ""^^xsd:string ;
	isoR:effectiveDate "2016-01-01T00:00:00+00:00"^^xsd:dateTime ;
	isoR:untilDate "2016-01-01T00:00:00+00:00"^^xsd:dateTime ;
	isoR:unresolvedIssue ""^^xsd:string ;
	isoR:administrativeStatus ""^^xsd:string ;
	isoR:previousState "Standard"^^xsd:string ;
	isoR:multipleEdit "false"^^xsd:boolean ;
	isoR:byAuthority <http://www.assero.co.uk/RA#DUNS084433759> ;
.
<http://www.cdisc.org/CE/V2#SI>
	rdf:type isoI:ScopedIdentifier ;
	isoI:identifier "CE"^^xsd:string ;
	isoI:versionLabel "2012-07-16 Release"^^xsd:string ;
	isoI:version "2"^^xsd:positiveInteger ;
	isoI:semanticVersion "2.0.0"^^xsd:string ;
	isoI:hasScope <http://www.assero.co.uk/NS#CDISC> ;
.
<http://www.cdisc.org/CE/V2#DOMAIN>
	rdf:type bd:SdtmDomainVariable ;
	isoC:label "Domain Abbreviation"^^xsd:string ;
	bd:rule ""^^xsd:string ;
	bd:ordinal "2"^^xsd:positiveInteger ;
	bd:name "DOMAIN"^^xsd:string ;
	bd:description "Two-character abbreviation for the domain."^^xsd:string ;
	bd:format ""^^xsd:string ;
	bd:ctAndFormat "(DOMAIN)"^^xsd:string ;
	bd:compliance <http://www.assero.co.uk/CSN#52070084-cdd3-4ba8-8377-f670e4b0276c> ;
	bd:ctReference <http://www.cdisc.org/CE/V2#DOMAIN_TMC1> ;
	bd:basedOnClassVariable <http://www.cdisc.org/SDTM_MODEL_ALL/V2#CL_DOMAIN> ;
.
<http://www.cdisc.org/CE/V2#DOMAIN_TMC1>
	rdf:type bo:TMcReference ;
	isoC:label "DOMAIN"^^xsd:string ;
	bo:enabled "true"^^xsd:boolean ;
	bo:optional "false"^^xsd:boolean ;
	bo:ordinal "1"^^xsd:positiveInteger ;
	bo:reference <http://www.cdisc.org/C66734/V28#C66734> ;
	bo:context <http://www.cdisc.org/CT/V31#TH> ;
.
<http://www.cdisc.org/CE/V2#CEDY>
	rdf:type bd:SdtmDomainVariable ;
	isoC:label "Study Day of Event Collection"^^xsd:string ;
	bd:rule ""^^xsd:string ;
	bd:ordinal "21"^^xsd:positiveInteger ;
	bd:name "CEDY"^^xsd:string ;
	bd:description "1. Study day of clinical event collection, measured as integer days.\n2. Algorithm for calculations must be relative to the sponsor-defined RFSTDTC variable in Demographics. This formula should be consistent across the submission."^^xsd:string ;
	bd:format ""^^xsd:string ;
	bd:ctAndFormat ""^^xsd:string ;
	bd:compliance <http://www.assero.co.uk/CSN#f7d9d4e1-a00a-487e-89db-ebece910ba0d> ;
	bd:basedOnClassVariable <http://www.cdisc.org/SDTM_MODEL_ALL/V2#CL_--DY> ;
.
<http://www.cdisc.org/CE/V2#CESTTPT>
	rdf:type bd:SdtmDomainVariable ;
	isoC:label "Start Reference Time Point"^^xsd:string ;
	bd:rule ""^^xsd:string ;
	bd:ordinal "25"^^xsd:positiveInteger ;
	bd:name "CESTTPT"^^xsd:string ;
	bd:description "Description or date/time in ISO 8601 character format of the sponsor-defined reference point referred to by --STRTPT. Examples: \"2003-12-15\" or \"VISIT 1\"."^^xsd:string ;
	bd:format ""^^xsd:string ;
	bd:ctAndFormat ""^^xsd:string ;
	bd:compliance <http://www.assero.co.uk/CSN#f7d9d4e1-a00a-487e-89db-ebece910ba0d> ;
	bd:basedOnClassVariable <http://www.cdisc.org/SDTM_MODEL_ALL/V2#CL_--STTPT> ;
.
<http://www.cdisc.org/CE/V2#CEENTPT>
	rdf:type bd:SdtmDomainVariable ;
	isoC:label "End Reference Time Point"^^xsd:string ;
	bd:rule ""^^xsd:string ;
	bd:ordinal "27"^^xsd:positiveInteger ;
	bd:name "CEENTPT"^^xsd:string ;
	bd:description "Description or date/time in ISO 8601 character format of the reference point referred to by CEENRTPT. Examples: \"2003-12-25\" or \"VISIT 2\"."^^xsd:string ;
	bd:format ""^^xsd:string ;
	bd:ctAndFormat ""^^xsd:string ;
	bd:compliance <http://www.assero.co.uk/CSN#f7d9d4e1-a00a-487e-89db-ebece910ba0d> ;
	bd:basedOnClassVariable <http://www.cdisc.org/SDTM_MODEL_ALL/V2#CL_--ENTPT> ;
.
<http://www.cdisc.org/EG/V2>
	rdf:type bd:SdtmDomain ;
	isoC:label "ECG Test Results"^^xsd:string ;
	isoT:hasState <http://www.cdisc.org/EG/V2#RS> ;
	isoT:hasIdentifier <http://www.cdisc.org/EG/V2#SI> ;
	isoT:hasPreviousVersion <http://www.cdisc.org/EG/V1> ;
	isoT:origin ""^^xsd:string ;
	isoT:changeDescription ""^^xsd:string ;
	isoT:creationDate "2012-07-16T00:00:00+00:00"^^xsd:dateTime ;
	isoT:lastChangeDate "2012-07-16T00:00:00+00:00"^^xsd:dateTime ;
	isoT:explanatoryComment ""^^xsd:string ;
	bd:rule ""^^xsd:string ;
	bd:ordinal "1"^^xsd:positiveInteger ;
	bd:includesColumn <http://www.cdisc.org/EG/V1#STUDYID> ;
	bd:includesColumn <http://www.cdisc.org/EG/V2#DOMAIN> ;
	bd:includesColumn <http://www.cdisc.org/EG/V1#USUBJID> ;
	bd:includesColumn <http://www.cdisc.org/EG/V1#EGSEQ> ;
	bd:includesColumn <http://www.cdisc.org/EG/V1#EGGRPID> ;
	bd:includesColumn <http://www.cdisc.org/EG/V1#EGREFID> ;
	bd:includesColumn <http://www.cdisc.org/EG/V1#EGSPID> ;
	bd:includesColumn <http://www.cdisc.org/EG/V2#EGTESTCD> ;
	bd:includesColumn <http://www.cdisc.org/EG/V1#EGTEST> ;
	bd:includesColumn <http://www.cdisc.org/EG/V1#EGCAT> ;
	bd:includesColumn <http://www.cdisc.org/EG/V1#EGSCAT> ;
	bd:includesColumn <http://www.cdisc.org/EG/V1#EGPOS> ;
	bd:includesColumn <http://www.cdisc.org/EG/V2#EGORRES> ;
	bd:includesColumn <http://www.cdisc.org/EG/V1#EGORRESU> ;
	bd:includesColumn <http://www.cdisc.org/EG/V2#EGSTRESC> ;
	bd:includesColumn <http://www.cdisc.org/EG/V1#EGSTRESN> ;
	bd:includesColumn <http://www.cdisc.org/EG/V1#EGSTRESU> ;
	bd:includesColumn <http://www.cdisc.org/EG/V1#EGSTAT> ;
	bd:includesColumn <http://www.cdisc.org/EG/V1#EGREASND> ;
	bd:includesColumn <http://www.cdisc.org/EG/V2#EGXFN> ;
	bd:includesColumn <http://www.cdisc.org/EG/V1#EGNAM> ;
	bd:includesColumn <http://www.cdisc.org/EG/V1#EGLOC> ;
	bd:includesColumn <http://www.cdisc.org/EG/V1#EGMETHOD> ;
	bd:includesColumn <http://www.cdisc.org/EG/V2#EGBLFL> ;
	bd:includesColumn <http://www.cdisc.org/EG/V1#EGDRVFL> ;
	bd:includesColumn <http://www.cdisc.org/EG/V1#EGEVAL> ;
	bd:includesColumn <http://www.cdisc.org/EG/V2#VISITNUM> ;
	bd:includesColumn <http://www.cdisc.org/EG/V1#VISIT> ;
	bd:includesColumn <http://www.cdisc.org/EG/V1#VISITDY> ;
	bd:includesColumn <http://www.cdisc.org/EG/V1#EGDTC> ;
	bd:includesColumn <http://www.cdisc.org/EG/V1#EGDY> ;
	bd:includesColumn <http://www.cdisc.org/EG/V1#EGTPT> ;
	bd:includesColumn <http://www.cdisc.org/EG/V1#EGTPTNUM> ;
	bd:includesColumn <http://www.cdisc.org/EG/V2#EGELTM> ;
	bd:includesColumn <http://www.cdisc.org/EG/V1#EGTPTREF> ;
	bd:includesColumn <http://www.cdisc.org/EG/V1#EGRFTDTC> ;
	bd:prefix "EG"^^xsd:string ;
	bd:structure "One record per ECG observation per replicate per time point or one record per ECG observation per beat per visit per subject"^^xsd:string ;
	bd:basedOnClass <http://www.cdisc.org/SDTM_MODEL_FINDINGS/V2#CL> ;
.
<http://www.cdisc.org/EG/V2#RS>
	rdf:type isoR:RegistrationState ;
	isoR:registrationStatus "Standard"^^xsd:string ;
	isoR:administrativeNote ""^^xsd:string ;
	isoR:effectiveDate "2016-01-01T00:00:00+00:00"^^xsd:dateTime ;
	isoR:untilDate "2016-01-01T00:00:00+00:00"^^xsd:dateTime ;
	isoR:unresolvedIssue ""^^xsd:string ;
	isoR:administrativeStatus ""^^xsd:string ;
	isoR:previousState "Standard"^^xsd:string ;
	isoR:multipleEdit "false"^^xsd:boolean ;
	isoR:byAuthority <http://www.assero.co.uk/RA#DUNS084433759> ;
.
<http://www.cdisc.org/EG/V2#SI>
	rdf:type isoI:ScopedIdentifier ;
	isoI:identifier "EG"^^xsd:string ;
	isoI:versionLabel "2012-07-16 Release"^^xsd:string ;
	isoI:version "2"^^xsd:positiveInteger ;
	isoI:semanticVersion "2.0.0"^^xsd:string ;
	isoI:hasScope <http://www.assero.co.uk/NS#CDISC> ;
.
<http://www.cdisc.org/EG/V2#DOMAIN>
	rdf:type bd:SdtmDomainVariable ;
	isoC:label "Domain Abbreviation"^^xsd:string ;
	bd:rule ""^^xsd:string ;
	bd:ordinal "2"^^xsd:positiveInteger ;
	bd:name "DOMAIN"^^xsd:string ;
	bd:description "Two-character abbreviation for the domain."^^xsd:string ;
	bd:format ""^^xsd:string ;
	bd:ctAndFormat "(DOMAIN)"^^xsd:string ;
	bd:compliance <http://www.assero.co.uk/CSN#52070084-cdd3-4ba8-8377-f670e4b0276c> ;
	bd:ctReference <http://www.cdisc.org/EG/V2#DOMAIN_TMC1> ;
	bd:basedOnClassVariable <http://www.cdisc.org/SDTM_MODEL_ALL/V2#CL_DOMAIN> ;
.
<http://www.cdisc.org/EG/V2#DOMAIN_TMC1>
	rdf:type bo:TMcReference ;
	isoC:label "DOMAIN"^^xsd:string ;
	bo:enabled "true"^^xsd:boolean ;
	bo:optional "false"^^xsd:boolean ;
	bo:ordinal "1"^^xsd:positiveInteger ;
	bo:reference <http://www.cdisc.org/C66734/V28#C66734> ;
	bo:context <http://www.cdisc.org/CT/V31#TH> ;
.
<http://www.cdisc.org/EG/V2#EGTESTCD>
	rdf:type bd:SdtmDomainVariable ;
	isoC:label "ECG Test or Examination Short Name"^^xsd:string ;
	bd:rule ""^^xsd:string ;
	bd:ordinal "8"^^xsd:positiveInteger ;
	bd:name "EGTESTCD"^^xsd:string ;
	bd:description "Short name of the measurement, test, or examination described in EGTEST. It can be used as a column name when converting a dataset from a vertical to a horizontal format. The value in EGTESTCD cannot be longer than 8 characters, nor can it start with a number (e.g., \"1TEST\"). EGTESTCD cannot contain characters other than letters, numbers, or underscores. Examples :PRMEAN, QTMEAN"^^xsd:string ;
	bd:format ""^^xsd:string ;
	bd:ctAndFormat "(EGTESTCD)"^^xsd:string ;
	bd:compliance <http://www.assero.co.uk/CSN#52070084-cdd3-4ba8-8377-f670e4b0276c> ;
	bd:ctReference <http://www.cdisc.org/EG/V2#EGTESTCD_TMC1> ;
	bd:basedOnClassVariable <http://www.cdisc.org/SDTM_MODEL_FINDINGS/V1#CL_--TESTCD> ;
	bd:isA <http://www.s-cubed.dk/CAR#18a302ee283ea042f30ca2cb852a2846f97c9413> ;
.
<http://www.cdisc.org/EG/V2#EGTESTCD_TMC1>
	rdf:type bo:TMcReference ;
	isoC:label "EGTESTCD"^^xsd:string ;
	bo:enabled "true"^^xsd:boolean ;
	bo:optional "false"^^xsd:boolean ;
	bo:ordinal "1"^^xsd:positiveInteger ;
	bo:reference <http://www.cdisc.org/C71153/V31#C71153> ;
	bo:context <http://www.cdisc.org/CT/V31#TH> ;
.
<http://www.cdisc.org/EG/V2#EGORRES>
	rdf:type bd:SdtmDomainVariable ;
	isoC:label "Result or Finding in Original Units"^^xsd:string ;
	bd:rule ""^^xsd:string ;
	bd:ordinal "13"^^xsd:positiveInteger ;
	bd:name "EGORRES"^^xsd:string ;
	bd:description "Result of the ECG measurement or finding as originally received or collected. Examples of expected values are 62 or 0.151 when the result is an interval or measurement, or \"ATRIAL FIBRILLATION\" or \"QT PROLONGATION\" when the result is a finding."^^xsd:string ;
	bd:format ""^^xsd:string ;
	bd:ctAndFormat ""^^xsd:string ;
	bd:compliance <http://www.assero.co.uk/CSN#046f6c24-9eaf-4f60-8390-f36328c82ec4> ;
	bd:basedOnClassVariable <http://www.cdisc.org/SDTM_MODEL_FINDINGS/V1#CL_--ORRES> ;
	bd:isA <http://www.s-cubed.dk/CAR#af5f0ce4847da645162514a984a7b88b67016e80> ;
.
<http://www.cdisc.org/EG/V2#EGSTRESC>
	rdf:type bd:SdtmDomainVariable ;
	isoC:label "Character Result/Finding in Std Format"^^xsd:string ;
	bd:rule ""^^xsd:string ;
	bd:ordinal "15"^^xsd:positiveInteger ;
	bd:name "EGSTRESC"^^xsd:string ;
	bd:description "Contains the result value for all findings, copied or derived from EGORRES in a standard format or standard units. EGSTRESC should store all results or findings in character format; if results are numeric, they should also be stored in numeric format in EGSTRESN. For example, if a test has results of \"NONE\", \"NEG\", and \"NEGATIVE\" in EGORRES and these results effectively have the same meaning, they could be represented in standard format in EGSTRESC as \"NEGATIVE\". For other examples, see general assumptions. Additional examples of result data: SINUS BRADYCARDIA, ATRIAL FLUTTER, ATRIAL FIBRILLATION."^^xsd:string ;
	bd:format ""^^xsd:string ;
	bd:ctAndFormat "(EGSTRESC)"^^xsd:string ;
	bd:compliance <http://www.assero.co.uk/CSN#046f6c24-9eaf-4f60-8390-f36328c82ec4> ;
	bd:ctReference <http://www.cdisc.org/EG/V2#EGSTRESC_TMC1> ;
	bd:basedOnClassVariable <http://www.cdisc.org/SDTM_MODEL_FINDINGS/V2#CL_--STRESC> ;
.
<http://www.cdisc.org/EG/V2#EGSTRESC_TMC1>
	rdf:type bo:TMcReference ;
	isoC:label "EGSTRESC"^^xsd:string ;
	bo:enabled "true"^^xsd:boolean ;
	bo:optional "false"^^xsd:boolean ;
	bo:ordinal "1"^^xsd:positiveInteger ;
	bo:reference <http://www.cdisc.org/C71150/V31#C71150> ;
	bo:context <http://www.cdisc.org/CT/V31#TH> ;
.
<http://www.cdisc.org/EG/V2#EGXFN>
	rdf:type bd:SdtmDomainVariable ;
	isoC:label "ECG External File Path"^^xsd:string ;
	bd:rule ""^^xsd:string ;
	bd:ordinal "20"^^xsd:positiveInteger ;
	bd:name "EGXFN"^^xsd:string ;
	bd:description "File name and path for the external ECG Waveform file."^^xsd:string ;
	bd:format ""^^xsd:string ;
	bd:ctAndFormat ""^^xsd:string ;
	bd:compliance <http://www.assero.co.uk/CSN#f7d9d4e1-a00a-487e-89db-ebece910ba0d> ;
	bd:basedOnClassVariable <http://www.cdisc.org/SDTM_MODEL_FINDINGS/V1#CL_--XFN> ;
.
<http://www.cdisc.org/EG/V2#EGBLFL>
	rdf:type bd:SdtmDomainVariable ;
	isoC:label "Baseline Flag"^^xsd:string ;
	bd:rule ""^^xsd:string ;
	bd:ordinal "24"^^xsd:positiveInteger ;
	bd:name "EGBLFL"^^xsd:string ;
	bd:description "Indicator used to identify a baseline value. The value should be \"Y\" or null."^^xsd:string ;
	bd:format ""^^xsd:string ;
	bd:ctAndFormat "(NY)"^^xsd:string ;
	bd:compliance <http://www.assero.co.uk/CSN#046f6c24-9eaf-4f60-8390-f36328c82ec4> ;
	bd:ctReference <http://www.cdisc.org/EG/V2#EGBLFL_TMC1> ;
	bd:basedOnClassVariable <http://www.cdisc.org/SDTM_MODEL_FINDINGS/V2#CL_--BLFL> ;
.
<http://www.cdisc.org/EG/V2#EGBLFL_TMC1>
	rdf:type bo:TMcReference ;
	isoC:label "NY"^^xsd:string ;
	bo:enabled "true"^^xsd:boolean ;
	bo:optional "false"^^xsd:boolean ;
	bo:ordinal "1"^^xsd:positiveInteger ;
	bo:reference <http://www.cdisc.org/C66742/V4#C66742> ;
	bo:context <http://www.cdisc.org/CT/V31#TH> ;
.
<http://www.cdisc.org/EG/V2#VISITNUM>
	rdf:type bd:SdtmDomainVariable ;
	isoC:label "Visit Number"^^xsd:string ;
	bd:rule ""^^xsd:string ;
	bd:ordinal "27"^^xsd:positiveInteger ;
	bd:name "VISITNUM"^^xsd:string ;
	bd:description "1. Clinical encounter number. 2. Numeric version of VISIT, used for sorting."^^xsd:string ;
	bd:format ""^^xsd:string ;
	bd:ctAndFormat ""^^xsd:string ;
	bd:compliance <http://www.assero.co.uk/CSN#046f6c24-9eaf-4f60-8390-f36328c82ec4> ;
	bd:basedOnClassVariable <http://www.cdisc.org/SDTM_MODEL_ALL/V2#CL_VISITNUM> ;
.
<http://www.cdisc.org/EG/V2#EGELTM>
	rdf:type bd:SdtmDomainVariable ;
	isoC:label "Planned Elapsed Time from Time Point Ref"^^xsd:string ;
	bd:rule ""^^xsd:string ;
	bd:ordinal "34"^^xsd:positiveInteger ;
	bd:name "EGELTM"^^xsd:string ;
	bd:description "Planned elapsed time (in ISO 8601) relative to a fixed time point reference (EGTPTREF). Not a clock time or a date time variable. Represented as an ISO 8601 duration. Examples: \"-PT15M\" to represent the period of 15 minutes prior to the reference point indicated by EGTPTREF, or \"PT8H\" to represent the period of 8 hours after the reference point indicated by EGTPTREF."^^xsd:string ;
	bd:format "ISO 8601"^^xsd:string ;
	bd:ctAndFormat "ISO 8601"^^xsd:string ;
	bd:compliance <http://www.assero.co.uk/CSN#f7d9d4e1-a00a-487e-89db-ebece910ba0d> ;
	bd:basedOnClassVariable <http://www.cdisc.org/SDTM_MODEL_ALL/V2#CL_--ELTM> ;
.
<http://www.cdisc.org/IE/V2>
	rdf:type bd:SdtmDomain ;
	isoC:label "Inclusion/Exclusion Criteria Not Met"^^xsd:string ;
	isoT:hasState <http://www.cdisc.org/IE/V2#RS> ;
	isoT:hasIdentifier <http://www.cdisc.org/IE/V2#SI> ;
	isoT:hasPreviousVersion <http://www.cdisc.org/IE/V1> ;
	isoT:origin ""^^xsd:string ;
	isoT:changeDescription ""^^xsd:string ;
	isoT:creationDate "2012-07-16T00:00:00+00:00"^^xsd:dateTime ;
	isoT:lastChangeDate "2012-07-16T00:00:00+00:00"^^xsd:dateTime ;
	isoT:explanatoryComment ""^^xsd:string ;
	bd:rule ""^^xsd:string ;
	bd:ordinal "1"^^xsd:positiveInteger ;
	bd:includesColumn <http://www.cdisc.org/IE/V1#STUDYID> ;
	bd:includesColumn <http://www.cdisc.org/IE/V2#DOMAIN> ;
	bd:includesColumn <http://www.cdisc.org/IE/V1#USUBJID> ;
	bd:includesColumn <http://www.cdisc.org/IE/V1#IESEQ> ;
	bd:includesColumn <http://www.cdisc.org/IE/V1#IESPID> ;
	bd:includesColumn <http://www.cdisc.org/IE/V2#IETESTCD> ;
	bd:includesColumn <http://www.cdisc.org/IE/V1#IETEST> ;
	bd:includesColumn <http://www.cdisc.org/IE/V2#IECAT> ;
	bd:includesColumn <http://www.cdisc.org/IE/V1#IESCAT> ;
	bd:includesColumn <http://www.cdisc.org/IE/V1#IEORRES> ;
	bd:includesColumn <http://www.cdisc.org/IE/V1#IESTRESC> ;
	bd:includesColumn <http://www.cdisc.org/IE/V2#VISITNUM> ;
	bd:includesColumn <http://www.cdisc.org/IE/V2#VISIT> ;
	bd:includesColumn <http://www.cdisc.org/IE/V1#VISITDY> ;
	bd:includesColumn <http://www.cdisc.org/IE/V1#IEDTC> ;
	bd:includesColumn <http://www.cdisc.org/IE/V2#IEDY> ;
	bd:prefix "IE"^^xsd:string ;
	bd:structure "One record per inclusion/exclusion criterion not met per subject"^^xsd:string ;
	bd:basedOnClass <http://www.cdisc.org/SDTM_MODEL_FINDINGS/V2#CL> ;
.
<http://www.cdisc.org/IE/V2#RS>
	rdf:type isoR:RegistrationState ;
	isoR:registrationStatus "Standard"^^xsd:string ;
	isoR:administrativeNote ""^^xsd:string ;
	isoR:effectiveDate "2016-01-01T00:00:00+00:00"^^xsd:dateTime ;
	isoR:untilDate "2016-01-01T00:00:00+00:00"^^xsd:dateTime ;
	isoR:unresolvedIssue ""^^xsd:string ;
	isoR:administrativeStatus ""^^xsd:string ;
	isoR:previousState "Standard"^^xsd:string ;
	isoR:multipleEdit "false"^^xsd:boolean ;
	isoR:byAuthority <http://www.assero.co.uk/RA#DUNS084433759> ;
.
<http://www.cdisc.org/IE/V2#SI>
	rdf:type isoI:ScopedIdentifier ;
	isoI:identifier "IE"^^xsd:string ;
	isoI:versionLabel "2012-07-16 Release"^^xsd:string ;
	isoI:version "2"^^xsd:positiveInteger ;
	isoI:semanticVersion "2.0.0"^^xsd:string ;
	isoI:hasScope <http://www.assero.co.uk/NS#CDISC> ;
.
<http://www.cdisc.org/IE/V2#DOMAIN>
	rdf:type bd:SdtmDomainVariable ;
	isoC:label "Domain Abbreviation"^^xsd:string ;
	bd:rule ""^^xsd:string ;
	bd:ordinal "2"^^xsd:positiveInteger ;
	bd:name "DOMAIN"^^xsd:string ;
	bd:description "Two-character abbreviation for the domain."^^xsd:string ;
	bd:format ""^^xsd:string ;
	bd:ctAndFormat "(DOMAIN)"^^xsd:string ;
	bd:compliance <http://www.assero.co.uk/CSN#52070084-cdd3-4ba8-8377-f670e4b0276c> ;
	bd:ctReference <http://www.cdisc.org/IE/V2#DOMAIN_TMC1> ;
	bd:basedOnClassVariable <http://www.cdisc.org/SDTM_MODEL_ALL/V2#CL_DOMAIN> ;
.
<http://www.cdisc.org/IE/V2#DOMAIN_TMC1>
	rdf:type bo:TMcReference ;
	isoC:label "DOMAIN"^^xsd:string ;
	bo:enabled "true"^^xsd:boolean ;
	bo:optional "false"^^xsd:boolean ;
	bo:ordinal "1"^^xsd:positiveInteger ;
	bo:reference <http://www.cdisc.org/C66734/V28#C66734> ;
	bo:context <http://www.cdisc.org/CT/V31#TH> ;
.
<http://www.cdisc.org/IE/V2#IETESTCD>
	rdf:type bd:SdtmDomainVariable ;
	isoC:label "Inclusion/Exclusion Criterion Short Name"^^xsd:string ;
	bd:rule ""^^xsd:string ;
	bd:ordinal "6"^^xsd:positiveInteger ;
	bd:name "IETESTCD"^^xsd:string ;
	bd:description "Short name of the criterion described in IETEST. The value in IETESTCD cannot be longer than 8 characters, nor can it start with a number (e.g.\"1TEST\"). IETESTCD cannot contain characters other than letters, numbers, or underscores. Examples: IN01, EX01."^^xsd:string ;
	bd:format ""^^xsd:string ;
	bd:ctAndFormat ""^^xsd:string ;
	bd:compliance <http://www.assero.co.uk/CSN#52070084-cdd3-4ba8-8377-f670e4b0276c> ;
	bd:basedOnClassVariable <http://www.cdisc.org/SDTM_MODEL_FINDINGS/V1#CL_--TESTCD> ;
	bd:isA <http://www.s-cubed.dk/CAR#18a302ee283ea042f30ca2cb852a2846f97c9413> ;
.
<http://www.cdisc.org/IE/V2#IECAT>
	rdf:type bd:SdtmDomainVariable ;
	isoC:label "Inclusion/Exclusion Category"^^xsd:string ;
	bd:rule ""^^xsd:string ;
	bd:ordinal "8"^^xsd:positiveInteger ;
	bd:name "IECAT"^^xsd:string ;
	bd:description "Used to define a category of related records across subjects."^^xsd:string ;
	bd:format ""^^xsd:string ;
	bd:ctAndFormat "(IECAT)"^^xsd:string ;
	bd:compliance <http://www.assero.co.uk/CSN#52070084-cdd3-4ba8-8377-f670e4b0276c> ;
	bd:ctReference <http://www.cdisc.org/IE/V2#IECAT_TMC1> ;
	bd:basedOnClassVariable <http://www.cdisc.org/SDTM_MODEL_FINDINGS/V1#CL_--CAT> ;
	bd:isA <http://www.s-cubed.dk/CAR#a3c686e711e4720f99b4562bb3dbaae7ab658cf2> ;
.
<http://www.cdisc.org/IE/V2#IECAT_TMC1>
	rdf:type bo:TMcReference ;
	isoC:label "IECAT"^^xsd:string ;
	bo:enabled "true"^^xsd:boolean ;
	bo:optional "false"^^xsd:boolean ;
	bo:ordinal "1"^^xsd:positiveInteger ;
	bo:reference <http://www.cdisc.org/C66797/V27#C66797> ;
	bo:context <http://www.cdisc.org/CT/V31#TH> ;
.
<http://www.cdisc.org/IE/V2#VISITNUM>
	rdf:type bd:SdtmDomainVariable ;
	isoC:label "Visit Number"^^xsd:string ;
	bd:rule ""^^xsd:string ;
	bd:ordinal "12"^^xsd:positiveInteger ;
	bd:name "VISITNUM"^^xsd:string ;
	bd:description "1. Clinical encounter number.\n2. Numeric version of VISIT, used for sorting."^^xsd:string ;
	bd:format ""^^xsd:string ;
	bd:ctAndFormat ""^^xsd:string ;
	bd:compliance <http://www.assero.co.uk/CSN#f7d9d4e1-a00a-487e-89db-ebece910ba0d> ;
	bd:basedOnClassVariable <http://www.cdisc.org/SDTM_MODEL_ALL/V2#CL_VISITNUM> ;
.
<http://www.cdisc.org/IE/V2#VISIT>
	rdf:type bd:SdtmDomainVariable ;
	isoC:label "Visit Name"^^xsd:string ;
	bd:rule ""^^xsd:string ;
	bd:ordinal "13"^^xsd:positiveInteger ;
	bd:name "VISIT"^^xsd:string ;
	bd:description "1. Protocol-defined description of clinical encounter.\n2. May be used in addition to VISITNUM and/or VISITDY."^^xsd:string ;
	bd:format ""^^xsd:string ;
	bd:ctAndFormat ""^^xsd:string ;
	bd:compliance <http://www.assero.co.uk/CSN#f7d9d4e1-a00a-487e-89db-ebece910ba0d> ;
	bd:basedOnClassVariable <http://www.cdisc.org/SDTM_MODEL_ALL/V2#CL_VISIT> ;
.
<http://www.cdisc.org/IE/V2#IEDY>
	rdf:type bd:SdtmDomainVariable ;
	isoC:label "Study Day of Collection"^^xsd:string ;
	bd:rule ""^^xsd:string ;
	bd:ordinal "16"^^xsd:positiveInteger ;
	bd:name "IEDY"^^xsd:string ;
	bd:description "1. Study day of collection of the inclusion/exclusion exceptions, measured as integer days.\n2. Algorithm for calculations must be relative to the sponsor-defined RFSTDTC variable in Demographics. This formula should be consistent across the submission."^^xsd:string ;
	bd:format ""^^xsd:string ;
	bd:ctAndFormat ""^^xsd:string ;
	bd:compliance <http://www.assero.co.uk/CSN#f7d9d4e1-a00a-487e-89db-ebece910ba0d> ;
	bd:basedOnClassVariable <http://www.cdisc.org/SDTM_MODEL_ALL/V2#CL_--DY> ;
.
<http://www.cdisc.org/LB/V2>
	rdf:type bd:SdtmDomain ;
	isoC:label "Laboratory Test Results"^^xsd:string ;
	isoT:hasState <http://www.cdisc.org/LB/V2#RS> ;
	isoT:hasIdentifier <http://www.cdisc.org/LB/V2#SI> ;
	isoT:hasPreviousVersion <http://www.cdisc.org/LB/V1> ;
	isoT:origin ""^^xsd:string ;
	isoT:changeDescription ""^^xsd:string ;
	isoT:creationDate "2012-07-16T00:00:00+00:00"^^xsd:dateTime ;
	isoT:lastChangeDate "2012-07-16T00:00:00+00:00"^^xsd:dateTime ;
	isoT:explanatoryComment ""^^xsd:string ;
	bd:rule ""^^xsd:string ;
	bd:ordinal "1"^^xsd:positiveInteger ;
	bd:includesColumn <http://www.cdisc.org/LB/V1#STUDYID> ;
	bd:includesColumn <http://www.cdisc.org/LB/V2#DOMAIN> ;
	bd:includesColumn <http://www.cdisc.org/LB/V1#USUBJID> ;
	bd:includesColumn <http://www.cdisc.org/LB/V1#LBSEQ> ;
	bd:includesColumn <http://www.cdisc.org/LB/V1#LBGRPID> ;
	bd:includesColumn <http://www.cdisc.org/LB/V1#LBREFID> ;
	bd:includesColumn <http://www.cdisc.org/LB/V1#LBSPID> ;
	bd:includesColumn <http://www.cdisc.org/LB/V2#LBTESTCD> ;
	bd:includesColumn <http://www.cdisc.org/LB/V1#LBTEST> ;
	bd:includesColumn <http://www.cdisc.org/LB/V1#LBCAT> ;
	bd:includesColumn <http://www.cdisc.org/LB/V1#LBSCAT> ;
	bd:includesColumn <http://www.cdisc.org/LB/V1#LBORRES> ;
	bd:includesColumn <http://www.cdisc.org/LB/V1#LBORRESU> ;
	bd:includesColumn <http://www.cdisc.org/LB/V1#LBORNRLO> ;
	bd:includesColumn <http://www.cdisc.org/LB/V1#LBORNRHI> ;
	bd:includesColumn <http://www.cdisc.org/LB/V2#LBSTRESC> ;
	bd:includesColumn <http://www.cdisc.org/LB/V1#LBSTRESN> ;
	bd:includesColumn <http://www.cdisc.org/LB/V1#LBSTRESU> ;
	bd:includesColumn <http://www.cdisc.org/LB/V1#LBSTNRLO> ;
	bd:includesColumn <http://www.cdisc.org/LB/V1#LBSTNRHI> ;
	bd:includesColumn <http://www.cdisc.org/LB/V2#LBSTNRC> ;
	bd:includesColumn <http://www.cdisc.org/LB/V2#LBNRIND> ;
	bd:includesColumn <http://www.cdisc.org/LB/V1#LBSTAT> ;
	bd:includesColumn <http://www.cdisc.org/LB/V1#LBREASND> ;
	bd:includesColumn <http://www.cdisc.org/LB/V1#LBNAM> ;
	bd:includesColumn <http://www.cdisc.org/LB/V2#LBLOINC> ;
	bd:includesColumn <http://www.cdisc.org/LB/V1#LBSPEC> ;
	bd:includesColumn <http://www.cdisc.org/LB/V1#LBSPCCND> ;
	bd:includesColumn <http://www.cdisc.org/LB/V1#LBMETHOD> ;
	bd:includesColumn <http://www.cdisc.org/LB/V2#LBBLFL> ;
	bd:includesColumn <http://www.cdisc.org/LB/V1#LBFAST> ;
	bd:includesColumn <http://www.cdisc.org/LB/V1#LBDRVFL> ;
	bd:includesColumn <http://www.cdisc.org/LB/V1#LBTOX> ;
	bd:includesColumn <http://www.cdisc.org/LB/V2#LBTOXGR> ;
	bd:includesColumn <http://www.cdisc.org/LB/V2#VISITNUM> ;
	bd:includesColumn <http://www.cdisc.org/LB/V2#VISIT> ;
	bd:includesColumn <http://www.cdisc.org/LB/V1#VISITDY> ;
	bd:includesColumn <http://www.cdisc.org/LB/V1#LBDTC> ;
	bd:includesColumn <http://www.cdisc.org/LB/V1#LBENDTC> ;
	bd:includesColumn <http://www.cdisc.org/LB/V2#LBDY> ;
	bd:includesColumn <http://www.cdisc.org/LB/V2#LBTPT> ;
	bd:includesColumn <http://www.cdisc.org/LB/V1#LBTPTNUM> ;
	bd:includesColumn <http://www.cdisc.org/LB/V2#LBELTM> ;
	bd:includesColumn <http://www.cdisc.org/LB/V1#LBTPTREF> ;
	bd:includesColumn <http://www.cdisc.org/LB/V1#LBRFTDTC> ;
	bd:prefix "LB"^^xsd:string ;
	bd:structure "One record per lab test per time point per visit per subject"^^xsd:string ;
	bd:basedOnClass <http://www.cdisc.org/SDTM_MODEL_FINDINGS/V2#CL> ;
.
<http://www.cdisc.org/LB/V2#RS>
	rdf:type isoR:RegistrationState ;
	isoR:registrationStatus "Standard"^^xsd:string ;
	isoR:administrativeNote ""^^xsd:string ;
	isoR:effectiveDate "2016-01-01T00:00:00+00:00"^^xsd:dateTime ;
	isoR:untilDate "2016-01-01T00:00:00+00:00"^^xsd:dateTime ;
	isoR:unresolvedIssue ""^^xsd:string ;
	isoR:administrativeStatus ""^^xsd:string ;
	isoR:previousState "Standard"^^xsd:string ;
	isoR:multipleEdit "false"^^xsd:boolean ;
	isoR:byAuthority <http://www.assero.co.uk/RA#DUNS084433759> ;
.
<http://www.cdisc.org/LB/V2#SI>
	rdf:type isoI:ScopedIdentifier ;
	isoI:identifier "LB"^^xsd:string ;
	isoI:versionLabel "2012-07-16 Release"^^xsd:string ;
	isoI:version "2"^^xsd:positiveInteger ;
	isoI:semanticVersion "2.0.0"^^xsd:string ;
	isoI:hasScope <http://www.assero.co.uk/NS#CDISC> ;
.
<http://www.cdisc.org/LB/V2#DOMAIN>
	rdf:type bd:SdtmDomainVariable ;
	isoC:label "Domain Abbreviation"^^xsd:string ;
	bd:rule ""^^xsd:string ;
	bd:ordinal "2"^^xsd:positiveInteger ;
	bd:name "DOMAIN"^^xsd:string ;
	bd:description "Two-character abbreviation for the domain."^^xsd:string ;
	bd:format ""^^xsd:string ;
	bd:ctAndFormat "(DOMAIN)"^^xsd:string ;
	bd:compliance <http://www.assero.co.uk/CSN#52070084-cdd3-4ba8-8377-f670e4b0276c> ;
	bd:ctReference <http://www.cdisc.org/LB/V2#DOMAIN_TMC1> ;
	bd:basedOnClassVariable <http://www.cdisc.org/SDTM_MODEL_ALL/V2#CL_DOMAIN> ;
.
<http://www.cdisc.org/LB/V2#DOMAIN_TMC1>
	rdf:type bo:TMcReference ;
	isoC:label "DOMAIN"^^xsd:string ;
	bo:enabled "true"^^xsd:boolean ;
	bo:optional "false"^^xsd:boolean ;
	bo:ordinal "1"^^xsd:positiveInteger ;
	bo:reference <http://www.cdisc.org/C66734/V28#C66734> ;
	bo:context <http://www.cdisc.org/CT/V31#TH> ;
.
<http://www.cdisc.org/LB/V2#LBTESTCD>
	rdf:type bd:SdtmDomainVariable ;
	isoC:label "Lab Test or Examination Short Name"^^xsd:string ;
	bd:rule ""^^xsd:string ;
	bd:ordinal "8"^^xsd:positiveInteger ;
	bd:name "LBTESTCD"^^xsd:string ;
	bd:description "Short name of the measurement, test, or examination described in LBTEST. It can be used as a column name when converting a dataset from a vertical to a horizontal format. The value in LBTESTCD cannot be longer than 8 characters, nor can it start with a number (e.g.\"1TEST\"). LBTESTCD cannot contain characters other than letters, numbers, or underscores. Examples: ALT, LDH."^^xsd:string ;
	bd:format ""^^xsd:string ;
	bd:ctAndFormat "(LBTESTCD)"^^xsd:string ;
	bd:compliance <http://www.assero.co.uk/CSN#52070084-cdd3-4ba8-8377-f670e4b0276c> ;
	bd:ctReference <http://www.cdisc.org/LB/V2#LBTESTCD_TMC1> ;
	bd:basedOnClassVariable <http://www.cdisc.org/SDTM_MODEL_FINDINGS/V1#CL_--TESTCD> ;
	bd:isA <http://www.s-cubed.dk/CAR#18a302ee283ea042f30ca2cb852a2846f97c9413> ;
.
<http://www.cdisc.org/LB/V2#LBTESTCD_TMC1>
	rdf:type bo:TMcReference ;
	isoC:label "LBTESTCD"^^xsd:string ;
	bo:enabled "true"^^xsd:boolean ;
	bo:optional "false"^^xsd:boolean ;
	bo:ordinal "1"^^xsd:positiveInteger ;
	bo:reference <http://www.cdisc.org/C65047/V31#C65047> ;
	bo:context <http://www.cdisc.org/CT/V31#TH> ;
.
<http://www.cdisc.org/LB/V2#LBSTRESC>
	rdf:type bd:SdtmDomainVariable ;
	isoC:label "Character Result/Finding in Std Format"^^xsd:string ;
	bd:rule ""^^xsd:string ;
	bd:ordinal "16"^^xsd:positiveInteger ;
	bd:name "LBSTRESC"^^xsd:string ;
	bd:description "Contains the result value for all findings, copied or derived from LBORRES in a standard format or standard units. LBSTRESC should store all results or findings in character format; if results are numeric, they should also be stored in numeric format in LBSTRESN. For example, if a test has results \"NONE\", \"NEG\", and \"NEGATIVE\" in LBORRES and these results effectively have the same meaning, they could be represented in standard format in LBSTRESC as \"NEGATIVE\". For other examples, see general assumptions."^^xsd:string ;
	bd:format ""^^xsd:string ;
	bd:ctAndFormat ""^^xsd:string ;
	bd:compliance <http://www.assero.co.uk/CSN#046f6c24-9eaf-4f60-8390-f36328c82ec4> ;
	bd:basedOnClassVariable <http://www.cdisc.org/SDTM_MODEL_FINDINGS/V2#CL_--STRESC> ;
.
<http://www.cdisc.org/LB/V2#LBSTNRC>
	rdf:type bd:SdtmDomainVariable ;
	isoC:label "Reference Range for Char Rslt-Std Units"^^xsd:string ;
	bd:rule ""^^xsd:string ;
	bd:ordinal "21"^^xsd:positiveInteger ;
	bd:name "LBSTNRC"^^xsd:string ;
	bd:description "For normal range values that are character in ordinal scale or if categorical ranges were supplied (e.g., \"-1 to +1\", \"NEGATIVE TO TRACE\")."^^xsd:string ;
	bd:format ""^^xsd:string ;
	bd:ctAndFormat ""^^xsd:string ;
	bd:compliance <http://www.assero.co.uk/CSN#f7d9d4e1-a00a-487e-89db-ebece910ba0d> ;
	bd:basedOnClassVariable <http://www.cdisc.org/SDTM_MODEL_FINDINGS/V1#CL_--STNRC> ;
.
<http://www.cdisc.org/LB/V2#LBNRIND>
	rdf:type bd:SdtmDomainVariable ;
	isoC:label "Reference Range Indicator"^^xsd:string ;
	bd:rule ""^^xsd:string ;
	bd:ordinal "22"^^xsd:positiveInteger ;
	bd:name "LBNRIND"^^xsd:string ;
	bd:description "1. Indicates where the value falls with respect to reference range defined by LBORNRLO and LBORNRHI, LBSTNRLO and LBSTNRHI, or by LBSTNRC. Examples: NORMAL, ABNORMAL, HIGH, LOW.\n2. Sponsors should specify in the study metadata (Comments column in the define.xml) whether LBNRIND refers to the original or standard reference ranges and results.\n3. Should not be used to indicate clinical significance."^^xsd:string ;
	bd:format ""^^xsd:string ;
	bd:ctAndFormat ""^^xsd:string ;
	bd:compliance <http://www.assero.co.uk/CSN#046f6c24-9eaf-4f60-8390-f36328c82ec4> ;
	bd:basedOnClassVariable <http://www.cdisc.org/SDTM_MODEL_FINDINGS/V1#CL_--NRIND> ;
.
<http://www.cdisc.org/LB/V2#LBLOINC>
	rdf:type bd:SdtmDomainVariable ;
	isoC:label "LOINC Code"^^xsd:string ;
	bd:rule ""^^xsd:string ;
	bd:ordinal "26"^^xsd:positiveInteger ;
	bd:name "LBLOINC"^^xsd:string ;
	bd:description "1. Dictionary-derived LOINC Code for LBTEST.\n2. The sponsor is expected to provide the dictionary name and version used to map the terms utilizing the define.xml external codelist attributes"^^xsd:string ;
	bd:format ""^^xsd:string ;
	bd:ctAndFormat ""^^xsd:string ;
	bd:compliance <http://www.assero.co.uk/CSN#f7d9d4e1-a00a-487e-89db-ebece910ba0d> ;
	bd:basedOnClassVariable <http://www.cdisc.org/SDTM_MODEL_FINDINGS/V1#CL_--LOINC> ;
.
<http://www.cdisc.org/LB/V2#LBBLFL>
	rdf:type bd:SdtmDomainVariable ;
	isoC:label "Baseline Flag"^^xsd:string ;
	bd:rule ""^^xsd:string ;
	bd:ordinal "30"^^xsd:positiveInteger ;
	bd:name "LBBLFL"^^xsd:string ;
	bd:description "Indicator used to identify a baseline value. The value should be \"Y\" or null."^^xsd:string ;
	bd:format ""^^xsd:string ;
	bd:ctAndFormat "(NY)"^^xsd:string ;
	bd:compliance <http://www.assero.co.uk/CSN#046f6c24-9eaf-4f60-8390-f36328c82ec4> ;
	bd:ctReference <http://www.cdisc.org/LB/V2#LBBLFL_TMC1> ;
	bd:basedOnClassVariable <http://www.cdisc.org/SDTM_MODEL_FINDINGS/V2#CL_--BLFL> ;
.
<http://www.cdisc.org/LB/V2#LBBLFL_TMC1>
	rdf:type bo:TMcReference ;
	isoC:label "NY"^^xsd:string ;
	bo:enabled "true"^^xsd:boolean ;
	bo:optional "false"^^xsd:boolean ;
	bo:ordinal "1"^^xsd:positiveInteger ;
	bo:reference <http://www.cdisc.org/C66742/V4#C66742> ;
	bo:context <http://www.cdisc.org/CT/V31#TH> ;
.
<http://www.cdisc.org/LB/V2#LBTOXGR>
	rdf:type bd:SdtmDomainVariable ;
	isoC:label "Standard Toxicity Grade"^^xsd:string ;
	bd:rule ""^^xsd:string ;
	bd:ordinal "34"^^xsd:positiveInteger ;
	bd:name "LBTOXGR"^^xsd:string ;
	bd:description "Records toxicity grade value using a standard toxicity scale (such as the NCI CTCAE). If value is from a numeric scale, represent only the number (e.g., \"2\" and not \"Grade 2\"). The sponsor is expected to provide the name of the scale and version used to map the terms, utilizing the define.xml external codelist attributes."^^xsd:string ;
	bd:format ""^^xsd:string ;
	bd:ctAndFormat ""^^xsd:string ;
	bd:compliance <http://www.assero.co.uk/CSN#f7d9d4e1-a00a-487e-89db-ebece910ba0d> ;
	bd:basedOnClassVariable <http://www.cdisc.org/SDTM_MODEL_FINDINGS/V2#CL_--TOXGR> ;
.
<http://www.cdisc.org/LB/V2#VISITNUM>
	rdf:type bd:SdtmDomainVariable ;
	isoC:label "Visit Number"^^xsd:string ;
	bd:rule ""^^xsd:string ;
	bd:ordinal "35"^^xsd:positiveInteger ;
	bd:name "VISITNUM"^^xsd:string ;
	bd:description "1. Clinical encounter number. \n2. Numeric version of VISIT, used for sorting."^^xsd:string ;
	bd:format ""^^xsd:string ;
	bd:ctAndFormat ""^^xsd:string ;
	bd:compliance <http://www.assero.co.uk/CSN#046f6c24-9eaf-4f60-8390-f36328c82ec4> ;
	bd:basedOnClassVariable <http://www.cdisc.org/SDTM_MODEL_ALL/V2#CL_VISITNUM> ;
.
<http://www.cdisc.org/LB/V2#VISIT>
	rdf:type bd:SdtmDomainVariable ;
	isoC:label "Visit Name"^^xsd:string ;
	bd:rule ""^^xsd:string ;
	bd:ordinal "36"^^xsd:positiveInteger ;
	bd:name "VISIT"^^xsd:string ;
	bd:description "1. Protocol-defined description of clinical encounter\n2. May be used in addition to VISITNUM and/or VISITDY"^^xsd:string ;
	bd:format ""^^xsd:string ;
	bd:ctAndFormat ""^^xsd:string ;
	bd:compliance <http://www.assero.co.uk/CSN#f7d9d4e1-a00a-487e-89db-ebece910ba0d> ;
	bd:basedOnClassVariable <http://www.cdisc.org/SDTM_MODEL_ALL/V2#CL_VISIT> ;
.
<http://www.cdisc.org/LB/V2#LBDY>
	rdf:type bd:SdtmDomainVariable ;
	isoC:label "Study Day of Specimen Collection"^^xsd:string ;
	bd:rule ""^^xsd:string ;
	bd:ordinal "40"^^xsd:positiveInteger ;
	bd:name "LBDY"^^xsd:string ;
	bd:description "1. Study day of specimen collection, measured as integer days. \n2. Algorithm for calculations must be relative to the sponsor-defined RFSTDTC variable in Demographics. This formula should be consistent across the submission."^^xsd:string ;
	bd:format ""^^xsd:string ;
	bd:ctAndFormat ""^^xsd:string ;
	bd:compliance <http://www.assero.co.uk/CSN#f7d9d4e1-a00a-487e-89db-ebece910ba0d> ;
	bd:basedOnClassVariable <http://www.cdisc.org/SDTM_MODEL_ALL/V2#CL_--DY> ;
.
<http://www.cdisc.org/LB/V2#LBTPT>
	rdf:type bd:SdtmDomainVariable ;
	isoC:label "Planned Time Point Name"^^xsd:string ;
	bd:rule ""^^xsd:string ;
	bd:ordinal "41"^^xsd:positiveInteger ;
	bd:name "LBTPT"^^xsd:string ;
	bd:description "1. Text Description of time when specimen should be taken.\n2. This may be represented as an elapsed time relative to a fixed reference point, such as time of last dose. See LBTPTNUM and LBTPTREF. Examples: Start, 5 min post."^^xsd:string ;
	bd:format ""^^xsd:string ;
	bd:ctAndFormat ""^^xsd:string ;
	bd:compliance <http://www.assero.co.uk/CSN#f7d9d4e1-a00a-487e-89db-ebece910ba0d> ;
	bd:basedOnClassVariable <http://www.cdisc.org/SDTM_MODEL_ALL/V2#CL_--TPT> ;
.
<http://www.cdisc.org/LB/V2#LBELTM>
	rdf:type bd:SdtmDomainVariable ;
	isoC:label "Planned Elapsed Time from Time Point Ref"^^xsd:string ;
	bd:rule ""^^xsd:string ;
	bd:ordinal "43"^^xsd:positiveInteger ;
	bd:name "LBELTM"^^xsd:string ;
	bd:description "Planned Elapsed time (in ISO 8601) relative to a planned fixed reference (LBTPTREF). This variable is useful where there are repetitive measures. Not a clock time or a date time variable. Represented as an ISO 8601 duration. Examples: \"-PT15M\" to represent the period of 15 minutes prior to the reference point indicated by LBTPTREF, or \"PT8H\" to represent the period of 8 hours after the reference point indicated by LBTPTREF."^^xsd:string ;
	bd:format "ISO 8601"^^xsd:string ;
	bd:ctAndFormat "ISO 8601"^^xsd:string ;
	bd:compliance <http://www.assero.co.uk/CSN#f7d9d4e1-a00a-487e-89db-ebece910ba0d> ;
	bd:basedOnClassVariable <http://www.cdisc.org/SDTM_MODEL_ALL/V2#CL_--ELTM> ;
.
<http://www.cdisc.org/PE/V2>
	rdf:type bd:SdtmDomain ;
	isoC:label "Physical Examination"^^xsd:string ;
	isoT:hasState <http://www.cdisc.org/PE/V2#RS> ;
	isoT:hasIdentifier <http://www.cdisc.org/PE/V2#SI> ;
	isoT:hasPreviousVersion <http://www.cdisc.org/PE/V1> ;
	isoT:origin ""^^xsd:string ;
	isoT:changeDescription ""^^xsd:string ;
	isoT:creationDate "2012-07-16T00:00:00+00:00"^^xsd:dateTime ;
	isoT:lastChangeDate "2012-07-16T00:00:00+00:00"^^xsd:dateTime ;
	isoT:explanatoryComment ""^^xsd:string ;
	bd:rule ""^^xsd:string ;
	bd:ordinal "1"^^xsd:positiveInteger ;
	bd:includesColumn <http://www.cdisc.org/PE/V1#STUDYID> ;
	bd:includesColumn <http://www.cdisc.org/PE/V2#DOMAIN> ;
	bd:includesColumn <http://www.cdisc.org/PE/V1#USUBJID> ;
	bd:includesColumn <http://www.cdisc.org/PE/V1#PESEQ> ;
	bd:includesColumn <http://www.cdisc.org/PE/V1#PEGRPID> ;
	bd:includesColumn <http://www.cdisc.org/PE/V1#PESPID> ;
	bd:includesColumn <http://www.cdisc.org/PE/V2#PETESTCD> ;
	bd:includesColumn <http://www.cdisc.org/PE/V2#PETEST> ;
	bd:includesColumn <http://www.cdisc.org/PE/V1#PEMODIFY> ;
	bd:includesColumn <http://www.cdisc.org/PE/V1#PECAT> ;
	bd:includesColumn <http://www.cdisc.org/PE/V1#PESCAT> ;
	bd:includesColumn <http://www.cdisc.org/PE/V2#PEBODSYS> ;
	bd:includesColumn <http://www.cdisc.org/PE/V1#PEORRES> ;
	bd:includesColumn <http://www.cdisc.org/PE/V1#PEORRESU> ;
	bd:includesColumn <http://www.cdisc.org/PE/V1#PESTRESC> ;
	bd:includesColumn <http://www.cdisc.org/PE/V1#PESTAT> ;
	bd:includesColumn <http://www.cdisc.org/PE/V1#PEREASND> ;
	bd:includesColumn <http://www.cdisc.org/PE/V1#PELOC> ;
	bd:includesColumn <http://www.cdisc.org/PE/V1#PEMETHOD> ;
	bd:includesColumn <http://www.cdisc.org/PE/V1#PEEVAL> ;
	bd:includesColumn <http://www.cdisc.org/PE/V2#VISITNUM> ;
	bd:includesColumn <http://www.cdisc.org/PE/V2#VISIT> ;
	bd:includesColumn <http://www.cdisc.org/PE/V1#VISITDY> ;
	bd:includesColumn <http://www.cdisc.org/PE/V1#PEDTC> ;
	bd:includesColumn <http://www.cdisc.org/PE/V2#PEDY> ;
	bd:prefix "PE"^^xsd:string ;
	bd:structure "One record per body system or abnormality per visit per subject"^^xsd:string ;
	bd:basedOnClass <http://www.cdisc.org/SDTM_MODEL_FINDINGS/V2#CL> ;
.
<http://www.cdisc.org/PE/V2#RS>
	rdf:type isoR:RegistrationState ;
	isoR:registrationStatus "Standard"^^xsd:string ;
	isoR:administrativeNote ""^^xsd:string ;
	isoR:effectiveDate "2016-01-01T00:00:00+00:00"^^xsd:dateTime ;
	isoR:untilDate "2016-01-01T00:00:00+00:00"^^xsd:dateTime ;
	isoR:unresolvedIssue ""^^xsd:string ;
	isoR:administrativeStatus ""^^xsd:string ;
	isoR:previousState "Standard"^^xsd:string ;
	isoR:multipleEdit "false"^^xsd:boolean ;
	isoR:byAuthority <http://www.assero.co.uk/RA#DUNS084433759> ;
.
<http://www.cdisc.org/PE/V2#SI>
	rdf:type isoI:ScopedIdentifier ;
	isoI:identifier "PE"^^xsd:string ;
	isoI:versionLabel "2012-07-16 Release"^^xsd:string ;
	isoI:version "2"^^xsd:positiveInteger ;
	isoI:semanticVersion "2.0.0"^^xsd:string ;
	isoI:hasScope <http://www.assero.co.uk/NS#CDISC> ;
.
<http://www.cdisc.org/PE/V2#DOMAIN>
	rdf:type bd:SdtmDomainVariable ;
	isoC:label "Domain Abbreviation"^^xsd:string ;
	bd:rule ""^^xsd:string ;
	bd:ordinal "2"^^xsd:positiveInteger ;
	bd:name "DOMAIN"^^xsd:string ;
	bd:description "Two-character abbreviation for the domain."^^xsd:string ;
	bd:format ""^^xsd:string ;
	bd:ctAndFormat "(DOMAIN)"^^xsd:string ;
	bd:compliance <http://www.assero.co.uk/CSN#52070084-cdd3-4ba8-8377-f670e4b0276c> ;
	bd:ctReference <http://www.cdisc.org/PE/V2#DOMAIN_TMC1> ;
	bd:basedOnClassVariable <http://www.cdisc.org/SDTM_MODEL_ALL/V2#CL_DOMAIN> ;
.
<http://www.cdisc.org/PE/V2#DOMAIN_TMC1>
	rdf:type bo:TMcReference ;
	isoC:label "DOMAIN"^^xsd:string ;
	bo:enabled "true"^^xsd:boolean ;
	bo:optional "false"^^xsd:boolean ;
	bo:ordinal "1"^^xsd:positiveInteger ;
	bo:reference <http://www.cdisc.org/C66734/V28#C66734> ;
	bo:context <http://www.cdisc.org/CT/V31#TH> ;
.
<http://www.cdisc.org/PE/V2#PETESTCD>
	rdf:type bd:SdtmDomainVariable ;
	isoC:label "Body System Examined Short Name"^^xsd:string ;
	bd:rule ""^^xsd:string ;
	bd:ordinal "7"^^xsd:positiveInteger ;
	bd:name "PETESTCD"^^xsd:string ;
	bd:description "Short name of the measurement, test, or examination described in PETEST. It can be used as a column name when converting a dataset from a vertical to a horizontal format. The value in PETESTCD cannot be longer than 8 characters, nor can it start with a number (e.g.\"1TEST\"). PETESTCD cannot contain characters other than letters, numbers, or underscores."^^xsd:string ;
	bd:format ""^^xsd:string ;
	bd:ctAndFormat ""^^xsd:string ;
	bd:compliance <http://www.assero.co.uk/CSN#52070084-cdd3-4ba8-8377-f670e4b0276c> ;
	bd:basedOnClassVariable <http://www.cdisc.org/SDTM_MODEL_FINDINGS/V1#CL_--TESTCD> ;
	bd:isA <http://www.s-cubed.dk/CAR#18a302ee283ea042f30ca2cb852a2846f97c9413> ;
.
<http://www.cdisc.org/PE/V2#PETEST>
	rdf:type bd:SdtmDomainVariable ;
	isoC:label "Body System Examined"^^xsd:string ;
	bd:rule ""^^xsd:string ;
	bd:ordinal "8"^^xsd:positiveInteger ;
	bd:name "PETEST"^^xsd:string ;
	bd:description "Verbatim term part of the body examined. The value in PETEST cannot be longer than 40 characters. Examples: Cardiovascular and Respiratory. For subject-level exam, value should be \"Physical Examination\"."^^xsd:string ;
	bd:format ""^^xsd:string ;
	bd:ctAndFormat ""^^xsd:string ;
	bd:compliance <http://www.assero.co.uk/CSN#52070084-cdd3-4ba8-8377-f670e4b0276c> ;
	bd:basedOnClassVariable <http://www.cdisc.org/SDTM_MODEL_FINDINGS/V1#CL_--TEST> ;
.
<http://www.cdisc.org/PE/V2#PEBODSYS>
	rdf:type bd:SdtmDomainVariable ;
	isoC:label "Body System or Organ Class"^^xsd:string ;
	bd:rule ""^^xsd:string ;
	bd:ordinal "12"^^xsd:positiveInteger ;
	bd:name "PEBODSYS"^^xsd:string ;
	bd:description "Body system or organ class ( MedDRA SOC) that is involved in a measurement from the standard hierarchy (e.g., MedDRA)."^^xsd:string ;
	bd:format ""^^xsd:string ;
	bd:ctAndFormat ""^^xsd:string ;
	bd:compliance <http://www.assero.co.uk/CSN#f7d9d4e1-a00a-487e-89db-ebece910ba0d> ;
	bd:basedOnClassVariable <http://www.cdisc.org/SDTM_MODEL_FINDINGS/V1#CL_--BODSYS> ;
.
<http://www.cdisc.org/PE/V2#VISITNUM>
	rdf:type bd:SdtmDomainVariable ;
	isoC:label "Visit Number"^^xsd:string ;
	bd:rule ""^^xsd:string ;
	bd:ordinal "21"^^xsd:positiveInteger ;
	bd:name "VISITNUM"^^xsd:string ;
	bd:description "1. Clinical encounter number.\n2. Numeric version of VISIT, used for sorting."^^xsd:string ;
	bd:format ""^^xsd:string ;
	bd:ctAndFormat ""^^xsd:string ;
	bd:compliance <http://www.assero.co.uk/CSN#046f6c24-9eaf-4f60-8390-f36328c82ec4> ;
	bd:basedOnClassVariable <http://www.cdisc.org/SDTM_MODEL_ALL/V2#CL_VISITNUM> ;
.
<http://www.cdisc.org/PE/V2#VISIT>
	rdf:type bd:SdtmDomainVariable ;
	isoC:label "Visit Name"^^xsd:string ;
	bd:rule ""^^xsd:string ;
	bd:ordinal "22"^^xsd:positiveInteger ;
	bd:name "VISIT"^^xsd:string ;
	bd:description "1. Protocol-defined description of clinical encounter.\n2. May be used in addition to VISITNUM and/or VISITDY."^^xsd:string ;
	bd:format ""^^xsd:string ;
	bd:ctAndFormat ""^^xsd:string ;
	bd:compliance <http://www.assero.co.uk/CSN#f7d9d4e1-a00a-487e-89db-ebece910ba0d> ;
	bd:basedOnClassVariable <http://www.cdisc.org/SDTM_MODEL_ALL/V2#CL_VISIT> ;
.
<http://www.cdisc.org/PE/V2#PEDY>
	rdf:type bd:SdtmDomainVariable ;
	isoC:label "Study Day of Examination"^^xsd:string ;
	bd:rule ""^^xsd:string ;
	bd:ordinal "25"^^xsd:positiveInteger ;
	bd:name "PEDY"^^xsd:string ;
	bd:description "1. Study day of physical exam, measured as integer days.\n2. Algorithm for calculations must be relative to the sponsor-defined RFSTDTC variable in Demographics."^^xsd:string ;
	bd:format ""^^xsd:string ;
	bd:ctAndFormat ""^^xsd:string ;
	bd:compliance <http://www.assero.co.uk/CSN#f7d9d4e1-a00a-487e-89db-ebece910ba0d> ;
	bd:basedOnClassVariable <http://www.cdisc.org/SDTM_MODEL_ALL/V2#CL_--DY> ;
.
<http://www.cdisc.org/QS/V2>
	rdf:type bd:SdtmDomain ;
	isoC:label "Questionnaires"^^xsd:string ;
	isoT:hasState <http://www.cdisc.org/QS/V2#RS> ;
	isoT:hasIdentifier <http://www.cdisc.org/QS/V2#SI> ;
	isoT:hasPreviousVersion <http://www.cdisc.org/QS/V1> ;
	isoT:origin ""^^xsd:string ;
	isoT:changeDescription ""^^xsd:string ;
	isoT:creationDate "2012-07-16T00:00:00+00:00"^^xsd:dateTime ;
	isoT:lastChangeDate "2012-07-16T00:00:00+00:00"^^xsd:dateTime ;
	isoT:explanatoryComment ""^^xsd:string ;
	bd:rule ""^^xsd:string ;
	bd:ordinal "1"^^xsd:positiveInteger ;
	bd:includesColumn <http://www.cdisc.org/QS/V1#STUDYID> ;
	bd:includesColumn <http://www.cdisc.org/QS/V2#DOMAIN> ;
	bd:includesColumn <http://www.cdisc.org/QS/V1#USUBJID> ;
	bd:includesColumn <http://www.cdisc.org/QS/V1#QSSEQ> ;
	bd:includesColumn <http://www.cdisc.org/QS/V1#QSGRPID> ;
	bd:includesColumn <http://www.cdisc.org/QS/V1#QSSPID> ;
	bd:includesColumn <http://www.cdisc.org/QS/V2#QSTESTCD> ;
	bd:includesColumn <http://www.cdisc.org/QS/V1#QSTEST> ;
	bd:includesColumn <http://www.cdisc.org/QS/V1#QSCAT> ;
	bd:includesColumn <http://www.cdisc.org/QS/V1#QSSCAT> ;
	bd:includesColumn <http://www.cdisc.org/QS/V1#QSORRES> ;
	bd:includesColumn <http://www.cdisc.org/QS/V1#QSORRESU> ;
	bd:includesColumn <http://www.cdisc.org/QS/V1#QSSTRESC> ;
	bd:includesColumn <http://www.cdisc.org/QS/V1#QSSTRESN> ;
	bd:includesColumn <http://www.cdisc.org/QS/V1#QSSTRESU> ;
	bd:includesColumn <http://www.cdisc.org/QS/V1#QSSTAT> ;
	bd:includesColumn <http://www.cdisc.org/QS/V1#QSREASND> ;
	bd:includesColumn <http://www.cdisc.org/QS/V2#QSBLFL> ;
	bd:includesColumn <http://www.cdisc.org/QS/V1#QSDRVFL> ;
	bd:includesColumn <http://www.cdisc.org/QS/V2#VISITNUM> ;
	bd:includesColumn <http://www.cdisc.org/QS/V2#VISIT> ;
	bd:includesColumn <http://www.cdisc.org/QS/V1#VISITDY> ;
	bd:includesColumn <http://www.cdisc.org/QS/V1#QSDTC> ;
	bd:includesColumn <http://www.cdisc.org/QS/V2#QSDY> ;
	bd:includesColumn <http://www.cdisc.org/QS/V2#QSTPT> ;
	bd:includesColumn <http://www.cdisc.org/QS/V1#QSTPTNUM> ;
	bd:includesColumn <http://www.cdisc.org/QS/V2#QSELTM> ;
	bd:includesColumn <http://www.cdisc.org/QS/V1#QSTPTREF> ;
	bd:includesColumn <http://www.cdisc.org/QS/V1#QSRFTDTC> ;
	bd:includesColumn <http://www.cdisc.org/QS/V2#QSEVLINT> ;
	bd:prefix "QS"^^xsd:string ;
	bd:structure "One record per questionnaire per question per time point per visit per subject"^^xsd:string ;
	bd:basedOnClass <http://www.cdisc.org/SDTM_MODEL_FINDINGS/V2#CL> ;
.
<http://www.cdisc.org/QS/V2#RS>
	rdf:type isoR:RegistrationState ;
	isoR:registrationStatus "Standard"^^xsd:string ;
	isoR:administrativeNote ""^^xsd:string ;
	isoR:effectiveDate "2016-01-01T00:00:00+00:00"^^xsd:dateTime ;
	isoR:untilDate "2016-01-01T00:00:00+00:00"^^xsd:dateTime ;
	isoR:unresolvedIssue ""^^xsd:string ;
	isoR:administrativeStatus ""^^xsd:string ;
	isoR:previousState "Standard"^^xsd:string ;
	isoR:multipleEdit "false"^^xsd:boolean ;
	isoR:byAuthority <http://www.assero.co.uk/RA#DUNS084433759> ;
.
<http://www.cdisc.org/QS/V2#SI>
	rdf:type isoI:ScopedIdentifier ;
	isoI:identifier "QS"^^xsd:string ;
	isoI:versionLabel "2012-07-16 Release"^^xsd:string ;
	isoI:version "2"^^xsd:positiveInteger ;
	isoI:semanticVersion "2.0.0"^^xsd:string ;
	isoI:hasScope <http://www.assero.co.uk/NS#CDISC> ;
.
<http://www.cdisc.org/QS/V2#DOMAIN>
	rdf:type bd:SdtmDomainVariable ;
	isoC:label "Domain Abbreviation"^^xsd:string ;
	bd:rule ""^^xsd:string ;
	bd:ordinal "2"^^xsd:positiveInteger ;
	bd:name "DOMAIN"^^xsd:string ;
	bd:description "Two-character abbreviation for the domain."^^xsd:string ;
	bd:format ""^^xsd:string ;
	bd:ctAndFormat "(DOMAIN)"^^xsd:string ;
	bd:compliance <http://www.assero.co.uk/CSN#52070084-cdd3-4ba8-8377-f670e4b0276c> ;
	bd:ctReference <http://www.cdisc.org/QS/V2#DOMAIN_TMC1> ;
	bd:basedOnClassVariable <http://www.cdisc.org/SDTM_MODEL_ALL/V2#CL_DOMAIN> ;
.
<http://www.cdisc.org/QS/V2#DOMAIN_TMC1>
	rdf:type bo:TMcReference ;
	isoC:label "DOMAIN"^^xsd:string ;
	bo:enabled "true"^^xsd:boolean ;
	bo:optional "false"^^xsd:boolean ;
	bo:ordinal "1"^^xsd:positiveInteger ;
	bo:reference <http://www.cdisc.org/C66734/V28#C66734> ;
	bo:context <http://www.cdisc.org/CT/V31#TH> ;
.
<http://www.cdisc.org/QS/V2#QSTESTCD>
	rdf:type bd:SdtmDomainVariable ;
	isoC:label "Question Short Name"^^xsd:string ;
	bd:rule ""^^xsd:string ;
	bd:ordinal "7"^^xsd:positiveInteger ;
	bd:name "QSTESTCD"^^xsd:string ;
	bd:description "Topic variable for QS. Short name for the value in QSTEST, which can be used as a column name when converting the dataset from a vertical format to a horizontal format. The value in QSTESTCD cannot be longer than 8 characters, nor can it start with a number (e.g.\"1TEST\"). QSTESTCD cannot contain characters other than letters, numbers, or underscores. Examples: COG01, GH1, PF1."^^xsd:string ;
	bd:format ""^^xsd:string ;
	bd:ctAndFormat ""^^xsd:string ;
	bd:compliance <http://www.assero.co.uk/CSN#52070084-cdd3-4ba8-8377-f670e4b0276c> ;
	bd:basedOnClassVariable <http://www.cdisc.org/SDTM_MODEL_FINDINGS/V1#CL_--TESTCD> ;
	bd:isA <http://www.s-cubed.dk/CAR#18a302ee283ea042f30ca2cb852a2846f97c9413> ;
.
<http://www.cdisc.org/QS/V2#QSBLFL>
	rdf:type bd:SdtmDomainVariable ;
	isoC:label "Baseline Flag"^^xsd:string ;
	bd:rule ""^^xsd:string ;
	bd:ordinal "18"^^xsd:positiveInteger ;
	bd:name "QSBLFL"^^xsd:string ;
	bd:description "Indicator used to identify a baseline value. The value should be \"Y\" or null."^^xsd:string ;
	bd:format ""^^xsd:string ;
	bd:ctAndFormat "(NY)"^^xsd:string ;
	bd:compliance <http://www.assero.co.uk/CSN#046f6c24-9eaf-4f60-8390-f36328c82ec4> ;
	bd:ctReference <http://www.cdisc.org/QS/V2#QSBLFL_TMC1> ;
	bd:basedOnClassVariable <http://www.cdisc.org/SDTM_MODEL_FINDINGS/V2#CL_--BLFL> ;
.
<http://www.cdisc.org/QS/V2#QSBLFL_TMC1>
	rdf:type bo:TMcReference ;
	isoC:label "NY"^^xsd:string ;
	bo:enabled "true"^^xsd:boolean ;
	bo:optional "false"^^xsd:boolean ;
	bo:ordinal "1"^^xsd:positiveInteger ;
	bo:reference <http://www.cdisc.org/C66742/V4#C66742> ;
	bo:context <http://www.cdisc.org/CT/V31#TH> ;
.
<http://www.cdisc.org/QS/V2#VISITNUM>
	rdf:type bd:SdtmDomainVariable ;
	isoC:label "Visit Number"^^xsd:string ;
	bd:rule ""^^xsd:string ;
	bd:ordinal "20"^^xsd:positiveInteger ;
	bd:name "VISITNUM"^^xsd:string ;
	bd:description "1. Clinical encounter number.\n2. Numeric version of VISIT, used for sorting."^^xsd:string ;
	bd:format ""^^xsd:string ;
	bd:ctAndFormat ""^^xsd:string ;
	bd:compliance <http://www.assero.co.uk/CSN#046f6c24-9eaf-4f60-8390-f36328c82ec4> ;
	bd:basedOnClassVariable <http://www.cdisc.org/SDTM_MODEL_ALL/V2#CL_VISITNUM> ;
.
<http://www.cdisc.org/QS/V2#VISIT>
	rdf:type bd:SdtmDomainVariable ;
	isoC:label "Visit Name"^^xsd:string ;
	bd:rule ""^^xsd:string ;
	bd:ordinal "21"^^xsd:positiveInteger ;
	bd:name "VISIT"^^xsd:string ;
	bd:description "1. Protocol-defined description of clinical encounter.\n2. May be used in addition to VISITNUM and/or VISITDY."^^xsd:string ;
	bd:format ""^^xsd:string ;
	bd:ctAndFormat ""^^xsd:string ;
	bd:compliance <http://www.assero.co.uk/CSN#f7d9d4e1-a00a-487e-89db-ebece910ba0d> ;
	bd:basedOnClassVariable <http://www.cdisc.org/SDTM_MODEL_ALL/V2#CL_VISIT> ;
.
<http://www.cdisc.org/QS/V2#QSDY>
	rdf:type bd:SdtmDomainVariable ;
	isoC:label "Study Day of Finding"^^xsd:string ;
	bd:rule ""^^xsd:string ;
	bd:ordinal "24"^^xsd:positiveInteger ;
	bd:name "QSDY"^^xsd:string ;
	bd:description "1. Study day of finding collection, measured as integer days.\n2. Algorithm for calculations must be relative to the sponsor-defined RFSTDTC variable in Demographics."^^xsd:string ;
	bd:format ""^^xsd:string ;
	bd:ctAndFormat ""^^xsd:string ;
	bd:compliance <http://www.assero.co.uk/CSN#f7d9d4e1-a00a-487e-89db-ebece910ba0d> ;
	bd:basedOnClassVariable <http://www.cdisc.org/SDTM_MODEL_ALL/V2#CL_--DY> ;
.
<http://www.cdisc.org/QS/V2#QSTPT>
	rdf:type bd:SdtmDomainVariable ;
	isoC:label "Planned Time Point Name"^^xsd:string ;
	bd:rule ""^^xsd:string ;
	bd:ordinal "25"^^xsd:positiveInteger ;
	bd:name "QSTPT"^^xsd:string ;
	bd:description "1. Text Description of time when questionnaire should be administered.\n2. This may be represented as an elapsed time relative to a fixed reference point, such as time of last dose. See QSTPTNUM and QSTPTREF."^^xsd:string ;
	bd:format ""^^xsd:string ;
	bd:ctAndFormat ""^^xsd:string ;
	bd:compliance <http://www.assero.co.uk/CSN#f7d9d4e1-a00a-487e-89db-ebece910ba0d> ;
	bd:basedOnClassVariable <http://www.cdisc.org/SDTM_MODEL_ALL/V2#CL_--TPT> ;
.
<http://www.cdisc.org/QS/V2#QSELTM>
	rdf:type bd:SdtmDomainVariable ;
	isoC:label "Planned Elapsed Time from Time Point Ref"^^xsd:string ;
	bd:rule ""^^xsd:string ;
	bd:ordinal "27"^^xsd:positiveInteger ;
	bd:name "QSELTM"^^xsd:string ;
	bd:description "Planned Elapsed time (in ISO 8601) relative to a planned fixed reference (QSTPTREF). This variable is useful where there are repetitive measures. Not a clock time or a date time variable. Represented as an ISO 8601 duration. Examples: \"-PT15M\" to represent the period of 15 minutes prior to the reference point indicated by QSTPTREF, or \"PT8H\" to represent the period of 8 hours after the reference point indicated by QSTPTREF."^^xsd:string ;
	bd:format "ISO 8601"^^xsd:string ;
	bd:ctAndFormat "ISO 8601"^^xsd:string ;
	bd:compliance <http://www.assero.co.uk/CSN#f7d9d4e1-a00a-487e-89db-ebece910ba0d> ;
	bd:basedOnClassVariable <http://www.cdisc.org/SDTM_MODEL_ALL/V2#CL_--ELTM> ;
.
<http://www.cdisc.org/QS/V2#QSEVLINT>
	rdf:type bd:SdtmDomainVariable ;
	isoC:label "Evaluation Interval"^^xsd:string ;
	bd:rule ""^^xsd:string ;
	bd:ordinal "30"^^xsd:positiveInteger ;
	bd:name "QSEVLINT"^^xsd:string ;
	bd:description "Evaluation Interval associated with a QSTEST question represented in ISO 8601 character format. Example: \"-P2Y\" to represent an interval of 2 years in the question \"Have you experienced any episodes in the past 2 years?\""^^xsd:string ;
	bd:format "ISO 8601"^^xsd:string ;
	bd:ctAndFormat "ISO 8601"^^xsd:string ;
	bd:compliance <http://www.assero.co.uk/CSN#f7d9d4e1-a00a-487e-89db-ebece910ba0d> ;
	bd:basedOnClassVariable <http://www.cdisc.org/SDTM_MODEL_ALL/V2#CL_--EVLINT> ;
.
<http://www.cdisc.org/SC/V2>
	rdf:type bd:SdtmDomain ;
	isoC:label "Subject Characteristics"^^xsd:string ;
	isoT:hasState <http://www.cdisc.org/SC/V2#RS> ;
	isoT:hasIdentifier <http://www.cdisc.org/SC/V2#SI> ;
	isoT:hasPreviousVersion <http://www.cdisc.org/SC/V1> ;
	isoT:origin ""^^xsd:string ;
	isoT:changeDescription ""^^xsd:string ;
	isoT:creationDate "2012-07-16T00:00:00+00:00"^^xsd:dateTime ;
	isoT:lastChangeDate "2012-07-16T00:00:00+00:00"^^xsd:dateTime ;
	isoT:explanatoryComment ""^^xsd:string ;
	bd:rule ""^^xsd:string ;
	bd:ordinal "1"^^xsd:positiveInteger ;
	bd:includesColumn <http://www.cdisc.org/SC/V1#STUDYID> ;
	bd:includesColumn <http://www.cdisc.org/SC/V2#DOMAIN> ;
	bd:includesColumn <http://www.cdisc.org/SC/V1#USUBJID> ;
	bd:includesColumn <http://www.cdisc.org/SC/V1#SCSEQ> ;
	bd:includesColumn <http://www.cdisc.org/SC/V1#SCGRPID> ;
	bd:includesColumn <http://www.cdisc.org/SC/V1#SCSPID> ;
	bd:includesColumn <http://www.cdisc.org/SC/V2#SCTESTCD> ;
	bd:includesColumn <http://www.cdisc.org/SC/V1#SCTEST> ;
	bd:includesColumn <http://www.cdisc.org/SC/V1#SCCAT> ;
	bd:includesColumn <http://www.cdisc.org/SC/V1#SCSCAT> ;
	bd:includesColumn <http://www.cdisc.org/SC/V1#SCORRES> ;
	bd:includesColumn <http://www.cdisc.org/SC/V1#SCORRESU> ;
	bd:includesColumn <http://www.cdisc.org/SC/V2#SCSTRESC> ;
	bd:includesColumn <http://www.cdisc.org/SC/V1#SCSTRESN> ;
	bd:includesColumn <http://www.cdisc.org/SC/V1#SCSTRESU> ;
	bd:includesColumn <http://www.cdisc.org/SC/V1#SCSTAT> ;
	bd:includesColumn <http://www.cdisc.org/SC/V1#SCREASND> ;
	bd:includesColumn <http://www.cdisc.org/SC/V1#SCDTC> ;
	bd:includesColumn <http://www.cdisc.org/SC/V1#SCDY> ;
	bd:prefix "SC"^^xsd:string ;
	bd:structure "One record per characteristic per subject."^^xsd:string ;
	bd:basedOnClass <http://www.cdisc.org/SDTM_MODEL_FINDINGS/V2#CL> ;
.
<http://www.cdisc.org/SC/V2#RS>
	rdf:type isoR:RegistrationState ;
	isoR:registrationStatus "Standard"^^xsd:string ;
	isoR:administrativeNote ""^^xsd:string ;
	isoR:effectiveDate "2016-01-01T00:00:00+00:00"^^xsd:dateTime ;
	isoR:untilDate "2016-01-01T00:00:00+00:00"^^xsd:dateTime ;
	isoR:unresolvedIssue ""^^xsd:string ;
	isoR:administrativeStatus ""^^xsd:string ;
	isoR:previousState "Standard"^^xsd:string ;
	isoR:multipleEdit "false"^^xsd:boolean ;
	isoR:byAuthority <http://www.assero.co.uk/RA#DUNS084433759> ;
.
<http://www.cdisc.org/SC/V2#SI>
	rdf:type isoI:ScopedIdentifier ;
	isoI:identifier "SC"^^xsd:string ;
	isoI:versionLabel "2012-07-16 Release"^^xsd:string ;
	isoI:version "2"^^xsd:positiveInteger ;
	isoI:semanticVersion "2.0.0"^^xsd:string ;
	isoI:hasScope <http://www.assero.co.uk/NS#CDISC> ;
.
<http://www.cdisc.org/SC/V2#DOMAIN>
	rdf:type bd:SdtmDomainVariable ;
	isoC:label "Domain Abbreviation"^^xsd:string ;
	bd:rule ""^^xsd:string ;
	bd:ordinal "2"^^xsd:positiveInteger ;
	bd:name "DOMAIN"^^xsd:string ;
	bd:description "Two-character abbreviation for the domain."^^xsd:string ;
	bd:format ""^^xsd:string ;
	bd:ctAndFormat "(DOMAIN)"^^xsd:string ;
	bd:compliance <http://www.assero.co.uk/CSN#52070084-cdd3-4ba8-8377-f670e4b0276c> ;
	bd:ctReference <http://www.cdisc.org/SC/V2#DOMAIN_TMC1> ;
	bd:basedOnClassVariable <http://www.cdisc.org/SDTM_MODEL_ALL/V2#CL_DOMAIN> ;
.
<http://www.cdisc.org/SC/V2#DOMAIN_TMC1>
	rdf:type bo:TMcReference ;
	isoC:label "DOMAIN"^^xsd:string ;
	bo:enabled "true"^^xsd:boolean ;
	bo:optional "false"^^xsd:boolean ;
	bo:ordinal "1"^^xsd:positiveInteger ;
	bo:reference <http://www.cdisc.org/C66734/V28#C66734> ;
	bo:context <http://www.cdisc.org/CT/V31#TH> ;
.
<http://www.cdisc.org/SC/V2#SCTESTCD>
	rdf:type bd:SdtmDomainVariable ;
	isoC:label "Subject Characteristic Short Name"^^xsd:string ;
	bd:rule ""^^xsd:string ;
	bd:ordinal "7"^^xsd:positiveInteger ;
	bd:name "SCTESTCD"^^xsd:string ;
	bd:description "Short name of the measurement, test, or examination described in SCTEST. It can be used as a column name when converting a dataset from a vertical to a horizontal format. The value in SCTESTCD cannot be longer than 8 characters, nor can it start with a number (e.g.\"1TEST\"). SCTESTCD cannot contain characters other than letters, numbers, or underscores. Example: SUBJINIT, EYECD."^^xsd:string ;
	bd:format ""^^xsd:string ;
	bd:ctAndFormat "(SCCD)"^^xsd:string ;
	bd:compliance <http://www.assero.co.uk/CSN#52070084-cdd3-4ba8-8377-f670e4b0276c> ;
	bd:ctReference <http://www.cdisc.org/SC/V2#SCTESTCD_TMC1> ;
	bd:basedOnClassVariable <http://www.cdisc.org/SDTM_MODEL_FINDINGS/V1#CL_--TESTCD> ;
	bd:isA <http://www.s-cubed.dk/CAR#18a302ee283ea042f30ca2cb852a2846f97c9413> ;
.
<http://www.cdisc.org/SC/V2#SCTESTCD_TMC1>
	rdf:type bo:TMcReference ;
	isoC:label "SCCD"^^xsd:string ;
	bo:enabled "true"^^xsd:boolean ;
	bo:optional "false"^^xsd:boolean ;
	bo:ordinal "1"^^xsd:positiveInteger ;
	bo:reference <http://www.cdisc.org/C74559/V10#C74559> ;
	bo:context <http://www.cdisc.org/CT/V31#TH> ;
.
<http://www.cdisc.org/SC/V2#SCSTRESC>
	rdf:type bd:SdtmDomainVariable ;
	isoC:label "Character Result/Finding in Std Format"^^xsd:string ;
	bd:rule ""^^xsd:string ;
	bd:ordinal "13"^^xsd:positiveInteger ;
	bd:name "SCSTRESC"^^xsd:string ;
	bd:description "Contains the result value for all findings, copied or derived from SCORRES in a standard format or standard units. SCSTRESC should store all results or findings in character format; if results are numeric, they should also be stored in numeric format in SCSTRESN. For example, if a test has results \"NONE\", \"NEG\", and \"NEGATIVE\" in SCORRES and these results effectively have the same meaning, they could be represented in standard format in SCSTRESC as \"NEGATIVE\"."^^xsd:string ;
	bd:format ""^^xsd:string ;
	bd:ctAndFormat ""^^xsd:string ;
	bd:compliance <http://www.assero.co.uk/CSN#046f6c24-9eaf-4f60-8390-f36328c82ec4> ;
	bd:basedOnClassVariable <http://www.cdisc.org/SDTM_MODEL_FINDINGS/V2#CL_--STRESC> ;
.
<http://www.cdisc.org/VS/V2>
	rdf:type bd:SdtmDomain ;
	isoC:label "Vital Signs"^^xsd:string ;
	isoT:hasState <http://www.cdisc.org/VS/V2#RS> ;
	isoT:hasIdentifier <http://www.cdisc.org/VS/V2#SI> ;
	isoT:hasPreviousVersion <http://www.cdisc.org/VS/V1> ;
	isoT:origin ""^^xsd:string ;
	isoT:changeDescription ""^^xsd:string ;
	isoT:creationDate "2012-07-16T00:00:00+00:00"^^xsd:dateTime ;
	isoT:lastChangeDate "2012-07-16T00:00:00+00:00"^^xsd:dateTime ;
	isoT:explanatoryComment ""^^xsd:string ;
	bd:rule ""^^xsd:string ;
	bd:ordinal "1"^^xsd:positiveInteger ;
	bd:includesColumn <http://www.cdisc.org/VS/V1#STUDYID> ;
	bd:includesColumn <http://www.cdisc.org/VS/V2#DOMAIN> ;
	bd:includesColumn <http://www.cdisc.org/VS/V1#USUBJID> ;
	bd:includesColumn <http://www.cdisc.org/VS/V1#VSSEQ> ;
	bd:includesColumn <http://www.cdisc.org/VS/V1#VSGRPID> ;
	bd:includesColumn <http://www.cdisc.org/VS/V1#VSSPID> ;
	bd:includesColumn <http://www.cdisc.org/VS/V2#VSTESTCD> ;
	bd:includesColumn <http://www.cdisc.org/VS/V1#VSTEST> ;
	bd:includesColumn <http://www.cdisc.org/VS/V1#VSCAT> ;
	bd:includesColumn <http://www.cdisc.org/VS/V1#VSSCAT> ;
	bd:includesColumn <http://www.cdisc.org/VS/V1#VSPOS> ;
	bd:includesColumn <http://www.cdisc.org/VS/V1#VSORRES> ;
	bd:includesColumn <http://www.cdisc.org/VS/V1#VSORRESU> ;
	bd:includesColumn <http://www.cdisc.org/VS/V2#VSSTRESC> ;
	bd:includesColumn <http://www.cdisc.org/VS/V1#VSSTRESN> ;
	bd:includesColumn <http://www.cdisc.org/VS/V1#VSSTRESU> ;
	bd:includesColumn <http://www.cdisc.org/VS/V1#VSSTAT> ;
	bd:includesColumn <http://www.cdisc.org/VS/V1#VSREASND> ;
	bd:includesColumn <http://www.cdisc.org/VS/V1#VSLOC> ;
	bd:includesColumn <http://www.cdisc.org/VS/V2#VSBLFL> ;
	bd:includesColumn <http://www.cdisc.org/VS/V1#VSDRVFL> ;
	bd:includesColumn <http://www.cdisc.org/VS/V2#VISITNUM> ;
	bd:includesColumn <http://www.cdisc.org/VS/V2#VISIT> ;
	bd:includesColumn <http://www.cdisc.org/VS/V1#VISITDY> ;
	bd:includesColumn <http://www.cdisc.org/VS/V1#VSDTC> ;
	bd:includesColumn <http://www.cdisc.org/VS/V2#VSDY> ;
	bd:includesColumn <http://www.cdisc.org/VS/V2#VSTPT> ;
	bd:includesColumn <http://www.cdisc.org/VS/V1#VSTPTNUM> ;
	bd:includesColumn <http://www.cdisc.org/VS/V2#VSELTM> ;
	bd:includesColumn <http://www.cdisc.org/VS/V1#VSTPTREF> ;
	bd:includesColumn <http://www.cdisc.org/VS/V1#VSRFTDTC> ;
	bd:prefix "VS"^^xsd:string ;
	bd:structure "One record per vital sign measurement per time point per visit per subject"^^xsd:string ;
	bd:basedOnClass <http://www.cdisc.org/SDTM_MODEL_FINDINGS/V2#CL> ;
.
<http://www.cdisc.org/VS/V2#RS>
	rdf:type isoR:RegistrationState ;
	isoR:registrationStatus "Standard"^^xsd:string ;
	isoR:administrativeNote ""^^xsd:string ;
	isoR:effectiveDate "2016-01-01T00:00:00+00:00"^^xsd:dateTime ;
	isoR:untilDate "2016-01-01T00:00:00+00:00"^^xsd:dateTime ;
	isoR:unresolvedIssue ""^^xsd:string ;
	isoR:administrativeStatus ""^^xsd:string ;
	isoR:previousState "Standard"^^xsd:string ;
	isoR:multipleEdit "false"^^xsd:boolean ;
	isoR:byAuthority <http://www.assero.co.uk/RA#DUNS084433759> ;
.
<http://www.cdisc.org/VS/V2#SI>
	rdf:type isoI:ScopedIdentifier ;
	isoI:identifier "VS"^^xsd:string ;
	isoI:versionLabel "2012-07-16 Release"^^xsd:string ;
	isoI:version "2"^^xsd:positiveInteger ;
	isoI:semanticVersion "2.0.0"^^xsd:string ;
	isoI:hasScope <http://www.assero.co.uk/NS#CDISC> ;
.
<http://www.cdisc.org/VS/V2#DOMAIN>
	rdf:type bd:SdtmDomainVariable ;
	isoC:label "Domain Abbreviation"^^xsd:string ;
	bd:rule ""^^xsd:string ;
	bd:ordinal "2"^^xsd:positiveInteger ;
	bd:name "DOMAIN"^^xsd:string ;
	bd:description "Two-character abbreviation for the domain."^^xsd:string ;
	bd:format ""^^xsd:string ;
	bd:ctAndFormat "(DOMAIN)"^^xsd:string ;
	bd:compliance <http://www.assero.co.uk/CSN#52070084-cdd3-4ba8-8377-f670e4b0276c> ;
	bd:ctReference <http://www.cdisc.org/VS/V2#DOMAIN_TMC1> ;
	bd:basedOnClassVariable <http://www.cdisc.org/SDTM_MODEL_ALL/V2#CL_DOMAIN> ;
.
<http://www.cdisc.org/VS/V2#DOMAIN_TMC1>
	rdf:type bo:TMcReference ;
	isoC:label "DOMAIN"^^xsd:string ;
	bo:enabled "true"^^xsd:boolean ;
	bo:optional "false"^^xsd:boolean ;
	bo:ordinal "1"^^xsd:positiveInteger ;
	bo:reference <http://www.cdisc.org/C66734/V28#C66734> ;
	bo:context <http://www.cdisc.org/CT/V31#TH> ;
.
<http://www.cdisc.org/VS/V2#VSTESTCD>
	rdf:type bd:SdtmDomainVariable ;
	isoC:label "Vital Signs Test Short Name"^^xsd:string ;
	bd:rule ""^^xsd:string ;
	bd:ordinal "7"^^xsd:positiveInteger ;
	bd:name "VSTESTCD"^^xsd:string ;
	bd:description "Short name of the measurement, test, or examination described in VSTEST. It can be used as a column name when converting a dataset from a vertical to a horizontal format. The value in VSTESTCD cannot be longer than 8 characters, nor can it start with a number (e.g.\"1TEST\"). VSTESTCD cannot contain characters other than letters, numbers, or underscores. Examples: SYSBP, DIABP, BMI."^^xsd:string ;
	bd:format ""^^xsd:string ;
	bd:ctAndFormat "(VSTESTCD)"^^xsd:string ;
	bd:compliance <http://www.assero.co.uk/CSN#52070084-cdd3-4ba8-8377-f670e4b0276c> ;
	bd:ctReference <http://www.cdisc.org/VS/V2#VSTESTCD_TMC1> ;
	bd:basedOnClassVariable <http://www.cdisc.org/SDTM_MODEL_FINDINGS/V1#CL_--TESTCD> ;
	bd:isA <http://www.s-cubed.dk/CAR#18a302ee283ea042f30ca2cb852a2846f97c9413> ;
.
<http://www.cdisc.org/VS/V2#VSTESTCD_TMC1>
	rdf:type bo:TMcReference ;
	isoC:label "VSTESTCD"^^xsd:string ;
	bo:enabled "true"^^xsd:boolean ;
	bo:optional "false"^^xsd:boolean ;
	bo:ordinal "1"^^xsd:positiveInteger ;
	bo:reference <http://www.cdisc.org/C66741/V30#C66741> ;
	bo:context <http://www.cdisc.org/CT/V31#TH> ;
.
<http://www.cdisc.org/VS/V2#VSSTRESC>
	rdf:type bd:SdtmDomainVariable ;
	isoC:label "Character Result/Finding in Std Format"^^xsd:string ;
	bd:rule ""^^xsd:string ;
	bd:ordinal "14"^^xsd:positiveInteger ;
	bd:name "VSSTRESC"^^xsd:string ;
	bd:description "Contains the result value for all findings, copied or derived from VSORRES in a standard format or standard units. VSSTRESC should store all results or findings in character format; if results are numeric, they should also be stored in numeric format in VSSTRESN. For example, if a test has results \"NONE\", \"NEG\", and \"NEGATIVE\" in VSORRES and these results effectively have the same meaning, they could be represented in standard format in VSSTRESC as \"NEGATIVE\"."^^xsd:string ;
	bd:format ""^^xsd:string ;
	bd:ctAndFormat ""^^xsd:string ;
	bd:compliance <http://www.assero.co.uk/CSN#046f6c24-9eaf-4f60-8390-f36328c82ec4> ;
	bd:basedOnClassVariable <http://www.cdisc.org/SDTM_MODEL_FINDINGS/V2#CL_--STRESC> ;
.
<http://www.cdisc.org/VS/V2#VSBLFL>
	rdf:type bd:SdtmDomainVariable ;
	isoC:label "Baseline Flag"^^xsd:string ;
	bd:rule ""^^xsd:string ;
	bd:ordinal "20"^^xsd:positiveInteger ;
	bd:name "VSBLFL"^^xsd:string ;
	bd:description "Indicator used to identify a baseline value. The value should be \"Y\" or null."^^xsd:string ;
	bd:format ""^^xsd:string ;
	bd:ctAndFormat "(NY)"^^xsd:string ;
	bd:compliance <http://www.assero.co.uk/CSN#046f6c24-9eaf-4f60-8390-f36328c82ec4> ;
	bd:ctReference <http://www.cdisc.org/VS/V2#VSBLFL_TMC1> ;
	bd:basedOnClassVariable <http://www.cdisc.org/SDTM_MODEL_FINDINGS/V2#CL_--BLFL> ;
.
<http://www.cdisc.org/VS/V2#VSBLFL_TMC1>
	rdf:type bo:TMcReference ;
	isoC:label "NY"^^xsd:string ;
	bo:enabled "true"^^xsd:boolean ;
	bo:optional "false"^^xsd:boolean ;
	bo:ordinal "1"^^xsd:positiveInteger ;
	bo:reference <http://www.cdisc.org/C66742/V4#C66742> ;
	bo:context <http://www.cdisc.org/CT/V31#TH> ;
.
<http://www.cdisc.org/VS/V2#VISITNUM>
	rdf:type bd:SdtmDomainVariable ;
	isoC:label "Visit Number"^^xsd:string ;
	bd:rule ""^^xsd:string ;
	bd:ordinal "22"^^xsd:positiveInteger ;
	bd:name "VISITNUM"^^xsd:string ;
	bd:description "1. Clinical encounter number.\n2. Numeric version of VISIT, used for sorting."^^xsd:string ;
	bd:format ""^^xsd:string ;
	bd:ctAndFormat ""^^xsd:string ;
	bd:compliance <http://www.assero.co.uk/CSN#046f6c24-9eaf-4f60-8390-f36328c82ec4> ;
	bd:basedOnClassVariable <http://www.cdisc.org/SDTM_MODEL_ALL/V2#CL_VISITNUM> ;
.
<http://www.cdisc.org/VS/V2#VISIT>
	rdf:type bd:SdtmDomainVariable ;
	isoC:label "Visit Name"^^xsd:string ;
	bd:rule ""^^xsd:string ;
	bd:ordinal "23"^^xsd:positiveInteger ;
	bd:name "VISIT"^^xsd:string ;
	bd:description "1. Protocol-defined description of clinical encounter.\n2. May be used in addition to VISITNUM and/or VISITDY."^^xsd:string ;
	bd:format ""^^xsd:string ;
	bd:ctAndFormat ""^^xsd:string ;
	bd:compliance <http://www.assero.co.uk/CSN#f7d9d4e1-a00a-487e-89db-ebece910ba0d> ;
	bd:basedOnClassVariable <http://www.cdisc.org/SDTM_MODEL_ALL/V2#CL_VISIT> ;
.
<http://www.cdisc.org/VS/V2#VSDY>
	rdf:type bd:SdtmDomainVariable ;
	isoC:label "Study Day of Vital Signs"^^xsd:string ;
	bd:rule ""^^xsd:string ;
	bd:ordinal "26"^^xsd:positiveInteger ;
	bd:name "VSDY"^^xsd:string ;
	bd:description "1. Study day of vital signs measurements, measured as integer days.\n2. Algorithm for calculations must be relative to the sponsor-defined RFSTDTC variable in Demographics."^^xsd:string ;
	bd:format ""^^xsd:string ;
	bd:ctAndFormat ""^^xsd:string ;
	bd:compliance <http://www.assero.co.uk/CSN#f7d9d4e1-a00a-487e-89db-ebece910ba0d> ;
	bd:basedOnClassVariable <http://www.cdisc.org/SDTM_MODEL_ALL/V2#CL_--DY> ;
.
<http://www.cdisc.org/VS/V2#VSTPT>
