@prefix : <http://www.cdisc.org/SDTM_IG/V1#> .
@prefix bd: <http://www.assero.co.uk/Tabulation#> .
@prefix isoC: <http://www.assero.co.uk/ISO11179Concepts#> .
@prefix isoT: <http://www.assero.co.uk/ISO11179Types#> .
@prefix isoR: <http://www.assero.co.uk/ISO11179Registration#> .
@prefix isoI: <http://www.assero.co.uk/ISO11179Identification#> .
@prefix bo: <http://www.assero.co.uk/BusinessOperational#> .
@prefix owl: <http://www.w3.org/2002/07/owl#> .
@prefix rdf: <http://www.w3.org/1999/02/22-rdf-syntax-ns#> .
@prefix rdfs: <http://www.w3.org/2000/01/rdf-schema#> .
@prefix xsd: <http://www.w3.org/2001/XMLSchema#> .
@prefix skos: <http://www.w3.org/2004/02/skos/core#> .

<http://www.cdisc.org/SDTM_IG/V1>
	rdf:type owl:Ontology ;
.
:IG
	rdf:type bd:SDTMImplementationGuide ;
	isoC:label "SDTM Implementation Guide"^^xsd:string ;
	isoT:hasState :IG_RS ;
	isoT:hasIdentifier :IG_SI ;
	isoT:origin "Created from files: 'sdtm_ig_3-1-2.xlsx'"^^xsd:string ;
	isoT:changeDescription ""^^xsd:string ;
	isoT:creationDate "2008-11-12T00:00:00+00:00"^^xsd:dateTime ;
	isoT:lastChangeDate "2008-11-12T00:00:00+00:00"^^xsd:dateTime ;
	isoT:explanatoryComment ""^^xsd:string ;
	bo:hasManaged :IG_R1 ;
	bo:hasManaged :IG_R2 ;
	bo:hasManaged :IG_R3 ;
	bo:hasManaged :IG_R4 ;
	bo:hasManaged :IG_R5 ;
	bo:hasManaged :IG_R6 ;
	bo:hasManaged :IG_R7 ;
	bo:hasManaged :IG_R8 ;
	bo:hasManaged :IG_R9 ;
	bo:hasManaged :IG_R10 ;
	bo:hasManaged :IG_R11 ;
	bo:hasManaged :IG_R12 ;
	bo:hasManaged :IG_R13 ;
	bo:hasManaged :IG_R14 ;
	bo:hasManaged :IG_R15 ;
	bo:hasManaged :IG_R16 ;
	bo:hasManaged :IG_R17 ;
	bo:hasManaged :IG_R18 ;
	bo:hasManaged :IG_R19 ;
	bo:hasManaged :IG_R20 ;
	bo:hasManaged :IG_R21 ;
	bo:hasManaged :IG_R22 ;
	bo:hasManaged :IG_R23 ;
	bo:hasManaged :IG_R24 ;
	bo:hasManaged :IG_R25 ;
	bo:hasManaged :IG_R26 ;
	bo:hasManaged :IG_R27 ;
	bo:hasManaged :IG_R28 ;
	bo:hasManaged :IG_R29 ;
	bo:hasManaged :IG_R30 ;
	bo:hasManaged :IG_R31 ;
	bo:hasManaged :IG_R32 ;
.
:IG_RS
	rdf:type isoR:RegistrationState ;
	isoR:registrationStatus "Standard"^^xsd:string ;
	isoR:administrativeNote ""^^xsd:string ;
	isoR:effectiveDate "2016-01-01T00:00:00+00:00"^^xsd:dateTime ;
	isoR:untilDate "2016-01-01T00:00:00+00:00"^^xsd:dateTime ;
	isoR:unresolvedIssue ""^^xsd:string ;
	isoR:administrativeStatus ""^^xsd:string ;
	isoR:previousState "Standard"^^xsd:string ;
	isoR:multipleEdit "false"^^xsd:boolean ;
	isoR:byAuthority <http://www.assero.co.uk/RA#DUNS084433759> ;
.
:IG_SI
	rdf:type isoI:ScopedIdentifier ;
	isoI:identifier "SDTM IG"^^xsd:string ;
	isoI:versionLabel "2008-11-12 Release"^^xsd:string ;
	isoI:version "1"^^xsd:positiveInteger ;
	isoI:semanticVersion "3.1.2"^^xsd:string ;
	isoI:hasScope <http://www.assero.co.uk/NS#CDISC> ;
.
:IG_R1
	rdf:type bo:Reference ;
	isoC:label ""^^xsd:string ;
	bo:enabled "true"^^xsd:boolean ;
	bo:optional "false"^^xsd:boolean ;
	bo:ordinal "1"^^xsd:positiveInteger ;
	bo:reference <http://www.cdisc.org/SDTM_IG_AE/V1#IGD> ;
.
:IG_R2
	rdf:type bo:Reference ;
	isoC:label ""^^xsd:string ;
	bo:enabled "true"^^xsd:boolean ;
	bo:optional "false"^^xsd:boolean ;
	bo:ordinal "2"^^xsd:positiveInteger ;
	bo:reference <http://www.cdisc.org/SDTM_IG_DS/V1#IGD> ;
.
:IG_R3
	rdf:type bo:Reference ;
	isoC:label ""^^xsd:string ;
	bo:enabled "true"^^xsd:boolean ;
	bo:optional "false"^^xsd:boolean ;
	bo:ordinal "3"^^xsd:positiveInteger ;
	bo:reference <http://www.cdisc.org/SDTM_IG_MH/V1#IGD> ;
.
:IG_R4
	rdf:type bo:Reference ;
	isoC:label ""^^xsd:string ;
	bo:enabled "true"^^xsd:boolean ;
	bo:optional "false"^^xsd:boolean ;
	bo:ordinal "4"^^xsd:positiveInteger ;
	bo:reference <http://www.cdisc.org/SDTM_IG_DV/V1#IGD> ;
.
:IG_R5
	rdf:type bo:Reference ;
	isoC:label ""^^xsd:string ;
	bo:enabled "true"^^xsd:boolean ;
	bo:optional "false"^^xsd:boolean ;
	bo:ordinal "5"^^xsd:positiveInteger ;
	bo:reference <http://www.cdisc.org/SDTM_IG_CE/V1#IGD> ;
.
:IG_R6
	rdf:type bo:Reference ;
	isoC:label ""^^xsd:string ;
	bo:enabled "true"^^xsd:boolean ;
	bo:optional "false"^^xsd:boolean ;
	bo:ordinal "6"^^xsd:positiveInteger ;
	bo:reference <http://www.cdisc.org/SDTM_IG_EG/V1#IGD> ;
.
:IG_R7
	rdf:type bo:Reference ;
	isoC:label ""^^xsd:string ;
	bo:enabled "true"^^xsd:boolean ;
	bo:optional "false"^^xsd:boolean ;
	bo:ordinal "7"^^xsd:positiveInteger ;
	bo:reference <http://www.cdisc.org/SDTM_IG_IE/V1#IGD> ;
.
:IG_R8
	rdf:type bo:Reference ;
	isoC:label ""^^xsd:string ;
	bo:enabled "true"^^xsd:boolean ;
	bo:optional "false"^^xsd:boolean ;
	bo:ordinal "8"^^xsd:positiveInteger ;
	bo:reference <http://www.cdisc.org/SDTM_IG_LB/V1#IGD> ;
.
:IG_R9
	rdf:type bo:Reference ;
	isoC:label ""^^xsd:string ;
	bo:enabled "true"^^xsd:boolean ;
	bo:optional "false"^^xsd:boolean ;
	bo:ordinal "9"^^xsd:positiveInteger ;
	bo:reference <http://www.cdisc.org/SDTM_IG_PE/V1#IGD> ;
.
:IG_R10
	rdf:type bo:Reference ;
	isoC:label ""^^xsd:string ;
	bo:enabled "true"^^xsd:boolean ;
	bo:optional "false"^^xsd:boolean ;
	bo:ordinal "10"^^xsd:positiveInteger ;
	bo:reference <http://www.cdisc.org/SDTM_IG_QS/V1#IGD> ;
.
:IG_R11
	rdf:type bo:Reference ;
	isoC:label ""^^xsd:string ;
	bo:enabled "true"^^xsd:boolean ;
	bo:optional "false"^^xsd:boolean ;
	bo:ordinal "11"^^xsd:positiveInteger ;
	bo:reference <http://www.cdisc.org/SDTM_IG_SC/V1#IGD> ;
.
:IG_R12
	rdf:type bo:Reference ;
	isoC:label ""^^xsd:string ;
	bo:enabled "true"^^xsd:boolean ;
	bo:optional "false"^^xsd:boolean ;
	bo:ordinal "12"^^xsd:positiveInteger ;
	bo:reference <http://www.cdisc.org/SDTM_IG_VS/V1#IGD> ;
.
:IG_R13
	rdf:type bo:Reference ;
	isoC:label ""^^xsd:string ;
	bo:enabled "true"^^xsd:boolean ;
	bo:optional "false"^^xsd:boolean ;
	bo:ordinal "13"^^xsd:positiveInteger ;
	bo:reference <http://www.cdisc.org/SDTM_IG_DA/V1#IGD> ;
.
:IG_R14
	rdf:type bo:Reference ;
	isoC:label ""^^xsd:string ;
	bo:enabled "true"^^xsd:boolean ;
	bo:optional "false"^^xsd:boolean ;
	bo:ordinal "14"^^xsd:positiveInteger ;
	bo:reference <http://www.cdisc.org/SDTM_IG_MB/V1#IGD> ;
.
:IG_R15
	rdf:type bo:Reference ;
	isoC:label ""^^xsd:string ;
	bo:enabled "true"^^xsd:boolean ;
	bo:optional "false"^^xsd:boolean ;
	bo:ordinal "15"^^xsd:positiveInteger ;
	bo:reference <http://www.cdisc.org/SDTM_IG_MS/V1#IGD> ;
.
:IG_R16
	rdf:type bo:Reference ;
	isoC:label ""^^xsd:string ;
	bo:enabled "true"^^xsd:boolean ;
	bo:optional "false"^^xsd:boolean ;
	bo:ordinal "16"^^xsd:positiveInteger ;
	bo:reference <http://www.cdisc.org/SDTM_IG_PC/V1#IGD> ;
.
:IG_R17
	rdf:type bo:Reference ;
	isoC:label ""^^xsd:string ;
	bo:enabled "true"^^xsd:boolean ;
	bo:optional "false"^^xsd:boolean ;
	bo:ordinal "17"^^xsd:positiveInteger ;
	bo:reference <http://www.cdisc.org/SDTM_IG_PP/V1#IGD> ;
.
:IG_R18
	rdf:type bo:Reference ;
	isoC:label ""^^xsd:string ;
	bo:enabled "true"^^xsd:boolean ;
	bo:optional "false"^^xsd:boolean ;
	bo:ordinal "18"^^xsd:positiveInteger ;
	bo:reference <http://www.cdisc.org/SDTM_IG_FA/V1#IGD> ;
.
:IG_R19
	rdf:type bo:Reference ;
	isoC:label ""^^xsd:string ;
	bo:enabled "true"^^xsd:boolean ;
	bo:optional "false"^^xsd:boolean ;
	bo:ordinal "19"^^xsd:positiveInteger ;
	bo:reference <http://www.cdisc.org/SDTM_IG_CM/V1#IGD> ;
.
:IG_R20
	rdf:type bo:Reference ;
	isoC:label ""^^xsd:string ;
	bo:enabled "true"^^xsd:boolean ;
	bo:optional "false"^^xsd:boolean ;
	bo:ordinal "20"^^xsd:positiveInteger ;
	bo:reference <http://www.cdisc.org/SDTM_IG_EX/V1#IGD> ;
.
:IG_R21
	rdf:type bo:Reference ;
	isoC:label ""^^xsd:string ;
	bo:enabled "true"^^xsd:boolean ;
	bo:optional "false"^^xsd:boolean ;
	bo:ordinal "21"^^xsd:positiveInteger ;
	bo:reference <http://www.cdisc.org/SDTM_IG_SU/V1#IGD> ;
.
:IG_R22
	rdf:type bo:Reference ;
	isoC:label ""^^xsd:string ;
	bo:enabled "true"^^xsd:boolean ;
	bo:optional "false"^^xsd:boolean ;
	bo:ordinal "22"^^xsd:positiveInteger ;
	bo:reference <http://www.cdisc.org/SDTM_IG_RELREC/V1#IGD> ;
.
:IG_R23
	rdf:type bo:Reference ;
	isoC:label ""^^xsd:string ;
	bo:enabled "true"^^xsd:boolean ;
	bo:optional "false"^^xsd:boolean ;
	bo:ordinal "23"^^xsd:positiveInteger ;
	bo:reference <http://www.cdisc.org/SDTM_IG_SE/V1#IGD> ;
.
:IG_R24
	rdf:type bo:Reference ;
	isoC:label ""^^xsd:string ;
	bo:enabled "true"^^xsd:boolean ;
	bo:optional "false"^^xsd:boolean ;
	bo:ordinal "24"^^xsd:positiveInteger ;
	bo:reference <http://www.cdisc.org/SDTM_IG_CO/V1#IGD> ;
.
:IG_R25
	rdf:type bo:Reference ;
	isoC:label ""^^xsd:string ;
	bo:enabled "true"^^xsd:boolean ;
	bo:optional "false"^^xsd:boolean ;
	bo:ordinal "25"^^xsd:positiveInteger ;
	bo:reference <http://www.cdisc.org/SDTM_IG_DM/V1#IGD> ;
.
:IG_R26
	rdf:type bo:Reference ;
	isoC:label ""^^xsd:string ;
	bo:enabled "true"^^xsd:boolean ;
	bo:optional "false"^^xsd:boolean ;
	bo:ordinal "26"^^xsd:positiveInteger ;
	bo:reference <http://www.cdisc.org/SDTM_IG_SV/V1#IGD> ;
.
:IG_R27
	rdf:type bo:Reference ;
	isoC:label ""^^xsd:string ;
	bo:enabled "true"^^xsd:boolean ;
	bo:optional "false"^^xsd:boolean ;
	bo:ordinal "27"^^xsd:positiveInteger ;
	bo:reference <http://www.cdisc.org/SDTM_IG_SUPPQUAL/V1#IGD> ;
.
:IG_R28
	rdf:type bo:Reference ;
	isoC:label ""^^xsd:string ;
	bo:enabled "true"^^xsd:boolean ;
	bo:optional "false"^^xsd:boolean ;
	bo:ordinal "28"^^xsd:positiveInteger ;
	bo:reference <http://www.cdisc.org/SDTM_IG_TA/V1#IGD> ;
.
:IG_R29
	rdf:type bo:Reference ;
	isoC:label ""^^xsd:string ;
	bo:enabled "true"^^xsd:boolean ;
	bo:optional "false"^^xsd:boolean ;
	bo:ordinal "29"^^xsd:positiveInteger ;
	bo:reference <http://www.cdisc.org/SDTM_IG_TV/V1#IGD> ;
.
:IG_R30
	rdf:type bo:Reference ;
	isoC:label ""^^xsd:string ;
	bo:enabled "true"^^xsd:boolean ;
	bo:optional "false"^^xsd:boolean ;
	bo:ordinal "30"^^xsd:positiveInteger ;
	bo:reference <http://www.cdisc.org/SDTM_IG_TE/V1#IGD> ;
.
:IG_R31
	rdf:type bo:Reference ;
	isoC:label ""^^xsd:string ;
	bo:enabled "true"^^xsd:boolean ;
	bo:optional "false"^^xsd:boolean ;
	bo:ordinal "31"^^xsd:positiveInteger ;
	bo:reference <http://www.cdisc.org/SDTM_IG_TI/V1#IGD> ;
.
:IG_R32
	rdf:type bo:Reference ;
	isoC:label ""^^xsd:string ;
	bo:enabled "true"^^xsd:boolean ;
	bo:optional "false"^^xsd:boolean ;
	bo:ordinal "32"^^xsd:positiveInteger ;
	bo:reference <http://www.cdisc.org/SDTM_IG_TS/V1#IGD> ;
.
<http://www.cdisc.org/SDTM_IG_AE/V1#IGD>
	rdf:type bd:SdtmDomain ;
	isoC:label "Adverse Events"^^xsd:string ;
	isoT:hasState <http://www.cdisc.org/SDTM_IG_AE/V1#IGD_RS> ;
	isoT:hasIdentifier <http://www.cdisc.org/SDTM_IG_AE/V1#IGD_SI> ;
	isoT:origin ""^^xsd:string ;
	isoT:changeDescription ""^^xsd:string ;
	isoT:creationDate "2008-11-12T00:00:00+00:00"^^xsd:dateTime ;
	isoT:lastChangeDate "2008-11-12T00:00:00+00:00"^^xsd:dateTime ;
	isoT:explanatoryComment ""^^xsd:string ;
	bd:rule ""^^xsd:string ;
	bd:ordinal "1"^^xsd:positiveInteger ;
	bd:includesColumn <http://www.cdisc.org/SDTM_IG_AE/V1#IGD_STUDYID> ;
	bd:includesColumn <http://www.cdisc.org/SDTM_IG_AE/V1#IGD_DOMAIN> ;
	bd:includesColumn <http://www.cdisc.org/SDTM_IG_AE/V1#IGD_USUBJID> ;
	bd:includesColumn <http://www.cdisc.org/SDTM_IG_AE/V1#IGD_AESEQ> ;
	bd:includesColumn <http://www.cdisc.org/SDTM_IG_AE/V1#IGD_AEGRPID> ;
	bd:includesColumn <http://www.cdisc.org/SDTM_IG_AE/V1#IGD_AEREFID> ;
	bd:includesColumn <http://www.cdisc.org/SDTM_IG_AE/V1#IGD_AESPID> ;
	bd:includesColumn <http://www.cdisc.org/SDTM_IG_AE/V1#IGD_AETERM> ;
	bd:includesColumn <http://www.cdisc.org/SDTM_IG_AE/V1#IGD_AEMODIFY> ;
	bd:includesColumn <http://www.cdisc.org/SDTM_IG_AE/V1#IGD_AEDECOD> ;
	bd:includesColumn <http://www.cdisc.org/SDTM_IG_AE/V1#IGD_AECAT> ;
	bd:includesColumn <http://www.cdisc.org/SDTM_IG_AE/V1#IGD_AESCAT> ;
	bd:includesColumn <http://www.cdisc.org/SDTM_IG_AE/V1#IGD_AEPRESP> ;
	bd:includesColumn <http://www.cdisc.org/SDTM_IG_AE/V1#IGD_AEBODSYS> ;
	bd:includesColumn <http://www.cdisc.org/SDTM_IG_AE/V1#IGD_AELOC> ;
	bd:includesColumn <http://www.cdisc.org/SDTM_IG_AE/V1#IGD_AESEV> ;
	bd:includesColumn <http://www.cdisc.org/SDTM_IG_AE/V1#IGD_AESER> ;
	bd:includesColumn <http://www.cdisc.org/SDTM_IG_AE/V1#IGD_AEACN> ;
	bd:includesColumn <http://www.cdisc.org/SDTM_IG_AE/V1#IGD_AEACNOTH> ;
	bd:includesColumn <http://www.cdisc.org/SDTM_IG_AE/V1#IGD_AEREL> ;
	bd:includesColumn <http://www.cdisc.org/SDTM_IG_AE/V1#IGD_AERELNST> ;
	bd:includesColumn <http://www.cdisc.org/SDTM_IG_AE/V1#IGD_AEPATT> ;
	bd:includesColumn <http://www.cdisc.org/SDTM_IG_AE/V1#IGD_AEOUT> ;
	bd:includesColumn <http://www.cdisc.org/SDTM_IG_AE/V1#IGD_AESCAN> ;
	bd:includesColumn <http://www.cdisc.org/SDTM_IG_AE/V1#IGD_AESCONG> ;
	bd:includesColumn <http://www.cdisc.org/SDTM_IG_AE/V1#IGD_AESDISAB> ;
	bd:includesColumn <http://www.cdisc.org/SDTM_IG_AE/V1#IGD_AESDTH> ;
	bd:includesColumn <http://www.cdisc.org/SDTM_IG_AE/V1#IGD_AESHOSP> ;
	bd:includesColumn <http://www.cdisc.org/SDTM_IG_AE/V1#IGD_AESLIFE> ;
	bd:includesColumn <http://www.cdisc.org/SDTM_IG_AE/V1#IGD_AESOD> ;
	bd:includesColumn <http://www.cdisc.org/SDTM_IG_AE/V1#IGD_AESMIE> ;
	bd:includesColumn <http://www.cdisc.org/SDTM_IG_AE/V1#IGD_AECONTRT> ;
	bd:includesColumn <http://www.cdisc.org/SDTM_IG_AE/V1#IGD_AETOXGR> ;
	bd:includesColumn <http://www.cdisc.org/SDTM_IG_AE/V1#IGD_AESTDTC> ;
	bd:includesColumn <http://www.cdisc.org/SDTM_IG_AE/V1#IGD_AEENDTC> ;
	bd:includesColumn <http://www.cdisc.org/SDTM_IG_AE/V1#IGD_AESTDY> ;
	bd:includesColumn <http://www.cdisc.org/SDTM_IG_AE/V1#IGD_AEENDY> ;
	bd:includesColumn <http://www.cdisc.org/SDTM_IG_AE/V1#IGD_AEDUR> ;
	bd:includesColumn <http://www.cdisc.org/SDTM_IG_AE/V1#IGD_AEENRF> ;
	bd:includesColumn <http://www.cdisc.org/SDTM_IG_AE/V1#IGD_AEENRTPT> ;
	bd:includesColumn <http://www.cdisc.org/SDTM_IG_AE/V1#IGD_AEENTPT> ;
	bd:prefix "AE"^^xsd:string ;
	bd:structure "One record per adverse event per subject"^^xsd:string ;
	bd:basedOnClass <http://www.cdisc.org/SDTM_MODEL_EVENTS/V1#CL> ;
.
<http://www.cdisc.org/SDTM_IG_AE/V1#IGD_RS>
	rdf:type isoR:RegistrationState ;
	isoR:registrationStatus "Standard"^^xsd:string ;
	isoR:administrativeNote ""^^xsd:string ;
	isoR:effectiveDate "2016-01-01T00:00:00+00:00"^^xsd:dateTime ;
	isoR:untilDate "2016-01-01T00:00:00+00:00"^^xsd:dateTime ;
	isoR:unresolvedIssue ""^^xsd:string ;
	isoR:administrativeStatus ""^^xsd:string ;
	isoR:previousState "Standard"^^xsd:string ;
	isoR:multipleEdit "false"^^xsd:boolean ;
	isoR:byAuthority <http://www.assero.co.uk/RA#DUNS084433759> ;
.
<http://www.cdisc.org/SDTM_IG_AE/V1#IGD_SI>
	rdf:type isoI:ScopedIdentifier ;
	isoI:identifier "SDTM IG AE"^^xsd:string ;
	isoI:versionLabel "2008-11-12 Release"^^xsd:string ;
	isoI:version "1"^^xsd:positiveInteger ;
	isoI:semanticVersion "3.1.2"^^xsd:string ;
	isoI:hasScope <http://www.assero.co.uk/NS#CDISC> ;
.
<http://www.cdisc.org/SDTM_IG_AE/V1#IGD_STUDYID>
	rdf:type bd:SdtmDomainVariable ;
	isoC:label "Study Identifier"^^xsd:string ;
	bd:rule ""^^xsd:string ;
	bd:ordinal "1"^^xsd:positiveInteger ;
	bd:name "STUDYID"^^xsd:string ;
	bd:description "Unique identifier for a study."^^xsd:string ;
	bd:format ""^^xsd:string ;
	bd:ctAndFormat ""^^xsd:string ;
	bd:compliance <http://www.assero.co.uk/CSN#52070084-cdd3-4ba8-8377-f670e4b0276c> ;
	bd:basedOnClassVariable <http://www.cdisc.org/SDTM_MODEL_ALL/V1#CL_STUDYID> ;
.
<http://www.cdisc.org/SDTM_IG_AE/V1#IGD_DOMAIN>
	rdf:type bd:SdtmDomainVariable ;
	isoC:label "Domain Abbreviation"^^xsd:string ;
	bd:rule ""^^xsd:string ;
	bd:ordinal "2"^^xsd:positiveInteger ;
	bd:name "DOMAIN"^^xsd:string ;
	bd:description "Two-character abbreviation for the domain."^^xsd:string ;
	bd:format ""^^xsd:string ;
	bd:ctAndFormat ""^^xsd:string ;
	bd:compliance <http://www.assero.co.uk/CSN#52070084-cdd3-4ba8-8377-f670e4b0276c> ;
	bd:basedOnClassVariable <http://www.cdisc.org/SDTM_MODEL_ALL/V1#CL_DOMAIN> ;
.
<http://www.cdisc.org/SDTM_IG_AE/V1#IGD_USUBJID>
	rdf:type bd:SdtmDomainVariable ;
	isoC:label "Unique Subject Identifier"^^xsd:string ;
	bd:rule ""^^xsd:string ;
	bd:ordinal "3"^^xsd:positiveInteger ;
	bd:name "USUBJID"^^xsd:string ;
	bd:description "Identifier used to uniquely identify a subject across all studies for all applications or submissions involving the product."^^xsd:string ;
	bd:format ""^^xsd:string ;
	bd:ctAndFormat ""^^xsd:string ;
	bd:compliance <http://www.assero.co.uk/CSN#52070084-cdd3-4ba8-8377-f670e4b0276c> ;
	bd:basedOnClassVariable <http://www.cdisc.org/SDTM_MODEL_ALL/V1#CL_USUBJID> ;
.
<http://www.cdisc.org/SDTM_IG_AE/V1#IGD_AESEQ>
	rdf:type bd:SdtmDomainVariable ;
	isoC:label "Sequence Number"^^xsd:string ;
	bd:rule ""^^xsd:string ;
	bd:ordinal "4"^^xsd:positiveInteger ;
	bd:name "AESEQ"^^xsd:string ;
	bd:description "Sequence Number given to ensure uniqueness of subject records within a domain. May be any valid number."^^xsd:string ;
	bd:format ""^^xsd:string ;
	bd:ctAndFormat ""^^xsd:string ;
	bd:compliance <http://www.assero.co.uk/CSN#52070084-cdd3-4ba8-8377-f670e4b0276c> ;
	bd:basedOnClassVariable <http://www.cdisc.org/SDTM_MODEL_ALL/V1#CL_--SEQ> ;
.
<http://www.cdisc.org/SDTM_IG_AE/V1#IGD_AEGRPID>
	rdf:type bd:SdtmDomainVariable ;
	isoC:label "Group ID"^^xsd:string ;
	bd:rule ""^^xsd:string ;
	bd:ordinal "5"^^xsd:positiveInteger ;
	bd:name "AEGRPID"^^xsd:string ;
	bd:description "Used to tie together a block of related records in a single domain for a subject."^^xsd:string ;
	bd:format ""^^xsd:string ;
	bd:ctAndFormat ""^^xsd:string ;
	bd:compliance <http://www.assero.co.uk/CSN#f7d9d4e1-a00a-487e-89db-ebece910ba0d> ;
	bd:basedOnClassVariable <http://www.cdisc.org/SDTM_MODEL_ALL/V1#CL_--GRPID> ;
.
<http://www.cdisc.org/SDTM_IG_AE/V1#IGD_AEREFID>
	rdf:type bd:SdtmDomainVariable ;
	isoC:label "Reference ID"^^xsd:string ;
	bd:rule ""^^xsd:string ;
	bd:ordinal "6"^^xsd:positiveInteger ;
	bd:name "AEREFID"^^xsd:string ;
	bd:description "Internal or external identifier such as a serial number on an SAE reporting form"^^xsd:string ;
	bd:format ""^^xsd:string ;
	bd:ctAndFormat ""^^xsd:string ;
	bd:compliance <http://www.assero.co.uk/CSN#f7d9d4e1-a00a-487e-89db-ebece910ba0d> ;
	bd:basedOnClassVariable <http://www.cdisc.org/SDTM_MODEL_ALL/V1#CL_--REFID> ;
.
<http://www.cdisc.org/SDTM_IG_AE/V1#IGD_AESPID>
	rdf:type bd:SdtmDomainVariable ;
	isoC:label "Sponsor-Defined Identifier"^^xsd:string ;
	bd:rule ""^^xsd:string ;
	bd:ordinal "7"^^xsd:positiveInteger ;
	bd:name "AESPID"^^xsd:string ;
	bd:description "Sponsor-defined identifier. It may be pre-printed on the CRF as an explicit line identifier or defined in the sponsor's operational database. Example: Line number on an Adverse Events page."^^xsd:string ;
	bd:format ""^^xsd:string ;
	bd:ctAndFormat ""^^xsd:string ;
	bd:compliance <http://www.assero.co.uk/CSN#f7d9d4e1-a00a-487e-89db-ebece910ba0d> ;
	bd:basedOnClassVariable <http://www.cdisc.org/SDTM_MODEL_ALL/V1#CL_--SPID> ;
.
<http://www.cdisc.org/SDTM_IG_AE/V1#IGD_AETERM>
	rdf:type bd:SdtmDomainVariable ;
	isoC:label "Reported Term for the Adverse Event"^^xsd:string ;
	bd:rule ""^^xsd:string ;
	bd:ordinal "8"^^xsd:positiveInteger ;
	bd:name "AETERM"^^xsd:string ;
	bd:description "Verbatim name of the event."^^xsd:string ;
	bd:format ""^^xsd:string ;
	bd:ctAndFormat ""^^xsd:string ;
	bd:compliance <http://www.assero.co.uk/CSN#52070084-cdd3-4ba8-8377-f670e4b0276c> ;
	bd:basedOnClassVariable <http://www.cdisc.org/SDTM_MODEL_EVENTS/V1#CL_--TERM> ;
	bd:isA <http://www.s-cubed.dk/CAR#2a4eb8036d87ab68656ba5b80bbf77123f088904> ;
.
<http://www.cdisc.org/SDTM_IG_AE/V1#IGD_AEMODIFY>
	rdf:type bd:SdtmDomainVariable ;
	isoC:label "Modified Reported Term"^^xsd:string ;
	bd:rule ""^^xsd:string ;
	bd:ordinal "9"^^xsd:positiveInteger ;
	bd:name "AEMODIFY"^^xsd:string ;
	bd:description "If AETERM is modified to facilitate coding, then AEMODIFY will contain the modified text."^^xsd:string ;
	bd:format ""^^xsd:string ;
	bd:ctAndFormat ""^^xsd:string ;
	bd:compliance <http://www.assero.co.uk/CSN#f7d9d4e1-a00a-487e-89db-ebece910ba0d> ;
	bd:basedOnClassVariable <http://www.cdisc.org/SDTM_MODEL_EVENTS/V1#CL_--MODIFY> ;
.
<http://www.cdisc.org/SDTM_IG_AE/V1#IGD_AEDECOD>
	rdf:type bd:SdtmDomainVariable ;
	isoC:label "Dictionary-Derived Term"^^xsd:string ;
	bd:rule ""^^xsd:string ;
	bd:ordinal "10"^^xsd:positiveInteger ;
	bd:name "AEDECOD"^^xsd:string ;
	bd:description "Dictionary-derived text description of AETERM or AEMODIFY. Equivalent to the Preferred Term (PT in MedDRA). The sponsor is expected to provide the dictionary name and version used to map the terms utilizing the define.xml external codelist attributes"^^xsd:string ;
	bd:format ""^^xsd:string ;
	bd:ctAndFormat ""^^xsd:string ;
	bd:compliance <http://www.assero.co.uk/CSN#52070084-cdd3-4ba8-8377-f670e4b0276c> ;
	bd:basedOnClassVariable <http://www.cdisc.org/SDTM_MODEL_EVENTS/V1#CL_--DECOD> ;
.
<http://www.cdisc.org/SDTM_IG_AE/V1#IGD_AECAT>
	rdf:type bd:SdtmDomainVariable ;
	isoC:label "Category for Adverse Event"^^xsd:string ;
	bd:rule ""^^xsd:string ;
	bd:ordinal "11"^^xsd:positiveInteger ;
	bd:name "AECAT"^^xsd:string ;
	bd:description "Used to define a category of related records. Example: BLEEDING, NEUROPSYCHIATRIC."^^xsd:string ;
	bd:format ""^^xsd:string ;
	bd:ctAndFormat ""^^xsd:string ;
	bd:compliance <http://www.assero.co.uk/CSN#f7d9d4e1-a00a-487e-89db-ebece910ba0d> ;
	bd:basedOnClassVariable <http://www.cdisc.org/SDTM_MODEL_EVENTS/V1#CL_--CAT> ;
	bd:isA <http://www.s-cubed.dk/CAR#a3c686e711e4720f99b4562bb3dbaae7ab658cf2> ;
.
<http://www.cdisc.org/SDTM_IG_AE/V1#IGD_AESCAT>
	rdf:type bd:SdtmDomainVariable ;
	isoC:label "Subcategory for Adverse Event"^^xsd:string ;
	bd:rule ""^^xsd:string ;
	bd:ordinal "12"^^xsd:positiveInteger ;
	bd:name "AESCAT"^^xsd:string ;
	bd:description "A further categorization of adverse event. Example: NEUROLOGIC."^^xsd:string ;
	bd:format ""^^xsd:string ;
	bd:ctAndFormat ""^^xsd:string ;
	bd:compliance <http://www.assero.co.uk/CSN#f7d9d4e1-a00a-487e-89db-ebece910ba0d> ;
	bd:basedOnClassVariable <http://www.cdisc.org/SDTM_MODEL_EVENTS/V1#CL_--SCAT> ;
	bd:isA <http://www.s-cubed.dk/CAR#479a67983e739413da55faf0dc509f83fd5dea64> ;
.
<http://www.cdisc.org/SDTM_IG_AE/V1#IGD_AEPRESP>
	rdf:type bd:SdtmDomainVariable ;
	isoC:label "Pre-Specified Adverse Event"^^xsd:string ;
	bd:rule ""^^xsd:string ;
	bd:ordinal "13"^^xsd:positiveInteger ;
	bd:name "AEPRESP"^^xsd:string ;
	bd:description "A value of 'Y' indicates that this adverse event was pre-specified on the CRF. Values are null for spontaneously reported events (i.e., those collected as free-text verbatim terms)"^^xsd:string ;
	bd:format ""^^xsd:string ;
	bd:ctAndFormat "(NY)"^^xsd:string ;
	bd:compliance <http://www.assero.co.uk/CSN#f7d9d4e1-a00a-487e-89db-ebece910ba0d> ;
	bd:ctReference <http://www.cdisc.org/SDTM_IG_AE/V1#IGD_AEPRESP_TMC1> ;
	bd:basedOnClassVariable <http://www.cdisc.org/SDTM_MODEL_EVENTS/V1#CL_--PRESP> ;
	bd:isA <http://www.s-cubed.dk/CAR#b724045eaf94ce25b3eaa5cd7d2d5bf66de219b1> ;
.
<http://www.cdisc.org/SDTM_IG_AE/V1#IGD_AEPRESP_TMC1>
	rdf:type bo:TMcReference ;
	isoC:label "NY"^^xsd:string ;
	bo:enabled "true"^^xsd:boolean ;
	bo:optional "false"^^xsd:boolean ;
	bo:ordinal "1"^^xsd:positiveInteger ;
	bo:reference <http://www.cdisc.org/C66742/V4#C66742> ;
	bo:context <http://www.cdisc.org/CT/V13#TH> ;
.
<http://www.cdisc.org/SDTM_IG_AE/V1#IGD_AEBODSYS>
	rdf:type bd:SdtmDomainVariable ;
	isoC:label "Body System or Organ Class"^^xsd:string ;
	bd:rule ""^^xsd:string ;
	bd:ordinal "14"^^xsd:positiveInteger ;
	bd:name "AEBODSYS"^^xsd:string ;
	bd:description "Dictionary derived. Body system or organ class used by the sponsor from the coding dictionary (e.g., MedDRA). When using a multi-axial dictionary such as MedDRA, this should contain the SOC used for the sponsor's analyses and summary tables which may not necessarily be the primary SOC."^^xsd:string ;
	bd:format ""^^xsd:string ;
	bd:ctAndFormat ""^^xsd:string ;
	bd:compliance <http://www.assero.co.uk/CSN#046f6c24-9eaf-4f60-8390-f36328c82ec4> ;
	bd:basedOnClassVariable <http://www.cdisc.org/SDTM_MODEL_EVENTS/V1#CL_--BODSYS> ;
.
<http://www.cdisc.org/SDTM_IG_AE/V1#IGD_AELOC>
	rdf:type bd:SdtmDomainVariable ;
	isoC:label "Location of Event"^^xsd:string ;
	bd:rule ""^^xsd:string ;
	bd:ordinal "15"^^xsd:positiveInteger ;
	bd:name "AELOC"^^xsd:string ;
	bd:description "Describes anatomical location relevant for the event (e.g., LEFT ARM for skin rash)."^^xsd:string ;
	bd:format ""^^xsd:string ;
	bd:ctAndFormat "(LOC)"^^xsd:string ;
	bd:compliance <http://www.assero.co.uk/CSN#f7d9d4e1-a00a-487e-89db-ebece910ba0d> ;
	bd:ctReference <http://www.cdisc.org/SDTM_IG_AE/V1#IGD_AELOC_TMC1> ;
	bd:basedOnClassVariable <http://www.cdisc.org/SDTM_MODEL_EVENTS/V1#CL_--LOC> ;
	bd:isA <http://www.s-cubed.dk/CAR#d219c68101f532de10add2cf42fb9dbeca73d3be> ;
.
<http://www.cdisc.org/SDTM_IG_AE/V1#IGD_AELOC_TMC1>
	rdf:type bo:TMcReference ;
	isoC:label "LOC"^^xsd:string ;
	bo:enabled "true"^^xsd:boolean ;
	bo:optional "false"^^xsd:boolean ;
	bo:ordinal "1"^^xsd:positiveInteger ;
	bo:reference <http://www.cdisc.org/C74456/V8#C74456> ;
	bo:context <http://www.cdisc.org/CT/V13#TH> ;
.
<http://www.cdisc.org/SDTM_IG_AE/V1#IGD_AESEV>
	rdf:type bd:SdtmDomainVariable ;
	isoC:label "Severity/Intensity"^^xsd:string ;
	bd:rule ""^^xsd:string ;
	bd:ordinal "16"^^xsd:positiveInteger ;
	bd:name "AESEV"^^xsd:string ;
	bd:description "The severity or intensity of the event. Examples: MILD, MODERATE, SEVERE."^^xsd:string ;
	bd:format ""^^xsd:string ;
	bd:ctAndFormat "(AESEV)"^^xsd:string ;
	bd:compliance <http://www.assero.co.uk/CSN#f7d9d4e1-a00a-487e-89db-ebece910ba0d> ;
	bd:ctReference <http://www.cdisc.org/SDTM_IG_AE/V1#IGD_AESEV_TMC1> ;
	bd:basedOnClassVariable <http://www.cdisc.org/SDTM_MODEL_EVENTS/V1#CL_--SEV> ;
	bd:isA <http://www.s-cubed.dk/CAR#de314fa0c9d9e359b633f2fdab4659c886fe5986> ;
.
<http://www.cdisc.org/SDTM_IG_AE/V1#IGD_AESEV_TMC1>
	rdf:type bo:TMcReference ;
	isoC:label "AESEV"^^xsd:string ;
	bo:enabled "true"^^xsd:boolean ;
	bo:optional "false"^^xsd:boolean ;
	bo:ordinal "1"^^xsd:positiveInteger ;
	bo:reference <http://www.cdisc.org/C66769/V4#C66769> ;
	bo:context <http://www.cdisc.org/CT/V13#TH> ;
.
<http://www.cdisc.org/SDTM_IG_AE/V1#IGD_AESER>
	rdf:type bd:SdtmDomainVariable ;
	isoC:label "Serious Event"^^xsd:string ;
	bd:rule ""^^xsd:string ;
	bd:ordinal "17"^^xsd:positiveInteger ;
	bd:name "AESER"^^xsd:string ;
	bd:description "Is this a serious event?"^^xsd:string ;
	bd:format ""^^xsd:string ;
	bd:ctAndFormat "(NY)"^^xsd:string ;
	bd:compliance <http://www.assero.co.uk/CSN#046f6c24-9eaf-4f60-8390-f36328c82ec4> ;
	bd:ctReference <http://www.cdisc.org/SDTM_IG_AE/V1#IGD_AESER_TMC1> ;
	bd:basedOnClassVariable <http://www.cdisc.org/SDTM_MODEL_EVENTS/V1#CL_--SER> ;
	bd:isA <http://www.s-cubed.dk/CAR#bc7845e67c63c354e69a957bab304d72da2f9fb7> ;
.
<http://www.cdisc.org/SDTM_IG_AE/V1#IGD_AESER_TMC1>
	rdf:type bo:TMcReference ;
	isoC:label "NY"^^xsd:string ;
	bo:enabled "true"^^xsd:boolean ;
	bo:optional "false"^^xsd:boolean ;
	bo:ordinal "1"^^xsd:positiveInteger ;
	bo:reference <http://www.cdisc.org/C66742/V4#C66742> ;
	bo:context <http://www.cdisc.org/CT/V13#TH> ;
.
<http://www.cdisc.org/SDTM_IG_AE/V1#IGD_AEACN>
	rdf:type bd:SdtmDomainVariable ;
	isoC:label "Action Taken with Study Treatment"^^xsd:string ;
	bd:rule ""^^xsd:string ;
	bd:ordinal "18"^^xsd:positiveInteger ;
	bd:name "AEACN"^^xsd:string ;
	bd:description "Describes changes to the study treatment as a result of the event. AEACN is specifically for the relationship to study treatment. AEACNOTH is for actions unrelated to dose adjustments of study treatment. Examples of AEACN values include ICH E2B values: DRUG WITHDRAWN, DOSE REDUCED, DOSE INCREASED, DOSE NOT CHANGED, UNKNOWN or NOT APPLICABLE"^^xsd:string ;
	bd:format ""^^xsd:string ;
	bd:ctAndFormat "(ACN)"^^xsd:string ;
	bd:compliance <http://www.assero.co.uk/CSN#046f6c24-9eaf-4f60-8390-f36328c82ec4> ;
	bd:ctReference <http://www.cdisc.org/SDTM_IG_AE/V1#IGD_AEACN_TMC1> ;
	bd:basedOnClassVariable <http://www.cdisc.org/SDTM_MODEL_EVENTS/V1#CL_--ACN> ;
	bd:isA <http://www.s-cubed.dk/CAR#485290959383eee39c093e50e84fdc851ac37a32> ;
.
<http://www.cdisc.org/SDTM_IG_AE/V1#IGD_AEACN_TMC1>
	rdf:type bo:TMcReference ;
	isoC:label "ACN"^^xsd:string ;
	bo:enabled "true"^^xsd:boolean ;
	bo:optional "false"^^xsd:boolean ;
	bo:ordinal "1"^^xsd:positiveInteger ;
	bo:reference <http://www.cdisc.org/C66767/V4#C66767> ;
	bo:context <http://www.cdisc.org/CT/V13#TH> ;
.
<http://www.cdisc.org/SDTM_IG_AE/V1#IGD_AEACNOTH>
	rdf:type bd:SdtmDomainVariable ;
	isoC:label "Other Action Taken"^^xsd:string ;
	bd:rule ""^^xsd:string ;
	bd:ordinal "19"^^xsd:positiveInteger ;
	bd:name "AEACNOTH"^^xsd:string ;
	bd:description "Describes other actions taken as a result of the event that are unrelated to dose adjustments of study treatment. Usually reported as free text. Example: 'TREATMENT UNBLINDED. PRIMARY CARE PHYSICIAN NOTIFIED.'"^^xsd:string ;
	bd:format ""^^xsd:string ;
	bd:ctAndFormat ""^^xsd:string ;
	bd:compliance <http://www.assero.co.uk/CSN#f7d9d4e1-a00a-487e-89db-ebece910ba0d> ;
	bd:basedOnClassVariable <http://www.cdisc.org/SDTM_MODEL_EVENTS/V1#CL_--ACNOTH> ;
	bd:isA <http://www.s-cubed.dk/CAR#1baf5ac06f7430ac72727c2dfb3f152e07d9d5da> ;
.
<http://www.cdisc.org/SDTM_IG_AE/V1#IGD_AEREL>
	rdf:type bd:SdtmDomainVariable ;
	isoC:label "Causality"^^xsd:string ;
	bd:rule ""^^xsd:string ;
	bd:ordinal "20"^^xsd:positiveInteger ;
	bd:name "AEREL"^^xsd:string ;
	bd:description "Records the investigator's opinion as to the causality of the event to the treatment. ICH E2A and E2B examples include NOT RELATED, UNLIKELY RELATED, POSSIBLY RELATED, RELATED. Controlled Terminology may be defined in the future. Check with regulatory authority for population of this variable"^^xsd:string ;
	bd:format ""^^xsd:string ;
	bd:ctAndFormat ""^^xsd:string ;
	bd:compliance <http://www.assero.co.uk/CSN#046f6c24-9eaf-4f60-8390-f36328c82ec4> ;
	bd:basedOnClassVariable <http://www.cdisc.org/SDTM_MODEL_EVENTS/V1#CL_--REL> ;
.
<http://www.cdisc.org/SDTM_IG_AE/V1#IGD_AERELNST>
	rdf:type bd:SdtmDomainVariable ;
	isoC:label "Relationship to Non-Study Treatment"^^xsd:string ;
	bd:rule ""^^xsd:string ;
	bd:ordinal "21"^^xsd:positiveInteger ;
	bd:name "AERELNST"^^xsd:string ;
	bd:description "Records the investigator's opinion as to whether the event may have been due to a treatment other than study drug. May be reported as free text. Example: 'MORE LIKELY RELATED TO ASPIRIN USE.'."^^xsd:string ;
	bd:format ""^^xsd:string ;
	bd:ctAndFormat ""^^xsd:string ;
	bd:compliance <http://www.assero.co.uk/CSN#f7d9d4e1-a00a-487e-89db-ebece910ba0d> ;
	bd:basedOnClassVariable <http://www.cdisc.org/SDTM_MODEL_EVENTS/V1#CL_--RELNST> ;
.
<http://www.cdisc.org/SDTM_IG_AE/V1#IGD_AEPATT>
	rdf:type bd:SdtmDomainVariable ;
	isoC:label "Pattern of Adverse Event"^^xsd:string ;
	bd:rule ""^^xsd:string ;
	bd:ordinal "22"^^xsd:positiveInteger ;
	bd:name "AEPATT"^^xsd:string ;
	bd:description "Used to indicate the pattern of the event over time. Examples: INTERMITTENT, CONTINUOUS, SINGLE EVENT."^^xsd:string ;
	bd:format ""^^xsd:string ;
	bd:ctAndFormat ""^^xsd:string ;
	bd:compliance <http://www.assero.co.uk/CSN#f7d9d4e1-a00a-487e-89db-ebece910ba0d> ;
	bd:basedOnClassVariable <http://www.cdisc.org/SDTM_MODEL_EVENTS/V1#CL_--PATT> ;
	bd:isA <http://www.s-cubed.dk/CAR#1fff6a31661b491fc40cc9c1ad7fe5e479cb7500> ;
.
<http://www.cdisc.org/SDTM_IG_AE/V1#IGD_AEOUT>
	rdf:type bd:SdtmDomainVariable ;
	isoC:label "Outcome of Adverse Event"^^xsd:string ;
	bd:rule ""^^xsd:string ;
	bd:ordinal "23"^^xsd:positiveInteger ;
	bd:name "AEOUT"^^xsd:string ;
	bd:description "Description of the outcome of an event."^^xsd:string ;
	bd:format ""^^xsd:string ;
	bd:ctAndFormat "(OUT)"^^xsd:string ;
	bd:compliance <http://www.assero.co.uk/CSN#f7d9d4e1-a00a-487e-89db-ebece910ba0d> ;
	bd:ctReference <http://www.cdisc.org/SDTM_IG_AE/V1#IGD_AEOUT_TMC1> ;
	bd:basedOnClassVariable <http://www.cdisc.org/SDTM_MODEL_EVENTS/V1#CL_--OUT> ;
	bd:isA <http://www.s-cubed.dk/CAR#73a0f131076b513c16bfe3f4cff9ab8b765c9f23> ;
.
<http://www.cdisc.org/SDTM_IG_AE/V1#IGD_AEOUT_TMC1>
	rdf:type bo:TMcReference ;
	isoC:label "OUT"^^xsd:string ;
	bo:enabled "true"^^xsd:boolean ;
	bo:optional "false"^^xsd:boolean ;
	bo:ordinal "1"^^xsd:positiveInteger ;
	bo:reference <http://www.cdisc.org/C66768/V4#C66768> ;
	bo:context <http://www.cdisc.org/CT/V13#TH> ;
.
<http://www.cdisc.org/SDTM_IG_AE/V1#IGD_AESCAN>
	rdf:type bd:SdtmDomainVariable ;
	isoC:label "Involves Cancer"^^xsd:string ;
	bd:rule ""^^xsd:string ;
	bd:ordinal "24"^^xsd:positiveInteger ;
	bd:name "AESCAN"^^xsd:string ;
	bd:description "Was the serious event associated with the development of cancer?"^^xsd:string ;
	bd:format ""^^xsd:string ;
	bd:ctAndFormat "(NY)"^^xsd:string ;
	bd:compliance <http://www.assero.co.uk/CSN#f7d9d4e1-a00a-487e-89db-ebece910ba0d> ;
	bd:ctReference <http://www.cdisc.org/SDTM_IG_AE/V1#IGD_AESCAN_TMC1> ;
	bd:basedOnClassVariable <http://www.cdisc.org/SDTM_MODEL_EVENTS/V1#CL_--SCAN> ;
.
<http://www.cdisc.org/SDTM_IG_AE/V1#IGD_AESCAN_TMC1>
	rdf:type bo:TMcReference ;
	isoC:label "NY"^^xsd:string ;
	bo:enabled "true"^^xsd:boolean ;
	bo:optional "false"^^xsd:boolean ;
	bo:ordinal "1"^^xsd:positiveInteger ;
	bo:reference <http://www.cdisc.org/C66742/V4#C66742> ;
	bo:context <http://www.cdisc.org/CT/V13#TH> ;
.
<http://www.cdisc.org/SDTM_IG_AE/V1#IGD_AESCONG>
	rdf:type bd:SdtmDomainVariable ;
	isoC:label "Congenital Anomaly or Birth Defect"^^xsd:string ;
	bd:rule ""^^xsd:string ;
	bd:ordinal "25"^^xsd:positiveInteger ;
	bd:name "AESCONG"^^xsd:string ;
	bd:description "Was the serious event associated with congenital anomaly or birth defect?"^^xsd:string ;
	bd:format ""^^xsd:string ;
	bd:ctAndFormat "(NY)"^^xsd:string ;
	bd:compliance <http://www.assero.co.uk/CSN#f7d9d4e1-a00a-487e-89db-ebece910ba0d> ;
	bd:ctReference <http://www.cdisc.org/SDTM_IG_AE/V1#IGD_AESCONG_TMC1> ;
	bd:basedOnClassVariable <http://www.cdisc.org/SDTM_MODEL_EVENTS/V1#CL_--SCONG> ;
.
<http://www.cdisc.org/SDTM_IG_AE/V1#IGD_AESCONG_TMC1>
	rdf:type bo:TMcReference ;
	isoC:label "NY"^^xsd:string ;
	bo:enabled "true"^^xsd:boolean ;
	bo:optional "false"^^xsd:boolean ;
	bo:ordinal "1"^^xsd:positiveInteger ;
	bo:reference <http://www.cdisc.org/C66742/V4#C66742> ;
	bo:context <http://www.cdisc.org/CT/V13#TH> ;
.
<http://www.cdisc.org/SDTM_IG_AE/V1#IGD_AESDISAB>
	rdf:type bd:SdtmDomainVariable ;
	isoC:label "Persist or Signif Disability/Incapacity"^^xsd:string ;
	bd:rule ""^^xsd:string ;
	bd:ordinal "26"^^xsd:positiveInteger ;
	bd:name "AESDISAB"^^xsd:string ;
	bd:description "Did the serious event result in persistent or significant disability/incapacity?"^^xsd:string ;
	bd:format ""^^xsd:string ;
	bd:ctAndFormat "(NY)"^^xsd:string ;
	bd:compliance <http://www.assero.co.uk/CSN#f7d9d4e1-a00a-487e-89db-ebece910ba0d> ;
	bd:ctReference <http://www.cdisc.org/SDTM_IG_AE/V1#IGD_AESDISAB_TMC1> ;
	bd:basedOnClassVariable <http://www.cdisc.org/SDTM_MODEL_EVENTS/V1#CL_--SDISAB> ;
.
<http://www.cdisc.org/SDTM_IG_AE/V1#IGD_AESDISAB_TMC1>
	rdf:type bo:TMcReference ;
	isoC:label "NY"^^xsd:string ;
	bo:enabled "true"^^xsd:boolean ;
	bo:optional "false"^^xsd:boolean ;
	bo:ordinal "1"^^xsd:positiveInteger ;
	bo:reference <http://www.cdisc.org/C66742/V4#C66742> ;
	bo:context <http://www.cdisc.org/CT/V13#TH> ;
.
<http://www.cdisc.org/SDTM_IG_AE/V1#IGD_AESDTH>
	rdf:type bd:SdtmDomainVariable ;
	isoC:label "Results in Death"^^xsd:string ;
	bd:rule ""^^xsd:string ;
	bd:ordinal "27"^^xsd:positiveInteger ;
	bd:name "AESDTH"^^xsd:string ;
	bd:description "Did the serious event result in death?"^^xsd:string ;
	bd:format ""^^xsd:string ;
	bd:ctAndFormat "(NY)"^^xsd:string ;
	bd:compliance <http://www.assero.co.uk/CSN#f7d9d4e1-a00a-487e-89db-ebece910ba0d> ;
	bd:ctReference <http://www.cdisc.org/SDTM_IG_AE/V1#IGD_AESDTH_TMC1> ;
	bd:basedOnClassVariable <http://www.cdisc.org/SDTM_MODEL_EVENTS/V1#CL_--SDTH> ;
.
<http://www.cdisc.org/SDTM_IG_AE/V1#IGD_AESDTH_TMC1>
	rdf:type bo:TMcReference ;
	isoC:label "NY"^^xsd:string ;
	bo:enabled "true"^^xsd:boolean ;
	bo:optional "false"^^xsd:boolean ;
	bo:ordinal "1"^^xsd:positiveInteger ;
	bo:reference <http://www.cdisc.org/C66742/V4#C66742> ;
	bo:context <http://www.cdisc.org/CT/V13#TH> ;
.
<http://www.cdisc.org/SDTM_IG_AE/V1#IGD_AESHOSP>
	rdf:type bd:SdtmDomainVariable ;
	isoC:label "Requires or Prolongs Hospitalization"^^xsd:string ;
	bd:rule ""^^xsd:string ;
	bd:ordinal "28"^^xsd:positiveInteger ;
	bd:name "AESHOSP"^^xsd:string ;
	bd:description "Did the serious event require or prolong hospitalization?"^^xsd:string ;
	bd:format ""^^xsd:string ;
	bd:ctAndFormat "(NY)"^^xsd:string ;
	bd:compliance <http://www.assero.co.uk/CSN#f7d9d4e1-a00a-487e-89db-ebece910ba0d> ;
	bd:ctReference <http://www.cdisc.org/SDTM_IG_AE/V1#IGD_AESHOSP_TMC1> ;
	bd:basedOnClassVariable <http://www.cdisc.org/SDTM_MODEL_EVENTS/V1#CL_--SHOSP> ;
	bd:isA <http://www.s-cubed.dk/CAR#3239c890f4b1b44ea81233e5766557a1008c0b6b> ;
.
<http://www.cdisc.org/SDTM_IG_AE/V1#IGD_AESHOSP_TMC1>
	rdf:type bo:TMcReference ;
	isoC:label "NY"^^xsd:string ;
	bo:enabled "true"^^xsd:boolean ;
	bo:optional "false"^^xsd:boolean ;
	bo:ordinal "1"^^xsd:positiveInteger ;
	bo:reference <http://www.cdisc.org/C66742/V4#C66742> ;
	bo:context <http://www.cdisc.org/CT/V13#TH> ;
.
<http://www.cdisc.org/SDTM_IG_AE/V1#IGD_AESLIFE>
	rdf:type bd:SdtmDomainVariable ;
	isoC:label "Is Life Threatening"^^xsd:string ;
	bd:rule ""^^xsd:string ;
	bd:ordinal "29"^^xsd:positiveInteger ;
	bd:name "AESLIFE"^^xsd:string ;
	bd:description "Was the serious event life threatening?"^^xsd:string ;
	bd:format ""^^xsd:string ;
	bd:ctAndFormat "(NY)"^^xsd:string ;
	bd:compliance <http://www.assero.co.uk/CSN#f7d9d4e1-a00a-487e-89db-ebece910ba0d> ;
	bd:ctReference <http://www.cdisc.org/SDTM_IG_AE/V1#IGD_AESLIFE_TMC1> ;
	bd:basedOnClassVariable <http://www.cdisc.org/SDTM_MODEL_EVENTS/V1#CL_--SLIFE> ;
.
<http://www.cdisc.org/SDTM_IG_AE/V1#IGD_AESLIFE_TMC1>
	rdf:type bo:TMcReference ;
	isoC:label "NY"^^xsd:string ;
	bo:enabled "true"^^xsd:boolean ;
	bo:optional "false"^^xsd:boolean ;
	bo:ordinal "1"^^xsd:positiveInteger ;
	bo:reference <http://www.cdisc.org/C66742/V4#C66742> ;
	bo:context <http://www.cdisc.org/CT/V13#TH> ;
.
<http://www.cdisc.org/SDTM_IG_AE/V1#IGD_AESOD>
	rdf:type bd:SdtmDomainVariable ;
	isoC:label "Occurred with Overdose"^^xsd:string ;
	bd:rule ""^^xsd:string ;
	bd:ordinal "30"^^xsd:positiveInteger ;
	bd:name "AESOD"^^xsd:string ;
	bd:description "Did the serious event occur with an overdose?"^^xsd:string ;
	bd:format ""^^xsd:string ;
	bd:ctAndFormat "(NY)"^^xsd:string ;
	bd:compliance <http://www.assero.co.uk/CSN#f7d9d4e1-a00a-487e-89db-ebece910ba0d> ;
	bd:ctReference <http://www.cdisc.org/SDTM_IG_AE/V1#IGD_AESOD_TMC1> ;
	bd:basedOnClassVariable <http://www.cdisc.org/SDTM_MODEL_EVENTS/V1#CL_--SOD> ;
.
<http://www.cdisc.org/SDTM_IG_AE/V1#IGD_AESOD_TMC1>
	rdf:type bo:TMcReference ;
	isoC:label "NY"^^xsd:string ;
	bo:enabled "true"^^xsd:boolean ;
	bo:optional "false"^^xsd:boolean ;
	bo:ordinal "1"^^xsd:positiveInteger ;
	bo:reference <http://www.cdisc.org/C66742/V4#C66742> ;
	bo:context <http://www.cdisc.org/CT/V13#TH> ;
.
<http://www.cdisc.org/SDTM_IG_AE/V1#IGD_AESMIE>
	rdf:type bd:SdtmDomainVariable ;
	isoC:label "Other Medically Important Serious Event"^^xsd:string ;
	bd:rule ""^^xsd:string ;
	bd:ordinal "31"^^xsd:positiveInteger ;
	bd:name "AESMIE"^^xsd:string ;
	bd:description "Do additional categories for seriousness apply?"^^xsd:string ;
	bd:format ""^^xsd:string ;
	bd:ctAndFormat "(NY)"^^xsd:string ;
	bd:compliance <http://www.assero.co.uk/CSN#f7d9d4e1-a00a-487e-89db-ebece910ba0d> ;
	bd:ctReference <http://www.cdisc.org/SDTM_IG_AE/V1#IGD_AESMIE_TMC1> ;
	bd:basedOnClassVariable <http://www.cdisc.org/SDTM_MODEL_EVENTS/V1#CL_--SMIE> ;
.
<http://www.cdisc.org/SDTM_IG_AE/V1#IGD_AESMIE_TMC1>
	rdf:type bo:TMcReference ;
	isoC:label "NY"^^xsd:string ;
	bo:enabled "true"^^xsd:boolean ;
	bo:optional "false"^^xsd:boolean ;
	bo:ordinal "1"^^xsd:positiveInteger ;
	bo:reference <http://www.cdisc.org/C66742/V4#C66742> ;
	bo:context <http://www.cdisc.org/CT/V13#TH> ;
.
<http://www.cdisc.org/SDTM_IG_AE/V1#IGD_AECONTRT>
	rdf:type bd:SdtmDomainVariable ;
	isoC:label "Concomitant or Additional Trtmnt Given"^^xsd:string ;
	bd:rule ""^^xsd:string ;
	bd:ordinal "32"^^xsd:positiveInteger ;
	bd:name "AECONTRT"^^xsd:string ;
	bd:description "Was another treatment given because of the occurrence of the event?"^^xsd:string ;
	bd:format ""^^xsd:string ;
	bd:ctAndFormat "(NY)"^^xsd:string ;
	bd:compliance <http://www.assero.co.uk/CSN#f7d9d4e1-a00a-487e-89db-ebece910ba0d> ;
	bd:ctReference <http://www.cdisc.org/SDTM_IG_AE/V1#IGD_AECONTRT_TMC1> ;
	bd:basedOnClassVariable <http://www.cdisc.org/SDTM_MODEL_EVENTS/V1#CL_--CONTRT> ;
.
<http://www.cdisc.org/SDTM_IG_AE/V1#IGD_AECONTRT_TMC1>
	rdf:type bo:TMcReference ;
	isoC:label "NY"^^xsd:string ;
	bo:enabled "true"^^xsd:boolean ;
	bo:optional "false"^^xsd:boolean ;
	bo:ordinal "1"^^xsd:positiveInteger ;
	bo:reference <http://www.cdisc.org/C66742/V4#C66742> ;
	bo:context <http://www.cdisc.org/CT/V13#TH> ;
.
<http://www.cdisc.org/SDTM_IG_AE/V1#IGD_AETOXGR>
	rdf:type bd:SdtmDomainVariable ;
	isoC:label "Standard Toxicity Grade"^^xsd:string ;
	bd:rule ""^^xsd:string ;
	bd:ordinal "33"^^xsd:positiveInteger ;
	bd:name "AETOXGR"^^xsd:string ;
	bd:description "Toxicity grade according to a standard toxicity scale such as Common Terminology Criteria for Adverse Events v3.0 (CTCAE). Sponsor should specify name of the scale and version used in the metadata (see 6.2.1.1, Assumption 6c). If value is from a numeric scale, represent only the number (e.g., '2' and not 'Grade 2')."^^xsd:string ;
	bd:format ""^^xsd:string ;
	bd:ctAndFormat ""^^xsd:string ;
	bd:compliance <http://www.assero.co.uk/CSN#f7d9d4e1-a00a-487e-89db-ebece910ba0d> ;
	bd:basedOnClassVariable <http://www.cdisc.org/SDTM_MODEL_EVENTS/V1#CL_--TOXGR> ;
.
<http://www.cdisc.org/SDTM_IG_AE/V1#IGD_AESTDTC>
	rdf:type bd:SdtmDomainVariable ;
	isoC:label "Start Date/Time of Adverse Event"^^xsd:string ;
	bd:rule ""^^xsd:string ;
	bd:ordinal "34"^^xsd:positiveInteger ;
	bd:name "AESTDTC"^^xsd:string ;
	bd:description ""^^xsd:string ;
	bd:format "ISO 8601"^^xsd:string ;
	bd:ctAndFormat "ISO 8601"^^xsd:string ;
	bd:compliance <http://www.assero.co.uk/CSN#046f6c24-9eaf-4f60-8390-f36328c82ec4> ;
	bd:basedOnClassVariable <http://www.cdisc.org/SDTM_MODEL_ALL/V1#CL_--STDTC> ;
	bd:isA <http://www.s-cubed.dk/CAR#83c87956785cde43c109e30fcbd95cca63a18d38> ;
.
<http://www.cdisc.org/SDTM_IG_AE/V1#IGD_AEENDTC>
	rdf:type bd:SdtmDomainVariable ;
	isoC:label "End Date/Time of Adverse Event"^^xsd:string ;
	bd:rule ""^^xsd:string ;
	bd:ordinal "35"^^xsd:positiveInteger ;
	bd:name "AEENDTC"^^xsd:string ;
	bd:description ""^^xsd:string ;
	bd:format "ISO 8601"^^xsd:string ;
	bd:ctAndFormat "ISO 8601"^^xsd:string ;
	bd:compliance <http://www.assero.co.uk/CSN#046f6c24-9eaf-4f60-8390-f36328c82ec4> ;
	bd:basedOnClassVariable <http://www.cdisc.org/SDTM_MODEL_ALL/V1#CL_--ENDTC> ;
	bd:isA <http://www.s-cubed.dk/CAR#71c54c70967ea84127e4bd588bd627ec0e581dfb> ;
.
<http://www.cdisc.org/SDTM_IG_AE/V1#IGD_AESTDY>
	rdf:type bd:SdtmDomainVariable ;
	isoC:label "Study Day of Start of Adverse Event"^^xsd:string ;
	bd:rule ""^^xsd:string ;
	bd:ordinal "36"^^xsd:positiveInteger ;
	bd:name "AESTDY"^^xsd:string ;
	bd:description "Study day of start of adverse event relative to the sponsor-defined RFSTDTC."^^xsd:string ;
	bd:format ""^^xsd:string ;
	bd:ctAndFormat ""^^xsd:string ;
	bd:compliance <http://www.assero.co.uk/CSN#f7d9d4e1-a00a-487e-89db-ebece910ba0d> ;
	bd:basedOnClassVariable <http://www.cdisc.org/SDTM_MODEL_ALL/V1#CL_--STDY> ;
.
<http://www.cdisc.org/SDTM_IG_AE/V1#IGD_AEENDY>
	rdf:type bd:SdtmDomainVariable ;
	isoC:label "Study Day of End of Adverse Event"^^xsd:string ;
	bd:rule ""^^xsd:string ;
	bd:ordinal "37"^^xsd:positiveInteger ;
	bd:name "AEENDY"^^xsd:string ;
	bd:description "Study day of end of event relative to the sponsor-defined RFSTDTC."^^xsd:string ;
	bd:format ""^^xsd:string ;
	bd:ctAndFormat ""^^xsd:string ;
	bd:compliance <http://www.assero.co.uk/CSN#f7d9d4e1-a00a-487e-89db-ebece910ba0d> ;
	bd:basedOnClassVariable <http://www.cdisc.org/SDTM_MODEL_ALL/V1#CL_--ENDY> ;
.
<http://www.cdisc.org/SDTM_IG_AE/V1#IGD_AEDUR>
	rdf:type bd:SdtmDomainVariable ;
	isoC:label "Duration of Adverse Event"^^xsd:string ;
	bd:rule ""^^xsd:string ;
	bd:ordinal "38"^^xsd:positiveInteger ;
	bd:name "AEDUR"^^xsd:string ;
	bd:description "Collected duration and unit of an adverse event. Used only if collected on the CRF and not derived from start and end date/times. Example: P1DT2H (for 1 day, 2 hours)."^^xsd:string ;
	bd:format "ISO 8601"^^xsd:string ;
	bd:ctAndFormat "ISO 8601"^^xsd:string ;
	bd:compliance <http://www.assero.co.uk/CSN#f7d9d4e1-a00a-487e-89db-ebece910ba0d> ;
	bd:basedOnClassVariable <http://www.cdisc.org/SDTM_MODEL_ALL/V1#CL_--DUR> ;
.
<http://www.cdisc.org/SDTM_IG_AE/V1#IGD_AEENRF>
	rdf:type bd:SdtmDomainVariable ;
	isoC:label "End Relative to Reference Period"^^xsd:string ;
	bd:rule ""^^xsd:string ;
	bd:ordinal "39"^^xsd:positiveInteger ;
	bd:name "AEENRF"^^xsd:string ;
	bd:description "Describes the end of the event relative to the sponsor-defined reference period. The sponsor-defined reference period is a continuous period of time defined by a discrete starting point (RFSTDTC) and a discrete ending point (RFENDTC) of the trial."^^xsd:string ;
	bd:format ""^^xsd:string ;
	bd:ctAndFormat "(STENRF)"^^xsd:string ;
	bd:compliance <http://www.assero.co.uk/CSN#f7d9d4e1-a00a-487e-89db-ebece910ba0d> ;
	bd:ctReference <http://www.cdisc.org/SDTM_IG_AE/V1#IGD_AEENRF_TMC1> ;
	bd:basedOnClassVariable <http://www.cdisc.org/SDTM_MODEL_ALL/V1#CL_--ENRF> ;
.
<http://www.cdisc.org/SDTM_IG_AE/V1#IGD_AEENRF_TMC1>
	rdf:type bo:TMcReference ;
	isoC:label "STENRF"^^xsd:string ;
	bo:enabled "true"^^xsd:boolean ;
	bo:optional "false"^^xsd:boolean ;
	bo:ordinal "1"^^xsd:positiveInteger ;
	bo:reference <http://www.cdisc.org/C66728/V4#C66728> ;
	bo:context <http://www.cdisc.org/CT/V13#TH> ;
.
<http://www.cdisc.org/SDTM_IG_AE/V1#IGD_AEENRTPT>
	rdf:type bd:SdtmDomainVariable ;
	isoC:label "End Relative to Reference Time Point"^^xsd:string ;
	bd:rule ""^^xsd:string ;
	bd:ordinal "40"^^xsd:positiveInteger ;
	bd:name "AEENRTPT"^^xsd:string ;
	bd:description "Identifies the end of the event as being before or after the reference time point defined by variable AEENTPT."^^xsd:string ;
	bd:format "BEFORE, AFTER, COINCIDENT, ONGOING, U"^^xsd:string ;
	bd:ctAndFormat "BEFORE, AFTER, COINCIDENT, ONGOING, U"^^xsd:string ;
	bd:compliance <http://www.assero.co.uk/CSN#f7d9d4e1-a00a-487e-89db-ebece910ba0d> ;
	bd:basedOnClassVariable <http://www.cdisc.org/SDTM_MODEL_ALL/V1#CL_--ENRTPT> ;
.
<http://www.cdisc.org/SDTM_IG_AE/V1#IGD_AEENTPT>
	rdf:type bd:SdtmDomainVariable ;
	isoC:label "End Reference Time Point"^^xsd:string ;
	bd:rule ""^^xsd:string ;
	bd:ordinal "41"^^xsd:positiveInteger ;
	bd:name "AEENTPT"^^xsd:string ;
	bd:description "Description of date/time in ISO 8601 character format of the reference point referred to by AEENRTPT. Examples: '2003-12-25' or 'VISIT 2'."^^xsd:string ;
	bd:format ""^^xsd:string ;
	bd:ctAndFormat ""^^xsd:string ;
	bd:compliance <http://www.assero.co.uk/CSN#f7d9d4e1-a00a-487e-89db-ebece910ba0d> ;
	bd:basedOnClassVariable <http://www.cdisc.org/SDTM_MODEL_ALL/V1#CL_--ENTPT> ;
.
<http://www.cdisc.org/SDTM_IG_DS/V1#IGD>
	rdf:type bd:SdtmDomain ;
	isoC:label "Disposition"^^xsd:string ;
	isoT:hasState <http://www.cdisc.org/SDTM_IG_DS/V1#IGD_RS> ;
	isoT:hasIdentifier <http://www.cdisc.org/SDTM_IG_DS/V1#IGD_SI> ;
	isoT:origin ""^^xsd:string ;
	isoT:changeDescription ""^^xsd:string ;
	isoT:creationDate "2008-11-12T00:00:00+00:00"^^xsd:dateTime ;
	isoT:lastChangeDate "2008-11-12T00:00:00+00:00"^^xsd:dateTime ;
	isoT:explanatoryComment ""^^xsd:string ;
	bd:rule ""^^xsd:string ;
	bd:ordinal "1"^^xsd:positiveInteger ;
	bd:includesColumn <http://www.cdisc.org/SDTM_IG_DS/V1#IGD_STUDYID> ;
	bd:includesColumn <http://www.cdisc.org/SDTM_IG_DS/V1#IGD_DOMAIN> ;
	bd:includesColumn <http://www.cdisc.org/SDTM_IG_DS/V1#IGD_USUBJID> ;
	bd:includesColumn <http://www.cdisc.org/SDTM_IG_DS/V1#IGD_DSSEQ> ;
	bd:includesColumn <http://www.cdisc.org/SDTM_IG_DS/V1#IGD_DSGRPID> ;
	bd:includesColumn <http://www.cdisc.org/SDTM_IG_DS/V1#IGD_DSREFID> ;
	bd:includesColumn <http://www.cdisc.org/SDTM_IG_DS/V1#IGD_DSSPID> ;
	bd:includesColumn <http://www.cdisc.org/SDTM_IG_DS/V1#IGD_DSTERM> ;
	bd:includesColumn <http://www.cdisc.org/SDTM_IG_DS/V1#IGD_DSDECOD> ;
	bd:includesColumn <http://www.cdisc.org/SDTM_IG_DS/V1#IGD_DSCAT> ;
	bd:includesColumn <http://www.cdisc.org/SDTM_IG_DS/V1#IGD_DSSCAT> ;
	bd:includesColumn <http://www.cdisc.org/SDTM_IG_DS/V1#IGD_EPOCH> ;
	bd:includesColumn <http://www.cdisc.org/SDTM_IG_DS/V1#IGD_DSDTC> ;
	bd:includesColumn <http://www.cdisc.org/SDTM_IG_DS/V1#IGD_DSSTDTC> ;
	bd:includesColumn <http://www.cdisc.org/SDTM_IG_DS/V1#IGD_DSSTDY> ;
	bd:prefix "DS"^^xsd:string ;
	bd:structure "One record per disposition status or protocol milestone per subject"^^xsd:string ;
	bd:basedOnClass <http://www.cdisc.org/SDTM_MODEL_EVENTS/V1#CL> ;
.
<http://www.cdisc.org/SDTM_IG_DS/V1#IGD_RS>
	rdf:type isoR:RegistrationState ;
	isoR:registrationStatus "Standard"^^xsd:string ;
	isoR:administrativeNote ""^^xsd:string ;
	isoR:effectiveDate "2016-01-01T00:00:00+00:00"^^xsd:dateTime ;
	isoR:untilDate "2016-01-01T00:00:00+00:00"^^xsd:dateTime ;
	isoR:unresolvedIssue ""^^xsd:string ;
	isoR:administrativeStatus ""^^xsd:string ;
	isoR:previousState "Standard"^^xsd:string ;
	isoR:multipleEdit "false"^^xsd:boolean ;
	isoR:byAuthority <http://www.assero.co.uk/RA#DUNS084433759> ;
.
<http://www.cdisc.org/SDTM_IG_DS/V1#IGD_SI>
	rdf:type isoI:ScopedIdentifier ;
	isoI:identifier "SDTM IG DS"^^xsd:string ;
	isoI:versionLabel "2008-11-12 Release"^^xsd:string ;
	isoI:version "1"^^xsd:positiveInteger ;
	isoI:semanticVersion "3.1.2"^^xsd:string ;
	isoI:hasScope <http://www.assero.co.uk/NS#CDISC> ;
.
<http://www.cdisc.org/SDTM_IG_DS/V1#IGD_STUDYID>
	rdf:type bd:SdtmDomainVariable ;
	isoC:label "Study Identifier"^^xsd:string ;
	bd:rule ""^^xsd:string ;
	bd:ordinal "1"^^xsd:positiveInteger ;
	bd:name "STUDYID"^^xsd:string ;
	bd:description "Unique identifier for a study."^^xsd:string ;
	bd:format ""^^xsd:string ;
	bd:ctAndFormat ""^^xsd:string ;
	bd:compliance <http://www.assero.co.uk/CSN#52070084-cdd3-4ba8-8377-f670e4b0276c> ;
	bd:basedOnClassVariable <http://www.cdisc.org/SDTM_MODEL_ALL/V1#CL_STUDYID> ;
.
<http://www.cdisc.org/SDTM_IG_DS/V1#IGD_DOMAIN>
	rdf:type bd:SdtmDomainVariable ;
	isoC:label "Domain Abbreviation"^^xsd:string ;
	bd:rule ""^^xsd:string ;
	bd:ordinal "2"^^xsd:positiveInteger ;
	bd:name "DOMAIN"^^xsd:string ;
	bd:description "Two-character abbreviation for the domain."^^xsd:string ;
	bd:format ""^^xsd:string ;
	bd:ctAndFormat ""^^xsd:string ;
	bd:compliance <http://www.assero.co.uk/CSN#52070084-cdd3-4ba8-8377-f670e4b0276c> ;
	bd:basedOnClassVariable <http://www.cdisc.org/SDTM_MODEL_ALL/V1#CL_DOMAIN> ;
.
<http://www.cdisc.org/SDTM_IG_DS/V1#IGD_USUBJID>
	rdf:type bd:SdtmDomainVariable ;
	isoC:label "Unique Subject Identifier"^^xsd:string ;
	bd:rule ""^^xsd:string ;
	bd:ordinal "3"^^xsd:positiveInteger ;
	bd:name "USUBJID"^^xsd:string ;
	bd:description "Identifier used to uniquely identify a subject across all studies for all applications or submissions involving the product."^^xsd:string ;
	bd:format ""^^xsd:string ;
	bd:ctAndFormat ""^^xsd:string ;
	bd:compliance <http://www.assero.co.uk/CSN#52070084-cdd3-4ba8-8377-f670e4b0276c> ;
	bd:basedOnClassVariable <http://www.cdisc.org/SDTM_MODEL_ALL/V1#CL_USUBJID> ;
.
<http://www.cdisc.org/SDTM_IG_DS/V1#IGD_DSSEQ>
	rdf:type bd:SdtmDomainVariable ;
	isoC:label "Sequence Number"^^xsd:string ;
	bd:rule ""^^xsd:string ;
	bd:ordinal "4"^^xsd:positiveInteger ;
	bd:name "DSSEQ"^^xsd:string ;
	bd:description "Sequence Number given to ensure uniqueness of subject records within a domain. May be any valid number."^^xsd:string ;
	bd:format ""^^xsd:string ;
	bd:ctAndFormat ""^^xsd:string ;
	bd:compliance <http://www.assero.co.uk/CSN#52070084-cdd3-4ba8-8377-f670e4b0276c> ;
	bd:basedOnClassVariable <http://www.cdisc.org/SDTM_MODEL_ALL/V1#CL_--SEQ> ;
.
<http://www.cdisc.org/SDTM_IG_DS/V1#IGD_DSGRPID>
	rdf:type bd:SdtmDomainVariable ;
	isoC:label "Group ID"^^xsd:string ;
	bd:rule ""^^xsd:string ;
	bd:ordinal "5"^^xsd:positiveInteger ;
	bd:name "DSGRPID"^^xsd:string ;
	bd:description "Used to tie together a block of related records in a single domain for a subject."^^xsd:string ;
	bd:format ""^^xsd:string ;
	bd:ctAndFormat ""^^xsd:string ;
	bd:compliance <http://www.assero.co.uk/CSN#f7d9d4e1-a00a-487e-89db-ebece910ba0d> ;
	bd:basedOnClassVariable <http://www.cdisc.org/SDTM_MODEL_ALL/V1#CL_--GRPID> ;
.
<http://www.cdisc.org/SDTM_IG_DS/V1#IGD_DSREFID>
	rdf:type bd:SdtmDomainVariable ;
	isoC:label "Reference ID"^^xsd:string ;
	bd:rule ""^^xsd:string ;
	bd:ordinal "6"^^xsd:positiveInteger ;
	bd:name "DSREFID"^^xsd:string ;
	bd:description "Internal or external identifier."^^xsd:string ;
	bd:format ""^^xsd:string ;
	bd:ctAndFormat ""^^xsd:string ;
	bd:compliance <http://www.assero.co.uk/CSN#f7d9d4e1-a00a-487e-89db-ebece910ba0d> ;
	bd:basedOnClassVariable <http://www.cdisc.org/SDTM_MODEL_ALL/V1#CL_--REFID> ;
.
<http://www.cdisc.org/SDTM_IG_DS/V1#IGD_DSSPID>
	rdf:type bd:SdtmDomainVariable ;
	isoC:label "Sponsor-Defined Identifier"^^xsd:string ;
	bd:rule ""^^xsd:string ;
	bd:ordinal "7"^^xsd:positiveInteger ;
	bd:name "DSSPID"^^xsd:string ;
	bd:description "Sponsor-defined reference number. Perhaps pre-printed on the CRF as an explicit line identifier or defined in the sponsor's operational database. Example: Line number on a Disposition page."^^xsd:string ;
	bd:format ""^^xsd:string ;
	bd:ctAndFormat ""^^xsd:string ;
	bd:compliance <http://www.assero.co.uk/CSN#f7d9d4e1-a00a-487e-89db-ebece910ba0d> ;
	bd:basedOnClassVariable <http://www.cdisc.org/SDTM_MODEL_ALL/V1#CL_--SPID> ;
.
<http://www.cdisc.org/SDTM_IG_DS/V1#IGD_DSTERM>
	rdf:type bd:SdtmDomainVariable ;
	isoC:label "Reported Term for the Disposition Event"^^xsd:string ;
	bd:rule ""^^xsd:string ;
	bd:ordinal "8"^^xsd:positiveInteger ;
	bd:name "DSTERM"^^xsd:string ;
	bd:description "Verbatim name of the event or protocol milestone. Some terms in DSTERM will match DSDECOD, but others, such as 'Subject moved' will map to controlled terminology in DSDECOD, such as 'LOST TO FOLLOW-UP.'"^^xsd:string ;
	bd:format ""^^xsd:string ;
	bd:ctAndFormat ""^^xsd:string ;
	bd:compliance <http://www.assero.co.uk/CSN#52070084-cdd3-4ba8-8377-f670e4b0276c> ;
	bd:basedOnClassVariable <http://www.cdisc.org/SDTM_MODEL_EVENTS/V1#CL_--TERM> ;
	bd:isA <http://www.s-cubed.dk/CAR#2a4eb8036d87ab68656ba5b80bbf77123f088904> ;
.
<http://www.cdisc.org/SDTM_IG_DS/V1#IGD_DSDECOD>
	rdf:type bd:SdtmDomainVariable ;
	isoC:label "Standardized Disposition Term"^^xsd:string ;
	bd:rule ""^^xsd:string ;
	bd:ordinal "9"^^xsd:positiveInteger ;
	bd:name "DSDECOD"^^xsd:string ;
	bd:description "Controlled terminology for the name of disposition event or protocol milestone. Examples of protocol milestones: INFORMED CONSENT OBTAINED, RANDOMIZED"^^xsd:string ;
	bd:format ""^^xsd:string ;
	bd:ctAndFormat "(NCOMPLT)"^^xsd:string ;
	bd:compliance <http://www.assero.co.uk/CSN#52070084-cdd3-4ba8-8377-f670e4b0276c> ;
	bd:ctReference <http://www.cdisc.org/SDTM_IG_DS/V1#IGD_DSDECOD_TMC1> ;
	bd:basedOnClassVariable <http://www.cdisc.org/SDTM_MODEL_EVENTS/V1#CL_--DECOD> ;
.
<http://www.cdisc.org/SDTM_IG_DS/V1#IGD_DSDECOD_TMC1>
	rdf:type bo:TMcReference ;
	isoC:label "NCOMPLT"^^xsd:string ;
	bo:enabled "true"^^xsd:boolean ;
	bo:optional "false"^^xsd:boolean ;
	bo:ordinal "1"^^xsd:positiveInteger ;
	bo:reference <http://www.cdisc.org/C66727/V9#C66727> ;
	bo:context <http://www.cdisc.org/CT/V13#TH> ;
.
<http://www.cdisc.org/SDTM_IG_DS/V1#IGD_DSCAT>
	rdf:type bd:SdtmDomainVariable ;
	isoC:label "Category for Disposition Event"^^xsd:string ;
	bd:rule ""^^xsd:string ;
	bd:ordinal "10"^^xsd:positiveInteger ;
	bd:name "DSCAT"^^xsd:string ;
	bd:description "Used to define a category of related records. DSCAT is now an 'Expected' variable. DSCAT was permissible in SDTMIG 3.1.1 and earlier versions. The change from 'permissible' to 'expected' is based on the requirement to distinguish protocol milestones and/or other events from disposition events. DSCAT may be null if there are only 'disposition events'; however, it is recommended that DSCAT always be populated."^^xsd:string ;
	bd:format ""^^xsd:string ;
	bd:ctAndFormat "(DSCAT)"^^xsd:string ;
	bd:compliance <http://www.assero.co.uk/CSN#046f6c24-9eaf-4f60-8390-f36328c82ec4> ;
	bd:ctReference <http://www.cdisc.org/SDTM_IG_DS/V1#IGD_DSCAT_TMC1> ;
	bd:basedOnClassVariable <http://www.cdisc.org/SDTM_MODEL_EVENTS/V1#CL_--CAT> ;
	bd:isA <http://www.s-cubed.dk/CAR#a3c686e711e4720f99b4562bb3dbaae7ab658cf2> ;
.
<http://www.cdisc.org/SDTM_IG_DS/V1#IGD_DSCAT_TMC1>
	rdf:type bo:TMcReference ;
	isoC:label "DSCAT"^^xsd:string ;
	bo:enabled "true"^^xsd:boolean ;
	bo:optional "false"^^xsd:boolean ;
	bo:ordinal "1"^^xsd:positiveInteger ;
	bo:reference <http://www.cdisc.org/C74558/V8#C74558> ;
	bo:context <http://www.cdisc.org/CT/V13#TH> ;
.
<http://www.cdisc.org/SDTM_IG_DS/V1#IGD_DSSCAT>
	rdf:type bd:SdtmDomainVariable ;
	isoC:label "Subcategory for Disposition Event"^^xsd:string ;
	bd:rule ""^^xsd:string ;
	bd:ordinal "11"^^xsd:positiveInteger ;
	bd:name "DSSCAT"^^xsd:string ;
	bd:description "A further categorization of disposition event."^^xsd:string ;
	bd:format ""^^xsd:string ;
	bd:ctAndFormat ""^^xsd:string ;
	bd:compliance <http://www.assero.co.uk/CSN#f7d9d4e1-a00a-487e-89db-ebece910ba0d> ;
	bd:basedOnClassVariable <http://www.cdisc.org/SDTM_MODEL_EVENTS/V1#CL_--SCAT> ;
	bd:isA <http://www.s-cubed.dk/CAR#479a67983e739413da55faf0dc509f83fd5dea64> ;
.
<http://www.cdisc.org/SDTM_IG_DS/V1#IGD_EPOCH>
	rdf:type bd:SdtmDomainVariable ;
	isoC:label "Epoch"^^xsd:string ;
	bd:rule ""^^xsd:string ;
	bd:ordinal "12"^^xsd:positiveInteger ;
	bd:name "EPOCH"^^xsd:string ;
	bd:description "Epoch associated with the Element in the planned sequence of Elements for the ARM to which the subject was assigned"^^xsd:string ;
	bd:format ""^^xsd:string ;
	bd:ctAndFormat ""^^xsd:string ;
	bd:compliance <http://www.assero.co.uk/CSN#f7d9d4e1-a00a-487e-89db-ebece910ba0d> ;
	bd:basedOnClassVariable <http://www.cdisc.org/SDTM_MODEL_ALL/V1#CL_EPOCH> ;
.
<http://www.cdisc.org/SDTM_IG_DS/V1#IGD_DSDTC>
	rdf:type bd:SdtmDomainVariable ;
	isoC:label "Date/Time of Collection"^^xsd:string ;
	bd:rule ""^^xsd:string ;
	bd:ordinal "13"^^xsd:positiveInteger ;
	bd:name "DSDTC"^^xsd:string ;
	bd:description ""^^xsd:string ;
	bd:format "ISO 8601"^^xsd:string ;
	bd:ctAndFormat "ISO 8601"^^xsd:string ;
	bd:compliance <http://www.assero.co.uk/CSN#f7d9d4e1-a00a-487e-89db-ebece910ba0d> ;
	bd:basedOnClassVariable <http://www.cdisc.org/SDTM_MODEL_ALL/V1#CL_--DTC> ;
	bd:isA <http://www.s-cubed.dk/CAR#232daabe4ca2dfdb32645c572b1d34ddb4fe9995> ;
.
<http://www.cdisc.org/SDTM_IG_DS/V1#IGD_DSSTDTC>
	rdf:type bd:SdtmDomainVariable ;
	isoC:label "Start Date/Time of Disposition Event"^^xsd:string ;
	bd:rule ""^^xsd:string ;
	bd:ordinal "14"^^xsd:positiveInteger ;
	bd:name "DSSTDTC"^^xsd:string ;
	bd:description ""^^xsd:string ;
	bd:format "ISO 8601"^^xsd:string ;
	bd:ctAndFormat "ISO 8601"^^xsd:string ;
	bd:compliance <http://www.assero.co.uk/CSN#046f6c24-9eaf-4f60-8390-f36328c82ec4> ;
	bd:basedOnClassVariable <http://www.cdisc.org/SDTM_MODEL_ALL/V1#CL_--STDTC> ;
	bd:isA <http://www.s-cubed.dk/CAR#83c87956785cde43c109e30fcbd95cca63a18d38> ;
.
<http://www.cdisc.org/SDTM_IG_DS/V1#IGD_DSSTDY>
	rdf:type bd:SdtmDomainVariable ;
	isoC:label "Study Day of Start of Disposition Event"^^xsd:string ;
	bd:rule ""^^xsd:string ;
	bd:ordinal "15"^^xsd:positiveInteger ;
	bd:name "DSSTDY"^^xsd:string ;
	bd:description "Study day of start of event relative to the sponsor-defined RFSTDTC."^^xsd:string ;
	bd:format ""^^xsd:string ;
	bd:ctAndFormat ""^^xsd:string ;
	bd:compliance <http://www.assero.co.uk/CSN#f7d9d4e1-a00a-487e-89db-ebece910ba0d> ;
	bd:basedOnClassVariable <http://www.cdisc.org/SDTM_MODEL_ALL/V1#CL_--STDY> ;
.
<http://www.cdisc.org/SDTM_IG_MH/V1#IGD>
	rdf:type bd:SdtmDomain ;
	isoC:label "Medical History"^^xsd:string ;
	isoT:hasState <http://www.cdisc.org/SDTM_IG_MH/V1#IGD_RS> ;
	isoT:hasIdentifier <http://www.cdisc.org/SDTM_IG_MH/V1#IGD_SI> ;
	isoT:origin ""^^xsd:string ;
	isoT:changeDescription ""^^xsd:string ;
	isoT:creationDate "2008-11-12T00:00:00+00:00"^^xsd:dateTime ;
	isoT:lastChangeDate "2008-11-12T00:00:00+00:00"^^xsd:dateTime ;
	isoT:explanatoryComment ""^^xsd:string ;
	bd:rule ""^^xsd:string ;
	bd:ordinal "1"^^xsd:positiveInteger ;
	bd:includesColumn <http://www.cdisc.org/SDTM_IG_MH/V1#IGD_STUDYID> ;
	bd:includesColumn <http://www.cdisc.org/SDTM_IG_MH/V1#IGD_DOMAIN> ;
	bd:includesColumn <http://www.cdisc.org/SDTM_IG_MH/V1#IGD_USUBJID> ;
	bd:includesColumn <http://www.cdisc.org/SDTM_IG_MH/V1#IGD_MHSEQ> ;
	bd:includesColumn <http://www.cdisc.org/SDTM_IG_MH/V1#IGD_MHGRPID> ;
	bd:includesColumn <http://www.cdisc.org/SDTM_IG_MH/V1#IGD_MHREFID> ;
	bd:includesColumn <http://www.cdisc.org/SDTM_IG_MH/V1#IGD_MHSPID> ;
	bd:includesColumn <http://www.cdisc.org/SDTM_IG_MH/V1#IGD_MHTERM> ;
	bd:includesColumn <http://www.cdisc.org/SDTM_IG_MH/V1#IGD_MHMODIFY> ;
	bd:includesColumn <http://www.cdisc.org/SDTM_IG_MH/V1#IGD_MHDECOD> ;
	bd:includesColumn <http://www.cdisc.org/SDTM_IG_MH/V1#IGD_MHCAT> ;
	bd:includesColumn <http://www.cdisc.org/SDTM_IG_MH/V1#IGD_MHSCAT> ;
	bd:includesColumn <http://www.cdisc.org/SDTM_IG_MH/V1#IGD_MHPRESP> ;
	bd:includesColumn <http://www.cdisc.org/SDTM_IG_MH/V1#IGD_MHOCCUR> ;
	bd:includesColumn <http://www.cdisc.org/SDTM_IG_MH/V1#IGD_MHSTAT> ;
	bd:includesColumn <http://www.cdisc.org/SDTM_IG_MH/V1#IGD_MHREASND> ;
	bd:includesColumn <http://www.cdisc.org/SDTM_IG_MH/V1#IGD_MHBODSYS> ;
	bd:includesColumn <http://www.cdisc.org/SDTM_IG_MH/V1#IGD_MHDTC> ;
	bd:includesColumn <http://www.cdisc.org/SDTM_IG_MH/V1#IGD_MHSTDTC> ;
	bd:includesColumn <http://www.cdisc.org/SDTM_IG_MH/V1#IGD_MHENDTC> ;
	bd:includesColumn <http://www.cdisc.org/SDTM_IG_MH/V1#IGD_MHDY> ;
	bd:includesColumn <http://www.cdisc.org/SDTM_IG_MH/V1#IGD_MHENRF> ;
	bd:includesColumn <http://www.cdisc.org/SDTM_IG_MH/V1#IGD_MHENRTPT> ;
	bd:includesColumn <http://www.cdisc.org/SDTM_IG_MH/V1#IGD_MHENTPT> ;
	bd:prefix "MH"^^xsd:string ;
	bd:structure "One record per medical history event per subject"^^xsd:string ;
	bd:basedOnClass <http://www.cdisc.org/SDTM_MODEL_EVENTS/V1#CL> ;
.
<http://www.cdisc.org/SDTM_IG_MH/V1#IGD_RS>
	rdf:type isoR:RegistrationState ;
	isoR:registrationStatus "Standard"^^xsd:string ;
	isoR:administrativeNote ""^^xsd:string ;
	isoR:effectiveDate "2016-01-01T00:00:00+00:00"^^xsd:dateTime ;
	isoR:untilDate "2016-01-01T00:00:00+00:00"^^xsd:dateTime ;
	isoR:unresolvedIssue ""^^xsd:string ;
	isoR:administrativeStatus ""^^xsd:string ;
	isoR:previousState "Standard"^^xsd:string ;
	isoR:multipleEdit "false"^^xsd:boolean ;
	isoR:byAuthority <http://www.assero.co.uk/RA#DUNS084433759> ;
.
<http://www.cdisc.org/SDTM_IG_MH/V1#IGD_SI>
	rdf:type isoI:ScopedIdentifier ;
	isoI:identifier "SDTM IG MH"^^xsd:string ;
	isoI:versionLabel "2008-11-12 Release"^^xsd:string ;
	isoI:version "1"^^xsd:positiveInteger ;
	isoI:semanticVersion "3.1.2"^^xsd:string ;
	isoI:hasScope <http://www.assero.co.uk/NS#CDISC> ;
.
<http://www.cdisc.org/SDTM_IG_MH/V1#IGD_STUDYID>
	rdf:type bd:SdtmDomainVariable ;
	isoC:label "Study Identifier"^^xsd:string ;
	bd:rule ""^^xsd:string ;
	bd:ordinal "1"^^xsd:positiveInteger ;
	bd:name "STUDYID"^^xsd:string ;
	bd:description "Unique identifier for a study."^^xsd:string ;
	bd:format ""^^xsd:string ;
	bd:ctAndFormat ""^^xsd:string ;
	bd:compliance <http://www.assero.co.uk/CSN#52070084-cdd3-4ba8-8377-f670e4b0276c> ;
	bd:basedOnClassVariable <http://www.cdisc.org/SDTM_MODEL_ALL/V1#CL_STUDYID> ;
.
<http://www.cdisc.org/SDTM_IG_MH/V1#IGD_DOMAIN>
	rdf:type bd:SdtmDomainVariable ;
	isoC:label "Domain Abbreviation"^^xsd:string ;
	bd:rule ""^^xsd:string ;
	bd:ordinal "2"^^xsd:positiveInteger ;
	bd:name "DOMAIN"^^xsd:string ;
	bd:description "Two-character abbreviation for the domain."^^xsd:string ;
	bd:format ""^^xsd:string ;
	bd:ctAndFormat ""^^xsd:string ;
	bd:compliance <http://www.assero.co.uk/CSN#52070084-cdd3-4ba8-8377-f670e4b0276c> ;
	bd:basedOnClassVariable <http://www.cdisc.org/SDTM_MODEL_ALL/V1#CL_DOMAIN> ;
.
<http://www.cdisc.org/SDTM_IG_MH/V1#IGD_USUBJID>
	rdf:type bd:SdtmDomainVariable ;
	isoC:label "Unique Subject Identifier"^^xsd:string ;
	bd:rule ""^^xsd:string ;
	bd:ordinal "3"^^xsd:positiveInteger ;
	bd:name "USUBJID"^^xsd:string ;
	bd:description "Identifier used to uniquely identify a subject across all studies for all applications or submissions involving the product."^^xsd:string ;
	bd:format ""^^xsd:string ;
	bd:ctAndFormat ""^^xsd:string ;
	bd:compliance <http://www.assero.co.uk/CSN#52070084-cdd3-4ba8-8377-f670e4b0276c> ;
	bd:basedOnClassVariable <http://www.cdisc.org/SDTM_MODEL_ALL/V1#CL_USUBJID> ;
.
<http://www.cdisc.org/SDTM_IG_MH/V1#IGD_MHSEQ>
	rdf:type bd:SdtmDomainVariable ;
	isoC:label "Sequence Number"^^xsd:string ;
	bd:rule ""^^xsd:string ;
	bd:ordinal "4"^^xsd:positiveInteger ;
	bd:name "MHSEQ"^^xsd:string ;
	bd:description "Sequence Number given to ensure uniqueness of subject records within a domain. May be any valid number."^^xsd:string ;
	bd:format ""^^xsd:string ;
	bd:ctAndFormat ""^^xsd:string ;
	bd:compliance <http://www.assero.co.uk/CSN#52070084-cdd3-4ba8-8377-f670e4b0276c> ;
	bd:basedOnClassVariable <http://www.cdisc.org/SDTM_MODEL_ALL/V1#CL_--SEQ> ;
.
<http://www.cdisc.org/SDTM_IG_MH/V1#IGD_MHGRPID>
	rdf:type bd:SdtmDomainVariable ;
	isoC:label "Group ID"^^xsd:string ;
	bd:rule ""^^xsd:string ;
	bd:ordinal "5"^^xsd:positiveInteger ;
	bd:name "MHGRPID"^^xsd:string ;
	bd:description "Used to tie together a block of related records in a single domain for a subject."^^xsd:string ;
	bd:format ""^^xsd:string ;
	bd:ctAndFormat ""^^xsd:string ;
	bd:compliance <http://www.assero.co.uk/CSN#f7d9d4e1-a00a-487e-89db-ebece910ba0d> ;
	bd:basedOnClassVariable <http://www.cdisc.org/SDTM_MODEL_ALL/V1#CL_--GRPID> ;
.
<http://www.cdisc.org/SDTM_IG_MH/V1#IGD_MHREFID>
	rdf:type bd:SdtmDomainVariable ;
	isoC:label "Reference ID"^^xsd:string ;
	bd:rule ""^^xsd:string ;
	bd:ordinal "6"^^xsd:positiveInteger ;
	bd:name "MHREFID"^^xsd:string ;
	bd:description "Internal or external medical history identifier."^^xsd:string ;
	bd:format ""^^xsd:string ;
	bd:ctAndFormat ""^^xsd:string ;
	bd:compliance <http://www.assero.co.uk/CSN#f7d9d4e1-a00a-487e-89db-ebece910ba0d> ;
	bd:basedOnClassVariable <http://www.cdisc.org/SDTM_MODEL_ALL/V1#CL_--REFID> ;
.
<http://www.cdisc.org/SDTM_IG_MH/V1#IGD_MHSPID>
	rdf:type bd:SdtmDomainVariable ;
	isoC:label "Sponsor-Defined Identifier"^^xsd:string ;
	bd:rule ""^^xsd:string ;
	bd:ordinal "7"^^xsd:positiveInteger ;
	bd:name "MHSPID"^^xsd:string ;
	bd:description "Sponsor-defined reference number. Perhaps pre-printed on the CRF as an explicit line identifier or defined in the sponsor's operational database. Example: Line number on a Medical History page."^^xsd:string ;
	bd:format ""^^xsd:string ;
	bd:ctAndFormat ""^^xsd:string ;
	bd:compliance <http://www.assero.co.uk/CSN#f7d9d4e1-a00a-487e-89db-ebece910ba0d> ;
	bd:basedOnClassVariable <http://www.cdisc.org/SDTM_MODEL_ALL/V1#CL_--SPID> ;
.
<http://www.cdisc.org/SDTM_IG_MH/V1#IGD_MHTERM>
	rdf:type bd:SdtmDomainVariable ;
	isoC:label "Reported Term for the Medical History"^^xsd:string ;
	bd:rule ""^^xsd:string ;
	bd:ordinal "8"^^xsd:positiveInteger ;
	bd:name "MHTERM"^^xsd:string ;
	bd:description "Verbatim or preprinted CRF term for the medical condition or event."^^xsd:string ;
	bd:format ""^^xsd:string ;
	bd:ctAndFormat ""^^xsd:string ;
	bd:compliance <http://www.assero.co.uk/CSN#52070084-cdd3-4ba8-8377-f670e4b0276c> ;
	bd:basedOnClassVariable <http://www.cdisc.org/SDTM_MODEL_EVENTS/V1#CL_--TERM> ;
	bd:isA <http://www.s-cubed.dk/CAR#2a4eb8036d87ab68656ba5b80bbf77123f088904> ;
.
<http://www.cdisc.org/SDTM_IG_MH/V1#IGD_MHMODIFY>
	rdf:type bd:SdtmDomainVariable ;
	isoC:label "Modified Reported Term"^^xsd:string ;
	bd:rule ""^^xsd:string ;
	bd:ordinal "9"^^xsd:positiveInteger ;
	bd:name "MHMODIFY"^^xsd:string ;
	bd:description "If MHTERM is modified to facilitate coding, then MHMODIFY will contain the modified text."^^xsd:string ;
	bd:format ""^^xsd:string ;
	bd:ctAndFormat ""^^xsd:string ;
	bd:compliance <http://www.assero.co.uk/CSN#f7d9d4e1-a00a-487e-89db-ebece910ba0d> ;
	bd:basedOnClassVariable <http://www.cdisc.org/SDTM_MODEL_EVENTS/V1#CL_--MODIFY> ;
.
<http://www.cdisc.org/SDTM_IG_MH/V1#IGD_MHDECOD>
	rdf:type bd:SdtmDomainVariable ;
	isoC:label "Dictionary-Derived Term"^^xsd:string ;
	bd:rule ""^^xsd:string ;
	bd:ordinal "10"^^xsd:positiveInteger ;
	bd:name "MHDECOD"^^xsd:string ;
	bd:description "Dictionary-derived text description of MHTERM or MHMODIFY. Equivalent to the Preferred Term (PT in MedDRA). The sponsor is expected to provide the dictionary name and version used to map the terms utilizing the define.xml external codelist attributes"^^xsd:string ;
	bd:format ""^^xsd:string ;
	bd:ctAndFormat ""^^xsd:string ;
	bd:compliance <http://www.assero.co.uk/CSN#f7d9d4e1-a00a-487e-89db-ebece910ba0d> ;
	bd:basedOnClassVariable <http://www.cdisc.org/SDTM_MODEL_EVENTS/V1#CL_--DECOD> ;
.
<http://www.cdisc.org/SDTM_IG_MH/V1#IGD_MHCAT>
	rdf:type bd:SdtmDomainVariable ;
	isoC:label "Category for Medical History"^^xsd:string ;
	bd:rule ""^^xsd:string ;
	bd:ordinal "11"^^xsd:positiveInteger ;
	bd:name "MHCAT"^^xsd:string ;
	bd:description "Used to define a category of related records. Examples: CARDIAC or GENERAL"^^xsd:string ;
	bd:format ""^^xsd:string ;
	bd:ctAndFormat ""^^xsd:string ;
	bd:compliance <http://www.assero.co.uk/CSN#f7d9d4e1-a00a-487e-89db-ebece910ba0d> ;
	bd:basedOnClassVariable <http://www.cdisc.org/SDTM_MODEL_EVENTS/V1#CL_--CAT> ;
	bd:isA <http://www.s-cubed.dk/CAR#a3c686e711e4720f99b4562bb3dbaae7ab658cf2> ;
.
<http://www.cdisc.org/SDTM_IG_MH/V1#IGD_MHSCAT>
	rdf:type bd:SdtmDomainVariable ;
	isoC:label "Subcategory for Medical History"^^xsd:string ;
	bd:rule ""^^xsd:string ;
	bd:ordinal "12"^^xsd:positiveInteger ;
	bd:name "MHSCAT"^^xsd:string ;
	bd:description "A further categorization of the condition or event."^^xsd:string ;
	bd:format ""^^xsd:string ;
	bd:ctAndFormat ""^^xsd:string ;
	bd:compliance <http://www.assero.co.uk/CSN#f7d9d4e1-a00a-487e-89db-ebece910ba0d> ;
	bd:basedOnClassVariable <http://www.cdisc.org/SDTM_MODEL_EVENTS/V1#CL_--SCAT> ;
	bd:isA <http://www.s-cubed.dk/CAR#479a67983e739413da55faf0dc509f83fd5dea64> ;
.
<http://www.cdisc.org/SDTM_IG_MH/V1#IGD_MHPRESP>
	rdf:type bd:SdtmDomainVariable ;
	isoC:label "Medical History Event Pre-Specified"^^xsd:string ;
	bd:rule ""^^xsd:string ;
	bd:ordinal "13"^^xsd:positiveInteger ;
	bd:name "MHPRESP"^^xsd:string ;
	bd:description "A value of 'Y' indicates that this medical history event was pre-specified on the CRF. Values are null for spontaneously reported events (i.e., those collected as free-text verbatim terms)"^^xsd:string ;
	bd:format ""^^xsd:string ;
	bd:ctAndFormat "(NY)"^^xsd:string ;
	bd:compliance <http://www.assero.co.uk/CSN#f7d9d4e1-a00a-487e-89db-ebece910ba0d> ;
	bd:ctReference <http://www.cdisc.org/SDTM_IG_MH/V1#IGD_MHPRESP_TMC1> ;
	bd:basedOnClassVariable <http://www.cdisc.org/SDTM_MODEL_EVENTS/V1#CL_--PRESP> ;
	bd:isA <http://www.s-cubed.dk/CAR#b724045eaf94ce25b3eaa5cd7d2d5bf66de219b1> ;
.
<http://www.cdisc.org/SDTM_IG_MH/V1#IGD_MHPRESP_TMC1>
	rdf:type bo:TMcReference ;
	isoC:label "NY"^^xsd:string ;
	bo:enabled "true"^^xsd:boolean ;
	bo:optional "false"^^xsd:boolean ;
	bo:ordinal "1"^^xsd:positiveInteger ;
	bo:reference <http://www.cdisc.org/C66742/V4#C66742> ;
	bo:context <http://www.cdisc.org/CT/V13#TH> ;
.
<http://www.cdisc.org/SDTM_IG_MH/V1#IGD_MHOCCUR>
	rdf:type bd:SdtmDomainVariable ;
	isoC:label "Medical History Occurrence"^^xsd:string ;
	bd:rule ""^^xsd:string ;
	bd:ordinal "14"^^xsd:positiveInteger ;
	bd:name "MHOCCUR"^^xsd:string ;
	bd:description "Used when the occurrence of specific medical history conditions is solicited to indicate whether or not (Y/N) a medical condition (MHTERM) had ever occurred. Values are null for spontaneously reported events."^^xsd:string ;
	bd:format ""^^xsd:string ;
	bd:ctAndFormat "(NY)"^^xsd:string ;
	bd:compliance <http://www.assero.co.uk/CSN#f7d9d4e1-a00a-487e-89db-ebece910ba0d> ;
	bd:ctReference <http://www.cdisc.org/SDTM_IG_MH/V1#IGD_MHOCCUR_TMC1> ;
	bd:basedOnClassVariable <http://www.cdisc.org/SDTM_MODEL_EVENTS/V1#CL_--OCCUR> ;
	bd:isA <http://www.s-cubed.dk/CAR#4f618850ebd7856345f3aae9299ab9fd81e02d93> ;
.
<http://www.cdisc.org/SDTM_IG_MH/V1#IGD_MHOCCUR_TMC1>
	rdf:type bo:TMcReference ;
	isoC:label "NY"^^xsd:string ;
	bo:enabled "true"^^xsd:boolean ;
	bo:optional "false"^^xsd:boolean ;
	bo:ordinal "1"^^xsd:positiveInteger ;
	bo:reference <http://www.cdisc.org/C66742/V4#C66742> ;
	bo:context <http://www.cdisc.org/CT/V13#TH> ;
.
<http://www.cdisc.org/SDTM_IG_MH/V1#IGD_MHSTAT>
	rdf:type bd:SdtmDomainVariable ;
	isoC:label "Completion Status"^^xsd:string ;
	bd:rule ""^^xsd:string ;
	bd:ordinal "15"^^xsd:positiveInteger ;
	bd:name "MHSTAT"^^xsd:string ;
	bd:description "The status indicates that the pre-specified question was not answered."^^xsd:string ;
	bd:format ""^^xsd:string ;
	bd:ctAndFormat "(ND)"^^xsd:string ;
	bd:compliance <http://www.assero.co.uk/CSN#f7d9d4e1-a00a-487e-89db-ebece910ba0d> ;
	bd:ctReference <http://www.cdisc.org/SDTM_IG_MH/V1#IGD_MHSTAT_TMC1> ;
	bd:basedOnClassVariable <http://www.cdisc.org/SDTM_MODEL_EVENTS/V1#CL_--STAT> ;
	bd:isA <http://www.s-cubed.dk/CAR#bae7d5be70820ed56467bd9a63744e23b47bd711> ;
.
<http://www.cdisc.org/SDTM_IG_MH/V1#IGD_MHSTAT_TMC1>
	rdf:type bo:TMcReference ;
	isoC:label "ND"^^xsd:string ;
	bo:enabled "true"^^xsd:boolean ;
	bo:optional "false"^^xsd:boolean ;
	bo:ordinal "1"^^xsd:positiveInteger ;
	bo:reference <http://www.cdisc.org/C66789/V13#C66789> ;
	bo:context <http://www.cdisc.org/CT/V13#TH> ;
.
<http://www.cdisc.org/SDTM_IG_MH/V1#IGD_MHREASND>
	rdf:type bd:SdtmDomainVariable ;
	isoC:label "Reason Medical History Not Collected"^^xsd:string ;
	bd:rule ""^^xsd:string ;
	bd:ordinal "16"^^xsd:positiveInteger ;
	bd:name "MHREASND"^^xsd:string ;
	bd:description "Describes the reason data for a pre-specified condition was not collected. Used in conjunction with MHSTAT when value is NOT DONE."^^xsd:string ;
	bd:format ""^^xsd:string ;
	bd:ctAndFormat ""^^xsd:string ;
	bd:compliance <http://www.assero.co.uk/CSN#f7d9d4e1-a00a-487e-89db-ebece910ba0d> ;
	bd:basedOnClassVariable <http://www.cdisc.org/SDTM_MODEL_EVENTS/V1#CL_--REASND> ;
	bd:isA <http://www.s-cubed.dk/CAR#52b30e2515e4fa778a3ab77470f0b096877a26c2> ;
.
<http://www.cdisc.org/SDTM_IG_MH/V1#IGD_MHBODSYS>
	rdf:type bd:SdtmDomainVariable ;
	isoC:label "Body System or Organ Class"^^xsd:string ;
	bd:rule ""^^xsd:string ;
	bd:ordinal "17"^^xsd:positiveInteger ;
	bd:name "MHBODSYS"^^xsd:string ;
	bd:description "Dictionary-derived. Body system or organ class that is involved in an event or measurement from a standard hierarchy (e.g., MedDRA). When using a multi-axial dictionary such as MedDRA, this should contain the SOC used for the sponsor's analyses and summary tables which may not necessarily be the primary SOC."^^xsd:string ;
	bd:format ""^^xsd:string ;
	bd:ctAndFormat ""^^xsd:string ;
	bd:compliance <http://www.assero.co.uk/CSN#f7d9d4e1-a00a-487e-89db-ebece910ba0d> ;
	bd:basedOnClassVariable <http://www.cdisc.org/SDTM_MODEL_EVENTS/V1#CL_--BODSYS> ;
.
<http://www.cdisc.org/SDTM_IG_MH/V1#IGD_MHDTC>
	rdf:type bd:SdtmDomainVariable ;
	isoC:label "Date/Time of History Collection"^^xsd:string ;
	bd:rule ""^^xsd:string ;
	bd:ordinal "18"^^xsd:positiveInteger ;
	bd:name "MHDTC"^^xsd:string ;
	bd:description ""^^xsd:string ;
	bd:format "ISO 8601"^^xsd:string ;
	bd:ctAndFormat "ISO 8601"^^xsd:string ;
	bd:compliance <http://www.assero.co.uk/CSN#f7d9d4e1-a00a-487e-89db-ebece910ba0d> ;
	bd:basedOnClassVariable <http://www.cdisc.org/SDTM_MODEL_ALL/V1#CL_--DTC> ;
	bd:isA <http://www.s-cubed.dk/CAR#232daabe4ca2dfdb32645c572b1d34ddb4fe9995> ;
.
<http://www.cdisc.org/SDTM_IG_MH/V1#IGD_MHSTDTC>
	rdf:type bd:SdtmDomainVariable ;
	isoC:label "Start Date/Time of Medical History Event"^^xsd:string ;
	bd:rule ""^^xsd:string ;
	bd:ordinal "19"^^xsd:positiveInteger ;
	bd:name "MHSTDTC"^^xsd:string ;
	bd:description ""^^xsd:string ;
	bd:format "ISO 8601"^^xsd:string ;
	bd:ctAndFormat "ISO 8601"^^xsd:string ;
	bd:compliance <http://www.assero.co.uk/CSN#f7d9d4e1-a00a-487e-89db-ebece910ba0d> ;
	bd:basedOnClassVariable <http://www.cdisc.org/SDTM_MODEL_ALL/V1#CL_--STDTC> ;
	bd:isA <http://www.s-cubed.dk/CAR#83c87956785cde43c109e30fcbd95cca63a18d38> ;
.
<http://www.cdisc.org/SDTM_IG_MH/V1#IGD_MHENDTC>
	rdf:type bd:SdtmDomainVariable ;
	isoC:label "End Date/Time of Medical History Event"^^xsd:string ;
	bd:rule ""^^xsd:string ;
	bd:ordinal "20"^^xsd:positiveInteger ;
	bd:name "MHENDTC"^^xsd:string ;
	bd:description ""^^xsd:string ;
	bd:format "ISO 8601"^^xsd:string ;
	bd:ctAndFormat "ISO 8601"^^xsd:string ;
	bd:compliance <http://www.assero.co.uk/CSN#f7d9d4e1-a00a-487e-89db-ebece910ba0d> ;
	bd:basedOnClassVariable <http://www.cdisc.org/SDTM_MODEL_ALL/V1#CL_--ENDTC> ;
	bd:isA <http://www.s-cubed.dk/CAR#71c54c70967ea84127e4bd588bd627ec0e581dfb> ;
.
<http://www.cdisc.org/SDTM_IG_MH/V1#IGD_MHDY>
	rdf:type bd:SdtmDomainVariable ;
	isoC:label "Study Day of History Collection"^^xsd:string ;
	bd:rule ""^^xsd:string ;
	bd:ordinal "21"^^xsd:positiveInteger ;
	bd:name "MHDY"^^xsd:string ;
	bd:description "1. Study day of medical history collection, measured as integer days. 2. Algorithm for calculations must be relative to the sponsor-defined RFSTDTC variable in Demographics. This formula should be consistent across the submission."^^xsd:string ;
	bd:format ""^^xsd:string ;
	bd:ctAndFormat ""^^xsd:string ;
	bd:compliance <http://www.assero.co.uk/CSN#f7d9d4e1-a00a-487e-89db-ebece910ba0d> ;
	bd:basedOnClassVariable <http://www.cdisc.org/SDTM_MODEL_ALL/V1#CL_--DY> ;
.
<http://www.cdisc.org/SDTM_IG_MH/V1#IGD_MHENRF>
	rdf:type bd:SdtmDomainVariable ;
	isoC:label "End Relative to Reference Period"^^xsd:string ;
	bd:rule ""^^xsd:string ;
	bd:ordinal "22"^^xsd:positiveInteger ;
	bd:name "MHENRF"^^xsd:string ;
	bd:description "Describes the end of the event relative to the sponsor-defined reference period. The sponsor-defined reference period is a continuous period of time defined by a discrete starting point and a discrete ending point (represented by RFSTDTC and RFENDTC in Demographics)"^^xsd:string ;
	bd:format ""^^xsd:string ;
	bd:ctAndFormat "(STENRF)"^^xsd:string ;
	bd:compliance <http://www.assero.co.uk/CSN#f7d9d4e1-a00a-487e-89db-ebece910ba0d> ;
	bd:ctReference <http://www.cdisc.org/SDTM_IG_MH/V1#IGD_MHENRF_TMC1> ;
	bd:basedOnClassVariable <http://www.cdisc.org/SDTM_MODEL_ALL/V1#CL_--ENRF> ;
.
<http://www.cdisc.org/SDTM_IG_MH/V1#IGD_MHENRF_TMC1>
	rdf:type bo:TMcReference ;
	isoC:label "STENRF"^^xsd:string ;
	bo:enabled "true"^^xsd:boolean ;
	bo:optional "false"^^xsd:boolean ;
	bo:ordinal "1"^^xsd:positiveInteger ;
	bo:reference <http://www.cdisc.org/C66728/V4#C66728> ;
	bo:context <http://www.cdisc.org/CT/V13#TH> ;
.
<http://www.cdisc.org/SDTM_IG_MH/V1#IGD_MHENRTPT>
	rdf:type bd:SdtmDomainVariable ;
	isoC:label "End Relative to Reference Time Point"^^xsd:string ;
	bd:rule ""^^xsd:string ;
	bd:ordinal "23"^^xsd:positiveInteger ;
	bd:name "MHENRTPT"^^xsd:string ;
	bd:description "Identifies the end of the event as being before or after the reference time point defined by variable MHENTPT."^^xsd:string ;
	bd:format "BEFORE, AFTER, COINCIDENT, ONGOING, U"^^xsd:string ;
	bd:ctAndFormat "BEFORE, AFTER, COINCIDENT, ONGOING, U"^^xsd:string ;
	bd:compliance <http://www.assero.co.uk/CSN#f7d9d4e1-a00a-487e-89db-ebece910ba0d> ;
	bd:basedOnClassVariable <http://www.cdisc.org/SDTM_MODEL_ALL/V1#CL_--ENRTPT> ;
.
<http://www.cdisc.org/SDTM_IG_MH/V1#IGD_MHENTPT>
	rdf:type bd:SdtmDomainVariable ;
	isoC:label "End Reference Time Point"^^xsd:string ;
	bd:rule ""^^xsd:string ;
	bd:ordinal "24"^^xsd:positiveInteger ;
	bd:name "MHENTPT"^^xsd:string ;
	bd:description "Description or date/time in ISO 8601 character format of the reference point referred to by MHENRTPT. Examples: '2003-12-25' or 'VISIT 2'."^^xsd:string ;
	bd:format ""^^xsd:string ;
	bd:ctAndFormat ""^^xsd:string ;
	bd:compliance <http://www.assero.co.uk/CSN#f7d9d4e1-a00a-487e-89db-ebece910ba0d> ;
	bd:basedOnClassVariable <http://www.cdisc.org/SDTM_MODEL_ALL/V1#CL_--ENTPT> ;
.
<http://www.cdisc.org/SDTM_IG_DV/V1#IGD>
	rdf:type bd:SdtmDomain ;
	isoC:label "Protocol Deviations"^^xsd:string ;
	isoT:hasState <http://www.cdisc.org/SDTM_IG_DV/V1#IGD_RS> ;
	isoT:hasIdentifier <http://www.cdisc.org/SDTM_IG_DV/V1#IGD_SI> ;
	isoT:origin ""^^xsd:string ;
	isoT:changeDescription ""^^xsd:string ;
	isoT:creationDate "2008-11-12T00:00:00+00:00"^^xsd:dateTime ;
	isoT:lastChangeDate "2008-11-12T00:00:00+00:00"^^xsd:dateTime ;
	isoT:explanatoryComment ""^^xsd:string ;
	bd:rule ""^^xsd:string ;
	bd:ordinal "1"^^xsd:positiveInteger ;
	bd:includesColumn <http://www.cdisc.org/SDTM_IG_DV/V1#IGD_STUDYID> ;
	bd:includesColumn <http://www.cdisc.org/SDTM_IG_DV/V1#IGD_DOMAIN> ;
	bd:includesColumn <http://www.cdisc.org/SDTM_IG_DV/V1#IGD_USUBJID> ;
	bd:includesColumn <http://www.cdisc.org/SDTM_IG_DV/V1#IGD_DVSEQ> ;
	bd:includesColumn <http://www.cdisc.org/SDTM_IG_DV/V1#IGD_DVREFID> ;
	bd:includesColumn <http://www.cdisc.org/SDTM_IG_DV/V1#IGD_DVSPID> ;
	bd:includesColumn <http://www.cdisc.org/SDTM_IG_DV/V1#IGD_DVTERM> ;
	bd:includesColumn <http://www.cdisc.org/SDTM_IG_DV/V1#IGD_DVDECOD> ;
	bd:includesColumn <http://www.cdisc.org/SDTM_IG_DV/V1#IGD_DVCAT> ;
	bd:includesColumn <http://www.cdisc.org/SDTM_IG_DV/V1#IGD_DVSCAT> ;
	bd:includesColumn <http://www.cdisc.org/SDTM_IG_DV/V1#IGD_EPOCH> ;
	bd:includesColumn <http://www.cdisc.org/SDTM_IG_DV/V1#IGD_DVSTDTC> ;
	bd:includesColumn <http://www.cdisc.org/SDTM_IG_DV/V1#IGD_DVENDTC> ;
	bd:prefix "DV"^^xsd:string ;
	bd:structure "One record per protocol deviation per subject"^^xsd:string ;
	bd:basedOnClass <http://www.cdisc.org/SDTM_MODEL_EVENTS/V1#CL> ;
.
<http://www.cdisc.org/SDTM_IG_DV/V1#IGD_RS>
	rdf:type isoR:RegistrationState ;
	isoR:registrationStatus "Standard"^^xsd:string ;
	isoR:administrativeNote ""^^xsd:string ;
	isoR:effectiveDate "2016-01-01T00:00:00+00:00"^^xsd:dateTime ;
	isoR:untilDate "2016-01-01T00:00:00+00:00"^^xsd:dateTime ;
	isoR:unresolvedIssue ""^^xsd:string ;
	isoR:administrativeStatus ""^^xsd:string ;
	isoR:previousState "Standard"^^xsd:string ;
	isoR:multipleEdit "false"^^xsd:boolean ;
	isoR:byAuthority <http://www.assero.co.uk/RA#DUNS084433759> ;
.
<http://www.cdisc.org/SDTM_IG_DV/V1#IGD_SI>
	rdf:type isoI:ScopedIdentifier ;
	isoI:identifier "SDTM IG DV"^^xsd:string ;
	isoI:versionLabel "2008-11-12 Release"^^xsd:string ;
	isoI:version "1"^^xsd:positiveInteger ;
	isoI:semanticVersion "3.1.2"^^xsd:string ;
	isoI:hasScope <http://www.assero.co.uk/NS#CDISC> ;
.
<http://www.cdisc.org/SDTM_IG_DV/V1#IGD_STUDYID>
	rdf:type bd:SdtmDomainVariable ;
	isoC:label "Study Identifier"^^xsd:string ;
	bd:rule ""^^xsd:string ;
	bd:ordinal "1"^^xsd:positiveInteger ;
	bd:name "STUDYID"^^xsd:string ;
	bd:description "Unique identifier for a study."^^xsd:string ;
	bd:format ""^^xsd:string ;
	bd:ctAndFormat ""^^xsd:string ;
	bd:compliance <http://www.assero.co.uk/CSN#52070084-cdd3-4ba8-8377-f670e4b0276c> ;
	bd:basedOnClassVariable <http://www.cdisc.org/SDTM_MODEL_ALL/V1#CL_STUDYID> ;
.
<http://www.cdisc.org/SDTM_IG_DV/V1#IGD_DOMAIN>
	rdf:type bd:SdtmDomainVariable ;
	isoC:label "Domain Abbreviation"^^xsd:string ;
	bd:rule ""^^xsd:string ;
	bd:ordinal "2"^^xsd:positiveInteger ;
	bd:name "DOMAIN"^^xsd:string ;
	bd:description "Two-character abbreviation for the domain."^^xsd:string ;
	bd:format ""^^xsd:string ;
	bd:ctAndFormat ""^^xsd:string ;
	bd:compliance <http://www.assero.co.uk/CSN#52070084-cdd3-4ba8-8377-f670e4b0276c> ;
	bd:basedOnClassVariable <http://www.cdisc.org/SDTM_MODEL_ALL/V1#CL_DOMAIN> ;
.
<http://www.cdisc.org/SDTM_IG_DV/V1#IGD_USUBJID>
	rdf:type bd:SdtmDomainVariable ;
	isoC:label "Unique Subject Identifier"^^xsd:string ;
	bd:rule ""^^xsd:string ;
	bd:ordinal "3"^^xsd:positiveInteger ;
	bd:name "USUBJID"^^xsd:string ;
	bd:description "Identifier used to uniquely identify a subject across all studies for all applications or submissions involving the product."^^xsd:string ;
	bd:format ""^^xsd:string ;
	bd:ctAndFormat ""^^xsd:string ;
	bd:compliance <http://www.assero.co.uk/CSN#52070084-cdd3-4ba8-8377-f670e4b0276c> ;
	bd:basedOnClassVariable <http://www.cdisc.org/SDTM_MODEL_ALL/V1#CL_USUBJID> ;
.
<http://www.cdisc.org/SDTM_IG_DV/V1#IGD_DVSEQ>
	rdf:type bd:SdtmDomainVariable ;
	isoC:label "Sequence Number"^^xsd:string ;
	bd:rule ""^^xsd:string ;
	bd:ordinal "4"^^xsd:positiveInteger ;
	bd:name "DVSEQ"^^xsd:string ;
	bd:description "Sequence Number given to ensure uniqueness of subject records within a domain. May be any valid number."^^xsd:string ;
	bd:format ""^^xsd:string ;
	bd:ctAndFormat ""^^xsd:string ;
	bd:compliance <http://www.assero.co.uk/CSN#52070084-cdd3-4ba8-8377-f670e4b0276c> ;
	bd:basedOnClassVariable <http://www.cdisc.org/SDTM_MODEL_ALL/V1#CL_--SEQ> ;
.
<http://www.cdisc.org/SDTM_IG_DV/V1#IGD_DVREFID>
	rdf:type bd:SdtmDomainVariable ;
	isoC:label "Reference ID"^^xsd:string ;
	bd:rule ""^^xsd:string ;
	bd:ordinal "5"^^xsd:positiveInteger ;
	bd:name "DVREFID"^^xsd:string ;
	bd:description "Internal or external identifier."^^xsd:string ;
	bd:format ""^^xsd:string ;
	bd:ctAndFormat ""^^xsd:string ;
	bd:compliance <http://www.assero.co.uk/CSN#f7d9d4e1-a00a-487e-89db-ebece910ba0d> ;
	bd:basedOnClassVariable <http://www.cdisc.org/SDTM_MODEL_ALL/V1#CL_--REFID> ;
.
<http://www.cdisc.org/SDTM_IG_DV/V1#IGD_DVSPID>
	rdf:type bd:SdtmDomainVariable ;
	isoC:label "Sponsor-Defined Identifier"^^xsd:string ;
	bd:rule ""^^xsd:string ;
	bd:ordinal "6"^^xsd:positiveInteger ;
	bd:name "DVSPID"^^xsd:string ;
	bd:description "Sponsor-defined reference number. Perhaps pre-printed on the CRF as an explicit line identifier or defined in the sponsor's operational database. Example: Line number on a CRF page."^^xsd:string ;
	bd:format ""^^xsd:string ;
	bd:ctAndFormat ""^^xsd:string ;
	bd:compliance <http://www.assero.co.uk/CSN#f7d9d4e1-a00a-487e-89db-ebece910ba0d> ;
	bd:basedOnClassVariable <http://www.cdisc.org/SDTM_MODEL_ALL/V1#CL_--SPID> ;
.
<http://www.cdisc.org/SDTM_IG_DV/V1#IGD_DVTERM>
	rdf:type bd:SdtmDomainVariable ;
	isoC:label "Protocol Deviation Term"^^xsd:string ;
	bd:rule ""^^xsd:string ;
	bd:ordinal "7"^^xsd:positiveInteger ;
	bd:name "DVTERM"^^xsd:string ;
	bd:description "Verbatim name of the protocol deviation criterion. Example: IVRS PROCESS DEVIATION - NO DOSE CALL PERFORMED. The DVTERM values will map to the controlled terminology in DVDECOD, such as TREATMENT DEVIATION."^^xsd:string ;
	bd:format ""^^xsd:string ;
	bd:ctAndFormat ""^^xsd:string ;
	bd:compliance <http://www.assero.co.uk/CSN#52070084-cdd3-4ba8-8377-f670e4b0276c> ;
	bd:basedOnClassVariable <http://www.cdisc.org/SDTM_MODEL_EVENTS/V1#CL_--TERM> ;
	bd:isA <http://www.s-cubed.dk/CAR#2a4eb8036d87ab68656ba5b80bbf77123f088904> ;
.
<http://www.cdisc.org/SDTM_IG_DV/V1#IGD_DVDECOD>
	rdf:type bd:SdtmDomainVariable ;
	isoC:label "Protocol Deviation Coded Term"^^xsd:string ;
	bd:rule ""^^xsd:string ;
	bd:ordinal "8"^^xsd:positiveInteger ;
	bd:name "DVDECOD"^^xsd:string ;
	bd:description "Controlled terminology for the name of the protocol deviation. Examples: SUBJECT NOT WITHDRAWN AS PER PROTOCOL, SELECTION CRITERIA NOT MET, EXCLUDED CONCOMITANT MEDICATION, TREATMENT DEVIATION."^^xsd:string ;
	bd:format ""^^xsd:string ;
	bd:ctAndFormat ""^^xsd:string ;
	bd:compliance <http://www.assero.co.uk/CSN#f7d9d4e1-a00a-487e-89db-ebece910ba0d> ;
	bd:basedOnClassVariable <http://www.cdisc.org/SDTM_MODEL_EVENTS/V1#CL_--DECOD> ;
.
<http://www.cdisc.org/SDTM_IG_DV/V1#IGD_DVCAT>
	rdf:type bd:SdtmDomainVariable ;
	isoC:label "Category for Protocol Deviation"^^xsd:string ;
	bd:rule ""^^xsd:string ;
	bd:ordinal "9"^^xsd:positiveInteger ;
	bd:name "DVCAT"^^xsd:string ;
	bd:description "Category of the protocol deviation criterion."^^xsd:string ;
	bd:format ""^^xsd:string ;
	bd:ctAndFormat ""^^xsd:string ;
	bd:compliance <http://www.assero.co.uk/CSN#f7d9d4e1-a00a-487e-89db-ebece910ba0d> ;
	bd:basedOnClassVariable <http://www.cdisc.org/SDTM_MODEL_EVENTS/V1#CL_--CAT> ;
	bd:isA <http://www.s-cubed.dk/CAR#a3c686e711e4720f99b4562bb3dbaae7ab658cf2> ;
.
<http://www.cdisc.org/SDTM_IG_DV/V1#IGD_DVSCAT>
	rdf:type bd:SdtmDomainVariable ;
	isoC:label "Subcategory for Protocol Deviation"^^xsd:string ;
	bd:rule ""^^xsd:string ;
	bd:ordinal "10"^^xsd:positiveInteger ;
	bd:name "DVSCAT"^^xsd:string ;
	bd:description "A further categorization of the protocol deviation."^^xsd:string ;
	bd:format ""^^xsd:string ;
	bd:ctAndFormat ""^^xsd:string ;
	bd:compliance <http://www.assero.co.uk/CSN#f7d9d4e1-a00a-487e-89db-ebece910ba0d> ;
	bd:basedOnClassVariable <http://www.cdisc.org/SDTM_MODEL_EVENTS/V1#CL_--SCAT> ;
	bd:isA <http://www.s-cubed.dk/CAR#479a67983e739413da55faf0dc509f83fd5dea64> ;
.
<http://www.cdisc.org/SDTM_IG_DV/V1#IGD_EPOCH>
	rdf:type bd:SdtmDomainVariable ;
	isoC:label "Epoch"^^xsd:string ;
	bd:rule ""^^xsd:string ;
	bd:ordinal "11"^^xsd:positiveInteger ;
	bd:name "EPOCH"^^xsd:string ;
	bd:description "Epoch associated with the Element in the planned sequence of Elements for the ARM to which the subject was assigned"^^xsd:string ;
	bd:format ""^^xsd:string ;
	bd:ctAndFormat ""^^xsd:string ;
	bd:compliance <http://www.assero.co.uk/CSN#f7d9d4e1-a00a-487e-89db-ebece910ba0d> ;
	bd:basedOnClassVariable <http://www.cdisc.org/SDTM_MODEL_ALL/V1#CL_EPOCH> ;
.
<http://www.cdisc.org/SDTM_IG_DV/V1#IGD_DVSTDTC>
	rdf:type bd:SdtmDomainVariable ;
	isoC:label "Start Date/Time of Deviation"^^xsd:string ;
	bd:rule ""^^xsd:string ;
	bd:ordinal "12"^^xsd:positiveInteger ;
	bd:name "DVSTDTC"^^xsd:string ;
	bd:description "Start date/time of deviation represented in ISO 8601 character format."^^xsd:string ;
	bd:format "ISO 8601"^^xsd:string ;
	bd:ctAndFormat "ISO 8601"^^xsd:string ;
	bd:compliance <http://www.assero.co.uk/CSN#f7d9d4e1-a00a-487e-89db-ebece910ba0d> ;
	bd:basedOnClassVariable <http://www.cdisc.org/SDTM_MODEL_ALL/V1#CL_--STDTC> ;
	bd:isA <http://www.s-cubed.dk/CAR#83c87956785cde43c109e30fcbd95cca63a18d38> ;
.
<http://www.cdisc.org/SDTM_IG_DV/V1#IGD_DVENDTC>
	rdf:type bd:SdtmDomainVariable ;
	isoC:label "End Date/Time of Deviation"^^xsd:string ;
	bd:rule ""^^xsd:string ;
	bd:ordinal "13"^^xsd:positiveInteger ;
	bd:name "DVENDTC"^^xsd:string ;
	bd:description "End date/time of deviation represented in ISO 8601 character format."^^xsd:string ;
	bd:format "ISO 8601"^^xsd:string ;
	bd:ctAndFormat "ISO 8601"^^xsd:string ;
	bd:compliance <http://www.assero.co.uk/CSN#f7d9d4e1-a00a-487e-89db-ebece910ba0d> ;
	bd:basedOnClassVariable <http://www.cdisc.org/SDTM_MODEL_ALL/V1#CL_--ENDTC> ;
	bd:isA <http://www.s-cubed.dk/CAR#71c54c70967ea84127e4bd588bd627ec0e581dfb> ;
.
<http://www.cdisc.org/SDTM_IG_CE/V1#IGD>
	rdf:type bd:SdtmDomain ;
	isoC:label "Clinical Events"^^xsd:string ;
	isoT:hasState <http://www.cdisc.org/SDTM_IG_CE/V1#IGD_RS> ;
	isoT:hasIdentifier <http://www.cdisc.org/SDTM_IG_CE/V1#IGD_SI> ;
	isoT:origin ""^^xsd:string ;
	isoT:changeDescription ""^^xsd:string ;
	isoT:creationDate "2008-11-12T00:00:00+00:00"^^xsd:dateTime ;
	isoT:lastChangeDate "2008-11-12T00:00:00+00:00"^^xsd:dateTime ;
	isoT:explanatoryComment ""^^xsd:string ;
	bd:rule ""^^xsd:string ;
	bd:ordinal "1"^^xsd:positiveInteger ;
	bd:includesColumn <http://www.cdisc.org/SDTM_IG_CE/V1#IGD_STUDYID> ;
	bd:includesColumn <http://www.cdisc.org/SDTM_IG_CE/V1#IGD_DOMAIN> ;
	bd:includesColumn <http://www.cdisc.org/SDTM_IG_CE/V1#IGD_USUBJID> ;
	bd:includesColumn <http://www.cdisc.org/SDTM_IG_CE/V1#IGD_CESEQ> ;
	bd:includesColumn <http://www.cdisc.org/SDTM_IG_CE/V1#IGD_CEGRPID> ;
	bd:includesColumn <http://www.cdisc.org/SDTM_IG_CE/V1#IGD_CEREFID> ;
	bd:includesColumn <http://www.cdisc.org/SDTM_IG_CE/V1#IGD_CESPID> ;
	bd:includesColumn <http://www.cdisc.org/SDTM_IG_CE/V1#IGD_CETERM> ;
	bd:includesColumn <http://www.cdisc.org/SDTM_IG_CE/V1#IGD_CEDECOD> ;
	bd:includesColumn <http://www.cdisc.org/SDTM_IG_CE/V1#IGD_CECAT> ;
	bd:includesColumn <http://www.cdisc.org/SDTM_IG_CE/V1#IGD_CESCAT> ;
	bd:includesColumn <http://www.cdisc.org/SDTM_IG_CE/V1#IGD_CEPRESP> ;
	bd:includesColumn <http://www.cdisc.org/SDTM_IG_CE/V1#IGD_CEOCCUR> ;
	bd:includesColumn <http://www.cdisc.org/SDTM_IG_CE/V1#IGD_CESTAT> ;
	bd:includesColumn <http://www.cdisc.org/SDTM_IG_CE/V1#IGD_CEREASND> ;
	bd:includesColumn <http://www.cdisc.org/SDTM_IG_CE/V1#IGD_CEBODSYS> ;
	bd:includesColumn <http://www.cdisc.org/SDTM_IG_CE/V1#IGD_CESEV> ;
	bd:includesColumn <http://www.cdisc.org/SDTM_IG_CE/V1#IGD_CEDTC> ;
	bd:includesColumn <http://www.cdisc.org/SDTM_IG_CE/V1#IGD_CESTDTC> ;
	bd:includesColumn <http://www.cdisc.org/SDTM_IG_CE/V1#IGD_CEENDTC> ;
	bd:includesColumn <http://www.cdisc.org/SDTM_IG_CE/V1#IGD_CEDY> ;
	bd:includesColumn <http://www.cdisc.org/SDTM_IG_CE/V1#IGD_CESTRF> ;
	bd:includesColumn <http://www.cdisc.org/SDTM_IG_CE/V1#IGD_CEENRF> ;
	bd:includesColumn <http://www.cdisc.org/SDTM_IG_CE/V1#IGD_CESTRTPT> ;
	bd:includesColumn <http://www.cdisc.org/SDTM_IG_CE/V1#IGD_CESTTPT> ;
	bd:includesColumn <http://www.cdisc.org/SDTM_IG_CE/V1#IGD_CEENRTPT> ;
	bd:includesColumn <http://www.cdisc.org/SDTM_IG_CE/V1#IGD_CEENTPT> ;
	bd:prefix "CE"^^xsd:string ;
	bd:structure "One record per event per subject"^^xsd:string ;
	bd:basedOnClass <http://www.cdisc.org/SDTM_MODEL_EVENTS/V1#CL> ;
.
<http://www.cdisc.org/SDTM_IG_CE/V1#IGD_RS>
	rdf:type isoR:RegistrationState ;
	isoR:registrationStatus "Standard"^^xsd:string ;
	isoR:administrativeNote ""^^xsd:string ;
	isoR:effectiveDate "2016-01-01T00:00:00+00:00"^^xsd:dateTime ;
	isoR:untilDate "2016-01-01T00:00:00+00:00"^^xsd:dateTime ;
	isoR:unresolvedIssue ""^^xsd:string ;
	isoR:administrativeStatus ""^^xsd:string ;
	isoR:previousState "Standard"^^xsd:string ;
	isoR:multipleEdit "false"^^xsd:boolean ;
	isoR:byAuthority <http://www.assero.co.uk/RA#DUNS084433759> ;
.
<http://www.cdisc.org/SDTM_IG_CE/V1#IGD_SI>
	rdf:type isoI:ScopedIdentifier ;
	isoI:identifier "SDTM IG CE"^^xsd:string ;
	isoI:versionLabel "2008-11-12 Release"^^xsd:string ;
	isoI:version "1"^^xsd:positiveInteger ;
	isoI:semanticVersion "3.1.2"^^xsd:string ;
	isoI:hasScope <http://www.assero.co.uk/NS#CDISC> ;
.
<http://www.cdisc.org/SDTM_IG_CE/V1#IGD_STUDYID>
	rdf:type bd:SdtmDomainVariable ;
	isoC:label "Study Identifier"^^xsd:string ;
	bd:rule ""^^xsd:string ;
	bd:ordinal "1"^^xsd:positiveInteger ;
	bd:name "STUDYID"^^xsd:string ;
	bd:description "Unique identifier for a study."^^xsd:string ;
	bd:format ""^^xsd:string ;
	bd:ctAndFormat ""^^xsd:string ;
	bd:compliance <http://www.assero.co.uk/CSN#52070084-cdd3-4ba8-8377-f670e4b0276c> ;
	bd:basedOnClassVariable <http://www.cdisc.org/SDTM_MODEL_ALL/V1#CL_STUDYID> ;
.
<http://www.cdisc.org/SDTM_IG_CE/V1#IGD_DOMAIN>
	rdf:type bd:SdtmDomainVariable ;
	isoC:label "Domain Abbreviation"^^xsd:string ;
	bd:rule ""^^xsd:string ;
	bd:ordinal "2"^^xsd:positiveInteger ;
	bd:name "DOMAIN"^^xsd:string ;
	bd:description "Two-character abbreviation for the domain."^^xsd:string ;
	bd:format ""^^xsd:string ;
	bd:ctAndFormat ""^^xsd:string ;
	bd:compliance <http://www.assero.co.uk/CSN#52070084-cdd3-4ba8-8377-f670e4b0276c> ;
	bd:basedOnClassVariable <http://www.cdisc.org/SDTM_MODEL_ALL/V1#CL_DOMAIN> ;
.
<http://www.cdisc.org/SDTM_IG_CE/V1#IGD_USUBJID>
	rdf:type bd:SdtmDomainVariable ;
	isoC:label "Unique Subject Identifier"^^xsd:string ;
	bd:rule ""^^xsd:string ;
	bd:ordinal "3"^^xsd:positiveInteger ;
	bd:name "USUBJID"^^xsd:string ;
	bd:description "Identifier used to uniquely identify a subject across all studies for all applications or submissions involving the product."^^xsd:string ;
	bd:format ""^^xsd:string ;
	bd:ctAndFormat ""^^xsd:string ;
	bd:compliance <http://www.assero.co.uk/CSN#52070084-cdd3-4ba8-8377-f670e4b0276c> ;
	bd:basedOnClassVariable <http://www.cdisc.org/SDTM_MODEL_ALL/V1#CL_USUBJID> ;
.
<http://www.cdisc.org/SDTM_IG_CE/V1#IGD_CESEQ>
	rdf:type bd:SdtmDomainVariable ;
	isoC:label "Sequence Number"^^xsd:string ;
	bd:rule ""^^xsd:string ;
	bd:ordinal "4"^^xsd:positiveInteger ;
	bd:name "CESEQ"^^xsd:string ;
	bd:description "Sequence Number given to ensure uniqueness of subject records within a domain. May be any valid number."^^xsd:string ;
	bd:format ""^^xsd:string ;
	bd:ctAndFormat ""^^xsd:string ;
	bd:compliance <http://www.assero.co.uk/CSN#52070084-cdd3-4ba8-8377-f670e4b0276c> ;
	bd:basedOnClassVariable <http://www.cdisc.org/SDTM_MODEL_ALL/V1#CL_--SEQ> ;
.
<http://www.cdisc.org/SDTM_IG_CE/V1#IGD_CEGRPID>
	rdf:type bd:SdtmDomainVariable ;
	isoC:label "Group ID"^^xsd:string ;
	bd:rule ""^^xsd:string ;
	bd:ordinal "5"^^xsd:positiveInteger ;
	bd:name "CEGRPID"^^xsd:string ;
	bd:description "Used to tie together a block of related records for a subject within a domain."^^xsd:string ;
	bd:format ""^^xsd:string ;
	bd:ctAndFormat ""^^xsd:string ;
	bd:compliance <http://www.assero.co.uk/CSN#f7d9d4e1-a00a-487e-89db-ebece910ba0d> ;
	bd:basedOnClassVariable <http://www.cdisc.org/SDTM_MODEL_ALL/V1#CL_--GRPID> ;
.
<http://www.cdisc.org/SDTM_IG_CE/V1#IGD_CEREFID>
	rdf:type bd:SdtmDomainVariable ;
	isoC:label "Reference ID"^^xsd:string ;
	bd:rule ""^^xsd:string ;
	bd:ordinal "6"^^xsd:positiveInteger ;
	bd:name "CEREFID"^^xsd:string ;
	bd:description "Internal or external identifier."^^xsd:string ;
	bd:format ""^^xsd:string ;
	bd:ctAndFormat ""^^xsd:string ;
	bd:compliance <http://www.assero.co.uk/CSN#f7d9d4e1-a00a-487e-89db-ebece910ba0d> ;
	bd:basedOnClassVariable <http://www.cdisc.org/SDTM_MODEL_ALL/V1#CL_--REFID> ;
.
<http://www.cdisc.org/SDTM_IG_CE/V1#IGD_CESPID>
	rdf:type bd:SdtmDomainVariable ;
	isoC:label "Sponsor-Defined Identifier"^^xsd:string ;
	bd:rule ""^^xsd:string ;
	bd:ordinal "7"^^xsd:positiveInteger ;
	bd:name "CESPID"^^xsd:string ;
	bd:description "Sponsor-defined reference number. Perhaps pre-printed on the CRF as an explicit line identifier or defined in the sponsor's operational database. Example: Line number on a CRF page."^^xsd:string ;
	bd:format ""^^xsd:string ;
	bd:ctAndFormat ""^^xsd:string ;
	bd:compliance <http://www.assero.co.uk/CSN#f7d9d4e1-a00a-487e-89db-ebece910ba0d> ;
	bd:basedOnClassVariable <http://www.cdisc.org/SDTM_MODEL_ALL/V1#CL_--SPID> ;
.
<http://www.cdisc.org/SDTM_IG_CE/V1#IGD_CETERM>
	rdf:type bd:SdtmDomainVariable ;
	isoC:label "Reported Term for the Clinical Event"^^xsd:string ;
	bd:rule ""^^xsd:string ;
	bd:ordinal "8"^^xsd:positiveInteger ;
	bd:name "CETERM"^^xsd:string ;
	bd:description "Term for the medical condition or event. Most likely pre-printed on CRF."^^xsd:string ;
	bd:format ""^^xsd:string ;
	bd:ctAndFormat ""^^xsd:string ;
	bd:compliance <http://www.assero.co.uk/CSN#52070084-cdd3-4ba8-8377-f670e4b0276c> ;
	bd:basedOnClassVariable <http://www.cdisc.org/SDTM_MODEL_EVENTS/V1#CL_--TERM> ;
	bd:isA <http://www.s-cubed.dk/CAR#2a4eb8036d87ab68656ba5b80bbf77123f088904> ;
.
<http://www.cdisc.org/SDTM_IG_CE/V1#IGD_CEDECOD>
	rdf:type bd:SdtmDomainVariable ;
	isoC:label "Dictionary-Derived Term"^^xsd:string ;
	bd:rule ""^^xsd:string ;
	bd:ordinal "9"^^xsd:positiveInteger ;
	bd:name "CEDECOD"^^xsd:string ;
	bd:description "Controlled terminology for the name of the clinical event. The sponsor is expected to provide the dictionary name and version used to map the terms utilizing the define.xml external codelist attributes"^^xsd:string ;
	bd:format ""^^xsd:string ;
	bd:ctAndFormat ""^^xsd:string ;
	bd:compliance <http://www.assero.co.uk/CSN#f7d9d4e1-a00a-487e-89db-ebece910ba0d> ;
	bd:basedOnClassVariable <http://www.cdisc.org/SDTM_MODEL_EVENTS/V1#CL_--DECOD> ;
.
<http://www.cdisc.org/SDTM_IG_CE/V1#IGD_CECAT>
	rdf:type bd:SdtmDomainVariable ;
	isoC:label "Category for Clinical Event"^^xsd:string ;
	bd:rule ""^^xsd:string ;
	bd:ordinal "10"^^xsd:positiveInteger ;
	bd:name "CECAT"^^xsd:string ;
	bd:description "Used to define a category of related records."^^xsd:string ;
	bd:format ""^^xsd:string ;
	bd:ctAndFormat ""^^xsd:string ;
	bd:compliance <http://www.assero.co.uk/CSN#f7d9d4e1-a00a-487e-89db-ebece910ba0d> ;
	bd:basedOnClassVariable <http://www.cdisc.org/SDTM_MODEL_EVENTS/V1#CL_--CAT> ;
	bd:isA <http://www.s-cubed.dk/CAR#a3c686e711e4720f99b4562bb3dbaae7ab658cf2> ;
.
<http://www.cdisc.org/SDTM_IG_CE/V1#IGD_CESCAT>
	rdf:type bd:SdtmDomainVariable ;
	isoC:label "Subcategory for Clinical Event"^^xsd:string ;
	bd:rule ""^^xsd:string ;
	bd:ordinal "11"^^xsd:positiveInteger ;
	bd:name "CESCAT"^^xsd:string ;
	bd:description "A further categorization of the condition or event."^^xsd:string ;
	bd:format ""^^xsd:string ;
	bd:ctAndFormat ""^^xsd:string ;
	bd:compliance <http://www.assero.co.uk/CSN#f7d9d4e1-a00a-487e-89db-ebece910ba0d> ;
	bd:basedOnClassVariable <http://www.cdisc.org/SDTM_MODEL_EVENTS/V1#CL_--SCAT> ;
	bd:isA <http://www.s-cubed.dk/CAR#479a67983e739413da55faf0dc509f83fd5dea64> ;
.
<http://www.cdisc.org/SDTM_IG_CE/V1#IGD_CEPRESP>
	rdf:type bd:SdtmDomainVariable ;
	isoC:label "Clinical Event Pre-Specified"^^xsd:string ;
	bd:rule ""^^xsd:string ;
	bd:ordinal "12"^^xsd:positiveInteger ;
	bd:name "CEPRESP"^^xsd:string ;
	bd:description "Used to indicate whether the Event in CETERM was pre-specified. Value is Y for pre-specified events, null for spontaneously reported events."^^xsd:string ;
	bd:format ""^^xsd:string ;
	bd:ctAndFormat "(NY)"^^xsd:string ;
	bd:compliance <http://www.assero.co.uk/CSN#f7d9d4e1-a00a-487e-89db-ebece910ba0d> ;
	bd:ctReference <http://www.cdisc.org/SDTM_IG_CE/V1#IGD_CEPRESP_TMC1> ;
	bd:basedOnClassVariable <http://www.cdisc.org/SDTM_MODEL_EVENTS/V1#CL_--PRESP> ;
	bd:isA <http://www.s-cubed.dk/CAR#b724045eaf94ce25b3eaa5cd7d2d5bf66de219b1> ;
.
<http://www.cdisc.org/SDTM_IG_CE/V1#IGD_CEPRESP_TMC1>
	rdf:type bo:TMcReference ;
	isoC:label "NY"^^xsd:string ;
	bo:enabled "true"^^xsd:boolean ;
	bo:optional "false"^^xsd:boolean ;
	bo:ordinal "1"^^xsd:positiveInteger ;
	bo:reference <http://www.cdisc.org/C66742/V4#C66742> ;
	bo:context <http://www.cdisc.org/CT/V13#TH> ;
.
<http://www.cdisc.org/SDTM_IG_CE/V1#IGD_CEOCCUR>
	rdf:type bd:SdtmDomainVariable ;
	isoC:label "Clinical Event Occurrence"^^xsd:string ;
	bd:rule ""^^xsd:string ;
	bd:ordinal "13"^^xsd:positiveInteger ;
	bd:name "CEOCCUR"^^xsd:string ;
	bd:description "Used when the occurrence of specific events is solicited to indicate whether or not a clinical event occurred. Values are null for spontaneously reported events."^^xsd:string ;
	bd:format ""^^xsd:string ;
	bd:ctAndFormat "(NY)"^^xsd:string ;
	bd:compliance <http://www.assero.co.uk/CSN#f7d9d4e1-a00a-487e-89db-ebece910ba0d> ;
	bd:ctReference <http://www.cdisc.org/SDTM_IG_CE/V1#IGD_CEOCCUR_TMC1> ;
	bd:basedOnClassVariable <http://www.cdisc.org/SDTM_MODEL_EVENTS/V1#CL_--OCCUR> ;
	bd:isA <http://www.s-cubed.dk/CAR#4f618850ebd7856345f3aae9299ab9fd81e02d93> ;
.
<http://www.cdisc.org/SDTM_IG_CE/V1#IGD_CEOCCUR_TMC1>
	rdf:type bo:TMcReference ;
	isoC:label "NY"^^xsd:string ;
	bo:enabled "true"^^xsd:boolean ;
	bo:optional "false"^^xsd:boolean ;
	bo:ordinal "1"^^xsd:positiveInteger ;
	bo:reference <http://www.cdisc.org/C66742/V4#C66742> ;
	bo:context <http://www.cdisc.org/CT/V13#TH> ;
.
<http://www.cdisc.org/SDTM_IG_CE/V1#IGD_CESTAT>
	rdf:type bd:SdtmDomainVariable ;
	isoC:label "Completion Status"^^xsd:string ;
	bd:rule ""^^xsd:string ;
	bd:ordinal "14"^^xsd:positiveInteger ;
	bd:name "CESTAT"^^xsd:string ;
	bd:description "The status indicates that a question from a pre-specified list was not answered."^^xsd:string ;
	bd:format ""^^xsd:string ;
	bd:ctAndFormat "(ND)"^^xsd:string ;
	bd:compliance <http://www.assero.co.uk/CSN#f7d9d4e1-a00a-487e-89db-ebece910ba0d> ;
	bd:ctReference <http://www.cdisc.org/SDTM_IG_CE/V1#IGD_CESTAT_TMC1> ;
	bd:basedOnClassVariable <http://www.cdisc.org/SDTM_MODEL_EVENTS/V1#CL_--STAT> ;
	bd:isA <http://www.s-cubed.dk/CAR#bae7d5be70820ed56467bd9a63744e23b47bd711> ;
.
<http://www.cdisc.org/SDTM_IG_CE/V1#IGD_CESTAT_TMC1>
	rdf:type bo:TMcReference ;
	isoC:label "ND"^^xsd:string ;
	bo:enabled "true"^^xsd:boolean ;
	bo:optional "false"^^xsd:boolean ;
	bo:ordinal "1"^^xsd:positiveInteger ;
	bo:reference <http://www.cdisc.org/C66789/V13#C66789> ;
	bo:context <http://www.cdisc.org/CT/V13#TH> ;
.
<http://www.cdisc.org/SDTM_IG_CE/V1#IGD_CEREASND>
	rdf:type bd:SdtmDomainVariable ;
	isoC:label "Reason Clinical Event Not Collected"^^xsd:string ;
	bd:rule ""^^xsd:string ;
	bd:ordinal "15"^^xsd:positiveInteger ;
	bd:name "CEREASND"^^xsd:string ;
	bd:description "Describes the reason clinical event data was not collected. Used in conjunction with CESTAT when value is NOT DONE."^^xsd:string ;
	bd:format ""^^xsd:string ;
	bd:ctAndFormat ""^^xsd:string ;
	bd:compliance <http://www.assero.co.uk/CSN#f7d9d4e1-a00a-487e-89db-ebece910ba0d> ;
	bd:basedOnClassVariable <http://www.cdisc.org/SDTM_MODEL_EVENTS/V1#CL_--REASND> ;
	bd:isA <http://www.s-cubed.dk/CAR#52b30e2515e4fa778a3ab77470f0b096877a26c2> ;
.
<http://www.cdisc.org/SDTM_IG_CE/V1#IGD_CEBODSYS>
	rdf:type bd:SdtmDomainVariable ;
	isoC:label "Body System or Organ Class"^^xsd:string ;
	bd:rule ""^^xsd:string ;
	bd:ordinal "16"^^xsd:positiveInteger ;
	bd:name "CEBODSYS"^^xsd:string ;
	bd:description "Dictionary-derived. Body system or organ class that is involved in an event or measurement from a standard hierarchy (e.g., MedDRA). When using a multi-axial dictionary such as MedDRA, this should contain the SOC used for the sponsor's analyses and summary tables which may not necessarily be the primary SOC."^^xsd:string ;
	bd:format ""^^xsd:string ;
	bd:ctAndFormat ""^^xsd:string ;
	bd:compliance <http://www.assero.co.uk/CSN#f7d9d4e1-a00a-487e-89db-ebece910ba0d> ;
	bd:basedOnClassVariable <http://www.cdisc.org/SDTM_MODEL_EVENTS/V1#CL_--BODSYS> ;
.
<http://www.cdisc.org/SDTM_IG_CE/V1#IGD_CESEV>
	rdf:type bd:SdtmDomainVariable ;
	isoC:label "Severity/Intensity"^^xsd:string ;
	bd:rule ""^^xsd:string ;
	bd:ordinal "17"^^xsd:positiveInteger ;
	bd:name "CESEV"^^xsd:string ;
	bd:description "The severity or intensity of the event. Examples: MILD, MODERATE, SEVERE"^^xsd:string ;
	bd:format ""^^xsd:string ;
	bd:ctAndFormat ""^^xsd:string ;
	bd:compliance <http://www.assero.co.uk/CSN#f7d9d4e1-a00a-487e-89db-ebece910ba0d> ;
	bd:basedOnClassVariable <http://www.cdisc.org/SDTM_MODEL_EVENTS/V1#CL_--SEV> ;
	bd:isA <http://www.s-cubed.dk/CAR#de314fa0c9d9e359b633f2fdab4659c886fe5986> ;
.
<http://www.cdisc.org/SDTM_IG_CE/V1#IGD_CEDTC>
	rdf:type bd:SdtmDomainVariable ;
	isoC:label "Date/Time of Event Collection"^^xsd:string ;
	bd:rule ""^^xsd:string ;
	bd:ordinal "18"^^xsd:positiveInteger ;
	bd:name "CEDTC"^^xsd:string ;
	bd:description ""^^xsd:string ;
	bd:format "ISO 8601"^^xsd:string ;
	bd:ctAndFormat "ISO 8601"^^xsd:string ;
	bd:compliance <http://www.assero.co.uk/CSN#f7d9d4e1-a00a-487e-89db-ebece910ba0d> ;
	bd:basedOnClassVariable <http://www.cdisc.org/SDTM_MODEL_ALL/V1#CL_--DTC> ;
	bd:isA <http://www.s-cubed.dk/CAR#232daabe4ca2dfdb32645c572b1d34ddb4fe9995> ;
.
<http://www.cdisc.org/SDTM_IG_CE/V1#IGD_CESTDTC>
	rdf:type bd:SdtmDomainVariable ;
	isoC:label "Start Date/Time of Clinical Event"^^xsd:string ;
	bd:rule ""^^xsd:string ;
	bd:ordinal "19"^^xsd:positiveInteger ;
	bd:name "CESTDTC"^^xsd:string ;
	bd:description ""^^xsd:string ;
	bd:format "ISO 8601"^^xsd:string ;
	bd:ctAndFormat "ISO 8601"^^xsd:string ;
	bd:compliance <http://www.assero.co.uk/CSN#f7d9d4e1-a00a-487e-89db-ebece910ba0d> ;
	bd:basedOnClassVariable <http://www.cdisc.org/SDTM_MODEL_ALL/V1#CL_--STDTC> ;
	bd:isA <http://www.s-cubed.dk/CAR#83c87956785cde43c109e30fcbd95cca63a18d38> ;
.
<http://www.cdisc.org/SDTM_IG_CE/V1#IGD_CEENDTC>
	rdf:type bd:SdtmDomainVariable ;
	isoC:label "End Date/Time of Clinical Event"^^xsd:string ;
	bd:rule ""^^xsd:string ;
	bd:ordinal "20"^^xsd:positiveInteger ;
	bd:name "CEENDTC"^^xsd:string ;
	bd:description ""^^xsd:string ;
	bd:format "ISO 8601"^^xsd:string ;
	bd:ctAndFormat "ISO 8601"^^xsd:string ;
	bd:compliance <http://www.assero.co.uk/CSN#f7d9d4e1-a00a-487e-89db-ebece910ba0d> ;
	bd:basedOnClassVariable <http://www.cdisc.org/SDTM_MODEL_ALL/V1#CL_--ENDTC> ;
	bd:isA <http://www.s-cubed.dk/CAR#71c54c70967ea84127e4bd588bd627ec0e581dfb> ;
.
<http://www.cdisc.org/SDTM_IG_CE/V1#IGD_CEDY>
	rdf:type bd:SdtmDomainVariable ;
	isoC:label "Study Day of Event Collection"^^xsd:string ;
	bd:rule ""^^xsd:string ;
	bd:ordinal "21"^^xsd:positiveInteger ;
	bd:name "CEDY"^^xsd:string ;
	bd:description "1. Study day of clinical event collection, measured as integer days. 2. Algorithm for calculations must be relative to the sponsor-defined RFSTDTC variable in Demographics. This formula should be consistent across the submission."^^xsd:string ;
	bd:format ""^^xsd:string ;
	bd:ctAndFormat ""^^xsd:string ;
	bd:compliance <http://www.assero.co.uk/CSN#f7d9d4e1-a00a-487e-89db-ebece910ba0d> ;
	bd:basedOnClassVariable <http://www.cdisc.org/SDTM_MODEL_ALL/V1#CL_--DY> ;
.
<http://www.cdisc.org/SDTM_IG_CE/V1#IGD_CESTRF>
	rdf:type bd:SdtmDomainVariable ;
	isoC:label "Start Relative to Reference Period"^^xsd:string ;
	bd:rule ""^^xsd:string ;
	bd:ordinal "22"^^xsd:positiveInteger ;
	bd:name "CESTRF"^^xsd:string ;
	bd:description "Describes the start of the clinical event relative to the sponsor-defined reference period. The sponsor-defined reference period is a continuous period of time defined by a discrete starting point and a discrete ending point (represented by RFSTDTC and RFENDTC in Demographics)."^^xsd:string ;
	bd:format ""^^xsd:string ;
	bd:ctAndFormat "(STENRF)"^^xsd:string ;
	bd:compliance <http://www.assero.co.uk/CSN#f7d9d4e1-a00a-487e-89db-ebece910ba0d> ;
	bd:ctReference <http://www.cdisc.org/SDTM_IG_CE/V1#IGD_CESTRF_TMC1> ;
	bd:basedOnClassVariable <http://www.cdisc.org/SDTM_MODEL_ALL/V1#CL_--STRF> ;
.
<http://www.cdisc.org/SDTM_IG_CE/V1#IGD_CESTRF_TMC1>
	rdf:type bo:TMcReference ;
	isoC:label "STENRF"^^xsd:string ;
	bo:enabled "true"^^xsd:boolean ;
	bo:optional "false"^^xsd:boolean ;
	bo:ordinal "1"^^xsd:positiveInteger ;
	bo:reference <http://www.cdisc.org/C66728/V4#C66728> ;
	bo:context <http://www.cdisc.org/CT/V13#TH> ;
.
<http://www.cdisc.org/SDTM_IG_CE/V1#IGD_CEENRF>
	rdf:type bd:SdtmDomainVariable ;
	isoC:label "End Relative to Reference Period"^^xsd:string ;
	bd:rule ""^^xsd:string ;
	bd:ordinal "23"^^xsd:positiveInteger ;
	bd:name "CEENRF"^^xsd:string ;
	bd:description "Describes the end of the event relative to the sponsor-defined reference period. The sponsor-defined reference period is a continuous period of time defined by a discrete starting point and a discrete ending point (represented by RFSTDTC and RFENDTC in Demographics)."^^xsd:string ;
	bd:format ""^^xsd:string ;
	bd:ctAndFormat "(STENRF)"^^xsd:string ;
	bd:compliance <http://www.assero.co.uk/CSN#f7d9d4e1-a00a-487e-89db-ebece910ba0d> ;
	bd:ctReference <http://www.cdisc.org/SDTM_IG_CE/V1#IGD_CEENRF_TMC1> ;
	bd:basedOnClassVariable <http://www.cdisc.org/SDTM_MODEL_ALL/V1#CL_--ENRF> ;
.
<http://www.cdisc.org/SDTM_IG_CE/V1#IGD_CEENRF_TMC1>
	rdf:type bo:TMcReference ;
	isoC:label "STENRF"^^xsd:string ;
	bo:enabled "true"^^xsd:boolean ;
	bo:optional "false"^^xsd:boolean ;
	bo:ordinal "1"^^xsd:positiveInteger ;
	bo:reference <http://www.cdisc.org/C66728/V4#C66728> ;
	bo:context <http://www.cdisc.org/CT/V13#TH> ;
.
<http://www.cdisc.org/SDTM_IG_CE/V1#IGD_CESTRTPT>
	rdf:type bd:SdtmDomainVariable ;
	isoC:label "Start Relative to Reference Time Point"^^xsd:string ;
	bd:rule ""^^xsd:string ;
	bd:ordinal "24"^^xsd:positiveInteger ;
	bd:name "CESTRTPT"^^xsd:string ;
	bd:description "Identifies the start of the observation as being before or after the reference time point defined by variable CESTTPT."^^xsd:string ;
	bd:format "BEFORE, AFTER, COINCIDENT, U"^^xsd:string ;
	bd:ctAndFormat "BEFORE, AFTER, COINCIDENT, U"^^xsd:string ;
	bd:compliance <http://www.assero.co.uk/CSN#f7d9d4e1-a00a-487e-89db-ebece910ba0d> ;
	bd:basedOnClassVariable <http://www.cdisc.org/SDTM_MODEL_ALL/V1#CL_--STRTPT> ;
.
<http://www.cdisc.org/SDTM_IG_CE/V1#IGD_CESTTPT>
	rdf:type bd:SdtmDomainVariable ;
	isoC:label "Start Reference Time Point"^^xsd:string ;
	bd:rule ""^^xsd:string ;
	bd:ordinal "25"^^xsd:positiveInteger ;
	bd:name "CESTTPT"^^xsd:string ;
	bd:description "Description or date/time in ISO 8601 character format of the sponsor-defined reference point referred to by --STRTPT. Examples: '2003-12-15' or 'VISIT 1'."^^xsd:string ;
	bd:format ""^^xsd:string ;
	bd:ctAndFormat ""^^xsd:string ;
	bd:compliance <http://www.assero.co.uk/CSN#f7d9d4e1-a00a-487e-89db-ebece910ba0d> ;
	bd:basedOnClassVariable <http://www.cdisc.org/SDTM_MODEL_ALL/V1#CL_--STTPT> ;
.
<http://www.cdisc.org/SDTM_IG_CE/V1#IGD_CEENRTPT>
	rdf:type bd:SdtmDomainVariable ;
	isoC:label "End Relative to Reference Time Point"^^xsd:string ;
	bd:rule ""^^xsd:string ;
	bd:ordinal "26"^^xsd:positiveInteger ;
	bd:name "CEENRTPT"^^xsd:string ;
	bd:description "Identifies the end of the event as being before or after the reference time point defined by variable CEENTPT."^^xsd:string ;
	bd:format "BEFORE, AFTER, COINCIDENT, ONGOING, U"^^xsd:string ;
	bd:ctAndFormat "BEFORE, AFTER, COINCIDENT, ONGOING, U"^^xsd:string ;
	bd:compliance <http://www.assero.co.uk/CSN#f7d9d4e1-a00a-487e-89db-ebece910ba0d> ;
	bd:basedOnClassVariable <http://www.cdisc.org/SDTM_MODEL_ALL/V1#CL_--ENRTPT> ;
.
<http://www.cdisc.org/SDTM_IG_CE/V1#IGD_CEENTPT>
	rdf:type bd:SdtmDomainVariable ;
	isoC:label "End Reference Time Point"^^xsd:string ;
	bd:rule ""^^xsd:string ;
	bd:ordinal "27"^^xsd:positiveInteger ;
	bd:name "CEENTPT"^^xsd:string ;
	bd:description "Description or date/time in ISO 8601 character format of the reference point referred to by CEENRTPT. Examples: '2003-12-25' or 'VISIT 2'."^^xsd:string ;
	bd:format ""^^xsd:string ;
	bd:ctAndFormat ""^^xsd:string ;
	bd:compliance <http://www.assero.co.uk/CSN#f7d9d4e1-a00a-487e-89db-ebece910ba0d> ;
	bd:basedOnClassVariable <http://www.cdisc.org/SDTM_MODEL_ALL/V1#CL_--ENTPT> ;
.
<http://www.cdisc.org/SDTM_IG_EG/V1#IGD>
	rdf:type bd:SdtmDomain ;
	isoC:label "ECG Test Results"^^xsd:string ;
	isoT:hasState <http://www.cdisc.org/SDTM_IG_EG/V1#IGD_RS> ;
	isoT:hasIdentifier <http://www.cdisc.org/SDTM_IG_EG/V1#IGD_SI> ;
	isoT:origin ""^^xsd:string ;
	isoT:changeDescription ""^^xsd:string ;
	isoT:creationDate "2008-11-12T00:00:00+00:00"^^xsd:dateTime ;
	isoT:lastChangeDate "2008-11-12T00:00:00+00:00"^^xsd:dateTime ;
	isoT:explanatoryComment ""^^xsd:string ;
	bd:rule ""^^xsd:string ;
	bd:ordinal "1"^^xsd:positiveInteger ;
	bd:includesColumn <http://www.cdisc.org/SDTM_IG_EG/V1#IGD_STUDYID> ;
	bd:includesColumn <http://www.cdisc.org/SDTM_IG_EG/V1#IGD_DOMAIN> ;
	bd:includesColumn <http://www.cdisc.org/SDTM_IG_EG/V1#IGD_USUBJID> ;
	bd:includesColumn <http://www.cdisc.org/SDTM_IG_EG/V1#IGD_EGSEQ> ;
	bd:includesColumn <http://www.cdisc.org/SDTM_IG_EG/V1#IGD_EGGRPID> ;
	bd:includesColumn <http://www.cdisc.org/SDTM_IG_EG/V1#IGD_EGREFID> ;
	bd:includesColumn <http://www.cdisc.org/SDTM_IG_EG/V1#IGD_EGSPID> ;
	bd:includesColumn <http://www.cdisc.org/SDTM_IG_EG/V1#IGD_EGTESTCD> ;
	bd:includesColumn <http://www.cdisc.org/SDTM_IG_EG/V1#IGD_EGTEST> ;
	bd:includesColumn <http://www.cdisc.org/SDTM_IG_EG/V1#IGD_EGCAT> ;
	bd:includesColumn <http://www.cdisc.org/SDTM_IG_EG/V1#IGD_EGSCAT> ;
	bd:includesColumn <http://www.cdisc.org/SDTM_IG_EG/V1#IGD_EGPOS> ;
	bd:includesColumn <http://www.cdisc.org/SDTM_IG_EG/V1#IGD_EGORRES> ;
	bd:includesColumn <http://www.cdisc.org/SDTM_IG_EG/V1#IGD_EGORRESU> ;
	bd:includesColumn <http://www.cdisc.org/SDTM_IG_EG/V1#IGD_EGSTRESC> ;
	bd:includesColumn <http://www.cdisc.org/SDTM_IG_EG/V1#IGD_EGSTRESN> ;
	bd:includesColumn <http://www.cdisc.org/SDTM_IG_EG/V1#IGD_EGSTRESU> ;
	bd:includesColumn <http://www.cdisc.org/SDTM_IG_EG/V1#IGD_EGSTAT> ;
	bd:includesColumn <http://www.cdisc.org/SDTM_IG_EG/V1#IGD_EGREASND> ;
	bd:includesColumn <http://www.cdisc.org/SDTM_IG_EG/V1#IGD_EGXFN> ;
	bd:includesColumn <http://www.cdisc.org/SDTM_IG_EG/V1#IGD_EGNAM> ;
	bd:includesColumn <http://www.cdisc.org/SDTM_IG_EG/V1#IGD_EGLOC> ;
	bd:includesColumn <http://www.cdisc.org/SDTM_IG_EG/V1#IGD_EGMETHOD> ;
	bd:includesColumn <http://www.cdisc.org/SDTM_IG_EG/V1#IGD_EGBLFL> ;
	bd:includesColumn <http://www.cdisc.org/SDTM_IG_EG/V1#IGD_EGDRVFL> ;
	bd:includesColumn <http://www.cdisc.org/SDTM_IG_EG/V1#IGD_EGEVAL> ;
	bd:includesColumn <http://www.cdisc.org/SDTM_IG_EG/V1#IGD_VISITNUM> ;
	bd:includesColumn <http://www.cdisc.org/SDTM_IG_EG/V1#IGD_VISIT> ;
	bd:includesColumn <http://www.cdisc.org/SDTM_IG_EG/V1#IGD_VISITDY> ;
	bd:includesColumn <http://www.cdisc.org/SDTM_IG_EG/V1#IGD_EGDTC> ;
	bd:includesColumn <http://www.cdisc.org/SDTM_IG_EG/V1#IGD_EGDY> ;
	bd:includesColumn <http://www.cdisc.org/SDTM_IG_EG/V1#IGD_EGTPT> ;
	bd:includesColumn <http://www.cdisc.org/SDTM_IG_EG/V1#IGD_EGTPTNUM> ;
	bd:includesColumn <http://www.cdisc.org/SDTM_IG_EG/V1#IGD_EGELTM> ;
	bd:includesColumn <http://www.cdisc.org/SDTM_IG_EG/V1#IGD_EGTPTREF> ;
	bd:includesColumn <http://www.cdisc.org/SDTM_IG_EG/V1#IGD_EGRFTDTC> ;
	bd:prefix "EG"^^xsd:string ;
	bd:structure "One record per ECG observation per replicate per time point or one record per ECG observation per beat per visit per subject"^^xsd:string ;
	bd:basedOnClass <http://www.cdisc.org/SDTM_MODEL_FINDINGS/V1#CL> ;
.
<http://www.cdisc.org/SDTM_IG_EG/V1#IGD_RS>
	rdf:type isoR:RegistrationState ;
	isoR:registrationStatus "Standard"^^xsd:string ;
	isoR:administrativeNote ""^^xsd:string ;
	isoR:effectiveDate "2016-01-01T00:00:00+00:00"^^xsd:dateTime ;
	isoR:untilDate "2016-01-01T00:00:00+00:00"^^xsd:dateTime ;
	isoR:unresolvedIssue ""^^xsd:string ;
	isoR:administrativeStatus ""^^xsd:string ;
	isoR:previousState "Standard"^^xsd:string ;
	isoR:multipleEdit "false"^^xsd:boolean ;
	isoR:byAuthority <http://www.assero.co.uk/RA#DUNS084433759> ;
.
<http://www.cdisc.org/SDTM_IG_EG/V1#IGD_SI>
	rdf:type isoI:ScopedIdentifier ;
	isoI:identifier "SDTM IG EG"^^xsd:string ;
	isoI:versionLabel "2008-11-12 Release"^^xsd:string ;
	isoI:version "1"^^xsd:positiveInteger ;
	isoI:semanticVersion "3.1.2"^^xsd:string ;
	isoI:hasScope <http://www.assero.co.uk/NS#CDISC> ;
.
<http://www.cdisc.org/SDTM_IG_EG/V1#IGD_STUDYID>
	rdf:type bd:SdtmDomainVariable ;
	isoC:label "Study Identifier"^^xsd:string ;
	bd:rule ""^^xsd:string ;
	bd:ordinal "1"^^xsd:positiveInteger ;
	bd:name "STUDYID"^^xsd:string ;
	bd:description "Unique identifier for a study."^^xsd:string ;
	bd:format ""^^xsd:string ;
	bd:ctAndFormat ""^^xsd:string ;
	bd:compliance <http://www.assero.co.uk/CSN#52070084-cdd3-4ba8-8377-f670e4b0276c> ;
	bd:basedOnClassVariable <http://www.cdisc.org/SDTM_MODEL_ALL/V1#CL_STUDYID> ;
.
<http://www.cdisc.org/SDTM_IG_EG/V1#IGD_DOMAIN>
	rdf:type bd:SdtmDomainVariable ;
	isoC:label "Domain Abbreviation"^^xsd:string ;
	bd:rule ""^^xsd:string ;
	bd:ordinal "2"^^xsd:positiveInteger ;
	bd:name "DOMAIN"^^xsd:string ;
	bd:description "Two-character abbreviation for the domain."^^xsd:string ;
	bd:format ""^^xsd:string ;
	bd:ctAndFormat ""^^xsd:string ;
	bd:compliance <http://www.assero.co.uk/CSN#52070084-cdd3-4ba8-8377-f670e4b0276c> ;
	bd:basedOnClassVariable <http://www.cdisc.org/SDTM_MODEL_ALL/V1#CL_DOMAIN> ;
.
<http://www.cdisc.org/SDTM_IG_EG/V1#IGD_USUBJID>
	rdf:type bd:SdtmDomainVariable ;
	isoC:label "Unique Subject Identifier"^^xsd:string ;
	bd:rule ""^^xsd:string ;
	bd:ordinal "3"^^xsd:positiveInteger ;
	bd:name "USUBJID"^^xsd:string ;
	bd:description "Identifier used to uniquely identify a subject across all studies for all applications or submissions involving the product."^^xsd:string ;
	bd:format ""^^xsd:string ;
	bd:ctAndFormat ""^^xsd:string ;
	bd:compliance <http://www.assero.co.uk/CSN#52070084-cdd3-4ba8-8377-f670e4b0276c> ;
	bd:basedOnClassVariable <http://www.cdisc.org/SDTM_MODEL_ALL/V1#CL_USUBJID> ;
.
<http://www.cdisc.org/SDTM_IG_EG/V1#IGD_EGSEQ>
	rdf:type bd:SdtmDomainVariable ;
	isoC:label "Sequence Number"^^xsd:string ;
	bd:rule ""^^xsd:string ;
	bd:ordinal "4"^^xsd:positiveInteger ;
	bd:name "EGSEQ"^^xsd:string ;
	bd:description "Sequence Number given to ensure uniqueness of subject records within a domain. May be any valid number."^^xsd:string ;
	bd:format ""^^xsd:string ;
	bd:ctAndFormat ""^^xsd:string ;
	bd:compliance <http://www.assero.co.uk/CSN#52070084-cdd3-4ba8-8377-f670e4b0276c> ;
	bd:basedOnClassVariable <http://www.cdisc.org/SDTM_MODEL_ALL/V1#CL_--SEQ> ;
.
<http://www.cdisc.org/SDTM_IG_EG/V1#IGD_EGGRPID>
	rdf:type bd:SdtmDomainVariable ;
	isoC:label "Group ID"^^xsd:string ;
	bd:rule ""^^xsd:string ;
	bd:ordinal "5"^^xsd:positiveInteger ;
	bd:name "EGGRPID"^^xsd:string ;
	bd:description "Used to tie together a block of related records in a single domain for a subject."^^xsd:string ;
	bd:format ""^^xsd:string ;
	bd:ctAndFormat ""^^xsd:string ;
	bd:compliance <http://www.assero.co.uk/CSN#f7d9d4e1-a00a-487e-89db-ebece910ba0d> ;
	bd:basedOnClassVariable <http://www.cdisc.org/SDTM_MODEL_ALL/V1#CL_--GRPID> ;
.
<http://www.cdisc.org/SDTM_IG_EG/V1#IGD_EGREFID>
	rdf:type bd:SdtmDomainVariable ;
	isoC:label "ECG Reference ID"^^xsd:string ;
	bd:rule ""^^xsd:string ;
	bd:ordinal "6"^^xsd:positiveInteger ;
	bd:name "EGREFID"^^xsd:string ;
	bd:description "Internal or external ECG identifier. Example: UUID."^^xsd:string ;
	bd:format ""^^xsd:string ;
	bd:ctAndFormat ""^^xsd:string ;
	bd:compliance <http://www.assero.co.uk/CSN#f7d9d4e1-a00a-487e-89db-ebece910ba0d> ;
	bd:basedOnClassVariable <http://www.cdisc.org/SDTM_MODEL_ALL/V1#CL_--REFID> ;
.
<http://www.cdisc.org/SDTM_IG_EG/V1#IGD_EGSPID>
	rdf:type bd:SdtmDomainVariable ;
	isoC:label "Sponsor-Defined Identifier"^^xsd:string ;
	bd:rule ""^^xsd:string ;
	bd:ordinal "7"^^xsd:positiveInteger ;
	bd:name "EGSPID"^^xsd:string ;
	bd:description "Sponsor-defined reference number. Perhaps pre-printed on the CRF as an explicit line identifier or defined in the sponsor's operational database. Example: Line number from the ECG page."^^xsd:string ;
	bd:format ""^^xsd:string ;
	bd:ctAndFormat ""^^xsd:string ;
	bd:compliance <http://www.assero.co.uk/CSN#f7d9d4e1-a00a-487e-89db-ebece910ba0d> ;
	bd:basedOnClassVariable <http://www.cdisc.org/SDTM_MODEL_ALL/V1#CL_--SPID> ;
.
<http://www.cdisc.org/SDTM_IG_EG/V1#IGD_EGTESTCD>
	rdf:type bd:SdtmDomainVariable ;
	isoC:label "ECG Test or Examination Short Name"^^xsd:string ;
	bd:rule ""^^xsd:string ;
	bd:ordinal "8"^^xsd:positiveInteger ;
	bd:name "EGTESTCD"^^xsd:string ;
	bd:description "Short name of the measurement, test, or examination described in EGTEST. It can be used as a column name when converting a dataset from a vertical to a horizontal format. The value in EGTESTCD cannot be longer than 8 characters, nor can it start with a number (e.g., '1TEST'). EGTESTCD cannot contain characters other than letters, numbers, or underscores. Examples :PRMEAN, QTMEAN"^^xsd:string ;
	bd:format ""^^xsd:string ;
	bd:ctAndFormat "(EGTESTCD)"^^xsd:string ;
	bd:compliance <http://www.assero.co.uk/CSN#52070084-cdd3-4ba8-8377-f670e4b0276c> ;
	bd:ctReference <http://www.cdisc.org/SDTM_IG_EG/V1#IGD_EGTESTCD_TMC1> ;
	bd:basedOnClassVariable <http://www.cdisc.org/SDTM_MODEL_FINDINGS/V1#CL_--TESTCD> ;
	bd:isA <http://www.s-cubed.dk/CAR#18a302ee283ea042f30ca2cb852a2846f97c9413> ;
.
<http://www.cdisc.org/SDTM_IG_EG/V1#IGD_EGTESTCD_TMC1>
	rdf:type bo:TMcReference ;
	isoC:label "EGTESTCD"^^xsd:string ;
	bo:enabled "true"^^xsd:boolean ;
	bo:optional "false"^^xsd:boolean ;
	bo:ordinal "1"^^xsd:positiveInteger ;
	bo:reference <http://www.cdisc.org/C71153/V6#C71153> ;
	bo:context <http://www.cdisc.org/CT/V13#TH> ;
.
<http://www.cdisc.org/SDTM_IG_EG/V1#IGD_EGTEST>
	rdf:type bd:SdtmDomainVariable ;
	isoC:label "ECG Test or Examination Name"^^xsd:string ;
	bd:rule ""^^xsd:string ;
	bd:ordinal "9"^^xsd:positiveInteger ;
	bd:name "EGTEST"^^xsd:string ;
	bd:description "Verbatim name of the test or examination used to obtain the measurement or finding. The value in EGTEST cannot be longer than 40 characters. Examples: Summary (Mean) PR Duration, Summary (Mean) QT Duration"^^xsd:string ;
	bd:format ""^^xsd:string ;
	bd:ctAndFormat "(EGTEST)"^^xsd:string ;
	bd:compliance <http://www.assero.co.uk/CSN#52070084-cdd3-4ba8-8377-f670e4b0276c> ;
	bd:ctReference <http://www.cdisc.org/SDTM_IG_EG/V1#IGD_EGTEST_TMC1> ;
	bd:basedOnClassVariable <http://www.cdisc.org/SDTM_MODEL_FINDINGS/V1#CL_--TEST> ;
.
<http://www.cdisc.org/SDTM_IG_EG/V1#IGD_EGTEST_TMC1>
	rdf:type bo:TMcReference ;
	isoC:label "EGTEST"^^xsd:string ;
	bo:enabled "true"^^xsd:boolean ;
	bo:optional "false"^^xsd:boolean ;
	bo:ordinal "1"^^xsd:positiveInteger ;
	bo:reference <http://www.cdisc.org/C71152/V6#C71152> ;
	bo:context <http://www.cdisc.org/CT/V13#TH> ;
.
<http://www.cdisc.org/SDTM_IG_EG/V1#IGD_EGCAT>
	rdf:type bd:SdtmDomainVariable ;
	isoC:label "Category for ECG"^^xsd:string ;
	bd:rule ""^^xsd:string ;
	bd:ordinal "10"^^xsd:positiveInteger ;
	bd:name "EGCAT"^^xsd:string ;
	bd:description "Used to categorize ECG observations across subjects. Examples: MEASUREMENT, FINDING, INTERVAL"^^xsd:string ;
	bd:format ""^^xsd:string ;
	bd:ctAndFormat ""^^xsd:string ;
	bd:compliance <http://www.assero.co.uk/CSN#f7d9d4e1-a00a-487e-89db-ebece910ba0d> ;
	bd:basedOnClassVariable <http://www.cdisc.org/SDTM_MODEL_FINDINGS/V1#CL_--CAT> ;
	bd:isA <http://www.s-cubed.dk/CAR#a3c686e711e4720f99b4562bb3dbaae7ab658cf2> ;
.
<http://www.cdisc.org/SDTM_IG_EG/V1#IGD_EGSCAT>
	rdf:type bd:SdtmDomainVariable ;
	isoC:label "Subcategory for ECG"^^xsd:string ;
	bd:rule ""^^xsd:string ;
	bd:ordinal "11"^^xsd:positiveInteger ;
	bd:name "EGSCAT"^^xsd:string ;
	bd:description "A further categorization of the ECG."^^xsd:string ;
	bd:format ""^^xsd:string ;
	bd:ctAndFormat ""^^xsd:string ;
	bd:compliance <http://www.assero.co.uk/CSN#f7d9d4e1-a00a-487e-89db-ebece910ba0d> ;
	bd:basedOnClassVariable <http://www.cdisc.org/SDTM_MODEL_FINDINGS/V1#CL_--SCAT> ;
	bd:isA <http://www.s-cubed.dk/CAR#479a67983e739413da55faf0dc509f83fd5dea64> ;
.
<http://www.cdisc.org/SDTM_IG_EG/V1#IGD_EGPOS>
	rdf:type bd:SdtmDomainVariable ;
	isoC:label "ECG Position of Subject"^^xsd:string ;
	bd:rule ""^^xsd:string ;
	bd:ordinal "12"^^xsd:positiveInteger ;
	bd:name "EGPOS"^^xsd:string ;
	bd:description "Position of the subject during a measurement or examination. Examples: SUPINE, STANDING, SITTING."^^xsd:string ;
	bd:format ""^^xsd:string ;
	bd:ctAndFormat "(POSITION)"^^xsd:string ;
	bd:compliance <http://www.assero.co.uk/CSN#f7d9d4e1-a00a-487e-89db-ebece910ba0d> ;
	bd:ctReference <http://www.cdisc.org/SDTM_IG_EG/V1#IGD_EGPOS_TMC1> ;
	bd:basedOnClassVariable <http://www.cdisc.org/SDTM_MODEL_FINDINGS/V1#CL_--POS> ;
	bd:isA <http://www.s-cubed.dk/CAR#cf1c85adba548e8d681255278976584a7e4a44de> ;
.
<http://www.cdisc.org/SDTM_IG_EG/V1#IGD_EGPOS_TMC1>
	rdf:type bo:TMcReference ;
	isoC:label "POSITION"^^xsd:string ;
	bo:enabled "true"^^xsd:boolean ;
	bo:optional "false"^^xsd:boolean ;
	bo:ordinal "1"^^xsd:positiveInteger ;
	bo:reference <http://www.cdisc.org/C71148/V7#C71148> ;
	bo:context <http://www.cdisc.org/CT/V13#TH> ;
.
<http://www.cdisc.org/SDTM_IG_EG/V1#IGD_EGORRES>
	rdf:type bd:SdtmDomainVariable ;
	isoC:label "Result or Finding in Original Units"^^xsd:string ;
	bd:rule ""^^xsd:string ;
	bd:ordinal "13"^^xsd:positiveInteger ;
	bd:name "EGORRES"^^xsd:string ;
	bd:description "Result of the ECG measurement or finding as originally received or collected. Examples of expected values are 62 or 0.151 when the result is an interval or measurement, or 'ATRIAL FIBRILLATION' or 'QT PROLONGATION' when the result is a finding."^^xsd:string ;
	bd:format ""^^xsd:string ;
	bd:ctAndFormat ""^^xsd:string ;
	bd:compliance <http://www.assero.co.uk/CSN#046f6c24-9eaf-4f60-8390-f36328c82ec4> ;
	bd:basedOnClassVariable <http://www.cdisc.org/SDTM_MODEL_FINDINGS/V1#CL_--ORRES> ;
	bd:isA <http://www.s-cubed.dk/CAR#af5f0ce4847da645162514a984a7b88b67016e80> ;
.
<http://www.cdisc.org/SDTM_IG_EG/V1#IGD_EGORRESU>
	rdf:type bd:SdtmDomainVariable ;
	isoC:label "Original Units"^^xsd:string ;
	bd:rule ""^^xsd:string ;
	bd:ordinal "14"^^xsd:positiveInteger ;
	bd:name "EGORRESU"^^xsd:string ;
	bd:description "Original units in which the data were collected. The unit for EGORRES. Examples: sec or msec."^^xsd:string ;
	bd:format ""^^xsd:string ;
	bd:ctAndFormat "(UNIT)"^^xsd:string ;
	bd:compliance <http://www.assero.co.uk/CSN#f7d9d4e1-a00a-487e-89db-ebece910ba0d> ;
	bd:ctReference <http://www.cdisc.org/SDTM_IG_EG/V1#IGD_EGORRESU_TMC1> ;
	bd:basedOnClassVariable <http://www.cdisc.org/SDTM_MODEL_FINDINGS/V1#CL_--ORRESU> ;
	bd:isA <http://www.s-cubed.dk/CAR#7715259cc4b4ef877c53de5ab0e9673dff58ca35> ;
.
<http://www.cdisc.org/SDTM_IG_EG/V1#IGD_EGORRESU_TMC1>
	rdf:type bo:TMcReference ;
	isoC:label "UNIT"^^xsd:string ;
	bo:enabled "true"^^xsd:boolean ;
	bo:optional "false"^^xsd:boolean ;
	bo:ordinal "1"^^xsd:positiveInteger ;
	bo:reference <http://www.cdisc.org/C71620/V11#C71620> ;
	bo:context <http://www.cdisc.org/CT/V13#TH> ;
.
<http://www.cdisc.org/SDTM_IG_EG/V1#IGD_EGSTRESC>
	rdf:type bd:SdtmDomainVariable ;
	isoC:label "Character Result/Finding in Std Format"^^xsd:string ;
	bd:rule ""^^xsd:string ;
	bd:ordinal "15"^^xsd:positiveInteger ;
	bd:name "EGSTRESC"^^xsd:string ;
	bd:description "Contains the result value for all findings, copied or derived from EGORRES in a standard format or standard units. EGSTRESC should store all results or findings in character format; if results are numeric, they should also be stored in numeric format in EGSTRESN. For example, if a test has results of 'NONE', 'NEG', and 'NEGATIVE' in EGORRES and these results effectively have the same meaning, they could be represented in standard format in EGSTRESC as 'NEGATIVE'. For other examples, see general assumptions. Additional examples of result data: SINUS BRADYCARDIA, ATRIAL FLUTTER, ATRIAL FIBRILLATION."^^xsd:string ;
	bd:format ""^^xsd:string ;
	bd:ctAndFormat "(EGSTRESC)"^^xsd:string ;
	bd:compliance <http://www.assero.co.uk/CSN#046f6c24-9eaf-4f60-8390-f36328c82ec4> ;
	bd:ctReference <http://www.cdisc.org/SDTM_IG_EG/V1#IGD_EGSTRESC_TMC1> ;
	bd:basedOnClassVariable <http://www.cdisc.org/SDTM_MODEL_FINDINGS/V1#CL_--STRESC> ;
.
<http://www.cdisc.org/SDTM_IG_EG/V1#IGD_EGSTRESC_TMC1>
	rdf:type bo:TMcReference ;
	isoC:label "EGSTRESC"^^xsd:string ;
	bo:enabled "true"^^xsd:boolean ;
	bo:optional "false"^^xsd:boolean ;
	bo:ordinal "1"^^xsd:positiveInteger ;
	bo:reference <http://www.cdisc.org/C71150/V6#C71150> ;
	bo:context <http://www.cdisc.org/CT/V13#TH> ;
.
<http://www.cdisc.org/SDTM_IG_EG/V1#IGD_EGSTRESN>
	rdf:type bd:SdtmDomainVariable ;
	isoC:label "Numeric Result/Finding in Standard Units"^^xsd:string ;
	bd:rule ""^^xsd:string ;
	bd:ordinal "16"^^xsd:positiveInteger ;
	bd:name "EGSTRESN"^^xsd:string ;
	bd:description "Used for continuous or numeric results or findings in standard format; copied in numeric format from EGSTRESC. EGSTRESN should store all numeric test results or findings."^^xsd:string ;
	bd:format ""^^xsd:string ;
	bd:ctAndFormat ""^^xsd:string ;
	bd:compliance <http://www.assero.co.uk/CSN#f7d9d4e1-a00a-487e-89db-ebece910ba0d> ;
	bd:basedOnClassVariable <http://www.cdisc.org/SDTM_MODEL_FINDINGS/V1#CL_--STRESN> ;
.
<http://www.cdisc.org/SDTM_IG_EG/V1#IGD_EGSTRESU>
	rdf:type bd:SdtmDomainVariable ;
	isoC:label "Standard Units"^^xsd:string ;
	bd:rule ""^^xsd:string ;
	bd:ordinal "17"^^xsd:positiveInteger ;
	bd:name "EGSTRESU"^^xsd:string ;
	bd:description "Standardized unit used for EGSTRESC or EGSTRESN."^^xsd:string ;
	bd:format ""^^xsd:string ;
	bd:ctAndFormat "(UNIT)"^^xsd:string ;
	bd:compliance <http://www.assero.co.uk/CSN#f7d9d4e1-a00a-487e-89db-ebece910ba0d> ;
	bd:ctReference <http://www.cdisc.org/SDTM_IG_EG/V1#IGD_EGSTRESU_TMC1> ;
	bd:basedOnClassVariable <http://www.cdisc.org/SDTM_MODEL_FINDINGS/V1#CL_--STRESU> ;
.
<http://www.cdisc.org/SDTM_IG_EG/V1#IGD_EGSTRESU_TMC1>
	rdf:type bo:TMcReference ;
	isoC:label "UNIT"^^xsd:string ;
	bo:enabled "true"^^xsd:boolean ;
	bo:optional "false"^^xsd:boolean ;
	bo:ordinal "1"^^xsd:positiveInteger ;
	bo:reference <http://www.cdisc.org/C71620/V11#C71620> ;
	bo:context <http://www.cdisc.org/CT/V13#TH> ;
.
<http://www.cdisc.org/SDTM_IG_EG/V1#IGD_EGSTAT>
	rdf:type bd:SdtmDomainVariable ;
	isoC:label "Completion Status"^^xsd:string ;
	bd:rule ""^^xsd:string ;
	bd:ordinal "18"^^xsd:positiveInteger ;
	bd:name "EGSTAT"^^xsd:string ;
	bd:description "Used to indicate an ECG was not done, or an ECG measurement was not taken. Should be null if a result exists in EGORRES."^^xsd:string ;
	bd:format ""^^xsd:string ;
	bd:ctAndFormat "(ND)"^^xsd:string ;
	bd:compliance <http://www.assero.co.uk/CSN#f7d9d4e1-a00a-487e-89db-ebece910ba0d> ;
	bd:ctReference <http://www.cdisc.org/SDTM_IG_EG/V1#IGD_EGSTAT_TMC1> ;
	bd:basedOnClassVariable <http://www.cdisc.org/SDTM_MODEL_FINDINGS/V1#CL_--STAT> ;
	bd:isA <http://www.s-cubed.dk/CAR#bae7d5be70820ed56467bd9a63744e23b47bd711> ;
.
<http://www.cdisc.org/SDTM_IG_EG/V1#IGD_EGSTAT_TMC1>
	rdf:type bo:TMcReference ;
	isoC:label "ND"^^xsd:string ;
	bo:enabled "true"^^xsd:boolean ;
	bo:optional "false"^^xsd:boolean ;
	bo:ordinal "1"^^xsd:positiveInteger ;
	bo:reference <http://www.cdisc.org/C66789/V13#C66789> ;
	bo:context <http://www.cdisc.org/CT/V13#TH> ;
.
<http://www.cdisc.org/SDTM_IG_EG/V1#IGD_EGREASND>
	rdf:type bd:SdtmDomainVariable ;
	isoC:label "Reason ECG Not Performed"^^xsd:string ;
	bd:rule ""^^xsd:string ;
	bd:ordinal "19"^^xsd:positiveInteger ;
	bd:name "EGREASND"^^xsd:string ;
	bd:description "Describes why a measurement or test was not performed. Examples: BROKEN EQUIPMENT or SUBJECT REFUSED. Used in conjunction with EGSTAT when value is NOT DONE."^^xsd:string ;
	bd:format ""^^xsd:string ;
	bd:ctAndFormat ""^^xsd:string ;
	bd:compliance <http://www.assero.co.uk/CSN#f7d9d4e1-a00a-487e-89db-ebece910ba0d> ;
	bd:basedOnClassVariable <http://www.cdisc.org/SDTM_MODEL_FINDINGS/V1#CL_--REASND> ;
	bd:isA <http://www.s-cubed.dk/CAR#52b30e2515e4fa778a3ab77470f0b096877a26c2> ;
.
<http://www.cdisc.org/SDTM_IG_EG/V1#IGD_EGXFN>
	rdf:type bd:SdtmDomainVariable ;
	isoC:label "ECG External File Name"^^xsd:string ;
	bd:rule ""^^xsd:string ;
	bd:ordinal "20"^^xsd:positiveInteger ;
	bd:name "EGXFN"^^xsd:string ;
	bd:description "File name and path for the external ECG Waveform file."^^xsd:string ;
	bd:format ""^^xsd:string ;
	bd:ctAndFormat ""^^xsd:string ;
	bd:compliance <http://www.assero.co.uk/CSN#f7d9d4e1-a00a-487e-89db-ebece910ba0d> ;
	bd:basedOnClassVariable <http://www.cdisc.org/SDTM_MODEL_FINDINGS/V1#CL_--XFN> ;
.
<http://www.cdisc.org/SDTM_IG_EG/V1#IGD_EGNAM>
	rdf:type bd:SdtmDomainVariable ;
	isoC:label "Vendor Name"^^xsd:string ;
	bd:rule ""^^xsd:string ;
	bd:ordinal "21"^^xsd:positiveInteger ;
	bd:name "EGNAM"^^xsd:string ;
	bd:description "Name or identifier of the laboratory or vendor who provided the test results."^^xsd:string ;
	bd:format ""^^xsd:string ;
	bd:ctAndFormat ""^^xsd:string ;
	bd:compliance <http://www.assero.co.uk/CSN#f7d9d4e1-a00a-487e-89db-ebece910ba0d> ;
	bd:basedOnClassVariable <http://www.cdisc.org/SDTM_MODEL_FINDINGS/V1#CL_--NAM> ;
.
<http://www.cdisc.org/SDTM_IG_EG/V1#IGD_EGLOC>
	rdf:type bd:SdtmDomainVariable ;
	isoC:label "Lead Location Used for Measurement"^^xsd:string ;
	bd:rule ""^^xsd:string ;
	bd:ordinal "22"^^xsd:positiveInteger ;
	bd:name "EGLOC"^^xsd:string ;
	bd:description "The lead used for the measurement, examples, V1, V6, aVR, I, II, III."^^xsd:string ;
	bd:format ""^^xsd:string ;
	bd:ctAndFormat "(LOC)"^^xsd:string ;
	bd:compliance <http://www.assero.co.uk/CSN#f7d9d4e1-a00a-487e-89db-ebece910ba0d> ;
	bd:ctReference <http://www.cdisc.org/SDTM_IG_EG/V1#IGD_EGLOC_TMC1> ;
	bd:basedOnClassVariable <http://www.cdisc.org/SDTM_MODEL_FINDINGS/V1#CL_--LOC> ;
	bd:isA <http://www.s-cubed.dk/CAR#d219c68101f532de10add2cf42fb9dbeca73d3be> ;
.
<http://www.cdisc.org/SDTM_IG_EG/V1#IGD_EGLOC_TMC1>
	rdf:type bo:TMcReference ;
	isoC:label "LOC"^^xsd:string ;
	bo:enabled "true"^^xsd:boolean ;
	bo:optional "false"^^xsd:boolean ;
	bo:ordinal "1"^^xsd:positiveInteger ;
	bo:reference <http://www.cdisc.org/C74456/V8#C74456> ;
	bo:context <http://www.cdisc.org/CT/V13#TH> ;
.
<http://www.cdisc.org/SDTM_IG_EG/V1#IGD_EGMETHOD>
	rdf:type bd:SdtmDomainVariable ;
	isoC:label "Method of ECG Test"^^xsd:string ;
	bd:rule ""^^xsd:string ;
	bd:ordinal "23"^^xsd:positiveInteger ;
	bd:name "EGMETHOD"^^xsd:string ;
	bd:description "Method of the ECG test. Examples: 12 LEAD STANDARD."^^xsd:string ;
	bd:format ""^^xsd:string ;
	bd:ctAndFormat "(EGMETHOD)"^^xsd:string ;
	bd:compliance <http://www.assero.co.uk/CSN#f7d9d4e1-a00a-487e-89db-ebece910ba0d> ;
	bd:ctReference <http://www.cdisc.org/SDTM_IG_EG/V1#IGD_EGMETHOD_TMC1> ;
	bd:basedOnClassVariable <http://www.cdisc.org/SDTM_MODEL_FINDINGS/V1#CL_--METHOD> ;
	bd:isA <http://www.s-cubed.dk/CAR#88306943fea7e76f9cd57cae0ea6d8b32d2e8434> ;
.
<http://www.cdisc.org/SDTM_IG_EG/V1#IGD_EGMETHOD_TMC1>
	rdf:type bo:TMcReference ;
	isoC:label "EGMETHOD"^^xsd:string ;
	bo:enabled "true"^^xsd:boolean ;
	bo:optional "false"^^xsd:boolean ;
	bo:ordinal "1"^^xsd:positiveInteger ;
	bo:reference <http://www.cdisc.org/C71151/V6#C71151> ;
	bo:context <http://www.cdisc.org/CT/V13#TH> ;
.
<http://www.cdisc.org/SDTM_IG_EG/V1#IGD_EGBLFL>
	rdf:type bd:SdtmDomainVariable ;
	isoC:label "Baseline Flag"^^xsd:string ;
	bd:rule ""^^xsd:string ;
	bd:ordinal "24"^^xsd:positiveInteger ;
	bd:name "EGBLFL"^^xsd:string ;
	bd:description "Indicator used to identify a baseline value. The value should be 'Y' or null."^^xsd:string ;
	bd:format ""^^xsd:string ;
	bd:ctAndFormat "(NY)"^^xsd:string ;
	bd:compliance <http://www.assero.co.uk/CSN#046f6c24-9eaf-4f60-8390-f36328c82ec4> ;
	bd:ctReference <http://www.cdisc.org/SDTM_IG_EG/V1#IGD_EGBLFL_TMC1> ;
	bd:basedOnClassVariable <http://www.cdisc.org/SDTM_MODEL_FINDINGS/V1#CL_--BLFL> ;
.
<http://www.cdisc.org/SDTM_IG_EG/V1#IGD_EGBLFL_TMC1>
	rdf:type bo:TMcReference ;
	isoC:label "NY"^^xsd:string ;
	bo:enabled "true"^^xsd:boolean ;
	bo:optional "false"^^xsd:boolean ;
	bo:ordinal "1"^^xsd:positiveInteger ;
	bo:reference <http://www.cdisc.org/C66742/V4#C66742> ;
	bo:context <http://www.cdisc.org/CT/V13#TH> ;
.
<http://www.cdisc.org/SDTM_IG_EG/V1#IGD_EGDRVFL>
	rdf:type bd:SdtmDomainVariable ;
	isoC:label "Derived Flag"^^xsd:string ;
	bd:rule ""^^xsd:string ;
	bd:ordinal "25"^^xsd:positiveInteger ;
	bd:name "EGDRVFL"^^xsd:string ;
	bd:description "Used to indicate a derived record. The value should be Y or null. Records which represent the average of other records, or that do not come from the CRF, or are not as originally collected or received are examples of records that would be derived for the submission datasets. If EGDRVFL=Y, then EGORRES could be null, with EGSTRESC, and (if numeric) EGSTRESN having the derived value."^^xsd:string ;
	bd:format ""^^xsd:string ;
	bd:ctAndFormat "(NY)"^^xsd:string ;
	bd:compliance <http://www.assero.co.uk/CSN#f7d9d4e1-a00a-487e-89db-ebece910ba0d> ;
	bd:ctReference <http://www.cdisc.org/SDTM_IG_EG/V1#IGD_EGDRVFL_TMC1> ;
	bd:basedOnClassVariable <http://www.cdisc.org/SDTM_MODEL_FINDINGS/V1#CL_--DRVFL> ;
.
<http://www.cdisc.org/SDTM_IG_EG/V1#IGD_EGDRVFL_TMC1>
	rdf:type bo:TMcReference ;
	isoC:label "NY"^^xsd:string ;
	bo:enabled "true"^^xsd:boolean ;
	bo:optional "false"^^xsd:boolean ;
	bo:ordinal "1"^^xsd:positiveInteger ;
	bo:reference <http://www.cdisc.org/C66742/V4#C66742> ;
	bo:context <http://www.cdisc.org/CT/V13#TH> ;
.
<http://www.cdisc.org/SDTM_IG_EG/V1#IGD_EGEVAL>
	rdf:type bd:SdtmDomainVariable ;
	isoC:label "Evaluator"^^xsd:string ;
	bd:rule ""^^xsd:string ;
	bd:ordinal "26"^^xsd:positiveInteger ;
	bd:name "EGEVAL"^^xsd:string ;
	bd:description "Role of the person who provided the evaluation. Used only for results that are subjective (e.g., assigned by a person or a group). Should be null for records that contain collected or derived data. Examples: INVESTIGATOR, ADJUDICATION COMMITTEE, VENDOR."^^xsd:string ;
	bd:format ""^^xsd:string ;
	bd:ctAndFormat ""^^xsd:string ;
	bd:compliance <http://www.assero.co.uk/CSN#f7d9d4e1-a00a-487e-89db-ebece910ba0d> ;
	bd:basedOnClassVariable <http://www.cdisc.org/SDTM_MODEL_FINDINGS/V1#CL_--EVAL> ;
	bd:isA <http://www.s-cubed.dk/CAR#07500ad5733a5c873074c6df8d3e516da1de8ae1> ;
.
<http://www.cdisc.org/SDTM_IG_EG/V1#IGD_VISITNUM>
	rdf:type bd:SdtmDomainVariable ;
	isoC:label "Visit Number"^^xsd:string ;
	bd:rule ""^^xsd:string ;
	bd:ordinal "27"^^xsd:positiveInteger ;
	bd:name "VISITNUM"^^xsd:string ;
	bd:description "Clinical encounter number. Numeric version of VISIT, used for sorting."^^xsd:string ;
	bd:format ""^^xsd:string ;
	bd:ctAndFormat ""^^xsd:string ;
	bd:compliance <http://www.assero.co.uk/CSN#046f6c24-9eaf-4f60-8390-f36328c82ec4> ;
	bd:basedOnClassVariable <http://www.cdisc.org/SDTM_MODEL_ALL/V1#CL_VISITNUM> ;
.
<http://www.cdisc.org/SDTM_IG_EG/V1#IGD_VISIT>
	rdf:type bd:SdtmDomainVariable ;
	isoC:label "Visit Name"^^xsd:string ;
	bd:rule ""^^xsd:string ;
	bd:ordinal "28"^^xsd:positiveInteger ;
	bd:name "VISIT"^^xsd:string ;
	bd:description "1. Protocol-defined description of clinical encounter. 2. May be used in addition to VISITNUM and/or VISITDY."^^xsd:string ;
	bd:format ""^^xsd:string ;
	bd:ctAndFormat ""^^xsd:string ;
	bd:compliance <http://www.assero.co.uk/CSN#f7d9d4e1-a00a-487e-89db-ebece910ba0d> ;
	bd:basedOnClassVariable <http://www.cdisc.org/SDTM_MODEL_ALL/V1#CL_VISIT> ;
.
<http://www.cdisc.org/SDTM_IG_EG/V1#IGD_VISITDY>
	rdf:type bd:SdtmDomainVariable ;
	isoC:label "Planned Study Day of Visit"^^xsd:string ;
	bd:rule ""^^xsd:string ;
	bd:ordinal "29"^^xsd:positiveInteger ;
	bd:name "VISITDY"^^xsd:string ;
	bd:description "Planned study day of the visit based upon RFSTDTC in Demographics."^^xsd:string ;
	bd:format ""^^xsd:string ;
	bd:ctAndFormat ""^^xsd:string ;
	bd:compliance <http://www.assero.co.uk/CSN#f7d9d4e1-a00a-487e-89db-ebece910ba0d> ;
	bd:basedOnClassVariable <http://www.cdisc.org/SDTM_MODEL_ALL/V1#CL_VISITDY> ;
.
<http://www.cdisc.org/SDTM_IG_EG/V1#IGD_EGDTC>
	rdf:type bd:SdtmDomainVariable ;
	isoC:label "Date/Time of ECG"^^xsd:string ;
	bd:rule ""^^xsd:string ;
	bd:ordinal "30"^^xsd:positiveInteger ;
	bd:name "EGDTC"^^xsd:string ;
	bd:description "Date of ECG."^^xsd:string ;
	bd:format "ISO 8601"^^xsd:string ;
	bd:ctAndFormat "ISO 8601"^^xsd:string ;
	bd:compliance <http://www.assero.co.uk/CSN#046f6c24-9eaf-4f60-8390-f36328c82ec4> ;
	bd:basedOnClassVariable <http://www.cdisc.org/SDTM_MODEL_ALL/V1#CL_--DTC> ;
	bd:isA <http://www.s-cubed.dk/CAR#232daabe4ca2dfdb32645c572b1d34ddb4fe9995> ;
.
<http://www.cdisc.org/SDTM_IG_EG/V1#IGD_EGDY>
	rdf:type bd:SdtmDomainVariable ;
	isoC:label "Study Day of ECG"^^xsd:string ;
	bd:rule ""^^xsd:string ;
	bd:ordinal "31"^^xsd:positiveInteger ;
	bd:name "EGDY"^^xsd:string ;
	bd:description "1. Study day of the ECG, measured as integer days. 2. Algorithm for calculations must be relative to the sponsor-defined RFSTDTC variable in Demographics."^^xsd:string ;
	bd:format ""^^xsd:string ;
	bd:ctAndFormat ""^^xsd:string ;
	bd:compliance <http://www.assero.co.uk/CSN#f7d9d4e1-a00a-487e-89db-ebece910ba0d> ;
	bd:basedOnClassVariable <http://www.cdisc.org/SDTM_MODEL_ALL/V1#CL_--DY> ;
.
<http://www.cdisc.org/SDTM_IG_EG/V1#IGD_EGTPT>
	rdf:type bd:SdtmDomainVariable ;
	isoC:label "Planned Time Point Name"^^xsd:string ;
	bd:rule ""^^xsd:string ;
	bd:ordinal "32"^^xsd:positiveInteger ;
	bd:name "EGTPT"^^xsd:string ;
	bd:description "1. Text Description of time when measurement should be taken. 2. This may be represented as an elapsed time relative to a fixed reference point, such as time of last dose. See EGTPTNUM and EGTPTREF. Examples: Start, 5 min post."^^xsd:string ;
	bd:format ""^^xsd:string ;
	bd:ctAndFormat ""^^xsd:string ;
	bd:compliance <http://www.assero.co.uk/CSN#f7d9d4e1-a00a-487e-89db-ebece910ba0d> ;
	bd:basedOnClassVariable <http://www.cdisc.org/SDTM_MODEL_ALL/V1#CL_--TPT> ;
.
<http://www.cdisc.org/SDTM_IG_EG/V1#IGD_EGTPTNUM>
	rdf:type bd:SdtmDomainVariable ;
	isoC:label "Planned Time Point Number"^^xsd:string ;
	bd:rule ""^^xsd:string ;
	bd:ordinal "33"^^xsd:positiveInteger ;
	bd:name "EGTPTNUM"^^xsd:string ;
	bd:description "Numerical version of EGTPT to aid in sorting."^^xsd:string ;
	bd:format ""^^xsd:string ;
	bd:ctAndFormat ""^^xsd:string ;
	bd:compliance <http://www.assero.co.uk/CSN#f7d9d4e1-a00a-487e-89db-ebece910ba0d> ;
	bd:basedOnClassVariable <http://www.cdisc.org/SDTM_MODEL_ALL/V1#CL_--TPTNUM> ;
.
<http://www.cdisc.org/SDTM_IG_EG/V1#IGD_EGELTM>
	rdf:type bd:SdtmDomainVariable ;
	isoC:label "Planned Elapsed Time from Time Point Ref"^^xsd:string ;
	bd:rule ""^^xsd:string ;
	bd:ordinal "34"^^xsd:positiveInteger ;
	bd:name "EGELTM"^^xsd:string ;
	bd:description "Planned elapsed time (in ISO 8601) relative to a fixed time point reference (EGTPTREF). Not a clock time or a date time variable. Represented as an ISO 8601 duration. Examples: '-PT15M' to represent the period of 15 minutes prior to the reference point indicated by EGTPTREF, or 'PT8H' to represent the period of 8 hours after the reference point indicated by EGTPTREF."^^xsd:string ;
	bd:format "ISO 8601"^^xsd:string ;
	bd:ctAndFormat "ISO 8601"^^xsd:string ;
	bd:compliance <http://www.assero.co.uk/CSN#f7d9d4e1-a00a-487e-89db-ebece910ba0d> ;
	bd:basedOnClassVariable <http://www.cdisc.org/SDTM_MODEL_ALL/V1#CL_--ELTM> ;
.
<http://www.cdisc.org/SDTM_IG_EG/V1#IGD_EGTPTREF>
	rdf:type bd:SdtmDomainVariable ;
	isoC:label "Time Point Reference"^^xsd:string ;
	bd:rule ""^^xsd:string ;
	bd:ordinal "35"^^xsd:positiveInteger ;
	bd:name "EGTPTREF"^^xsd:string ;
	bd:description "Name of the fixed reference point referred to by EGELTM, EGTPTNUM, and EGTPT. Examples: PREVIOUS DOSE, PREVIOUS MEAL."^^xsd:string ;
	bd:format ""^^xsd:string ;
	bd:ctAndFormat ""^^xsd:string ;
	bd:compliance <http://www.assero.co.uk/CSN#f7d9d4e1-a00a-487e-89db-ebece910ba0d> ;
	bd:basedOnClassVariable <http://www.cdisc.org/SDTM_MODEL_ALL/V1#CL_--TPTREF> ;
.
<http://www.cdisc.org/SDTM_IG_EG/V1#IGD_EGRFTDTC>
	rdf:type bd:SdtmDomainVariable ;
	isoC:label "Date/Time of Reference Time Point"^^xsd:string ;
	bd:rule ""^^xsd:string ;
	bd:ordinal "36"^^xsd:positiveInteger ;
	bd:name "EGRFTDTC"^^xsd:string ;
	bd:description "Date/time of the reference time point, EGTPTREF."^^xsd:string ;
	bd:format "ISO 8601"^^xsd:string ;
	bd:ctAndFormat "ISO 8601"^^xsd:string ;
	bd:compliance <http://www.assero.co.uk/CSN#f7d9d4e1-a00a-487e-89db-ebece910ba0d> ;
	bd:basedOnClassVariable <http://www.cdisc.org/SDTM_MODEL_ALL/V1#CL_--RFTDTC> ;
.
<http://www.cdisc.org/SDTM_IG_IE/V1#IGD>
	rdf:type bd:SdtmDomain ;
	isoC:label "Inclusion/Exclusion Criteria Not Met"^^xsd:string ;
	isoT:hasState <http://www.cdisc.org/SDTM_IG_IE/V1#IGD_RS> ;
	isoT:hasIdentifier <http://www.cdisc.org/SDTM_IG_IE/V1#IGD_SI> ;
	isoT:origin ""^^xsd:string ;
	isoT:changeDescription ""^^xsd:string ;
	isoT:creationDate "2008-11-12T00:00:00+00:00"^^xsd:dateTime ;
	isoT:lastChangeDate "2008-11-12T00:00:00+00:00"^^xsd:dateTime ;
	isoT:explanatoryComment ""^^xsd:string ;
	bd:rule ""^^xsd:string ;
	bd:ordinal "1"^^xsd:positiveInteger ;
	bd:includesColumn <http://www.cdisc.org/SDTM_IG_IE/V1#IGD_STUDYID> ;
	bd:includesColumn <http://www.cdisc.org/SDTM_IG_IE/V1#IGD_DOMAIN> ;
	bd:includesColumn <http://www.cdisc.org/SDTM_IG_IE/V1#IGD_USUBJID> ;
	bd:includesColumn <http://www.cdisc.org/SDTM_IG_IE/V1#IGD_IESEQ> ;
	bd:includesColumn <http://www.cdisc.org/SDTM_IG_IE/V1#IGD_IESPID> ;
	bd:includesColumn <http://www.cdisc.org/SDTM_IG_IE/V1#IGD_IETESTCD> ;
	bd:includesColumn <http://www.cdisc.org/SDTM_IG_IE/V1#IGD_IETEST> ;
	bd:includesColumn <http://www.cdisc.org/SDTM_IG_IE/V1#IGD_IECAT> ;
	bd:includesColumn <http://www.cdisc.org/SDTM_IG_IE/V1#IGD_IESCAT> ;
	bd:includesColumn <http://www.cdisc.org/SDTM_IG_IE/V1#IGD_IEORRES> ;
	bd:includesColumn <http://www.cdisc.org/SDTM_IG_IE/V1#IGD_IESTRESC> ;
	bd:includesColumn <http://www.cdisc.org/SDTM_IG_IE/V1#IGD_VISITNUM> ;
	bd:includesColumn <http://www.cdisc.org/SDTM_IG_IE/V1#IGD_VISIT> ;
	bd:includesColumn <http://www.cdisc.org/SDTM_IG_IE/V1#IGD_VISITDY> ;
	bd:includesColumn <http://www.cdisc.org/SDTM_IG_IE/V1#IGD_IEDTC> ;
	bd:includesColumn <http://www.cdisc.org/SDTM_IG_IE/V1#IGD_IEDY> ;
	bd:prefix "IE"^^xsd:string ;
	bd:structure "One record per inclusion/exclusion criterion not met per subject"^^xsd:string ;
	bd:basedOnClass <http://www.cdisc.org/SDTM_MODEL_FINDINGS/V1#CL> ;
.
<http://www.cdisc.org/SDTM_IG_IE/V1#IGD_RS>
	rdf:type isoR:RegistrationState ;
	isoR:registrationStatus "Standard"^^xsd:string ;
	isoR:administrativeNote ""^^xsd:string ;
	isoR:effectiveDate "2016-01-01T00:00:00+00:00"^^xsd:dateTime ;
	isoR:untilDate "2016-01-01T00:00:00+00:00"^^xsd:dateTime ;
	isoR:unresolvedIssue ""^^xsd:string ;
	isoR:administrativeStatus ""^^xsd:string ;
	isoR:previousState "Standard"^^xsd:string ;
	isoR:multipleEdit "false"^^xsd:boolean ;
	isoR:byAuthority <http://www.assero.co.uk/RA#DUNS084433759> ;
.
<http://www.cdisc.org/SDTM_IG_IE/V1#IGD_SI>
	rdf:type isoI:ScopedIdentifier ;
	isoI:identifier "SDTM IG IE"^^xsd:string ;
	isoI:versionLabel "2008-11-12 Release"^^xsd:string ;
	isoI:version "1"^^xsd:positiveInteger ;
	isoI:semanticVersion "3.1.2"^^xsd:string ;
	isoI:hasScope <http://www.assero.co.uk/NS#CDISC> ;
.
<http://www.cdisc.org/SDTM_IG_IE/V1#IGD_STUDYID>
	rdf:type bd:SdtmDomainVariable ;
	isoC:label "Study Identifier"^^xsd:string ;
	bd:rule ""^^xsd:string ;
	bd:ordinal "1"^^xsd:positiveInteger ;
	bd:name "STUDYID"^^xsd:string ;
	bd:description "Unique identifier for a study."^^xsd:string ;
	bd:format ""^^xsd:string ;
	bd:ctAndFormat ""^^xsd:string ;
	bd:compliance <http://www.assero.co.uk/CSN#52070084-cdd3-4ba8-8377-f670e4b0276c> ;
	bd:basedOnClassVariable <http://www.cdisc.org/SDTM_MODEL_ALL/V1#CL_STUDYID> ;
.
<http://www.cdisc.org/SDTM_IG_IE/V1#IGD_DOMAIN>
	rdf:type bd:SdtmDomainVariable ;
	isoC:label "Domain Abbreviation"^^xsd:string ;
	bd:rule ""^^xsd:string ;
	bd:ordinal "2"^^xsd:positiveInteger ;
	bd:name "DOMAIN"^^xsd:string ;
	bd:description "Two-character abbreviation for the domain."^^xsd:string ;
	bd:format ""^^xsd:string ;
	bd:ctAndFormat ""^^xsd:string ;
	bd:compliance <http://www.assero.co.uk/CSN#52070084-cdd3-4ba8-8377-f670e4b0276c> ;
	bd:basedOnClassVariable <http://www.cdisc.org/SDTM_MODEL_ALL/V1#CL_DOMAIN> ;
.
<http://www.cdisc.org/SDTM_IG_IE/V1#IGD_USUBJID>
	rdf:type bd:SdtmDomainVariable ;
	isoC:label "Unique Subject Identifier"^^xsd:string ;
	bd:rule ""^^xsd:string ;
	bd:ordinal "3"^^xsd:positiveInteger ;
	bd:name "USUBJID"^^xsd:string ;
	bd:description "Identifier used to uniquely identify a subject across all studies for all applications or submissions involving the product."^^xsd:string ;
	bd:format ""^^xsd:string ;
	bd:ctAndFormat ""^^xsd:string ;
	bd:compliance <http://www.assero.co.uk/CSN#52070084-cdd3-4ba8-8377-f670e4b0276c> ;
	bd:basedOnClassVariable <http://www.cdisc.org/SDTM_MODEL_ALL/V1#CL_USUBJID> ;
.
<http://www.cdisc.org/SDTM_IG_IE/V1#IGD_IESEQ>
	rdf:type bd:SdtmDomainVariable ;
	isoC:label "Sequence Number"^^xsd:string ;
	bd:rule ""^^xsd:string ;
	bd:ordinal "4"^^xsd:positiveInteger ;
	bd:name "IESEQ"^^xsd:string ;
	bd:description "Sequence Number given to ensure uniqueness of subject records within a domain. May be any valid number."^^xsd:string ;
	bd:format ""^^xsd:string ;
	bd:ctAndFormat ""^^xsd:string ;
	bd:compliance <http://www.assero.co.uk/CSN#52070084-cdd3-4ba8-8377-f670e4b0276c> ;
	bd:basedOnClassVariable <http://www.cdisc.org/SDTM_MODEL_ALL/V1#CL_--SEQ> ;
.
<http://www.cdisc.org/SDTM_IG_IE/V1#IGD_IESPID>
	rdf:type bd:SdtmDomainVariable ;
	isoC:label "Sponsor-Defined Identifier"^^xsd:string ;
	bd:rule ""^^xsd:string ;
	bd:ordinal "5"^^xsd:positiveInteger ;
	bd:name "IESPID"^^xsd:string ;
	bd:description "Sponsor-defined reference number. Perhaps pre-printed on the CRF as an explicit line identifier or defined in the sponsor's operational database. Example: Inclusion or Exclusion criteria number from CRF."^^xsd:string ;
	bd:format ""^^xsd:string ;
	bd:ctAndFormat ""^^xsd:string ;
	bd:compliance <http://www.assero.co.uk/CSN#f7d9d4e1-a00a-487e-89db-ebece910ba0d> ;
	bd:basedOnClassVariable <http://www.cdisc.org/SDTM_MODEL_ALL/V1#CL_--SPID> ;
.
<http://www.cdisc.org/SDTM_IG_IE/V1#IGD_IETESTCD>
	rdf:type bd:SdtmDomainVariable ;
	isoC:label "Inclusion/Exclusion Criterion Short Name"^^xsd:string ;
	bd:rule ""^^xsd:string ;
	bd:ordinal "6"^^xsd:positiveInteger ;
	bd:name "IETESTCD"^^xsd:string ;
	bd:description "Short name of the criterion described in IETEST. The value in IETESTCD cannot be longer than 8 characters, nor can it start with a number (e.g.'1TEST'). IETESTCD cannot contain characters other than letters, numbers, or underscores. Examples: IN01, EX01."^^xsd:string ;
	bd:format ""^^xsd:string ;
	bd:ctAndFormat ""^^xsd:string ;
	bd:compliance <http://www.assero.co.uk/CSN#52070084-cdd3-4ba8-8377-f670e4b0276c> ;
	bd:basedOnClassVariable <http://www.cdisc.org/SDTM_MODEL_FINDINGS/V1#CL_--TESTCD> ;
	bd:isA <http://www.s-cubed.dk/CAR#18a302ee283ea042f30ca2cb852a2846f97c9413> ;
.
<http://www.cdisc.org/SDTM_IG_IE/V1#IGD_IETEST>
	rdf:type bd:SdtmDomainVariable ;
	isoC:label "Inclusion/Exclusion Criterion"^^xsd:string ;
	bd:rule ""^^xsd:string ;
	bd:ordinal "7"^^xsd:positiveInteger ;
	bd:name "IETEST"^^xsd:string ;
	bd:description "Verbatim description of the inclusion or exclusion criterion that was the exception for the subject within the study. IETEST cannot be longer than 200 characters."^^xsd:string ;
	bd:format ""^^xsd:string ;
	bd:ctAndFormat ""^^xsd:string ;
	bd:compliance <http://www.assero.co.uk/CSN#52070084-cdd3-4ba8-8377-f670e4b0276c> ;
	bd:basedOnClassVariable <http://www.cdisc.org/SDTM_MODEL_FINDINGS/V1#CL_--TEST> ;
.
<http://www.cdisc.org/SDTM_IG_IE/V1#IGD_IECAT>
	rdf:type bd:SdtmDomainVariable ;
	isoC:label "Inclusion/Exclusion Category"^^xsd:string ;
	bd:rule ""^^xsd:string ;
	bd:ordinal "8"^^xsd:positiveInteger ;
	bd:name "IECAT"^^xsd:string ;
	bd:description "Used to define a category of related records across subjects."^^xsd:string ;
	bd:format "IECAT"^^xsd:string ;
	bd:ctAndFormat "IECAT"^^xsd:string ;
	bd:compliance <http://www.assero.co.uk/CSN#52070084-cdd3-4ba8-8377-f670e4b0276c> ;
	bd:basedOnClassVariable <http://www.cdisc.org/SDTM_MODEL_FINDINGS/V1#CL_--CAT> ;
	bd:isA <http://www.s-cubed.dk/CAR#a3c686e711e4720f99b4562bb3dbaae7ab658cf2> ;
.
<http://www.cdisc.org/SDTM_IG_IE/V1#IGD_IESCAT>
	rdf:type bd:SdtmDomainVariable ;
	isoC:label "Inclusion/Exclusion Subcategory"^^xsd:string ;
	bd:rule ""^^xsd:string ;
	bd:ordinal "9"^^xsd:positiveInteger ;
	bd:name "IESCAT"^^xsd:string ;
	bd:description "A further categorization of the exception criterion. Can be used to distinguish criteria for a sub-study or for to categorize as a major or minor exceptions. Examples: MAJOR, MINOR."^^xsd:string ;
	bd:format ""^^xsd:string ;
	bd:ctAndFormat ""^^xsd:string ;
	bd:compliance <http://www.assero.co.uk/CSN#f7d9d4e1-a00a-487e-89db-ebece910ba0d> ;
	bd:basedOnClassVariable <http://www.cdisc.org/SDTM_MODEL_FINDINGS/V1#CL_--SCAT> ;
	bd:isA <http://www.s-cubed.dk/CAR#479a67983e739413da55faf0dc509f83fd5dea64> ;
.
<http://www.cdisc.org/SDTM_IG_IE/V1#IGD_IEORRES>
	rdf:type bd:SdtmDomainVariable ;
	isoC:label "I/E Criterion Original Result"^^xsd:string ;
	bd:rule ""^^xsd:string ;
	bd:ordinal "10"^^xsd:positiveInteger ;
	bd:name "IEORRES"^^xsd:string ;
	bd:description "Original response to Inclusion/Exclusion Criterion question. Inclusion or Exclusion criterion met?"^^xsd:string ;
	bd:format ""^^xsd:string ;
	bd:ctAndFormat "(NY)"^^xsd:string ;
	bd:compliance <http://www.assero.co.uk/CSN#52070084-cdd3-4ba8-8377-f670e4b0276c> ;
	bd:ctReference <http://www.cdisc.org/SDTM_IG_IE/V1#IGD_IEORRES_TMC1> ;
	bd:basedOnClassVariable <http://www.cdisc.org/SDTM_MODEL_FINDINGS/V1#CL_--ORRES> ;
	bd:isA <http://www.s-cubed.dk/CAR#af5f0ce4847da645162514a984a7b88b67016e80> ;
.
<http://www.cdisc.org/SDTM_IG_IE/V1#IGD_IEORRES_TMC1>
	rdf:type bo:TMcReference ;
	isoC:label "NY"^^xsd:string ;
	bo:enabled "true"^^xsd:boolean ;
	bo:optional "false"^^xsd:boolean ;
	bo:ordinal "1"^^xsd:positiveInteger ;
	bo:reference <http://www.cdisc.org/C66742/V4#C66742> ;
	bo:context <http://www.cdisc.org/CT/V13#TH> ;
.
<http://www.cdisc.org/SDTM_IG_IE/V1#IGD_IESTRESC>
	rdf:type bd:SdtmDomainVariable ;
	isoC:label "I/E Criterion Result in Std Format"^^xsd:string ;
	bd:rule ""^^xsd:string ;
	bd:ordinal "11"^^xsd:positiveInteger ;
	bd:name "IESTRESC"^^xsd:string ;
	bd:description "Response to Inclusion/Exclusion criterion result in standard format."^^xsd:string ;
	bd:format ""^^xsd:string ;
	bd:ctAndFormat "(NY)"^^xsd:string ;
	bd:compliance <http://www.assero.co.uk/CSN#52070084-cdd3-4ba8-8377-f670e4b0276c> ;
	bd:ctReference <http://www.cdisc.org/SDTM_IG_IE/V1#IGD_IESTRESC_TMC1> ;
	bd:basedOnClassVariable <http://www.cdisc.org/SDTM_MODEL_FINDINGS/V1#CL_--STRESC> ;
.
<http://www.cdisc.org/SDTM_IG_IE/V1#IGD_IESTRESC_TMC1>
	rdf:type bo:TMcReference ;
	isoC:label "NY"^^xsd:string ;
	bo:enabled "true"^^xsd:boolean ;
	bo:optional "false"^^xsd:boolean ;
	bo:ordinal "1"^^xsd:positiveInteger ;
	bo:reference <http://www.cdisc.org/C66742/V4#C66742> ;
	bo:context <http://www.cdisc.org/CT/V13#TH> ;
.
<http://www.cdisc.org/SDTM_IG_IE/V1#IGD_VISITNUM>
	rdf:type bd:SdtmDomainVariable ;
	isoC:label "Visit Number"^^xsd:string ;
	bd:rule ""^^xsd:string ;
	bd:ordinal "12"^^xsd:positiveInteger ;
	bd:name "VISITNUM"^^xsd:string ;
	bd:description "Clinical encounter number. Numeric version of VISIT, used for sorting."^^xsd:string ;
	bd:format ""^^xsd:string ;
	bd:ctAndFormat ""^^xsd:string ;
	bd:compliance <http://www.assero.co.uk/CSN#f7d9d4e1-a00a-487e-89db-ebece910ba0d> ;
	bd:basedOnClassVariable <http://www.cdisc.org/SDTM_MODEL_ALL/V1#CL_VISITNUM> ;
.
<http://www.cdisc.org/SDTM_IG_IE/V1#IGD_VISIT>
	rdf:type bd:SdtmDomainVariable ;
	isoC:label "Visit Name"^^xsd:string ;
	bd:rule ""^^xsd:string ;
	bd:ordinal "13"^^xsd:positiveInteger ;
	bd:name "VISIT"^^xsd:string ;
	bd:description "1. Protocol-defined description of clinical encounter. 2. May be used in addition to VISITNUM and/or VISITDY."^^xsd:string ;
	bd:format ""^^xsd:string ;
	bd:ctAndFormat ""^^xsd:string ;
	bd:compliance <http://www.assero.co.uk/CSN#f7d9d4e1-a00a-487e-89db-ebece910ba0d> ;
	bd:basedOnClassVariable <http://www.cdisc.org/SDTM_MODEL_ALL/V1#CL_VISIT> ;
.
<http://www.cdisc.org/SDTM_IG_IE/V1#IGD_VISITDY>
	rdf:type bd:SdtmDomainVariable ;
	isoC:label "Planned Study Day of Visit"^^xsd:string ;
	bd:rule ""^^xsd:string ;
	bd:ordinal "14"^^xsd:positiveInteger ;
	bd:name "VISITDY"^^xsd:string ;
	bd:description "Planned study day of the visit based upon RFSTDTC in Demographics."^^xsd:string ;
	bd:format ""^^xsd:string ;
	bd:ctAndFormat ""^^xsd:string ;
	bd:compliance <http://www.assero.co.uk/CSN#f7d9d4e1-a00a-487e-89db-ebece910ba0d> ;
	bd:basedOnClassVariable <http://www.cdisc.org/SDTM_MODEL_ALL/V1#CL_VISITDY> ;
.
<http://www.cdisc.org/SDTM_IG_IE/V1#IGD_IEDTC>
	rdf:type bd:SdtmDomainVariable ;
	isoC:label "Date/Time of Collection"^^xsd:string ;
	bd:rule ""^^xsd:string ;
	bd:ordinal "15"^^xsd:positiveInteger ;
	bd:name "IEDTC"^^xsd:string ;
	bd:description ""^^xsd:string ;
	bd:format "ISO 8601"^^xsd:string ;
	bd:ctAndFormat "ISO 8601"^^xsd:string ;
	bd:compliance <http://www.assero.co.uk/CSN#f7d9d4e1-a00a-487e-89db-ebece910ba0d> ;
	bd:basedOnClassVariable <http://www.cdisc.org/SDTM_MODEL_ALL/V1#CL_--DTC> ;
	bd:isA <http://www.s-cubed.dk/CAR#232daabe4ca2dfdb32645c572b1d34ddb4fe9995> ;
.
<http://www.cdisc.org/SDTM_IG_IE/V1#IGD_IEDY>
	rdf:type bd:SdtmDomainVariable ;
	isoC:label "Study Day of Collection"^^xsd:string ;
	bd:rule ""^^xsd:string ;
	bd:ordinal "16"^^xsd:positiveInteger ;
	bd:name "IEDY"^^xsd:string ;
	bd:description "1. Study day of collection of the inclusion/exclusion exceptions, measured as integer days. 2. Algorithm for calculations must be relative to the sponsor-defined RFSTDTC variable in Demographics. This formula should be consistent across the submission."^^xsd:string ;
	bd:format ""^^xsd:string ;
	bd:ctAndFormat ""^^xsd:string ;
	bd:compliance <http://www.assero.co.uk/CSN#f7d9d4e1-a00a-487e-89db-ebece910ba0d> ;
	bd:basedOnClassVariable <http://www.cdisc.org/SDTM_MODEL_ALL/V1#CL_--DY> ;
.
<http://www.cdisc.org/SDTM_IG_LB/V1#IGD>
	rdf:type bd:SdtmDomain ;
	isoC:label "Laboratory Test Results"^^xsd:string ;
	isoT:hasState <http://www.cdisc.org/SDTM_IG_LB/V1#IGD_RS> ;
	isoT:hasIdentifier <http://www.cdisc.org/SDTM_IG_LB/V1#IGD_SI> ;
	isoT:origin ""^^xsd:string ;
	isoT:changeDescription ""^^xsd:string ;
	isoT:creationDate "2008-11-12T00:00:00+00:00"^^xsd:dateTime ;
	isoT:lastChangeDate "2008-11-12T00:00:00+00:00"^^xsd:dateTime ;
	isoT:explanatoryComment ""^^xsd:string ;
	bd:rule ""^^xsd:string ;
	bd:ordinal "1"^^xsd:positiveInteger ;
	bd:includesColumn <http://www.cdisc.org/SDTM_IG_LB/V1#IGD_STUDYID> ;
	bd:includesColumn <http://www.cdisc.org/SDTM_IG_LB/V1#IGD_DOMAIN> ;
	bd:includesColumn <http://www.cdisc.org/SDTM_IG_LB/V1#IGD_USUBJID> ;
	bd:includesColumn <http://www.cdisc.org/SDTM_IG_LB/V1#IGD_LBSEQ> ;
	bd:includesColumn <http://www.cdisc.org/SDTM_IG_LB/V1#IGD_LBGRPID> ;
	bd:includesColumn <http://www.cdisc.org/SDTM_IG_LB/V1#IGD_LBREFID> ;
	bd:includesColumn <http://www.cdisc.org/SDTM_IG_LB/V1#IGD_LBSPID> ;
	bd:includesColumn <http://www.cdisc.org/SDTM_IG_LB/V1#IGD_LBTESTCD> ;
	bd:includesColumn <http://www.cdisc.org/SDTM_IG_LB/V1#IGD_LBTEST> ;
	bd:includesColumn <http://www.cdisc.org/SDTM_IG_LB/V1#IGD_LBCAT> ;
	bd:includesColumn <http://www.cdisc.org/SDTM_IG_LB/V1#IGD_LBSCAT> ;
	bd:includesColumn <http://www.cdisc.org/SDTM_IG_LB/V1#IGD_LBORRES> ;
	bd:includesColumn <http://www.cdisc.org/SDTM_IG_LB/V1#IGD_LBORRESU> ;
	bd:includesColumn <http://www.cdisc.org/SDTM_IG_LB/V1#IGD_LBORNRLO> ;
	bd:includesColumn <http://www.cdisc.org/SDTM_IG_LB/V1#IGD_LBORNRHI> ;
	bd:includesColumn <http://www.cdisc.org/SDTM_IG_LB/V1#IGD_LBSTRESC> ;
	bd:includesColumn <http://www.cdisc.org/SDTM_IG_LB/V1#IGD_LBSTRESN> ;
	bd:includesColumn <http://www.cdisc.org/SDTM_IG_LB/V1#IGD_LBSTRESU> ;
	bd:includesColumn <http://www.cdisc.org/SDTM_IG_LB/V1#IGD_LBSTNRLO> ;
	bd:includesColumn <http://www.cdisc.org/SDTM_IG_LB/V1#IGD_LBSTNRHI> ;
	bd:includesColumn <http://www.cdisc.org/SDTM_IG_LB/V1#IGD_LBSTNRC> ;
	bd:includesColumn <http://www.cdisc.org/SDTM_IG_LB/V1#IGD_LBNRIND> ;
	bd:includesColumn <http://www.cdisc.org/SDTM_IG_LB/V1#IGD_LBSTAT> ;
	bd:includesColumn <http://www.cdisc.org/SDTM_IG_LB/V1#IGD_LBREASND> ;
	bd:includesColumn <http://www.cdisc.org/SDTM_IG_LB/V1#IGD_LBNAM> ;
	bd:includesColumn <http://www.cdisc.org/SDTM_IG_LB/V1#IGD_LBLOINC> ;
	bd:includesColumn <http://www.cdisc.org/SDTM_IG_LB/V1#IGD_LBSPEC> ;
	bd:includesColumn <http://www.cdisc.org/SDTM_IG_LB/V1#IGD_LBSPCCND> ;
	bd:includesColumn <http://www.cdisc.org/SDTM_IG_LB/V1#IGD_LBMETHOD> ;
	bd:includesColumn <http://www.cdisc.org/SDTM_IG_LB/V1#IGD_LBBLFL> ;
	bd:includesColumn <http://www.cdisc.org/SDTM_IG_LB/V1#IGD_LBFAST> ;
	bd:includesColumn <http://www.cdisc.org/SDTM_IG_LB/V1#IGD_LBDRVFL> ;
	bd:includesColumn <http://www.cdisc.org/SDTM_IG_LB/V1#IGD_LBTOX> ;
	bd:includesColumn <http://www.cdisc.org/SDTM_IG_LB/V1#IGD_LBTOXGR> ;
	bd:includesColumn <http://www.cdisc.org/SDTM_IG_LB/V1#IGD_VISITNUM> ;
	bd:includesColumn <http://www.cdisc.org/SDTM_IG_LB/V1#IGD_VISIT> ;
	bd:includesColumn <http://www.cdisc.org/SDTM_IG_LB/V1#IGD_VISITDY> ;
	bd:includesColumn <http://www.cdisc.org/SDTM_IG_LB/V1#IGD_LBDTC> ;
	bd:includesColumn <http://www.cdisc.org/SDTM_IG_LB/V1#IGD_LBENDTC> ;
	bd:includesColumn <http://www.cdisc.org/SDTM_IG_LB/V1#IGD_LBDY> ;
	bd:includesColumn <http://www.cdisc.org/SDTM_IG_LB/V1#IGD_LBTPT> ;
	bd:includesColumn <http://www.cdisc.org/SDTM_IG_LB/V1#IGD_LBTPTNUM> ;
	bd:includesColumn <http://www.cdisc.org/SDTM_IG_LB/V1#IGD_LBELTM> ;
	bd:includesColumn <http://www.cdisc.org/SDTM_IG_LB/V1#IGD_LBTPTREF> ;
	bd:includesColumn <http://www.cdisc.org/SDTM_IG_LB/V1#IGD_LBRFTDTC> ;
	bd:prefix "LB"^^xsd:string ;
	bd:structure "One record per lab test per time point per visit per subject"^^xsd:string ;
	bd:basedOnClass <http://www.cdisc.org/SDTM_MODEL_FINDINGS/V1#CL> ;
.
<http://www.cdisc.org/SDTM_IG_LB/V1#IGD_RS>
	rdf:type isoR:RegistrationState ;
	isoR:registrationStatus "Standard"^^xsd:string ;
	isoR:administrativeNote ""^^xsd:string ;
	isoR:effectiveDate "2016-01-01T00:00:00+00:00"^^xsd:dateTime ;
	isoR:untilDate "2016-01-01T00:00:00+00:00"^^xsd:dateTime ;
	isoR:unresolvedIssue ""^^xsd:string ;
	isoR:administrativeStatus ""^^xsd:string ;
	isoR:previousState "Standard"^^xsd:string ;
	isoR:multipleEdit "false"^^xsd:boolean ;
	isoR:byAuthority <http://www.assero.co.uk/RA#DUNS084433759> ;
.
<http://www.cdisc.org/SDTM_IG_LB/V1#IGD_SI>
	rdf:type isoI:ScopedIdentifier ;
	isoI:identifier "SDTM IG LB"^^xsd:string ;
	isoI:versionLabel "2008-11-12 Release"^^xsd:string ;
	isoI:version "1"^^xsd:positiveInteger ;
	isoI:semanticVersion "3.1.2"^^xsd:string ;
	isoI:hasScope <http://www.assero.co.uk/NS#CDISC> ;
.
<http://www.cdisc.org/SDTM_IG_LB/V1#IGD_STUDYID>
	rdf:type bd:SdtmDomainVariable ;
	isoC:label "Study Identifier"^^xsd:string ;
	bd:rule ""^^xsd:string ;
	bd:ordinal "1"^^xsd:positiveInteger ;
	bd:name "STUDYID"^^xsd:string ;
	bd:description "Unique identifier for a study."^^xsd:string ;
	bd:format ""^^xsd:string ;
	bd:ctAndFormat ""^^xsd:string ;
	bd:compliance <http://www.assero.co.uk/CSN#52070084-cdd3-4ba8-8377-f670e4b0276c> ;
	bd:basedOnClassVariable <http://www.cdisc.org/SDTM_MODEL_ALL/V1#CL_STUDYID> ;
.
<http://www.cdisc.org/SDTM_IG_LB/V1#IGD_DOMAIN>
	rdf:type bd:SdtmDomainVariable ;
	isoC:label "Domain Abbreviation"^^xsd:string ;
	bd:rule ""^^xsd:string ;
	bd:ordinal "2"^^xsd:positiveInteger ;
	bd:name "DOMAIN"^^xsd:string ;
	bd:description "Two-character abbreviation for the domain."^^xsd:string ;
	bd:format ""^^xsd:string ;
	bd:ctAndFormat ""^^xsd:string ;
	bd:compliance <http://www.assero.co.uk/CSN#52070084-cdd3-4ba8-8377-f670e4b0276c> ;
	bd:basedOnClassVariable <http://www.cdisc.org/SDTM_MODEL_ALL/V1#CL_DOMAIN> ;
.
<http://www.cdisc.org/SDTM_IG_LB/V1#IGD_USUBJID>
	rdf:type bd:SdtmDomainVariable ;
	isoC:label "Unique Subject Identifier"^^xsd:string ;
	bd:rule ""^^xsd:string ;
	bd:ordinal "3"^^xsd:positiveInteger ;
	bd:name "USUBJID"^^xsd:string ;
	bd:description "Identifier used to uniquely identify a subject across all studies for all applications or submissions involving the product."^^xsd:string ;
	bd:format ""^^xsd:string ;
	bd:ctAndFormat ""^^xsd:string ;
	bd:compliance <http://www.assero.co.uk/CSN#52070084-cdd3-4ba8-8377-f670e4b0276c> ;
	bd:basedOnClassVariable <http://www.cdisc.org/SDTM_MODEL_ALL/V1#CL_USUBJID> ;
.
<http://www.cdisc.org/SDTM_IG_LB/V1#IGD_LBSEQ>
	rdf:type bd:SdtmDomainVariable ;
	isoC:label "Sequence Number"^^xsd:string ;
	bd:rule ""^^xsd:string ;
	bd:ordinal "4"^^xsd:positiveInteger ;
	bd:name "LBSEQ"^^xsd:string ;
	bd:description "Sequence Number given to ensure uniqueness of subject records within a domain. May be any valid number."^^xsd:string ;
	bd:format ""^^xsd:string ;
	bd:ctAndFormat ""^^xsd:string ;
	bd:compliance <http://www.assero.co.uk/CSN#52070084-cdd3-4ba8-8377-f670e4b0276c> ;
	bd:basedOnClassVariable <http://www.cdisc.org/SDTM_MODEL_ALL/V1#CL_--SEQ> ;
.
<http://www.cdisc.org/SDTM_IG_LB/V1#IGD_LBGRPID>
	rdf:type bd:SdtmDomainVariable ;
	isoC:label "Group ID"^^xsd:string ;
	bd:rule ""^^xsd:string ;
	bd:ordinal "5"^^xsd:positiveInteger ;
	bd:name "LBGRPID"^^xsd:string ;
	bd:description "Used to tie together a block of related records in a single domain for a subject."^^xsd:string ;
	bd:format ""^^xsd:string ;
	bd:ctAndFormat ""^^xsd:string ;
	bd:compliance <http://www.assero.co.uk/CSN#f7d9d4e1-a00a-487e-89db-ebece910ba0d> ;
	bd:basedOnClassVariable <http://www.cdisc.org/SDTM_MODEL_ALL/V1#CL_--GRPID> ;
.
<http://www.cdisc.org/SDTM_IG_LB/V1#IGD_LBREFID>
	rdf:type bd:SdtmDomainVariable ;
	isoC:label "Specimen ID"^^xsd:string ;
	bd:rule ""^^xsd:string ;
	bd:ordinal "6"^^xsd:positiveInteger ;
	bd:name "LBREFID"^^xsd:string ;
	bd:description "Internal or external specimen identifier. Example: Specimen ID."^^xsd:string ;
	bd:format ""^^xsd:string ;
	bd:ctAndFormat ""^^xsd:string ;
	bd:compliance <http://www.assero.co.uk/CSN#f7d9d4e1-a00a-487e-89db-ebece910ba0d> ;
	bd:basedOnClassVariable <http://www.cdisc.org/SDTM_MODEL_ALL/V1#CL_--REFID> ;
.
<http://www.cdisc.org/SDTM_IG_LB/V1#IGD_LBSPID>
	rdf:type bd:SdtmDomainVariable ;
	isoC:label "Sponsor-Defined Identifier"^^xsd:string ;
	bd:rule ""^^xsd:string ;
	bd:ordinal "7"^^xsd:positiveInteger ;
	bd:name "LBSPID"^^xsd:string ;
	bd:description "Sponsor-defined reference number. Perhaps pre-printed on the CRF as an explicit line identifier or defined in the sponsor's operational database. Example: Line number on the Lab page."^^xsd:string ;
	bd:format ""^^xsd:string ;
	bd:ctAndFormat ""^^xsd:string ;
	bd:compliance <http://www.assero.co.uk/CSN#f7d9d4e1-a00a-487e-89db-ebece910ba0d> ;
	bd:basedOnClassVariable <http://www.cdisc.org/SDTM_MODEL_ALL/V1#CL_--SPID> ;
.
<http://www.cdisc.org/SDTM_IG_LB/V1#IGD_LBTESTCD>
	rdf:type bd:SdtmDomainVariable ;
	isoC:label "Lab Test or Examination Short Name"^^xsd:string ;
	bd:rule ""^^xsd:string ;
	bd:ordinal "8"^^xsd:positiveInteger ;
	bd:name "LBTESTCD"^^xsd:string ;
	bd:description "Short name of the measurement, test, or examination described in LBTEST. It can be used as a column name when converting a dataset from a vertical to a horizontal format. The value in LBTESTCD cannot be longer than 8 characters, nor can it start with a number (e.g.'1TEST'). LBTESTCD cannot contain characters other than letters, numbers, or underscores. Examples: ALT, LDH."^^xsd:string ;
	bd:format ""^^xsd:string ;
	bd:ctAndFormat "(LBTESTCD)"^^xsd:string ;
	bd:compliance <http://www.assero.co.uk/CSN#52070084-cdd3-4ba8-8377-f670e4b0276c> ;
	bd:ctReference <http://www.cdisc.org/SDTM_IG_LB/V1#IGD_LBTESTCD_TMC1> ;
	bd:basedOnClassVariable <http://www.cdisc.org/SDTM_MODEL_FINDINGS/V1#CL_--TESTCD> ;
	bd:isA <http://www.s-cubed.dk/CAR#18a302ee283ea042f30ca2cb852a2846f97c9413> ;
.
<http://www.cdisc.org/SDTM_IG_LB/V1#IGD_LBTESTCD_TMC1>
	rdf:type bo:TMcReference ;
	isoC:label "LBTESTCD"^^xsd:string ;
	bo:enabled "true"^^xsd:boolean ;
	bo:optional "false"^^xsd:boolean ;
	bo:ordinal "1"^^xsd:positiveInteger ;
	bo:reference <http://www.cdisc.org/C65047/V8#C65047> ;
	bo:context <http://www.cdisc.org/CT/V13#TH> ;
.
<http://www.cdisc.org/SDTM_IG_LB/V1#IGD_LBTEST>
	rdf:type bd:SdtmDomainVariable ;
	isoC:label "Lab Test or Examination Name"^^xsd:string ;
	bd:rule ""^^xsd:string ;
	bd:ordinal "9"^^xsd:positiveInteger ;
	bd:name "LBTEST"^^xsd:string ;
	bd:description "Verbatim name of the test or examination used to obtain the measurement or finding. Note any test normally performed by a clinical laboratory is considered a lab test. The value in LBTEST cannot be longer than 40 characters. Examples: Alanine Aminotransferase, Lactate Dehydrogenase."^^xsd:string ;
	bd:format ""^^xsd:string ;
	bd:ctAndFormat "(LBTEST)"^^xsd:string ;
	bd:compliance <http://www.assero.co.uk/CSN#52070084-cdd3-4ba8-8377-f670e4b0276c> ;
	bd:ctReference <http://www.cdisc.org/SDTM_IG_LB/V1#IGD_LBTEST_TMC1> ;
	bd:basedOnClassVariable <http://www.cdisc.org/SDTM_MODEL_FINDINGS/V1#CL_--TEST> ;
.
<http://www.cdisc.org/SDTM_IG_LB/V1#IGD_LBTEST_TMC1>
	rdf:type bo:TMcReference ;
	isoC:label "LBTEST"^^xsd:string ;
	bo:enabled "true"^^xsd:boolean ;
	bo:optional "false"^^xsd:boolean ;
	bo:ordinal "1"^^xsd:positiveInteger ;
	bo:reference <http://www.cdisc.org/C67154/V8#C67154> ;
	bo:context <http://www.cdisc.org/CT/V13#TH> ;
.
<http://www.cdisc.org/SDTM_IG_LB/V1#IGD_LBCAT>
	rdf:type bd:SdtmDomainVariable ;
	isoC:label "Category for Lab Test"^^xsd:string ;
	bd:rule ""^^xsd:string ;
	bd:ordinal "10"^^xsd:positiveInteger ;
	bd:name "LBCAT"^^xsd:string ;
	bd:description "Used to define a category of related records across subjects. Examples: such as HEMATOLOGY, URINALYSIS, CHEMISTRY."^^xsd:string ;
	bd:format ""^^xsd:string ;
	bd:ctAndFormat ""^^xsd:string ;
	bd:compliance <http://www.assero.co.uk/CSN#046f6c24-9eaf-4f60-8390-f36328c82ec4> ;
	bd:basedOnClassVariable <http://www.cdisc.org/SDTM_MODEL_FINDINGS/V1#CL_--CAT> ;
	bd:isA <http://www.s-cubed.dk/CAR#a3c686e711e4720f99b4562bb3dbaae7ab658cf2> ;
.
<http://www.cdisc.org/SDTM_IG_LB/V1#IGD_LBSCAT>
	rdf:type bd:SdtmDomainVariable ;
	isoC:label "Subcategory for Lab Test"^^xsd:string ;
	bd:rule ""^^xsd:string ;
	bd:ordinal "11"^^xsd:positiveInteger ;
	bd:name "LBSCAT"^^xsd:string ;
	bd:description "A further categorization of a test category such as DIFFERENTIAL, COAGULATON, LIVER FUNCTION, ELECTROLYTES."^^xsd:string ;
	bd:format ""^^xsd:string ;
	bd:ctAndFormat ""^^xsd:string ;
	bd:compliance <http://www.assero.co.uk/CSN#f7d9d4e1-a00a-487e-89db-ebece910ba0d> ;
	bd:basedOnClassVariable <http://www.cdisc.org/SDTM_MODEL_FINDINGS/V1#CL_--SCAT> ;
	bd:isA <http://www.s-cubed.dk/CAR#479a67983e739413da55faf0dc509f83fd5dea64> ;
.
<http://www.cdisc.org/SDTM_IG_LB/V1#IGD_LBORRES>
	rdf:type bd:SdtmDomainVariable ;
	isoC:label "Result or Finding in Original Units"^^xsd:string ;
	bd:rule ""^^xsd:string ;
	bd:ordinal "12"^^xsd:positiveInteger ;
	bd:name "LBORRES"^^xsd:string ;
	bd:description "Result of the measurement or finding as originally received or collected."^^xsd:string ;
	bd:format ""^^xsd:string ;
	bd:ctAndFormat ""^^xsd:string ;
	bd:compliance <http://www.assero.co.uk/CSN#046f6c24-9eaf-4f60-8390-f36328c82ec4> ;
	bd:basedOnClassVariable <http://www.cdisc.org/SDTM_MODEL_FINDINGS/V1#CL_--ORRES> ;
	bd:isA <http://www.s-cubed.dk/CAR#af5f0ce4847da645162514a984a7b88b67016e80> ;
.
<http://www.cdisc.org/SDTM_IG_LB/V1#IGD_LBORRESU>
	rdf:type bd:SdtmDomainVariable ;
	isoC:label "Original Units"^^xsd:string ;
	bd:rule ""^^xsd:string ;
	bd:ordinal "13"^^xsd:positiveInteger ;
	bd:name "LBORRESU"^^xsd:string ;
	bd:description "Original units in which the data were collected. The unit for LBORRES. Example: g/L."^^xsd:string ;
	bd:format ""^^xsd:string ;
	bd:ctAndFormat "(UNIT)"^^xsd:string ;
	bd:compliance <http://www.assero.co.uk/CSN#046f6c24-9eaf-4f60-8390-f36328c82ec4> ;
	bd:ctReference <http://www.cdisc.org/SDTM_IG_LB/V1#IGD_LBORRESU_TMC1> ;
	bd:basedOnClassVariable <http://www.cdisc.org/SDTM_MODEL_FINDINGS/V1#CL_--ORRESU> ;
	bd:isA <http://www.s-cubed.dk/CAR#7715259cc4b4ef877c53de5ab0e9673dff58ca35> ;
.
<http://www.cdisc.org/SDTM_IG_LB/V1#IGD_LBORRESU_TMC1>
	rdf:type bo:TMcReference ;
	isoC:label "UNIT"^^xsd:string ;
	bo:enabled "true"^^xsd:boolean ;
	bo:optional "false"^^xsd:boolean ;
	bo:ordinal "1"^^xsd:positiveInteger ;
	bo:reference <http://www.cdisc.org/C71620/V11#C71620> ;
	bo:context <http://www.cdisc.org/CT/V13#TH> ;
.
<http://www.cdisc.org/SDTM_IG_LB/V1#IGD_LBORNRLO>
	rdf:type bd:SdtmDomainVariable ;
	isoC:label "Reference Range Lower Limit in Orig Unit"^^xsd:string ;
	bd:rule ""^^xsd:string ;
	bd:ordinal "14"^^xsd:positiveInteger ;
	bd:name "LBORNRLO"^^xsd:string ;
	bd:description "Lower end of reference range for continuous measurements in original units. Should be populated only for continuous results."^^xsd:string ;
	bd:format ""^^xsd:string ;
	bd:ctAndFormat ""^^xsd:string ;
	bd:compliance <http://www.assero.co.uk/CSN#046f6c24-9eaf-4f60-8390-f36328c82ec4> ;
	bd:basedOnClassVariable <http://www.cdisc.org/SDTM_MODEL_FINDINGS/V1#CL_--ORNRLO> ;
.
<http://www.cdisc.org/SDTM_IG_LB/V1#IGD_LBORNRHI>
	rdf:type bd:SdtmDomainVariable ;
	isoC:label "Reference Range Upper Limit in Orig Unit"^^xsd:string ;
	bd:rule ""^^xsd:string ;
	bd:ordinal "15"^^xsd:positiveInteger ;
	bd:name "LBORNRHI"^^xsd:string ;
	bd:description "Upper end of reference range for continuous measurements in original units. Should be populated only for continuous results."^^xsd:string ;
	bd:format ""^^xsd:string ;
	bd:ctAndFormat ""^^xsd:string ;
	bd:compliance <http://www.assero.co.uk/CSN#046f6c24-9eaf-4f60-8390-f36328c82ec4> ;
	bd:basedOnClassVariable <http://www.cdisc.org/SDTM_MODEL_FINDINGS/V1#CL_--ORNRHI> ;
.
<http://www.cdisc.org/SDTM_IG_LB/V1#IGD_LBSTRESC>
	rdf:type bd:SdtmDomainVariable ;
	isoC:label "Character Result/Finding in Std Format"^^xsd:string ;
	bd:rule ""^^xsd:string ;
	bd:ordinal "16"^^xsd:positiveInteger ;
	bd:name "LBSTRESC"^^xsd:string ;
	bd:description "Contains the result value for all findings, copied or derived from LBORRES in a standard format or standard units. LBSTRESC should store all results or findings in character format; if results are numeric, they should also be stored in numeric format in LBSTRESN. For example, if a test has results 'NONE', 'NEG', and 'NEGATIVE' in LBORRES and these results effectively have the same meaning, they could be represented in standard format in LBSTRESC as 'NEGATIVE'. For other examples, see general assumptions."^^xsd:string ;
	bd:format ""^^xsd:string ;
	bd:ctAndFormat ""^^xsd:string ;
	bd:compliance <http://www.assero.co.uk/CSN#046f6c24-9eaf-4f60-8390-f36328c82ec4> ;
	bd:basedOnClassVariable <http://www.cdisc.org/SDTM_MODEL_FINDINGS/V1#CL_--STRESC> ;
.
<http://www.cdisc.org/SDTM_IG_LB/V1#IGD_LBSTRESN>
	rdf:type bd:SdtmDomainVariable ;
	isoC:label "Numeric Result/Finding in Standard Units"^^xsd:string ;
	bd:rule ""^^xsd:string ;
	bd:ordinal "17"^^xsd:positiveInteger ;
	bd:name "LBSTRESN"^^xsd:string ;
	bd:description "Used for continuous or numeric results or findings in standard format; copied in numeric format from LBSTRESC. LBSTRESN should store all numeric test results or findings."^^xsd:string ;
	bd:format ""^^xsd:string ;
	bd:ctAndFormat ""^^xsd:string ;
	bd:compliance <http://www.assero.co.uk/CSN#046f6c24-9eaf-4f60-8390-f36328c82ec4> ;
	bd:basedOnClassVariable <http://www.cdisc.org/SDTM_MODEL_FINDINGS/V1#CL_--STRESN> ;
.
<http://www.cdisc.org/SDTM_IG_LB/V1#IGD_LBSTRESU>
	rdf:type bd:SdtmDomainVariable ;
	isoC:label "Standard Units"^^xsd:string ;
	bd:rule ""^^xsd:string ;
	bd:ordinal "18"^^xsd:positiveInteger ;
	bd:name "LBSTRESU"^^xsd:string ;
	bd:description "Standardized unit used for LBSTRESC or LBSTRESN."^^xsd:string ;
	bd:format ""^^xsd:string ;
	bd:ctAndFormat "(UNIT)"^^xsd:string ;
	bd:compliance <http://www.assero.co.uk/CSN#046f6c24-9eaf-4f60-8390-f36328c82ec4> ;
	bd:ctReference <http://www.cdisc.org/SDTM_IG_LB/V1#IGD_LBSTRESU_TMC1> ;
	bd:basedOnClassVariable <http://www.cdisc.org/SDTM_MODEL_FINDINGS/V1#CL_--STRESU> ;
.
<http://www.cdisc.org/SDTM_IG_LB/V1#IGD_LBSTRESU_TMC1>
	rdf:type bo:TMcReference ;
	isoC:label "UNIT"^^xsd:string ;
	bo:enabled "true"^^xsd:boolean ;
	bo:optional "false"^^xsd:boolean ;
	bo:ordinal "1"^^xsd:positiveInteger ;
	bo:reference <http://www.cdisc.org/C71620/V11#C71620> ;
	bo:context <http://www.cdisc.org/CT/V13#TH> ;
.
<http://www.cdisc.org/SDTM_IG_LB/V1#IGD_LBSTNRLO>
	rdf:type bd:SdtmDomainVariable ;
	isoC:label "Reference Range Lower Limit-Std Units"^^xsd:string ;
	bd:rule ""^^xsd:string ;
	bd:ordinal "19"^^xsd:positiveInteger ;
	bd:name "LBSTNRLO"^^xsd:string ;
	bd:description "Lower end of reference range for continuous measurements for LBSTRESC/LBSTRESN in standardized units. Should be populated only for continuous results."^^xsd:string ;
	bd:format ""^^xsd:string ;
	bd:ctAndFormat ""^^xsd:string ;
	bd:compliance <http://www.assero.co.uk/CSN#046f6c24-9eaf-4f60-8390-f36328c82ec4> ;
	bd:basedOnClassVariable <http://www.cdisc.org/SDTM_MODEL_FINDINGS/V1#CL_--STNRLO> ;
.
<http://www.cdisc.org/SDTM_IG_LB/V1#IGD_LBSTNRHI>
	rdf:type bd:SdtmDomainVariable ;
	isoC:label "Reference Range Upper Limit-Std Units"^^xsd:string ;
	bd:rule ""^^xsd:string ;
	bd:ordinal "20"^^xsd:positiveInteger ;
	bd:name "LBSTNRHI"^^xsd:string ;
	bd:description "Upper end of reference range for continuous measurements in standardized units. Should be populated only for continuous results."^^xsd:string ;
	bd:format ""^^xsd:string ;
	bd:ctAndFormat ""^^xsd:string ;
	bd:compliance <http://www.assero.co.uk/CSN#046f6c24-9eaf-4f60-8390-f36328c82ec4> ;
	bd:basedOnClassVariable <http://www.cdisc.org/SDTM_MODEL_FINDINGS/V1#CL_--STNRHI> ;
.
<http://www.cdisc.org/SDTM_IG_LB/V1#IGD_LBSTNRC>
	rdf:type bd:SdtmDomainVariable ;
	isoC:label "Reference Range for Char Rslt-Std Units"^^xsd:string ;
	bd:rule ""^^xsd:string ;
	bd:ordinal "21"^^xsd:positiveInteger ;
	bd:name "LBSTNRC"^^xsd:string ;
	bd:description "For normal range values that are character in ordinal scale or if categorical ranges were supplied (e.g., '-1 to +1', 'NEGATIVE TO TRACE')."^^xsd:string ;
	bd:format ""^^xsd:string ;
	bd:ctAndFormat ""^^xsd:string ;
	bd:compliance <http://www.assero.co.uk/CSN#f7d9d4e1-a00a-487e-89db-ebece910ba0d> ;
	bd:basedOnClassVariable <http://www.cdisc.org/SDTM_MODEL_FINDINGS/V1#CL_--STNRC> ;
.
<http://www.cdisc.org/SDTM_IG_LB/V1#IGD_LBNRIND>
	rdf:type bd:SdtmDomainVariable ;
	isoC:label "Reference Range Indicator"^^xsd:string ;
	bd:rule ""^^xsd:string ;
	bd:ordinal "22"^^xsd:positiveInteger ;
	bd:name "LBNRIND"^^xsd:string ;
	bd:description "1. Indicates where the value falls with respect to reference range defined by LBORNRLO and LBORNRHI, LBSTNRLO and LBSTNRHI, or by LBSTNRC. Examples: NORMAL, ABNORMAL, HIGH, LOW. 2. Sponsors should specify in the study metadata (Comments column in the define.xml) whether LBNRIND refers to the original or standard reference ranges and results. 3. Should not be used to indicate clinical significance."^^xsd:string ;
	bd:format ""^^xsd:string ;
	bd:ctAndFormat ""^^xsd:string ;
	bd:compliance <http://www.assero.co.uk/CSN#046f6c24-9eaf-4f60-8390-f36328c82ec4> ;
	bd:basedOnClassVariable <http://www.cdisc.org/SDTM_MODEL_FINDINGS/V1#CL_--NRIND> ;
.
<http://www.cdisc.org/SDTM_IG_LB/V1#IGD_LBSTAT>
	rdf:type bd:SdtmDomainVariable ;
	isoC:label "Completion Status"^^xsd:string ;
	bd:rule ""^^xsd:string ;
	bd:ordinal "23"^^xsd:positiveInteger ;
	bd:name "LBSTAT"^^xsd:string ;
	bd:description "Used to indicate exam not done. Should be null if a result exists in LBORRES."^^xsd:string ;
	bd:format ""^^xsd:string ;
	bd:ctAndFormat "(ND)"^^xsd:string ;
	bd:compliance <http://www.assero.co.uk/CSN#f7d9d4e1-a00a-487e-89db-ebece910ba0d> ;
	bd:ctReference <http://www.cdisc.org/SDTM_IG_LB/V1#IGD_LBSTAT_TMC1> ;
	bd:basedOnClassVariable <http://www.cdisc.org/SDTM_MODEL_FINDINGS/V1#CL_--STAT> ;
	bd:isA <http://www.s-cubed.dk/CAR#bae7d5be70820ed56467bd9a63744e23b47bd711> ;
.
<http://www.cdisc.org/SDTM_IG_LB/V1#IGD_LBSTAT_TMC1>
	rdf:type bo:TMcReference ;
	isoC:label "ND"^^xsd:string ;
	bo:enabled "true"^^xsd:boolean ;
	bo:optional "false"^^xsd:boolean ;
	bo:ordinal "1"^^xsd:positiveInteger ;
	bo:reference <http://www.cdisc.org/C66789/V13#C66789> ;
	bo:context <http://www.cdisc.org/CT/V13#TH> ;
.
<http://www.cdisc.org/SDTM_IG_LB/V1#IGD_LBREASND>
	rdf:type bd:SdtmDomainVariable ;
	isoC:label "Reason Test Not Done"^^xsd:string ;
	bd:rule ""^^xsd:string ;
	bd:ordinal "24"^^xsd:positiveInteger ;
	bd:name "LBREASND"^^xsd:string ;
	bd:description "Describes why a measurement or test was not performed such as BROKEN EQUIPMENT, SUBJECT REFUSED, or SPECIMEN LOST. Used in conjunction with LBSTAT when value is NOT DONE."^^xsd:string ;
	bd:format ""^^xsd:string ;
	bd:ctAndFormat ""^^xsd:string ;
	bd:compliance <http://www.assero.co.uk/CSN#f7d9d4e1-a00a-487e-89db-ebece910ba0d> ;
	bd:basedOnClassVariable <http://www.cdisc.org/SDTM_MODEL_FINDINGS/V1#CL_--REASND> ;
	bd:isA <http://www.s-cubed.dk/CAR#52b30e2515e4fa778a3ab77470f0b096877a26c2> ;
.
<http://www.cdisc.org/SDTM_IG_LB/V1#IGD_LBNAM>
	rdf:type bd:SdtmDomainVariable ;
	isoC:label "Vendor Name"^^xsd:string ;
	bd:rule ""^^xsd:string ;
	bd:ordinal "25"^^xsd:positiveInteger ;
	bd:name "LBNAM"^^xsd:string ;
	bd:description "The name or identifier of the laboratory that performed the test."^^xsd:string ;
	bd:format ""^^xsd:string ;
	bd:ctAndFormat ""^^xsd:string ;
	bd:compliance <http://www.assero.co.uk/CSN#f7d9d4e1-a00a-487e-89db-ebece910ba0d> ;
	bd:basedOnClassVariable <http://www.cdisc.org/SDTM_MODEL_FINDINGS/V1#CL_--NAM> ;
.
<http://www.cdisc.org/SDTM_IG_LB/V1#IGD_LBLOINC>
	rdf:type bd:SdtmDomainVariable ;
	isoC:label "LOINC Code"^^xsd:string ;
	bd:rule ""^^xsd:string ;
	bd:ordinal "26"^^xsd:positiveInteger ;
	bd:name "LBLOINC"^^xsd:string ;
	bd:description "1. Dictionary-derived LOINC Code for LBTEST. 2. The sponsor is expected to provide the dictionary name and version used to map the terms utilizing the define.xml external codelist attributes"^^xsd:string ;
	bd:format ""^^xsd:string ;
	bd:ctAndFormat ""^^xsd:string ;
	bd:compliance <http://www.assero.co.uk/CSN#f7d9d4e1-a00a-487e-89db-ebece910ba0d> ;
	bd:basedOnClassVariable <http://www.cdisc.org/SDTM_MODEL_FINDINGS/V1#CL_--LOINC> ;
.
<http://www.cdisc.org/SDTM_IG_LB/V1#IGD_LBSPEC>
	rdf:type bd:SdtmDomainVariable ;
	isoC:label "Specimen Type"^^xsd:string ;
	bd:rule ""^^xsd:string ;
	bd:ordinal "27"^^xsd:positiveInteger ;
	bd:name "LBSPEC"^^xsd:string ;
	bd:description "Defines the type of specimen used for a measurement. Examples: SERUM, PLASMA, URINE."^^xsd:string ;
	bd:format ""^^xsd:string ;
	bd:ctAndFormat ""^^xsd:string ;
	bd:compliance <http://www.assero.co.uk/CSN#f7d9d4e1-a00a-487e-89db-ebece910ba0d> ;
	bd:basedOnClassVariable <http://www.cdisc.org/SDTM_MODEL_FINDINGS/V1#CL_--SPEC> ;
	bd:isA <http://www.s-cubed.dk/CAR#465e8e7b0c616acafe9d6226a6ba40b31f849e8e> ;
.
<http://www.cdisc.org/SDTM_IG_LB/V1#IGD_LBSPCCND>
	rdf:type bd:SdtmDomainVariable ;
	isoC:label "Specimen Condition"^^xsd:string ;
	bd:rule ""^^xsd:string ;
	bd:ordinal "28"^^xsd:positiveInteger ;
	bd:name "LBSPCCND"^^xsd:string ;
	bd:description "Free or standardized text describing the condition of the specimen e.g. HEMOLYZED, ICTERIC, LIPEMIC etc."^^xsd:string ;
	bd:format ""^^xsd:string ;
	bd:ctAndFormat ""^^xsd:string ;
	bd:compliance <http://www.assero.co.uk/CSN#f7d9d4e1-a00a-487e-89db-ebece910ba0d> ;
	bd:basedOnClassVariable <http://www.cdisc.org/SDTM_MODEL_FINDINGS/V1#CL_--SPCCND> ;
.
<http://www.cdisc.org/SDTM_IG_LB/V1#IGD_LBMETHOD>
	rdf:type bd:SdtmDomainVariable ;
	isoC:label "Method of Test or Examination"^^xsd:string ;
	bd:rule ""^^xsd:string ;
	bd:ordinal "29"^^xsd:positiveInteger ;
	bd:name "LBMETHOD"^^xsd:string ;
	bd:description "Method of the test or examination. Examples: EIA (Enzyme Immunoassay), ELECTROPHORESIS, DIPSTICK"^^xsd:string ;
	bd:format ""^^xsd:string ;
	bd:ctAndFormat ""^^xsd:string ;
	bd:compliance <http://www.assero.co.uk/CSN#f7d9d4e1-a00a-487e-89db-ebece910ba0d> ;
	bd:basedOnClassVariable <http://www.cdisc.org/SDTM_MODEL_FINDINGS/V1#CL_--METHOD> ;
	bd:isA <http://www.s-cubed.dk/CAR#88306943fea7e76f9cd57cae0ea6d8b32d2e8434> ;
.
<http://www.cdisc.org/SDTM_IG_LB/V1#IGD_LBBLFL>
	rdf:type bd:SdtmDomainVariable ;
	isoC:label "Baseline Flag"^^xsd:string ;
	bd:rule ""^^xsd:string ;
	bd:ordinal "30"^^xsd:positiveInteger ;
	bd:name "LBBLFL"^^xsd:string ;
	bd:description "Indicator used to identify a baseline value. The value should be 'Y' or null."^^xsd:string ;
	bd:format ""^^xsd:string ;
	bd:ctAndFormat "(NY)"^^xsd:string ;
	bd:compliance <http://www.assero.co.uk/CSN#046f6c24-9eaf-4f60-8390-f36328c82ec4> ;
	bd:ctReference <http://www.cdisc.org/SDTM_IG_LB/V1#IGD_LBBLFL_TMC1> ;
	bd:basedOnClassVariable <http://www.cdisc.org/SDTM_MODEL_FINDINGS/V1#CL_--BLFL> ;
.
<http://www.cdisc.org/SDTM_IG_LB/V1#IGD_LBBLFL_TMC1>
	rdf:type bo:TMcReference ;
	isoC:label "NY"^^xsd:string ;
	bo:enabled "true"^^xsd:boolean ;
	bo:optional "false"^^xsd:boolean ;
	bo:ordinal "1"^^xsd:positiveInteger ;
	bo:reference <http://www.cdisc.org/C66742/V4#C66742> ;
	bo:context <http://www.cdisc.org/CT/V13#TH> ;
.
<http://www.cdisc.org/SDTM_IG_LB/V1#IGD_LBFAST>
	rdf:type bd:SdtmDomainVariable ;
	isoC:label "Fasting Status"^^xsd:string ;
	bd:rule ""^^xsd:string ;
	bd:ordinal "31"^^xsd:positiveInteger ;
	bd:name "LBFAST"^^xsd:string ;
	bd:description "Indicator used to identify fasting status such as Y, N, U, or null if not relevant."^^xsd:string ;
	bd:format ""^^xsd:string ;
	bd:ctAndFormat "(NY)"^^xsd:string ;
	bd:compliance <http://www.assero.co.uk/CSN#f7d9d4e1-a00a-487e-89db-ebece910ba0d> ;
	bd:ctReference <http://www.cdisc.org/SDTM_IG_LB/V1#IGD_LBFAST_TMC1> ;
	bd:basedOnClassVariable <http://www.cdisc.org/SDTM_MODEL_FINDINGS/V1#CL_--FAST> ;
.
<http://www.cdisc.org/SDTM_IG_LB/V1#IGD_LBFAST_TMC1>
	rdf:type bo:TMcReference ;
	isoC:label "NY"^^xsd:string ;
	bo:enabled "true"^^xsd:boolean ;
	bo:optional "false"^^xsd:boolean ;
	bo:ordinal "1"^^xsd:positiveInteger ;
	bo:reference <http://www.cdisc.org/C66742/V4#C66742> ;
	bo:context <http://www.cdisc.org/CT/V13#TH> ;
.
<http://www.cdisc.org/SDTM_IG_LB/V1#IGD_LBDRVFL>
	rdf:type bd:SdtmDomainVariable ;
	isoC:label "Derived Flag"^^xsd:string ;
	bd:rule ""^^xsd:string ;
	bd:ordinal "32"^^xsd:positiveInteger ;
	bd:name "LBDRVFL"^^xsd:string ;
	bd:description "Used to indicate a derived record. The value should be Y or null. Records that represent the average of other records, or do not come from the CRF, or are not as originally received or collected are examples of records that might be derived for the submission datasets. If LBDRVFL=Y, then LBORRES may be null, with LBSTRESC, and (if numeric) LBSTRESN having the derived value."^^xsd:string ;
	bd:format ""^^xsd:string ;
	bd:ctAndFormat "(NY)"^^xsd:string ;
	bd:compliance <http://www.assero.co.uk/CSN#f7d9d4e1-a00a-487e-89db-ebece910ba0d> ;
	bd:ctReference <http://www.cdisc.org/SDTM_IG_LB/V1#IGD_LBDRVFL_TMC1> ;
	bd:basedOnClassVariable <http://www.cdisc.org/SDTM_MODEL_FINDINGS/V1#CL_--DRVFL> ;
.
<http://www.cdisc.org/SDTM_IG_LB/V1#IGD_LBDRVFL_TMC1>
	rdf:type bo:TMcReference ;
	isoC:label "NY"^^xsd:string ;
	bo:enabled "true"^^xsd:boolean ;
	bo:optional "false"^^xsd:boolean ;
	bo:ordinal "1"^^xsd:positiveInteger ;
	bo:reference <http://www.cdisc.org/C66742/V4#C66742> ;
	bo:context <http://www.cdisc.org/CT/V13#TH> ;
.
<http://www.cdisc.org/SDTM_IG_LB/V1#IGD_LBTOX>
	rdf:type bd:SdtmDomainVariable ;
	isoC:label "Toxicity"^^xsd:string ;
	bd:rule ""^^xsd:string ;
	bd:ordinal "33"^^xsd:positiveInteger ;
	bd:name "LBTOX"^^xsd:string ;
	bd:description "Description of toxicity quantified by LBTOXGR. The sponsor is expected to provide the name of the scale and version used to map the terms, utilizing the define.xml external codelist attributes."^^xsd:string ;
	bd:format ""^^xsd:string ;
	bd:ctAndFormat ""^^xsd:string ;
	bd:compliance <http://www.assero.co.uk/CSN#f7d9d4e1-a00a-487e-89db-ebece910ba0d> ;
	bd:basedOnClassVariable <http://www.cdisc.org/SDTM_MODEL_FINDINGS/V1#CL_--TOX> ;
.
<http://www.cdisc.org/SDTM_IG_LB/V1#IGD_LBTOXGR>
	rdf:type bd:SdtmDomainVariable ;
	isoC:label "Standard Toxicity Grade"^^xsd:string ;
	bd:rule ""^^xsd:string ;
	bd:ordinal "34"^^xsd:positiveInteger ;
	bd:name "LBTOXGR"^^xsd:string ;
	bd:description "Records toxicity grade value using a standard toxicity scale (such as the NCI CTCAE). If value is from a numeric scale, represent only the number (e.g., '2' and not 'Grade 2')."^^xsd:string ;
	bd:format ""^^xsd:string ;
	bd:ctAndFormat ""^^xsd:string ;
	bd:compliance <http://www.assero.co.uk/CSN#f7d9d4e1-a00a-487e-89db-ebece910ba0d> ;
	bd:basedOnClassVariable <http://www.cdisc.org/SDTM_MODEL_FINDINGS/V1#CL_--TOXGR> ;
.
<http://www.cdisc.org/SDTM_IG_LB/V1#IGD_VISITNUM>
	rdf:type bd:SdtmDomainVariable ;
	isoC:label "Visit Number"^^xsd:string ;
	bd:rule ""^^xsd:string ;
	bd:ordinal "35"^^xsd:positiveInteger ;
	bd:name "VISITNUM"^^xsd:string ;
	bd:description "Clinical encounter number. Numeric version of VISIT, used for sorting."^^xsd:string ;
	bd:format ""^^xsd:string ;
	bd:ctAndFormat ""^^xsd:string ;
	bd:compliance <http://www.assero.co.uk/CSN#046f6c24-9eaf-4f60-8390-f36328c82ec4> ;
	bd:basedOnClassVariable <http://www.cdisc.org/SDTM_MODEL_ALL/V1#CL_VISITNUM> ;
.
<http://www.cdisc.org/SDTM_IG_LB/V1#IGD_VISIT>
	rdf:type bd:SdtmDomainVariable ;
	isoC:label "Visit Name"^^xsd:string ;
	bd:rule ""^^xsd:string ;
	bd:ordinal "36"^^xsd:positiveInteger ;
	bd:name "VISIT"^^xsd:string ;
	bd:description "1. Protocol-defined description of clinical encounter. 2. May be used in addition to VISITNUM and/or VISITDY."^^xsd:string ;
	bd:format ""^^xsd:string ;
	bd:ctAndFormat ""^^xsd:string ;
	bd:compliance <http://www.assero.co.uk/CSN#f7d9d4e1-a00a-487e-89db-ebece910ba0d> ;
	bd:basedOnClassVariable <http://www.cdisc.org/SDTM_MODEL_ALL/V1#CL_VISIT> ;
.
<http://www.cdisc.org/SDTM_IG_LB/V1#IGD_VISITDY>
	rdf:type bd:SdtmDomainVariable ;
	isoC:label "Planned Study Day of Visit"^^xsd:string ;
	bd:rule ""^^xsd:string ;
	bd:ordinal "37"^^xsd:positiveInteger ;
	bd:name "VISITDY"^^xsd:string ;
	bd:description "Planned study day of the visit based upon RFSTDTC in Demographics."^^xsd:string ;
	bd:format ""^^xsd:string ;
	bd:ctAndFormat ""^^xsd:string ;
	bd:compliance <http://www.assero.co.uk/CSN#f7d9d4e1-a00a-487e-89db-ebece910ba0d> ;
	bd:basedOnClassVariable <http://www.cdisc.org/SDTM_MODEL_ALL/V1#CL_VISITDY> ;
.
<http://www.cdisc.org/SDTM_IG_LB/V1#IGD_LBDTC>
	rdf:type bd:SdtmDomainVariable ;
	isoC:label "Date/Time of Specimen Collection"^^xsd:string ;
	bd:rule ""^^xsd:string ;
	bd:ordinal "38"^^xsd:positiveInteger ;
	bd:name "LBDTC"^^xsd:string ;
	bd:description ""^^xsd:string ;
	bd:format "ISO 8601"^^xsd:string ;
	bd:ctAndFormat "ISO 8601"^^xsd:string ;
	bd:compliance <http://www.assero.co.uk/CSN#046f6c24-9eaf-4f60-8390-f36328c82ec4> ;
	bd:basedOnClassVariable <http://www.cdisc.org/SDTM_MODEL_ALL/V1#CL_--DTC> ;
	bd:isA <http://www.s-cubed.dk/CAR#232daabe4ca2dfdb32645c572b1d34ddb4fe9995> ;
.
<http://www.cdisc.org/SDTM_IG_LB/V1#IGD_LBENDTC>
	rdf:type bd:SdtmDomainVariable ;
	isoC:label "End Date/Time of Specimen Collection"^^xsd:string ;
	bd:rule ""^^xsd:string ;
	bd:ordinal "39"^^xsd:positiveInteger ;
	bd:name "LBENDTC"^^xsd:string ;
	bd:description ""^^xsd:string ;
	bd:format "ISO 8601"^^xsd:string ;
	bd:ctAndFormat "ISO 8601"^^xsd:string ;
	bd:compliance <http://www.assero.co.uk/CSN#f7d9d4e1-a00a-487e-89db-ebece910ba0d> ;
	bd:basedOnClassVariable <http://www.cdisc.org/SDTM_MODEL_ALL/V1#CL_--ENDTC> ;
	bd:isA <http://www.s-cubed.dk/CAR#71c54c70967ea84127e4bd588bd627ec0e581dfb> ;
.
<http://www.cdisc.org/SDTM_IG_LB/V1#IGD_LBDY>
	rdf:type bd:SdtmDomainVariable ;
	isoC:label "Study Day of Specimen Collection"^^xsd:string ;
	bd:rule ""^^xsd:string ;
	bd:ordinal "40"^^xsd:positiveInteger ;
	bd:name "LBDY"^^xsd:string ;
	bd:description "1. Study day of specimen collection, measured as integer days.  2. Algorithm for calculations must be relative to the sponsor-defined RFSTDTC variable in Demographics. This formula should be consistent across the submission."^^xsd:string ;
	bd:format ""^^xsd:string ;
	bd:ctAndFormat ""^^xsd:string ;
	bd:compliance <http://www.assero.co.uk/CSN#f7d9d4e1-a00a-487e-89db-ebece910ba0d> ;
	bd:basedOnClassVariable <http://www.cdisc.org/SDTM_MODEL_ALL/V1#CL_--DY> ;
.
<http://www.cdisc.org/SDTM_IG_LB/V1#IGD_LBTPT>
	rdf:type bd:SdtmDomainVariable ;
	isoC:label "Planned Time Point Name"^^xsd:string ;
	bd:rule ""^^xsd:string ;
	bd:ordinal "41"^^xsd:positiveInteger ;
	bd:name "LBTPT"^^xsd:string ;
	bd:description "1. Text Description of time when specimen should be taken. 2. This may be represented as an elapsed time relative to a fixed reference point, such as time of last dose. See LBTPTNUM and LBTPTREF. Examples: Start, 5 min post."^^xsd:string ;
	bd:format ""^^xsd:string ;
	bd:ctAndFormat ""^^xsd:string ;
	bd:compliance <http://www.assero.co.uk/CSN#f7d9d4e1-a00a-487e-89db-ebece910ba0d> ;
	bd:basedOnClassVariable <http://www.cdisc.org/SDTM_MODEL_ALL/V1#CL_--TPT> ;
.
<http://www.cdisc.org/SDTM_IG_LB/V1#IGD_LBTPTNUM>
	rdf:type bd:SdtmDomainVariable ;
	isoC:label "Planned Time Point Number"^^xsd:string ;
	bd:rule ""^^xsd:string ;
	bd:ordinal "42"^^xsd:positiveInteger ;
	bd:name "LBTPTNUM"^^xsd:string ;
	bd:description "Numerical version of LBTPT to aid in sorting."^^xsd:string ;
	bd:format ""^^xsd:string ;
	bd:ctAndFormat ""^^xsd:string ;
	bd:compliance <http://www.assero.co.uk/CSN#f7d9d4e1-a00a-487e-89db-ebece910ba0d> ;
	bd:basedOnClassVariable <http://www.cdisc.org/SDTM_MODEL_ALL/V1#CL_--TPTNUM> ;
.
<http://www.cdisc.org/SDTM_IG_LB/V1#IGD_LBELTM>
	rdf:type bd:SdtmDomainVariable ;
	isoC:label "Planned Elapsed Time from Time Point Ref"^^xsd:string ;
	bd:rule ""^^xsd:string ;
	bd:ordinal "43"^^xsd:positiveInteger ;
	bd:name "LBELTM"^^xsd:string ;
	bd:description "Planned Elapsed time (in ISO 8601) relative to a planned fixed reference (LBTPTREF). This variable is useful where there are repetitive measures. Not a clock time or a date time variable. Represented as an ISO 8601 duration. Examples: '-PT15M' to represent the period of 15 minutes prior to the reference point indicated by LBTPTREF, or 'PT8H' to represent the period of 8 hours after the reference point indicated by LBTPTREF."^^xsd:string ;
	bd:format "ISO 8601"^^xsd:string ;
	bd:ctAndFormat "ISO 8601"^^xsd:string ;
	bd:compliance <http://www.assero.co.uk/CSN#f7d9d4e1-a00a-487e-89db-ebece910ba0d> ;
	bd:basedOnClassVariable <http://www.cdisc.org/SDTM_MODEL_ALL/V1#CL_--ELTM> ;
.
<http://www.cdisc.org/SDTM_IG_LB/V1#IGD_LBTPTREF>
	rdf:type bd:SdtmDomainVariable ;
	isoC:label "Time Point Reference"^^xsd:string ;
	bd:rule ""^^xsd:string ;
	bd:ordinal "44"^^xsd:positiveInteger ;
	bd:name "LBTPTREF"^^xsd:string ;
	bd:description "Name of the fixed reference point referred to by LBELTM, LBTPTNUM, and LBTPT. Examples: PREVIOUS DOSE, PREVIOUS MEAL."^^xsd:string ;
	bd:format ""^^xsd:string ;
	bd:ctAndFormat ""^^xsd:string ;
	bd:compliance <http://www.assero.co.uk/CSN#f7d9d4e1-a00a-487e-89db-ebece910ba0d> ;
	bd:basedOnClassVariable <http://www.cdisc.org/SDTM_MODEL_ALL/V1#CL_--TPTREF> ;
.
<http://www.cdisc.org/SDTM_IG_LB/V1#IGD_LBRFTDTC>
	rdf:type bd:SdtmDomainVariable ;
	isoC:label "Date/Time of Reference Time Point"^^xsd:string ;
	bd:rule ""^^xsd:string ;
	bd:ordinal "45"^^xsd:positiveInteger ;
	bd:name "LBRFTDTC"^^xsd:string ;
	bd:description "Date/time of the reference time point, LBTPTREF."^^xsd:string ;
	bd:format "ISO 8601"^^xsd:string ;
	bd:ctAndFormat "ISO 8601"^^xsd:string ;
	bd:compliance <http://www.assero.co.uk/CSN#f7d9d4e1-a00a-487e-89db-ebece910ba0d> ;
	bd:basedOnClassVariable <http://www.cdisc.org/SDTM_MODEL_ALL/V1#CL_--RFTDTC> ;
.
<http://www.cdisc.org/SDTM_IG_PE/V1#IGD>
	rdf:type bd:SdtmDomain ;
	isoC:label "Physical Examination"^^xsd:string ;
	isoT:hasState <http://www.cdisc.org/SDTM_IG_PE/V1#IGD_RS> ;
	isoT:hasIdentifier <http://www.cdisc.org/SDTM_IG_PE/V1#IGD_SI> ;
	isoT:origin ""^^xsd:string ;
	isoT:changeDescription ""^^xsd:string ;
	isoT:creationDate "2008-11-12T00:00:00+00:00"^^xsd:dateTime ;
	isoT:lastChangeDate "2008-11-12T00:00:00+00:00"^^xsd:dateTime ;
	isoT:explanatoryComment ""^^xsd:string ;
	bd:rule ""^^xsd:string ;
	bd:ordinal "1"^^xsd:positiveInteger ;
	bd:includesColumn <http://www.cdisc.org/SDTM_IG_PE/V1#IGD_STUDYID> ;
	bd:includesColumn <http://www.cdisc.org/SDTM_IG_PE/V1#IGD_DOMAIN> ;
	bd:includesColumn <http://www.cdisc.org/SDTM_IG_PE/V1#IGD_USUBJID> ;
	bd:includesColumn <http://www.cdisc.org/SDTM_IG_PE/V1#IGD_PESEQ> ;
	bd:includesColumn <http://www.cdisc.org/SDTM_IG_PE/V1#IGD_PEGRPID> ;
	bd:includesColumn <http://www.cdisc.org/SDTM_IG_PE/V1#IGD_PESPID> ;
	bd:includesColumn <http://www.cdisc.org/SDTM_IG_PE/V1#IGD_PETESTCD> ;
	bd:includesColumn <http://www.cdisc.org/SDTM_IG_PE/V1#IGD_PETEST> ;
	bd:includesColumn <http://www.cdisc.org/SDTM_IG_PE/V1#IGD_PEMODIFY> ;
	bd:includesColumn <http://www.cdisc.org/SDTM_IG_PE/V1#IGD_PECAT> ;
	bd:includesColumn <http://www.cdisc.org/SDTM_IG_PE/V1#IGD_PESCAT> ;
	bd:includesColumn <http://www.cdisc.org/SDTM_IG_PE/V1#IGD_PEBODSYS> ;
	bd:includesColumn <http://www.cdisc.org/SDTM_IG_PE/V1#IGD_PEORRES> ;
	bd:includesColumn <http://www.cdisc.org/SDTM_IG_PE/V1#IGD_PEORRESU> ;
	bd:includesColumn <http://www.cdisc.org/SDTM_IG_PE/V1#IGD_PESTRESC> ;
	bd:includesColumn <http://www.cdisc.org/SDTM_IG_PE/V1#IGD_PESTAT> ;
	bd:includesColumn <http://www.cdisc.org/SDTM_IG_PE/V1#IGD_PEREASND> ;
	bd:includesColumn <http://www.cdisc.org/SDTM_IG_PE/V1#IGD_PELOC> ;
	bd:includesColumn <http://www.cdisc.org/SDTM_IG_PE/V1#IGD_PEMETHOD> ;
	bd:includesColumn <http://www.cdisc.org/SDTM_IG_PE/V1#IGD_PEEVAL> ;
	bd:includesColumn <http://www.cdisc.org/SDTM_IG_PE/V1#IGD_VISITNUM> ;
	bd:includesColumn <http://www.cdisc.org/SDTM_IG_PE/V1#IGD_VISIT> ;
	bd:includesColumn <http://www.cdisc.org/SDTM_IG_PE/V1#IGD_VISITDY> ;
	bd:includesColumn <http://www.cdisc.org/SDTM_IG_PE/V1#IGD_PEDTC> ;
	bd:includesColumn <http://www.cdisc.org/SDTM_IG_PE/V1#IGD_PEDY> ;
	bd:prefix "PE"^^xsd:string ;
