# baseURI: http://rdf.cdisc.org/std/sdtmig-3-1-2
# imports: http://rdf.cdisc.org/sdtm-terminology
# imports: http://rdf.cdisc.org/std/sdtm-1-2

@prefix cdiscs: <http://rdf.cdisc.org/std/schema#> .
@prefix dc: <http://purl.org/dc/elements/1.1/> .
@prefix mms: <http://rdf.cdisc.org/mms#> .
@prefix owl: <http://www.w3.org/2002/07/owl#> .
@prefix rdf: <http://www.w3.org/1999/02/22-rdf-syntax-ns#> .
@prefix rdfs: <http://www.w3.org/2000/01/rdf-schema#> .
@prefix sdtm-1-2: <http://rdf.cdisc.org/std/sdtm-1-2#> .
@prefix sdtmct: <http://rdf.cdisc.org/sdtm-terminology#> .
@prefix sdtmig-3-1-2: <http://rdf.cdisc.org/std/sdtmig-3-1-2#> .
@prefix skos: <http://www.w3.org/2004/02/skos/core#> .
@prefix xsd: <http://www.w3.org/2001/XMLSchema#> .

<http://rdf.cdisc.org/std/sdtmig-3-1-2>
  rdf:type owl:Ontology ;
  dc:creator "FDA/PhUSE CSS Semantic Technology Project"^^xsd:string ;
  owl:imports <http://rdf.cdisc.org/sdtm-terminology> ;
  owl:imports <http://rdf.cdisc.org/std/sdtm-1-2> ;
  owl:versionInfo "3.1.2"^^xsd:string ;
  skos:definition "An ontology representing the content of the Study Data Tabulation Model Implementation Guide (SDTMIG) Version 3.1.2 as published by CDISC."^^xsd:string ;
  skos:prefLabel "CDISC SDTM Implementation Guide 3.1.2"^^xsd:string ;
.
<http://rdf.cdisc.org/std/sdtmig-3-1-2#Assumption.AE.001.001>
  rdf:type cdiscs:Assumption ;
  mms:ordinal "1"^^xsd:positiveInteger ;
  cdiscs:about <http://rdf.cdisc.org/std/sdtmig-3-1-2#Dataset.AE> ;
  cdiscs:assumptionText "The Adverse Events dataset includes clinical data describing \"any untoward medical occurrence in a patient or clinical investigation subject administered a pharmaceutical product and which does not necessarily have to have a causal relationship with this treatment\" (ICH E2A). In consultation with regulatory authorities, sponsors may extend or limit the scope of adverse event collection (e.g., collecting pre-treatment events related to trial conduct, not collecting events that are assessed as efficacy endpoints). The events included in the AE dataset should be consistent with the protocol requirements. Adverse events may be captured either as free text or via a pre-specified list of terms."^^xsd:string ;
  cdiscs:partOfSection <http://rdf.cdisc.org/std/sdtmig-3-1-2#Section.AE.001> ;
.
<http://rdf.cdisc.org/std/sdtmig-3-1-2#Assumption.AE.002.001>
  rdf:type cdiscs:Assumption ;
  mms:ordinal "2"^^xsd:positiveInteger ;
  cdiscs:about <http://rdf.cdisc.org/std/sdtmig-3-1-2#Column.AE.AETERM> ;
  cdiscs:assumptionText "a. AETERM captures the verbatim term collected for the event. It is the topic variable for the AE dataset. AETERM is a required variable and must have a value."^^xsd:string ;
  cdiscs:partOfSection <http://rdf.cdisc.org/std/sdtmig-3-1-2#Section.AE.002> ;
.
<http://rdf.cdisc.org/std/sdtmig-3-1-2#Assumption.AE.002.002>
  rdf:type cdiscs:Assumption ;
  mms:ordinal "3"^^xsd:positiveInteger ;
  cdiscs:about <http://rdf.cdisc.org/std/sdtmig-3-1-2#Column.AE.AEMODIFY> ;
  cdiscs:assumptionText "b. AEMODIFY is a permissible variable and should be included if the sponsor's procedure permits modification of a verbatim term for coding. The modified term is listed in AEMODIFY. The variable should be populated as per the sponsor's procedures."^^xsd:string ;
  cdiscs:partOfSection <http://rdf.cdisc.org/std/sdtmig-3-1-2#Section.AE.002> ;
.
<http://rdf.cdisc.org/std/sdtmig-3-1-2#Assumption.AE.002.003>
  rdf:type cdiscs:Assumption ;
  mms:ordinal "4"^^xsd:positiveInteger ;
  cdiscs:about <http://rdf.cdisc.org/std/sdtmig-3-1-2#Column.AE.AEDECOD> ;
  cdiscs:assumptionText "c. AEDECOD is the preferred term derived by the sponsor from the coding dictionary. It is a required variable and must have a value. It is expected that the reported term (AETERM) will be coded using a standard dictionary such as MedDRA. The sponsor is expected to provide the dictionary name and version used to map the terms utilizing the define.xml external codelist attributes."^^xsd:string ;
  cdiscs:partOfSection <http://rdf.cdisc.org/std/sdtmig-3-1-2#Section.AE.002> ;
.
<http://rdf.cdisc.org/std/sdtmig-3-1-2#Assumption.AE.002.004>
  rdf:type cdiscs:Assumption ;
  mms:ordinal "5"^^xsd:positiveInteger ;
  cdiscs:about <http://rdf.cdisc.org/std/sdtmig-3-1-2#Column.AE.AEBODSYS> ;
  cdiscs:assumptionText "d. AEBODSYS is the system organ class from the coding dictionary associated with the adverse event by the sponsor. This value may differ from the primary system organ class designated in the coding dictionary's standard hierarchy. It is expected that this variable will be populated."^^xsd:string ;
  cdiscs:partOfSection <http://rdf.cdisc.org/std/sdtmig-3-1-2#Section.AE.002> ;
.
<http://rdf.cdisc.org/std/sdtmig-3-1-2#Assumption.AE.002.005>
  rdf:type cdiscs:Assumption ;
  mms:ordinal "6"^^xsd:positiveInteger ;
  cdiscs:about <http://rdf.cdisc.org/std/sdtmig-3-1-2#Dataset.AE> ;
  cdiscs:assumptionText "e. Sponsors may include the values of additional levels from the coding dictionary's hierarchy (i.e., High-Level Group Term, High-Level Term, Lower-Level Term) in the SUPPAE dataset as described in Appendix C5 (standard Supplemental Qualifier name codes) and Section 8.4."^^xsd:string ;
  cdiscs:partOfSection <http://rdf.cdisc.org/std/sdtmig-3-1-2#Section.AE.002> ;
.
<http://rdf.cdisc.org/std/sdtmig-3-1-2#Assumption.AE.003.001>
  rdf:type cdiscs:Assumption ;
  mms:ordinal "7"^^xsd:positiveInteger ;
  cdiscs:about <http://rdf.cdisc.org/std/sdtmig-3-1-2#Column.AE.AECAT> ;
  cdiscs:about <http://rdf.cdisc.org/std/sdtmig-3-1-2#Column.AE.AESCAT> ;
  cdiscs:assumptionText "a. AECAT and AESCAT should not be redundant with the domain code or dictionary classification provided by AEDECOD and AEBODSYS (i.e., they should provide a different means of defining or classifying AE records). AECAT and AESCAT are intended for categorizations that are defined in advance. For example, a sponsor may have a separate CRF page for AEs of special interest and then another page for all other AEs. AECAT and AESCAT should not be used for after-the-fact categorizations such as clinically significant. In cases where a category of AEs of special interest resembles a part of the dictionary hierarchy (e.g., \"CARDIAC EVENTS\"), the categorization represented by AECAT and AESCAT may differ from the categorization derived from the coding dictionary."^^xsd:string ;
  cdiscs:partOfSection <http://rdf.cdisc.org/std/sdtmig-3-1-2#Section.AE.003> ;
.
<http://rdf.cdisc.org/std/sdtmig-3-1-2#Assumption.AE.003.002>
  rdf:type cdiscs:Assumption ;
  mms:ordinal "8"^^xsd:positiveInteger ;
  cdiscs:about <http://rdf.cdisc.org/std/sdtmig-3-1-2#Column.AE.AEGRPID> ;
  cdiscs:assumptionText "b. AEGRPID may be used to link (or associate) different records together to form a block of related records at the subject level within the AE domain. See Section 4.1.2.6 for discussion of grouping variables."^^xsd:string ;
  cdiscs:partOfSection <http://rdf.cdisc.org/std/sdtmig-3-1-2#Section.AE.003> ;
.
<http://rdf.cdisc.org/std/sdtmig-3-1-2#Assumption.AE.004.001>
  rdf:type cdiscs:Assumption ;
  mms:ordinal "9"^^xsd:positiveInteger ;
  cdiscs:about <http://rdf.cdisc.org/std/sdtmig-3-1-2#Column.AE.AEPRESP> ;
  cdiscs:assumptionText "a. Adverse events are generally collected in two different ways, either by recording free text or using a pre-specified list of terms. In the latter case, the solicitation of information on specific adverse events may affect the frequency at which they are reported; therefore, the fact that a specific adverse event was solicited may be of interest to reviewers. An AEPRESP value of \"Y\" is used to indicate that the event in AETERM was pre-specified on the CRF."^^xsd:string ;
  cdiscs:partOfSection <http://rdf.cdisc.org/std/sdtmig-3-1-2#Section.AE.004> ;
.
<http://rdf.cdisc.org/std/sdtmig-3-1-2#Assumption.AE.004.002>
  rdf:type cdiscs:Assumption ;
  mms:ordinal "10"^^xsd:positiveInteger ;
  cdiscs:about <http://rdf.cdisc.org/std/sdtmig-3-1-2#Dataset.AE> ;
  cdiscs:about <http://rdf.cdisc.org/std/sdtmig-3-1-2#Dataset.FA> ;
  cdiscs:assumptionText "b. If it is important to know which adverse events from a pre-specified list were not reported as well as those that did occur, these data should be submitted in a Findings class dataset such as Findings About Events and Interventions (FA, Section 6.4). A record should be included in that Findings dataset for each pre-specified adverse-event term. Records for adverse events that actually occurred should also exist in the AE dataset with AEPRESP set to \"Y\"."^^xsd:string ;
  cdiscs:partOfSection <http://rdf.cdisc.org/std/sdtmig-3-1-2#Section.AE.004> ;
.
<http://rdf.cdisc.org/std/sdtmig-3-1-2#Assumption.AE.004.003>
  rdf:type cdiscs:Assumption ;
  mms:ordinal "11"^^xsd:positiveInteger ;
  cdiscs:about <http://rdf.cdisc.org/std/sdtmig-3-1-2#Column.AE.AEPRESP> ;
  cdiscs:assumptionText "c. If a study collects both pre-specified adverse events as well as free-text events, the value of AEPRESP should be \"Y\" for all pre-specified events and null for events reported as free-text. AEPRESP is a permissible field and may be omitted from the dataset if all adverse events were collected as free text."^^xsd:string ;
  cdiscs:partOfSection <http://rdf.cdisc.org/std/sdtmig-3-1-2#Section.AE.004> ;
.
<http://rdf.cdisc.org/std/sdtmig-3-1-2#Assumption.AE.004.004>
  rdf:type cdiscs:Assumption ;
  mms:ordinal "12"^^xsd:positiveInteger ;
  cdiscs:about <http://rdf.cdisc.org/std/sdtmig-3-1-2#Dataset.AE> ;
  cdiscs:assumptionText "d. When adverse events are collected with the recording of free text, a record may be entered into the sponsor's data management system to indicate \"no adverse events\" for a specific subject. For these subjects, do not include a record in the AE submission dataset to indicate that there were no events. Records should be included in the submission AE dataset only for adverse events that have actually occurred."^^xsd:string ;
  cdiscs:partOfSection <http://rdf.cdisc.org/std/sdtmig-3-1-2#Section.AE.004> ;
.
<http://rdf.cdisc.org/std/sdtmig-3-1-2#Assumption.AE.005.001>
  rdf:type cdiscs:Assumption ;
  mms:ordinal "13"^^xsd:positiveInteger ;
  cdiscs:about <http://rdf.cdisc.org/std/sdtmig-3-1-2#Column.AE.AEENRF> ;
  cdiscs:about <http://rdf.cdisc.org/std/sdtmig-3-1-2#Column.AE.AEENRTPT> ;
  cdiscs:about <http://rdf.cdisc.org/std/sdtmig-3-1-2#Column.AE.AEENTPT> ;
  cdiscs:assumptionText "a. Relative timing assessment \"Ongoing\" is common in the collection of Adverse Event information. AEENRF may be used when this relative timing assessment is made coincident with the end of the study reference period for the subject represented in the Demographics dataset (RFENDTC). AEENRTPT with AEENTPT may be used when \"Ongoing\" is relative to another date such as the final safety follow-up visit date. See Section 4.1.4.7."^^xsd:string ;
  cdiscs:partOfSection <http://rdf.cdisc.org/std/sdtmig-3-1-2#Section.AE.005> ;
.
<http://rdf.cdisc.org/std/sdtmig-3-1-2#Assumption.AE.005.002>
  rdf:type cdiscs:Assumption ;
  mms:ordinal "14"^^xsd:positiveInteger ;
  cdiscs:about <http://rdf.cdisc.org/std/sdtmig-3-1-2#Dataset.AE> ;
  cdiscs:assumptionText "b. Additional timing variables (such as AEDTC) may be used when appropriate."^^xsd:string ;
  cdiscs:partOfSection <http://rdf.cdisc.org/std/sdtmig-3-1-2#Section.AE.005> ;
.
<http://rdf.cdisc.org/std/sdtmig-3-1-2#Assumption.AE.006.001>
  rdf:type cdiscs:Assumption ;
  mms:ordinal "15"^^xsd:positiveInteger ;
  cdiscs:about <http://rdf.cdisc.org/std/sdtmig-3-1-2#Column.AE.AESCAN> ;
  cdiscs:about <http://rdf.cdisc.org/std/sdtmig-3-1-2#Column.AE.AESCONG> ;
  cdiscs:about <http://rdf.cdisc.org/std/sdtmig-3-1-2#Column.AE.AESDISAB> ;
  cdiscs:about <http://rdf.cdisc.org/std/sdtmig-3-1-2#Column.AE.AESDTH> ;
  cdiscs:about <http://rdf.cdisc.org/std/sdtmig-3-1-2#Column.AE.AESER> ;
  cdiscs:about <http://rdf.cdisc.org/std/sdtmig-3-1-2#Column.AE.AESHOSP> ;
  cdiscs:about <http://rdf.cdisc.org/std/sdtmig-3-1-2#Column.AE.AESLIFE> ;
  cdiscs:about <http://rdf.cdisc.org/std/sdtmig-3-1-2#Column.AE.AESMIE> ;
  cdiscs:about <http://rdf.cdisc.org/std/sdtmig-3-1-2#Column.AE.AESOD> ;
  cdiscs:assumptionText """a. If categories of serious events are collected secondarily to a leading question, as in the example below, the values of the variables that capture reasons an event is considered serious (i.e., AESCAN, AESCONG, etc.) may be null. For example, if Serious is answered \"No\", the values for these variables may be null. However, if Serious is answered \"Yes\", at least one of them will have a \"Y\" response. Others may be N or null, according to the sponsor's convention.
Serious? [ ] Yes [ ] No 
If yes, check all that apply: [ ] Fatal [ ] Life-threatening [ ] Inpatient hospitalization... [ ] etc. 
On the other hand, if the CRF is structured so that a response is collected for each seriousness category, all category variables (e.g., AESDTH, AESHOSP) would be populated and AESER would be derived."""^^xsd:string ;
  cdiscs:partOfSection <http://rdf.cdisc.org/std/sdtmig-3-1-2#Section.AE.006> ;
.
<http://rdf.cdisc.org/std/sdtmig-3-1-2#Assumption.AE.006.002>
  rdf:type cdiscs:Assumption ;
  mms:ordinal "16"^^xsd:positiveInteger ;
  cdiscs:about <http://rdf.cdisc.org/std/sdtmig-3-1-2#Column.AE.AESCAN> ;
  cdiscs:about <http://rdf.cdisc.org/std/sdtmig-3-1-2#Column.AE.AESOD> ;
  cdiscs:assumptionText "b. The serious categories \"Involves cancer\" (AESCAN) and \"Occurred with overdose\" (AESOD) are not part of the ICH definition of a serious adverse event, but these categories are available for use in studies conducted under guidelines that existed prior to the FDA's adoption of the ICH definition."^^xsd:string ;
  cdiscs:partOfSection <http://rdf.cdisc.org/std/sdtmig-3-1-2#Section.AE.006> ;
.
<http://rdf.cdisc.org/std/sdtmig-3-1-2#Assumption.AE.006.003>
  rdf:type cdiscs:Assumption ;
  mms:ordinal "17"^^xsd:positiveInteger ;
  cdiscs:about <http://rdf.cdisc.org/std/sdtmig-3-1-2#Column.AE.AESMIE> ;
  cdiscs:about <http://rdf.cdisc.org/std/sdtmig-3-1-2#Dataset.AE> ;
  cdiscs:assumptionText "c. When a description of Other Medically Important Serious Adverse Events category is collected on a CRF, sponsors should place the description in the SUPPAE dataset using the standard supplemental qualifier name code AESOSP as described in Section 8.4 and Appendix C5."^^xsd:string ;
  cdiscs:partOfSection <http://rdf.cdisc.org/std/sdtmig-3-1-2#Section.AE.006> ;
.
<http://rdf.cdisc.org/std/sdtmig-3-1-2#Assumption.AE.006.004>
  rdf:type cdiscs:Assumption ;
  mms:ordinal "18"^^xsd:positiveInteger ;
  cdiscs:about <http://rdf.cdisc.org/std/sdtmig-3-1-2#Column.AE.AESEV> ;
  cdiscs:about <http://rdf.cdisc.org/std/sdtmig-3-1-2#Column.AE.AETOXGR> ;
  cdiscs:assumptionText "d. In studies using toxicity grade according to a standard toxicity scale such as Common Terminology Criteria for Adverse Events v3.0 (CTCAE), published by the NCI (National Cancer Institute) at http://ctep.cancer.gov/reporting/ctc.html)), AETOXGR should be used instead of AESEV. In most cases, either AESEV or AETOXGR is populated but not both. There may be cases when a sponsor may need to populate both variables. The sponsor is expected to provide the dictionary name and version used to map the terms utilizing the define.xml external codelist attributes."^^xsd:string ;
  cdiscs:partOfSection <http://rdf.cdisc.org/std/sdtmig-3-1-2#Section.AE.006> ;
.
<http://rdf.cdisc.org/std/sdtmig-3-1-2#Assumption.AE.006.005>
  rdf:type cdiscs:Assumption ;
  mms:ordinal "19"^^xsd:positiveInteger ;
  cdiscs:about <http://rdf.cdisc.org/std/sdtmig-3-1-2#Dataset.AE> ;
  cdiscs:assumptionText """The structure of the AE domain is one record per adverse event per subject. It is the sponsor's responsibility to define an event. This definition may vary based on the sponsor's requirements for characterizing and reporting product safety and is usually described in the protocol. For example, the sponsor may submit one record that covers an adverse event from start to finish. Alternatively, if there is a need to evaluate AEs at a more granular level, a sponsor may submit a new record when severity, causality, or seriousness changes or worsens. By submitting these individual records, the sponsor indicates that each is considered to represent a different event. The submission dataset structure may differ from the structure at the time of collection. For example, a sponsor might collect data at each visit in order to meet operational needs, but submit records that summarize the event and contain the highest level of severity, causality, seriousness, etc. Examples of dataset structure:
1. One record per adverse event per subject for each unique event. Multiple adverse event records reported by the investigator are submitted as summary records \"collapsed\" to the highest level of severity, causality, seriousness, and the final outcome.
2. One record per adverse event per subject. Changes over time in severity, causality, or seriousness are submitted as separate events. Alternatively, these changes may be submitted in a separate dataset based on the Findings About Events and Interventions model (see Section 6.4).
3. Other approaches may also be reasonable as long as they meet the sponsor's safety evaluation requirements and each submitted record represents a unique event. The domain-level metadata (See Section 3.2) should clarify the structure of the dataset."""^^xsd:string ;
  cdiscs:partOfSection <http://rdf.cdisc.org/std/sdtmig-3-1-2#Section.AE.006> ;
.
<http://rdf.cdisc.org/std/sdtmig-3-1-2#Assumption.AE.007.001>
  rdf:type cdiscs:Assumption ;
  mms:ordinal "20"^^xsd:positiveInteger ;
  cdiscs:about <http://rdf.cdisc.org/std/sdtmig-3-1-2#Dataset.AE> ;
  cdiscs:assumptionText "When EPOCH is included in the Adverse Event domain, it should be the epoch of the start of the adverse event. In other words, it should be based on AESTDTC, rather than AEENDTC. The computational method for EPOCH in the define.xml should describe any assumptions made to handle cases where an adverse event starts on the same day that a subject starts an epoch, if AESTDTC and SESTDTC are not captured with enough precision to determine the epoch of the onset of the adverse event unambiguously. Similarly, if TAETORD is included in the Adverse Events domain, it should be the value for the start of the adverse event, and the computational method in the define.xml should describe any assumptions."^^xsd:string ;
  cdiscs:partOfSection <http://rdf.cdisc.org/std/sdtmig-3-1-2#Section.AE.007> ;
.
<http://rdf.cdisc.org/std/sdtmig-3-1-2#Assumption.AE.008.001>
  rdf:type cdiscs:Assumption ;
  mms:ordinal "21"^^xsd:positiveInteger ;
  cdiscs:about <http://rdf.cdisc.org/std/sdtmig-3-1-2#Assumption.AE.004.002> ;
  cdiscs:about <http://rdf.cdisc.org/std/sdtmig-3-1-2#Dataset.AE> ;
  cdiscs:assumptionText "The following Qualifiers would not be used in AE: --OCCUR, --STAT, and --REASND. They are the only Qualifiers from the SDTM Events Class not in the AE domain. They are not permitted because the AE domain contains only records for adverse events that actually occurred. See Assumption 4b above for information on how to deal with negative responses or missing responses to probing questions for pre-specified adverse events."^^xsd:string ;
  cdiscs:partOfSection <http://rdf.cdisc.org/std/sdtmig-3-1-2#Section.AE.008> ;
.
<http://rdf.cdisc.org/std/sdtmig-3-1-2#Assumption.CE.000.001>
  rdf:type cdiscs:Assumption ;
  mms:ordinal "1"^^xsd:positiveInteger ;
  cdiscs:about <http://rdf.cdisc.org/std/sdtmig-3-1-2#Dataset.CE> ;
  cdiscs:assumptionText "The intent of the domain model is to capture clinical events of interest that would not be classified as adverse events. The data may be data about episodes of symptoms of the disease under study (often known as signs and symptoms), or about events that do not constitute adverse events in themselves, though they might lead to the identification of an adverse event. For example, in a study of an investigational treatment for migraine headaches, migraine headaches may not be considered to be adverse events per protocol. The occurrence of migraines or associated signs and symptoms might be reported in CE. Other studies might track the occurrence of specific events as efficacy endpoints. For example, in a study of an investigational treatment for prevention of ischemic stroke, all occurrences of TIA, stroke and death might be captured as clinical events and assessed as to whether they meet endpoint criteria. Note that other information about these events may also be reported in other datasets. For example, the event leading to death would be reported in AE and death would also be a reason for study discontinuation in DS."^^xsd:string ;
  cdiscs:partOfSection <http://rdf.cdisc.org/std/sdtmig-3-1-2#Section.CE.000> ;
.
<http://rdf.cdisc.org/std/sdtmig-3-1-2#Assumption.CE.000.002>
  rdf:type cdiscs:Assumption ;
  mms:ordinal "2"^^xsd:positiveInteger ;
  cdiscs:about <http://rdf.cdisc.org/std/sdtmig-3-1-2#Column.CE.CEOCCUR> ;
  cdiscs:about <http://rdf.cdisc.org/std/sdtmig-3-1-2#Column.CE.CEPRESP> ;
  cdiscs:about <http://rdf.cdisc.org/std/sdtmig-3-1-2#Column.CE.CESTAT> ;
  cdiscs:assumptionText """CEOCCUR and CEPRESP are used together to indicate whether the event in CETERM was pre-specified, and whether it occurred. CEPRESP can be used to separate records that correspond to probing questions for pre-specified events from those that represent spontaneously reported events, while CEOCCUR contains the responses to such questions. The table below shows how these variables are populated in various situations.
Spontaneously reported event occurred
CEPRESP is null
CEOCCUR is null
CESTAT is null
Pre-specified event occurred
CEPRESP is Y
CEOCCUR is Y
CESTAT is null
Pre-specified event did not occur
CEPRESP is Y
CEOCCUR is N
CESTAT is null
Pre-specified event has no response
CEPRESP is Y
CEOCCUR is null
CESTAT is NOT DONE"""^^xsd:string ;
  cdiscs:partOfSection <http://rdf.cdisc.org/std/sdtmig-3-1-2#Section.CE.000> ;
.
<http://rdf.cdisc.org/std/sdtmig-3-1-2#Assumption.CE.000.003>
  rdf:type cdiscs:Assumption ;
  mms:ordinal "3"^^xsd:positiveInteger ;
  cdiscs:about <http://rdf.cdisc.org/std/sdtmig-3-1-2#Dataset.CE> ;
  cdiscs:assumptionText "The collection of write-in events on a Clinical Events CRF should be considered with caution. Sponsors must ensure that all adverse events are recorded in the AE domain."^^xsd:string ;
  cdiscs:partOfSection <http://rdf.cdisc.org/std/sdtmig-3-1-2#Section.CE.000> ;
.
<http://rdf.cdisc.org/std/sdtmig-3-1-2#Assumption.CE.000.004.001>
  rdf:type cdiscs:Assumption ;
  mms:ordinal "4"^^xsd:positiveInteger ;
  cdiscs:about <http://rdf.cdisc.org/std/sdtmig-3-1-2#Column.CE.CEENRF> ;
  cdiscs:about <http://rdf.cdisc.org/std/sdtmig-3-1-2#Column.CE.CEENRTPT> ;
  cdiscs:about <http://rdf.cdisc.org/std/sdtmig-3-1-2#Column.CE.CEENTPT> ;
  cdiscs:about <http://rdf.cdisc.org/std/sdtmig-3-1-2#Column.CE.CESTRF> ;
  cdiscs:about <http://rdf.cdisc.org/std/sdtmig-3-1-2#Column.CE.CESTRTPT> ;
  cdiscs:about <http://rdf.cdisc.org/std/sdtmig-3-1-2#Column.CE.CESTTPT> ;
  cdiscs:assumptionText "Relative timing assessments \"Prior\" or \"Ongoing\" are common in the collection of Clinical Event information. CESTRF or CEENRF may be used when this timing assessment is relative to the study reference period for the subject represented in the Demographics dataset (RFENDTC). CESTRTPT with CESTTPT, and/or CEENRTPT with CEENTPT may be used when \"Prior\" or \"Ongoing\" are relative to specific dates other than the start and end of the study reference period. See Section 4.1.4.7."^^xsd:string ;
  cdiscs:partOfSection <http://rdf.cdisc.org/std/sdtmig-3-1-2#Section.CE.000> ;
.
<http://rdf.cdisc.org/std/sdtmig-3-1-2#Assumption.CE.000.004.002>
  rdf:type cdiscs:Assumption ;
  mms:ordinal "5"^^xsd:positiveInteger ;
  cdiscs:about <http://rdf.cdisc.org/std/sdtmig-3-1-2#Dataset.CE> ;
  cdiscs:assumptionText "Additional Timing variables may be used when appropriate."^^xsd:string ;
  cdiscs:partOfSection <http://rdf.cdisc.org/std/sdtmig-3-1-2#Section.CE.000> ;
.
<http://rdf.cdisc.org/std/sdtmig-3-1-2#Assumption.CE.000.005>
  rdf:type cdiscs:Assumption ;
  mms:ordinal "6"^^xsd:positiveInteger ;
  cdiscs:about <http://rdf.cdisc.org/std/sdtmig-3-1-2#Dataset.CE> ;
  cdiscs:assumptionText "Additional Events Qualifiers, the following Qualifiers would generally not be used in CE: --SER, --ACN, --ACNOTH, --REL, --RELNST, --OUT, --SCAN, --SCONG, --SDISAB, --SDTH, --SHOSP, --SLIFE, --SOD, --SMIE."^^xsd:string ;
  cdiscs:partOfSection <http://rdf.cdisc.org/std/sdtmig-3-1-2#Section.CE.000> ;
.
<http://rdf.cdisc.org/std/sdtmig-3-1-2#Assumption.CM.001.001>
  rdf:type cdiscs:Assumption ;
  mms:ordinal "1"^^xsd:positiveInteger ;
  cdiscs:about <http://rdf.cdisc.org/std/sdtmig-3-1-2#Dataset.CM> ;
  cdiscs:assumptionText "a. CRF data that captures the Concomitant and Prior Medications/Therapies used by the subject. Examples are the Concomitant Medications/Therapies given on an as-needed basis and the usual and background medications/therapies given for a condition."^^xsd:string ;
  cdiscs:partOfSection <http://rdf.cdisc.org/std/sdtmig-3-1-2#Section.CM.001> ;
.
<http://rdf.cdisc.org/std/sdtmig-3-1-2#Assumption.CM.001.002>
  rdf:type cdiscs:Assumption ;
  mms:ordinal "2"^^xsd:positiveInteger ;
  cdiscs:about <http://rdf.cdisc.org/std/sdtmig-3-1-2#Dataset.CM> ;
  cdiscs:assumptionText "b. The structure of the CM domain is one record per medication intervention episode, constant-dosing interval, or pre-specified medication assessment per subject. It is the sponsor's responsibility to define an intervention episode. This definition may vary based on the sponsor's requirements for review and analysis. The submission dataset structure may differ from the structure used for collection. One common approach is to submit a new record when there is a change in the dosing regimen. Another approach is to collapse all records for a medication to a summary level with either a dose range or the highest dose level. Other approaches may also be reasonable as long as they meet the sponsor's evaluation requirements."^^xsd:string ;
  cdiscs:partOfSection <http://rdf.cdisc.org/std/sdtmig-3-1-2#Section.CM.001> ;
.
<http://rdf.cdisc.org/std/sdtmig-3-1-2#Assumption.CM.002.001>
  rdf:type cdiscs:Assumption ;
  mms:ordinal "3"^^xsd:positiveInteger ;
  cdiscs:about <http://rdf.cdisc.org/std/sdtmig-3-1-2#Column.CM.CMTRT> ;
  cdiscs:assumptionText "a. CMTRT captures the name of the Concomitant Medications/Therapy and it is the topic variable. It is a required variable and must have a value. CMTRT should only include the medication/therapy name and should not include dosage, formulation, or other qualifying information. For example, \"ASPIRIN 100MG TABLET\" is not a valid value for CMTRT. This example should be expressed as CMTRT= \"ASPIRIN\", CMDOSE= \"100\", CMDOSU= \"MG\", and CMDOSFRM= \"TABLET\"."^^xsd:string ;
  cdiscs:partOfSection <http://rdf.cdisc.org/std/sdtmig-3-1-2#Section.CM.002> ;
.
<http://rdf.cdisc.org/std/sdtmig-3-1-2#Assumption.CM.002.002>
  rdf:type cdiscs:Assumption ;
  mms:ordinal "4"^^xsd:positiveInteger ;
  cdiscs:about <http://rdf.cdisc.org/std/sdtmig-3-1-2#Column.CM.CMMODIFY> ;
  cdiscs:assumptionText "b. CMMODIFY should be included if the sponsor's procedure permits modification of a verbatim term for coding."^^xsd:string ;
  cdiscs:partOfSection <http://rdf.cdisc.org/std/sdtmig-3-1-2#Section.CM.002> ;
.
<http://rdf.cdisc.org/std/sdtmig-3-1-2#Assumption.CM.002.003>
  rdf:type cdiscs:Assumption ;
  mms:ordinal "5"^^xsd:positiveInteger ;
  cdiscs:about <http://rdf.cdisc.org/std/sdtmig-3-1-2#Column.CM.CMDECOD> ;
  cdiscs:about <http://rdf.cdisc.org/std/sdtmig-3-1-2#Column.CM.CMMODIFY> ;
  cdiscs:about <http://rdf.cdisc.org/std/sdtmig-3-1-2#Column.CM.CMTRT> ;
  cdiscs:assumptionText "c. CMDECOD is the standardized medication/therapy term derived by the sponsor from the coding dictionary. It is expected that the reported term (CMTRT) or the modified term (CMMODIFY) will be coded using a standard dictionary. The sponsor is expected to provide the dictionary name and version used to map the terms utilizing the define.xml external codelist attributes."^^xsd:string ;
  cdiscs:partOfSection <http://rdf.cdisc.org/std/sdtmig-3-1-2#Section.CM.002> ;
.
<http://rdf.cdisc.org/std/sdtmig-3-1-2#Assumption.CM.003.001>
  rdf:type cdiscs:Assumption ;
  mms:ordinal "6"^^xsd:positiveInteger ;
  cdiscs:about <http://rdf.cdisc.org/std/sdtmig-3-1-2#Column.CM.CMOCCUR> ;
  cdiscs:about <http://rdf.cdisc.org/std/sdtmig-3-1-2#Column.CM.CMPRESP> ;
  cdiscs:about <http://rdf.cdisc.org/std/sdtmig-3-1-2#Column.CM.CMTRT> ;
  cdiscs:assumptionText "a. Information on concomitant medications is generally collected in two different ways, either by recording free text or using a pre-specified list of terms. Since the solicitation of information on specific concomitant medications may affect the frequency at which they are reported, the fact that a specific medication was solicited may be of interest to reviewers. CMPRESP and CMOCCUR are used together to indicate whether the intervention in CMTRT was pre-specified and whether it occurred , respectively."^^xsd:string ;
  cdiscs:partOfSection <http://rdf.cdisc.org/std/sdtmig-3-1-2#Section.CM.003> ;
.
<http://rdf.cdisc.org/std/sdtmig-3-1-2#Assumption.CM.003.002>
  rdf:type cdiscs:Assumption ;
  mms:ordinal "7"^^xsd:positiveInteger ;
  cdiscs:about <http://rdf.cdisc.org/std/sdtmig-3-1-2#Column.CM.CMOCCUR> ;
  cdiscs:assumptionText "b. CMOCCUR is used to indicate whether a pre-specified medication was used. A value of Y indicates that the medication was used and N indicates that it was not."^^xsd:string ;
  cdiscs:partOfSection <http://rdf.cdisc.org/std/sdtmig-3-1-2#Section.CM.003> ;
.
<http://rdf.cdisc.org/std/sdtmig-3-1-2#Assumption.CM.003.003>
  rdf:type cdiscs:Assumption ;
  mms:ordinal "8"^^xsd:positiveInteger ;
  cdiscs:about <http://rdf.cdisc.org/std/sdtmig-3-1-2#Column.CM.CMOCCUR> ;
  cdiscs:about <http://rdf.cdisc.org/std/sdtmig-3-1-2#Column.CM.CMPRESP> ;
  cdiscs:about <http://rdf.cdisc.org/std/sdtmig-3-1-2#Column.CM.CMREASND> ;
  cdiscs:about <http://rdf.cdisc.org/std/sdtmig-3-1-2#Column.CM.CMSTAT> ;
  cdiscs:assumptionText "c. If a medication was not pre-specified the value of CMOCCUR should be null. CMPRESP and CMOCCUR is a permissible fields and may be omitted from the dataset if all medications were collected as free text. Values of CMOCCUR may also be null for pre-specified medications if no Y/N response was collected; in this case, CMSTAT = NOT DONE, and CMREASND could be used to describe the reason the answer was missing."^^xsd:string ;
  cdiscs:partOfSection <http://rdf.cdisc.org/std/sdtmig-3-1-2#Section.CM.003> ;
.
<http://rdf.cdisc.org/std/sdtmig-3-1-2#Assumption.CM.004.001>
  rdf:type cdiscs:Assumption ;
  mms:ordinal "9"^^xsd:positiveInteger ;
  cdiscs:about <http://rdf.cdisc.org/std/sdtmig-3-1-2#Column.CM.CMENRTPT> ;
  cdiscs:about <http://rdf.cdisc.org/std/sdtmig-3-1-2#Column.CM.CMENTPT> ;
  cdiscs:about <http://rdf.cdisc.org/std/sdtmig-3-1-2#Column.CM.CMSTRTPT> ;
  cdiscs:about <http://rdf.cdisc.org/std/sdtmig-3-1-2#Column.CM.CMSTTPT> ;
  cdiscs:assumptionText "a. CMSTRTPT, CMSTTPT, CMENRTPT and CMENTPT may be populated as necessary to indicate when a medication was used relative to specified time points. For example, assume a subject uses birth control medication. The subject has used the same medication for many years and continues to do so. The date the subject began using the medication (or at least a partial date) would be stored in CMSTDTC. CMENDTC is null since the end date is unknown (it hasn't happened yet). This fact can be recorded by setting CMENTPT=\"2007-04-30\" (the date the assessment was made) and CMENRTPT=\"ONGOING\"."^^xsd:string ;
  cdiscs:partOfSection <http://rdf.cdisc.org/std/sdtmig-3-1-2#Section.CM.004> ;
.
<http://rdf.cdisc.org/std/sdtmig-3-1-2#Assumption.CM.005.001>
  rdf:type cdiscs:Assumption ;
  mms:ordinal "10"^^xsd:positiveInteger ;
  cdiscs:about <http://rdf.cdisc.org/std/sdtmig-3-1-2#Dataset.CM> ;
  cdiscs:assumptionText "a. Any additional Qualifiers from the Interventions Class may be added to this domain."^^xsd:string ;
  cdiscs:partOfSection <http://rdf.cdisc.org/std/sdtmig-3-1-2#Section.CM.005> ;
.
<http://rdf.cdisc.org/std/sdtmig-3-1-2#Assumption.CO.000.001>
  rdf:type cdiscs:Assumption ;
  mms:ordinal "1"^^xsd:positiveInteger ;
  cdiscs:about <http://rdf.cdisc.org/std/sdtmig-3-1-2#Dataset.CO> ;
  cdiscs:assumptionText "The Comments special-purpose domain provides a solution for submitting free-text comments related to data in one or more SDTM domains (as described in Section 8.5) or collected on a separate CRF page dedicated to comments. Comments are generally not responses to specific questions; instead, comments usually consist of voluntary, free-text or unsolicited observations."^^xsd:string ;
  cdiscs:partOfSection <http://rdf.cdisc.org/std/sdtmig-3-1-2#Section.CO.000> ;
.
<http://rdf.cdisc.org/std/sdtmig-3-1-2#Assumption.CO.000.002.001>
  rdf:type cdiscs:Assumption ;
  mms:ordinal "2"^^xsd:positiveInteger ;
  cdiscs:about <http://rdf.cdisc.org/std/sdtmig-3-1-2#Column.CO.CODTC> ;
  cdiscs:about <http://rdf.cdisc.org/std/sdtmig-3-1-2#Column.CO.IDVAR> ;
  cdiscs:about <http://rdf.cdisc.org/std/sdtmig-3-1-2#Column.CO.IDVARVAL> ;
  cdiscs:about <http://rdf.cdisc.org/std/sdtmig-3-1-2#Column.CO.RDOMAIN> ;
  cdiscs:assumptionText "a. Those (comments) unrelated to a specific domain or parent record(s), in which case the values of the variables RDOMAIN, IDVAR and IDVARVAL are null. CODTC should be populated if captured. See example, Rows 1."^^xsd:string ;
  cdiscs:partOfSection <http://rdf.cdisc.org/std/sdtmig-3-1-2#Section.CO.000> ;
.
<http://rdf.cdisc.org/std/sdtmig-3-1-2#Assumption.CO.000.002.002>
  rdf:type cdiscs:Assumption ;
  mms:ordinal "3"^^xsd:positiveInteger ;
  cdiscs:about <http://rdf.cdisc.org/std/sdtmig-3-1-2#Column.CO.CODTC> ;
  cdiscs:about <http://rdf.cdisc.org/std/sdtmig-3-1-2#Column.CO.IDVAR> ;
  cdiscs:about <http://rdf.cdisc.org/std/sdtmig-3-1-2#Column.CO.IDVARVAL> ;
  cdiscs:about <http://rdf.cdisc.org/std/sdtmig-3-1-2#Column.CO.RDOMAIN> ;
  cdiscs:assumptionText "b. Those (comments) related to a domain but not to specific parent record(s), in which case the value of the variable RDOMAIN is set to the DOMAIN code of the parent domain and the variables IDVAR and IDVARVAL are null. CODTC should be populated if captured. See example, Row 2."^^xsd:string ;
  cdiscs:partOfSection <http://rdf.cdisc.org/std/sdtmig-3-1-2#Section.CO.000> ;
.
<http://rdf.cdisc.org/std/sdtmig-3-1-2#Assumption.CO.000.002.003>
  rdf:type cdiscs:Assumption ;
  mms:ordinal "4"^^xsd:positiveInteger ;
  cdiscs:about <http://rdf.cdisc.org/std/sdtmig-3-1-2#Column.CO.CODTC> ;
  cdiscs:about <http://rdf.cdisc.org/std/sdtmig-3-1-2#Column.CO.IDVAR> ;
  cdiscs:about <http://rdf.cdisc.org/std/sdtmig-3-1-2#Column.CO.IDVARVAL> ;
  cdiscs:about <http://rdf.cdisc.org/std/sdtmig-3-1-2#Column.CO.RDOMAIN> ;
  cdiscs:assumptionText "c. Those (comments) related to a specific parent record or group of parent records, in which case the value of the variable RDOMAIN is set to the DOMAIN code of the parent record(s) and the variables IDVAR and IDVARVAL are populated with the key variable name and value of the parent record(s). Assumptions for populating IDVAR and IDVARVAL are further described in Section 8.5. CODTC should be null because the timing of the parent record(s) is inherited by the comment record. See example, Rows 3-5."^^xsd:string ;
  cdiscs:partOfSection <http://rdf.cdisc.org/std/sdtmig-3-1-2#Section.CO.000> ;
.
<http://rdf.cdisc.org/std/sdtmig-3-1-2#Assumption.CO.000.003>
  rdf:type cdiscs:Assumption ;
  mms:ordinal "5"^^xsd:positiveInteger ;
  cdiscs:about <http://rdf.cdisc.org/std/sdtmig-3-1-2#Column.CO.COVAL> ;
  cdiscs:assumptionText "When the comment text is longer than 200 characters, the first 200 characters of the comment will be in COVAL, the next 200 in COVAL1, and additional text stored as needed to COVALn. See example, Rows 3-4."^^xsd:string ;
  cdiscs:partOfSection <http://rdf.cdisc.org/std/sdtmig-3-1-2#Section.CO.000> ;
.
<http://rdf.cdisc.org/std/sdtmig-3-1-2#Assumption.CO.000.004>
  rdf:type cdiscs:Assumption ;
  mms:ordinal "6"^^xsd:positiveInteger ;
  cdiscs:about <http://rdf.cdisc.org/std/sdtmig-3-1-2#Column.CO.COREF> ;
  cdiscs:about <http://rdf.cdisc.org/std/sdtmig-3-1-2#Column.CO.IDVAR> ;
  cdiscs:about <http://rdf.cdisc.org/std/sdtmig-3-1-2#Column.CO.IDVARVAL> ;
  cdiscs:about <http://rdf.cdisc.org/std/sdtmig-3-1-2#Dataset.CO> ;
  cdiscs:assumptionText "Additional information about how to relate comments to parent SDTM records is provided in Section 8.5."^^xsd:string ;
  cdiscs:partOfSection <http://rdf.cdisc.org/std/sdtmig-3-1-2#Section.CO.000> ;
.
<http://rdf.cdisc.org/std/sdtmig-3-1-2#Assumption.CO.000.005>
  rdf:type cdiscs:Assumption ;
  mms:ordinal "7"^^xsd:positiveInteger ;
  cdiscs:about <http://rdf.cdisc.org/std/sdtmig-3-1-2#Column.CO.COREF> ;
  cdiscs:assumptionText "The variable COREF may be null unless it is used to identify the source of the comment. See example, Rows 1 and 5."^^xsd:string ;
  cdiscs:partOfSection <http://rdf.cdisc.org/std/sdtmig-3-1-2#Section.CO.000> ;
.
<http://rdf.cdisc.org/std/sdtmig-3-1-2#Assumption.CO.000.006>
  rdf:type cdiscs:Assumption ;
  mms:ordinal "8"^^xsd:positiveInteger ;
  cdiscs:about <http://rdf.cdisc.org/std/sdtmig-3-1-2#Dataset.CO> ;
  cdiscs:assumptionText "Only following Identifier and Timing variables that are permissible and may be added as appropriate when comments are not related to other domain records: COGRPID, COREFID, COSPID, VISIT, VISITNUM, VISITDY, TAETORD, CODY, COTPT, COTPTNUM, COELTM, COTPTREF, CORFTDTC."^^xsd:string ;
  cdiscs:partOfSection <http://rdf.cdisc.org/std/sdtmig-3-1-2#Section.CO.000> ;
.
<http://rdf.cdisc.org/std/sdtmig-3-1-2#Assumption.DA.000.001>
  rdf:type cdiscs:Assumption ;
  mms:ordinal "1"^^xsd:positiveInteger ;
  cdiscs:about <http://rdf.cdisc.org/std/sdtmig-3-1-2#Dataset.DA> ;
  cdiscs:assumptionText "Definition: Drug Accountability is for data regarding the accountability of study drug, such as information on receipt, dispensing, return, and packaging."^^xsd:string ;
  cdiscs:partOfSection <http://rdf.cdisc.org/std/sdtmig-3-1-2#Section.DA.000> ;
.
<http://rdf.cdisc.org/std/sdtmig-3-1-2#Assumption.DA.000.002>
  rdf:type cdiscs:Assumption ;
  mms:ordinal "2"^^xsd:positiveInteger ;
  cdiscs:about <http://rdf.cdisc.org/std/sdtmig-3-1-2#Column.DA.DACAT> ;
  cdiscs:assumptionText "One way a sponsor may choose to distinguish between different types of medications (e.g., study medication, rescue medication, run-in medication) is to use DACAT."^^xsd:string ;
  cdiscs:partOfSection <http://rdf.cdisc.org/std/sdtmig-3-1-2#Section.DA.000> ;
.
<http://rdf.cdisc.org/std/sdtmig-3-1-2#Assumption.DA.000.003>
  rdf:type cdiscs:Assumption ;
  mms:ordinal "3"^^xsd:positiveInteger ;
  cdiscs:about <http://rdf.cdisc.org/std/sdtmig-3-1-2#Column.DA.DAREFID> ;
  cdiscs:about <http://rdf.cdisc.org/std/sdtmig-3-1-2#Column.DA.DASPID> ;
  cdiscs:assumptionText "DAREFID and DASPID are both available for capturing label information."^^xsd:string ;
  cdiscs:partOfSection <http://rdf.cdisc.org/std/sdtmig-3-1-2#Section.DA.000> ;
.
<http://rdf.cdisc.org/std/sdtmig-3-1-2#Assumption.DA.000.004>
  rdf:type cdiscs:Assumption ;
  mms:ordinal "4"^^xsd:positiveInteger ;
  cdiscs:about <http://rdf.cdisc.org/std/sdtmig-3-1-2#Dataset.DA> ;
  cdiscs:assumptionText "The following Qualifiers would not generally be used in DA: --MODIFY, --POS, --BODSYS, --ORNRLO, --ORNRHI, --STNRLO, --STNRHI, --STNRC, --NRIND, --RESCAT, --XFN, --NAM, --LOINC, --SPEC, --SPCCND, --METHOD, --BLFL, --FAST, --DRVRL, --TOX, --TOXGR, --SEV."^^xsd:string ;
  cdiscs:partOfSection <http://rdf.cdisc.org/std/sdtmig-3-1-2#Section.DA.000> ;
.
<http://rdf.cdisc.org/std/sdtmig-3-1-2#Assumption.DM.000.001>
  rdf:type cdiscs:Assumption ;
  mms:ordinal "1"^^xsd:positiveInteger ;
  cdiscs:about <http://rdf.cdisc.org/std/sdtmig-3-1-2#Column.DM.INVID> ;
  cdiscs:about <http://rdf.cdisc.org/std/sdtmig-3-1-2#Column.DM.INVNAM> ;
  cdiscs:about <http://rdf.cdisc.org/std/sdtmig-3-1-2#Column.DM.SITEID> ;
  cdiscs:assumptionText "Investigator and site identification: Companies use different methods to distinguish sites and investigators. CDISC assumes that SITEID will always be present, with INVID and INVNAM used as necessary. This should be done consistently and the meaning of the variable made clear in the define.xml."^^xsd:string ;
  cdiscs:partOfSection <http://rdf.cdisc.org/std/sdtmig-3-1-2#Section.DM.000> ;
.
<http://rdf.cdisc.org/std/sdtmig-3-1-2#Assumption.DM.000.002>
  rdf:type cdiscs:Assumption ;
  mms:ordinal "2"^^xsd:positiveInteger ;
  cdiscs:about <http://rdf.cdisc.org/std/sdtmig-3-1-2#Column.DM.SITEID> ;
  cdiscs:about <http://rdf.cdisc.org/std/sdtmig-3-1-2#Column.DM.SUBJID> ;
  cdiscs:about <http://rdf.cdisc.org/std/sdtmig-3-1-2#Column.DM.USUBJID> ;
  cdiscs:assumptionText "Every subject in a study must have a subject identifier (SUBJID). In some cases a subject may participate in more than one study. To identify a subject uniquely across all studies for all applications or submissions involving the product, a unique identifier (USUBJID) must be included in all datasets. Subjects occasionally change sites during the course of a clinical trial. The sponsor must decide how to populate variables such as USUBJID, SUBJID and SITEID based on their operational and analysis needs, but only one DM record should be submitted for the subject. The Supplemental Qualifiers dataset may be used if appropriate to provide additional information."^^xsd:string ;
  cdiscs:partOfSection <http://rdf.cdisc.org/std/sdtmig-3-1-2#Section.DM.000> ;
.
<http://rdf.cdisc.org/std/sdtmig-3-1-2#Assumption.DM.000.003>
  rdf:type cdiscs:Assumption ;
  mms:ordinal "3"^^xsd:positiveInteger ;
  cdiscs:about <http://rdf.cdisc.org/std/sdtmig-3-1-2#Dataset.DM> ;
  cdiscs:assumptionText "Concerns for subject privacy suggest caution regarding the collection of variables like BRTHDTC. This variable is included in the Demographics model in the event that a sponsor intends to submit it; however, sponsors should follow regulatory guidelines and guidance as appropriate."^^xsd:string ;
  cdiscs:partOfSection <http://rdf.cdisc.org/std/sdtmig-3-1-2#Section.DM.000> ;
.
<http://rdf.cdisc.org/std/sdtmig-3-1-2#Assumption.DM.000.004>
  rdf:type cdiscs:Assumption ;
  mms:ordinal "4"^^xsd:positiveInteger ;
  cdiscs:about <http://rdf.cdisc.org/std/sdtmig-3-1-2#Column.DM.ARM> ;
  cdiscs:about <http://rdf.cdisc.org/std/sdtmig-3-1-2#Column.DM.ARMCD> ;
  cdiscs:assumptionText """The values of ARM and ARMCD in DM must match entries in the Trial Arms (TA) dataset, except for subjects who were not fully assigned to an Arm. Subjects who did not receive the treatments to which they were assigned will still have the values of ARM and ARMCD to which they were assigned. SE/DM Examples 1 and 2 in section 5.3.1.2 show examples of subjects whose actual treatment did not match their planned treatment.

Some subjects may leave the trial before they can be assigned to an Arm, or, in the case of trials where Arm is assigned by two or more successive allocation processes, may leave before the last of these processes. Such subjects will not be assigned to one of the planned Arms described in the Trial Arms dataset, and must have special values of ARM and ARMCD assigned."""^^xsd:string ;
  cdiscs:partOfSection <http://rdf.cdisc.org/std/sdtmig-3-1-2#Section.DM.000> ;
.
<http://rdf.cdisc.org/std/sdtmig-3-1-2#Assumption.DM.000.004.001>
  rdf:type cdiscs:Assumption ;
  mms:ordinal "5"^^xsd:positiveInteger ;
  cdiscs:about <http://rdf.cdisc.org/std/sdtmig-3-1-2#Column.DM.ARM> ;
  cdiscs:about <http://rdf.cdisc.org/std/sdtmig-3-1-2#Column.DM.ARMCD> ;
  cdiscs:assumptionText "Data for screen failure subjects, if submitted, should be included in the Demographics dataset, with ARMCD = \"SCRNFAIL\" and ARM = \"Screen Failure\". Sponsors may include a record in the Disposition dataset indicating when the screen failure event occurred. DM/SE Example 6 shows an example of data submitted for a screen failure subject."^^xsd:string ;
  cdiscs:partOfSection <http://rdf.cdisc.org/std/sdtmig-3-1-2#Section.DM.000> ;
.
<http://rdf.cdisc.org/std/sdtmig-3-1-2#Assumption.DM.000.004.002>
  rdf:type cdiscs:Assumption ;
  mms:ordinal "6"^^xsd:positiveInteger ;
  cdiscs:about <http://rdf.cdisc.org/std/sdtmig-3-1-2#Column.DM.ARM> ;
  cdiscs:about <http://rdf.cdisc.org/std/sdtmig-3-1-2#Column.DM.ARMCD> ;
  cdiscs:assumptionText "Some trial designs include Elements after screening but before Arm assignments are made, and so may have subjects who are not screen failures, but are not assigned to an Arm. Subjects withdrawn from a trial before assignment to an Arm, if they are not screen failures, should have ARMCD = \"NOTASSGN\" and ARM = \"Not Assigned\". Example Trial 1 in Section 7.2.3.1, which includes a screening Epoch and a run-in Epoch before randomization, is an example of such a trial; data for a subject who passed screening but was not randomized in this trial are shown in DM/SE Example 6."^^xsd:string ;
  cdiscs:partOfSection <http://rdf.cdisc.org/std/sdtmig-3-1-2#Section.DM.000> ;
.
<http://rdf.cdisc.org/std/sdtmig-3-1-2#Assumption.DM.000.004.003>
  rdf:type cdiscs:Assumption ;
  mms:ordinal "7"^^xsd:positiveInteger ;
  cdiscs:about <http://rdf.cdisc.org/std/sdtmig-3-1-2#Column.DM.ARM> ;
  cdiscs:about <http://rdf.cdisc.org/std/sdtmig-3-1-2#Column.DM.ARMCD> ;
  cdiscs:assumptionText "In trials where Arm assignment is done by means of two or more allocation processes at separate points in time, subjects who drop out after the first allocation process but before the last allocation process, should be assigned values of ARMCD that reflect only the allocation processes they underwent. Example Trial 3, Section 7.2.3.3, is such a trial. DM/SE Example 7 shows sample data for subjects in this trial."^^xsd:string ;
  cdiscs:partOfSection <http://rdf.cdisc.org/std/sdtmig-3-1-2#Section.DM.000> ;
.
<http://rdf.cdisc.org/std/sdtmig-3-1-2#Assumption.DM.000.005>
  rdf:type cdiscs:Assumption ;
  mms:ordinal "8"^^xsd:positiveInteger ;
  cdiscs:about <http://rdf.cdisc.org/std/sdtmig-3-1-2#Dataset.DM> ;
  cdiscs:assumptionText "When study population flags are included in SDTM, they are treated as Supplemental Qualifiers (see Section 8.4) to DM and placed in the SUPPDM dataset. Controlled terms for these subject-level population flags, (e.g., COMPLT, SAFETY, ITT and PPROT) are listed in Appendix C5. See ICH E9 for more information and definitions. Note that the ADaM subject-level analysis dataset (ADSL) includes population flags; consult the ADaM Implementation Guide for more information about these variables."^^xsd:string ;
  cdiscs:partOfSection <http://rdf.cdisc.org/std/sdtmig-3-1-2#Section.DM.000> ;
.
<http://rdf.cdisc.org/std/sdtmig-3-1-2#Assumption.DM.000.006>
  rdf:type cdiscs:Assumption ;
  mms:ordinal "9"^^xsd:positiveInteger ;
  cdiscs:about <http://rdf.cdisc.org/std/sdtmig-3-1-2#Column.DM.RACE> ;
  cdiscs:assumptionText "Submission of multiple race responses should be represented in the Demographics domain and Supplemental Qualifiers (SUPPDM) dataset as described in assumption 4.1.2.8.3, Multiple Responses for a Non-Result Qualifier. If multiple races are collected then the value of RACE should be \"MULTIPLE\" and the additional information will be included in the Supplemental Qualifiers dataset. Controlled terminology for RACE should be used in both DM and SUPPDM so that consistent values are available for summaries regardless of whether the data are found in a column or row. If multiple races were collected and one was designated as primary, RACE in DM should be the primary race and additional races should be reported in SUPPDM. When additional free text information is reported about subject's RACE using \"Other, Specify\", Sponsors should refer to Section 4.1.2.7.1. If the race was collected via an \"Other, Specify\" field and the sponsor chooses not to map the value as described in the current FDA guidance (see CDISC Notes for RACE) then the value of RACE should be \"OTHER\". If a subject refuses to provide race information, the value of RACE could be \"UNKNOWN\". Examples are provided below in Section 5.1.1.2."^^xsd:string ;
  cdiscs:partOfSection <http://rdf.cdisc.org/std/sdtmig-3-1-2#Section.DM.000> ;
.
<http://rdf.cdisc.org/std/sdtmig-3-1-2#Assumption.DM.000.007>
  rdf:type cdiscs:Assumption ;
  mms:ordinal "10"^^xsd:positiveInteger ;
  cdiscs:about <http://rdf.cdisc.org/std/sdtmig-3-1-2#Column.DM.BRTHDTC> ;
  cdiscs:about <http://rdf.cdisc.org/std/sdtmig-3-1-2#Column.DM.RFENDTC> ;
  cdiscs:about <http://rdf.cdisc.org/std/sdtmig-3-1-2#Column.DM.RFSTDTC> ;
  cdiscs:assumptionText "RFSTDTC, RFENDTC, and BRTHDTC represent date/time values, but they are considered to have a Record Qualifier role in DM. They are not considered to be Timing Variables because they are not intended for use in the general observation classes."^^xsd:string ;
  cdiscs:partOfSection <http://rdf.cdisc.org/std/sdtmig-3-1-2#Section.DM.000> ;
.
<http://rdf.cdisc.org/std/sdtmig-3-1-2#Assumption.DM.000.008>
  rdf:type cdiscs:Assumption ;
  mms:ordinal "11"^^xsd:positiveInteger ;
  cdiscs:about <http://rdf.cdisc.org/std/sdtmig-3-1-2#Dataset.DM> ;
  cdiscs:assumptionText "Additional Permissible Identifier, Qualifier and Timing Variables: Only the following Timing variables are permissible and may be added as appropriate: VISITNUM, VISIT, VISITDY. The Record Qualifier DMXFN (External File Name) is the only additional variable that may be added, which is adopted from the Findings general observation class, may also be used to refer to an external file, such as a patient narrative."^^xsd:string ;
  cdiscs:partOfSection <http://rdf.cdisc.org/std/sdtmig-3-1-2#Section.DM.000> ;
.
<http://rdf.cdisc.org/std/sdtmig-3-1-2#Assumption.DS.001.001>
  rdf:type cdiscs:Assumption ;
  mms:ordinal "1"^^xsd:positiveInteger ;
  cdiscs:about <http://rdf.cdisc.org/std/sdtmig-3-1-2#Dataset.DS> ;
  cdiscs:assumptionText "The Disposition dataset provides an accounting for all subjects who entered the study and may include protocol milestones, such as randomization, as well as the subject's completion status or reason for discontinuation for the entire study or each phase or segment of the study, including screening and post-treatment follow-up. Sponsors may choose which disposition events and milestones to submit for a study. See ICH E3, Section 10.1 for information about disposition events."^^xsd:string ;
  cdiscs:partOfSection <http://rdf.cdisc.org/std/sdtmig-3-1-2#Section.DS.001> ;
.
<http://rdf.cdisc.org/std/sdtmig-3-1-2#Assumption.DS.002.001>
  rdf:type cdiscs:Assumption ;
  mms:ordinal "2"^^xsd:positiveInteger ;
  cdiscs:about <http://rdf.cdisc.org/std/sdtmig-3-1-2#Column.DS.DSCAT> ;
  cdiscs:assumptionText "a. DSCAT is used to distinguish between disposition events, protocol milestones and other events. The controlled terminology for DSCAT consists of \"DISPOSITION EVENT\", \"PROTOCOL MILESTONE\", and \"OTHER EVENT\"."^^xsd:string ;
  cdiscs:partOfSection <http://rdf.cdisc.org/std/sdtmig-3-1-2#Section.DS.002> ;
.
<http://rdf.cdisc.org/std/sdtmig-3-1-2#Assumption.DS.002.002>
  rdf:type cdiscs:Assumption ;
  mms:ordinal "3"^^xsd:positiveInteger ;
  cdiscs:about <http://rdf.cdisc.org/std/sdtmig-3-1-2#Column.DS.DSCAT> ;
  cdiscs:assumptionText "b. A \"DISPOSITION EVENT\" describes whether a subject completed the study or portion of a study (Epoch) or the reason they did not complete. The subject's disposition is often described for each study Epoch (e.g., screening, initial treatment, washout, cross-over treatment, follow-up)."^^xsd:string ;
  cdiscs:partOfSection <http://rdf.cdisc.org/std/sdtmig-3-1-2#Section.DS.002> ;
.
<http://rdf.cdisc.org/std/sdtmig-3-1-2#Assumption.DS.002.003>
  rdf:type cdiscs:Assumption ;
  mms:ordinal "4"^^xsd:positiveInteger ;
  cdiscs:about <http://rdf.cdisc.org/std/sdtmig-3-1-2#Column.DS.DSCAT> ;
  cdiscs:assumptionText "c. A \"PROTOCOL MILESTONE\" is a protocol-specified, \"point-in-time\" event. The most common protocol milestones are \"INFORMED CONSENT OBTAINED\" and \"RANDOMIZED\"."^^xsd:string ;
  cdiscs:partOfSection <http://rdf.cdisc.org/std/sdtmig-3-1-2#Section.DS.002> ;
.
<http://rdf.cdisc.org/std/sdtmig-3-1-2#Assumption.DS.002.004>
  rdf:type cdiscs:Assumption ;
  mms:ordinal "5"^^xsd:positiveInteger ;
  cdiscs:about <http://rdf.cdisc.org/std/sdtmig-3-1-2#Column.DS.DSCAT> ;
  cdiscs:assumptionText "d. Other important events that occur during a trial, but are not driven by protocol requirements and are not captured in another Events or Interventions class dataset, are classified as \"OTHER EVENT\".  \"TREATMENT UNBLINDED\" is an example of \"OTHER EVENT.\""^^xsd:string ;
  cdiscs:partOfSection <http://rdf.cdisc.org/std/sdtmig-3-1-2#Section.DS.002> ;
.
<http://rdf.cdisc.org/std/sdtmig-3-1-2#Assumption.DS.003.001>
  rdf:type cdiscs:Assumption ;
  mms:ordinal "6"^^xsd:positiveInteger ;
  cdiscs:about <http://rdf.cdisc.org/std/sdtmig-3-1-2#Column.DS.DSCAT> ;
  cdiscs:about <http://rdf.cdisc.org/std/sdtmig-3-1-2#Column.DS.DSDECOD> ;
  cdiscs:about <http://rdf.cdisc.org/std/sdtmig-3-1-2#Column.DS.DSTERM> ;
  cdiscs:assumptionText "a. DSTERM and DSDECOD are required. DSDECOD values are drawn from sponsor-defined controlled terminology. The controlled terminology will depend on the value of DSCAT. When DSCAT=\"DISPOSITION EVENT\", DSTERM contains either \"COMPLETE\" or, if the subject did not complete, specific verbatim information about the disposition event."^^xsd:string ;
  cdiscs:partOfSection <http://rdf.cdisc.org/std/sdtmig-3-1-2#Section.DS.003> ;
.
<http://rdf.cdisc.org/std/sdtmig-3-1-2#Assumption.DS.003.002>
  rdf:type cdiscs:Assumption ;
  mms:ordinal "7"^^xsd:positiveInteger ;
  cdiscs:about <http://rdf.cdisc.org/std/sdtmig-3-1-2#Column.DS.DSDECOD> ;
  cdiscs:about <http://rdf.cdisc.org/std/sdtmig-3-1-2#Column.DS.DSTERM> ;
  cdiscs:assumptionText "b. When DSTERM = \"COMPLETED\", DSDECOD = \"COMPLETED\". When DSTERM contains verbatim text, DSDECOD will contain a standard term from a controlled terminology list. For example, DSTERM = \"Subject moved\" might map to \"LOST TO FOLLOW-UP\" in the sponsor's controlled terminology."^^xsd:string ;
  cdiscs:partOfSection <http://rdf.cdisc.org/std/sdtmig-3-1-2#Section.DS.003> ;
.
<http://rdf.cdisc.org/std/sdtmig-3-1-2#Assumption.DS.003.003>
  rdf:type cdiscs:Assumption ;
  mms:ordinal "8"^^xsd:positiveInteger ;
  cdiscs:about <http://rdf.cdisc.org/std/sdtmig-3-1-2#Column.DS.EPOCH> ;
  cdiscs:assumptionText "c. A sponsor may collect one disposition event for the trial as a whole, or they may collect disposition for each Epoch of the trial. When disposition is collected for each Epoch, the variable EPOCH should be included in the DS dataset. When EPOCH is populated for disposition events (records with DSCAT = DISPOSITION EVENT), EPOCH is the name of the Epoch for the disposition event described in the record. This is a subtly different meaning from that of EPOCH when it is used in other general-observation-class domains, where EPOCH, as a Timing variable, is the name of the Epoch during which --STDTC or --DTC falls. The values of EPOCH are drawn from the Trial Arms domain, Section 7.2."^^xsd:string ;
  cdiscs:partOfSection <http://rdf.cdisc.org/std/sdtmig-3-1-2#Section.DS.003> ;
.
<http://rdf.cdisc.org/std/sdtmig-3-1-2#Assumption.DS.003.004>
  rdf:type cdiscs:Assumption ;
  mms:ordinal "9"^^xsd:positiveInteger ;
  cdiscs:about <http://rdf.cdisc.org/std/sdtmig-3-1-2#Column.DS.DSCAT> ;
  cdiscs:about <http://rdf.cdisc.org/std/sdtmig-3-1-2#Column.DS.DSDECOD> ;
  cdiscs:about <http://rdf.cdisc.org/std/sdtmig-3-1-2#Column.DS.DSTERM> ;
  cdiscs:about <http://rdf.cdisc.org/std/sdtmig-3-1-2#Column.DS.EPOCH> ;
  cdiscs:assumptionText "d. When DSCAT=\"PROTOCOL MILESTONE\", DSTERM and DSDECOD will contain the same value drawn from the sponsor's controlled terminology. Examples of controlled terms include \"INFORMED CONSENT OBTAINED\" and \"RANDOMIZED.\" EPOCH should not be populated when DSCAT = \"PROTOCOL MILESTONE\"."^^xsd:string ;
  cdiscs:partOfSection <http://rdf.cdisc.org/std/sdtmig-3-1-2#Section.DS.003> ;
.
<http://rdf.cdisc.org/std/sdtmig-3-1-2#Assumption.DS.003.005>
  rdf:type cdiscs:Assumption ;
  mms:ordinal "10"^^xsd:positiveInteger ;
  cdiscs:about <http://rdf.cdisc.org/std/sdtmig-3-1-2#Assumption.DS.002.004> ;
  cdiscs:about <http://rdf.cdisc.org/std/sdtmig-3-1-2#Column.DS.DSCAT> ;
  cdiscs:about <http://rdf.cdisc.org/std/sdtmig-3-1-2#Column.DS.DSTERM> ;
  cdiscs:assumptionText "e. Events that are not disposition or milestone related are classified as an \"OTHER EVENT\" (see Assumption 2d above). If a reason for the OTHER EVENT was collected, then the reason is in DSTERM. For example, treatment was unblinded due to investigator error. DSTERM = INVESTIGATOR ERROR and DSDECOD = TREATMENT UNBLINDED. IF no reason was collected then DSTERM = DSDECOD."^^xsd:string ;
  cdiscs:partOfSection <http://rdf.cdisc.org/std/sdtmig-3-1-2#Section.DS.003> ;
.
<http://rdf.cdisc.org/std/sdtmig-3-1-2#Assumption.DS.004.001>
  rdf:type cdiscs:Assumption ;
  mms:ordinal "11"^^xsd:positiveInteger ;
  cdiscs:about <http://rdf.cdisc.org/std/sdtmig-3-1-2#Column.DS.DSSTDTC> ;
  cdiscs:assumptionText "a. DSSTDTC is expected and is used for the date/time of the disposition event. Disposition events do not have start and end dates since disposition events do not span an interval (e.g. randomization date) but occur at a single date/time (e.g., randomization date)."^^xsd:string ;
  cdiscs:partOfSection <http://rdf.cdisc.org/std/sdtmig-3-1-2#Section.DS.004> ;
.
<http://rdf.cdisc.org/std/sdtmig-3-1-2#Assumption.DS.004.002>
  rdf:type cdiscs:Assumption ;
  mms:ordinal "12"^^xsd:positiveInteger ;
  cdiscs:about <http://rdf.cdisc.org/std/sdtmig-3-1-2#Column.DS.DSSTDTC> ;
  cdiscs:assumptionText "b. DSSTDTC documents the date/time that a protocol milestone, disposition event, or other event occurred. In the case of a disposition event, the reason for not completing the referenced study Epoch may be related to an event or intervention reported in another dataset. DSSTDTC is the date/time that the Epoch was completed and is not necessarily the same as the start or end date/time of the event or intervention that led to discontinuation. For example, a subject reported severe vertigo on June 1, 2006 (AESTDTC). After ruling out other possible causes, the investigator decided to discontinue study treatment on June 6, 2006 (DSSTDTC). The subject reported that the vertigo had resolved on June 8, 2006 (AEENDTC)."^^xsd:string ;
  cdiscs:partOfSection <http://rdf.cdisc.org/std/sdtmig-3-1-2#Section.DS.004> ;
.
<http://rdf.cdisc.org/std/sdtmig-3-1-2#Assumption.DS.005.001>
  rdf:type cdiscs:Assumption ;
  mms:ordinal "13"^^xsd:positiveInteger ;
  cdiscs:about <http://rdf.cdisc.org/std/sdtmig-3-1-2#Column.DS.DSDECOD> ;
  cdiscs:about <http://rdf.cdisc.org/std/sdtmig-3-1-2#Column.DS.DSTERM> ;
  cdiscs:assumptionText """a. ICH E3, Section 10.1 indicates that \"the specific reason for discontinuation\" should be presented, and that summaries should be \"grouped by treatment and by major reason.\" The CDISC SDS Team interprets this guidance as requiring one standardized disposition term (DSDECOD) per disposition event. If multiple reasons are reported, the sponsor should identify a primary reason and use that to populate DSTERM and DSDECOD. Additional reasons should be submitted in SUPPDS. Example:

DSTERM= SEVERE NAUSEA 
DSDECOD=ADVERSE EVENT 

SUPPDS QNAM=DSTERM1 
SUPPDS QLABEL= Reported Term for Disposition Event 1 
SUPPDS QVAL=SUBJECT REFUSED FURTHER TREATMENT 

SUPPDS QNAM=DSDECOD1 
SUPPDS QLABEL= Standardized Disposition Term 1 
SUPPDS QVAL=WITHDREW CONSENT"""^^xsd:string ;
  cdiscs:partOfSection <http://rdf.cdisc.org/std/sdtmig-3-1-2#Section.DS.005> ;
.
<http://rdf.cdisc.org/std/sdtmig-3-1-2#Assumption.DS.006.001>
  rdf:type cdiscs:Assumption ;
  mms:ordinal "14"^^xsd:positiveInteger ;
  cdiscs:about <http://rdf.cdisc.org/std/sdtmig-3-1-2#Dataset.DS> ;
  cdiscs:assumptionText "The following Qualifiers would generally not be used in DS: --PRESP, --OCCUR, --STAT, --REASND, --BODSYS, --LOC, --SEV, --SER, --ACN, --ACNOTH, --REL, --RELNST, --PATT, --OUT, --SCAN, --SCONG, --SDISAB, --SDTH, --SHOSP, --SLIFE, --SOD, --SMIE, --CONTRT, --TOXGR."^^xsd:string ;
  cdiscs:partOfSection <http://rdf.cdisc.org/std/sdtmig-3-1-2#Section.DS.006> ;
.
<http://rdf.cdisc.org/std/sdtmig-3-1-2#Assumption.DV.000.001>
  rdf:type cdiscs:Assumption ;
  mms:ordinal "1"^^xsd:positiveInteger ;
  cdiscs:about <http://rdf.cdisc.org/std/sdtmig-3-1-2#Dataset.DV> ;
  cdiscs:assumptionText "The DV domain is an Events model for collected protocol deviations and not for derived protocol deviations that are more likely to be part of analysis. Events typically include what the event was, captured in --TERM (the topic variable), and when it happened (captured in its start and/or end dates). The intent of the domain model is to capture protocol deviations that occurred during the course of the study (see ICH E3, Section 10.2). Usually these are deviations that occur after the subject has been randomized or received the first treatment."^^xsd:string ;
  cdiscs:partOfSection <http://rdf.cdisc.org/std/sdtmig-3-1-2#Section.DV.000> ;
.
<http://rdf.cdisc.org/std/sdtmig-3-1-2#Assumption.DV.000.002>
  rdf:type cdiscs:Assumption ;
  mms:ordinal "2"^^xsd:positiveInteger ;
  cdiscs:about <http://rdf.cdisc.org/std/sdtmig-3-1-2#Dataset.DV> ;
  cdiscs:about <http://rdf.cdisc.org/std/sdtmig-3-1-2#Dataset.IE> ;
  cdiscs:assumptionText "This domain should not be used to collect entry criteria information. Violated inclusion/exclusion criteria are stored in IE. The Deviations domain is for more general deviation data. A protocol may indicate that violating an inclusion/exclusion criterion during the course of the study (after first dose) is a protocol violation. In this case, this information would go into DV."^^xsd:string ;
  cdiscs:partOfSection <http://rdf.cdisc.org/std/sdtmig-3-1-2#Section.DV.000> ;
.
<http://rdf.cdisc.org/std/sdtmig-3-1-2#Assumption.DV.000.003>
  rdf:type cdiscs:Assumption ;
  mms:ordinal "3"^^xsd:positiveInteger ;
  cdiscs:about <http://rdf.cdisc.org/std/sdtmig-3-1-2#Dataset.DV> ;
  cdiscs:assumptionText "Additional Events Qualifiers, the following Qualifiers would generally not be used in DV: --PRESP, --OCCUR, --STAT, --REASND, --BODSYS, --LOC, --SEV, --SER, --ACN, --ACNOTH, --REL, --RELNST, --PATT, --OUT, --SCAN, --SCONG, --SDISAB, --SDTH, --SHOSP, --SLIFE, --SOD, --SMIE, --CONTRT, --TOXGR."^^xsd:string ;
  cdiscs:partOfSection <http://rdf.cdisc.org/std/sdtmig-3-1-2#Section.DV.000> ;
.
<http://rdf.cdisc.org/std/sdtmig-3-1-2#Assumption.EG.000.001>
  rdf:type cdiscs:Assumption ;
  mms:ordinal "1"^^xsd:positiveInteger ;
  cdiscs:about <http://rdf.cdisc.org/std/sdtmig-3-1-2#Dataset.EG> ;
  cdiscs:assumptionText "EG Definition: CRF data that captures interval measurements and summary information from an ECG. This domain captures ECG data collected on the CRF or received from a central provider or vendor."^^xsd:string ;
  cdiscs:partOfSection <http://rdf.cdisc.org/std/sdtmig-3-1-2#Section.EG.000> ;
.
<http://rdf.cdisc.org/std/sdtmig-3-1-2#Assumption.EG.000.002>
  rdf:type cdiscs:Assumption ;
  mms:ordinal "2"^^xsd:positiveInteger ;
  cdiscs:about <http://rdf.cdisc.org/std/sdtmig-3-1-2#Column.EG.EGREFID> ;
  cdiscs:about <http://rdf.cdisc.org/std/sdtmig-3-1-2#Column.EG.EGXFN> ;
  cdiscs:assumptionText "EGREFID is intended to store an identifier (e.g., UUID) for the associated ECG tracing. EGXFN is intended to store the name of and path to the ECG waveform file when it is submitted."^^xsd:string ;
  cdiscs:partOfSection <http://rdf.cdisc.org/std/sdtmig-3-1-2#Section.EG.000> ;
.
<http://rdf.cdisc.org/std/sdtmig-3-1-2#Assumption.EG.000.003>
  rdf:type cdiscs:Assumption ;
  mms:ordinal "3"^^xsd:positiveInteger ;
  cdiscs:about <http://rdf.cdisc.org/std/sdtmig-3-1-2#Column.EG.EGTEST> ;
  cdiscs:about <http://rdf.cdisc.org/std/sdtmig-3-1-2#Column.EG.EGTESTCD> ;
  cdiscs:assumptionText "The method for QT interval correction is specified in the test name by controlled terminology: EGTESTCD = QTCF and EGTEST = QTcF for Fridericia's Correction Formula; EGTESTCD=QTCB and EGTEST = QTcB for Bazett's Correction Formula."^^xsd:string ;
  cdiscs:partOfSection <http://rdf.cdisc.org/std/sdtmig-3-1-2#Section.EG.000> ;
.
<http://rdf.cdisc.org/std/sdtmig-3-1-2#Assumption.EG.000.004>
  rdf:type cdiscs:Assumption ;
  mms:ordinal "4"^^xsd:positiveInteger ;
  cdiscs:about <http://rdf.cdisc.org/std/sdtmig-3-1-2#Column.LB.LBNRIND> ;
  cdiscs:about <http://rdf.cdisc.org/std/sdtmig-3-1-2#Column.LB.LBORNRHI> ;
  cdiscs:about <http://rdf.cdisc.org/std/sdtmig-3-1-2#Column.LB.LBORNRLO> ;
  cdiscs:assumptionText "EGNRIND can be added to indicate where a result falls with respect to reference range defined by EGORNRLO and EGORNRHI. Examples: HIGH, LOW. Clinical significance would be represented as described in Section 4.1.5.5 as a record in SUPPEG with a QNAM of EGCLSIG (see also ECG Example 1 below)."^^xsd:string ;
  cdiscs:partOfSection <http://rdf.cdisc.org/std/sdtmig-3-1-2#Section.EG.000> ;
.
<http://rdf.cdisc.org/std/sdtmig-3-1-2#Assumption.EG.000.005>
  rdf:type cdiscs:Assumption ;
  mms:ordinal "5"^^xsd:positiveInteger ;
  cdiscs:about <http://rdf.cdisc.org/std/sdtmig-3-1-2#Column.EG.EGDRVFL> ;
  cdiscs:about <http://rdf.cdisc.org/std/sdtmig-3-1-2#Column.EG.EGORRES> ;
  cdiscs:assumptionText "When QTCF and QTCB are derived by the sponsor, the derived flag (EGDRVFL) is set to Y. However, when the QTCF or QTCB is received from a central provider or vendor, the value would go into EGORRES and EGDRVFL would be null (See Section 4.1.1.8.1)."^^xsd:string ;
  cdiscs:partOfSection <http://rdf.cdisc.org/std/sdtmig-3-1-2#Section.EG.000> ;
.
<http://rdf.cdisc.org/std/sdtmig-3-1-2#Assumption.EG.000.006>
  rdf:type cdiscs:Assumption ;
  mms:ordinal "6"^^xsd:positiveInteger ;
  cdiscs:about <http://rdf.cdisc.org/std/sdtmig-3-1-2#Dataset.EG> ;
  cdiscs:assumptionText "The following Qualifiers would not generally be used in EG: --MODIFY, --BODSYS, --SPEC, --SPCCND, --FAST, --SEV. It is recommended that --LOINC not be used."^^xsd:string ;
  cdiscs:partOfSection <http://rdf.cdisc.org/std/sdtmig-3-1-2#Section.EG.000> ;
.
<http://rdf.cdisc.org/std/sdtmig-3-1-2#Assumption.EX.001.001>
  rdf:type cdiscs:Assumption ;
  mms:ordinal "1"^^xsd:positiveInteger ;
  cdiscs:about <http://rdf.cdisc.org/std/sdtmig-3-1-2#Dataset.CM> ;
  cdiscs:about <http://rdf.cdisc.org/std/sdtmig-3-1-2#Dataset.EX> ;
  cdiscs:assumptionText "a. The Exposure domain model records the details of a subject's exposure to protocol-specified study treatment. Study treatment may be any intervention that is prospectively defined as a test material within a study, and is typically but not always supplied to the subject. Examples include but are not limited to placebo, active comparators, and investigational products. Treatments that are not protocol-specified should be recorded in the Concomitant Medication (CM) domain."^^xsd:string ;
  cdiscs:partOfSection <http://rdf.cdisc.org/std/sdtmig-3-1-2#Section.EX.001> ;
.
<http://rdf.cdisc.org/std/sdtmig-3-1-2#Assumption.EX.001.002>
  rdf:type cdiscs:Assumption ;
  mms:ordinal "2"^^xsd:positiveInteger ;
  cdiscs:about <http://rdf.cdisc.org/std/sdtmig-3-1-2#Dataset.EX> ;
  cdiscs:assumptionText """b. This domain should contain one record per constant dosing interval per subject. \"Constant dosing interval\" is sponsor-defined, and may include any period of time that can be described in terms of a known treatment given at a consistent dose and frequency. For example, for a study with once-a-week administration of a standard dose for 6 weeks, exposure may be represented as one of the following:
- If information about each dose is not collected, there would be a single record per subject, spanning the entire treatment phase
- If the sponsor monitors each treatment administration and deviations in treatment or dose occur, there could be up to six records (one for each weekly administration)."""^^xsd:string ;
  cdiscs:partOfSection <http://rdf.cdisc.org/std/sdtmig-3-1-2#Section.EX.001> ;
.
<http://rdf.cdisc.org/std/sdtmig-3-1-2#Assumption.EX.001.003>
  rdf:type cdiscs:Assumption ;
  mms:ordinal "3"^^xsd:positiveInteger ;
  cdiscs:about <http://rdf.cdisc.org/std/sdtmig-3-1-2#Dataset.EX> ;
  cdiscs:assumptionText """c. The Exposure domain is required for all studies that include investigational product. Exposure information may be directly or indirectly determined. Regardless of how it is known, it must be represented using the Exposure domain, and the metadata should explain how it was populated. Common methods for determining exposure (from most direct to least direct) include the following:
1) Actual observation of the administration of drug by the investigator
2) Automated dispensing device which records administrations
3) Subject recall (e.g., via diary)
4) Derived from drug accountability data (e.g., pill counts)
5) Derived from the protocol"""^^xsd:string ;
  cdiscs:partOfSection <http://rdf.cdisc.org/std/sdtmig-3-1-2#Section.EX.001> ;
.
<http://rdf.cdisc.org/std/sdtmig-3-1-2#Assumption.EX.002.001>
  rdf:type cdiscs:Assumption ;
  mms:ordinal "4"^^xsd:positiveInteger ;
  cdiscs:about <http://rdf.cdisc.org/std/sdtmig-3-1-2#Column.EX.EXCAT> ;
  cdiscs:about <http://rdf.cdisc.org/std/sdtmig-3-1-2#Column.EX.EXSCAT> ;
  cdiscs:assumptionText "a. EXCAT and EXSCAT may be used when appropriate to categorize treatments into categories and subcategories. For example, if a study contains several active comparator medications, EXCAT may be set to \"ACTIVE COMPARATOR\".  Such categorization may not be useful in most studies, so these variables are permissible but not expected."^^xsd:string ;
  cdiscs:partOfSection <http://rdf.cdisc.org/std/sdtmig-3-1-2#Section.EX.002> ;
.
<http://rdf.cdisc.org/std/sdtmig-3-1-2#Assumption.EX.003.001>
  rdf:type cdiscs:Assumption ;
  mms:ordinal "5"^^xsd:positiveInteger ;
  cdiscs:about <http://rdf.cdisc.org/std/sdtmig-3-1-2#Column.EX.EXTRT> ;
  cdiscs:assumptionText "a. EXTRT captures the name of the investigational treatment and it is the topic variable. It is a required variable and must have a value. EXTRT should only include the treatment name and should not include dosage, formulation or other qualifying information. For example, \"ASPIRIN 100MG TABLET\" is not a valid value for EXTRT. This example should be expressed as EXTRT= \"ASPIRIN\", EXDOSE= \"100\", EXDOSU= \"mg\", and EXDOSFRM= \"TABLET\"."^^xsd:string ;
  cdiscs:partOfSection <http://rdf.cdisc.org/std/sdtmig-3-1-2#Section.EX.003> ;
.
<http://rdf.cdisc.org/std/sdtmig-3-1-2#Assumption.EX.003.002>
  rdf:type cdiscs:Assumption ;
  mms:ordinal "6"^^xsd:positiveInteger ;
  cdiscs:about <http://rdf.cdisc.org/std/sdtmig-3-1-2#Dataset.EX> ;
  cdiscs:assumptionText "b. Doses of placebo should be represented as per Exposure Example 5 below."^^xsd:string ;
  cdiscs:partOfSection <http://rdf.cdisc.org/std/sdtmig-3-1-2#Section.EX.003> ;
.
<http://rdf.cdisc.org/std/sdtmig-3-1-2#Assumption.EX.004.001>
  rdf:type cdiscs:Assumption ;
  mms:ordinal "7"^^xsd:positiveInteger ;
  cdiscs:about <http://rdf.cdisc.org/std/sdtmig-3-1-2#Dataset.EX> ;
  cdiscs:assumptionText "a. The timing of exposure to study treatment is captured by the start/end date and start/end time of each constant dosing interval. If the subject is only exposed to study medication within a clinical encounter (e.g., if an injection is administered at the clinic), VISITNUM may be added to the domain as an additional timing variable. VISITDY and VISIT would then also be permissible Qualifiers. However if the beginning and end of a constant dosing interval is not confined within the time limits of a clinical encounter (e.g., if a subjects takes pills at home), then it is not appropriate to include VISITNUM in the EX domain. This is because EX is designed to capture the timing of exposure to treatment, not the timing of dispensing treatment. Furthermore, VISITNUM should not be used to indicate that treatment began at a particular visit and continued for a period of time. The SDTM does not have any provision for recording \"start visit\" and \"end visit\" since such information is redundant with start date/time and end date/time."^^xsd:string ;
  cdiscs:partOfSection <http://rdf.cdisc.org/std/sdtmig-3-1-2#Section.EX.004> ;
.
<http://rdf.cdisc.org/std/sdtmig-3-1-2#Assumption.EX.005.001>
  rdf:type cdiscs:Assumption ;
  mms:ordinal "8"^^xsd:positiveInteger ;
  cdiscs:about <http://rdf.cdisc.org/std/sdtmig-3-1-2#Dataset.EX> ;
  cdiscs:assumptionText "b. The variables --PRESP, --OCCUR, --STAT, and --REASND from the Interventions general observation class would not generally be used in the EX domain because EX should only contain medications received."^^xsd:string ;
  cdiscs:partOfSection <http://rdf.cdisc.org/std/sdtmig-3-1-2#Section.EX.005> ;
.
<http://rdf.cdisc.org/std/sdtmig-3-1-2#Assumption.EX.005.002>
  rdf:type cdiscs:Assumption ;
  mms:ordinal "9"^^xsd:positiveInteger ;
  cdiscs:about <http://rdf.cdisc.org/std/sdtmig-3-1-2#Dataset.EX> ;
  cdiscs:assumptionText "c. Other additional Qualifiers from the SDTM Interventions Class may be added to this domain."^^xsd:string ;
  cdiscs:partOfSection <http://rdf.cdisc.org/std/sdtmig-3-1-2#Section.EX.005> ;
.
<http://rdf.cdisc.org/std/sdtmig-3-1-2#Assumption.FA.000.001>
  rdf:type cdiscs:Assumption ;
  mms:ordinal "1"^^xsd:positiveInteger ;
  cdiscs:about <http://rdf.cdisc.org/std/sdtmig-3-1-2#Dataset.FA> ;
  cdiscs:assumptionText "The following qualifiers should generally not be used in FA: --BODSYS, --MODIFY, --SEV, --TOXGR."^^xsd:string ;
  cdiscs:partOfSection <http://rdf.cdisc.org/std/sdtmig-3-1-2#Section.FA.000> ;
.
<http://rdf.cdisc.org/std/sdtmig-3-1-2#Assumption.IE.000.001>
  rdf:type cdiscs:Assumption ;
  mms:ordinal "1"^^xsd:positiveInteger ;
  cdiscs:about <http://rdf.cdisc.org/std/sdtmig-3-1-2#Dataset.IE> ;
  cdiscs:assumptionText "IE Definition: CRF data that captures inclusion and exclusion criteria exceptions per subject. All inclusion or exclusion criteria that are violated, should be stored here, even if a sponsor has granted a waiver or if the subject was admitted by mistake. In cases where a CRF may allow a response of \"Not Applicable\" and this is checked, no criteria were violated, so these records would not be in IE."^^xsd:string ;
  cdiscs:partOfSection <http://rdf.cdisc.org/std/sdtmig-3-1-2#Section.IE.000> ;
.
<http://rdf.cdisc.org/std/sdtmig-3-1-2#Assumption.IE.000.002>
  rdf:type cdiscs:Assumption ;
  mms:ordinal "2"^^xsd:positiveInteger ;
  cdiscs:about <http://rdf.cdisc.org/std/sdtmig-3-1-2#Dataset.IE> ;
  cdiscs:assumptionText "The intent of the domain model is to collect responses to only those criteria that the subject did not meet, and not the responses to all criteria. The complete list of Inclusion/Exclusion criteria can be found in the TI trial inclusion/exclusion criteria dataset described in Section 7.5."^^xsd:string ;
  cdiscs:partOfSection <http://rdf.cdisc.org/std/sdtmig-3-1-2#Section.IE.000> ;
.
<http://rdf.cdisc.org/std/sdtmig-3-1-2#Assumption.IE.000.003>
  rdf:type cdiscs:Assumption ;
  mms:ordinal "3"^^xsd:positiveInteger ;
  cdiscs:about <http://rdf.cdisc.org/std/sdtmig-3-1-2#Dataset.DV> ;
  cdiscs:about <http://rdf.cdisc.org/std/sdtmig-3-1-2#Dataset.IE> ;
  cdiscs:assumptionText "This domain should be used to document the exceptions to inclusion or exclusion criteria at the time that eligibility for study entry is determined (e.g., at the end of a run-in period or immediately before randomization). This domain should not be used to collect protocol deviations/violations incurred during the course of the study, typically after randomization or start of study medication. See Section 6.2.4.1 for the DV events domain model that is used to submit protocol deviations/violations."^^xsd:string ;
  cdiscs:partOfSection <http://rdf.cdisc.org/std/sdtmig-3-1-2#Section.IE.000> ;
.
<http://rdf.cdisc.org/std/sdtmig-3-1-2#Assumption.IE.000.004>
  rdf:type cdiscs:Assumption ;
  mms:ordinal "4"^^xsd:positiveInteger ;
  cdiscs:about <http://rdf.cdisc.org/std/sdtmig-3-1-2#Column.IE.IETEST> ;
  cdiscs:assumptionText "IETEST is to be used only for the verbatim description of the inclusion or exclusion criteria. If the text is <200 characters, it goes in IETEST; if the text is > 200 characters, put meaningful text in IETEST and describe the full text in the study metadata. See Section 4.1.5.3.2 for further information."^^xsd:string ;
  cdiscs:partOfSection <http://rdf.cdisc.org/std/sdtmig-3-1-2#Section.IE.000> ;
.
<http://rdf.cdisc.org/std/sdtmig-3-1-2#Assumption.IE.000.005>
  rdf:type cdiscs:Assumption ;
  mms:ordinal "5"^^xsd:positiveInteger ;
  cdiscs:about <http://rdf.cdisc.org/std/sdtmig-3-1-2#Dataset.IE> ;
  cdiscs:assumptionText "The following Qualifiers would not generally be used in IE: --MODIFY, --POS, --BODSYS, --ORRESU, --ORNRLO, --ORNRHI, --STRESN, --STRESU, --STNRLO, --STNRHI, --STNRC, --NRIND, --RESCAT, --XFN, --NAM, --LOINC, --SPEC, --SPCCND, --LOC, --METHOD, --BLFL, --FAST, --DRVFL, --TOX, --TOXGR, --SEV, --STAT."^^xsd:string ;
  cdiscs:partOfSection <http://rdf.cdisc.org/std/sdtmig-3-1-2#Section.IE.000> ;
.
<http://rdf.cdisc.org/std/sdtmig-3-1-2#Assumption.LB.000.001>
  rdf:type cdiscs:Assumption ;
  mms:ordinal "1"^^xsd:positiveInteger ;
  cdiscs:about <http://rdf.cdisc.org/std/sdtmig-3-1-2#Dataset.LB> ;
  cdiscs:assumptionText "LB Definition: This domain captures laboratory data collected on the CRF or received from a central provider or vendor."^^xsd:string ;
  cdiscs:partOfSection <http://rdf.cdisc.org/std/sdtmig-3-1-2#Section.LB.000> ;
.
<http://rdf.cdisc.org/std/sdtmig-3-1-2#Assumption.LB.000.002>
  rdf:type cdiscs:Assumption ;
  mms:ordinal "2"^^xsd:positiveInteger ;
  cdiscs:about <http://rdf.cdisc.org/std/sdtmig-3-1-2#Column.LB.LBORNRHI> ;
  cdiscs:about <http://rdf.cdisc.org/std/sdtmig-3-1-2#Column.LB.LBORNRLO> ;
  cdiscs:about <http://rdf.cdisc.org/std/sdtmig-3-1-2#Column.LB.LBSTNRC> ;
  cdiscs:about <http://rdf.cdisc.org/std/sdtmig-3-1-2#Column.LB.LBSTNRHI> ;
  cdiscs:about <http://rdf.cdisc.org/std/sdtmig-3-1-2#Column.LB.LBSTNRLO> ;
  cdiscs:assumptionText "For lab tests that do not have continuous numeric results (e.g., urine protein as measured by dipstick, descriptive tests such as urine color), LBSTNRC could be populated either with normal range values that are character in an ordinal scale (e.g., \"NEGATIVE to TRACE\") or a delimited set of values that are considered to be normal (e.g., \"YELLOW\", \"AMBER\"). LBORNRLO, LBORNRHI, LBSTNRLO, and LBSTNRHI should be null for these types of tests."^^xsd:string ;
  cdiscs:partOfSection <http://rdf.cdisc.org/std/sdtmig-3-1-2#Section.LB.000> ;
.
<http://rdf.cdisc.org/std/sdtmig-3-1-2#Assumption.LB.000.003>
  rdf:type cdiscs:Assumption ;
  mms:ordinal "3"^^xsd:positiveInteger ;
  cdiscs:about <http://rdf.cdisc.org/std/sdtmig-3-1-2#Column.LB.LBNRIND> ;
  cdiscs:about <http://rdf.cdisc.org/std/sdtmig-3-1-2#Column.LB.LBORNRHI> ;
  cdiscs:about <http://rdf.cdisc.org/std/sdtmig-3-1-2#Column.LB.LBORNRLO> ;
  cdiscs:assumptionText "LBNRIND can be added to indicate where a result falls with respect to reference range defined by LBORNRLO and LBORNRHI. Examples: HIGH, LOW. Clinical significance would be represented as described in Section 4.1.5.5 as a record in SUPPLB with a QNAM of LBCLSIG (see also LB Example 1 below)."^^xsd:string ;
  cdiscs:partOfSection <http://rdf.cdisc.org/std/sdtmig-3-1-2#Section.LB.000> ;
.
<http://rdf.cdisc.org/std/sdtmig-3-1-2#Assumption.LB.000.004>
  rdf:type cdiscs:Assumption ;
  mms:ordinal "4"^^xsd:positiveInteger ;
  cdiscs:about <http://rdf.cdisc.org/std/sdtmig-3-1-2#Column.LB.LBDTC> ;
  cdiscs:about <http://rdf.cdisc.org/std/sdtmig-3-1-2#Column.LB.LBENDTC> ;
  cdiscs:assumptionText "For lab tests where the specimen is collected over time, i.e., 24-hour urine collection, the start date/time of the collection goes into LBDTC and the end date/time of collection goes into LBENDTC. See Assumption 4.1.4.8."^^xsd:string ;
  cdiscs:partOfSection <http://rdf.cdisc.org/std/sdtmig-3-1-2#Section.LB.000> ;
.
<http://rdf.cdisc.org/std/sdtmig-3-1-2#Assumption.LB.000.005>
  rdf:type cdiscs:Assumption ;
  mms:ordinal "5"^^xsd:positiveInteger ;
  cdiscs:about <http://rdf.cdisc.org/std/sdtmig-3-1-2#Dataset.LB> ;
  cdiscs:assumptionText "The following Qualifiers would not generally be used in LB: --BODSYS, --SEV."^^xsd:string ;
  cdiscs:partOfSection <http://rdf.cdisc.org/std/sdtmig-3-1-2#Section.LB.000> ;
.
<http://rdf.cdisc.org/std/sdtmig-3-1-2#Assumption.LB.000.006>
  rdf:type cdiscs:Assumption ;
  mms:ordinal "6"^^xsd:positiveInteger ;
  cdiscs:about <http://rdf.cdisc.org/std/sdtmig-3-1-2#Dataset.LB> ;
  cdiscs:assumptionText "A value derived by a central lab according to their procedures is considered collected rather than derived. See Section 4.1.1.8.1."^^xsd:string ;
  cdiscs:partOfSection <http://rdf.cdisc.org/std/sdtmig-3-1-2#Section.LB.000> ;
.
<http://rdf.cdisc.org/std/sdtmig-3-1-2#Assumption.MB.000.001>
  rdf:type cdiscs:Assumption ;
  mms:ordinal "1"^^xsd:positiveInteger ;
  cdiscs:about <http://rdf.cdisc.org/std/sdtmig-3-1-2#Dataset.MB> ;
  cdiscs:assumptionText "Definition: The MB domain is designed to store microbiology findings that include organisms found, grain stain results and organism growth status."^^xsd:string ;
  cdiscs:partOfSection <http://rdf.cdisc.org/std/sdtmig-3-1-2#Section.MB.000> ;
.
<http://rdf.cdisc.org/std/sdtmig-3-1-2#Assumption.MB.000.002>
  rdf:type cdiscs:Assumption ;
  mms:ordinal "2"^^xsd:positiveInteger ;
  cdiscs:about <http://rdf.cdisc.org/std/sdtmig-3-1-2#Column.MB.MBSPID> ;
  cdiscs:assumptionText "MBSPID is used to uniquely identify an organism. MBSPID would remain the same each time the same organism is identified in a new specimen. Often the original line number used to record the first occurrence of the organism is used again as an organism identifier when it is found in another specimen. For example, MBSPID is 01 at visit 10 for organism \"STAPHYLOCOCCUS AUREUS\". For the same organism at visit 30, MBSPID is again 01."^^xsd:string ;
  cdiscs:partOfSection <http://rdf.cdisc.org/std/sdtmig-3-1-2#Section.MB.000> ;
.
<http://rdf.cdisc.org/std/sdtmig-3-1-2#Assumption.MB.000.003>
  rdf:type cdiscs:Assumption ;
  mms:ordinal "3"^^xsd:positiveInteger ;
  cdiscs:about <http://rdf.cdisc.org/std/sdtmig-3-1-2#Column.MB.MBTESTCD> ;
  cdiscs:assumptionText "MBTESTCD value for organisms present in a specimen is \"ORGANISM\"."^^xsd:string ;
  cdiscs:partOfSection <http://rdf.cdisc.org/std/sdtmig-3-1-2#Section.MB.000> ;
.
<http://rdf.cdisc.org/std/sdtmig-3-1-2#Assumption.MB.000.004>
  rdf:type cdiscs:Assumption ;
  mms:ordinal "4"^^xsd:positiveInteger ;
  cdiscs:about <http://rdf.cdisc.org/std/sdtmig-3-1-2#Column.MB.MBDTC> ;
  cdiscs:assumptionText "MBDTC can be used to record the date/time that an organism started to grow in the culture, or the date/time that the culture became positive for the organism."^^xsd:string ;
  cdiscs:partOfSection <http://rdf.cdisc.org/std/sdtmig-3-1-2#Section.MB.000> ;
.
<http://rdf.cdisc.org/std/sdtmig-3-1-2#Assumption.MB.000.005>
  rdf:type cdiscs:Assumption ;
  mms:ordinal "5"^^xsd:positiveInteger ;
  cdiscs:about <http://rdf.cdisc.org/std/sdtmig-3-1-2#Column.MB.MBGRPID> ;
  cdiscs:about <http://rdf.cdisc.org/std/sdtmig-3-1-2#Column.MS.MSGRPID> ;
  cdiscs:assumptionText "MBGRPID is used to link to findings related to that organism in the MS domain. For example, if in Specimen 1, organism STREPTOCOCCUS PNEUMONIAE PENICILLIN RESISTANT is found with MBGRPID=1, then findings such as susceptibility tests, colony count, etc. for that organism in Specimen 1, would all have the same value of MSGRPID=1 in the MS domain. The use of GRPID to relate MS to MB greatly simplifies RELREC because only two records are needed in RELREC to describe the relationship of MB to the many related records in MS. With this method there is no need to create detailed relationships at the subject level."^^xsd:string ;
  cdiscs:partOfSection <http://rdf.cdisc.org/std/sdtmig-3-1-2#Section.MB.000> ;
.
<http://rdf.cdisc.org/std/sdtmig-3-1-2#Assumption.MB.000.006>
  rdf:type cdiscs:Assumption ;
  mms:ordinal "6"^^xsd:positiveInteger ;
  cdiscs:about <http://rdf.cdisc.org/std/sdtmig-3-1-2#Column.MB.MBRESCAT> ;
  cdiscs:assumptionText "MBRESCAT is expected in all records where a microorganism has been identified to differentiate between colonizing organisms and the one(s) that are causing the infection. It is not expected when there is \"No growth\" or when the results are from a gram stain."^^xsd:string ;
  cdiscs:partOfSection <http://rdf.cdisc.org/std/sdtmig-3-1-2#Section.MB.000> ;
.
<http://rdf.cdisc.org/std/sdtmig-3-1-2#Assumption.MB.000.007>
  rdf:type cdiscs:Assumption ;
  mms:ordinal "7"^^xsd:positiveInteger ;
  cdiscs:about <http://rdf.cdisc.org/std/sdtmig-3-1-2#Dataset.MB> ;
  cdiscs:assumptionText "The following Qualifiers would not generally be used in MB: --MODIFY, --BODSYS, --FAST, --TOX, --TOXGR --SEV."^^xsd:string ;
  cdiscs:partOfSection <http://rdf.cdisc.org/std/sdtmig-3-1-2#Section.MB.000> ;
.
<http://rdf.cdisc.org/std/sdtmig-3-1-2#Assumption.MH.001.001>
  rdf:type cdiscs:Assumption ;
  mms:ordinal "1"^^xsd:positiveInteger ;
  cdiscs:about <http://rdf.cdisc.org/std/sdtmig-3-1-2#Dataset.CM> ;
  cdiscs:about <http://rdf.cdisc.org/std/sdtmig-3-1-2#Dataset.MH> ;
  cdiscs:assumptionText "a. The Medical History dataset generally includes the subject's prior and concomitant conditions at the start of the trial. Examples of subject medical history information could include general medical history and gynecological history. Note that prior and concomitant medications should be submitted in an appropriate dataset from the Interventions class (e.g., CM)."^^xsd:string ;
  cdiscs:partOfSection <http://rdf.cdisc.org/std/sdtmig-3-1-2#Section.MH.001> ;
.
<http://rdf.cdisc.org/std/sdtmig-3-1-2#Assumption.MH.002.001>
  rdf:type cdiscs:Assumption ;
  mms:ordinal "2"^^xsd:positiveInteger ;
  cdiscs:about <http://rdf.cdisc.org/std/sdtmig-3-1-2#Column.MH.MHTERM> ;
  cdiscs:assumptionText "a. MHTERM captures the verbatim term collected for the condition or event. It is the topic variable for the MH dataset. MHTERM is a required variable and must have a value."^^xsd:string ;
  cdiscs:partOfSection <http://rdf.cdisc.org/std/sdtmig-3-1-2#Section.MH.002> ;
.
<http://rdf.cdisc.org/std/sdtmig-3-1-2#Assumption.MH.002.002>
  rdf:type cdiscs:Assumption ;
  mms:ordinal "3"^^xsd:positiveInteger ;
  cdiscs:about <http://rdf.cdisc.org/std/sdtmig-3-1-2#Column.MH.MHMODIFY> ;
  cdiscs:assumptionText "b. MHMODIFY is a permissible variable and should be included if the sponsor's procedure permits modification of a verbatim term for coding. The modified term is listed in MHMODIFY. The variable should be populated as per the sponsor's procedures; null values are permitted."^^xsd:string ;
  cdiscs:partOfSection <http://rdf.cdisc.org/std/sdtmig-3-1-2#Section.MH.002> ;
.
<http://rdf.cdisc.org/std/sdtmig-3-1-2#Assumption.MH.002.003>
  rdf:type cdiscs:Assumption ;
  mms:ordinal "4"^^xsd:positiveInteger ;
  cdiscs:about <http://rdf.cdisc.org/std/sdtmig-3-1-2#Column.MH.MHDECOD> ;
  cdiscs:assumptionText "c. If the sponsor codes the reported term (MHTERM) using a standard dictionary, then MHDECOD will be populated with the preferred term derived from the dictionary. The sponsor is expected to provide the dictionary name and version used to map the terms utilizing the define.xml external codelist attributes."^^xsd:string ;
  cdiscs:partOfSection <http://rdf.cdisc.org/std/sdtmig-3-1-2#Section.MH.002> ;
.
<http://rdf.cdisc.org/std/sdtmig-3-1-2#Assumption.MH.002.004>
  rdf:type cdiscs:Assumption ;
  mms:ordinal "5"^^xsd:positiveInteger ;
  cdiscs:about <http://rdf.cdisc.org/std/sdtmig-3-1-2#Column.MH.MHBODSYS> ;
  cdiscs:assumptionText "d. MHBODSYS is the system organ class from the coding dictionary associated with the adverse event by the sponsor. This value may differ from the primary system organ class designated in the coding dictionary's standard hierarchy."^^xsd:string ;
  cdiscs:partOfSection <http://rdf.cdisc.org/std/sdtmig-3-1-2#Section.MH.002> ;
.
<http://rdf.cdisc.org/std/sdtmig-3-1-2#Assumption.MH.002.005>
  rdf:type cdiscs:Assumption ;
  mms:ordinal "6"^^xsd:positiveInteger ;
  cdiscs:about <http://rdf.cdisc.org/std/sdtmig-3-1-2#Dataset.MH> ;
  cdiscs:assumptionText "e. Sponsors may include the values of additional levels from the coding dictionary's hierarchy (e.g., High Level Group Term, High Level Term, Lower Level Term) in the SUPPMH dataset as described in Section 8.4. See Appendix C5 for standard Supplemental Qualifier name codes."^^xsd:string ;
  cdiscs:partOfSection <http://rdf.cdisc.org/std/sdtmig-3-1-2#Section.MH.002> ;
.
<http://rdf.cdisc.org/std/sdtmig-3-1-2#Assumption.MH.002.006>
  rdf:type cdiscs:Assumption ;
  mms:ordinal "7"^^xsd:positiveInteger ;
  cdiscs:about <http://rdf.cdisc.org/std/sdtmig-3-1-2#Column.MH.MHBODSYS> ;
  cdiscs:about <http://rdf.cdisc.org/std/sdtmig-3-1-2#Column.MH.MHCAT> ;
  cdiscs:about <http://rdf.cdisc.org/std/sdtmig-3-1-2#Column.MH.MHDECOD> ;
  cdiscs:about <http://rdf.cdisc.org/std/sdtmig-3-1-2#Column.MH.MHSCAT> ;
  cdiscs:assumptionText "f. If a CRF collects medical history by pre-specified body systems and the sponsor also codes reported terms using a standard dictionary, then MHDECOD and MHBODSYS are populated using the standard dictionary. MHCAT and MHSCAT should be used for the pre-specified body systems."^^xsd:string ;
  cdiscs:partOfSection <http://rdf.cdisc.org/std/sdtmig-3-1-2#Section.MH.002> ;
.
<http://rdf.cdisc.org/std/sdtmig-3-1-2#Assumption.MH.003.001>
  rdf:type cdiscs:Assumption ;
  mms:ordinal "8"^^xsd:positiveInteger ;
  cdiscs:about <http://rdf.cdisc.org/std/sdtmig-3-1-2#Column.MH.MHBODSYS> ;
  cdiscs:about <http://rdf.cdisc.org/std/sdtmig-3-1-2#Column.MH.MHCAT> ;
  cdiscs:about <http://rdf.cdisc.org/std/sdtmig-3-1-2#Column.MH.MHSCAT> ;
  cdiscs:assumptionText """a. MHCAT and MHSCAT may be populated with the sponsor's pre-defined categorization of medical history events, which are often pre-specified on the CRF. Note that even if the sponsor uses the body system terminology from the standard dictionary, MHBODSYS and MHCAT may differ, since MHBODSYS is derived from the coding system, while MHCAT is effectively assigned when the investigator records a condition under the pre-specified category.
i. This categorization should not group all records (within the MH Domain) into one generic group such as \"Medical History\" or \"General Medical History\" because this is redundant information with the domain code. If no smaller categorization can be applied, then it is not necessary to include or populate this variable.
ii. Examples of MHCAT could include \"General Medical History\" (see above assumption since if \"General Medical History\" is an MHCAT value then there should be other MHCAT values), \"Allergy Medical History\", and \"Reproductive Medical History\"."""^^xsd:string ;
  cdiscs:partOfSection <http://rdf.cdisc.org/std/sdtmig-3-1-2#Section.MH.003> ;
.
<http://rdf.cdisc.org/std/sdtmig-3-1-2#Assumption.MH.003.002>
  rdf:type cdiscs:Assumption ;
  mms:ordinal "9"^^xsd:positiveInteger ;
  cdiscs:about <http://rdf.cdisc.org/std/sdtmig-3-1-2#Column.MH.MHCAT> ;
  cdiscs:about <http://rdf.cdisc.org/std/sdtmig-3-1-2#Column.MH.MHGRPID> ;
  cdiscs:about <http://rdf.cdisc.org/std/sdtmig-3-1-2#Column.MH.MHSCAT> ;
  cdiscs:assumptionText "b. MHGRPID may be used to link (or associate) different records together to form a block of related records at the subject level within the MH domain. It should not be used in place of MHCAT or MHSCAT, which are used to group data across subjects. For example, if a group of syndromes reported for a subject were related to a particular disease then the MHGRPID variable could be populated with the appropriate text."^^xsd:string ;
  cdiscs:partOfSection <http://rdf.cdisc.org/std/sdtmig-3-1-2#Section.MH.003> ;
.
<http://rdf.cdisc.org/std/sdtmig-3-1-2#Assumption.MH.004.001>
  rdf:type cdiscs:Assumption ;
  mms:ordinal "10"^^xsd:positiveInteger ;
  cdiscs:about <http://rdf.cdisc.org/std/sdtmig-3-1-2#Column.MH.MHOCCUR> ;
  cdiscs:about <http://rdf.cdisc.org/std/sdtmig-3-1-2#Column.MH.MHPRESP> ;
  cdiscs:about <http://rdf.cdisc.org/std/sdtmig-3-1-2#Column.MH.MHTERM> ;
  cdiscs:assumptionText "a. Information on medical history is generally collected in two different ways, either by recording free text or using a pre-specified list of terms. The solicitation of information on specific medical history events may affect the frequency at which they are reported; therefore, the fact that a specific medical history event was solicited may be of interest to reviewers. MHPRESP and MHOCCUR are used together to indicate whether the condition in MHTERM was pre-specified and whether it occurred, respectively. A value of \"Y\" in MHPRESP indicates that the term was pre-specified."^^xsd:string ;
  cdiscs:partOfSection <http://rdf.cdisc.org/std/sdtmig-3-1-2#Section.MH.004> ;
.
<http://rdf.cdisc.org/std/sdtmig-3-1-2#Assumption.MH.004.002>
  rdf:type cdiscs:Assumption ;
  mms:ordinal "11"^^xsd:positiveInteger ;
  cdiscs:about <http://rdf.cdisc.org/std/sdtmig-3-1-2#Column.MH.MHOCCUR> ;
  cdiscs:about <http://rdf.cdisc.org/std/sdtmig-3-1-2#Column.MH.MHPRESP> ;
  cdiscs:assumptionText "b. MHOCCUR is used to indicate whether a pre-specified medical condition occurred; a value of Y indicates that the event occurred and N indicates that it did not."^^xsd:string ;
  cdiscs:partOfSection <http://rdf.cdisc.org/std/sdtmig-3-1-2#Section.MH.004> ;
.
<http://rdf.cdisc.org/std/sdtmig-3-1-2#Assumption.MH.004.003>
  rdf:type cdiscs:Assumption ;
  mms:ordinal "12"^^xsd:positiveInteger ;
  cdiscs:about <http://rdf.cdisc.org/std/sdtmig-3-1-2#Column.MH.MHOCCUR> ;
  cdiscs:about <http://rdf.cdisc.org/std/sdtmig-3-1-2#Column.MH.MHPRESP> ;
  cdiscs:assumptionText "c. If a medical history event was reported using free text, the values of MHPRESP and MHOCCUR should be null. MHPRESP and MHOCCUR are permissible fields and may be omitted from the dataset if all medical history events were collected as free text."^^xsd:string ;
  cdiscs:partOfSection <http://rdf.cdisc.org/std/sdtmig-3-1-2#Section.MH.004> ;
.
<http://rdf.cdisc.org/std/sdtmig-3-1-2#Assumption.MH.004.004>
  rdf:type cdiscs:Assumption ;
  mms:ordinal "13"^^xsd:positiveInteger ;
  cdiscs:about <http://rdf.cdisc.org/std/sdtmig-3-1-2#Column.MH.MHOCCUR> ;
  cdiscs:about <http://rdf.cdisc.org/std/sdtmig-3-1-2#Column.MH.MHPRESP> ;
  cdiscs:about <http://rdf.cdisc.org/std/sdtmig-3-1-2#Column.MH.MHREASND> ;
  cdiscs:about <http://rdf.cdisc.org/std/sdtmig-3-1-2#Column.MH.MHSTAT> ;
  cdiscs:assumptionText """d. MHSTAT and MHREASND provide information about pre-specified medical history questions for which no response was collected. MHSTAT and MHREASND are permissible fields and may be omitted from the dataset if all medications were collected as free text or if all pre-specified conditions had responses in MHOCCUR. Situation Value of MHPRESP Value of MHOCCUR Value of MHSTAT
Spontaneously reported event occurred
MHPRESP is null
MHOCCUR is null
MHSTAT is null
Pre-specified event occurred
MHPRESP is Y
MHOCCUR is Y
MHSTAT is null
Pre-specified event did not occur
MHPRESP is Y
MHOCCUR is N
MHSTAT is null
Pre-specified event has no response
MHPRESP is Y
MHOCCUR is null
MHSTAT is NOT DONE"""^^xsd:string ;
  cdiscs:partOfSection <http://rdf.cdisc.org/std/sdtmig-3-1-2#Section.MH.004> ;
.
<http://rdf.cdisc.org/std/sdtmig-3-1-2#Assumption.MH.004.005>
  rdf:type cdiscs:Assumption ;
  mms:ordinal "14"^^xsd:positiveInteger ;
  cdiscs:about <http://rdf.cdisc.org/std/sdtmig-3-1-2#Dataset.MH> ;
  cdiscs:assumptionText "e. When medical history events are collected with the recording of free text, a record may be entered into the data management system to indicate \"no medical history\" for a specific subject or pre-specified body system category (e.g., Gastrointestinal). For these subjects or categories within subject, do not include a record in the MH dataset to indicate that there were no events."^^xsd:string ;
  cdiscs:partOfSection <http://rdf.cdisc.org/std/sdtmig-3-1-2#Section.MH.004> ;
.
<http://rdf.cdisc.org/std/sdtmig-3-1-2#Assumption.MH.005.001>
  rdf:type cdiscs:Assumption ;
  mms:ordinal "15"^^xsd:positiveInteger ;
  cdiscs:about <http://rdf.cdisc.org/std/sdtmig-3-1-2#Column.MH.MHENRF> ;
  cdiscs:about <http://rdf.cdisc.org/std/sdtmig-3-1-2#Column.MH.MHENRTPT> ;
  cdiscs:about <http://rdf.cdisc.org/std/sdtmig-3-1-2#Column.MH.MHENTPT> ;
  cdiscs:assumptionText "a. Relative timing assessments such as \"Ongoing\" or \"Active\" are common in the collection of Medical History information. MHENRF may be used when this relative timing assessment is coincident with the start of the study reference period for the subject represented in the Demographics dataset (RFSTDTC). MHENRTPT and MHENTPT may be used when \"Ongoing\" is relative to another date such as the screening visit date. See examples below and Section 4.1.4.7."^^xsd:string ;
  cdiscs:partOfSection <http://rdf.cdisc.org/std/sdtmig-3-1-2#Section.MH.005> ;
.
<http://rdf.cdisc.org/std/sdtmig-3-1-2#Assumption.MH.005.002>
  rdf:type cdiscs:Assumption ;
  mms:ordinal "16"^^xsd:positiveInteger ;
  cdiscs:about <http://rdf.cdisc.org/std/sdtmig-3-1-2#Dataset.MH> ;
  cdiscs:assumptionText "b. Additional timing variables (such as MHSTRF) may be used when appropriate."^^xsd:string ;
  cdiscs:partOfSection <http://rdf.cdisc.org/std/sdtmig-3-1-2#Section.MH.005> ;
.
<http://rdf.cdisc.org/std/sdtmig-3-1-2#Assumption.MH.006.002>
  rdf:type cdiscs:Assumption ;
  mms:ordinal "17"^^xsd:positiveInteger ;
  cdiscs:about <http://rdf.cdisc.org/std/sdtmig-3-1-2#Dataset.MH> ;
  cdiscs:assumptionText "The following Qualifiers would generally not be used in MH: --SER, --ACN, --ACNOTH, --REL, --RELNST, --OUT, --SCAN, --SCONG, --SDISAB, --SDTH, --SHOSP, --SLIFE, --SOD, --SMIE."^^xsd:string ;
  cdiscs:partOfSection <http://rdf.cdisc.org/std/sdtmig-3-1-2#Section.MH.006> ;
.
<http://rdf.cdisc.org/std/sdtmig-3-1-2#Assumption.MS.000.001>
  rdf:type cdiscs:Assumption ;
  mms:ordinal "1"^^xsd:positiveInteger ;
  cdiscs:about <http://rdf.cdisc.org/std/sdtmig-3-1-2#Dataset.MB> ;
  cdiscs:about <http://rdf.cdisc.org/std/sdtmig-3-1-2#Dataset.MS> ;
  cdiscs:assumptionText "Definition: The MS domain is designed to store any findings related to the organisms found and submitted in MB. This will usually consist of susceptibility testing results, but can also be other organism-related findings such as extent of growth of an organism. This domain is intended to be used in conjunction with the MB domain described above."^^xsd:string ;
  cdiscs:partOfSection <http://rdf.cdisc.org/std/sdtmig-3-1-2#Section.MS.000> ;
.
<http://rdf.cdisc.org/std/sdtmig-3-1-2#Assumption.MS.000.002>
  rdf:type cdiscs:Assumption ;
  mms:ordinal "2"^^xsd:positiveInteger ;
  cdiscs:about <http://rdf.cdisc.org/std/sdtmig-3-1-2#Dataset.MS> ;
  cdiscs:assumptionText "The following Qualifiers would not generally be used in MB: --MODIFY, --BODSYS, --SPEC, --SPCCND, --FAST, --TOX, --TOXGR --SEV."^^xsd:string ;
  cdiscs:partOfSection <http://rdf.cdisc.org/std/sdtmig-3-1-2#Section.MS.000> ;
.
<http://rdf.cdisc.org/std/sdtmig-3-1-2#Assumption.PC.000.001>
  rdf:type cdiscs:Assumption ;
  mms:ordinal "1"^^xsd:positiveInteger ;
  cdiscs:about <http://rdf.cdisc.org/std/sdtmig-3-1-2#Dataset.PC> ;
  cdiscs:assumptionText "PC Definition: Data collected about tissue (e.g., serum or plasma) concentrations of analytes (usually study drugs and/or their metabolites) as a function of time after dosing the study drug."^^xsd:string ;
  cdiscs:partOfSection <http://rdf.cdisc.org/std/sdtmig-3-1-2#Section.PC.000> ;
.
<http://rdf.cdisc.org/std/sdtmig-3-1-2#Assumption.PC.000.002>
  rdf:type cdiscs:Assumption ;
  mms:ordinal "2"^^xsd:positiveInteger ;
  cdiscs:about <http://rdf.cdisc.org/std/sdtmig-3-1-2#Dataset.PC> ;
  cdiscs:assumptionText "The structure is one record per concentration or sample characteristic per analyte. In addition to one record for each concentration measurement, specimen properties (e.g., volume and pH) are handled via separate records in this dataset."^^xsd:string ;
  cdiscs:partOfSection <http://rdf.cdisc.org/std/sdtmig-3-1-2#Section.PC.000> ;
.
<http://rdf.cdisc.org/std/sdtmig-3-1-2#Assumption.PC.000.003>
  rdf:type cdiscs:Assumption ;
  mms:ordinal "3"^^xsd:positiveInteger ;
  cdiscs:about <http://rdf.cdisc.org/std/sdtmig-3-1-2#Dataset.PC> ;
  cdiscs:assumptionText "Due to space limitations, not all expected or permissible Findings variables are included in the example."^^xsd:string ;
  cdiscs:partOfSection <http://rdf.cdisc.org/std/sdtmig-3-1-2#Section.PC.000> ;
.
<http://rdf.cdisc.org/std/sdtmig-3-1-2#Assumption.PC.000.004>
  rdf:type cdiscs:Assumption ;
  mms:ordinal "4"^^xsd:positiveInteger ;
  cdiscs:about <http://rdf.cdisc.org/std/sdtmig-3-1-2#Dataset.PC> ;
  cdiscs:assumptionText "The following Qualifiers would not generally be used in PC: --BODSYS, --SEV."^^xsd:string ;
  cdiscs:partOfSection <http://rdf.cdisc.org/std/sdtmig-3-1-2#Section.PC.000> ;
.
<http://rdf.cdisc.org/std/sdtmig-3-1-2#Assumption.PE.000.001>
  rdf:type cdiscs:Assumption ;
  mms:ordinal "1"^^xsd:positiveInteger ;
  cdiscs:about <http://rdf.cdisc.org/std/sdtmig-3-1-2#Dataset.PE> ;
  cdiscs:assumptionText "PE Definition: Data that captures findings about physical exams. This could be information about which body systems that were examined and specific abnormalities were collected."^^xsd:string ;
  cdiscs:partOfSection <http://rdf.cdisc.org/std/sdtmig-3-1-2#Section.PE.000> ;
.
<http://rdf.cdisc.org/std/sdtmig-3-1-2#Assumption.PE.000.002>
  rdf:type cdiscs:Assumption ;
  mms:ordinal "2"^^xsd:positiveInteger ;
  cdiscs:about <http://rdf.cdisc.org/std/sdtmig-3-1-2#Column.PE.PEORRES> ;
  cdiscs:assumptionText "The PE domain provides an example where the result, PEORRES, is coded. This is in contrast to Events and Interventions domains (e.g., AE, CM, and MH), in which the topic variable (AETERM, CMTRT, and EXTRT, respectively) is the one coded."^^xsd:string ;
  cdiscs:partOfSection <http://rdf.cdisc.org/std/sdtmig-3-1-2#Section.PE.000> ;
.
<http://rdf.cdisc.org/std/sdtmig-3-1-2#Assumption.PE.000.003>
  rdf:type cdiscs:Assumption ;
  mms:ordinal "3"^^xsd:positiveInteger ;
  cdiscs:about <http://rdf.cdisc.org/std/sdtmig-3-1-2#Dataset.PE> ;
  cdiscs:assumptionText "The following Qualifiers would not generally be used in PE: --XFN, --NAM, --LOINC, --FAST, --TOX, --TOXGR."^^xsd:string ;
  cdiscs:partOfSection <http://rdf.cdisc.org/std/sdtmig-3-1-2#Section.PE.000> ;
.
<http://rdf.cdisc.org/std/sdtmig-3-1-2#Assumption.PP.000.001>
  rdf:type cdiscs:Assumption ;
  mms:ordinal "1"^^xsd:positiveInteger ;
  cdiscs:about <http://rdf.cdisc.org/std/sdtmig-3-1-2#Dataset.PP> ;
  cdiscs:assumptionText "PP Definition: Data describing the parameters of the time-concentration curve for PC data (e.g., area under the curve, Cmax, Tmax)."^^xsd:string ;
  cdiscs:partOfSection <http://rdf.cdisc.org/std/sdtmig-3-1-2#Section.PP.000> ;
.
<http://rdf.cdisc.org/std/sdtmig-3-1-2#Assumption.PP.000.002>
  rdf:type cdiscs:Assumption ;
  mms:ordinal "2"^^xsd:positiveInteger ;
  cdiscs:about <http://rdf.cdisc.org/std/sdtmig-3-1-2#Dataset.PP> ;
  cdiscs:assumptionText "It is recognized that PP is a derived dataset, and may be produced from an analysis dataset that might have a different structure. As a result, some sponsors may need to normalize their analysis dataset in order for it to fit into the SDTM-based PP domain."^^xsd:string ;
  cdiscs:partOfSection <http://rdf.cdisc.org/std/sdtmig-3-1-2#Section.PP.000> ;
.
<http://rdf.cdisc.org/std/sdtmig-3-1-2#Assumption.PP.000.003>
  rdf:type cdiscs:Assumption ;
  mms:ordinal "3"^^xsd:positiveInteger ;
  cdiscs:about <http://rdf.cdisc.org/std/sdtmig-3-1-2#Dataset.PP> ;
  cdiscs:assumptionText "The structure is one record per PK parameter per time-concentration profile per subject."^^xsd:string ;
  cdiscs:partOfSection <http://rdf.cdisc.org/std/sdtmig-3-1-2#Section.PP.000> ;
.
<http://rdf.cdisc.org/std/sdtmig-3-1-2#Assumption.PP.000.004>
  rdf:type cdiscs:Assumption ;
  mms:ordinal "4"^^xsd:positiveInteger ;
  cdiscs:about <http://rdf.cdisc.org/std/sdtmig-3-1-2#Dataset.PP> ;
  cdiscs:assumptionText "Information pertaining to all parameters (e.g., number of exponents, model weighting) should be submitted in the SUPPPP dataset."^^xsd:string ;
  cdiscs:partOfSection <http://rdf.cdisc.org/std/sdtmig-3-1-2#Section.PP.000> ;
.
<http://rdf.cdisc.org/std/sdtmig-3-1-2#Assumption.PP.000.005>
  rdf:type cdiscs:Assumption ;
  mms:ordinal "5"^^xsd:positiveInteger ;
  cdiscs:about <http://rdf.cdisc.org/std/sdtmig-3-1-2#Dataset.PP> ;
  cdiscs:assumptionText "The following Qualifiers would not generally be used in PP: --BODSYS, --SEV."^^xsd:string ;
  cdiscs:partOfSection <http://rdf.cdisc.org/std/sdtmig-3-1-2#Section.PP.000> ;
.
<http://rdf.cdisc.org/std/sdtmig-3-1-2#Assumption.QS.000.001>
  rdf:type cdiscs:Assumption ;
  mms:ordinal "1"^^xsd:positiveInteger ;
  cdiscs:about <http://rdf.cdisc.org/std/sdtmig-3-1-2#Column.QS.QSCAT> ;
  cdiscs:about <http://rdf.cdisc.org/std/sdtmig-3-1-2#Dataset.QS> ;
  cdiscs:assumptionText "QS Definition: A written or electronic survey instrument comprised of a series of questions, designed to measure a specific item or set of items. Questionnaires are research instruments that usually have a documented method of administration, a standard format for data collection, and documented methods for scoring, analysis, and interpretation of results. A questionnaire is often analyzed by applying a numeric scoring system to question responses, where each question response is assigned a specific numeric \"score\" that can be totaled to give an overall score (and possibly sectional sub-scores). Questionnaire data may include, but are not limited to subject reported outcomes and validated or non-validated questionnaires. The QS domain is not intended for use in submitting a set of questions grouped on the CRF for convenience of data capture. Some diaries are vehicles for collecting data for a validated questionnaire while others may simply facilitate capture of routine study data. When objective numeric data with result Qualifiers are collected in a questionnaire or diary format, the sponsor should consider whether this data actually belongs in a separate (new or existing) domain. For example, if the subject records the number of caffeinated beverages consumed each day in a diary, this information might be more appropriate for the Substance Use domain. The names of the questionnaires should be described under the variable QSCAT in the questionnaire domain. These could be either abbreviations or longer names, at the sponsor's discretion until controlled terminology is developed. For example, Alzheimer's Disease Assessment Scale (ADAS), SF-36 Health Survey (SF36), Positive and Negative Syndrome Scale (PANSS)."^^xsd:string ;
  cdiscs:partOfSection <http://rdf.cdisc.org/std/sdtmig-3-1-2#Section.QS.000> ;
.
<http://rdf.cdisc.org/std/sdtmig-3-1-2#Assumption.QS.000.002>
  rdf:type cdiscs:Assumption ;
  mms:ordinal "2"^^xsd:positiveInteger ;
  cdiscs:about <http://rdf.cdisc.org/std/sdtmig-3-1-2#Column.QS.QSSCAT> ;
  cdiscs:assumptionText "Names of subcategories for groups of items/questions could be described under QSSCAT."^^xsd:string ;
  cdiscs:partOfSection <http://rdf.cdisc.org/std/sdtmig-3-1-2#Section.QS.000> ;
.
<http://rdf.cdisc.org/std/sdtmig-3-1-2#Assumption.QS.000.003>
  rdf:type cdiscs:Assumption ;
  mms:ordinal "3"^^xsd:positiveInteger ;
  cdiscs:about <http://rdf.cdisc.org/std/sdtmig-3-1-2#Column.QS.QSDRVFL> ;
  cdiscs:about <http://rdf.cdisc.org/std/sdtmig-3-1-2#Column.QS.QSSCAT> ;
  cdiscs:about <http://rdf.cdisc.org/std/sdtmig-3-1-2#Column.QS.QSSTRESC> ;
  cdiscs:about <http://rdf.cdisc.org/std/sdtmig-3-1-2#Column.QS.QSSTRESN> ;
  cdiscs:about <http://rdf.cdisc.org/std/sdtmig-3-1-2#Column.QS.QSTEST> ;
  cdiscs:assumptionText "Derived information such as total scores and sub scores, etc., may be stored in the QS domain as derived records with appropriate category/subcategory names (QSSCAT), item names (QSTEST), and results (QSSTRESC, QSSTRESN). Derived records should be flagged by QSDRVFL. Single score measurements or results may go into questionnaire (e.g., APACHE Score, ECOG), but the sponsor should consider if the results should go into a more appropriate domain."^^xsd:string ;
  cdiscs:partOfSection <http://rdf.cdisc.org/std/sdtmig-3-1-2#Section.QS.000> ;
.
<http://rdf.cdisc.org/std/sdtmig-3-1-2#Assumption.QS.000.004>
  rdf:type cdiscs:Assumption ;
  mms:ordinal "4"^^xsd:positiveInteger ;
  cdiscs:about <http://rdf.cdisc.org/std/sdtmig-3-1-2#Dataset.QS> ;
  cdiscs:assumptionText "The following Qualifiers would not generally be used in QS: --POS, --BODSYS, --ORNRLO, --ORNRHI, --STNRLO, --STNRHI, --STRNC, --NRIND, --RESCAT, --XFN, --LOINC, --SPEC, --SPCCND, --LOC, --METHOD, --FAST, --TOX, --TOXGR, --SEV."^^xsd:string ;
  cdiscs:partOfSection <http://rdf.cdisc.org/std/sdtmig-3-1-2#Section.QS.000> ;
.
<http://rdf.cdisc.org/std/sdtmig-3-1-2#Assumption.QS.000.005>
  rdf:type cdiscs:Assumption ;
  mms:ordinal "5"^^xsd:positiveInteger ;
  cdiscs:about <http://rdf.cdisc.org/std/sdtmig-3-1-2#Column.QS.QSCAT> ;
  cdiscs:assumptionText "The sponsor is expected to provide information about the version used for each validated questionnaire in the metadata (using the Comments column in the define.xml ). This could be provided as value-level metadata for QSCAT. If more than one version of a questionnaire is used in a study, the version used for each record should be specified in the Supplemental Qualifiers datasets, as described in Section 8.4. The sponsor is expected to provide information about the scoring rules in the metadata."^^xsd:string ;
  cdiscs:partOfSection <http://rdf.cdisc.org/std/sdtmig-3-1-2#Section.QS.000> ;
.
<http://rdf.cdisc.org/std/sdtmig-3-1-2#Assumption.QS.000.006>
  rdf:type cdiscs:Assumption ;
  mms:ordinal "6"^^xsd:positiveInteger ;
  cdiscs:about <http://rdf.cdisc.org/std/sdtmig-3-1-2#Column.QS.QSTEST> ;
  cdiscs:assumptionText "If the verbatim question text is > 40 characters, put meaningful text in QSTEST and describe the full text in the study metadata. See Section 4.1.5.3.1 for further information."^^xsd:string ;
  cdiscs:partOfSection <http://rdf.cdisc.org/std/sdtmig-3-1-2#Section.QS.000> ;
.
<http://rdf.cdisc.org/std/sdtmig-3-1-2#Assumption.SC.000.001>
  rdf:type cdiscs:Assumption ;
  mms:ordinal "1"^^xsd:positiveInteger ;
  cdiscs:about <http://rdf.cdisc.org/std/sdtmig-3-1-2#Dataset.SC> ;
  cdiscs:assumptionText "SC Definition: Subject Characteristics is for data not collected in other domains that are subject-related. Examples: subject initials, eye color, childbearing status, etc."^^xsd:string ;
  cdiscs:partOfSection <http://rdf.cdisc.org/std/sdtmig-3-1-2#Section.SC.000> ;
.
<http://rdf.cdisc.org/std/sdtmig-3-1-2#Assumption.SC.000.002>
  rdf:type cdiscs:Assumption ;
  mms:ordinal "2"^^xsd:positiveInteger ;
  cdiscs:about <http://rdf.cdisc.org/std/sdtmig-3-1-2#Dataset.SC> ;
  cdiscs:assumptionText "The structure for demographic data is fixed and includes date of birth, age, sex, race, ethnicity and country. The structure of subject characteristics is based on the Findings general observation class and is an extension of the demographics data. Subject Characteristics consists of data that is collected once per subject (per test). SC contains data that is either not normally expected to change during the trial or whose change is not of interest after the initial collection. Sponsor should ensure that data considered for submission in SC do not actually belong in another domain."^^xsd:string ;
  cdiscs:partOfSection <http://rdf.cdisc.org/std/sdtmig-3-1-2#Section.SC.000> ;
.
<http://rdf.cdisc.org/std/sdtmig-3-1-2#Assumption.SC.000.003>
  rdf:type cdiscs:Assumption ;
  mms:ordinal "3"^^xsd:positiveInteger ;
  cdiscs:about <http://rdf.cdisc.org/std/sdtmig-3-1-2#Dataset.SC> ;
  cdiscs:assumptionText "The following Qualifiers would not generally be used in SC: --MODIFY, --POS, --BODSYS, --ORNRLO, --ORNRHI, --STNRLO, --STNRHI, --STNRC, --NRIND, --RESCAT, --XFN, --NAM, --LOINC, --SPEC, --SPCCND, --METHOD, --BLFL, --FAST, --DRVRL, --TOX, --TOXGR, --SEV."^^xsd:string ;
  cdiscs:partOfSection <http://rdf.cdisc.org/std/sdtmig-3-1-2#Section.SC.000> ;
.
<http://rdf.cdisc.org/std/sdtmig-3-1-2#Assumption.SE.000.001>
  rdf:type cdiscs:Assumption ;
  mms:ordinal "1"^^xsd:positiveInteger ;
  cdiscs:about <http://rdf.cdisc.org/std/sdtmig-3-1-2#Dataset.SE> ;
  cdiscs:assumptionText "Submission of the Subject Elements dataset is strongly recommended, as it provides information needed by reviewers to place observations in context within the study. The Trial Elements and Trial Arms datasets should also be submitted, as they define the design and the terms referenced by the Subject Elements dataset."^^xsd:string ;
  cdiscs:partOfSection <http://rdf.cdisc.org/std/sdtmig-3-1-2#Section.SE.000> ;
.
<http://rdf.cdisc.org/std/sdtmig-3-1-2#Assumption.SE.000.002>
  rdf:type cdiscs:Assumption ;
  mms:ordinal "2"^^xsd:positiveInteger ;
  cdiscs:about <http://rdf.cdisc.org/std/sdtmig-3-1-2#Dataset.SE> ;
  cdiscs:assumptionText "The Subject Elements domain allows the submission of data on the timing of the trial Elements a subject actually passed through in their participation in the trial. Please read Section 7.3, on the Trial Elements dataset and Section 7.2, on the Trial Arms dataset, as these datasets define a trial's planned Elements, and describe the planned sequences of Elements for the Arms of the trial."^^xsd:string ;
  cdiscs:partOfSection <http://rdf.cdisc.org/std/sdtmig-3-1-2#Section.SE.000> ;
.
<http://rdf.cdisc.org/std/sdtmig-3-1-2#Assumption.SE.000.003>
  rdf:type cdiscs:Assumption ;
  mms:ordinal "3"^^xsd:positiveInteger ;
  cdiscs:about <http://rdf.cdisc.org/std/sdtmig-3-1-2#Column.SE.ELEMENT> ;
  cdiscs:about <http://rdf.cdisc.org/std/sdtmig-3-1-2#Column.SE.SEENDTC> ;
  cdiscs:about <http://rdf.cdisc.org/std/sdtmig-3-1-2#Column.SE.SESTDTC> ;
  cdiscs:assumptionText "For any particular subject, the dates in the Subject Elements table are the dates when the transition events identified in the Trial Elements table occurred. Judgment may be needed to match actual events in a subject's experience with the definitions of transition events (the events that mark the starts of new Elements) in the Trial Elements table, since actual events may vary from the plan. For instance, in a single dose PK study, the transition events might correspond to study drug doses of 5 and 10 mg. If a subject actually received a dose of 7 mg when they were scheduled to receive 5 mg, a decision will have to be made on how to represent this in the SE domain."^^xsd:string ;
  cdiscs:partOfSection <http://rdf.cdisc.org/std/sdtmig-3-1-2#Section.SE.000> ;
.
<http://rdf.cdisc.org/std/sdtmig-3-1-2#Assumption.SE.000.004>
  rdf:type cdiscs:Assumption ;
  mms:ordinal "4"^^xsd:positiveInteger ;
  cdiscs:about <http://rdf.cdisc.org/std/sdtmig-3-1-2#Column.SE.SESTDTC> ;
  cdiscs:assumptionText "If the date/time of a transition Element was not collected directly, the method used to infer the Element start date/time should be explained in the Comments column of the define.xml."^^xsd:string ;
  cdiscs:partOfSection <http://rdf.cdisc.org/std/sdtmig-3-1-2#Section.SE.000> ;
.
<http://rdf.cdisc.org/std/sdtmig-3-1-2#Assumption.SE.000.005>
  rdf:type cdiscs:Assumption ;
  mms:ordinal "5"^^xsd:positiveInteger ;
  cdiscs:about <http://rdf.cdisc.org/std/sdtmig-3-1-2#Column.SE.ELEMENT> ;
  cdiscs:assumptionText "Judgment will also have to be used in deciding how to represent a subject's experience if an Element does not proceed or end as planned. For instance, the plan might identify a trial Element which is to start with the first of a series of 5 daily doses and end after 1 week, when the subject transitions to the next treatment Element. If the subject actually started the next treatment Epoch (see Section 7.1.2) after 4 weeks, the sponsor will have to decide whether to represent this as an abnormally long Element, or as a normal Element plus an unplanned non-treatment Element."^^xsd:string ;
  cdiscs:partOfSection <http://rdf.cdisc.org/std/sdtmig-3-1-2#Section.SE.000> ;
.
<http://rdf.cdisc.org/std/sdtmig-3-1-2#Assumption.SE.000.006>
  rdf:type cdiscs:Assumption ;
  mms:ordinal "6"^^xsd:positiveInteger ;
  cdiscs:about <http://rdf.cdisc.org/std/sdtmig-3-1-2#Column.SE.ELEMENT> ;
  cdiscs:about <http://rdf.cdisc.org/std/sdtmig-3-1-2#Column.SE.SEUPDES> ;
  cdiscs:assumptionText "If the sponsor decides that the subject's experience for a particular period of time cannot be represented with one of the planned Elements, then that period of time should be represented as an unplanned Element. The value of ETCD for an unplanned Element is \"UNPLAN\" and SEUPDES should be populated with a description of the unplanned Element."^^xsd:string ;
  cdiscs:partOfSection <http://rdf.cdisc.org/std/sdtmig-3-1-2#Section.SE.000> ;
.
<http://rdf.cdisc.org/std/sdtmig-3-1-2#Assumption.SE.000.007>
  rdf:type cdiscs:Assumption ;
  mms:ordinal "7"^^xsd:positiveInteger ;
  cdiscs:about <http://rdf.cdisc.org/std/sdtmig-3-1-2#Column.SE.SESEQ> ;
  cdiscs:about <http://rdf.cdisc.org/std/sdtmig-3-1-2#Column.SE.SESTDTC> ;
  cdiscs:assumptionText "The values of SESTDTC provide the chronological order of the actual subject Elements. SESEQ should be assigned to be consistent with the chronological order. Note that the requirement that SESEQ be consistent with chronological order is more stringent than in most other domains, where --SEQ values need only be unique within subject."^^xsd:string ;
  cdiscs:partOfSection <http://rdf.cdisc.org/std/sdtmig-3-1-2#Section.SE.000> ;
.
<http://rdf.cdisc.org/std/sdtmig-3-1-2#Assumption.SE.000.008>
  rdf:type cdiscs:Assumption ;
  mms:ordinal "8"^^xsd:positiveInteger ;
  cdiscs:about <http://rdf.cdisc.org/std/sdtmig-3-1-2#Column.SE.TAETORD> ;
  cdiscs:assumptionText "When TAETORD is included in the SE domain, it represents the planned order of an Element in an Arm. This should not be confused with the actual order of the Elements, which will be represented by their chronological order and SESEQ. TAETORD will not be populated for subject Elements that are not planned for the Arm to which the subject was assigned. Thus, TAETORD will not be populated for any Element with an ETCD value of \"UNPLAN\". TAETORD will also not be populated if a subject passed through an Element that, although defined in the TE dataset, was out of place for the Arm to which the subject was assigned. For example, if a subject in a parallel study of Drug A vs. Drug B was assigned to receive Drug A, but received Drug B instead, then TAETORD would be left blank for the SE record for their Drug B Element. If a subject was assigned to receive the sequence of Elements A, B, C, D, and instead received A, D, B, C, then the sponsor would have to decide for which of these subject Element records TAETORD should be populated. The rationale for this decision should be documented in the Comments column of the define.xml."^^xsd:string ;
  cdiscs:partOfSection <http://rdf.cdisc.org/std/sdtmig-3-1-2#Section.SE.000> ;
.
<http://rdf.cdisc.org/std/sdtmig-3-1-2#Assumption.SE.000.009>
  rdf:type cdiscs:Assumption ;
  mms:ordinal "9"^^xsd:positiveInteger ;
  cdiscs:about <http://rdf.cdisc.org/std/sdtmig-3-1-2#Column.SE.EPOCH> ;
  cdiscs:assumptionText "For subjects who follow the planned sequence of Elements for the Arm to which they were assigned, the values of EPOCH in the SE domain will match those associated with the Elements for the subject's Arm in the Trial Arms dataset. The sponsor will have to decide what value, if any, of EPOCH to assign SE records for unplanned Elements and in other cases where the subject's actual Elements deviate from the plan. The sponsor's methods for such decisions should be documented in the define.xml, in the row for EPOCH in the SE dataset table."^^xsd:string ;
  cdiscs:partOfSection <http://rdf.cdisc.org/std/sdtmig-3-1-2#Section.SE.000> ;
.
<http://rdf.cdisc.org/std/sdtmig-3-1-2#Assumption.SE.000.010>
  rdf:type cdiscs:Assumption ;
  mms:ordinal "10"^^xsd:positiveInteger ;
  cdiscs:about <http://rdf.cdisc.org/std/sdtmig-3-1-2#Column.SE.SEENDTC> ;
  cdiscs:assumptionText "Since there are, by definition, no gaps between Elements, the value of SEENDTC for one Element will always be the same as the value of SESTDTC for the next Element."^^xsd:string ;
  cdiscs:partOfSection <http://rdf.cdisc.org/std/sdtmig-3-1-2#Section.SE.000> ;
.
<http://rdf.cdisc.org/std/sdtmig-3-1-2#Assumption.SE.000.011>
  rdf:type cdiscs:Assumption ;
  mms:ordinal "11"^^xsd:positiveInteger ;
  cdiscs:about <http://rdf.cdisc.org/std/sdtmig-3-1-2#Column.SE.SESTDTC> ;
  cdiscs:assumptionText "Note that SESTDTC is required, although --STDTC is not required in any other subject-level dataset. The purpose of the dataset is to record the Elements a subject actually passed through. We assume that if it is known that a subject passed through a particular Element, then there must be some information on when it started, even if that information is imprecise. Thus, SESTDTC may not be null, although some records may not have all the components (e.g., year, month, day, hour, minute) of the date/time value collected."^^xsd:string ;
  cdiscs:partOfSection <http://rdf.cdisc.org/std/sdtmig-3-1-2#Section.SE.000> ;
.
<http://rdf.cdisc.org/std/sdtmig-3-1-2#Assumption.SE.000.012>
  rdf:type cdiscs:Assumption ;
  mms:ordinal "12"^^xsd:positiveInteger ;
  cdiscs:about <http://rdf.cdisc.org/std/sdtmig-3-1-2#Dataset.SE> ;
  cdiscs:assumptionText "The following Identifier variables are permissible and may be added as appropriate: --GRPID, --REFID, --SPID."^^xsd:string ;
  cdiscs:partOfSection <http://rdf.cdisc.org/std/sdtmig-3-1-2#Section.SE.000> ;
.
<http://rdf.cdisc.org/std/sdtmig-3-1-2#Assumption.SE.000.013.001>
  rdf:type cdiscs:Assumption ;
  mms:ordinal "13"^^xsd:positiveInteger ;
  cdiscs:about <http://rdf.cdisc.org/std/sdtmig-3-1-2#Dataset.SE> ;
  cdiscs:assumptionText "Additional timing variables: The purpose of --DTC and --DY in other domains with start and end dates (Event and Intervention Domains) is to record the date and study day on which data was collected. The starts and ends of elements are generally \"derived\" in the sense that they are a secondary use of data collected elsewhere, and it is not generally useful to know when those date/times were recorded."^^xsd:string ;
  cdiscs:partOfSection <http://rdf.cdisc.org/std/sdtmig-3-1-2#Section.SE.000> ;
.
<http://rdf.cdisc.org/std/sdtmig-3-1-2#Assumption.SE.000.013.002>
  rdf:type cdiscs:Assumption ;
  mms:ordinal "14"^^xsd:positiveInteger ;
  cdiscs:about <http://rdf.cdisc.org/std/sdtmig-3-1-2#Dataset.SE> ;
  cdiscs:assumptionText "Additional timing variables: --DUR could be added only if the duration of an element was collected, not derived."^^xsd:string ;
  cdiscs:partOfSection <http://rdf.cdisc.org/std/sdtmig-3-1-2#Section.SE.000> ;
.
<http://rdf.cdisc.org/std/sdtmig-3-1-2#Assumption.SE.000.013.003>
  rdf:type cdiscs:Assumption ;
  mms:ordinal "15"^^xsd:positiveInteger ;
  cdiscs:about <http://rdf.cdisc.org/std/sdtmig-3-1-2#Dataset.SE> ;
  cdiscs:assumptionText "Additional timing variables: It would be inappropriate to add the variables that support time points (--TPT, --TPTNUM, --ELTM, --TPTREF, and --RFTDTC), since the topic of this dataset is Elements."^^xsd:string ;
  cdiscs:partOfSection <http://rdf.cdisc.org/std/sdtmig-3-1-2#Section.SE.000> ;
.
<http://rdf.cdisc.org/std/sdtmig-3-1-2#Assumption.SU.001.001>
  rdf:type cdiscs:Assumption ;
  mms:ordinal "1"^^xsd:positiveInteger ;
  cdiscs:about <http://rdf.cdisc.org/std/sdtmig-3-1-2#Dataset.SU> ;
  cdiscs:assumptionText "The intent of the domain is to capture substance use information that may be used to assess the efficacy and/or safety of therapies that look to mitigate the effects of chronic substance use, or that could be used as covariates in other efficacy and/or safety analyses."^^xsd:string ;
  cdiscs:partOfSection <http://rdf.cdisc.org/std/sdtmig-3-1-2#Section.SU.001> ;
.
<http://rdf.cdisc.org/std/sdtmig-3-1-2#Assumption.SU.002.001>
  rdf:type cdiscs:Assumption ;
  mms:ordinal "2"^^xsd:positiveInteger ;
  cdiscs:about <http://rdf.cdisc.org/std/sdtmig-3-1-2#Dataset.SU> ;
  cdiscs:assumptionText "a. This information may be independent of planned study evaluations, or may be a key outcome (e.g., planned evaluation) of a clinical trial."^^xsd:string ;
  cdiscs:partOfSection <http://rdf.cdisc.org/std/sdtmig-3-1-2#Section.SU.002> ;
.
<http://rdf.cdisc.org/std/sdtmig-3-1-2#Assumption.SU.002.002>
  rdf:type cdiscs:Assumption ;
  mms:ordinal "3"^^xsd:positiveInteger ;
  cdiscs:about <http://rdf.cdisc.org/std/sdtmig-3-1-2#Dataset.SU> ;
  cdiscs:assumptionText "b. In many clinical trials, detailed substance use information as provided for in the domain model above may not be required (e.g., the only information collected may be a response to the question \"Have you ever smoked tobacco?\"); in such cases, many of the Qualifier variables would not be submitted."^^xsd:string ;
  cdiscs:partOfSection <http://rdf.cdisc.org/std/sdtmig-3-1-2#Section.SU.002> ;
.
<http://rdf.cdisc.org/std/sdtmig-3-1-2#Assumption.SU.002.003>
  rdf:type cdiscs:Assumption ;
  mms:ordinal "4"^^xsd:positiveInteger ;
  cdiscs:about <http://rdf.cdisc.org/std/sdtmig-3-1-2#Dataset.SU> ;
  cdiscs:assumptionText "c. SU may contain responses to questions about use of pre-specified substances as well as records of substance use collected as free text."^^xsd:string ;
  cdiscs:partOfSection <http://rdf.cdisc.org/std/sdtmig-3-1-2#Section.SU.002> ;
.
<http://rdf.cdisc.org/std/sdtmig-3-1-2#Assumption.SU.003.001>
  rdf:type cdiscs:Assumption ;
  mms:ordinal "5"^^xsd:positiveInteger ;
  cdiscs:about <http://rdf.cdisc.org/std/sdtmig-3-1-2#Column.SU.SUTRT> ;
  cdiscs:assumptionText "a. SUTRT captures the verbatim or the pre-specified text collected for the substance. It is the topic variable for the SU dataset. SUTRT is a required variable and must have a value."^^xsd:string ;
  cdiscs:partOfSection <http://rdf.cdisc.org/std/sdtmig-3-1-2#Section.SU.003> ;
.
<http://rdf.cdisc.org/std/sdtmig-3-1-2#Assumption.SU.003.002>
  rdf:type cdiscs:Assumption ;
  mms:ordinal "6"^^xsd:positiveInteger ;
  cdiscs:about <http://rdf.cdisc.org/std/sdtmig-3-1-2#Column.SU.SUMODIFY> ;
  cdiscs:assumptionText "b. SUMODIFY is a permissible variable and should be included if coding is performed and the sponsor's procedure permits modification of a verbatim substance use term for coding. The modified term is listed in SUMODIFY. The variable may be populated as per the sponsor's procedures."^^xsd:string ;
  cdiscs:partOfSection <http://rdf.cdisc.org/std/sdtmig-3-1-2#Section.SU.003> ;
.
<http://rdf.cdisc.org/std/sdtmig-3-1-2#Assumption.SU.003.003>
  rdf:type cdiscs:Assumption ;
  mms:ordinal "7"^^xsd:positiveInteger ;
  cdiscs:about <http://rdf.cdisc.org/std/sdtmig-3-1-2#Column.SU.SUDECOD> ;
  cdiscs:about <http://rdf.cdisc.org/std/sdtmig-3-1-2#Column.SU.SUTRT> ;
  cdiscs:assumptionText "c. SUDECOD is the preferred term derived by the sponsor from the coding dictionary if coding is performed. It is a permissible variable. Where deemed necessary by the sponsor, the verbatim term (SUTRT) should be coded using a standard dictionary such as WHO Drug. The sponsor is expected to provide the dictionary name and version used to map the terms utilizing the define.xml external codelist attributes."^^xsd:string ;
  cdiscs:partOfSection <http://rdf.cdisc.org/std/sdtmig-3-1-2#Section.SU.003> ;
.
<http://rdf.cdisc.org/std/sdtmig-3-1-2#Assumption.SU.004.001>
  rdf:type cdiscs:Assumption ;
  mms:ordinal "8"^^xsd:positiveInteger ;
  cdiscs:about <http://rdf.cdisc.org/std/sdtmig-3-1-2#Column.SU.SUCAT> ;
  cdiscs:about <http://rdf.cdisc.org/std/sdtmig-3-1-2#Column.SU.SUSCAT> ;
  cdiscs:assumptionText "a. SUCAT and SUSCAT should not be redundant with the domain code or dictionary classification provided by SUDECOD, or with SUTRT. That is, they should provide a different means of defining or classifying SU records. For example, a sponsor may be interested in identifying all substances that the investigator feels might represent opium use, and to collect such use on a separate CRF page. This categorization might differ from the categorization derived from the coding dictionary."^^xsd:string ;
  cdiscs:partOfSection <http://rdf.cdisc.org/std/sdtmig-3-1-2#Section.SU.004> ;
.
<http://rdf.cdisc.org/std/sdtmig-3-1-2#Assumption.SU.004.002>
  rdf:type cdiscs:Assumption ;
  mms:ordinal "9"^^xsd:positiveInteger ;
  cdiscs:about <http://rdf.cdisc.org/std/sdtmig-3-1-2#Column.SU.SUGRPID> ;
  cdiscs:assumptionText "b. SUGRPID may be used to link (or associate) different records together to form a block of related records within SU at the subject level (see Section 4.1.2.6). It should not be used in place of SUCAT or SUSCAT."^^xsd:string ;
  cdiscs:partOfSection <http://rdf.cdisc.org/std/sdtmig-3-1-2#Section.SU.004> ;
.
<http://rdf.cdisc.org/std/sdtmig-3-1-2#Assumption.SU.005.001>
  rdf:type cdiscs:Assumption ;
  mms:ordinal "10"^^xsd:positiveInteger ;
  cdiscs:about <http://rdf.cdisc.org/std/sdtmig-3-1-2#Column.SU.SUENDTC> ;
  cdiscs:about <http://rdf.cdisc.org/std/sdtmig-3-1-2#Column.SU.SUSTDTC> ;
  cdiscs:assumptionText "a. SUSTDTC and SUENDTC may be populated as required."^^xsd:string ;
  cdiscs:partOfSection <http://rdf.cdisc.org/std/sdtmig-3-1-2#Section.SU.005> ;
.
<http://rdf.cdisc.org/std/sdtmig-3-1-2#Assumption.SU.005.002>
  rdf:type cdiscs:Assumption ;
  mms:ordinal "11"^^xsd:positiveInteger ;
  cdiscs:about <http://rdf.cdisc.org/std/sdtmig-3-1-2#Dataset.SU> ;
  cdiscs:assumptionText "b. If substance use information is collected more than once within the CRF (indicating that the data are visit-based) then VISITNUM would be added to the domain as an additional timing variable. VISITDY and VISIT would then be permissible variables."^^xsd:string ;
  cdiscs:partOfSection <http://rdf.cdisc.org/std/sdtmig-3-1-2#Section.SU.005> ;
.
<http://rdf.cdisc.org/std/sdtmig-3-1-2#Assumption.SU.006.001>
  rdf:type cdiscs:Assumption ;
  mms:ordinal "12"^^xsd:positiveInteger ;
  cdiscs:about <http://rdf.cdisc.org/std/sdtmig-3-1-2#Dataset.SU> ;
  cdiscs:assumptionText "a. Any additional Qualifiers from the Interventions Class may be added to this domain."^^xsd:string ;
  cdiscs:partOfSection <http://rdf.cdisc.org/std/sdtmig-3-1-2#Section.SU.006> ;
.
<http://rdf.cdisc.org/std/sdtmig-3-1-2#Assumption.SV.000.001>
  rdf:type cdiscs:Assumption ;
  mms:ordinal "1"^^xsd:positiveInteger ;
  cdiscs:about <http://rdf.cdisc.org/std/sdtmig-3-1-2#Dataset.SV> ;
  cdiscs:assumptionText "The Subject Visits domain allows the submission of data on the timing of the trial visits a subject actually passed through in their participation in the trial. Please read Section 7.4 on the Trial Visits dataset, as the Trial Visits dataset defines the planned visits for the trial."^^xsd:string ;
  cdiscs:partOfSection <http://rdf.cdisc.org/std/sdtmig-3-1-2#Section.SV.000> ;
.
<http://rdf.cdisc.org/std/sdtmig-3-1-2#Assumption.SV.000.002>
  rdf:type cdiscs:Assumption ;
  mms:ordinal "2"^^xsd:positiveInteger ;
  cdiscs:about <http://rdf.cdisc.org/std/sdtmig-3-1-2#Column.SV.VISITNUM> ;
  cdiscs:assumptionText "The identification of an actual visit with a planned visit sometimes calls for judgment. In general, data collection forms are prepared for particular visits, and the fact that data was collected on a form labeled with a planned visit is sufficient to make the association. Occasionally, the association will not be so clear, and the sponsor will need to make decisions about how to label actual visits. The sponsor's rules for making such decisions should be documented in the define.xml document."^^xsd:string ;
  cdiscs:partOfSection <http://rdf.cdisc.org/std/sdtmig-3-1-2#Section.SV.000> ;
.
<http://rdf.cdisc.org/std/sdtmig-3-1-2#Assumption.SV.000.003>
  rdf:type cdiscs:Assumption ;
  mms:ordinal "3"^^xsd:positiveInteger ;
  cdiscs:about <http://rdf.cdisc.org/std/sdtmig-3-1-2#Column.SV.SVUPDES> ;
  cdiscs:about <http://rdf.cdisc.org/std/sdtmig-3-1-2#Column.SV.VISITNUM> ;
  cdiscs:assumptionText "Records for unplanned visits should be included in the SV dataset. For unplanned visits, SVUPDES should be populated with a description of the reason for the unplanned visit. Some judgment may be required to determine what constitutes an unplanned visit. When data are collected outside a planned visit, that act of collecting data may or may not be described as a \"visit.\" The encounter should generally be treated as a visit if data from the encounter are included in any domain for which VISITNUM is included."^^xsd:string ;
  cdiscs:partOfSection <http://rdf.cdisc.org/std/sdtmig-3-1-2#Section.SV.000> ;
.
<http://rdf.cdisc.org/std/sdtmig-3-1-2#Assumption.SV.000.004>
  rdf:type cdiscs:Assumption ;
  mms:ordinal "4"^^xsd:positiveInteger ;
  cdiscs:about <http://rdf.cdisc.org/std/sdtmig-3-1-2#Column.SV.VISITDY> ;
  cdiscs:assumptionText "VISITDY is the Planned Study Day of a visit. It should not be populated for unplanned visits."^^xsd:string ;
  cdiscs:partOfSection <http://rdf.cdisc.org/std/sdtmig-3-1-2#Section.SV.000> ;
.
<http://rdf.cdisc.org/std/sdtmig-3-1-2#Assumption.SV.000.005>
  rdf:type cdiscs:Assumption ;
  mms:ordinal "5"^^xsd:positiveInteger ;
  cdiscs:about <http://rdf.cdisc.org/std/sdtmig-3-1-2#Column.SV.SVSTDTC> ;
  cdiscs:about <http://rdf.cdisc.org/std/sdtmig-3-1-2#Column.SV.SVSTDY> ;
  cdiscs:assumptionText "If SVSTDY is included, it is the actual study day corresponding to SVSTDTC. In studies for which VISITDY has been populated, it may be desirable to populate SVSTDY, as this will facilitate the comparison of planned (VISITDY) and actual (SVSTDY) study days for the start of a visit."^^xsd:string ;
  cdiscs:partOfSection <http://rdf.cdisc.org/std/sdtmig-3-1-2#Section.SV.000> ;
.
<http://rdf.cdisc.org/std/sdtmig-3-1-2#Assumption.SV.000.006>
  rdf:type cdiscs:Assumption ;
  mms:ordinal "6"^^xsd:positiveInteger ;
  cdiscs:about <http://rdf.cdisc.org/std/sdtmig-3-1-2#Column.SV.SVENDTC> ;
  cdiscs:about <http://rdf.cdisc.org/std/sdtmig-3-1-2#Column.SV.SVENDY> ;
  cdiscs:assumptionText "If SVENDY is included, it is the actual day corresponding to SVENDTC."^^xsd:string ;
  cdiscs:partOfSection <http://rdf.cdisc.org/std/sdtmig-3-1-2#Section.SV.000> ;
.
<http://rdf.cdisc.org/std/sdtmig-3-1-2#Assumption.SV.000.007>
  rdf:type cdiscs:Assumption ;
  mms:ordinal "7"^^xsd:positiveInteger ;
  cdiscs:about <http://rdf.cdisc.org/std/sdtmig-3-1-2#Column.SV.SVENDTC> ;
  cdiscs:about <http://rdf.cdisc.org/std/sdtmig-3-1-2#Column.SV.SVSTDTC> ;
  cdiscs:assumptionText "For many studies, all visits are assumed to occur within one calendar day, and only one date is collected for the Visit. In such a case, the values for SVENDTC duplicate values in SVSTDTC. However, if the data for a visit is actually collected over several physical visits and/or over several days, then SVSTDTC and SVENDTC should reflect this fact. Note that it is fairly common for screening data to be collected over several days, but for the data to be treated as belonging to a single planned screening visit, even in studies for which all other visits are single-day visits."^^xsd:string ;
  cdiscs:partOfSection <http://rdf.cdisc.org/std/sdtmig-3-1-2#Section.SV.000> ;
.
<http://rdf.cdisc.org/std/sdtmig-3-1-2#Assumption.SV.000.008>
  rdf:type cdiscs:Assumption ;
  mms:ordinal "8"^^xsd:positiveInteger ;
  cdiscs:about <http://rdf.cdisc.org/std/sdtmig-3-1-2#Column.SV.VISITNUM> ;
  cdiscs:assumptionText "Differentiating between planned and unplanned visits may be challenging if unplanned assessments (e.g., repeat labs) are performed during the time period of a planned visit."^^xsd:string ;
  cdiscs:partOfSection <http://rdf.cdisc.org/std/sdtmig-3-1-2#Section.SV.000> ;
.
<http://rdf.cdisc.org/std/sdtmig-3-1-2#Assumption.SV.000.009>
  rdf:type cdiscs:Assumption ;
  mms:ordinal "9"^^xsd:positiveInteger ;
  cdiscs:about <http://rdf.cdisc.org/std/sdtmig-3-1-2#Column.SV.SVENDTC> ;
  cdiscs:about <http://rdf.cdisc.org/std/sdtmig-3-1-2#Column.SV.SVSTDTC> ;
  cdiscs:assumptionText "Algorithms for populating SVSTDTC and SVENDTC from the dates of assessments performed at a visit may be particularly challenging for screening visits since baseline values collected at a screening visit are sometimes historical data from tests performed before the subject started screening for the trial."^^xsd:string ;
  cdiscs:partOfSection <http://rdf.cdisc.org/std/sdtmig-3-1-2#Section.SV.000> ;
.
<http://rdf.cdisc.org/std/sdtmig-3-1-2#Assumption.SV.000.010>
  rdf:type cdiscs:Assumption ;
  mms:ordinal "10"^^xsd:positiveInteger ;
  cdiscs:about <http://rdf.cdisc.org/std/sdtmig-3-1-2#Dataset.SV> ;
  cdiscs:assumptionText "The following Identifier variables are permissible and may be added as appropriate: --SEQ, --GRPID, --REFID, and --SPID."^^xsd:string ;
  cdiscs:partOfSection <http://rdf.cdisc.org/std/sdtmig-3-1-2#Section.SV.000> ;
.
<http://rdf.cdisc.org/std/sdtmig-3-1-2#Assumption.SV.000.011.001>
  rdf:type cdiscs:Assumption ;
  mms:ordinal "11"^^xsd:positiveInteger ;
  cdiscs:about <http://rdf.cdisc.org/std/sdtmig-3-1-2#Dataset.SV> ;
  cdiscs:assumptionText "Additional timing variables: If TAETORD and/or EPOCH are added, then the values must be those at the start of the visit."^^xsd:string ;
  cdiscs:partOfSection <http://rdf.cdisc.org/std/sdtmig-3-1-2#Section.SV.000> ;
.
<http://rdf.cdisc.org/std/sdtmig-3-1-2#Assumption.SV.000.011.002>
  rdf:type cdiscs:Assumption ;
  mms:ordinal "12"^^xsd:positiveInteger ;
  cdiscs:about <http://rdf.cdisc.org/std/sdtmig-3-1-2#Dataset.SV> ;
  cdiscs:assumptionText "Additional timing variables: The purpose of --DTC and --DY in other domains with start and end dates (Event and Intervention Domains) is to record the data on which data was collected. It seems unnecessary to record the date on which the start and end of a visit were recorded."^^xsd:string ;
  cdiscs:partOfSection <http://rdf.cdisc.org/std/sdtmig-3-1-2#Section.SV.000> ;
.
<http://rdf.cdisc.org/std/sdtmig-3-1-2#Assumption.SV.000.011.003>
  rdf:type cdiscs:Assumption ;
  mms:ordinal "13"^^xsd:positiveInteger ;
  cdiscs:about <http://rdf.cdisc.org/std/sdtmig-3-1-2#Dataset.SV> ;
  cdiscs:assumptionText "Additional timing variables: --DUR could be added if the duration of a visit was collected."^^xsd:string ;
  cdiscs:partOfSection <http://rdf.cdisc.org/std/sdtmig-3-1-2#Section.SV.000> ;
.
<http://rdf.cdisc.org/std/sdtmig-3-1-2#Assumption.SV.000.011.004>
  rdf:type cdiscs:Assumption ;
  mms:ordinal "14"^^xsd:positiveInteger ;
  cdiscs:about <http://rdf.cdisc.org/std/sdtmig-3-1-2#Dataset.SV> ;
  cdiscs:assumptionText "Additional timing variables: It would be inappropriate to add the variables that support time points (--TPT, --TPTNUM, --ELTM, --TPTREF, and --RFTDTC), since the topic of this dataset is visits."^^xsd:string ;
  cdiscs:partOfSection <http://rdf.cdisc.org/std/sdtmig-3-1-2#Section.SV.000> ;
.
<http://rdf.cdisc.org/std/sdtmig-3-1-2#Assumption.SV.000.011.005>
  rdf:type cdiscs:Assumption ;
  mms:ordinal "15"^^xsd:positiveInteger ;
  cdiscs:about <http://rdf.cdisc.org/std/sdtmig-3-1-2#Dataset.SV> ;
  cdiscs:assumptionText "Additional timing variables: --STRF and --ENRF could be used to say whether a visit started and ended before, during, or after the study reference period, although this seems unnecessary."^^xsd:string ;
  cdiscs:partOfSection <http://rdf.cdisc.org/std/sdtmig-3-1-2#Section.SV.000> ;
.
<http://rdf.cdisc.org/std/sdtmig-3-1-2#Assumption.SV.000.011.006>
  rdf:type cdiscs:Assumption ;
  mms:ordinal "16"^^xsd:positiveInteger ;
  cdiscs:about <http://rdf.cdisc.org/std/sdtmig-3-1-2#Dataset.SV> ;
  cdiscs:assumptionText "Additional timing variables: --STRTPT, --STTPT, --ENRTPT, and --ENTPT could be used to say that a visit started or ended before or after particular dates, although this seems unnecessary."^^xsd:string ;
  cdiscs:partOfSection <http://rdf.cdisc.org/std/sdtmig-3-1-2#Section.SV.000> ;
.
<http://rdf.cdisc.org/std/sdtmig-3-1-2#Assumption.TA.000.001>
  rdf:type cdiscs:Assumption ;
  mms:ordinal "1"^^xsd:positiveInteger ;
  cdiscs:about <http://rdf.cdisc.org/std/sdtmig-3-1-2#Column.TA.TAETORD> ;
  cdiscs:assumptionText "TAETORD is an integer. In general the value of TAETORD is 1 for the first Element in each Arm, 2 for the second Element in each Arm, etc. Occasionally, it may be convenient to skip some values (see Section 7.2.3.6 for an example). Although the values of TAETORD need not always be sequential, their order must always be the correct order for the Elements in the Arm path."^^xsd:string ;
  cdiscs:partOfSection <http://rdf.cdisc.org/std/sdtmig-3-1-2#Section.TA.000> ;
.
<http://rdf.cdisc.org/std/sdtmig-3-1-2#Assumption.TA.000.002>
  rdf:type cdiscs:Assumption ;
  mms:ordinal "2"^^xsd:positiveInteger ;
  cdiscs:about <http://rdf.cdisc.org/std/sdtmig-3-1-2#Column.TA.TAETORD> ;
  cdiscs:assumptionText "Elements in different Arms with the same value of TAETORD may or may not be at the same time, depending on the design of the trial. The example trials illustrate a variety of possible situations. The same Element may occur more than once within an Arm."^^xsd:string ;
  cdiscs:partOfSection <http://rdf.cdisc.org/std/sdtmig-3-1-2#Section.TA.000> ;
.
<http://rdf.cdisc.org/std/sdtmig-3-1-2#Assumption.TA.000.003>
  rdf:type cdiscs:Assumption ;
  mms:ordinal "3"^^xsd:positiveInteger ;
  cdiscs:about <http://rdf.cdisc.org/std/sdtmig-3-1-2#Column.TA.TABRANCH> ;
  cdiscs:assumptionText "TABRANCH describes the outcome of a branch decision point in the trial design for subjects in the Arm. A branch decision point takes place between Epochs, and is associated with the Element that ends at the decision point. For instance, if subjects are assigned to an Arm where they receive treatment A through a randomization at the end of Element X, the value of TABRANCH for Element X would be \"Randomized to A.\""^^xsd:string ;
  cdiscs:partOfSection <http://rdf.cdisc.org/std/sdtmig-3-1-2#Section.TA.000> ;
.
<http://rdf.cdisc.org/std/sdtmig-3-1-2#Assumption.TA.000.004>
  rdf:type cdiscs:Assumption ;
  mms:ordinal "4"^^xsd:positiveInteger ;
  cdiscs:about <http://rdf.cdisc.org/std/sdtmig-3-1-2#Column.TA.TABRANCH> ;
  cdiscs:assumptionText "Branch decision points may be based on decision processes other than randomizations, such as clinical evaluations of disease response or subject choice."^^xsd:string ;
  cdiscs:partOfSection <http://rdf.cdisc.org/std/sdtmig-3-1-2#Section.TA.000> ;
.
<http://rdf.cdisc.org/std/sdtmig-3-1-2#Assumption.TA.000.005>
  rdf:type cdiscs:Assumption ;
  mms:ordinal "5"^^xsd:positiveInteger ;
  cdiscs:about <http://rdf.cdisc.org/std/sdtmig-3-1-2#Column.TA.ARM> ;
  cdiscs:assumptionText "There is usually some gap in time between the performance of a randomization and the start of randomized treatment. However, in many trials this gap in time is small and it is highly unlikely that subjects will leave the trial between randomization and treatment. In these circumstances, the trial does not need to be modeled with this time period between randomization and start of treatment as a separate Element."^^xsd:string ;
  cdiscs:partOfSection <http://rdf.cdisc.org/std/sdtmig-3-1-2#Section.TA.000> ;
.
<http://rdf.cdisc.org/std/sdtmig-3-1-2#Assumption.TA.000.006>
  rdf:type cdiscs:Assumption ;
  mms:ordinal "6"^^xsd:positiveInteger ;
  cdiscs:about <http://rdf.cdisc.org/std/sdtmig-3-1-2#Column.TA.ARM> ;
  cdiscs:about <http://rdf.cdisc.org/std/sdtmig-3-1-2#Column.TA.TATRANS> ;
  cdiscs:assumptionText "Some trials include multiple paths that are closely enough related so that they are all considered to belong to one Arm. In general, this set of paths will include a \"complete\" path along with shorter paths that skip some Elements. The sequence of Elements represented in the Trial Arms should be the complete, longest path. TATRANS describes the decision points that may lead to a shortened path within the Arm."^^xsd:string ;
  cdiscs:partOfSection <http://rdf.cdisc.org/std/sdtmig-3-1-2#Section.TA.000> ;
.
<http://rdf.cdisc.org/std/sdtmig-3-1-2#Assumption.TA.000.007>
  rdf:type cdiscs:Assumption ;
  mms:ordinal "7"^^xsd:positiveInteger ;
  cdiscs:about <http://rdf.cdisc.org/std/sdtmig-3-1-2#Column.TA.ELEMENT> ;
  cdiscs:about <http://rdf.cdisc.org/std/sdtmig-3-1-2#Column.TA.TATRANS> ;
  cdiscs:assumptionText "If an Element does not end with a decision that could lead to a shortened path within the Arm, then TATRANS will be blank. If there is such a decision, TATRANS will be in a form like, \"If condition X is true, then go to Epoch Y\" or \"If condition X is true, then go to Element with TAETORD=Z.\""^^xsd:string ;
  cdiscs:partOfSection <http://rdf.cdisc.org/std/sdtmig-3-1-2#Section.TA.000> ;
.
<http://rdf.cdisc.org/std/sdtmig-3-1-2#Assumption.TA.000.008>
  rdf:type cdiscs:Assumption ;
  mms:ordinal "8"^^xsd:positiveInteger ;
  cdiscs:about <http://rdf.cdisc.org/std/sdtmig-3-1-2#Column.TA.EPOCH> ;
  cdiscs:assumptionText "EPOCH is not strictly necessary for describing the sequence of Elements in an Arm path, but it is the conceptual basis for comparisons between Arms, and also provides a useful way to talk about what is happening in a blinded trial while it is blinded. During periods of blinded treatment, blinded participants will not know which Arm and Element a subject is in, but EPOCH should provide a description of the time period that does not depend on knowing Arm."^^xsd:string ;
  cdiscs:partOfSection <http://rdf.cdisc.org/std/sdtmig-3-1-2#Section.TA.000> ;
.
<http://rdf.cdisc.org/std/sdtmig-3-1-2#Assumption.TA.000.009>
  rdf:type cdiscs:Assumption ;
  mms:ordinal "9"^^xsd:positiveInteger ;
  cdiscs:about <http://rdf.cdisc.org/std/sdtmig-3-1-2#Column.TA.EPOCH> ;
  cdiscs:assumptionText "EPOCH should be assigned in such a way that Elements from different Arms with the same value of EPOCH are \"comparable\" in some sense. The degree of similarity across Arms varies considerably in different trials, as illustrated in the examples."^^xsd:string ;
  cdiscs:partOfSection <http://rdf.cdisc.org/std/sdtmig-3-1-2#Section.TA.000> ;
.
<http://rdf.cdisc.org/std/sdtmig-3-1-2#Assumption.TA.000.010>
  rdf:type cdiscs:Assumption ;
  mms:ordinal "10"^^xsd:positiveInteger ;
  cdiscs:about <http://rdf.cdisc.org/std/sdtmig-3-1-2#Column.TA.ARMCD> ;
  cdiscs:about <http://rdf.cdisc.org/std/sdtmig-3-1-2#Column.TA.EPOCH> ;
  cdiscs:assumptionText "Note that Study Cells are not explicitly defined in the Trial Arms dataset. A set of records with a common value of both ARMCD and EPOCH constitute the description of a Study Cell. Transition rules within this set of records are also part of the description of the Study Cell."^^xsd:string ;
  cdiscs:partOfSection <http://rdf.cdisc.org/std/sdtmig-3-1-2#Section.TA.000> ;
.
<http://rdf.cdisc.org/std/sdtmig-3-1-2#Assumption.TA.000.011>
  rdf:type cdiscs:Assumption ;
  mms:ordinal "11"^^xsd:positiveInteger ;
  cdiscs:about <http://rdf.cdisc.org/std/sdtmig-3-1-2#Column.TA.EPOCH> ;
  cdiscs:assumptionText "EPOCH may be used as a timing variable in other datasets, such as EX and DS, and values of EPOCH must be different for different epochs. For instance, in a crossover trial with three treatment epochs, each must be given a distinct name; all three cannot be called \"TREATMENT\"."^^xsd:string ;
  cdiscs:partOfSection <http://rdf.cdisc.org/std/sdtmig-3-1-2#Section.TA.000> ;
.
<http://rdf.cdisc.org/std/sdtmig-3-1-2#Assumption.TE.000.001>
  rdf:type cdiscs:Assumption ;
  mms:ordinal "1"^^xsd:positiveInteger ;
  cdiscs:about <http://rdf.cdisc.org/std/sdtmig-3-1-2#Column.TE.ELEMENT> ;
  cdiscs:assumptionText "There are no gaps between Elements. The instant one Element ends, the next Element begins. A subject spends no time \"between\" Elements."^^xsd:string ;
  cdiscs:partOfSection <http://rdf.cdisc.org/std/sdtmig-3-1-2#Section.TE.000> ;
.
<http://rdf.cdisc.org/std/sdtmig-3-1-2#Assumption.TE.000.002>
  rdf:type cdiscs:Assumption ;
  mms:ordinal "2"^^xsd:positiveInteger ;
  cdiscs:about <http://rdf.cdisc.org/std/sdtmig-3-1-2#Column.TE.ELEMENT> ;
  cdiscs:assumptionText "ELEMENT, the Description of the Element, usually indicates the treatment being administered during an Element, or, if no treatment is being administered, the other activities that are the purpose of this period of time, such as Screening, Follow-up, Washout. In some cases, this may be quite passive, such as Rest, or Wait (for disease episode)."^^xsd:string ;
  cdiscs:partOfSection <http://rdf.cdisc.org/std/sdtmig-3-1-2#Section.TE.000> ;
.
<http://rdf.cdisc.org/std/sdtmig-3-1-2#Assumption.TE.000.003>
  rdf:type cdiscs:Assumption ;
  mms:ordinal "3"^^xsd:positiveInteger ;
  cdiscs:about <http://rdf.cdisc.org/std/sdtmig-3-1-2#Column.TE.TESTRL> ;
  cdiscs:assumptionText "TESTRL, the Rule for Start of Element, identifies the event that marks the transition into this Element. For Elements that involve treatment, this is the start of treatment."^^xsd:string ;
  cdiscs:partOfSection <http://rdf.cdisc.org/std/sdtmig-3-1-2#Section.TE.000> ;
.
<http://rdf.cdisc.org/std/sdtmig-3-1-2#Assumption.TE.000.004>
  rdf:type cdiscs:Assumption ;
  mms:ordinal "4"^^xsd:positiveInteger ;
  cdiscs:about <http://rdf.cdisc.org/std/sdtmig-3-1-2#Column.TE.TESTRL> ;
  cdiscs:assumptionText "For Elements that do not involve treatment, TESTRL can be more difficult to define. For washout and follow-up Elements, which always follow treatment Elements, the start of the Element may be defined relative to the end of a preceding treatment. For example, a washout period might be defined as starting 24 or 48 hours after the last dose of drug for the preceding treatment Element or Epoch. This definition is not totally independent of the Trial Arms dataset, since it relies on knowing where in the trial design the Element is used, and that it always follows a treatment Element. Defining a clear starting point for the start of a non-treatment Element that always follows another non-treatment Element can be particularly difficult. The transition may be defined by a decision-making activity such as enrollment or randomization. For example, every Arm of a trial which involves treating disease episodes might start with a screening Element followed by an Element which consists of waiting until a disease episode occurs. The activity that marks the beginning of the wait Element might be randomization."^^xsd:string ;
  cdiscs:partOfSection <http://rdf.cdisc.org/std/sdtmig-3-1-2#Section.TE.000> ;
.
<http://rdf.cdisc.org/std/sdtmig-3-1-2#Assumption.TE.000.005>
  rdf:type cdiscs:Assumption ;
  mms:ordinal "5"^^xsd:positiveInteger ;
  cdiscs:about <http://rdf.cdisc.org/std/sdtmig-3-1-2#Column.TE.TESTRL> ;
  cdiscs:assumptionText "TESTRL for a treatment Element may be thought of as \"active\" while the start rule for a non-treatment Element, particularly a follow-up or washout Element, may be \"passive\".  The start of a treatment Element will not occur until a dose is given, no matter how long that dose is delayed. Once the last dose is given, the start of a subsequent non-treatment Element is inevitable, as long as another dose is not given."^^xsd:string ;
  cdiscs:partOfSection <http://rdf.cdisc.org/std/sdtmig-3-1-2#Section.TE.000> ;
.
<http://rdf.cdisc.org/std/sdtmig-3-1-2#Assumption.TE.000.006>
  rdf:type cdiscs:Assumption ;
  mms:ordinal "6"^^xsd:positiveInteger ;
  cdiscs:about <http://rdf.cdisc.org/std/sdtmig-3-1-2#Column.TE.TESTRL> ;
  cdiscs:assumptionText "Note that the date/time of the event described in TESTRL will be used to populate the date/times in the Subject Elements dataset, so the date/time of the event should be one that will be captured in the CRF."^^xsd:string ;
  cdiscs:partOfSection <http://rdf.cdisc.org/std/sdtmig-3-1-2#Section.TE.000> ;
.
<http://rdf.cdisc.org/std/sdtmig-3-1-2#Assumption.TE.000.007>
  rdf:type cdiscs:Assumption ;
  mms:ordinal "7"^^xsd:positiveInteger ;
  cdiscs:about <http://rdf.cdisc.org/std/sdtmig-3-1-2#Column.TE.TESTRL> ;
  cdiscs:assumptionText "Specifying TESTRL for an Element that serves the first Element of an Arm in the Trial Arms dataset involves defining the start of the trial. In the examples in this document, obtaining informed consent has been used as \"Trial Entry.\""^^xsd:string ;
  cdiscs:partOfSection <http://rdf.cdisc.org/std/sdtmig-3-1-2#Section.TE.000> ;
.
<http://rdf.cdisc.org/std/sdtmig-3-1-2#Assumption.TE.000.008>
  rdf:type cdiscs:Assumption ;
  mms:ordinal "8"^^xsd:positiveInteger ;
  cdiscs:about <http://rdf.cdisc.org/std/sdtmig-3-1-2#Column.TE.ELEMENT> ;
  cdiscs:about <http://rdf.cdisc.org/std/sdtmig-3-1-2#Column.TE.TESTRL> ;
  cdiscs:assumptionText "TESTRL should be expressed without referring to Arm. If the Element appears in more than one Arm in the Trial Arms dataset, then the Element description (ELEMENT) must not refer to any Arms."^^xsd:string ;
  cdiscs:partOfSection <http://rdf.cdisc.org/std/sdtmig-3-1-2#Section.TE.000> ;
.
<http://rdf.cdisc.org/std/sdtmig-3-1-2#Assumption.TE.000.009>
  rdf:type cdiscs:Assumption ;
  mms:ordinal "9"^^xsd:positiveInteger ;
  cdiscs:about <http://rdf.cdisc.org/std/sdtmig-3-1-2#Column.TE.ELEMENT> ;
  cdiscs:about <http://rdf.cdisc.org/std/sdtmig-3-1-2#Column.TE.TESTRL> ;
  cdiscs:assumptionText "TESTRL should be expressed without referring to Epoch. If the Element appears in more than one Epoch in the Trial Arms dataset, then the Element description (ELEMENT) must not refer to any Epochs."^^xsd:string ;
  cdiscs:partOfSection <http://rdf.cdisc.org/std/sdtmig-3-1-2#Section.TE.000> ;
.
<http://rdf.cdisc.org/std/sdtmig-3-1-2#Assumption.TE.000.010>
  rdf:type cdiscs:Assumption ;
  mms:ordinal "10"^^xsd:positiveInteger ;
  cdiscs:about <http://rdf.cdisc.org/std/sdtmig-3-1-2#Column.TE.TESTRL> ;
  cdiscs:assumptionText "For a blinded trial, it is useful to describe TESTRL in terms that separate the properties of the event that are visible to blinded participants from the properties that are visible only to those who are unblinded. For treatment Elements in blinded trials, wording such as the following is suitable, \"First dose of study drug for a treatment Epoch, where study drug is X.\""^^xsd:string ;
  cdiscs:partOfSection <http://rdf.cdisc.org/std/sdtmig-3-1-2#Section.TE.000> ;
.
<http://rdf.cdisc.org/std/sdtmig-3-1-2#Assumption.TE.000.011>
  rdf:type cdiscs:Assumption ;
  mms:ordinal "11"^^xsd:positiveInteger ;
  cdiscs:about <http://rdf.cdisc.org/std/sdtmig-3-1-2#Column.TE.TEENRL> ;
  cdiscs:about <http://rdf.cdisc.org/std/sdtmig-3-1-2#Column.TE.TESTRL> ;
  cdiscs:assumptionText "Element end rules are rather different from Element start rules. The actual end of one Element is the beginning of the next Element. Thus the Element end rule does not give the conditions under which an Element does end, but the conditions under which it should end or is planned to end."^^xsd:string ;
  cdiscs:partOfSection <http://rdf.cdisc.org/std/sdtmig-3-1-2#Section.TE.000> ;
.
<http://rdf.cdisc.org/std/sdtmig-3-1-2#Assumption.TE.000.012>
  rdf:type cdiscs:Assumption ;
  mms:ordinal "12"^^xsd:positiveInteger ;
  cdiscs:about <http://rdf.cdisc.org/std/sdtmig-3-1-2#Column.TE.TEDUR> ;
  cdiscs:about <http://rdf.cdisc.org/std/sdtmig-3-1-2#Column.TE.TEENRL> ;
  cdiscs:assumptionText "At least one of TEENRL and TEDUR must be populated. Both may be populated."^^xsd:string ;
  cdiscs:partOfSection <http://rdf.cdisc.org/std/sdtmig-3-1-2#Section.TE.000> ;
.
<http://rdf.cdisc.org/std/sdtmig-3-1-2#Assumption.TE.000.013>
  rdf:type cdiscs:Assumption ;
  mms:ordinal "13"^^xsd:positiveInteger ;
  cdiscs:about <http://rdf.cdisc.org/std/sdtmig-3-1-2#Column.TE.TEENRL> ;
  cdiscs:assumptionText "TEENRL describes the circumstances under which a subject should leave this Element. Element end rules may depend on a variety of conditions. For instance, a typical criterion for ending a rest Element between oncology chemotherapy-treatment Elements would be, \"15 days after start of Element and after WBC values have recovered.\" The Trial Arms dataset, not the Trial Elements dataset, describes where the subject moves next, so TEENRL must be expressed without referring to Arm."^^xsd:string ;
  cdiscs:partOfSection <http://rdf.cdisc.org/std/sdtmig-3-1-2#Section.TE.000> ;
.
<http://rdf.cdisc.org/std/sdtmig-3-1-2#Assumption.TE.000.014>
  rdf:type cdiscs:Assumption ;
  mms:ordinal "14"^^xsd:positiveInteger ;
  cdiscs:about <http://rdf.cdisc.org/std/sdtmig-3-1-2#Column.TE.TEDUR> ;
  cdiscs:about <http://rdf.cdisc.org/std/sdtmig-3-1-2#Column.TE.TEENRL> ;
  cdiscs:assumptionText "TEDUR serves the same purpose as TEENRL for the special (but very common) case of an Element with a fixed duration. TEDUR is expressed in ISO 8601. For example, a TEDUR value of P6W is equivalent to a TEENRL of \"6 weeks after the start of the Element.\""^^xsd:string ;
  cdiscs:partOfSection <http://rdf.cdisc.org/std/sdtmig-3-1-2#Section.TE.000> ;
.
<http://rdf.cdisc.org/std/sdtmig-3-1-2#Assumption.TE.000.015>
  rdf:type cdiscs:Assumption ;
  mms:ordinal "15"^^xsd:positiveInteger ;
  cdiscs:about <http://rdf.cdisc.org/std/sdtmig-3-1-2#Column.TE.ELEMENT> ;
  cdiscs:about <http://rdf.cdisc.org/std/sdtmig-3-1-2#Column.TE.TEENRL> ;
  cdiscs:about <http://rdf.cdisc.org/std/sdtmig-3-1-2#Column.TE.TESTRL> ;
  cdiscs:assumptionText "Note that Elements that have different start and end rules are different Elements and must have different values of ELEMENT and ETCD. For instance, Elements that involve the same treatment but have different durations are different Elements. The same applies to non-treatment Elements. For instance, a washout with a fixed duration of 14 days is different from a washout that is to end after 7 days if drug cannot be detected in a blood sample, or after 14 days otherwise."^^xsd:string ;
  cdiscs:partOfSection <http://rdf.cdisc.org/std/sdtmig-3-1-2#Section.TE.000> ;
.
<http://rdf.cdisc.org/std/sdtmig-3-1-2#Assumption.TI.000.001>
  rdf:type cdiscs:Assumption ;
  mms:ordinal "1"^^xsd:positiveInteger ;
  cdiscs:about <http://rdf.cdisc.org/std/sdtmig-3-1-2#Column.TI.TIVERS> ;
  cdiscs:assumptionText "If inclusion/exclusion criteria were amended during the trial, then each complete set of criteria must be included in the TI domain. TIVERS is used to distinguish between the versions."^^xsd:string ;
  cdiscs:partOfSection <http://rdf.cdisc.org/std/sdtmig-3-1-2#Section.TI.000> ;
.
<http://rdf.cdisc.org/std/sdtmig-3-1-2#Assumption.TI.000.002>
  rdf:type cdiscs:Assumption ;
  mms:ordinal "2"^^xsd:positiveInteger ;
  cdiscs:about <http://rdf.cdisc.org/std/sdtmig-3-1-2#Column.TI.TIVERS> ;
  cdiscs:assumptionText "Protocol version numbers should be used to identify criteria versions, though there may be more versions of the protocol than versions of the inclusion/exclusion criteria. For example, a protocol might have versions 1, 2, 3, and 4, but if the inclusion/exclusion criteria in version 1 were unchanged through versions 2 and 3, and only changed in version 4, then there would be two sets of inclusion/exclusion criteria in TI, one for version 1 and one for version 4."^^xsd:string ;
  cdiscs:partOfSection <http://rdf.cdisc.org/std/sdtmig-3-1-2#Section.TI.000> ;
.
<http://rdf.cdisc.org/std/sdtmig-3-1-2#Assumption.TI.000.003>
  rdf:type cdiscs:Assumption ;
  mms:ordinal "3"^^xsd:positiveInteger ;
  cdiscs:about <http://rdf.cdisc.org/std/sdtmig-3-1-2#Column.TI.IETESTCD> ;
  cdiscs:assumptionText "Individual criteria do not have versions. If a criterion changes, it should be treated as a new criterion, with a new value for IETESTCD. If criteria have been numbered and values of IETESTCD are generally of the form INCL00n or EXCL00n, and new versions of a criterion have not been given new numbers, separate values of IETESTCD might be created by appending letters, e.g. INCL003A, INCL003B."^^xsd:string ;
  cdiscs:partOfSection <http://rdf.cdisc.org/std/sdtmig-3-1-2#Section.TI.000> ;
.
<http://rdf.cdisc.org/std/sdtmig-3-1-2#Assumption.TI.000.004>
  rdf:type cdiscs:Assumption ;
  mms:ordinal "4"^^xsd:positiveInteger ;
  cdiscs:about <http://rdf.cdisc.org/std/sdtmig-3-1-2#Column.TI.IETEST> ;
  cdiscs:assumptionText "IETEST contains the text of the inclusion/exclusion criterion. However, since entry criteria are rules, the variable TIRL has been included in anticipation of the development of computer executable rules."^^xsd:string ;
  cdiscs:partOfSection <http://rdf.cdisc.org/std/sdtmig-3-1-2#Section.TI.000> ;
.
<http://rdf.cdisc.org/std/sdtmig-3-1-2#Assumption.TI.000.005>
  rdf:type cdiscs:Assumption ;
  mms:ordinal "5"^^xsd:positiveInteger ;
  cdiscs:about <http://rdf.cdisc.org/std/sdtmig-3-1-2#Column.TI.IETEST> ;
  cdiscs:assumptionText "If a criterion text is <200 characters, it goes in IETEST; if the text is >200 characters, put meaningful text in IETEST and describe the full text in the study metadata. See Section 4.1.5.3.1 for further information."^^xsd:string ;
  cdiscs:partOfSection <http://rdf.cdisc.org/std/sdtmig-3-1-2#Section.TI.000> ;
.
<http://rdf.cdisc.org/std/sdtmig-3-1-2#Assumption.TS.000.001>
  rdf:type cdiscs:Assumption ;
  mms:ordinal "1"^^xsd:positiveInteger ;
  cdiscs:about <http://rdf.cdisc.org/std/sdtmig-3-1-2#Dataset.TS> ;
  cdiscs:assumptionText "The intent of this dataset is to provide a summary of trial information. This is not subject level data."^^xsd:string ;
  cdiscs:partOfSection <http://rdf.cdisc.org/std/sdtmig-3-1-2#Section.TS.000> ;
.
<http://rdf.cdisc.org/std/sdtmig-3-1-2#Assumption.TS.000.002>
  rdf:type cdiscs:Assumption ;
  mms:ordinal "2"^^xsd:positiveInteger ;
  cdiscs:about <http://rdf.cdisc.org/std/sdtmig-3-1-2#Column.TS.TSPARM> ;
  cdiscs:about <http://rdf.cdisc.org/std/sdtmig-3-1-2#Column.TS.TSPARMCD> ;
  cdiscs:assumptionText "A list of values for TSPARM and TSPARMCD is included in Appendix C3. The appendix also includes assumptions related to particular parameters."^^xsd:string ;
  cdiscs:partOfSection <http://rdf.cdisc.org/std/sdtmig-3-1-2#Section.TS.000> ;
.
<http://rdf.cdisc.org/std/sdtmig-3-1-2#Assumption.TS.000.003>
  rdf:type cdiscs:Assumption ;
  mms:ordinal "3"^^xsd:positiveInteger ;
  cdiscs:about <http://rdf.cdisc.org/std/sdtmig-3-1-2#Column.TS.TSPARMCD> ;
  cdiscs:about <http://rdf.cdisc.org/std/sdtmig-3-1-2#Column.TS.TSVAL> ;
  cdiscs:assumptionText "TSVAL may have controlled terminology depending on the value of TSPARMCD. See Appendix C3 for more information."^^xsd:string ;
  cdiscs:partOfSection <http://rdf.cdisc.org/std/sdtmig-3-1-2#Section.TS.000> ;
.
<http://rdf.cdisc.org/std/sdtmig-3-1-2#Assumption.TS.000.004>
  rdf:type cdiscs:Assumption ;
  mms:ordinal "4"^^xsd:positiveInteger ;
  cdiscs:about <http://rdf.cdisc.org/std/sdtmig-3-1-2#Column.TS.TSPARMCD> ;
  cdiscs:assumptionText "There is not yet guidance on which Trial Summary parameters are required, but the following minimum recommended set is based on the WHO International Clinical Trial Registry Platform (ICTRP) Registration Data Set: TITLE, INDIC, TCNTRL, RANDOM, TRT, COMPTRT (when applicable), AGESPAN, AGEMIN, AGEMAX, AGEU, SEXPOP, PLANSUB, OBJPRIM, OBJSEC. Parameters to support TRT (e.g., DOSE, ROUTE, etc.) should be considered. However, for some complex study designs, these simple parameters may not provide a useful summary of the trial design."^^xsd:string ;
  cdiscs:partOfSection <http://rdf.cdisc.org/std/sdtmig-3-1-2#Section.TS.000> ;
.
<http://rdf.cdisc.org/std/sdtmig-3-1-2#Assumption.TS.000.005>
  rdf:type cdiscs:Assumption ;
  mms:ordinal "5"^^xsd:positiveInteger ;
  cdiscs:about <http://rdf.cdisc.org/std/sdtmig-3-1-2#Column.TS.TSPARMCD> ;
  cdiscs:assumptionText "Sponsors may include parameters not in Appendix C3. The meaning of such parameters should be explained in the metadata for the TS dataset."^^xsd:string ;
  cdiscs:partOfSection <http://rdf.cdisc.org/std/sdtmig-3-1-2#Section.TS.000> ;
.
<http://rdf.cdisc.org/std/sdtmig-3-1-2#Assumption.TS.000.006>
  rdf:type cdiscs:Assumption ;
  mms:ordinal "6"^^xsd:positiveInteger ;
  cdiscs:about <http://rdf.cdisc.org/std/sdtmig-3-1-2#Column.TS.TSPARMCD> ;
  cdiscs:about <http://rdf.cdisc.org/std/sdtmig-3-1-2#Column.TS.TSVAL> ;
  cdiscs:assumptionText "For some trials, there will be multiple records in the Trial Summary dataset for a single parameter. For example, a trial that addresses both Safety and Efficacy could have two records with TSPARMCD = TTYPE, one with the TSVAL = \"SAFETY\" and the other with TSVAL = \"EFFICACY.\""^^xsd:string ;
  cdiscs:partOfSection <http://rdf.cdisc.org/std/sdtmig-3-1-2#Section.TS.000> ;
.
<http://rdf.cdisc.org/std/sdtmig-3-1-2#Assumption.TS.000.007>
  rdf:type cdiscs:Assumption ;
  mms:ordinal "7"^^xsd:positiveInteger ;
  cdiscs:about <http://rdf.cdisc.org/std/sdtmig-3-1-2#Column.TS.TSSEQ> ;
  cdiscs:assumptionText "TSSEQ has a different value for each record for the same parameter. Note that this is different from datasets that contain subject data, where the --SEQ variable has a different value for each record for the same subject."^^xsd:string ;
  cdiscs:partOfSection <http://rdf.cdisc.org/std/sdtmig-3-1-2#Section.TS.000> ;
.
<http://rdf.cdisc.org/std/sdtmig-3-1-2#Assumption.TS.000.008>
  rdf:type cdiscs:Assumption ;
  mms:ordinal "8"^^xsd:positiveInteger ;
  cdiscs:about <http://rdf.cdisc.org/std/sdtmig-3-1-2#Column.TS.TSVAL> ;
  cdiscs:assumptionText "The method for treating text > 200 characters in Trial Summary is similar to that used for the Comments special-purpose domain (Section 5.2). If TSVAL is > 200 characters, then it should be split into multiple variables, TSVAL-TSVALn."^^xsd:string ;
  cdiscs:partOfSection <http://rdf.cdisc.org/std/sdtmig-3-1-2#Section.TS.000> ;
.
<http://rdf.cdisc.org/std/sdtmig-3-1-2#Assumption.TS.000.009>
  rdf:type cdiscs:Assumption ;
  mms:ordinal "9"^^xsd:positiveInteger ;
  cdiscs:about <http://rdf.cdisc.org/std/sdtmig-3-1-2#Column.TS.TSGRPID> ;
  cdiscs:assumptionText "Since TS does not contain subject-level data, there is no restriction analogous to the requirement in subject-level datasets that the blocks bound by TSGRPID are within a subject. TSGRPID can be used to tie together any block of records in the dataset. GRPID is most likely to be used when the TS dataset includes multiple records for the same parameter. For example, if a trial compared a dose of 50 mg twice a day with a dose of 100 mg once a day, a record with TSPARMCD = DOSE and TSVAL=50 and a record with TSPARMCD = DOSFREQ and TSVAL = BID could be assigned one GRPID, while a record with TSPARMCD = DOSE and TSVAL=100 and a record with TSPARMCD = DOSFREQ and TSVAL = Q24H could be assigned a different GRPID."^^xsd:string ;
  cdiscs:partOfSection <http://rdf.cdisc.org/std/sdtmig-3-1-2#Section.TS.000> ;
.
<http://rdf.cdisc.org/std/sdtmig-3-1-2#Assumption.TS.000.010>
  rdf:type cdiscs:Assumption ;
  mms:ordinal "10"^^xsd:positiveInteger ;
  cdiscs:about <http://rdf.cdisc.org/std/sdtmig-3-1-2#Dataset.TS> ;
  cdiscs:assumptionText "The order of parameters in the examples of TD datasets in Section 7.6.3 should not be taken as a requirement. There are no requirements or expectations about the order of parameters within the TS dataset."^^xsd:string ;
  cdiscs:partOfSection <http://rdf.cdisc.org/std/sdtmig-3-1-2#Section.TS.000> ;
.
<http://rdf.cdisc.org/std/sdtmig-3-1-2#Assumption.TV.000.001>
  rdf:type cdiscs:Assumption ;
  mms:ordinal "1"^^xsd:positiveInteger ;
  cdiscs:about <http://rdf.cdisc.org/std/sdtmig-3-1-2#Dataset.TV> ;
  cdiscs:assumptionText "Although the general structure of the Trial Visits dataset is \"One Record per Planned Visit per Arm\", for many clinical trials, particularly blinded clinical trials, the schedule of Visits is the same for all Arms, and the structure of the Trial Visits dataset will be \"One Record per Planned Visit\". If the schedule of Visits is the same for all Arms, ARMCD should be left blank for all records in the TV dataset. For trials with trial Visits that are different for different Arms, such as Example Trial 7 in Section 7.2.3.7, ARMCD and ARM should be populated for all records. If some Visits are the same for all Arms, and some Visits differ by Arm, then ARMCD and ARM should be populated for all records, to assure clarity, even though this will mean creating near-duplicate records for Visits that are the same for all Arms."^^xsd:string ;
  cdiscs:partOfSection <http://rdf.cdisc.org/std/sdtmig-3-1-2#Section.TV.000> ;
.
<http://rdf.cdisc.org/std/sdtmig-3-1-2#Assumption.TV.000.002>
  rdf:type cdiscs:Assumption ;
  mms:ordinal "2"^^xsd:positiveInteger ;
  cdiscs:about <http://rdf.cdisc.org/std/sdtmig-3-1-2#Column.TV.VISITNUM> ;
  cdiscs:assumptionText "A Visit may start in one Element and end in another. This means that a Visit may start in one Epoch and end in another. For example, if one of the activities planned for a Visit is the administration of the first dose of study drug, the Visit might start in the screen Epoch, in the screen Element, and end in a treatment Epoch, in a treatment Element."^^xsd:string ;
  cdiscs:partOfSection <http://rdf.cdisc.org/std/sdtmig-3-1-2#Section.TV.000> ;
.
<http://rdf.cdisc.org/std/sdtmig-3-1-2#Assumption.TV.000.003>
  rdf:type cdiscs:Assumption ;
  mms:ordinal "3"^^xsd:positiveInteger ;
  cdiscs:about <http://rdf.cdisc.org/std/sdtmig-3-1-2#Column.TV.TVSTRL> ;
  cdiscs:about <http://rdf.cdisc.org/std/sdtmig-3-1-2#Column.TV.VISITDY> ;
  cdiscs:assumptionText "TVSTRL describes the scheduling of the Visit and should reflect the wording in the protocol. In many trials, all Visits are scheduled relative to the study's Day 1, RFSTDTC. In such trials, it is useful to include VISITDY, which is, in effect, a special case representation of TVSTRL."^^xsd:string ;
  cdiscs:partOfSection <http://rdf.cdisc.org/std/sdtmig-3-1-2#Section.TV.000> ;
.
<http://rdf.cdisc.org/std/sdtmig-3-1-2#Assumption.TV.000.004>
  rdf:type cdiscs:Assumption ;
  mms:ordinal "4"^^xsd:positiveInteger ;
  cdiscs:about <http://rdf.cdisc.org/std/sdtmig-3-1-2#Column.TV.TVSTRL> ;
  cdiscs:assumptionText """Note that there is a subtle difference between the following two examples. In the first case, if Visit 3 were delayed for some reason, Visit 4 would be unaffected. In the second case, a delay to Visit 3 would result in Visit 4 being delayed as well.
- Case 1: Visit 3 starts 2 weeks after RFSTDTC. Visit 4 starts 4 weeks after RFSTDTC.
- Case 2: Visit 3 starts 2 weeks after RFSTDTC. Visit 4 starts 2 weeks after Visit 3."""^^xsd:string ;
  cdiscs:partOfSection <http://rdf.cdisc.org/std/sdtmig-3-1-2#Section.TV.000> ;
.
<http://rdf.cdisc.org/std/sdtmig-3-1-2#Assumption.TV.000.005>
  rdf:type cdiscs:Assumption ;
  mms:ordinal "5"^^xsd:positiveInteger ;
  cdiscs:about <http://rdf.cdisc.org/std/sdtmig-3-1-2#Column.TV.TVENRL> ;
  cdiscs:assumptionText "Many protocols do not give any information about Visit ends because Visits are assumed to end on the same day they start. In such a case, TVENRL may be left blank to indicate that the Visit ends on the same day it starts. Care should be taken to assure that this is appropriate, since common practice may be to record data collected over more than one day as occurring within a single Visit. Screening Visits may be particularly prone to collection of data over multiple days. See Section 7.4.3 for examples showing how TVENRL could be populated."^^xsd:string ;
  cdiscs:partOfSection <http://rdf.cdisc.org/std/sdtmig-3-1-2#Section.TV.000> ;
.
<http://rdf.cdisc.org/std/sdtmig-3-1-2#Assumption.TV.000.006>
  rdf:type cdiscs:Assumption ;
  mms:ordinal "6"^^xsd:positiveInteger ;
  cdiscs:about <http://rdf.cdisc.org/std/sdtmig-3-1-2#Column.TV.VISIT> ;
  cdiscs:about <http://rdf.cdisc.org/std/sdtmig-3-1-2#Column.TV.VISITNUM> ;
  cdiscs:assumptionText "The values of VISITNUM in the TV dataset are the valid values of VISITNUM for planned Visits. Any values of VISITNUM that appear in subject-level datasets that are not in the TV dataset are assumed to correspond to unplanned Visits. This applies, in particular, to the subject-level Subject Visits (SV) dataset; see Section 5.3.2 on the SV dataset for additional information about handling unplanned Visits. If a subject-level dataset includes both VISITNUM and VISIT, then records that include values of VISITNUM that appear in the TV dataset should also include the corresponding values of VISIT from the TV dataset."^^xsd:string ;
  cdiscs:partOfSection <http://rdf.cdisc.org/std/sdtmig-3-1-2#Section.TV.000> ;
.
<http://rdf.cdisc.org/std/sdtmig-3-1-2#Assumption.VS.000.001>
  rdf:type cdiscs:Assumption ;
  mms:ordinal "1"^^xsd:positiveInteger ;
  cdiscs:about <http://rdf.cdisc.org/std/sdtmig-3-1-2#Dataset.VS> ;
  cdiscs:assumptionText "VS Definition: CRF data that captures measurements such as blood pressure, height, weight, pulse, and body temperature, or derived data such as body mass index."^^xsd:string ;
  cdiscs:partOfSection <http://rdf.cdisc.org/std/sdtmig-3-1-2#Section.VS.000> ;
.
<http://rdf.cdisc.org/std/sdtmig-3-1-2#Assumption.VS.000.002>
  rdf:type cdiscs:Assumption ;
  mms:ordinal "2"^^xsd:positiveInteger ;
  cdiscs:about <http://rdf.cdisc.org/std/sdtmig-3-1-2#Dataset.VS> ;
  cdiscs:assumptionText "In cases where the LOINC dictionary is used for Vital Sign tests, the permissible variable VSLOINC could be used. The sponsor is expected to provide the dictionary name and version used to map the terms utilizing the define.xml external codelist attributes."^^xsd:string ;
  cdiscs:partOfSection <http://rdf.cdisc.org/std/sdtmig-3-1-2#Section.VS.000> ;
.
<http://rdf.cdisc.org/std/sdtmig-3-1-2#Assumption.VS.000.003>
  rdf:type cdiscs:Assumption ;
  mms:ordinal "3"^^xsd:positiveInteger ;
  cdiscs:about <http://rdf.cdisc.org/std/sdtmig-3-1-2#Dataset.VS> ;
  cdiscs:assumptionText "If a reference range is available for a vital signs test, the variables VSORNRLO,VSORNRHI, VSNRIND from the Findings observation class may be added to the domain. VSORNRLO and VSORNRHI would represent the reference range , and VSNRIND would be used to indicate where a result falls in respect to the reference range (examples: HIGH, LOW). Clinical significance would be represented as described in Section 4.1.5.5 as a record in SUPPVS with a QNAM of VSCLSIG."^^xsd:string ;
  cdiscs:partOfSection <http://rdf.cdisc.org/std/sdtmig-3-1-2#Section.VS.000> ;
.
<http://rdf.cdisc.org/std/sdtmig-3-1-2#Assumption.VS.000.004>
  rdf:type cdiscs:Assumption ;
  mms:ordinal "4"^^xsd:positiveInteger ;
  cdiscs:about <http://rdf.cdisc.org/std/sdtmig-3-1-2#Dataset.VS> ;
  cdiscs:assumptionText "The following Qualifiers would not generally be used in VS: --BODSYS, --XFN, --SPEC, --SPCCND, --FAST, --TOX, --TOXGR."^^xsd:string ;
  cdiscs:partOfSection <http://rdf.cdisc.org/std/sdtmig-3-1-2#Section.VS.000> ;
.
<http://rdf.cdisc.org/std/sdtmig-3-1-2#Column.AE.AEACN>
  rdf:type mms:Column ;
  mms:context <http://rdf.cdisc.org/std/sdtmig-3-1-2#Dataset.AE> ;
  mms:dataElement <http://rdf.cdisc.org/std/sdtm-1-2#DataElement.Event.--ACN> ;
  mms:dataElementDescription "Describes changes to the study treatment as a result of the event. AEACN is specifically for the relationship to study treatment. AEACNOTH is for actions unrelated to dose adjustments of study treatment. Examples of AEACN values include ICH E2B values: DRUG WITHDRAWN, DOSE REDUCED, DOSE INCREASED, DOSE NOT CHANGED, UNKNOWN or NOT APPLICABLE."^^xsd:string ;
  mms:dataElementLabel "Action Taken with Study Treatment"^^xsd:string ;
  mms:dataElementName "AEACN"^^xsd:string ;
  mms:dataElementType "xsd:string"^^xsd:anySimpleType ;
  mms:dataElementValueDomain sdtmct:C66767 ;
  mms:ordinal "18"^^xsd:positiveInteger ;
  cdiscs:controlledTermsOrFormat "(ACN)"^^xsd:string ;
  cdiscs:dataElementCompliance <http://rdf.cdisc.org/std/sdtm-1-2#Classifier.ExpectedVariable> ;
  cdiscs:dataElementRole <http://rdf.cdisc.org/std/sdtm-1-2#Classifier.RecordQualifier> ;
  cdiscs:dataElementType <http://rdf.cdisc.org/std/schema#Classifier.Character> ;
  cdiscs:references "SDTM 2.2.2"^^xsd:string ;
.
<http://rdf.cdisc.org/std/sdtmig-3-1-2#Column.AE.AEACNOTH>
  rdf:type mms:Column ;
  mms:context <http://rdf.cdisc.org/std/sdtmig-3-1-2#Dataset.AE> ;
  mms:dataElement <http://rdf.cdisc.org/std/sdtm-1-2#DataElement.Event.--ACNOTH> ;
  mms:dataElementDescription "Describes other actions taken as a result of the event that are unrelated to dose adjustments of study treatment. Usually reported as free text. Example: \"TREATMENT UNBLINDED. PRIMARY CARE PHYSICIAN NOTIFIED.\""^^xsd:string ;
  mms:dataElementLabel "Other Action Taken"^^xsd:string ;
  mms:dataElementName "AEACNOTH"^^xsd:string ;
  mms:dataElementType "xsd:string"^^xsd:anySimpleType ;
  mms:ordinal "19"^^xsd:positiveInteger ;
  cdiscs:dataElementCompliance <http://rdf.cdisc.org/std/sdtm-1-2#Classifier.PermissibleVariable> ;
  cdiscs:dataElementRole <http://rdf.cdisc.org/std/sdtm-1-2#Classifier.RecordQualifier> ;
  cdiscs:dataElementType <http://rdf.cdisc.org/std/schema#Classifier.Character> ;
  cdiscs:references "SDTM 2.2.2"^^xsd:string ;
.
<http://rdf.cdisc.org/std/sdtmig-3-1-2#Column.AE.AEBODSYS>
  rdf:type mms:Column ;
  mms:context <http://rdf.cdisc.org/std/sdtmig-3-1-2#Dataset.AE> ;
  mms:dataElement <http://rdf.cdisc.org/std/sdtm-1-2#DataElement.Event.--BODSYS> ;
  mms:dataElementDescription "Dictionary derived. Body system or organ class used by the sponsor from the coding dictionary (e.g., MedDRA). When using a multi-axial dictionary such as MedDRA, this should contain the SOC used for the sponsor's analyses and summary tables which may not necessarily be the primary SOC."^^xsd:string ;
  mms:dataElementLabel "Body System or Organ Class"^^xsd:string ;
  mms:dataElementName "AEBODSYS"^^xsd:string ;
  mms:dataElementType "xsd:string"^^xsd:anySimpleType ;
  mms:ordinal "14"^^xsd:positiveInteger ;
  cdiscs:controlledTermsOrFormat "*"^^xsd:string ;
  cdiscs:dataElementCompliance <http://rdf.cdisc.org/std/sdtm-1-2#Classifier.ExpectedVariable> ;
  cdiscs:dataElementRole <http://rdf.cdisc.org/std/sdtm-1-2#Classifier.RecordQualifier> ;
  cdiscs:dataElementType <http://rdf.cdisc.org/std/schema#Classifier.Character> ;
  cdiscs:references "SDTM 2.2.2, SDTMIG 4.1.3.5"^^xsd:string ;
.
<http://rdf.cdisc.org/std/sdtmig-3-1-2#Column.AE.AECAT>
  rdf:type mms:Column ;
  mms:context <http://rdf.cdisc.org/std/sdtmig-3-1-2#Dataset.AE> ;
  mms:dataElement <http://rdf.cdisc.org/std/sdtm-1-2#DataElement.Event.--CAT> ;
  mms:dataElementDescription "Used to define a category of related records. Example: BLEEDING, NEUROPSYCHIATRIC."^^xsd:string ;
  mms:dataElementLabel "Category for Adverse Event"^^xsd:string ;
  mms:dataElementName "AECAT"^^xsd:string ;
  mms:dataElementType "xsd:string"^^xsd:anySimpleType ;
  mms:ordinal "11"^^xsd:positiveInteger ;
  cdiscs:controlledTermsOrFormat "*"^^xsd:string ;
  cdiscs:dataElementCompliance <http://rdf.cdisc.org/std/sdtm-1-2#Classifier.PermissibleVariable> ;
  cdiscs:dataElementRole <http://rdf.cdisc.org/std/sdtm-1-2#Classifier.GroupingQualifier> ;
  cdiscs:dataElementType <http://rdf.cdisc.org/std/schema#Classifier.Character> ;
  cdiscs:references "SDTM 2.2.2, SDTMIG 4.1.2.6"^^xsd:string ;
.
<http://rdf.cdisc.org/std/sdtmig-3-1-2#Column.AE.AECONTRT>
  rdf:type mms:Column ;
  mms:context <http://rdf.cdisc.org/std/sdtmig-3-1-2#Dataset.AE> ;
  mms:dataElement <http://rdf.cdisc.org/std/sdtm-1-2#DataElement.Event.--CONTRT> ;
  mms:dataElementDescription "Was another treatment given because of the occurrence of the event?"^^xsd:string ;
  mms:dataElementLabel "Concomitant or Additional Trtmnt Given"^^xsd:string ;
  mms:dataElementName "AECONTRT"^^xsd:string ;
  mms:dataElementType "xsd:string"^^xsd:anySimpleType ;
  mms:dataElementValueDomain sdtmct:C66742 ;
  mms:ordinal "32"^^xsd:positiveInteger ;
  cdiscs:controlledTermsOrFormat "(NY)"^^xsd:string ;
  cdiscs:dataElementCompliance <http://rdf.cdisc.org/std/sdtm-1-2#Classifier.PermissibleVariable> ;
  cdiscs:dataElementRole <http://rdf.cdisc.org/std/sdtm-1-2#Classifier.RecordQualifier> ;
  cdiscs:dataElementType <http://rdf.cdisc.org/std/schema#Classifier.Character> ;
  cdiscs:references "SDTM 2.2.2"^^xsd:string ;
.
<http://rdf.cdisc.org/std/sdtmig-3-1-2#Column.AE.AEDECOD>
  rdf:type mms:Column ;
  mms:context <http://rdf.cdisc.org/std/sdtmig-3-1-2#Dataset.AE> ;
  mms:dataElement <http://rdf.cdisc.org/std/sdtm-1-2#DataElement.Event.--DECOD> ;
  mms:dataElementDescription "Dictionary-derived text description of AETERM or AEMODIFY. Equivalent to the Preferred Term (PT in MedDRA). The sponsor is expected to provide the dictionary name and version used to map the terms utilizing the define.xml external codelist attributes."^^xsd:string ;
  mms:dataElementLabel "Dictionary-Derived Term"^^xsd:string ;
  mms:dataElementName "AEDECOD"^^xsd:string ;
  mms:dataElementType "xsd:string"^^xsd:anySimpleType ;
  mms:ordinal "10"^^xsd:positiveInteger ;
  cdiscs:controlledTermsOrFormat "*"^^xsd:string ;
  cdiscs:dataElementCompliance <http://rdf.cdisc.org/std/sdtm-1-2#Classifier.RequiredVariable> ;
  cdiscs:dataElementRole <http://rdf.cdisc.org/std/sdtm-1-2#Classifier.SynonymQualifier> ;
  cdiscs:dataElementType <http://rdf.cdisc.org/std/schema#Classifier.Character> ;
  cdiscs:references "SDTM 2.2.2, SDTMIG 4.1.3.5 SDTMIG 4.1.3.6"^^xsd:string ;
.
<http://rdf.cdisc.org/std/sdtmig-3-1-2#Column.AE.AEDUR>
  rdf:type mms:Column ;
  mms:context <http://rdf.cdisc.org/std/sdtmig-3-1-2#Dataset.AE> ;
  mms:dataElement <http://rdf.cdisc.org/std/sdtm-1-2#DataElement.Timing.--DUR> ;
  mms:dataElementDescription "Collected duration and unit of an adverse event. Used only if collected on the CRF and not derived from start and end date/times. Example: P1DT2H (for 1 day, 2 hours)."^^xsd:string ;
  mms:dataElementLabel "Duration of Adverse Event"^^xsd:string ;
  mms:dataElementName "AEDUR"^^xsd:string ;
  mms:dataElementType "xsd:duration"^^xsd:anySimpleType ;
  mms:ordinal "38"^^xsd:positiveInteger ;
  cdiscs:controlledTermsOrFormat "ISO 8601"^^xsd:string ;
  cdiscs:dataElementCompliance <http://rdf.cdisc.org/std/sdtm-1-2#Classifier.PermissibleVariable> ;
  cdiscs:dataElementRole <http://rdf.cdisc.org/std/sdtm-1-2#Classifier.TimingVariable> ;
  cdiscs:dataElementType <http://rdf.cdisc.org/std/schema#Classifier.Character> ;
  cdiscs:references "SDTM 2.2.5, SDTMIG 4.1.4.3"^^xsd:string ;
.
<http://rdf.cdisc.org/std/sdtmig-3-1-2#Column.AE.AEENDTC>
  rdf:type mms:Column ;
  mms:context <http://rdf.cdisc.org/std/sdtmig-3-1-2#Dataset.AE> ;
  mms:dataElement <http://rdf.cdisc.org/std/sdtm-1-2#DataElement.Timing.--ENDTC> ;
  mms:dataElementLabel "End Date/Time of Adverse Event"^^xsd:string ;
  mms:dataElementName "AEENDTC"^^xsd:string ;
  mms:dataElementType "xsd:dateTime"^^xsd:anySimpleType ;
  mms:ordinal "35"^^xsd:positiveInteger ;
  cdiscs:controlledTermsOrFormat "ISO 8601"^^xsd:string ;
  cdiscs:dataElementCompliance <http://rdf.cdisc.org/std/sdtm-1-2#Classifier.ExpectedVariable> ;
  cdiscs:dataElementRole <http://rdf.cdisc.org/std/sdtm-1-2#Classifier.TimingVariable> ;
  cdiscs:dataElementType <http://rdf.cdisc.org/std/schema#Classifier.Character> ;
  cdiscs:references "SDTM 2.2.5, SDTMIG 4.1.4.1; SDTMIG 4.1.4.2"^^xsd:string ;
.
<http://rdf.cdisc.org/std/sdtmig-3-1-2#Column.AE.AEENDY>
  rdf:type mms:Column ;
  mms:context <http://rdf.cdisc.org/std/sdtmig-3-1-2#Dataset.AE> ;
  mms:dataElement <http://rdf.cdisc.org/std/sdtm-1-2#DataElement.Timing.--ENDY> ;
  mms:dataElementDescription "Study day of end of event relative to the sponsor-defined RFSTDTC."^^xsd:string ;
  mms:dataElementLabel "Study Day of End of Adverse Event"^^xsd:string ;
  mms:dataElementName "AEENDY"^^xsd:string ;
  mms:dataElementType "xsd:integer"^^xsd:anySimpleType ;
  mms:ordinal "37"^^xsd:positiveInteger ;
  cdiscs:dataElementCompliance <http://rdf.cdisc.org/std/sdtm-1-2#Classifier.PermissibleVariable> ;
  cdiscs:dataElementRole <http://rdf.cdisc.org/std/sdtm-1-2#Classifier.TimingVariable> ;
  cdiscs:dataElementType <http://rdf.cdisc.org/std/schema#Classifier.Numeric> ;
  cdiscs:references "SDTM 2.2.5, SDTMIG 4.1.4.4"^^xsd:string ;
.
<http://rdf.cdisc.org/std/sdtmig-3-1-2#Column.AE.AEENRF>
  rdf:type mms:Column ;
  mms:context <http://rdf.cdisc.org/std/sdtmig-3-1-2#Dataset.AE> ;
  mms:dataElement <http://rdf.cdisc.org/std/sdtm-1-2#DataElement.Timing.--ENRF> ;
  mms:dataElementDescription "Describes the end of the event relative to the sponsor-defined reference period. The sponsor-defined reference period is a continuous period of time defined by a discrete starting point (RFSTDTC) and a discrete ending point (RFENDTC) of the trial."^^xsd:string ;
  mms:dataElementLabel "End Relative to Reference Period"^^xsd:string ;
  mms:dataElementName "AEENRF"^^xsd:string ;
  mms:dataElementType "xsd:string"^^xsd:anySimpleType ;
  mms:dataElementValueDomain sdtmct:C66728 ;
  mms:ordinal "39"^^xsd:positiveInteger ;
  cdiscs:controlledTermsOrFormat "(STENRF)"^^xsd:string ;
  cdiscs:dataElementCompliance <http://rdf.cdisc.org/std/sdtm-1-2#Classifier.PermissibleVariable> ;
  cdiscs:dataElementRole <http://rdf.cdisc.org/std/sdtm-1-2#Classifier.TimingVariable> ;
  cdiscs:dataElementType <http://rdf.cdisc.org/std/schema#Classifier.Character> ;
  cdiscs:references "SDTM 2.2.5, SDTMIG 4.1.4.7"^^xsd:string ;
.
<http://rdf.cdisc.org/std/sdtmig-3-1-2#Column.AE.AEENRTPT>
  rdf:type mms:Column ;
  mms:context <http://rdf.cdisc.org/std/sdtmig-3-1-2#Dataset.AE> ;
  mms:dataElement <http://rdf.cdisc.org/std/sdtm-1-2#DataElement.Timing.--ENRTPT> ;
  mms:dataElementDescription "Identifies the end of the event as being before or after the reference time point defined by variable AEENTPT."^^xsd:string ;
  mms:dataElementLabel "End Relative to Reference Time Point"^^xsd:string ;
  mms:dataElementName "AEENRTPT"^^xsd:string ;
  mms:dataElementType "xsd:string"^^xsd:anySimpleType ;
  mms:ordinal "40"^^xsd:positiveInteger ;
  cdiscs:controlledTermsOrFormat "BEFORE, AFTER, COINCIDENT, ONGOING, U"^^xsd:string ;
  cdiscs:dataElementCompliance <http://rdf.cdisc.org/std/sdtm-1-2#Classifier.PermissibleVariable> ;
  cdiscs:dataElementRole <http://rdf.cdisc.org/std/sdtm-1-2#Classifier.TimingVariable> ;
  cdiscs:dataElementType <http://rdf.cdisc.org/std/schema#Classifier.Character> ;
  cdiscs:references "SDTM 2.2.5, SDTMIG 4.1.4.7"^^xsd:string ;
.
<http://rdf.cdisc.org/std/sdtmig-3-1-2#Column.AE.AEENTPT>
  rdf:type mms:Column ;
  mms:context <http://rdf.cdisc.org/std/sdtmig-3-1-2#Dataset.AE> ;
  mms:dataElement <http://rdf.cdisc.org/std/sdtm-1-2#DataElement.Timing.--ENTPT> ;
  mms:dataElementDescription "Description of date/time in ISO 8601 character format of the reference point referred to by AEENRTPT. Examples: \"2003-12-25\" or \"VISIT 2\"."^^xsd:string ;
  mms:dataElementLabel "End Reference Time Point"^^xsd:string ;
  mms:dataElementName "AEENTPT"^^xsd:string ;
  mms:dataElementType "xsd:string"^^xsd:anySimpleType ;
  mms:ordinal "41"^^xsd:positiveInteger ;
  cdiscs:dataElementCompliance <http://rdf.cdisc.org/std/sdtm-1-2#Classifier.PermissibleVariable> ;
  cdiscs:dataElementRole <http://rdf.cdisc.org/std/sdtm-1-2#Classifier.TimingVariable> ;
  cdiscs:dataElementType <http://rdf.cdisc.org/std/schema#Classifier.Character> ;
  cdiscs:references "SDTM 2.2.5, SDTMIG 4.1.4.7"^^xsd:string ;
.
<http://rdf.cdisc.org/std/sdtmig-3-1-2#Column.AE.AEGRPID>
  rdf:type mms:Column ;
  mms:context <http://rdf.cdisc.org/std/sdtmig-3-1-2#Dataset.AE> ;
  mms:dataElement <http://rdf.cdisc.org/std/sdtm-1-2#DataElement.Identifier.--GRPID> ;
  mms:dataElementDescription "Used to tie together a block of related records in a single domain for a subject."^^xsd:string ;
  mms:dataElementLabel "Group ID"^^xsd:string ;
  mms:dataElementName "AEGRPID"^^xsd:string ;
  mms:dataElementType "xsd:string"^^xsd:anySimpleType ;
  mms:ordinal "5"^^xsd:positiveInteger ;
  cdiscs:dataElementCompliance <http://rdf.cdisc.org/std/sdtm-1-2#Classifier.PermissibleVariable> ;
  cdiscs:dataElementRole <http://rdf.cdisc.org/std/sdtm-1-2#Classifier.IdentifierVariable> ;
  cdiscs:dataElementType <http://rdf.cdisc.org/std/schema#Classifier.Character> ;
  cdiscs:references "SDTM 2.2.4"^^xsd:string ;
.
<http://rdf.cdisc.org/std/sdtmig-3-1-2#Column.AE.AELOC>
  rdf:type mms:Column ;
  mms:context <http://rdf.cdisc.org/std/sdtmig-3-1-2#Dataset.AE> ;
  mms:dataElement <http://rdf.cdisc.org/std/sdtm-1-2#DataElement.Event.--LOC> ;
  mms:dataElementDescription "Describes anatomical location relevant for the event (e.g., LEFT ARM for skin rash)."^^xsd:string ;
  mms:dataElementLabel "Location of Event"^^xsd:string ;
  mms:dataElementName "AELOC"^^xsd:string ;
  mms:dataElementType "xsd:string"^^xsd:anySimpleType ;
  mms:dataElementValueDomain sdtmct:C74456 ;
  mms:ordinal "25"^^xsd:positiveInteger ;
  cdiscs:controlledTermsOrFormat "(LOC)"^^xsd:string ;
  cdiscs:dataElementCompliance <http://rdf.cdisc.org/std/sdtm-1-2#Classifier.PermissibleVariable> ;
  cdiscs:dataElementRole <http://rdf.cdisc.org/std/sdtm-1-2#Classifier.RecordQualifier> ;
  cdiscs:dataElementType <http://rdf.cdisc.org/std/schema#Classifier.Character> ;
  cdiscs:references "SDTM 2.2.2"^^xsd:string ;
.
<http://rdf.cdisc.org/std/sdtmig-3-1-2#Column.AE.AEMODIFY>
  rdf:type mms:Column ;
  mms:context <http://rdf.cdisc.org/std/sdtmig-3-1-2#Dataset.AE> ;
  mms:dataElement <http://rdf.cdisc.org/std/sdtm-1-2#DataElement.Event.--MODIFY> ;
  mms:dataElementDescription "If AETERM is modified to facilitate coding, then AEMODIFY will contain the modified text."^^xsd:string ;
  mms:dataElementLabel "Modified Reported Term"^^xsd:string ;
  mms:dataElementName "AEMODIFY"^^xsd:string ;
  mms:dataElementType "xsd:string"^^xsd:anySimpleType ;
  mms:ordinal "9"^^xsd:positiveInteger ;
  cdiscs:dataElementCompliance <http://rdf.cdisc.org/std/sdtm-1-2#Classifier.PermissibleVariable> ;
  cdiscs:dataElementRole <http://rdf.cdisc.org/std/sdtm-1-2#Classifier.SynonymQualifier> ;
  cdiscs:dataElementType <http://rdf.cdisc.org/std/schema#Classifier.Character> ;
  cdiscs:references "SDTM 2.2.2, SDTMIG 4.1.3.6"^^xsd:string ;
.
<http://rdf.cdisc.org/std/sdtmig-3-1-2#Column.AE.AEOUT>
  rdf:type mms:Column ;
  mms:context <http://rdf.cdisc.org/std/sdtmig-3-1-2#Dataset.AE> ;
  mms:dataElement <http://rdf.cdisc.org/std/sdtm-1-2#DataElement.Event.--OUT> ;
  mms:dataElementDescription "Description of the outcome of an event."^^xsd:string ;
  mms:dataElementLabel "Outcome of Adverse Event"^^xsd:string ;
  mms:dataElementName "AEOUT"^^xsd:string ;
  mms:dataElementType "xsd:string"^^xsd:anySimpleType ;
  mms:dataElementValueDomain sdtmct:C66768 ;
  mms:ordinal "23"^^xsd:positiveInteger ;
  cdiscs:controlledTermsOrFormat "(OUT)"^^xsd:string ;
  cdiscs:dataElementCompliance <http://rdf.cdisc.org/std/sdtm-1-2#Classifier.PermissibleVariable> ;
  cdiscs:dataElementRole <http://rdf.cdisc.org/std/sdtm-1-2#Classifier.RecordQualifier> ;
  cdiscs:dataElementType <http://rdf.cdisc.org/std/schema#Classifier.Character> ;
  cdiscs:references "SDTM 2.2.2"^^xsd:string ;
.
<http://rdf.cdisc.org/std/sdtmig-3-1-2#Column.AE.AEPATT>
  rdf:type mms:Column ;
  mms:context <http://rdf.cdisc.org/std/sdtmig-3-1-2#Dataset.AE> ;
  mms:dataElement <http://rdf.cdisc.org/std/sdtm-1-2#DataElement.Event.--PATT> ;
  mms:dataElementDescription "Used to indicate the pattern of the event over time. Examples: INTERMITTENT, CONTINUOUS, SINGLE EVENT."^^xsd:string ;
  mms:dataElementLabel "Pattern of Adverse Event"^^xsd:string ;
  mms:dataElementName "AEPATT"^^xsd:string ;
  mms:dataElementType "xsd:string"^^xsd:anySimpleType ;
  mms:ordinal "22"^^xsd:positiveInteger ;
  cdiscs:controlledTermsOrFormat "*"^^xsd:string ;
  cdiscs:dataElementCompliance <http://rdf.cdisc.org/std/sdtm-1-2#Classifier.PermissibleVariable> ;
  cdiscs:dataElementRole <http://rdf.cdisc.org/std/sdtm-1-2#Classifier.RecordQualifier> ;
  cdiscs:dataElementType <http://rdf.cdisc.org/std/schema#Classifier.Character> ;
  cdiscs:references "SDTM 2.2.2"^^xsd:string ;
.
<http://rdf.cdisc.org/std/sdtmig-3-1-2#Column.AE.AEPRESP>
  rdf:type mms:Column ;
  mms:context <http://rdf.cdisc.org/std/sdtmig-3-1-2#Dataset.AE> ;
  mms:dataElement <http://rdf.cdisc.org/std/sdtm-1-2#DataElement.Event.--PRESP> ;
  mms:dataElementDescription "A value of \"Y\" indicates that this adverse event was pre-specified on the CRF. Values are null for spontaneously reported events (i.e., those collected as free-text verbatim terms)."^^xsd:string ;
  mms:dataElementLabel "Pre-Specified Adverse Event"^^xsd:string ;
  mms:dataElementName "AEPRESP"^^xsd:string ;
  mms:dataElementType "xsd:string"^^xsd:anySimpleType ;
  mms:dataElementValueDomain sdtmct:C66742 ;
  mms:ordinal "13"^^xsd:positiveInteger ;
  cdiscs:controlledTermsOrFormat "(NY)"^^xsd:string ;
  cdiscs:dataElementCompliance <http://rdf.cdisc.org/std/sdtm-1-2#Classifier.PermissibleVariable> ;
  cdiscs:dataElementRole <http://rdf.cdisc.org/std/sdtm-1-2#Classifier.RecordQualifier> ;
  cdiscs:dataElementType <http://rdf.cdisc.org/std/schema#Classifier.Character> ;
  cdiscs:references "SDTM 2.2.2, SDTMIG  4.1.2.7, SDTMIG 4.1.5.7"^^xsd:string ;
.
<http://rdf.cdisc.org/std/sdtmig-3-1-2#Column.AE.AEREFID>
  rdf:type mms:Column ;
  mms:context <http://rdf.cdisc.org/std/sdtmig-3-1-2#Dataset.AE> ;
  mms:dataElement <http://rdf.cdisc.org/std/sdtm-1-2#DataElement.Identifier.--REFID> ;
  mms:dataElementDescription "Internal or external identifier such as a serial number on an SAE reporting form."^^xsd:string ;
  mms:dataElementLabel "Reference ID"^^xsd:string ;
  mms:dataElementName "AEREFID"^^xsd:string ;
  mms:dataElementType "xsd:string"^^xsd:anySimpleType ;
  mms:ordinal "6"^^xsd:positiveInteger ;
  cdiscs:dataElementCompliance <http://rdf.cdisc.org/std/sdtm-1-2#Classifier.PermissibleVariable> ;
  cdiscs:dataElementRole <http://rdf.cdisc.org/std/sdtm-1-2#Classifier.IdentifierVariable> ;
  cdiscs:dataElementType <http://rdf.cdisc.org/std/schema#Classifier.Character> ;
  cdiscs:references "SDTM 2.2.4"^^xsd:string ;
.
<http://rdf.cdisc.org/std/sdtmig-3-1-2#Column.AE.AEREL>
  rdf:type mms:Column ;
  mms:context <http://rdf.cdisc.org/std/sdtmig-3-1-2#Dataset.AE> ;
  mms:dataElement <http://rdf.cdisc.org/std/sdtm-1-2#DataElement.Event.--REL> ;
  mms:dataElementDescription "Records the investigator's opinion as to the causality of the event to the treatment. ICH E2A and E2B examples include NOT RELATED, UNLIKELY RELATED, POSSIBLY RELATED, RELATED. Controlled Terminology may be defined in the future. Check with regulatory authority for population of this variable."^^xsd:string ;
  mms:dataElementLabel "Causality"^^xsd:string ;
  mms:dataElementName "AEREL"^^xsd:string ;
  mms:dataElementType "xsd:string"^^xsd:anySimpleType ;
  mms:ordinal "20"^^xsd:positiveInteger ;
  cdiscs:controlledTermsOrFormat "*"^^xsd:string ;
  cdiscs:dataElementCompliance <http://rdf.cdisc.org/std/sdtm-1-2#Classifier.ExpectedVariable> ;
  cdiscs:dataElementRole <http://rdf.cdisc.org/std/sdtm-1-2#Classifier.RecordQualifier> ;
  cdiscs:dataElementType <http://rdf.cdisc.org/std/schema#Classifier.Character> ;
  cdiscs:references "SDTM 2.2.2"^^xsd:string ;
.
<http://rdf.cdisc.org/std/sdtmig-3-1-2#Column.AE.AERELNST>
  rdf:type mms:Column ;
  mms:context <http://rdf.cdisc.org/std/sdtmig-3-1-2#Dataset.AE> ;
  mms:dataElement <http://rdf.cdisc.org/std/sdtm-1-2#DataElement.Event.--RELNST> ;
  mms:dataElementDescription "Records the investigator's opinion as to whether the event may have been due to a treatment other than study drug. May be reported as free text. Example: \"MORE LIKELY RELATED TO ASPIRIN USE.\"."^^xsd:string ;
  mms:dataElementLabel "Relationship to Non-Study Treatment"^^xsd:string ;
  mms:dataElementName "AERELNST"^^xsd:string ;
  mms:dataElementType "xsd:string"^^xsd:anySimpleType ;
  mms:ordinal "21"^^xsd:positiveInteger ;
  cdiscs:dataElementCompliance <http://rdf.cdisc.org/std/sdtm-1-2#Classifier.PermissibleVariable> ;
  cdiscs:dataElementRole <http://rdf.cdisc.org/std/sdtm-1-2#Classifier.RecordQualifier> ;
  cdiscs:dataElementType <http://rdf.cdisc.org/std/schema#Classifier.Character> ;
  cdiscs:references "SDTM 2.2.2"^^xsd:string ;
.
<http://rdf.cdisc.org/std/sdtmig-3-1-2#Column.AE.AESCAN>
  rdf:type mms:Column ;
  mms:context <http://rdf.cdisc.org/std/sdtmig-3-1-2#Dataset.AE> ;
  mms:dataElement <http://rdf.cdisc.org/std/sdtm-1-2#DataElement.Event.--SCAN> ;
  mms:dataElementDescription "Was the serious event associated with the development of cancer?"^^xsd:string ;
  mms:dataElementLabel "Involves Cancer"^^xsd:string ;
  mms:dataElementName "AESCAN"^^xsd:string ;
  mms:dataElementType "xsd:string"^^xsd:anySimpleType ;
  mms:dataElementValueDomain sdtmct:C66742 ;
  mms:ordinal "24"^^xsd:positiveInteger ;
  cdiscs:controlledTermsOrFormat "(NY)"^^xsd:string ;
  cdiscs:dataElementCompliance <http://rdf.cdisc.org/std/sdtm-1-2#Classifier.PermissibleVariable> ;
  cdiscs:dataElementRole <http://rdf.cdisc.org/std/sdtm-1-2#Classifier.RecordQualifier> ;
  cdiscs:dataElementType <http://rdf.cdisc.org/std/schema#Classifier.Character> ;
  cdiscs:references "SDTM 2.2.2"^^xsd:string ;
.
<http://rdf.cdisc.org/std/sdtmig-3-1-2#Column.AE.AESCAT>
  rdf:type mms:Column ;
  mms:context <http://rdf.cdisc.org/std/sdtmig-3-1-2#Dataset.AE> ;
  mms:dataElement <http://rdf.cdisc.org/std/sdtm-1-2#DataElement.Event.--SCAT> ;
  mms:dataElementDescription "A further categorization of adverse event. Example: NEUROLOGIC."^^xsd:string ;
  mms:dataElementLabel "Subcategory for Adverse Event"^^xsd:string ;
  mms:dataElementName "AESCAT"^^xsd:string ;
  mms:dataElementType "xsd:string"^^xsd:anySimpleType ;
  mms:ordinal "12"^^xsd:positiveInteger ;
  cdiscs:controlledTermsOrFormat "*"^^xsd:string ;
  cdiscs:dataElementCompliance <http://rdf.cdisc.org/std/sdtm-1-2#Classifier.PermissibleVariable> ;
  cdiscs:dataElementRole <http://rdf.cdisc.org/std/sdtm-1-2#Classifier.GroupingQualifier> ;
  cdiscs:dataElementType <http://rdf.cdisc.org/std/schema#Classifier.Character> ;
  cdiscs:references "SDTM 2.2.2, SDTMIG 4.1.2.6"^^xsd:string ;
.
<http://rdf.cdisc.org/std/sdtmig-3-1-2#Column.AE.AESCONG>
  rdf:type mms:Column ;
  mms:context <http://rdf.cdisc.org/std/sdtmig-3-1-2#Dataset.AE> ;
  mms:dataElement <http://rdf.cdisc.org/std/sdtm-1-2#DataElement.Event.--SCONG> ;
  mms:dataElementDescription "Was the serious event associated with congenital anomaly or birth defect?"^^xsd:string ;
  mms:dataElementLabel "Congenital Anomaly or Birth Defect"^^xsd:string ;
  mms:dataElementName "AESCONG"^^xsd:string ;
  mms:dataElementType "xsd:string"^^xsd:anySimpleType ;
  mms:dataElementValueDomain sdtmct:C66742 ;
  mms:ordinal "25"^^xsd:positiveInteger ;
  cdiscs:controlledTermsOrFormat "(NY)"^^xsd:string ;
  cdiscs:dataElementCompliance <http://rdf.cdisc.org/std/sdtm-1-2#Classifier.PermissibleVariable> ;
  cdiscs:dataElementRole <http://rdf.cdisc.org/std/sdtm-1-2#Classifier.RecordQualifier> ;
  cdiscs:dataElementType <http://rdf.cdisc.org/std/schema#Classifier.Character> ;
  cdiscs:references "SDTM 2.2.2"^^xsd:string ;
.
<http://rdf.cdisc.org/std/sdtmig-3-1-2#Column.AE.AESDISAB>
  rdf:type mms:Column ;
  mms:context <http://rdf.cdisc.org/std/sdtmig-3-1-2#Dataset.AE> ;
  mms:dataElement <http://rdf.cdisc.org/std/sdtm-1-2#DataElement.Event.--SDISAB> ;
