# baseURI: http://www.assero.co.uk/MDRStandards//V1
# imports: http://www.assero.co.uk/ISO11179Identification
# imports: http://www.assero.co.uk/BusinessDomain
# imports: http://www.assero.co.uk/BusinessStandard

@prefix : <http://www.assero.co.uk/MDRStandards//V1#> .
@prefix mdrDomainsV1: <http://www.assero.co.uk/MDRStandards//Domain/V1#> .
@prefix isoB: <http://www.assero.co.uk/ISO11179Basic#> .
@prefix isoI: <http://www.assero.co.uk/ISO11179Identification#> .
@prefix bo: <http://www.assero.co.uk/BusinessOperational#> .
@prefix bd: <http://www.assero.co.uk/BusinessDomain#> .
@prefix bs: <http://www.assero.co.uk/BusinessStandard#> .
@prefix mdrItems: <http://www.assero.co.uk/MDRItems#> .
@prefix owl: <http://www.w3.org/2002/07/owl#> .
@prefix rdf: <http://www.w3.org/1999/02/22-rdf-syntax-ns#> .
@prefix rdfs: <http://www.w3.org/2000/01/rdf-schema#> .
@prefix skos: <http://www.w3.org/2004/02/skos/core#> .
@prefix xsd: <http://www.w3.org/2001/XMLSchema#> .

<http://www.assero.co.uk/MDRStandards//V1>
	rdf:type owl:Ontology ;
	owl:imports <http://www.assero.co.uk/ISO11179Identification> ;
	owl:imports <http://www.assero.co.uk/BusinessDomain> ;
	owl:imports <http://www.assero.co.uk/BusinessStandard> ;
.
:STD-CDISC_SDTM_IG
	rdf:type bs:SDTMIG ;
	bo:name "CDISC SDTM Implementation Guide"^^xsd:string ;
	isoI:hasIdentifier mdrItems:SI-CDISC_SDTM_IG-1 ;
	bs:composedOf mdrDomainsV1:D-AE ;
	bs:composedOf mdrDomainsV1:D-CE ;
	bs:composedOf mdrDomainsV1:D-CM ;
	bs:composedOf mdrDomainsV1:D-CO ;
	bs:composedOf mdrDomainsV1:D-DA ;
	bs:composedOf mdrDomainsV1:D-DM ;
	bs:composedOf mdrDomainsV1:D-DS ;
	bs:composedOf mdrDomainsV1:D-DV ;
	bs:composedOf mdrDomainsV1:D-EG ;
	bs:composedOf mdrDomainsV1:D-EX ;
	bs:composedOf mdrDomainsV1:D-FA ;
	bs:composedOf mdrDomainsV1:D-IE ;
	bs:composedOf mdrDomainsV1:D-LB ;
	bs:composedOf mdrDomainsV1:D-MB ;
	bs:composedOf mdrDomainsV1:D-MH ;
	bs:composedOf mdrDomainsV1:D-MS ;
	bs:composedOf mdrDomainsV1:D-PC ;
	bs:composedOf mdrDomainsV1:D-PE ;
	bs:composedOf mdrDomainsV1:D-PP ;
	bs:composedOf mdrDomainsV1:D-QS ;
	bs:composedOf mdrDomainsV1:D-RELREC ;
	bs:composedOf mdrDomainsV1:D-SC ;
	bs:composedOf mdrDomainsV1:D-SE ;
	bs:composedOf mdrDomainsV1:D-SU ;
	bs:composedOf mdrDomainsV1:D-SUPPQUAL ;
	bs:composedOf mdrDomainsV1:D-SV ;
	bs:composedOf mdrDomainsV1:D-TA ;
	bs:composedOf mdrDomainsV1:D-TE ;
	bs:composedOf mdrDomainsV1:D-TI ;
	bs:composedOf mdrDomainsV1:D-TS ;
	bs:composedOf mdrDomainsV1:D-TV ;
	bs:composedOf mdrDomainsV1:D-VS ;
.
mdrItems:SI-CDISC_SDTM_IG-1
	rdf:type isoI:ScopedIdentifier ;
	isoI:identifier "CDISC SDTM Implementation Guide"^^xsd:string ;
	isoI:version ""^^xsd:string ;
	isoI:internalVersion "1"^^xsd:positiveInteger ;
	isoI:hasScope mdrItems:NS-CDISC ;
.
mdrDomainsV1:D-AE
	rdf:type bd:Domain ;
	bo:name "AE"^^xsd:string ;
	rdfs:label "SDTM Domain"^^xsd:string ;
	isoI:hasIdentifier mdrItems:SI-DOMAIN_AE-1 ;
	bs:usedBy :STD-CDISC_SDTM_IG ;
.
mdrItems:SI-DOMAIN_AE-1
	rdf:type isoI:ScopedIdentifier ;
	isoI:identifier "CDISC SDTM AE Domain"^^xsd:string ;
	isoI:version ""^^xsd:string ;
	isoI:internalVersion "1"^^xsd:positiveInteger ;
	isoI:hasScope mdrItems:NS-CDISC ;
.
mdrDomainsV1:D-CE
	rdf:type bd:Domain ;
	bo:name "CE"^^xsd:string ;
	rdfs:label "SDTM Domain"^^xsd:string ;
	isoI:hasIdentifier mdrItems:SI-DOMAIN_CE-1 ;
	bs:usedBy :STD-CDISC_SDTM_IG ;
.
mdrItems:SI-DOMAIN_CE-1
	rdf:type isoI:ScopedIdentifier ;
	isoI:identifier "CDISC SDTM CE Domain"^^xsd:string ;
	isoI:version ""^^xsd:string ;
	isoI:internalVersion "1"^^xsd:positiveInteger ;
	isoI:hasScope mdrItems:NS-CDISC ;
.
mdrDomainsV1:D-CM
	rdf:type bd:Domain ;
	bo:name "CM"^^xsd:string ;
	rdfs:label "SDTM Domain"^^xsd:string ;
	isoI:hasIdentifier mdrItems:SI-DOMAIN_CM-1 ;
	bs:usedBy :STD-CDISC_SDTM_IG ;
.
mdrItems:SI-DOMAIN_CM-1
	rdf:type isoI:ScopedIdentifier ;
	isoI:identifier "CDISC SDTM CM Domain"^^xsd:string ;
	isoI:version ""^^xsd:string ;
	isoI:internalVersion "1"^^xsd:positiveInteger ;
	isoI:hasScope mdrItems:NS-CDISC ;
.
mdrDomainsV1:D-CO
	rdf:type bd:Domain ;
	bo:name "CO"^^xsd:string ;
	rdfs:label "SDTM Domain"^^xsd:string ;
	isoI:hasIdentifier mdrItems:SI-DOMAIN_CO-1 ;
	bs:usedBy :STD-CDISC_SDTM_IG ;
.
mdrItems:SI-DOMAIN_CO-1
	rdf:type isoI:ScopedIdentifier ;
	isoI:identifier "CDISC SDTM CO Domain"^^xsd:string ;
	isoI:version ""^^xsd:string ;
	isoI:internalVersion "1"^^xsd:positiveInteger ;
	isoI:hasScope mdrItems:NS-CDISC ;
.
mdrDomainsV1:D-DA
	rdf:type bd:Domain ;
	bo:name "DA"^^xsd:string ;
	rdfs:label "SDTM Domain"^^xsd:string ;
	isoI:hasIdentifier mdrItems:SI-DOMAIN_DA-1 ;
	bs:usedBy :STD-CDISC_SDTM_IG ;
.
mdrItems:SI-DOMAIN_DA-1
	rdf:type isoI:ScopedIdentifier ;
	isoI:identifier "CDISC SDTM DA Domain"^^xsd:string ;
	isoI:version ""^^xsd:string ;
	isoI:internalVersion "1"^^xsd:positiveInteger ;
	isoI:hasScope mdrItems:NS-CDISC ;
.
mdrDomainsV1:D-DM
	rdf:type bd:Domain ;
	bo:name "DM"^^xsd:string ;
	rdfs:label "SDTM Domain"^^xsd:string ;
	isoI:hasIdentifier mdrItems:SI-DOMAIN_DM-1 ;
	bs:usedBy :STD-CDISC_SDTM_IG ;
.
mdrItems:SI-DOMAIN_DM-1
	rdf:type isoI:ScopedIdentifier ;
	isoI:identifier "CDISC SDTM DM Domain"^^xsd:string ;
	isoI:version ""^^xsd:string ;
	isoI:internalVersion "1"^^xsd:positiveInteger ;
	isoI:hasScope mdrItems:NS-CDISC ;
.
mdrDomainsV1:D-DS
	rdf:type bd:Domain ;
	bo:name "DS"^^xsd:string ;
	rdfs:label "SDTM Domain"^^xsd:string ;
	isoI:hasIdentifier mdrItems:SI-DOMAIN_DS-1 ;
	bs:usedBy :STD-CDISC_SDTM_IG ;
.
mdrItems:SI-DOMAIN_DS-1
	rdf:type isoI:ScopedIdentifier ;
	isoI:identifier "CDISC SDTM DS Domain"^^xsd:string ;
	isoI:version ""^^xsd:string ;
	isoI:internalVersion "1"^^xsd:positiveInteger ;
	isoI:hasScope mdrItems:NS-CDISC ;
.
mdrDomainsV1:D-DV
	rdf:type bd:Domain ;
	bo:name "DV"^^xsd:string ;
	rdfs:label "SDTM Domain"^^xsd:string ;
	isoI:hasIdentifier mdrItems:SI-DOMAIN_DV-1 ;
	bs:usedBy :STD-CDISC_SDTM_IG ;
.
mdrItems:SI-DOMAIN_DV-1
	rdf:type isoI:ScopedIdentifier ;
	isoI:identifier "CDISC SDTM DV Domain"^^xsd:string ;
	isoI:version ""^^xsd:string ;
	isoI:internalVersion "1"^^xsd:positiveInteger ;
	isoI:hasScope mdrItems:NS-CDISC ;
.
mdrDomainsV1:D-EG
	rdf:type bd:Domain ;
	bo:name "EG"^^xsd:string ;
	rdfs:label "SDTM Domain"^^xsd:string ;
	isoI:hasIdentifier mdrItems:SI-DOMAIN_EG-1 ;
	bs:usedBy :STD-CDISC_SDTM_IG ;
.
mdrItems:SI-DOMAIN_EG-1
	rdf:type isoI:ScopedIdentifier ;
	isoI:identifier "CDISC SDTM EG Domain"^^xsd:string ;
	isoI:version ""^^xsd:string ;
	isoI:internalVersion "1"^^xsd:positiveInteger ;
	isoI:hasScope mdrItems:NS-CDISC ;
.
mdrDomainsV1:D-EX
	rdf:type bd:Domain ;
	bo:name "EX"^^xsd:string ;
	rdfs:label "SDTM Domain"^^xsd:string ;
	isoI:hasIdentifier mdrItems:SI-DOMAIN_EX-1 ;
	bs:usedBy :STD-CDISC_SDTM_IG ;
.
mdrItems:SI-DOMAIN_EX-1
	rdf:type isoI:ScopedIdentifier ;
	isoI:identifier "CDISC SDTM EX Domain"^^xsd:string ;
	isoI:version ""^^xsd:string ;
	isoI:internalVersion "1"^^xsd:positiveInteger ;
	isoI:hasScope mdrItems:NS-CDISC ;
.
mdrDomainsV1:D-FA
	rdf:type bd:Domain ;
	bo:name "FA"^^xsd:string ;
	rdfs:label "SDTM Domain"^^xsd:string ;
	isoI:hasIdentifier mdrItems:SI-DOMAIN_FA-1 ;
	bs:usedBy :STD-CDISC_SDTM_IG ;
.
mdrItems:SI-DOMAIN_FA-1
	rdf:type isoI:ScopedIdentifier ;
	isoI:identifier "CDISC SDTM FA Domain"^^xsd:string ;
	isoI:version ""^^xsd:string ;
	isoI:internalVersion "1"^^xsd:positiveInteger ;
	isoI:hasScope mdrItems:NS-CDISC ;
.
mdrDomainsV1:D-IE
	rdf:type bd:Domain ;
	bo:name "IE"^^xsd:string ;
	rdfs:label "SDTM Domain"^^xsd:string ;
	isoI:hasIdentifier mdrItems:SI-DOMAIN_IE-1 ;
	bs:usedBy :STD-CDISC_SDTM_IG ;
.
mdrItems:SI-DOMAIN_IE-1
	rdf:type isoI:ScopedIdentifier ;
	isoI:identifier "CDISC SDTM IE Domain"^^xsd:string ;
	isoI:version ""^^xsd:string ;
	isoI:internalVersion "1"^^xsd:positiveInteger ;
	isoI:hasScope mdrItems:NS-CDISC ;
.
mdrDomainsV1:D-LB
	rdf:type bd:Domain ;
	bo:name "LB"^^xsd:string ;
	rdfs:label "SDTM Domain"^^xsd:string ;
	isoI:hasIdentifier mdrItems:SI-DOMAIN_LB-1 ;
	bs:usedBy :STD-CDISC_SDTM_IG ;
.
mdrItems:SI-DOMAIN_LB-1
	rdf:type isoI:ScopedIdentifier ;
	isoI:identifier "CDISC SDTM LB Domain"^^xsd:string ;
	isoI:version ""^^xsd:string ;
	isoI:internalVersion "1"^^xsd:positiveInteger ;
	isoI:hasScope mdrItems:NS-CDISC ;
.
mdrDomainsV1:D-MB
	rdf:type bd:Domain ;
	bo:name "MB"^^xsd:string ;
	rdfs:label "SDTM Domain"^^xsd:string ;
	isoI:hasIdentifier mdrItems:SI-DOMAIN_MB-1 ;
	bs:usedBy :STD-CDISC_SDTM_IG ;
.
mdrItems:SI-DOMAIN_MB-1
	rdf:type isoI:ScopedIdentifier ;
	isoI:identifier "CDISC SDTM MB Domain"^^xsd:string ;
	isoI:version ""^^xsd:string ;
	isoI:internalVersion "1"^^xsd:positiveInteger ;
	isoI:hasScope mdrItems:NS-CDISC ;
.
mdrDomainsV1:D-MH
	rdf:type bd:Domain ;
	bo:name "MH"^^xsd:string ;
	rdfs:label "SDTM Domain"^^xsd:string ;
	isoI:hasIdentifier mdrItems:SI-DOMAIN_MH-1 ;
	bs:usedBy :STD-CDISC_SDTM_IG ;
.
mdrItems:SI-DOMAIN_MH-1
	rdf:type isoI:ScopedIdentifier ;
	isoI:identifier "CDISC SDTM MH Domain"^^xsd:string ;
	isoI:version ""^^xsd:string ;
	isoI:internalVersion "1"^^xsd:positiveInteger ;
	isoI:hasScope mdrItems:NS-CDISC ;
.
mdrDomainsV1:D-MS
	rdf:type bd:Domain ;
	bo:name "MS"^^xsd:string ;
	rdfs:label "SDTM Domain"^^xsd:string ;
	isoI:hasIdentifier mdrItems:SI-DOMAIN_MS-1 ;
	bs:usedBy :STD-CDISC_SDTM_IG ;
.
mdrItems:SI-DOMAIN_MS-1
	rdf:type isoI:ScopedIdentifier ;
	isoI:identifier "CDISC SDTM MS Domain"^^xsd:string ;
	isoI:version ""^^xsd:string ;
	isoI:internalVersion "1"^^xsd:positiveInteger ;
	isoI:hasScope mdrItems:NS-CDISC ;
.
mdrDomainsV1:D-PC
	rdf:type bd:Domain ;
	bo:name "PC"^^xsd:string ;
	rdfs:label "SDTM Domain"^^xsd:string ;
	isoI:hasIdentifier mdrItems:SI-DOMAIN_PC-1 ;
	bs:usedBy :STD-CDISC_SDTM_IG ;
.
mdrItems:SI-DOMAIN_PC-1
	rdf:type isoI:ScopedIdentifier ;
	isoI:identifier "CDISC SDTM PC Domain"^^xsd:string ;
	isoI:version ""^^xsd:string ;
	isoI:internalVersion "1"^^xsd:positiveInteger ;
	isoI:hasScope mdrItems:NS-CDISC ;
.
mdrDomainsV1:D-PE
	rdf:type bd:Domain ;
	bo:name "PE"^^xsd:string ;
	rdfs:label "SDTM Domain"^^xsd:string ;
	isoI:hasIdentifier mdrItems:SI-DOMAIN_PE-1 ;
	bs:usedBy :STD-CDISC_SDTM_IG ;
.
mdrItems:SI-DOMAIN_PE-1
	rdf:type isoI:ScopedIdentifier ;
	isoI:identifier "CDISC SDTM PE Domain"^^xsd:string ;
	isoI:version ""^^xsd:string ;
	isoI:internalVersion "1"^^xsd:positiveInteger ;
	isoI:hasScope mdrItems:NS-CDISC ;
.
mdrDomainsV1:D-PP
	rdf:type bd:Domain ;
	bo:name "PP"^^xsd:string ;
	rdfs:label "SDTM Domain"^^xsd:string ;
	isoI:hasIdentifier mdrItems:SI-DOMAIN_PP-1 ;
	bs:usedBy :STD-CDISC_SDTM_IG ;
.
mdrItems:SI-DOMAIN_PP-1
	rdf:type isoI:ScopedIdentifier ;
	isoI:identifier "CDISC SDTM PP Domain"^^xsd:string ;
	isoI:version ""^^xsd:string ;
	isoI:internalVersion "1"^^xsd:positiveInteger ;
	isoI:hasScope mdrItems:NS-CDISC ;
.
mdrDomainsV1:D-QS
	rdf:type bd:Domain ;
	bo:name "QS"^^xsd:string ;
	rdfs:label "SDTM Domain"^^xsd:string ;
	isoI:hasIdentifier mdrItems:SI-DOMAIN_QS-1 ;
	bs:usedBy :STD-CDISC_SDTM_IG ;
.
mdrItems:SI-DOMAIN_QS-1
	rdf:type isoI:ScopedIdentifier ;
	isoI:identifier "CDISC SDTM QS Domain"^^xsd:string ;
	isoI:version ""^^xsd:string ;
	isoI:internalVersion "1"^^xsd:positiveInteger ;
	isoI:hasScope mdrItems:NS-CDISC ;
.
mdrDomainsV1:D-RELREC
	rdf:type bd:Domain ;
	bo:name "RELREC"^^xsd:string ;
	rdfs:label "SDTM Domain"^^xsd:string ;
	isoI:hasIdentifier mdrItems:SI-DOMAIN_RELREC-1 ;
	bs:usedBy :STD-CDISC_SDTM_IG ;
.
mdrItems:SI-DOMAIN_RELREC-1
	rdf:type isoI:ScopedIdentifier ;
	isoI:identifier "CDISC SDTM RELREC Domain"^^xsd:string ;
	isoI:version ""^^xsd:string ;
	isoI:internalVersion "1"^^xsd:positiveInteger ;
	isoI:hasScope mdrItems:NS-CDISC ;
.
mdrDomainsV1:D-SC
	rdf:type bd:Domain ;
	bo:name "SC"^^xsd:string ;
	rdfs:label "SDTM Domain"^^xsd:string ;
	isoI:hasIdentifier mdrItems:SI-DOMAIN_SC-1 ;
	bs:usedBy :STD-CDISC_SDTM_IG ;
.
mdrItems:SI-DOMAIN_SC-1
	rdf:type isoI:ScopedIdentifier ;
	isoI:identifier "CDISC SDTM SC Domain"^^xsd:string ;
	isoI:version ""^^xsd:string ;
	isoI:internalVersion "1"^^xsd:positiveInteger ;
	isoI:hasScope mdrItems:NS-CDISC ;
.
mdrDomainsV1:D-SE
	rdf:type bd:Domain ;
	bo:name "SE"^^xsd:string ;
	rdfs:label "SDTM Domain"^^xsd:string ;
	isoI:hasIdentifier mdrItems:SI-DOMAIN_SE-1 ;
	bs:usedBy :STD-CDISC_SDTM_IG ;
.
mdrItems:SI-DOMAIN_SE-1
	rdf:type isoI:ScopedIdentifier ;
	isoI:identifier "CDISC SDTM SE Domain"^^xsd:string ;
	isoI:version ""^^xsd:string ;
	isoI:internalVersion "1"^^xsd:positiveInteger ;
	isoI:hasScope mdrItems:NS-CDISC ;
.
mdrDomainsV1:D-SU
	rdf:type bd:Domain ;
	bo:name "SU"^^xsd:string ;
	rdfs:label "SDTM Domain"^^xsd:string ;
	isoI:hasIdentifier mdrItems:SI-DOMAIN_SU-1 ;
	bs:usedBy :STD-CDISC_SDTM_IG ;
.
mdrItems:SI-DOMAIN_SU-1
	rdf:type isoI:ScopedIdentifier ;
	isoI:identifier "CDISC SDTM SU Domain"^^xsd:string ;
	isoI:version ""^^xsd:string ;
	isoI:internalVersion "1"^^xsd:positiveInteger ;
	isoI:hasScope mdrItems:NS-CDISC ;
.
mdrDomainsV1:D-SUPPQUAL
	rdf:type bd:Domain ;
	bo:name "SUPPQUAL"^^xsd:string ;
	rdfs:label "SDTM Domain"^^xsd:string ;
	isoI:hasIdentifier mdrItems:SI-DOMAIN_SUPPQUAL-1 ;
	bs:usedBy :STD-CDISC_SDTM_IG ;
.
mdrItems:SI-DOMAIN_SUPPQUAL-1
	rdf:type isoI:ScopedIdentifier ;
	isoI:identifier "CDISC SDTM SUPPQUAL Domain"^^xsd:string ;
	isoI:version ""^^xsd:string ;
	isoI:internalVersion "1"^^xsd:positiveInteger ;
	isoI:hasScope mdrItems:NS-CDISC ;
.
mdrDomainsV1:D-SV
	rdf:type bd:Domain ;
	bo:name "SV"^^xsd:string ;
	rdfs:label "SDTM Domain"^^xsd:string ;
	isoI:hasIdentifier mdrItems:SI-DOMAIN_SV-1 ;
	bs:usedBy :STD-CDISC_SDTM_IG ;
.
mdrItems:SI-DOMAIN_SV-1
	rdf:type isoI:ScopedIdentifier ;
	isoI:identifier "CDISC SDTM SV Domain"^^xsd:string ;
	isoI:version ""^^xsd:string ;
	isoI:internalVersion "1"^^xsd:positiveInteger ;
	isoI:hasScope mdrItems:NS-CDISC ;
.
mdrDomainsV1:D-TA
	rdf:type bd:Domain ;
	bo:name "TA"^^xsd:string ;
	rdfs:label "SDTM Domain"^^xsd:string ;
	isoI:hasIdentifier mdrItems:SI-DOMAIN_TA-1 ;
	bs:usedBy :STD-CDISC_SDTM_IG ;
.
mdrItems:SI-DOMAIN_TA-1
	rdf:type isoI:ScopedIdentifier ;
	isoI:identifier "CDISC SDTM TA Domain"^^xsd:string ;
	isoI:version ""^^xsd:string ;
	isoI:internalVersion "1"^^xsd:positiveInteger ;
	isoI:hasScope mdrItems:NS-CDISC ;
.
mdrDomainsV1:D-TE
	rdf:type bd:Domain ;
	bo:name "TE"^^xsd:string ;
	rdfs:label "SDTM Domain"^^xsd:string ;
	isoI:hasIdentifier mdrItems:SI-DOMAIN_TE-1 ;
	bs:usedBy :STD-CDISC_SDTM_IG ;
.
mdrItems:SI-DOMAIN_TE-1
	rdf:type isoI:ScopedIdentifier ;
	isoI:identifier "CDISC SDTM TE Domain"^^xsd:string ;
	isoI:version ""^^xsd:string ;
	isoI:internalVersion "1"^^xsd:positiveInteger ;
	isoI:hasScope mdrItems:NS-CDISC ;
.
mdrDomainsV1:D-TI
	rdf:type bd:Domain ;
	bo:name "TI"^^xsd:string ;
	rdfs:label "SDTM Domain"^^xsd:string ;
	isoI:hasIdentifier mdrItems:SI-DOMAIN_TI-1 ;
	bs:usedBy :STD-CDISC_SDTM_IG ;
.
mdrItems:SI-DOMAIN_TI-1
	rdf:type isoI:ScopedIdentifier ;
	isoI:identifier "CDISC SDTM TI Domain"^^xsd:string ;
	isoI:version ""^^xsd:string ;
	isoI:internalVersion "1"^^xsd:positiveInteger ;
	isoI:hasScope mdrItems:NS-CDISC ;
.
mdrDomainsV1:D-TS
	rdf:type bd:Domain ;
	bo:name "TS"^^xsd:string ;
	rdfs:label "SDTM Domain"^^xsd:string ;
	isoI:hasIdentifier mdrItems:SI-DOMAIN_TS-1 ;
	bs:usedBy :STD-CDISC_SDTM_IG ;
.
mdrItems:SI-DOMAIN_TS-1
	rdf:type isoI:ScopedIdentifier ;
	isoI:identifier "CDISC SDTM TS Domain"^^xsd:string ;
	isoI:version ""^^xsd:string ;
	isoI:internalVersion "1"^^xsd:positiveInteger ;
	isoI:hasScope mdrItems:NS-CDISC ;
.
mdrDomainsV1:D-TV
	rdf:type bd:Domain ;
	bo:name "TV"^^xsd:string ;
	rdfs:label "SDTM Domain"^^xsd:string ;
	isoI:hasIdentifier mdrItems:SI-DOMAIN_TV-1 ;
	bs:usedBy :STD-CDISC_SDTM_IG ;
.
mdrItems:SI-DOMAIN_TV-1
	rdf:type isoI:ScopedIdentifier ;
	isoI:identifier "CDISC SDTM TV Domain"^^xsd:string ;
	isoI:version ""^^xsd:string ;
	isoI:internalVersion "1"^^xsd:positiveInteger ;
	isoI:hasScope mdrItems:NS-CDISC ;
.
mdrDomainsV1:D-VS
	rdf:type bd:Domain ;
	bo:name "VS"^^xsd:string ;
	rdfs:label "SDTM Domain"^^xsd:string ;
	isoI:hasIdentifier mdrItems:SI-DOMAIN_VS-1 ;
	bs:usedBy :STD-CDISC_SDTM_IG ;
.
mdrItems:SI-DOMAIN_VS-1
	rdf:type isoI:ScopedIdentifier ;
	isoI:identifier "CDISC SDTM VS Domain"^^xsd:string ;
	isoI:version ""^^xsd:string ;
	isoI:internalVersion "1"^^xsd:positiveInteger ;
	isoI:hasScope mdrItems:NS-CDISC ;
.
:V-AEACN
	rdf:type bd:Variable ;
	bd:basedOn <http://rdf.cdisc.org/std/sdtmig-3-1-2#Column.AE.AEACN> ;
	rdfs:label "SDTM Variable"^^xsd:string ;
	bd:core "???"^^xsd:string ;
	bd:datatype "???"^^xsd:string ;
	bd:defaultCommentSet "false"^^xsd:string ;
	bd:defaultComment ""^^xsd:string ;
	bd:length "NN"^^xsd:string ;
	bd:format "???"^^xsd:string ;
	bd:notes "???"^^xsd:string ;
	bd:origin ""^^xsd:string ;
	bd:role "???"^^xsd:string ;
	bd:supplementalQualifier "false"^^xsd:string ;
	bd:used "false"^^xsd:string ;
.
:V-AEACNOTH
	rdf:type bd:Variable ;
	bd:basedOn <http://rdf.cdisc.org/std/sdtmig-3-1-2#Column.AE.AEACNOTH> ;
	rdfs:label "SDTM Variable"^^xsd:string ;
	bd:core "???"^^xsd:string ;
	bd:datatype "???"^^xsd:string ;
	bd:defaultCommentSet "false"^^xsd:string ;
	bd:defaultComment ""^^xsd:string ;
	bd:length "NN"^^xsd:string ;
	bd:format "???"^^xsd:string ;
	bd:notes "???"^^xsd:string ;
	bd:origin ""^^xsd:string ;
	bd:role "???"^^xsd:string ;
	bd:supplementalQualifier "false"^^xsd:string ;
	bd:used "false"^^xsd:string ;
.
:V-AEBODSYS
	rdf:type bd:Variable ;
	bd:basedOn <http://rdf.cdisc.org/std/sdtmig-3-1-2#Column.AE.AEBODSYS> ;
	rdfs:label "SDTM Variable"^^xsd:string ;
	bd:core "???"^^xsd:string ;
	bd:datatype "???"^^xsd:string ;
	bd:defaultCommentSet "false"^^xsd:string ;
	bd:defaultComment ""^^xsd:string ;
	bd:length "NN"^^xsd:string ;
	bd:format "???"^^xsd:string ;
	bd:notes "???"^^xsd:string ;
	bd:origin ""^^xsd:string ;
	bd:role "???"^^xsd:string ;
	bd:supplementalQualifier "false"^^xsd:string ;
	bd:used "false"^^xsd:string ;
.
:V-AECAT
	rdf:type bd:Variable ;
	bd:basedOn <http://rdf.cdisc.org/std/sdtmig-3-1-2#Column.AE.AECAT> ;
	rdfs:label "SDTM Variable"^^xsd:string ;
	bd:core "???"^^xsd:string ;
	bd:datatype "???"^^xsd:string ;
	bd:defaultCommentSet "false"^^xsd:string ;
	bd:defaultComment ""^^xsd:string ;
	bd:length "NN"^^xsd:string ;
	bd:format "???"^^xsd:string ;
	bd:notes "???"^^xsd:string ;
	bd:origin ""^^xsd:string ;
	bd:role "???"^^xsd:string ;
	bd:supplementalQualifier "false"^^xsd:string ;
	bd:used "false"^^xsd:string ;
.
:V-AECONTRT
	rdf:type bd:Variable ;
	bd:basedOn <http://rdf.cdisc.org/std/sdtmig-3-1-2#Column.AE.AECONTRT> ;
	rdfs:label "SDTM Variable"^^xsd:string ;
	bd:core "???"^^xsd:string ;
	bd:datatype "???"^^xsd:string ;
	bd:defaultCommentSet "false"^^xsd:string ;
	bd:defaultComment ""^^xsd:string ;
	bd:length "NN"^^xsd:string ;
	bd:format "???"^^xsd:string ;
	bd:notes "???"^^xsd:string ;
	bd:origin ""^^xsd:string ;
	bd:role "???"^^xsd:string ;
	bd:supplementalQualifier "false"^^xsd:string ;
	bd:used "false"^^xsd:string ;
.
:V-AEDECOD
	rdf:type bd:Variable ;
	bd:basedOn <http://rdf.cdisc.org/std/sdtmig-3-1-2#Column.AE.AEDECOD> ;
	rdfs:label "SDTM Variable"^^xsd:string ;
	bd:core "???"^^xsd:string ;
	bd:datatype "???"^^xsd:string ;
	bd:defaultCommentSet "false"^^xsd:string ;
	bd:defaultComment ""^^xsd:string ;
	bd:length "NN"^^xsd:string ;
	bd:format "???"^^xsd:string ;
	bd:notes "???"^^xsd:string ;
	bd:origin ""^^xsd:string ;
	bd:role "???"^^xsd:string ;
	bd:supplementalQualifier "false"^^xsd:string ;
	bd:used "false"^^xsd:string ;
.
:V-AEDUR
	rdf:type bd:Variable ;
	bd:basedOn <http://rdf.cdisc.org/std/sdtmig-3-1-2#Column.AE.AEDUR> ;
	rdfs:label "SDTM Variable"^^xsd:string ;
	bd:core "???"^^xsd:string ;
	bd:datatype "???"^^xsd:string ;
	bd:defaultCommentSet "false"^^xsd:string ;
	bd:defaultComment ""^^xsd:string ;
	bd:length "NN"^^xsd:string ;
	bd:format "???"^^xsd:string ;
	bd:notes "???"^^xsd:string ;
	bd:origin ""^^xsd:string ;
	bd:role "???"^^xsd:string ;
	bd:supplementalQualifier "false"^^xsd:string ;
	bd:used "false"^^xsd:string ;
.
:V-AEENDTC
	rdf:type bd:Variable ;
	bd:basedOn <http://rdf.cdisc.org/std/sdtmig-3-1-2#Column.AE.AEENDTC> ;
	rdfs:label "SDTM Variable"^^xsd:string ;
	bd:core "???"^^xsd:string ;
	bd:datatype "???"^^xsd:string ;
	bd:defaultCommentSet "false"^^xsd:string ;
	bd:defaultComment ""^^xsd:string ;
	bd:length "NN"^^xsd:string ;
	bd:format "???"^^xsd:string ;
	bd:notes "???"^^xsd:string ;
	bd:origin ""^^xsd:string ;
	bd:role "???"^^xsd:string ;
	bd:supplementalQualifier "false"^^xsd:string ;
	bd:used "false"^^xsd:string ;
.
:V-AEENDY
	rdf:type bd:Variable ;
	bd:basedOn <http://rdf.cdisc.org/std/sdtmig-3-1-2#Column.AE.AEENDY> ;
	rdfs:label "SDTM Variable"^^xsd:string ;
	bd:core "???"^^xsd:string ;
	bd:datatype "???"^^xsd:string ;
	bd:defaultCommentSet "false"^^xsd:string ;
	bd:defaultComment ""^^xsd:string ;
	bd:length "NN"^^xsd:string ;
	bd:format "???"^^xsd:string ;
	bd:notes "???"^^xsd:string ;
	bd:origin ""^^xsd:string ;
	bd:role "???"^^xsd:string ;
	bd:supplementalQualifier "false"^^xsd:string ;
	bd:used "false"^^xsd:string ;
.
:V-AEENRF
	rdf:type bd:Variable ;
	bd:basedOn <http://rdf.cdisc.org/std/sdtmig-3-1-2#Column.AE.AEENRF> ;
	rdfs:label "SDTM Variable"^^xsd:string ;
	bd:core "???"^^xsd:string ;
	bd:datatype "???"^^xsd:string ;
	bd:defaultCommentSet "false"^^xsd:string ;
	bd:defaultComment ""^^xsd:string ;
	bd:length "NN"^^xsd:string ;
	bd:format "???"^^xsd:string ;
	bd:notes "???"^^xsd:string ;
	bd:origin ""^^xsd:string ;
	bd:role "???"^^xsd:string ;
	bd:supplementalQualifier "false"^^xsd:string ;
	bd:used "false"^^xsd:string ;
.
:V-AEENRTPT
	rdf:type bd:Variable ;
	bd:basedOn <http://rdf.cdisc.org/std/sdtmig-3-1-2#Column.AE.AEENRTPT> ;
	rdfs:label "SDTM Variable"^^xsd:string ;
	bd:core "???"^^xsd:string ;
	bd:datatype "???"^^xsd:string ;
	bd:defaultCommentSet "false"^^xsd:string ;
	bd:defaultComment ""^^xsd:string ;
	bd:length "NN"^^xsd:string ;
	bd:format "???"^^xsd:string ;
	bd:notes "???"^^xsd:string ;
	bd:origin ""^^xsd:string ;
	bd:role "???"^^xsd:string ;
	bd:supplementalQualifier "false"^^xsd:string ;
	bd:used "false"^^xsd:string ;
.
:V-AEENTPT
	rdf:type bd:Variable ;
	bd:basedOn <http://rdf.cdisc.org/std/sdtmig-3-1-2#Column.AE.AEENTPT> ;
	rdfs:label "SDTM Variable"^^xsd:string ;
	bd:core "???"^^xsd:string ;
	bd:datatype "???"^^xsd:string ;
	bd:defaultCommentSet "false"^^xsd:string ;
	bd:defaultComment ""^^xsd:string ;
	bd:length "NN"^^xsd:string ;
	bd:format "???"^^xsd:string ;
	bd:notes "???"^^xsd:string ;
	bd:origin ""^^xsd:string ;
	bd:role "???"^^xsd:string ;
	bd:supplementalQualifier "false"^^xsd:string ;
	bd:used "false"^^xsd:string ;
.
:V-AEGRPID
	rdf:type bd:Variable ;
	bd:basedOn <http://rdf.cdisc.org/std/sdtmig-3-1-2#Column.AE.AEGRPID> ;
	rdfs:label "SDTM Variable"^^xsd:string ;
	bd:core "???"^^xsd:string ;
	bd:datatype "???"^^xsd:string ;
	bd:defaultCommentSet "false"^^xsd:string ;
	bd:defaultComment ""^^xsd:string ;
	bd:length "NN"^^xsd:string ;
	bd:format "???"^^xsd:string ;
	bd:notes "???"^^xsd:string ;
	bd:origin ""^^xsd:string ;
	bd:role "???"^^xsd:string ;
	bd:supplementalQualifier "false"^^xsd:string ;
	bd:used "false"^^xsd:string ;
.
:V-AELOC
	rdf:type bd:Variable ;
	bd:basedOn <http://rdf.cdisc.org/std/sdtmig-3-1-2#Column.AE.AELOC> ;
	rdfs:label "SDTM Variable"^^xsd:string ;
	bd:core "???"^^xsd:string ;
	bd:datatype "???"^^xsd:string ;
	bd:defaultCommentSet "false"^^xsd:string ;
	bd:defaultComment ""^^xsd:string ;
	bd:length "NN"^^xsd:string ;
	bd:format "???"^^xsd:string ;
	bd:notes "???"^^xsd:string ;
	bd:origin ""^^xsd:string ;
	bd:role "???"^^xsd:string ;
	bd:supplementalQualifier "false"^^xsd:string ;
	bd:used "false"^^xsd:string ;
.
:V-AEMODIFY
	rdf:type bd:Variable ;
	bd:basedOn <http://rdf.cdisc.org/std/sdtmig-3-1-2#Column.AE.AEMODIFY> ;
	rdfs:label "SDTM Variable"^^xsd:string ;
	bd:core "???"^^xsd:string ;
	bd:datatype "???"^^xsd:string ;
	bd:defaultCommentSet "false"^^xsd:string ;
	bd:defaultComment ""^^xsd:string ;
	bd:length "NN"^^xsd:string ;
	bd:format "???"^^xsd:string ;
	bd:notes "???"^^xsd:string ;
	bd:origin ""^^xsd:string ;
	bd:role "???"^^xsd:string ;
	bd:supplementalQualifier "false"^^xsd:string ;
	bd:used "false"^^xsd:string ;
.
:V-AEOUT
	rdf:type bd:Variable ;
	bd:basedOn <http://rdf.cdisc.org/std/sdtmig-3-1-2#Column.AE.AEOUT> ;
	rdfs:label "SDTM Variable"^^xsd:string ;
	bd:core "???"^^xsd:string ;
	bd:datatype "???"^^xsd:string ;
	bd:defaultCommentSet "false"^^xsd:string ;
	bd:defaultComment ""^^xsd:string ;
	bd:length "NN"^^xsd:string ;
	bd:format "???"^^xsd:string ;
	bd:notes "???"^^xsd:string ;
	bd:origin ""^^xsd:string ;
	bd:role "???"^^xsd:string ;
	bd:supplementalQualifier "false"^^xsd:string ;
	bd:used "false"^^xsd:string ;
.
:V-AEPATT
	rdf:type bd:Variable ;
	bd:basedOn <http://rdf.cdisc.org/std/sdtmig-3-1-2#Column.AE.AEPATT> ;
	rdfs:label "SDTM Variable"^^xsd:string ;
	bd:core "???"^^xsd:string ;
	bd:datatype "???"^^xsd:string ;
	bd:defaultCommentSet "false"^^xsd:string ;
	bd:defaultComment ""^^xsd:string ;
	bd:length "NN"^^xsd:string ;
	bd:format "???"^^xsd:string ;
	bd:notes "???"^^xsd:string ;
	bd:origin ""^^xsd:string ;
	bd:role "???"^^xsd:string ;
	bd:supplementalQualifier "false"^^xsd:string ;
	bd:used "false"^^xsd:string ;
.
:V-AEPRESP
	rdf:type bd:Variable ;
	bd:basedOn <http://rdf.cdisc.org/std/sdtmig-3-1-2#Column.AE.AEPRESP> ;
	rdfs:label "SDTM Variable"^^xsd:string ;
	bd:core "???"^^xsd:string ;
	bd:datatype "???"^^xsd:string ;
	bd:defaultCommentSet "false"^^xsd:string ;
	bd:defaultComment ""^^xsd:string ;
	bd:length "NN"^^xsd:string ;
	bd:format "???"^^xsd:string ;
	bd:notes "???"^^xsd:string ;
	bd:origin ""^^xsd:string ;
	bd:role "???"^^xsd:string ;
	bd:supplementalQualifier "false"^^xsd:string ;
	bd:used "false"^^xsd:string ;
.
:V-AEREFID
	rdf:type bd:Variable ;
	bd:basedOn <http://rdf.cdisc.org/std/sdtmig-3-1-2#Column.AE.AEREFID> ;
	rdfs:label "SDTM Variable"^^xsd:string ;
	bd:core "???"^^xsd:string ;
	bd:datatype "???"^^xsd:string ;
	bd:defaultCommentSet "false"^^xsd:string ;
	bd:defaultComment ""^^xsd:string ;
	bd:length "NN"^^xsd:string ;
	bd:format "???"^^xsd:string ;
	bd:notes "???"^^xsd:string ;
	bd:origin ""^^xsd:string ;
	bd:role "???"^^xsd:string ;
	bd:supplementalQualifier "false"^^xsd:string ;
	bd:used "false"^^xsd:string ;
.
:V-AEREL
	rdf:type bd:Variable ;
	bd:basedOn <http://rdf.cdisc.org/std/sdtmig-3-1-2#Column.AE.AEREL> ;
	rdfs:label "SDTM Variable"^^xsd:string ;
	bd:core "???"^^xsd:string ;
	bd:datatype "???"^^xsd:string ;
	bd:defaultCommentSet "false"^^xsd:string ;
	bd:defaultComment ""^^xsd:string ;
	bd:length "NN"^^xsd:string ;
	bd:format "???"^^xsd:string ;
	bd:notes "???"^^xsd:string ;
	bd:origin ""^^xsd:string ;
	bd:role "???"^^xsd:string ;
	bd:supplementalQualifier "false"^^xsd:string ;
	bd:used "false"^^xsd:string ;
.
:V-AERELNST
	rdf:type bd:Variable ;
	bd:basedOn <http://rdf.cdisc.org/std/sdtmig-3-1-2#Column.AE.AERELNST> ;
	rdfs:label "SDTM Variable"^^xsd:string ;
	bd:core "???"^^xsd:string ;
	bd:datatype "???"^^xsd:string ;
	bd:defaultCommentSet "false"^^xsd:string ;
	bd:defaultComment ""^^xsd:string ;
	bd:length "NN"^^xsd:string ;
	bd:format "???"^^xsd:string ;
	bd:notes "???"^^xsd:string ;
	bd:origin ""^^xsd:string ;
	bd:role "???"^^xsd:string ;
	bd:supplementalQualifier "false"^^xsd:string ;
	bd:used "false"^^xsd:string ;
.
:V-AESCAN
	rdf:type bd:Variable ;
	bd:basedOn <http://rdf.cdisc.org/std/sdtmig-3-1-2#Column.AE.AESCAN> ;
	rdfs:label "SDTM Variable"^^xsd:string ;
	bd:core "???"^^xsd:string ;
	bd:datatype "???"^^xsd:string ;
	bd:defaultCommentSet "false"^^xsd:string ;
	bd:defaultComment ""^^xsd:string ;
	bd:length "NN"^^xsd:string ;
	bd:format "???"^^xsd:string ;
	bd:notes "???"^^xsd:string ;
	bd:origin ""^^xsd:string ;
	bd:role "???"^^xsd:string ;
	bd:supplementalQualifier "false"^^xsd:string ;
	bd:used "false"^^xsd:string ;
.
:V-AESCAT
	rdf:type bd:Variable ;
	bd:basedOn <http://rdf.cdisc.org/std/sdtmig-3-1-2#Column.AE.AESCAT> ;
	rdfs:label "SDTM Variable"^^xsd:string ;
	bd:core "???"^^xsd:string ;
	bd:datatype "???"^^xsd:string ;
	bd:defaultCommentSet "false"^^xsd:string ;
	bd:defaultComment ""^^xsd:string ;
	bd:length "NN"^^xsd:string ;
	bd:format "???"^^xsd:string ;
	bd:notes "???"^^xsd:string ;
	bd:origin ""^^xsd:string ;
	bd:role "???"^^xsd:string ;
	bd:supplementalQualifier "false"^^xsd:string ;
	bd:used "false"^^xsd:string ;
.
:V-AESCONG
	rdf:type bd:Variable ;
	bd:basedOn <http://rdf.cdisc.org/std/sdtmig-3-1-2#Column.AE.AESCONG> ;
	rdfs:label "SDTM Variable"^^xsd:string ;
	bd:core "???"^^xsd:string ;
	bd:datatype "???"^^xsd:string ;
	bd:defaultCommentSet "false"^^xsd:string ;
	bd:defaultComment ""^^xsd:string ;
	bd:length "NN"^^xsd:string ;
	bd:format "???"^^xsd:string ;
	bd:notes "???"^^xsd:string ;
	bd:origin ""^^xsd:string ;
	bd:role "???"^^xsd:string ;
	bd:supplementalQualifier "false"^^xsd:string ;
	bd:used "false"^^xsd:string ;
.
:V-AESDISAB
	rdf:type bd:Variable ;
	bd:basedOn <http://rdf.cdisc.org/std/sdtmig-3-1-2#Column.AE.AESDISAB> ;
	rdfs:label "SDTM Variable"^^xsd:string ;
	bd:core "???"^^xsd:string ;
	bd:datatype "???"^^xsd:string ;
	bd:defaultCommentSet "false"^^xsd:string ;
	bd:defaultComment ""^^xsd:string ;
	bd:length "NN"^^xsd:string ;
	bd:format "???"^^xsd:string ;
	bd:notes "???"^^xsd:string ;
	bd:origin ""^^xsd:string ;
	bd:role "???"^^xsd:string ;
	bd:supplementalQualifier "false"^^xsd:string ;
	bd:used "false"^^xsd:string ;
.
:V-AESDTH
	rdf:type bd:Variable ;
	bd:basedOn <http://rdf.cdisc.org/std/sdtmig-3-1-2#Column.AE.AESDTH> ;
	rdfs:label "SDTM Variable"^^xsd:string ;
	bd:core "???"^^xsd:string ;
	bd:datatype "???"^^xsd:string ;
	bd:defaultCommentSet "false"^^xsd:string ;
	bd:defaultComment ""^^xsd:string ;
	bd:length "NN"^^xsd:string ;
	bd:format "???"^^xsd:string ;
	bd:notes "???"^^xsd:string ;
	bd:origin ""^^xsd:string ;
	bd:role "???"^^xsd:string ;
	bd:supplementalQualifier "false"^^xsd:string ;
	bd:used "false"^^xsd:string ;
.
:V-AESEQ
	rdf:type bd:Variable ;
	bd:basedOn <http://rdf.cdisc.org/std/sdtmig-3-1-2#Column.AE.AESEQ> ;
	rdfs:label "SDTM Variable"^^xsd:string ;
	bd:core "???"^^xsd:string ;
	bd:datatype "???"^^xsd:string ;
	bd:defaultCommentSet "false"^^xsd:string ;
	bd:defaultComment ""^^xsd:string ;
	bd:length "NN"^^xsd:string ;
	bd:format "???"^^xsd:string ;
	bd:notes "???"^^xsd:string ;
	bd:origin ""^^xsd:string ;
	bd:role "???"^^xsd:string ;
	bd:supplementalQualifier "false"^^xsd:string ;
	bd:used "false"^^xsd:string ;
.
:V-AESER
	rdf:type bd:Variable ;
	bd:basedOn <http://rdf.cdisc.org/std/sdtmig-3-1-2#Column.AE.AESER> ;
	rdfs:label "SDTM Variable"^^xsd:string ;
	bd:core "???"^^xsd:string ;
	bd:datatype "???"^^xsd:string ;
	bd:defaultCommentSet "false"^^xsd:string ;
	bd:defaultComment ""^^xsd:string ;
	bd:length "NN"^^xsd:string ;
	bd:format "???"^^xsd:string ;
	bd:notes "???"^^xsd:string ;
	bd:origin ""^^xsd:string ;
	bd:role "???"^^xsd:string ;
	bd:supplementalQualifier "false"^^xsd:string ;
	bd:used "false"^^xsd:string ;
.
:V-AESEV
	rdf:type bd:Variable ;
	bd:basedOn <http://rdf.cdisc.org/std/sdtmig-3-1-2#Column.AE.AESEV> ;
	rdfs:label "SDTM Variable"^^xsd:string ;
	bd:core "???"^^xsd:string ;
	bd:datatype "???"^^xsd:string ;
	bd:defaultCommentSet "false"^^xsd:string ;
	bd:defaultComment ""^^xsd:string ;
	bd:length "NN"^^xsd:string ;
	bd:format "???"^^xsd:string ;
	bd:notes "???"^^xsd:string ;
	bd:origin ""^^xsd:string ;
	bd:role "???"^^xsd:string ;
	bd:supplementalQualifier "false"^^xsd:string ;
	bd:used "false"^^xsd:string ;
.
:V-AESHOSP
	rdf:type bd:Variable ;
	bd:basedOn <http://rdf.cdisc.org/std/sdtmig-3-1-2#Column.AE.AESHOSP> ;
	rdfs:label "SDTM Variable"^^xsd:string ;
	bd:core "???"^^xsd:string ;
	bd:datatype "???"^^xsd:string ;
	bd:defaultCommentSet "false"^^xsd:string ;
	bd:defaultComment ""^^xsd:string ;
	bd:length "NN"^^xsd:string ;
	bd:format "???"^^xsd:string ;
	bd:notes "???"^^xsd:string ;
	bd:origin ""^^xsd:string ;
	bd:role "???"^^xsd:string ;
	bd:supplementalQualifier "false"^^xsd:string ;
	bd:used "false"^^xsd:string ;
.
:V-AESLIFE
	rdf:type bd:Variable ;
	bd:basedOn <http://rdf.cdisc.org/std/sdtmig-3-1-2#Column.AE.AESLIFE> ;
	rdfs:label "SDTM Variable"^^xsd:string ;
	bd:core "???"^^xsd:string ;
	bd:datatype "???"^^xsd:string ;
	bd:defaultCommentSet "false"^^xsd:string ;
	bd:defaultComment ""^^xsd:string ;
	bd:length "NN"^^xsd:string ;
	bd:format "???"^^xsd:string ;
	bd:notes "???"^^xsd:string ;
	bd:origin ""^^xsd:string ;
	bd:role "???"^^xsd:string ;
	bd:supplementalQualifier "false"^^xsd:string ;
	bd:used "false"^^xsd:string ;
.
:V-AESMIE
	rdf:type bd:Variable ;
	bd:basedOn <http://rdf.cdisc.org/std/sdtmig-3-1-2#Column.AE.AESMIE> ;
	rdfs:label "SDTM Variable"^^xsd:string ;
	bd:core "???"^^xsd:string ;
	bd:datatype "???"^^xsd:string ;
	bd:defaultCommentSet "false"^^xsd:string ;
	bd:defaultComment ""^^xsd:string ;
	bd:length "NN"^^xsd:string ;
	bd:format "???"^^xsd:string ;
	bd:notes "???"^^xsd:string ;
	bd:origin ""^^xsd:string ;
	bd:role "???"^^xsd:string ;
	bd:supplementalQualifier "false"^^xsd:string ;
	bd:used "false"^^xsd:string ;
.
:V-AESOD
	rdf:type bd:Variable ;
	bd:basedOn <http://rdf.cdisc.org/std/sdtmig-3-1-2#Column.AE.AESOD> ;
	rdfs:label "SDTM Variable"^^xsd:string ;
	bd:core "???"^^xsd:string ;
	bd:datatype "???"^^xsd:string ;
	bd:defaultCommentSet "false"^^xsd:string ;
	bd:defaultComment ""^^xsd:string ;
	bd:length "NN"^^xsd:string ;
	bd:format "???"^^xsd:string ;
	bd:notes "???"^^xsd:string ;
	bd:origin ""^^xsd:string ;
	bd:role "???"^^xsd:string ;
	bd:supplementalQualifier "false"^^xsd:string ;
	bd:used "false"^^xsd:string ;
.
:V-AESPID
	rdf:type bd:Variable ;
	bd:basedOn <http://rdf.cdisc.org/std/sdtmig-3-1-2#Column.AE.AESPID> ;
	rdfs:label "SDTM Variable"^^xsd:string ;
	bd:core "???"^^xsd:string ;
	bd:datatype "???"^^xsd:string ;
	bd:defaultCommentSet "false"^^xsd:string ;
	bd:defaultComment ""^^xsd:string ;
	bd:length "NN"^^xsd:string ;
	bd:format "???"^^xsd:string ;
	bd:notes "???"^^xsd:string ;
	bd:origin ""^^xsd:string ;
	bd:role "???"^^xsd:string ;
	bd:supplementalQualifier "false"^^xsd:string ;
	bd:used "false"^^xsd:string ;
.
:V-AESTDTC
	rdf:type bd:Variable ;
	bd:basedOn <http://rdf.cdisc.org/std/sdtmig-3-1-2#Column.AE.AESTDTC> ;
	rdfs:label "SDTM Variable"^^xsd:string ;
	bd:core "???"^^xsd:string ;
	bd:datatype "???"^^xsd:string ;
	bd:defaultCommentSet "false"^^xsd:string ;
	bd:defaultComment ""^^xsd:string ;
	bd:length "NN"^^xsd:string ;
	bd:format "???"^^xsd:string ;
	bd:notes "???"^^xsd:string ;
	bd:origin ""^^xsd:string ;
	bd:role "???"^^xsd:string ;
	bd:supplementalQualifier "false"^^xsd:string ;
	bd:used "false"^^xsd:string ;
.
:V-AESTDY
	rdf:type bd:Variable ;
	bd:basedOn <http://rdf.cdisc.org/std/sdtmig-3-1-2#Column.AE.AESTDY> ;
	rdfs:label "SDTM Variable"^^xsd:string ;
	bd:core "???"^^xsd:string ;
	bd:datatype "???"^^xsd:string ;
	bd:defaultCommentSet "false"^^xsd:string ;
	bd:defaultComment ""^^xsd:string ;
	bd:length "NN"^^xsd:string ;
	bd:format "???"^^xsd:string ;
	bd:notes "???"^^xsd:string ;
	bd:origin ""^^xsd:string ;
	bd:role "???"^^xsd:string ;
	bd:supplementalQualifier "false"^^xsd:string ;
	bd:used "false"^^xsd:string ;
.
:V-AETERM
	rdf:type bd:Variable ;
	bd:basedOn <http://rdf.cdisc.org/std/sdtmig-3-1-2#Column.AE.AETERM> ;
	rdfs:label "SDTM Variable"^^xsd:string ;
	bd:core "???"^^xsd:string ;
	bd:datatype "???"^^xsd:string ;
	bd:defaultCommentSet "false"^^xsd:string ;
	bd:defaultComment ""^^xsd:string ;
	bd:length "NN"^^xsd:string ;
	bd:format "???"^^xsd:string ;
	bd:notes "???"^^xsd:string ;
	bd:origin ""^^xsd:string ;
	bd:role "???"^^xsd:string ;
	bd:supplementalQualifier "false"^^xsd:string ;
	bd:used "false"^^xsd:string ;
.
:V-AETOXGR
	rdf:type bd:Variable ;
	bd:basedOn <http://rdf.cdisc.org/std/sdtmig-3-1-2#Column.AE.AETOXGR> ;
	rdfs:label "SDTM Variable"^^xsd:string ;
	bd:core "???"^^xsd:string ;
	bd:datatype "???"^^xsd:string ;
	bd:defaultCommentSet "false"^^xsd:string ;
	bd:defaultComment ""^^xsd:string ;
	bd:length "NN"^^xsd:string ;
	bd:format "???"^^xsd:string ;
	bd:notes "???"^^xsd:string ;
	bd:origin ""^^xsd:string ;
	bd:role "???"^^xsd:string ;
	bd:supplementalQualifier "false"^^xsd:string ;
	bd:used "false"^^xsd:string ;
.
:V-DOMAIN
	rdf:type bd:Variable ;
	bd:basedOn <http://rdf.cdisc.org/std/sdtmig-3-1-2#Column.AE.DOMAIN> ;
	rdfs:label "SDTM Variable"^^xsd:string ;
	bd:core "???"^^xsd:string ;
	bd:datatype "???"^^xsd:string ;
	bd:defaultCommentSet "false"^^xsd:string ;
	bd:defaultComment ""^^xsd:string ;
	bd:length "NN"^^xsd:string ;
	bd:format "???"^^xsd:string ;
	bd:notes "???"^^xsd:string ;
	bd:origin ""^^xsd:string ;
	bd:role "???"^^xsd:string ;
	bd:supplementalQualifier "false"^^xsd:string ;
	bd:used "false"^^xsd:string ;
.
:V-STUDYID
	rdf:type bd:Variable ;
	bd:basedOn <http://rdf.cdisc.org/std/sdtmig-3-1-2#Column.AE.STUDYID> ;
	rdfs:label "SDTM Variable"^^xsd:string ;
	bd:core "???"^^xsd:string ;
	bd:datatype "???"^^xsd:string ;
	bd:defaultCommentSet "false"^^xsd:string ;
	bd:defaultComment ""^^xsd:string ;
	bd:length "NN"^^xsd:string ;
	bd:format "???"^^xsd:string ;
	bd:notes "???"^^xsd:string ;
	bd:origin ""^^xsd:string ;
	bd:role "???"^^xsd:string ;
	bd:supplementalQualifier "false"^^xsd:string ;
	bd:used "false"^^xsd:string ;
.
:V-USUBJID
	rdf:type bd:Variable ;
	bd:basedOn <http://rdf.cdisc.org/std/sdtmig-3-1-2#Column.AE.USUBJID> ;
	rdfs:label "SDTM Variable"^^xsd:string ;
	bd:core "???"^^xsd:string ;
	bd:datatype "???"^^xsd:string ;
	bd:defaultCommentSet "false"^^xsd:string ;
	bd:defaultComment ""^^xsd:string ;
	bd:length "NN"^^xsd:string ;
	bd:format "???"^^xsd:string ;
	bd:notes "???"^^xsd:string ;
	bd:origin ""^^xsd:string ;
	bd:role "???"^^xsd:string ;
	bd:supplementalQualifier "false"^^xsd:string ;
	bd:used "false"^^xsd:string ;
.
:V-CEBODSYS
	rdf:type bd:Variable ;
	bd:basedOn <http://rdf.cdisc.org/std/sdtmig-3-1-2#Column.CE.CEBODSYS> ;
	rdfs:label "SDTM Variable"^^xsd:string ;
	bd:core "???"^^xsd:string ;
	bd:datatype "???"^^xsd:string ;
	bd:defaultCommentSet "false"^^xsd:string ;
	bd:defaultComment ""^^xsd:string ;
	bd:length "NN"^^xsd:string ;
	bd:format "???"^^xsd:string ;
	bd:notes "???"^^xsd:string ;
	bd:origin ""^^xsd:string ;
	bd:role "???"^^xsd:string ;
	bd:supplementalQualifier "false"^^xsd:string ;
	bd:used "false"^^xsd:string ;
.
:V-CECAT
	rdf:type bd:Variable ;
	bd:basedOn <http://rdf.cdisc.org/std/sdtmig-3-1-2#Column.CE.CECAT> ;
	rdfs:label "SDTM Variable"^^xsd:string ;
	bd:core "???"^^xsd:string ;
	bd:datatype "???"^^xsd:string ;
	bd:defaultCommentSet "false"^^xsd:string ;
	bd:defaultComment ""^^xsd:string ;
	bd:length "NN"^^xsd:string ;
	bd:format "???"^^xsd:string ;
	bd:notes "???"^^xsd:string ;
	bd:origin ""^^xsd:string ;
	bd:role "???"^^xsd:string ;
	bd:supplementalQualifier "false"^^xsd:string ;
	bd:used "false"^^xsd:string ;
.
:V-CEDECOD
	rdf:type bd:Variable ;
	bd:basedOn <http://rdf.cdisc.org/std/sdtmig-3-1-2#Column.CE.CEDECOD> ;
	rdfs:label "SDTM Variable"^^xsd:string ;
	bd:core "???"^^xsd:string ;
	bd:datatype "???"^^xsd:string ;
	bd:defaultCommentSet "false"^^xsd:string ;
	bd:defaultComment ""^^xsd:string ;
	bd:length "NN"^^xsd:string ;
	bd:format "???"^^xsd:string ;
	bd:notes "???"^^xsd:string ;
	bd:origin ""^^xsd:string ;
	bd:role "???"^^xsd:string ;
	bd:supplementalQualifier "false"^^xsd:string ;
	bd:used "false"^^xsd:string ;
.
:V-CEDTC
	rdf:type bd:Variable ;
	bd:basedOn <http://rdf.cdisc.org/std/sdtmig-3-1-2#Column.CE.CEDTC> ;
	rdfs:label "SDTM Variable"^^xsd:string ;
	bd:core "???"^^xsd:string ;
	bd:datatype "???"^^xsd:string ;
	bd:defaultCommentSet "false"^^xsd:string ;
	bd:defaultComment ""^^xsd:string ;
	bd:length "NN"^^xsd:string ;
	bd:format "???"^^xsd:string ;
	bd:notes "???"^^xsd:string ;
	bd:origin ""^^xsd:string ;
	bd:role "???"^^xsd:string ;
	bd:supplementalQualifier "false"^^xsd:string ;
	bd:used "false"^^xsd:string ;
.
:V-CEDY
	rdf:type bd:Variable ;
	bd:basedOn <http://rdf.cdisc.org/std/sdtmig-3-1-2#Column.CE.CEDY> ;
	rdfs:label "SDTM Variable"^^xsd:string ;
	bd:core "???"^^xsd:string ;
	bd:datatype "???"^^xsd:string ;
	bd:defaultCommentSet "false"^^xsd:string ;
	bd:defaultComment ""^^xsd:string ;
	bd:length "NN"^^xsd:string ;
	bd:format "???"^^xsd:string ;
	bd:notes "???"^^xsd:string ;
	bd:origin ""^^xsd:string ;
	bd:role "???"^^xsd:string ;
	bd:supplementalQualifier "false"^^xsd:string ;
	bd:used "false"^^xsd:string ;
.
:V-CEENDTC
	rdf:type bd:Variable ;
	bd:basedOn <http://rdf.cdisc.org/std/sdtmig-3-1-2#Column.CE.CEENDTC> ;
	rdfs:label "SDTM Variable"^^xsd:string ;
	bd:core "???"^^xsd:string ;
	bd:datatype "???"^^xsd:string ;
	bd:defaultCommentSet "false"^^xsd:string ;
	bd:defaultComment ""^^xsd:string ;
	bd:length "NN"^^xsd:string ;
	bd:format "???"^^xsd:string ;
	bd:notes "???"^^xsd:string ;
	bd:origin ""^^xsd:string ;
	bd:role "???"^^xsd:string ;
	bd:supplementalQualifier "false"^^xsd:string ;
	bd:used "false"^^xsd:string ;
.
:V-CEENRF
	rdf:type bd:Variable ;
	bd:basedOn <http://rdf.cdisc.org/std/sdtmig-3-1-2#Column.CE.CEENRF> ;
	rdfs:label "SDTM Variable"^^xsd:string ;
	bd:core "???"^^xsd:string ;
	bd:datatype "???"^^xsd:string ;
	bd:defaultCommentSet "false"^^xsd:string ;
	bd:defaultComment ""^^xsd:string ;
	bd:length "NN"^^xsd:string ;
	bd:format "???"^^xsd:string ;
	bd:notes "???"^^xsd:string ;
	bd:origin ""^^xsd:string ;
	bd:role "???"^^xsd:string ;
	bd:supplementalQualifier "false"^^xsd:string ;
	bd:used "false"^^xsd:string ;
.
:V-CEENRTPT
	rdf:type bd:Variable ;
	bd:basedOn <http://rdf.cdisc.org/std/sdtmig-3-1-2#Column.CE.CEENRTPT> ;
	rdfs:label "SDTM Variable"^^xsd:string ;
	bd:core "???"^^xsd:string ;
	bd:datatype "???"^^xsd:string ;
	bd:defaultCommentSet "false"^^xsd:string ;
	bd:defaultComment ""^^xsd:string ;
	bd:length "NN"^^xsd:string ;
	bd:format "???"^^xsd:string ;
	bd:notes "???"^^xsd:string ;
	bd:origin ""^^xsd:string ;
	bd:role "???"^^xsd:string ;
	bd:supplementalQualifier "false"^^xsd:string ;
	bd:used "false"^^xsd:string ;
.
:V-CEENTPT
	rdf:type bd:Variable ;
	bd:basedOn <http://rdf.cdisc.org/std/sdtmig-3-1-2#Column.CE.CEENTPT> ;
	rdfs:label "SDTM Variable"^^xsd:string ;
	bd:core "???"^^xsd:string ;
	bd:datatype "???"^^xsd:string ;
	bd:defaultCommentSet "false"^^xsd:string ;
	bd:defaultComment ""^^xsd:string ;
	bd:length "NN"^^xsd:string ;
	bd:format "???"^^xsd:string ;
	bd:notes "???"^^xsd:string ;
	bd:origin ""^^xsd:string ;
	bd:role "???"^^xsd:string ;
	bd:supplementalQualifier "false"^^xsd:string ;
	bd:used "false"^^xsd:string ;
.
:V-CEGRPID
	rdf:type bd:Variable ;
	bd:basedOn <http://rdf.cdisc.org/std/sdtmig-3-1-2#Column.CE.CEGRPID> ;
	rdfs:label "SDTM Variable"^^xsd:string ;
	bd:core "???"^^xsd:string ;
	bd:datatype "???"^^xsd:string ;
	bd:defaultCommentSet "false"^^xsd:string ;
	bd:defaultComment ""^^xsd:string ;
	bd:length "NN"^^xsd:string ;
	bd:format "???"^^xsd:string ;
	bd:notes "???"^^xsd:string ;
	bd:origin ""^^xsd:string ;
	bd:role "???"^^xsd:string ;
	bd:supplementalQualifier "false"^^xsd:string ;
	bd:used "false"^^xsd:string ;
.
:V-CEOCCUR
	rdf:type bd:Variable ;
	bd:basedOn <http://rdf.cdisc.org/std/sdtmig-3-1-2#Column.CE.CEOCCUR> ;
	rdfs:label "SDTM Variable"^^xsd:string ;
	bd:core "???"^^xsd:string ;
	bd:datatype "???"^^xsd:string ;
	bd:defaultCommentSet "false"^^xsd:string ;
	bd:defaultComment ""^^xsd:string ;
	bd:length "NN"^^xsd:string ;
	bd:format "???"^^xsd:string ;
	bd:notes "???"^^xsd:string ;
	bd:origin ""^^xsd:string ;
	bd:role "???"^^xsd:string ;
	bd:supplementalQualifier "false"^^xsd:string ;
	bd:used "false"^^xsd:string ;
.
:V-CEPRESP
	rdf:type bd:Variable ;
	bd:basedOn <http://rdf.cdisc.org/std/sdtmig-3-1-2#Column.CE.CEPRESP> ;
	rdfs:label "SDTM Variable"^^xsd:string ;
	bd:core "???"^^xsd:string ;
	bd:datatype "???"^^xsd:string ;
	bd:defaultCommentSet "false"^^xsd:string ;
	bd:defaultComment ""^^xsd:string ;
	bd:length "NN"^^xsd:string ;
	bd:format "???"^^xsd:string ;
	bd:notes "???"^^xsd:string ;
	bd:origin ""^^xsd:string ;
	bd:role "???"^^xsd:string ;
	bd:supplementalQualifier "false"^^xsd:string ;
	bd:used "false"^^xsd:string ;
.
:V-CEREASND
	rdf:type bd:Variable ;
	bd:basedOn <http://rdf.cdisc.org/std/sdtmig-3-1-2#Column.CE.CEREASND> ;
	rdfs:label "SDTM Variable"^^xsd:string ;
	bd:core "???"^^xsd:string ;
	bd:datatype "???"^^xsd:string ;
	bd:defaultCommentSet "false"^^xsd:string ;
	bd:defaultComment ""^^xsd:string ;
	bd:length "NN"^^xsd:string ;
	bd:format "???"^^xsd:string ;
	bd:notes "???"^^xsd:string ;
	bd:origin ""^^xsd:string ;
	bd:role "???"^^xsd:string ;
	bd:supplementalQualifier "false"^^xsd:string ;
	bd:used "false"^^xsd:string ;
.
:V-CEREFID
	rdf:type bd:Variable ;
	bd:basedOn <http://rdf.cdisc.org/std/sdtmig-3-1-2#Column.CE.CEREFID> ;
	rdfs:label "SDTM Variable"^^xsd:string ;
	bd:core "???"^^xsd:string ;
	bd:datatype "???"^^xsd:string ;
	bd:defaultCommentSet "false"^^xsd:string ;
	bd:defaultComment ""^^xsd:string ;
	bd:length "NN"^^xsd:string ;
	bd:format "???"^^xsd:string ;
	bd:notes "???"^^xsd:string ;
	bd:origin ""^^xsd:string ;
	bd:role "???"^^xsd:string ;
	bd:supplementalQualifier "false"^^xsd:string ;
	bd:used "false"^^xsd:string ;
.
:V-CESCAT
	rdf:type bd:Variable ;
	bd:basedOn <http://rdf.cdisc.org/std/sdtmig-3-1-2#Column.CE.CESCAT> ;
	rdfs:label "SDTM Variable"^^xsd:string ;
	bd:core "???"^^xsd:string ;
	bd:datatype "???"^^xsd:string ;
	bd:defaultCommentSet "false"^^xsd:string ;
	bd:defaultComment ""^^xsd:string ;
	bd:length "NN"^^xsd:string ;
	bd:format "???"^^xsd:string ;
	bd:notes "???"^^xsd:string ;
	bd:origin ""^^xsd:string ;
	bd:role "???"^^xsd:string ;
	bd:supplementalQualifier "false"^^xsd:string ;
	bd:used "false"^^xsd:string ;
.
:V-CESEQ
	rdf:type bd:Variable ;
	bd:basedOn <http://rdf.cdisc.org/std/sdtmig-3-1-2#Column.CE.CESEQ> ;
	rdfs:label "SDTM Variable"^^xsd:string ;
	bd:core "???"^^xsd:string ;
	bd:datatype "???"^^xsd:string ;
	bd:defaultCommentSet "false"^^xsd:string ;
	bd:defaultComment ""^^xsd:string ;
	bd:length "NN"^^xsd:string ;
	bd:format "???"^^xsd:string ;
	bd:notes "???"^^xsd:string ;
	bd:origin ""^^xsd:string ;
	bd:role "???"^^xsd:string ;
	bd:supplementalQualifier "false"^^xsd:string ;
	bd:used "false"^^xsd:string ;
.
:V-CESEV
	rdf:type bd:Variable ;
	bd:basedOn <http://rdf.cdisc.org/std/sdtmig-3-1-2#Column.CE.CESEV> ;
	rdfs:label "SDTM Variable"^^xsd:string ;
	bd:core "???"^^xsd:string ;
	bd:datatype "???"^^xsd:string ;
	bd:defaultCommentSet "false"^^xsd:string ;
	bd:defaultComment ""^^xsd:string ;
	bd:length "NN"^^xsd:string ;
	bd:format "???"^^xsd:string ;
	bd:notes "???"^^xsd:string ;
	bd:origin ""^^xsd:string ;
	bd:role "???"^^xsd:string ;
	bd:supplementalQualifier "false"^^xsd:string ;
	bd:used "false"^^xsd:string ;
.
:V-CESPID
	rdf:type bd:Variable ;
	bd:basedOn <http://rdf.cdisc.org/std/sdtmig-3-1-2#Column.CE.CESPID> ;
	rdfs:label "SDTM Variable"^^xsd:string ;
	bd:core "???"^^xsd:string ;
	bd:datatype "???"^^xsd:string ;
	bd:defaultCommentSet "false"^^xsd:string ;
	bd:defaultComment ""^^xsd:string ;
	bd:length "NN"^^xsd:string ;
	bd:format "???"^^xsd:string ;
	bd:notes "???"^^xsd:string ;
	bd:origin ""^^xsd:string ;
	bd:role "???"^^xsd:string ;
	bd:supplementalQualifier "false"^^xsd:string ;
	bd:used "false"^^xsd:string ;
.
:V-CESTAT
	rdf:type bd:Variable ;
	bd:basedOn <http://rdf.cdisc.org/std/sdtmig-3-1-2#Column.CE.CESTAT> ;
	rdfs:label "SDTM Variable"^^xsd:string ;
	bd:core "???"^^xsd:string ;
	bd:datatype "???"^^xsd:string ;
	bd:defaultCommentSet "false"^^xsd:string ;
	bd:defaultComment ""^^xsd:string ;
	bd:length "NN"^^xsd:string ;
	bd:format "???"^^xsd:string ;
	bd:notes "???"^^xsd:string ;
	bd:origin ""^^xsd:string ;
	bd:role "???"^^xsd:string ;
	bd:supplementalQualifier "false"^^xsd:string ;
	bd:used "false"^^xsd:string ;
.
:V-CESTDTC
	rdf:type bd:Variable ;
	bd:basedOn <http://rdf.cdisc.org/std/sdtmig-3-1-2#Column.CE.CESTDTC> ;
	rdfs:label "SDTM Variable"^^xsd:string ;
	bd:core "???"^^xsd:string ;
	bd:datatype "???"^^xsd:string ;
	bd:defaultCommentSet "false"^^xsd:string ;
	bd:defaultComment ""^^xsd:string ;
	bd:length "NN"^^xsd:string ;
	bd:format "???"^^xsd:string ;
	bd:notes "???"^^xsd:string ;
	bd:origin ""^^xsd:string ;
	bd:role "???"^^xsd:string ;
	bd:supplementalQualifier "false"^^xsd:string ;
	bd:used "false"^^xsd:string ;
.
:V-CESTRF
	rdf:type bd:Variable ;
	bd:basedOn <http://rdf.cdisc.org/std/sdtmig-3-1-2#Column.CE.CESTRF> ;
	rdfs:label "SDTM Variable"^^xsd:string ;
	bd:core "???"^^xsd:string ;
	bd:datatype "???"^^xsd:string ;
	bd:defaultCommentSet "false"^^xsd:string ;
	bd:defaultComment ""^^xsd:string ;
	bd:length "NN"^^xsd:string ;
	bd:format "???"^^xsd:string ;
	bd:notes "???"^^xsd:string ;
	bd:origin ""^^xsd:string ;
	bd:role "???"^^xsd:string ;
	bd:supplementalQualifier "false"^^xsd:string ;
	bd:used "false"^^xsd:string ;
.
:V-CESTRTPT
	rdf:type bd:Variable ;
	bd:basedOn <http://rdf.cdisc.org/std/sdtmig-3-1-2#Column.CE.CESTRTPT> ;
	rdfs:label "SDTM Variable"^^xsd:string ;
	bd:core "???"^^xsd:string ;
	bd:datatype "???"^^xsd:string ;
	bd:defaultCommentSet "false"^^xsd:string ;
	bd:defaultComment ""^^xsd:string ;
	bd:length "NN"^^xsd:string ;
	bd:format "???"^^xsd:string ;
	bd:notes "???"^^xsd:string ;
	bd:origin ""^^xsd:string ;
	bd:role "???"^^xsd:string ;
	bd:supplementalQualifier "false"^^xsd:string ;
	bd:used "false"^^xsd:string ;
.
:V-CESTTPT
	rdf:type bd:Variable ;
	bd:basedOn <http://rdf.cdisc.org/std/sdtmig-3-1-2#Column.CE.CESTTPT> ;
	rdfs:label "SDTM Variable"^^xsd:string ;
	bd:core "???"^^xsd:string ;
	bd:datatype "???"^^xsd:string ;
	bd:defaultCommentSet "false"^^xsd:string ;
	bd:defaultComment ""^^xsd:string ;
	bd:length "NN"^^xsd:string ;
	bd:format "???"^^xsd:string ;
	bd:notes "???"^^xsd:string ;
	bd:origin ""^^xsd:string ;
	bd:role "???"^^xsd:string ;
	bd:supplementalQualifier "false"^^xsd:string ;
	bd:used "false"^^xsd:string ;
.
:V-CETERM
	rdf:type bd:Variable ;
	bd:basedOn <http://rdf.cdisc.org/std/sdtmig-3-1-2#Column.CE.CETERM> ;
	rdfs:label "SDTM Variable"^^xsd:string ;
	bd:core "???"^^xsd:string ;
	bd:datatype "???"^^xsd:string ;
	bd:defaultCommentSet "false"^^xsd:string ;
	bd:defaultComment ""^^xsd:string ;
	bd:length "NN"^^xsd:string ;
	bd:format "???"^^xsd:string ;
	bd:notes "???"^^xsd:string ;
	bd:origin ""^^xsd:string ;
	bd:role "???"^^xsd:string ;
	bd:supplementalQualifier "false"^^xsd:string ;
	bd:used "false"^^xsd:string ;
.
:V-DOMAIN
	rdf:type bd:Variable ;
	bd:basedOn <http://rdf.cdisc.org/std/sdtmig-3-1-2#Column.CE.DOMAIN> ;
	rdfs:label "SDTM Variable"^^xsd:string ;
	bd:core "???"^^xsd:string ;
	bd:datatype "???"^^xsd:string ;
	bd:defaultCommentSet "false"^^xsd:string ;
	bd:defaultComment ""^^xsd:string ;
	bd:length "NN"^^xsd:string ;
	bd:format "???"^^xsd:string ;
	bd:notes "???"^^xsd:string ;
	bd:origin ""^^xsd:string ;
	bd:role "???"^^xsd:string ;
	bd:supplementalQualifier "false"^^xsd:string ;
	bd:used "false"^^xsd:string ;
.
:V-STUDYID
	rdf:type bd:Variable ;
	bd:basedOn <http://rdf.cdisc.org/std/sdtmig-3-1-2#Column.CE.STUDYID> ;
	rdfs:label "SDTM Variable"^^xsd:string ;
	bd:core "???"^^xsd:string ;
	bd:datatype "???"^^xsd:string ;
	bd:defaultCommentSet "false"^^xsd:string ;
	bd:defaultComment ""^^xsd:string ;
	bd:length "NN"^^xsd:string ;
	bd:format "???"^^xsd:string ;
	bd:notes "???"^^xsd:string ;
	bd:origin ""^^xsd:string ;
	bd:role "???"^^xsd:string ;
	bd:supplementalQualifier "false"^^xsd:string ;
	bd:used "false"^^xsd:string ;
.
:V-USUBJID
	rdf:type bd:Variable ;
	bd:basedOn <http://rdf.cdisc.org/std/sdtmig-3-1-2#Column.CE.USUBJID> ;
	rdfs:label "SDTM Variable"^^xsd:string ;
	bd:core "???"^^xsd:string ;
	bd:datatype "???"^^xsd:string ;
	bd:defaultCommentSet "false"^^xsd:string ;
	bd:defaultComment ""^^xsd:string ;
	bd:length "NN"^^xsd:string ;
	bd:format "???"^^xsd:string ;
	bd:notes "???"^^xsd:string ;
	bd:origin ""^^xsd:string ;
	bd:role "???"^^xsd:string ;
	bd:supplementalQualifier "false"^^xsd:string ;
	bd:used "false"^^xsd:string ;
.
:V-CMCAT
	rdf:type bd:Variable ;
	bd:basedOn <http://rdf.cdisc.org/std/sdtmig-3-1-2#Column.CM.CMCAT> ;
	rdfs:label "SDTM Variable"^^xsd:string ;
	bd:core "???"^^xsd:string ;
	bd:datatype "???"^^xsd:string ;
	bd:defaultCommentSet "false"^^xsd:string ;
	bd:defaultComment ""^^xsd:string ;
	bd:length "NN"^^xsd:string ;
	bd:format "???"^^xsd:string ;
	bd:notes "???"^^xsd:string ;
	bd:origin ""^^xsd:string ;
	bd:role "???"^^xsd:string ;
	bd:supplementalQualifier "false"^^xsd:string ;
	bd:used "false"^^xsd:string ;
.
:V-CMCLAS
	rdf:type bd:Variable ;
	bd:basedOn <http://rdf.cdisc.org/std/sdtmig-3-1-2#Column.CM.CMCLAS> ;
	rdfs:label "SDTM Variable"^^xsd:string ;
	bd:core "???"^^xsd:string ;
	bd:datatype "???"^^xsd:string ;
	bd:defaultCommentSet "false"^^xsd:string ;
	bd:defaultComment ""^^xsd:string ;
	bd:length "NN"^^xsd:string ;
	bd:format "???"^^xsd:string ;
	bd:notes "???"^^xsd:string ;
	bd:origin ""^^xsd:string ;
	bd:role "???"^^xsd:string ;
	bd:supplementalQualifier "false"^^xsd:string ;
	bd:used "false"^^xsd:string ;
.
:V-CMCLASCD
	rdf:type bd:Variable ;
	bd:basedOn <http://rdf.cdisc.org/std/sdtmig-3-1-2#Column.CM.CMCLASCD> ;
	rdfs:label "SDTM Variable"^^xsd:string ;
	bd:core "???"^^xsd:string ;
	bd:datatype "???"^^xsd:string ;
	bd:defaultCommentSet "false"^^xsd:string ;
	bd:defaultComment ""^^xsd:string ;
	bd:length "NN"^^xsd:string ;
	bd:format "???"^^xsd:string ;
	bd:notes "???"^^xsd:string ;
	bd:origin ""^^xsd:string ;
	bd:role "???"^^xsd:string ;
	bd:supplementalQualifier "false"^^xsd:string ;
	bd:used "false"^^xsd:string ;
.
:V-CMDECOD
	rdf:type bd:Variable ;
	bd:basedOn <http://rdf.cdisc.org/std/sdtmig-3-1-2#Column.CM.CMDECOD> ;
	rdfs:label "SDTM Variable"^^xsd:string ;
	bd:core "???"^^xsd:string ;
	bd:datatype "???"^^xsd:string ;
	bd:defaultCommentSet "false"^^xsd:string ;
	bd:defaultComment ""^^xsd:string ;
	bd:length "NN"^^xsd:string ;
	bd:format "???"^^xsd:string ;
	bd:notes "???"^^xsd:string ;
	bd:origin ""^^xsd:string ;
	bd:role "???"^^xsd:string ;
	bd:supplementalQualifier "false"^^xsd:string ;
	bd:used "false"^^xsd:string ;
.
:V-CMDOSE
	rdf:type bd:Variable ;
	bd:basedOn <http://rdf.cdisc.org/std/sdtmig-3-1-2#Column.CM.CMDOSE> ;
	rdfs:label "SDTM Variable"^^xsd:string ;
	bd:core "???"^^xsd:string ;
	bd:datatype "???"^^xsd:string ;
	bd:defaultCommentSet "false"^^xsd:string ;
	bd:defaultComment ""^^xsd:string ;
	bd:length "NN"^^xsd:string ;
	bd:format "???"^^xsd:string ;
	bd:notes "???"^^xsd:string ;
	bd:origin ""^^xsd:string ;
	bd:role "???"^^xsd:string ;
	bd:supplementalQualifier "false"^^xsd:string ;
	bd:used "false"^^xsd:string ;
.
:V-CMDOSFRM
	rdf:type bd:Variable ;
	bd:basedOn <http://rdf.cdisc.org/std/sdtmig-3-1-2#Column.CM.CMDOSFRM> ;
	rdfs:label "SDTM Variable"^^xsd:string ;
	bd:core "???"^^xsd:string ;
	bd:datatype "???"^^xsd:string ;
	bd:defaultCommentSet "false"^^xsd:string ;
	bd:defaultComment ""^^xsd:string ;
	bd:length "NN"^^xsd:string ;
	bd:format "???"^^xsd:string ;
	bd:notes "???"^^xsd:string ;
	bd:origin ""^^xsd:string ;
	bd:role "???"^^xsd:string ;
	bd:supplementalQualifier "false"^^xsd:string ;
	bd:used "false"^^xsd:string ;
.
:V-CMDOSFRQ
	rdf:type bd:Variable ;
	bd:basedOn <http://rdf.cdisc.org/std/sdtmig-3-1-2#Column.CM.CMDOSFRQ> ;
	rdfs:label "SDTM Variable"^^xsd:string ;
	bd:core "???"^^xsd:string ;
	bd:datatype "???"^^xsd:string ;
	bd:defaultCommentSet "false"^^xsd:string ;
	bd:defaultComment ""^^xsd:string ;
	bd:length "NN"^^xsd:string ;
	bd:format "???"^^xsd:string ;
	bd:notes "???"^^xsd:string ;
	bd:origin ""^^xsd:string ;
	bd:role "???"^^xsd:string ;
	bd:supplementalQualifier "false"^^xsd:string ;
	bd:used "false"^^xsd:string ;
.
:V-CMDOSRGM
	rdf:type bd:Variable ;
	bd:basedOn <http://rdf.cdisc.org/std/sdtmig-3-1-2#Column.CM.CMDOSRGM> ;
	rdfs:label "SDTM Variable"^^xsd:string ;
	bd:core "???"^^xsd:string ;
	bd:datatype "???"^^xsd:string ;
	bd:defaultCommentSet "false"^^xsd:string ;
	bd:defaultComment ""^^xsd:string ;
	bd:length "NN"^^xsd:string ;
	bd:format "???"^^xsd:string ;
	bd:notes "???"^^xsd:string ;
	bd:origin ""^^xsd:string ;
	bd:role "???"^^xsd:string ;
	bd:supplementalQualifier "false"^^xsd:string ;
	bd:used "false"^^xsd:string ;
.
:V-CMDOSTOT
	rdf:type bd:Variable ;
	bd:basedOn <http://rdf.cdisc.org/std/sdtmig-3-1-2#Column.CM.CMDOSTOT> ;
	rdfs:label "SDTM Variable"^^xsd:string ;
	bd:core "???"^^xsd:string ;
	bd:datatype "???"^^xsd:string ;
	bd:defaultCommentSet "false"^^xsd:string ;
	bd:defaultComment ""^^xsd:string ;
	bd:length "NN"^^xsd:string ;
	bd:format "???"^^xsd:string ;
	bd:notes "???"^^xsd:string ;
	bd:origin ""^^xsd:string ;
	bd:role "???"^^xsd:string ;
	bd:supplementalQualifier "false"^^xsd:string ;
	bd:used "false"^^xsd:string ;
.
:V-CMDOSTXT
	rdf:type bd:Variable ;
	bd:basedOn <http://rdf.cdisc.org/std/sdtmig-3-1-2#Column.CM.CMDOSTXT> ;
	rdfs:label "SDTM Variable"^^xsd:string ;
	bd:core "???"^^xsd:string ;
	bd:datatype "???"^^xsd:string ;
	bd:defaultCommentSet "false"^^xsd:string ;
	bd:defaultComment ""^^xsd:string ;
	bd:length "NN"^^xsd:string ;
	bd:format "???"^^xsd:string ;
	bd:notes "???"^^xsd:string ;
	bd:origin ""^^xsd:string ;
	bd:role "???"^^xsd:string ;
	bd:supplementalQualifier "false"^^xsd:string ;
	bd:used "false"^^xsd:string ;
.
:V-CMDOSU
	rdf:type bd:Variable ;
	bd:basedOn <http://rdf.cdisc.org/std/sdtmig-3-1-2#Column.CM.CMDOSU> ;
	rdfs:label "SDTM Variable"^^xsd:string ;
	bd:core "???"^^xsd:string ;
	bd:datatype "???"^^xsd:string ;
	bd:defaultCommentSet "false"^^xsd:string ;
	bd:defaultComment ""^^xsd:string ;
	bd:length "NN"^^xsd:string ;
	bd:format "???"^^xsd:string ;
	bd:notes "???"^^xsd:string ;
	bd:origin ""^^xsd:string ;
	bd:role "???"^^xsd:string ;
	bd:supplementalQualifier "false"^^xsd:string ;
	bd:used "false"^^xsd:string ;
.
:V-CMDUR
	rdf:type bd:Variable ;
	bd:basedOn <http://rdf.cdisc.org/std/sdtmig-3-1-2#Column.CM.CMDUR> ;
	rdfs:label "SDTM Variable"^^xsd:string ;
	bd:core "???"^^xsd:string ;
	bd:datatype "???"^^xsd:string ;
	bd:defaultCommentSet "false"^^xsd:string ;
	bd:defaultComment ""^^xsd:string ;
	bd:length "NN"^^xsd:string ;
	bd:format "???"^^xsd:string ;
	bd:notes "???"^^xsd:string ;
	bd:origin ""^^xsd:string ;
	bd:role "???"^^xsd:string ;
	bd:supplementalQualifier "false"^^xsd:string ;
	bd:used "false"^^xsd:string ;
.
:V-CMENDTC
	rdf:type bd:Variable ;
	bd:basedOn <http://rdf.cdisc.org/std/sdtmig-3-1-2#Column.CM.CMENDTC> ;
	rdfs:label "SDTM Variable"^^xsd:string ;
	bd:core "???"^^xsd:string ;
	bd:datatype "???"^^xsd:string ;
	bd:defaultCommentSet "false"^^xsd:string ;
	bd:defaultComment ""^^xsd:string ;
	bd:length "NN"^^xsd:string ;
	bd:format "???"^^xsd:string ;
	bd:notes "???"^^xsd:string ;
	bd:origin ""^^xsd:string ;
	bd:role "???"^^xsd:string ;
	bd:supplementalQualifier "false"^^xsd:string ;
	bd:used "false"^^xsd:string ;
.
:V-CMENDY
	rdf:type bd:Variable ;
	bd:basedOn <http://rdf.cdisc.org/std/sdtmig-3-1-2#Column.CM.CMENDY> ;
	rdfs:label "SDTM Variable"^^xsd:string ;
	bd:core "???"^^xsd:string ;
	bd:datatype "???"^^xsd:string ;
	bd:defaultCommentSet "false"^^xsd:string ;
	bd:defaultComment ""^^xsd:string ;
	bd:length "NN"^^xsd:string ;
	bd:format "???"^^xsd:string ;
	bd:notes "???"^^xsd:string ;
	bd:origin ""^^xsd:string ;
	bd:role "???"^^xsd:string ;
	bd:supplementalQualifier "false"^^xsd:string ;
	bd:used "false"^^xsd:string ;
.
:V-CMENRF
	rdf:type bd:Variable ;
	bd:basedOn <http://rdf.cdisc.org/std/sdtmig-3-1-2#Column.CM.CMENRF> ;
	rdfs:label "SDTM Variable"^^xsd:string ;
	bd:core "???"^^xsd:string ;
	bd:datatype "???"^^xsd:string ;
	bd:defaultCommentSet "false"^^xsd:string ;
	bd:defaultComment ""^^xsd:string ;
	bd:length "NN"^^xsd:string ;
	bd:format "???"^^xsd:string ;
	bd:notes "???"^^xsd:string ;
	bd:origin ""^^xsd:string ;
	bd:role "???"^^xsd:string ;
	bd:supplementalQualifier "false"^^xsd:string ;
	bd:used "false"^^xsd:string ;
.
:V-CMENRTPT
	rdf:type bd:Variable ;
	bd:basedOn <http://rdf.cdisc.org/std/sdtmig-3-1-2#Column.CM.CMENRTPT> ;
	rdfs:label "SDTM Variable"^^xsd:string ;
	bd:core "???"^^xsd:string ;
	bd:datatype "???"^^xsd:string ;
	bd:defaultCommentSet "false"^^xsd:string ;
	bd:defaultComment ""^^xsd:string ;
	bd:length "NN"^^xsd:string ;
	bd:format "???"^^xsd:string ;
	bd:notes "???"^^xsd:string ;
	bd:origin ""^^xsd:string ;
	bd:role "???"^^xsd:string ;
	bd:supplementalQualifier "false"^^xsd:string ;
	bd:used "false"^^xsd:string ;
.
:V-CMENTPT
	rdf:type bd:Variable ;
	bd:basedOn <http://rdf.cdisc.org/std/sdtmig-3-1-2#Column.CM.CMENTPT> ;
	rdfs:label "SDTM Variable"^^xsd:string ;
	bd:core "???"^^xsd:string ;
	bd:datatype "???"^^xsd:string ;
	bd:defaultCommentSet "false"^^xsd:string ;
	bd:defaultComment ""^^xsd:string ;
	bd:length "NN"^^xsd:string ;
	bd:format "???"^^xsd:string ;
	bd:notes "???"^^xsd:string ;
	bd:origin ""^^xsd:string ;
	bd:role "???"^^xsd:string ;
	bd:supplementalQualifier "false"^^xsd:string ;
	bd:used "false"^^xsd:string ;
.
:V-CMGRPID
	rdf:type bd:Variable ;
	bd:basedOn <http://rdf.cdisc.org/std/sdtmig-3-1-2#Column.CM.CMGRPID> ;
	rdfs:label "SDTM Variable"^^xsd:string ;
	bd:core "???"^^xsd:string ;
	bd:datatype "???"^^xsd:string ;
	bd:defaultCommentSet "false"^^xsd:string ;
	bd:defaultComment ""^^xsd:string ;
	bd:length "NN"^^xsd:string ;
	bd:format "???"^^xsd:string ;
	bd:notes "???"^^xsd:string ;
	bd:origin ""^^xsd:string ;
	bd:role "???"^^xsd:string ;
	bd:supplementalQualifier "false"^^xsd:string ;
	bd:used "false"^^xsd:string ;
.
:V-CMINDC
	rdf:type bd:Variable ;
	bd:basedOn <http://rdf.cdisc.org/std/sdtmig-3-1-2#Column.CM.CMINDC> ;
	rdfs:label "SDTM Variable"^^xsd:string ;
	bd:core "???"^^xsd:string ;
	bd:datatype "???"^^xsd:string ;
	bd:defaultCommentSet "false"^^xsd:string ;
	bd:defaultComment ""^^xsd:string ;
	bd:length "NN"^^xsd:string ;
	bd:format "???"^^xsd:string ;
	bd:notes "???"^^xsd:string ;
	bd:origin ""^^xsd:string ;
	bd:role "???"^^xsd:string ;
	bd:supplementalQualifier "false"^^xsd:string ;
	bd:used "false"^^xsd:string ;
.
:V-CMMODIFY
	rdf:type bd:Variable ;
	bd:basedOn <http://rdf.cdisc.org/std/sdtmig-3-1-2#Column.CM.CMMODIFY> ;
	rdfs:label "SDTM Variable"^^xsd:string ;
	bd:core "???"^^xsd:string ;
	bd:datatype "???"^^xsd:string ;
	bd:defaultCommentSet "false"^^xsd:string ;
	bd:defaultComment ""^^xsd:string ;
	bd:length "NN"^^xsd:string ;
	bd:format "???"^^xsd:string ;
	bd:notes "???"^^xsd:string ;
	bd:origin ""^^xsd:string ;
	bd:role "???"^^xsd:string ;
	bd:supplementalQualifier "false"^^xsd:string ;
	bd:used "false"^^xsd:string ;
.
:V-CMOCCUR
	rdf:type bd:Variable ;
	bd:basedOn <http://rdf.cdisc.org/std/sdtmig-3-1-2#Column.CM.CMOCCUR> ;
	rdfs:label "SDTM Variable"^^xsd:string ;
	bd:core "???"^^xsd:string ;
	bd:datatype "???"^^xsd:string ;
	bd:defaultCommentSet "false"^^xsd:string ;
	bd:defaultComment ""^^xsd:string ;
	bd:length "NN"^^xsd:string ;
	bd:format "???"^^xsd:string ;
	bd:notes "???"^^xsd:string ;
	bd:origin ""^^xsd:string ;
	bd:role "???"^^xsd:string ;
	bd:supplementalQualifier "false"^^xsd:string ;
	bd:used "false"^^xsd:string ;
.
:V-CMPRESP
	rdf:type bd:Variable ;
	bd:basedOn <http://rdf.cdisc.org/std/sdtmig-3-1-2#Column.CM.CMPRESP> ;
	rdfs:label "SDTM Variable"^^xsd:string ;
	bd:core "???"^^xsd:string ;
	bd:datatype "???"^^xsd:string ;
	bd:defaultCommentSet "false"^^xsd:string ;
	bd:defaultComment ""^^xsd:string ;
	bd:length "NN"^^xsd:string ;
	bd:format "???"^^xsd:string ;
	bd:notes "???"^^xsd:string ;
	bd:origin ""^^xsd:string ;
	bd:role "???"^^xsd:string ;
	bd:supplementalQualifier "false"^^xsd:string ;
	bd:used "false"^^xsd:string ;
.
:V-CMREASND
	rdf:type bd:Variable ;
	bd:basedOn <http://rdf.cdisc.org/std/sdtmig-3-1-2#Column.CM.CMREASND> ;
	rdfs:label "SDTM Variable"^^xsd:string ;
	bd:core "???"^^xsd:string ;
	bd:datatype "???"^^xsd:string ;
	bd:defaultCommentSet "false"^^xsd:string ;
	bd:defaultComment ""^^xsd:string ;
	bd:length "NN"^^xsd:string ;
	bd:format "???"^^xsd:string ;
	bd:notes "???"^^xsd:string ;
	bd:origin ""^^xsd:string ;
	bd:role "???"^^xsd:string ;
	bd:supplementalQualifier "false"^^xsd:string ;
	bd:used "false"^^xsd:string ;
.
:V-CMROUTE
	rdf:type bd:Variable ;
	bd:basedOn <http://rdf.cdisc.org/std/sdtmig-3-1-2#Column.CM.CMROUTE> ;
	rdfs:label "SDTM Variable"^^xsd:string ;
	bd:core "???"^^xsd:string ;
	bd:datatype "???"^^xsd:string ;
	bd:defaultCommentSet "false"^^xsd:string ;
	bd:defaultComment ""^^xsd:string ;
	bd:length "NN"^^xsd:string ;
	bd:format "???"^^xsd:string ;
	bd:notes "???"^^xsd:string ;
	bd:origin ""^^xsd:string ;
	bd:role "???"^^xsd:string ;
	bd:supplementalQualifier "false"^^xsd:string ;
	bd:used "false"^^xsd:string ;
.
:V-CMSCAT
	rdf:type bd:Variable ;
	bd:basedOn <http://rdf.cdisc.org/std/sdtmig-3-1-2#Column.CM.CMSCAT> ;
	rdfs:label "SDTM Variable"^^xsd:string ;
	bd:core "???"^^xsd:string ;
	bd:datatype "???"^^xsd:string ;
	bd:defaultCommentSet "false"^^xsd:string ;
	bd:defaultComment ""^^xsd:string ;
	bd:length "NN"^^xsd:string ;
	bd:format "???"^^xsd:string ;
	bd:notes "???"^^xsd:string ;
	bd:origin ""^^xsd:string ;
	bd:role "???"^^xsd:string ;
	bd:supplementalQualifier "false"^^xsd:string ;
	bd:used "false"^^xsd:string ;
.
:V-CMSEQ
	rdf:type bd:Variable ;
	bd:basedOn <http://rdf.cdisc.org/std/sdtmig-3-1-2#Column.CM.CMSEQ> ;
	rdfs:label "SDTM Variable"^^xsd:string ;
	bd:core "???"^^xsd:string ;
	bd:datatype "???"^^xsd:string ;
	bd:defaultCommentSet "false"^^xsd:string ;
	bd:defaultComment ""^^xsd:string ;
	bd:length "NN"^^xsd:string ;
	bd:format "???"^^xsd:string ;
	bd:notes "???"^^xsd:string ;
	bd:origin ""^^xsd:string ;
	bd:role "???"^^xsd:string ;
	bd:supplementalQualifier "false"^^xsd:string ;
	bd:used "false"^^xsd:string ;
.
:V-CMSPID
	rdf:type bd:Variable ;
	bd:basedOn <http://rdf.cdisc.org/std/sdtmig-3-1-2#Column.CM.CMSPID> ;
	rdfs:label "SDTM Variable"^^xsd:string ;
	bd:core "???"^^xsd:string ;
	bd:datatype "???"^^xsd:string ;
	bd:defaultCommentSet "false"^^xsd:string ;
	bd:defaultComment ""^^xsd:string ;
	bd:length "NN"^^xsd:string ;
	bd:format "???"^^xsd:string ;
	bd:notes "???"^^xsd:string ;
	bd:origin ""^^xsd:string ;
	bd:role "???"^^xsd:string ;
	bd:supplementalQualifier "false"^^xsd:string ;
	bd:used "false"^^xsd:string ;
.
:V-CMSTAT
	rdf:type bd:Variable ;
	bd:basedOn <http://rdf.cdisc.org/std/sdtmig-3-1-2#Column.CM.CMSTAT> ;
	rdfs:label "SDTM Variable"^^xsd:string ;
	bd:core "???"^^xsd:string ;
	bd:datatype "???"^^xsd:string ;
	bd:defaultCommentSet "false"^^xsd:string ;
	bd:defaultComment ""^^xsd:string ;
	bd:length "NN"^^xsd:string ;
	bd:format "???"^^xsd:string ;
	bd:notes "???"^^xsd:string ;
	bd:origin ""^^xsd:string ;
	bd:role "???"^^xsd:string ;
	bd:supplementalQualifier "false"^^xsd:string ;
	bd:used "false"^^xsd:string ;
.
:V-CMSTDTC
	rdf:type bd:Variable ;
	bd:basedOn <http://rdf.cdisc.org/std/sdtmig-3-1-2#Column.CM.CMSTDTC> ;
	rdfs:label "SDTM Variable"^^xsd:string ;
	bd:core "???"^^xsd:string ;
	bd:datatype "???"^^xsd:string ;
	bd:defaultCommentSet "false"^^xsd:string ;
	bd:defaultComment ""^^xsd:string ;
	bd:length "NN"^^xsd:string ;
	bd:format "???"^^xsd:string ;
	bd:notes "???"^^xsd:string ;
	bd:origin ""^^xsd:string ;
	bd:role "???"^^xsd:string ;
	bd:supplementalQualifier "false"^^xsd:string ;
	bd:used "false"^^xsd:string ;
.
:V-CMSTDY
	rdf:type bd:Variable ;
	bd:basedOn <http://rdf.cdisc.org/std/sdtmig-3-1-2#Column.CM.CMSTDY> ;
	rdfs:label "SDTM Variable"^^xsd:string ;
	bd:core "???"^^xsd:string ;
	bd:datatype "???"^^xsd:string ;
	bd:defaultCommentSet "false"^^xsd:string ;
	bd:defaultComment ""^^xsd:string ;
	bd:length "NN"^^xsd:string ;
	bd:format "???"^^xsd:string ;
	bd:notes "???"^^xsd:string ;
	bd:origin ""^^xsd:string ;
	bd:role "???"^^xsd:string ;
	bd:supplementalQualifier "false"^^xsd:string ;
	bd:used "false"^^xsd:string ;
.
:V-CMSTRF
	rdf:type bd:Variable ;
	bd:basedOn <http://rdf.cdisc.org/std/sdtmig-3-1-2#Column.CM.CMSTRF> ;
	rdfs:label "SDTM Variable"^^xsd:string ;
	bd:core "???"^^xsd:string ;
	bd:datatype "???"^^xsd:string ;
	bd:defaultCommentSet "false"^^xsd:string ;
	bd:defaultComment ""^^xsd:string ;
	bd:length "NN"^^xsd:string ;
	bd:format "???"^^xsd:string ;
	bd:notes "???"^^xsd:string ;
	bd:origin ""^^xsd:string ;
	bd:role "???"^^xsd:string ;
	bd:supplementalQualifier "false"^^xsd:string ;
	bd:used "false"^^xsd:string ;
.
:V-CMSTRTPT
	rdf:type bd:Variable ;
	bd:basedOn <http://rdf.cdisc.org/std/sdtmig-3-1-2#Column.CM.CMSTRTPT> ;
	rdfs:label "SDTM Variable"^^xsd:string ;
	bd:core "???"^^xsd:string ;
	bd:datatype "???"^^xsd:string ;
	bd:defaultCommentSet "false"^^xsd:string ;
	bd:defaultComment ""^^xsd:string ;
	bd:length "NN"^^xsd:string ;
	bd:format "???"^^xsd:string ;
	bd:notes "???"^^xsd:string ;
	bd:origin ""^^xsd:string ;
	bd:role "???"^^xsd:string ;
	bd:supplementalQualifier "false"^^xsd:string ;
	bd:used "false"^^xsd:string ;
.
:V-CMSTTPT
	rdf:type bd:Variable ;
	bd:basedOn <http://rdf.cdisc.org/std/sdtmig-3-1-2#Column.CM.CMSTTPT> ;
	rdfs:label "SDTM Variable"^^xsd:string ;
	bd:core "???"^^xsd:string ;
	bd:datatype "???"^^xsd:string ;
	bd:defaultCommentSet "false"^^xsd:string ;
	bd:defaultComment ""^^xsd:string ;
	bd:length "NN"^^xsd:string ;
	bd:format "???"^^xsd:string ;
	bd:notes "???"^^xsd:string ;
	bd:origin ""^^xsd:string ;
	bd:role "???"^^xsd:string ;
	bd:supplementalQualifier "false"^^xsd:string ;
	bd:used "false"^^xsd:string ;
.
:V-CMTRT
	rdf:type bd:Variable ;
	bd:basedOn <http://rdf.cdisc.org/std/sdtmig-3-1-2#Column.CM.CMTRT> ;
	rdfs:label "SDTM Variable"^^xsd:string ;
	bd:core "???"^^xsd:string ;
	bd:datatype "???"^^xsd:string ;
	bd:defaultCommentSet "false"^^xsd:string ;
	bd:defaultComment ""^^xsd:string ;
	bd:length "NN"^^xsd:string ;
	bd:format "???"^^xsd:string ;
	bd:notes "???"^^xsd:string ;
	bd:origin ""^^xsd:string ;
	bd:role "???"^^xsd:string ;
	bd:supplementalQualifier "false"^^xsd:string ;
	bd:used "false"^^xsd:string ;
.
:V-DOMAIN
	rdf:type bd:Variable ;
	bd:basedOn <http://rdf.cdisc.org/std/sdtmig-3-1-2#Column.CM.DOMAIN> ;
	rdfs:label "SDTM Variable"^^xsd:string ;
	bd:core "???"^^xsd:string ;
	bd:datatype "???"^^xsd:string ;
	bd:defaultCommentSet "false"^^xsd:string ;
	bd:defaultComment ""^^xsd:string ;
	bd:length "NN"^^xsd:string ;
	bd:format "???"^^xsd:string ;
	bd:notes "???"^^xsd:string ;
	bd:origin ""^^xsd:string ;
	bd:role "???"^^xsd:string ;
	bd:supplementalQualifier "false"^^xsd:string ;
	bd:used "false"^^xsd:string ;
.
:V-STUDYID
	rdf:type bd:Variable ;
	bd:basedOn <http://rdf.cdisc.org/std/sdtmig-3-1-2#Column.CM.STUDYID> ;
	rdfs:label "SDTM Variable"^^xsd:string ;
	bd:core "???"^^xsd:string ;
	bd:datatype "???"^^xsd:string ;
	bd:defaultCommentSet "false"^^xsd:string ;
	bd:defaultComment ""^^xsd:string ;
	bd:length "NN"^^xsd:string ;
	bd:format "???"^^xsd:string ;
	bd:notes "???"^^xsd:string ;
	bd:origin ""^^xsd:string ;
	bd:role "???"^^xsd:string ;
	bd:supplementalQualifier "false"^^xsd:string ;
	bd:used "false"^^xsd:string ;
.
:V-USUBJID
	rdf:type bd:Variable ;
	bd:basedOn <http://rdf.cdisc.org/std/sdtmig-3-1-2#Column.CM.USUBJID> ;
	rdfs:label "SDTM Variable"^^xsd:string ;
	bd:core "???"^^xsd:string ;
	bd:datatype "???"^^xsd:string ;
	bd:defaultCommentSet "false"^^xsd:string ;
	bd:defaultComment ""^^xsd:string ;
	bd:length "NN"^^xsd:string ;
	bd:format "???"^^xsd:string ;
	bd:notes "???"^^xsd:string ;
	bd:origin ""^^xsd:string ;
	bd:role "???"^^xsd:string ;
	bd:supplementalQualifier "false"^^xsd:string ;
	bd:used "false"^^xsd:string ;
.
:V-CODTC
	rdf:type bd:Variable ;
	bd:basedOn <http://rdf.cdisc.org/std/sdtmig-3-1-2#Column.CO.CODTC> ;
	rdfs:label "SDTM Variable"^^xsd:string ;
	bd:core "???"^^xsd:string ;
	bd:datatype "???"^^xsd:string ;
	bd:defaultCommentSet "false"^^xsd:string ;
	bd:defaultComment ""^^xsd:string ;
	bd:length "NN"^^xsd:string ;
	bd:format "???"^^xsd:string ;
	bd:notes "???"^^xsd:string ;
	bd:origin ""^^xsd:string ;
	bd:role "???"^^xsd:string ;
	bd:supplementalQualifier "false"^^xsd:string ;
	bd:used "false"^^xsd:string ;
.
:V-COEVAL
	rdf:type bd:Variable ;
	bd:basedOn <http://rdf.cdisc.org/std/sdtmig-3-1-2#Column.CO.COEVAL> ;
	rdfs:label "SDTM Variable"^^xsd:string ;
	bd:core "???"^^xsd:string ;
	bd:datatype "???"^^xsd:string ;
	bd:defaultCommentSet "false"^^xsd:string ;
	bd:defaultComment ""^^xsd:string ;
	bd:length "NN"^^xsd:string ;
	bd:format "???"^^xsd:string ;
	bd:notes "???"^^xsd:string ;
	bd:origin ""^^xsd:string ;
	bd:role "???"^^xsd:string ;
	bd:supplementalQualifier "false"^^xsd:string ;
	bd:used "false"^^xsd:string ;
.
:V-COREF
	rdf:type bd:Variable ;
	bd:basedOn <http://rdf.cdisc.org/std/sdtmig-3-1-2#Column.CO.COREF> ;
	rdfs:label "SDTM Variable"^^xsd:string ;
	bd:core "???"^^xsd:string ;
	bd:datatype "???"^^xsd:string ;
	bd:defaultCommentSet "false"^^xsd:string ;
	bd:defaultComment ""^^xsd:string ;
	bd:length "NN"^^xsd:string ;
	bd:format "???"^^xsd:string ;
	bd:notes "???"^^xsd:string ;
	bd:origin ""^^xsd:string ;
	bd:role "???"^^xsd:string ;
	bd:supplementalQualifier "false"^^xsd:string ;
	bd:used "false"^^xsd:string ;
.
:V-COSEQ
	rdf:type bd:Variable ;
	bd:basedOn <http://rdf.cdisc.org/std/sdtmig-3-1-2#Column.CO.COSEQ> ;
	rdfs:label "SDTM Variable"^^xsd:string ;
	bd:core "???"^^xsd:string ;
	bd:datatype "???"^^xsd:string ;
	bd:defaultCommentSet "false"^^xsd:string ;
	bd:defaultComment ""^^xsd:string ;
	bd:length "NN"^^xsd:string ;
	bd:format "???"^^xsd:string ;
	bd:notes "???"^^xsd:string ;
	bd:origin ""^^xsd:string ;
	bd:role "???"^^xsd:string ;
	bd:supplementalQualifier "false"^^xsd:string ;
	bd:used "false"^^xsd:string ;
.
:V-COVAL
	rdf:type bd:Variable ;
	bd:basedOn <http://rdf.cdisc.org/std/sdtmig-3-1-2#Column.CO.COVAL> ;
	rdfs:label "SDTM Variable"^^xsd:string ;
	bd:core "???"^^xsd:string ;
	bd:datatype "???"^^xsd:string ;
	bd:defaultCommentSet "false"^^xsd:string ;
	bd:defaultComment ""^^xsd:string ;
	bd:length "NN"^^xsd:string ;
	bd:format "???"^^xsd:string ;
	bd:notes "???"^^xsd:string ;
	bd:origin ""^^xsd:string ;
	bd:role "???"^^xsd:string ;
	bd:supplementalQualifier "false"^^xsd:string ;
	bd:used "false"^^xsd:string ;
.
:V-DOMAIN
	rdf:type bd:Variable ;
	bd:basedOn <http://rdf.cdisc.org/std/sdtmig-3-1-2#Column.CO.DOMAIN> ;
	rdfs:label "SDTM Variable"^^xsd:string ;
	bd:core "???"^^xsd:string ;
	bd:datatype "???"^^xsd:string ;
	bd:defaultCommentSet "false"^^xsd:string ;
	bd:defaultComment ""^^xsd:string ;
	bd:length "NN"^^xsd:string ;
	bd:format "???"^^xsd:string ;
	bd:notes "???"^^xsd:string ;
	bd:origin ""^^xsd:string ;
	bd:role "???"^^xsd:string ;
	bd:supplementalQualifier "false"^^xsd:string ;
	bd:used "false"^^xsd:string ;
.
:V-IDVAR
	rdf:type bd:Variable ;
	bd:basedOn <http://rdf.cdisc.org/std/sdtmig-3-1-2#Column.CO.IDVAR> ;
	rdfs:label "SDTM Variable"^^xsd:string ;
	bd:core "???"^^xsd:string ;
	bd:datatype "???"^^xsd:string ;
	bd:defaultCommentSet "false"^^xsd:string ;
	bd:defaultComment ""^^xsd:string ;
	bd:length "NN"^^xsd:string ;
	bd:format "???"^^xsd:string ;
	bd:notes "???"^^xsd:string ;
	bd:origin ""^^xsd:string ;
	bd:role "???"^^xsd:string ;
	bd:supplementalQualifier "false"^^xsd:string ;
	bd:used "false"^^xsd:string ;
.
:V-IDVARVAL
	rdf:type bd:Variable ;
	bd:basedOn <http://rdf.cdisc.org/std/sdtmig-3-1-2#Column.CO.IDVARVAL> ;
	rdfs:label "SDTM Variable"^^xsd:string ;
	bd:core "???"^^xsd:string ;
	bd:datatype "???"^^xsd:string ;
	bd:defaultCommentSet "false"^^xsd:string ;
	bd:defaultComment ""^^xsd:string ;
	bd:length "NN"^^xsd:string ;
	bd:format "???"^^xsd:string ;
	bd:notes "???"^^xsd:string ;
	bd:origin ""^^xsd:string ;
	bd:role "???"^^xsd:string ;
	bd:supplementalQualifier "false"^^xsd:string ;
	bd:used "false"^^xsd:string ;
.
:V-RDOMAIN
	rdf:type bd:Variable ;
	bd:basedOn <http://rdf.cdisc.org/std/sdtmig-3-1-2#Column.CO.RDOMAIN> ;
	rdfs:label "SDTM Variable"^^xsd:string ;
	bd:core "???"^^xsd:string ;
	bd:datatype "???"^^xsd:string ;
	bd:defaultCommentSet "false"^^xsd:string ;
	bd:defaultComment ""^^xsd:string ;
	bd:length "NN"^^xsd:string ;
	bd:format "???"^^xsd:string ;
	bd:notes "???"^^xsd:string ;
	bd:origin ""^^xsd:string ;
	bd:role "???"^^xsd:string ;
	bd:supplementalQualifier "false"^^xsd:string ;
	bd:used "false"^^xsd:string ;
.
:V-STUDYID
	rdf:type bd:Variable ;
	bd:basedOn <http://rdf.cdisc.org/std/sdtmig-3-1-2#Column.CO.STUDYID> ;
	rdfs:label "SDTM Variable"^^xsd:string ;
	bd:core "???"^^xsd:string ;
	bd:datatype "???"^^xsd:string ;
	bd:defaultCommentSet "false"^^xsd:string ;
	bd:defaultComment ""^^xsd:string ;
	bd:length "NN"^^xsd:string ;
	bd:format "???"^^xsd:string ;
	bd:notes "???"^^xsd:string ;
	bd:origin ""^^xsd:string ;
	bd:role "???"^^xsd:string ;
	bd:supplementalQualifier "false"^^xsd:string ;
	bd:used "false"^^xsd:string ;
.
:V-USUBJID
	rdf:type bd:Variable ;
	bd:basedOn <http://rdf.cdisc.org/std/sdtmig-3-1-2#Column.CO.USUBJID> ;
	rdfs:label "SDTM Variable"^^xsd:string ;
	bd:core "???"^^xsd:string ;
	bd:datatype "???"^^xsd:string ;
	bd:defaultCommentSet "false"^^xsd:string ;
	bd:defaultComment ""^^xsd:string ;
	bd:length "NN"^^xsd:string ;
	bd:format "???"^^xsd:string ;
	bd:notes "???"^^xsd:string ;
	bd:origin ""^^xsd:string ;
	bd:role "???"^^xsd:string ;
	bd:supplementalQualifier "false"^^xsd:string ;
	bd:used "false"^^xsd:string ;
.
:V-DACAT
	rdf:type bd:Variable ;
	bd:basedOn <http://rdf.cdisc.org/std/sdtmig-3-1-2#Column.DA.DACAT> ;
	rdfs:label "SDTM Variable"^^xsd:string ;
	bd:core "???"^^xsd:string ;
	bd:datatype "???"^^xsd:string ;
	bd:defaultCommentSet "false"^^xsd:string ;
	bd:defaultComment ""^^xsd:string ;
	bd:length "NN"^^xsd:string ;
	bd:format "???"^^xsd:string ;
	bd:notes "???"^^xsd:string ;
	bd:origin ""^^xsd:string ;
	bd:role "???"^^xsd:string ;
	bd:supplementalQualifier "false"^^xsd:string ;
	bd:used "false"^^xsd:string ;
.
:V-DADTC
	rdf:type bd:Variable ;
	bd:basedOn <http://rdf.cdisc.org/std/sdtmig-3-1-2#Column.DA.DADTC> ;
	rdfs:label "SDTM Variable"^^xsd:string ;
	bd:core "???"^^xsd:string ;
	bd:datatype "???"^^xsd:string ;
	bd:defaultCommentSet "false"^^xsd:string ;
	bd:defaultComment ""^^xsd:string ;
	bd:length "NN"^^xsd:string ;
	bd:format "???"^^xsd:string ;
	bd:notes "???"^^xsd:string ;
	bd:origin ""^^xsd:string ;
	bd:role "???"^^xsd:string ;
	bd:supplementalQualifier "false"^^xsd:string ;
	bd:used "false"^^xsd:string ;
.
:V-DADY
	rdf:type bd:Variable ;
	bd:basedOn <http://rdf.cdisc.org/std/sdtmig-3-1-2#Column.DA.DADY> ;
	rdfs:label "SDTM Variable"^^xsd:string ;
	bd:core "???"^^xsd:string ;
	bd:datatype "???"^^xsd:string ;
	bd:defaultCommentSet "false"^^xsd:string ;
	bd:defaultComment ""^^xsd:string ;
	bd:length "NN"^^xsd:string ;
	bd:format "???"^^xsd:string ;
	bd:notes "???"^^xsd:string ;
	bd:origin ""^^xsd:string ;
	bd:role "???"^^xsd:string ;
	bd:supplementalQualifier "false"^^xsd:string ;
	bd:used "false"^^xsd:string ;
.
:V-DAGRPID
	rdf:type bd:Variable ;
	bd:basedOn <http://rdf.cdisc.org/std/sdtmig-3-1-2#Column.DA.DAGRPID> ;
	rdfs:label "SDTM Variable"^^xsd:string ;
	bd:core "???"^^xsd:string ;
	bd:datatype "???"^^xsd:string ;
	bd:defaultCommentSet "false"^^xsd:string ;
	bd:defaultComment ""^^xsd:string ;
	bd:length "NN"^^xsd:string ;
	bd:format "???"^^xsd:string ;
	bd:notes "???"^^xsd:string ;
	bd:origin ""^^xsd:string ;
	bd:role "???"^^xsd:string ;
	bd:supplementalQualifier "false"^^xsd:string ;
	bd:used "false"^^xsd:string ;
.
:V-DAORRES
	rdf:type bd:Variable ;
	bd:basedOn <http://rdf.cdisc.org/std/sdtmig-3-1-2#Column.DA.DAORRES> ;
	rdfs:label "SDTM Variable"^^xsd:string ;
	bd:core "???"^^xsd:string ;
	bd:datatype "???"^^xsd:string ;
	bd:defaultCommentSet "false"^^xsd:string ;
	bd:defaultComment ""^^xsd:string ;
	bd:length "NN"^^xsd:string ;
	bd:format "???"^^xsd:string ;
	bd:notes "???"^^xsd:string ;
	bd:origin ""^^xsd:string ;
	bd:role "???"^^xsd:string ;
	bd:supplementalQualifier "false"^^xsd:string ;
	bd:used "false"^^xsd:string ;
.
:V-DAORRESU
	rdf:type bd:Variable ;
	bd:basedOn <http://rdf.cdisc.org/std/sdtmig-3-1-2#Column.DA.DAORRESU> ;
	rdfs:label "SDTM Variable"^^xsd:string ;
	bd:core "???"^^xsd:string ;
	bd:datatype "???"^^xsd:string ;
	bd:defaultCommentSet "false"^^xsd:string ;
	bd:defaultComment ""^^xsd:string ;
	bd:length "NN"^^xsd:string ;
	bd:format "???"^^xsd:string ;
	bd:notes "???"^^xsd:string ;
	bd:origin ""^^xsd:string ;
	bd:role "???"^^xsd:string ;
	bd:supplementalQualifier "false"^^xsd:string ;
	bd:used "false"^^xsd:string ;
.
:V-DAREASND
	rdf:type bd:Variable ;
	bd:basedOn <http://rdf.cdisc.org/std/sdtmig-3-1-2#Column.DA.DAREASND> ;
	rdfs:label "SDTM Variable"^^xsd:string ;
	bd:core "???"^^xsd:string ;
	bd:datatype "???"^^xsd:string ;
	bd:defaultCommentSet "false"^^xsd:string ;
	bd:defaultComment ""^^xsd:string ;
	bd:length "NN"^^xsd:string ;
	bd:format "???"^^xsd:string ;
	bd:notes "???"^^xsd:string ;
	bd:origin ""^^xsd:string ;
	bd:role "???"^^xsd:string ;
	bd:supplementalQualifier "false"^^xsd:string ;
	bd:used "false"^^xsd:string ;
.
:V-DAREFID
	rdf:type bd:Variable ;
	bd:basedOn <http://rdf.cdisc.org/std/sdtmig-3-1-2#Column.DA.DAREFID> ;
	rdfs:label "SDTM Variable"^^xsd:string ;
	bd:core "???"^^xsd:string ;
	bd:datatype "???"^^xsd:string ;
	bd:defaultCommentSet "false"^^xsd:string ;
	bd:defaultComment ""^^xsd:string ;
	bd:length "NN"^^xsd:string ;
	bd:format "???"^^xsd:string ;
	bd:notes "???"^^xsd:string ;
	bd:origin ""^^xsd:string ;
	bd:role "???"^^xsd:string ;
	bd:supplementalQualifier "false"^^xsd:string ;
	bd:used "false"^^xsd:string ;
.
:V-DASCAT
	rdf:type bd:Variable ;
	bd:basedOn <http://rdf.cdisc.org/std/sdtmig-3-1-2#Column.DA.DASCAT> ;
	rdfs:label "SDTM Variable"^^xsd:string ;
	bd:core "???"^^xsd:string ;
	bd:datatype "???"^^xsd:string ;
	bd:defaultCommentSet "false"^^xsd:string ;
	bd:defaultComment ""^^xsd:string ;
	bd:length "NN"^^xsd:string ;
	bd:format "???"^^xsd:string ;
	bd:notes "???"^^xsd:string ;
	bd:origin ""^^xsd:string ;
	bd:role "???"^^xsd:string ;
	bd:supplementalQualifier "false"^^xsd:string ;
	bd:used "false"^^xsd:string ;
.
:V-DASEQ
	rdf:type bd:Variable ;
	bd:basedOn <http://rdf.cdisc.org/std/sdtmig-3-1-2#Column.DA.DASEQ> ;
	rdfs:label "SDTM Variable"^^xsd:string ;
	bd:core "???"^^xsd:string ;
	bd:datatype "???"^^xsd:string ;
	bd:defaultCommentSet "false"^^xsd:string ;
	bd:defaultComment ""^^xsd:string ;
	bd:length "NN"^^xsd:string ;
	bd:format "???"^^xsd:string ;
	bd:notes "???"^^xsd:string ;
	bd:origin ""^^xsd:string ;
	bd:role "???"^^xsd:string ;
	bd:supplementalQualifier "false"^^xsd:string ;
	bd:used "false"^^xsd:string ;
.
:V-DASPID
	rdf:type bd:Variable ;
	bd:basedOn <http://rdf.cdisc.org/std/sdtmig-3-1-2#Column.DA.DASPID> ;
	rdfs:label "SDTM Variable"^^xsd:string ;
	bd:core "???"^^xsd:string ;
	bd:datatype "???"^^xsd:string ;
	bd:defaultCommentSet "false"^^xsd:string ;
	bd:defaultComment ""^^xsd:string ;
	bd:length "NN"^^xsd:string ;
	bd:format "???"^^xsd:string ;
	bd:notes "???"^^xsd:string ;
	bd:origin ""^^xsd:string ;
	bd:role "???"^^xsd:string ;
	bd:supplementalQualifier "false"^^xsd:string ;
	bd:used "false"^^xsd:string ;
.
:V-DASTAT
	rdf:type bd:Variable ;
	bd:basedOn <http://rdf.cdisc.org/std/sdtmig-3-1-2#Column.DA.DASTAT> ;
	rdfs:label "SDTM Variable"^^xsd:string ;
	bd:core "???"^^xsd:string ;
	bd:datatype "???"^^xsd:string ;
	bd:defaultCommentSet "false"^^xsd:string ;
	bd:defaultComment ""^^xsd:string ;
	bd:length "NN"^^xsd:string ;
	bd:format "???"^^xsd:string ;
	bd:notes "???"^^xsd:string ;
	bd:origin ""^^xsd:string ;
	bd:role "???"^^xsd:string ;
	bd:supplementalQualifier "false"^^xsd:string ;
	bd:used "false"^^xsd:string ;
.
:V-DASTRESC
	rdf:type bd:Variable ;
	bd:basedOn <http://rdf.cdisc.org/std/sdtmig-3-1-2#Column.DA.DASTRESC> ;
	rdfs:label "SDTM Variable"^^xsd:string ;
	bd:core "???"^^xsd:string ;
	bd:datatype "???"^^xsd:string ;
	bd:defaultCommentSet "false"^^xsd:string ;
	bd:defaultComment ""^^xsd:string ;
	bd:length "NN"^^xsd:string ;
	bd:format "???"^^xsd:string ;
	bd:notes "???"^^xsd:string ;
	bd:origin ""^^xsd:string ;
	bd:role "???"^^xsd:string ;
	bd:supplementalQualifier "false"^^xsd:string ;
	bd:used "false"^^xsd:string ;
.
:V-DASTRESN
	rdf:type bd:Variable ;
	bd:basedOn <http://rdf.cdisc.org/std/sdtmig-3-1-2#Column.DA.DASTRESN> ;
	rdfs:label "SDTM Variable"^^xsd:string ;
	bd:core "???"^^xsd:string ;
	bd:datatype "???"^^xsd:string ;
	bd:defaultCommentSet "false"^^xsd:string ;
	bd:defaultComment ""^^xsd:string ;
	bd:length "NN"^^xsd:string ;
	bd:format "???"^^xsd:string ;
	bd:notes "???"^^xsd:string ;
	bd:origin ""^^xsd:string ;
	bd:role "???"^^xsd:string ;
	bd:supplementalQualifier "false"^^xsd:string ;
	bd:used "false"^^xsd:string ;
.
:V-DASTRESU
	rdf:type bd:Variable ;
	bd:basedOn <http://rdf.cdisc.org/std/sdtmig-3-1-2#Column.DA.DASTRESU> ;
	rdfs:label "SDTM Variable"^^xsd:string ;
	bd:core "???"^^xsd:string ;
	bd:datatype "???"^^xsd:string ;
	bd:defaultCommentSet "false"^^xsd:string ;
	bd:defaultComment ""^^xsd:string ;
	bd:length "NN"^^xsd:string ;
	bd:format "???"^^xsd:string ;
	bd:notes "???"^^xsd:string ;
	bd:origin ""^^xsd:string ;
	bd:role "???"^^xsd:string ;
	bd:supplementalQualifier "false"^^xsd:string ;
	bd:used "false"^^xsd:string ;
.
:V-DATEST
	rdf:type bd:Variable ;
	bd:basedOn <http://rdf.cdisc.org/std/sdtmig-3-1-2#Column.DA.DATEST> ;
	rdfs:label "SDTM Variable"^^xsd:string ;
	bd:core "???"^^xsd:string ;
	bd:datatype "???"^^xsd:string ;
	bd:defaultCommentSet "false"^^xsd:string ;
	bd:defaultComment ""^^xsd:string ;
	bd:length "NN"^^xsd:string ;
	bd:format "???"^^xsd:string ;
	bd:notes "???"^^xsd:string ;
	bd:origin ""^^xsd:string ;
	bd:role "???"^^xsd:string ;
	bd:supplementalQualifier "false"^^xsd:string ;
	bd:used "false"^^xsd:string ;
.
:V-DATESTCD
	rdf:type bd:Variable ;
	bd:basedOn <http://rdf.cdisc.org/std/sdtmig-3-1-2#Column.DA.DATESTCD> ;
	rdfs:label "SDTM Variable"^^xsd:string ;
	bd:core "???"^^xsd:string ;
	bd:datatype "???"^^xsd:string ;
	bd:defaultCommentSet "false"^^xsd:string ;
	bd:defaultComment ""^^xsd:string ;
	bd:length "NN"^^xsd:string ;
	bd:format "???"^^xsd:string ;
	bd:notes "???"^^xsd:string ;
	bd:origin ""^^xsd:string ;
	bd:role "???"^^xsd:string ;
	bd:supplementalQualifier "false"^^xsd:string ;
	bd:used "false"^^xsd:string ;
.
:V-DOMAIN
	rdf:type bd:Variable ;
	bd:basedOn <http://rdf.cdisc.org/std/sdtmig-3-1-2#Column.DA.DOMAIN> ;
	rdfs:label "SDTM Variable"^^xsd:string ;
	bd:core "???"^^xsd:string ;
	bd:datatype "???"^^xsd:string ;
	bd:defaultCommentSet "false"^^xsd:string ;
	bd:defaultComment ""^^xsd:string ;
	bd:length "NN"^^xsd:string ;
	bd:format "???"^^xsd:string ;
	bd:notes "???"^^xsd:string ;
	bd:origin ""^^xsd:string ;
	bd:role "???"^^xsd:string ;
	bd:supplementalQualifier "false"^^xsd:string ;
	bd:used "false"^^xsd:string ;
.
:V-STUDYID
	rdf:type bd:Variable ;
	bd:basedOn <http://rdf.cdisc.org/std/sdtmig-3-1-2#Column.DA.STUDYID> ;
	rdfs:label "SDTM Variable"^^xsd:string ;
	bd:core "???"^^xsd:string ;
	bd:datatype "???"^^xsd:string ;
	bd:defaultCommentSet "false"^^xsd:string ;
	bd:defaultComment ""^^xsd:string ;
	bd:length "NN"^^xsd:string ;
	bd:format "???"^^xsd:string ;
	bd:notes "???"^^xsd:string ;
	bd:origin ""^^xsd:string ;
	bd:role "???"^^xsd:string ;
	bd:supplementalQualifier "false"^^xsd:string ;
	bd:used "false"^^xsd:string ;
.
:V-USUBJID
	rdf:type bd:Variable ;
	bd:basedOn <http://rdf.cdisc.org/std/sdtmig-3-1-2#Column.DA.USUBJID> ;
	rdfs:label "SDTM Variable"^^xsd:string ;
	bd:core "???"^^xsd:string ;
	bd:datatype "???"^^xsd:string ;
	bd:defaultCommentSet "false"^^xsd:string ;
	bd:defaultComment ""^^xsd:string ;
	bd:length "NN"^^xsd:string ;
	bd:format "???"^^xsd:string ;
	bd:notes "???"^^xsd:string ;
	bd:origin ""^^xsd:string ;
	bd:role "???"^^xsd:string ;
	bd:supplementalQualifier "false"^^xsd:string ;
	bd:used "false"^^xsd:string ;
.
:V-VISIT
	rdf:type bd:Variable ;
	bd:basedOn <http://rdf.cdisc.org/std/sdtmig-3-1-2#Column.DA.VISIT> ;
	rdfs:label "SDTM Variable"^^xsd:string ;
	bd:core "???"^^xsd:string ;
	bd:datatype "???"^^xsd:string ;
	bd:defaultCommentSet "false"^^xsd:string ;
	bd:defaultComment ""^^xsd:string ;
	bd:length "NN"^^xsd:string ;
	bd:format "???"^^xsd:string ;
	bd:notes "???"^^xsd:string ;
	bd:origin ""^^xsd:string ;
	bd:role "???"^^xsd:string ;
	bd:supplementalQualifier "false"^^xsd:string ;
	bd:used "false"^^xsd:string ;
.
:V-VISITDY
	rdf:type bd:Variable ;
	bd:basedOn <http://rdf.cdisc.org/std/sdtmig-3-1-2#Column.DA.VISITDY> ;
	rdfs:label "SDTM Variable"^^xsd:string ;
	bd:core "???"^^xsd:string ;
	bd:datatype "???"^^xsd:string ;
	bd:defaultCommentSet "false"^^xsd:string ;
	bd:defaultComment ""^^xsd:string ;
	bd:length "NN"^^xsd:string ;
	bd:format "???"^^xsd:string ;
	bd:notes "???"^^xsd:string ;
	bd:origin ""^^xsd:string ;
	bd:role "???"^^xsd:string ;
	bd:supplementalQualifier "false"^^xsd:string ;
	bd:used "false"^^xsd:string ;
.
:V-VISITNUM
	rdf:type bd:Variable ;
	bd:basedOn <http://rdf.cdisc.org/std/sdtmig-3-1-2#Column.DA.VISITNUM> ;
	rdfs:label "SDTM Variable"^^xsd:string ;
	bd:core "???"^^xsd:string ;
	bd:datatype "???"^^xsd:string ;
	bd:defaultCommentSet "false"^^xsd:string ;
	bd:defaultComment ""^^xsd:string ;
	bd:length "NN"^^xsd:string ;
	bd:format "???"^^xsd:string ;
	bd:notes "???"^^xsd:string ;
	bd:origin ""^^xsd:string ;
	bd:role "???"^^xsd:string ;
	bd:supplementalQualifier "false"^^xsd:string ;
	bd:used "false"^^xsd:string ;
.
:V-AGE
	rdf:type bd:Variable ;
	bd:basedOn <http://rdf.cdisc.org/std/sdtmig-3-1-2#Column.DM.AGE> ;
	rdfs:label "SDTM Variable"^^xsd:string ;
	bd:core "???"^^xsd:string ;
	bd:datatype "???"^^xsd:string ;
	bd:defaultCommentSet "false"^^xsd:string ;
	bd:defaultComment ""^^xsd:string ;
	bd:length "NN"^^xsd:string ;
	bd:format "???"^^xsd:string ;
	bd:notes "???"^^xsd:string ;
	bd:origin ""^^xsd:string ;
	bd:role "???"^^xsd:string ;
	bd:supplementalQualifier "false"^^xsd:string ;
	bd:used "false"^^xsd:string ;
.
:V-AGEU
	rdf:type bd:Variable ;
	bd:basedOn <http://rdf.cdisc.org/std/sdtmig-3-1-2#Column.DM.AGEU> ;
	rdfs:label "SDTM Variable"^^xsd:string ;
	bd:core "???"^^xsd:string ;
	bd:datatype "???"^^xsd:string ;
	bd:defaultCommentSet "false"^^xsd:string ;
	bd:defaultComment ""^^xsd:string ;
	bd:length "NN"^^xsd:string ;
	bd:format "???"^^xsd:string ;
	bd:notes "???"^^xsd:string ;
	bd:origin ""^^xsd:string ;
	bd:role "???"^^xsd:string ;
	bd:supplementalQualifier "false"^^xsd:string ;
	bd:used "false"^^xsd:string ;
.
:V-ARM
	rdf:type bd:Variable ;
	bd:basedOn <http://rdf.cdisc.org/std/sdtmig-3-1-2#Column.DM.ARM> ;
	rdfs:label "SDTM Variable"^^xsd:string ;
	bd:core "???"^^xsd:string ;
	bd:datatype "???"^^xsd:string ;
	bd:defaultCommentSet "false"^^xsd:string ;
	bd:defaultComment ""^^xsd:string ;
	bd:length "NN"^^xsd:string ;
	bd:format "???"^^xsd:string ;
	bd:notes "???"^^xsd:string ;
	bd:origin ""^^xsd:string ;
	bd:role "???"^^xsd:string ;
	bd:supplementalQualifier "false"^^xsd:string ;
	bd:used "false"^^xsd:string ;
.
:V-ARMCD
	rdf:type bd:Variable ;
	bd:basedOn <http://rdf.cdisc.org/std/sdtmig-3-1-2#Column.DM.ARMCD> ;
	rdfs:label "SDTM Variable"^^xsd:string ;
	bd:core "???"^^xsd:string ;
	bd:datatype "???"^^xsd:string ;
	bd:defaultCommentSet "false"^^xsd:string ;
	bd:defaultComment ""^^xsd:string ;
	bd:length "NN"^^xsd:string ;
	bd:format "???"^^xsd:string ;
	bd:notes "???"^^xsd:string ;
	bd:origin ""^^xsd:string ;
	bd:role "???"^^xsd:string ;
	bd:supplementalQualifier "false"^^xsd:string ;
	bd:used "false"^^xsd:string ;
.
:V-BRTHDTC
	rdf:type bd:Variable ;
	bd:basedOn <http://rdf.cdisc.org/std/sdtmig-3-1-2#Column.DM.BRTHDTC> ;
	rdfs:label "SDTM Variable"^^xsd:string ;
	bd:core "???"^^xsd:string ;
	bd:datatype "???"^^xsd:string ;
	bd:defaultCommentSet "false"^^xsd:string ;
	bd:defaultComment ""^^xsd:string ;
	bd:length "NN"^^xsd:string ;
	bd:format "???"^^xsd:string ;
	bd:notes "???"^^xsd:string ;
	bd:origin ""^^xsd:string ;
	bd:role "???"^^xsd:string ;
	bd:supplementalQualifier "false"^^xsd:string ;
	bd:used "false"^^xsd:string ;
.
:V-COUNTRY
	rdf:type bd:Variable ;
	bd:basedOn <http://rdf.cdisc.org/std/sdtmig-3-1-2#Column.DM.COUNTRY> ;
	rdfs:label "SDTM Variable"^^xsd:string ;
	bd:core "???"^^xsd:string ;
	bd:datatype "???"^^xsd:string ;
	bd:defaultCommentSet "false"^^xsd:string ;
	bd:defaultComment ""^^xsd:string ;
	bd:length "NN"^^xsd:string ;
	bd:format "???"^^xsd:string ;
	bd:notes "???"^^xsd:string ;
	bd:origin ""^^xsd:string ;
	bd:role "???"^^xsd:string ;
	bd:supplementalQualifier "false"^^xsd:string ;
	bd:used "false"^^xsd:string ;
.
:V-DMDTC
	rdf:type bd:Variable ;
	bd:basedOn <http://rdf.cdisc.org/std/sdtmig-3-1-2#Column.DM.DMDTC> ;
	rdfs:label "SDTM Variable"^^xsd:string ;
	bd:core "???"^^xsd:string ;
	bd:datatype "???"^^xsd:string ;
	bd:defaultCommentSet "false"^^xsd:string ;
	bd:defaultComment ""^^xsd:string ;
	bd:length "NN"^^xsd:string ;
	bd:format "???"^^xsd:string ;
	bd:notes "???"^^xsd:string ;
	bd:origin ""^^xsd:string ;
	bd:role "???"^^xsd:string ;
	bd:supplementalQualifier "false"^^xsd:string ;
	bd:used "false"^^xsd:string ;
.
:V-DMDY
	rdf:type bd:Variable ;
	bd:basedOn <http://rdf.cdisc.org/std/sdtmig-3-1-2#Column.DM.DMDY> ;
	rdfs:label "SDTM Variable"^^xsd:string ;
	bd:core "???"^^xsd:string ;
	bd:datatype "???"^^xsd:string ;
	bd:defaultCommentSet "false"^^xsd:string ;
	bd:defaultComment ""^^xsd:string ;
	bd:length "NN"^^xsd:string ;
	bd:format "???"^^xsd:string ;
	bd:notes "???"^^xsd:string ;
	bd:origin ""^^xsd:string ;
	bd:role "???"^^xsd:string ;
	bd:supplementalQualifier "false"^^xsd:string ;
	bd:used "false"^^xsd:string ;
.
:V-DOMAIN
	rdf:type bd:Variable ;
	bd:basedOn <http://rdf.cdisc.org/std/sdtmig-3-1-2#Column.DM.DOMAIN> ;
	rdfs:label "SDTM Variable"^^xsd:string ;
	bd:core "???"^^xsd:string ;
	bd:datatype "???"^^xsd:string ;
	bd:defaultCommentSet "false"^^xsd:string ;
	bd:defaultComment ""^^xsd:string ;
	bd:length "NN"^^xsd:string ;
	bd:format "???"^^xsd:string ;
	bd:notes "???"^^xsd:string ;
	bd:origin ""^^xsd:string ;
	bd:role "???"^^xsd:string ;
	bd:supplementalQualifier "false"^^xsd:string ;
	bd:used "false"^^xsd:string ;
.
:V-ETHNIC
	rdf:type bd:Variable ;
	bd:basedOn <http://rdf.cdisc.org/std/sdtmig-3-1-2#Column.DM.ETHNIC> ;
	rdfs:label "SDTM Variable"^^xsd:string ;
	bd:core "???"^^xsd:string ;
	bd:datatype "???"^^xsd:string ;
	bd:defaultCommentSet "false"^^xsd:string ;
	bd:defaultComment ""^^xsd:string ;
	bd:length "NN"^^xsd:string ;
	bd:format "???"^^xsd:string ;
	bd:notes "???"^^xsd:string ;
	bd:origin ""^^xsd:string ;
	bd:role "???"^^xsd:string ;
	bd:supplementalQualifier "false"^^xsd:string ;
	bd:used "false"^^xsd:string ;
.
:V-INVID
	rdf:type bd:Variable ;
	bd:basedOn <http://rdf.cdisc.org/std/sdtmig-3-1-2#Column.DM.INVID> ;
	rdfs:label "SDTM Variable"^^xsd:string ;
	bd:core "???"^^xsd:string ;
	bd:datatype "???"^^xsd:string ;
	bd:defaultCommentSet "false"^^xsd:string ;
	bd:defaultComment ""^^xsd:string ;
	bd:length "NN"^^xsd:string ;
	bd:format "???"^^xsd:string ;
	bd:notes "???"^^xsd:string ;
	bd:origin ""^^xsd:string ;
	bd:role "???"^^xsd:string ;
	bd:supplementalQualifier "false"^^xsd:string ;
	bd:used "false"^^xsd:string ;
.
:V-INVNAM
	rdf:type bd:Variable ;
	bd:basedOn <http://rdf.cdisc.org/std/sdtmig-3-1-2#Column.DM.INVNAM> ;
	rdfs:label "SDTM Variable"^^xsd:string ;
	bd:core "???"^^xsd:string ;
	bd:datatype "???"^^xsd:string ;
	bd:defaultCommentSet "false"^^xsd:string ;
	bd:defaultComment ""^^xsd:string ;
	bd:length "NN"^^xsd:string ;
	bd:format "???"^^xsd:string ;
	bd:notes "???"^^xsd:string ;
	bd:origin ""^^xsd:string ;
	bd:role "???"^^xsd:string ;
	bd:supplementalQualifier "false"^^xsd:string ;
	bd:used "false"^^xsd:string ;
.
:V-RACE
	rdf:type bd:Variable ;
	bd:basedOn <http://rdf.cdisc.org/std/sdtmig-3-1-2#Column.DM.RACE> ;
	rdfs:label "SDTM Variable"^^xsd:string ;
	bd:core "???"^^xsd:string ;
	bd:datatype "???"^^xsd:string ;
	bd:defaultCommentSet "false"^^xsd:string ;
	bd:defaultComment ""^^xsd:string ;
	bd:length "NN"^^xsd:string ;
	bd:format "???"^^xsd:string ;
	bd:notes "???"^^xsd:string ;
	bd:origin ""^^xsd:string ;
	bd:role "???"^^xsd:string ;
	bd:supplementalQualifier "false"^^xsd:string ;
	bd:used "false"^^xsd:string ;
.
:V-RFENDTC
	rdf:type bd:Variable ;
	bd:basedOn <http://rdf.cdisc.org/std/sdtmig-3-1-2#Column.DM.RFENDTC> ;
	rdfs:label "SDTM Variable"^^xsd:string ;
	bd:core "???"^^xsd:string ;
	bd:datatype "???"^^xsd:string ;
	bd:defaultCommentSet "false"^^xsd:string ;
	bd:defaultComment ""^^xsd:string ;
	bd:length "NN"^^xsd:string ;
	bd:format "???"^^xsd:string ;
	bd:notes "???"^^xsd:string ;
	bd:origin ""^^xsd:string ;
	bd:role "???"^^xsd:string ;
	bd:supplementalQualifier "false"^^xsd:string ;
	bd:used "false"^^xsd:string ;
.
:V-RFSTDTC
	rdf:type bd:Variable ;
	bd:basedOn <http://rdf.cdisc.org/std/sdtmig-3-1-2#Column.DM.RFSTDTC> ;
	rdfs:label "SDTM Variable"^^xsd:string ;
	bd:core "???"^^xsd:string ;
	bd:datatype "???"^^xsd:string ;
	bd:defaultCommentSet "false"^^xsd:string ;
	bd:defaultComment ""^^xsd:string ;
	bd:length "NN"^^xsd:string ;
	bd:format "???"^^xsd:string ;
	bd:notes "???"^^xsd:string ;
	bd:origin ""^^xsd:string ;
	bd:role "???"^^xsd:string ;
	bd:supplementalQualifier "false"^^xsd:string ;
	bd:used "false"^^xsd:string ;
.
:V-SEX
	rdf:type bd:Variable ;
	bd:basedOn <http://rdf.cdisc.org/std/sdtmig-3-1-2#Column.DM.SEX> ;
	rdfs:label "SDTM Variable"^^xsd:string ;
	bd:core "???"^^xsd:string ;
	bd:datatype "???"^^xsd:string ;
	bd:defaultCommentSet "false"^^xsd:string ;
	bd:defaultComment ""^^xsd:string ;
	bd:length "NN"^^xsd:string ;
	bd:format "???"^^xsd:string ;
	bd:notes "???"^^xsd:string ;
	bd:origin ""^^xsd:string ;
	bd:role "???"^^xsd:string ;
	bd:supplementalQualifier "false"^^xsd:string ;
	bd:used "false"^^xsd:string ;
.
:V-SITEID
	rdf:type bd:Variable ;
	bd:basedOn <http://rdf.cdisc.org/std/sdtmig-3-1-2#Column.DM.SITEID> ;
	rdfs:label "SDTM Variable"^^xsd:string ;
	bd:core "???"^^xsd:string ;
	bd:datatype "???"^^xsd:string ;
	bd:defaultCommentSet "false"^^xsd:string ;
	bd:defaultComment ""^^xsd:string ;
	bd:length "NN"^^xsd:string ;
	bd:format "???"^^xsd:string ;
	bd:notes "???"^^xsd:string ;
	bd:origin ""^^xsd:string ;
	bd:role "???"^^xsd:string ;
	bd:supplementalQualifier "false"^^xsd:string ;
	bd:used "false"^^xsd:string ;
.
:V-STUDYID
	rdf:type bd:Variable ;
	bd:basedOn <http://rdf.cdisc.org/std/sdtmig-3-1-2#Column.DM.STUDYID> ;
	rdfs:label "SDTM Variable"^^xsd:string ;
	bd:core "???"^^xsd:string ;
	bd:datatype "???"^^xsd:string ;
	bd:defaultCommentSet "false"^^xsd:string ;
	bd:defaultComment ""^^xsd:string ;
	bd:length "NN"^^xsd:string ;
	bd:format "???"^^xsd:string ;
	bd:notes "???"^^xsd:string ;
	bd:origin ""^^xsd:string ;
	bd:role "???"^^xsd:string ;
	bd:supplementalQualifier "false"^^xsd:string ;
	bd:used "false"^^xsd:string ;
.
:V-SUBJID
	rdf:type bd:Variable ;
	bd:basedOn <http://rdf.cdisc.org/std/sdtmig-3-1-2#Column.DM.SUBJID> ;
	rdfs:label "SDTM Variable"^^xsd:string ;
	bd:core "???"^^xsd:string ;
	bd:datatype "???"^^xsd:string ;
	bd:defaultCommentSet "false"^^xsd:string ;
	bd:defaultComment ""^^xsd:string ;
	bd:length "NN"^^xsd:string ;
	bd:format "???"^^xsd:string ;
	bd:notes "???"^^xsd:string ;
	bd:origin ""^^xsd:string ;
	bd:role "???"^^xsd:string ;
	bd:supplementalQualifier "false"^^xsd:string ;
	bd:used "false"^^xsd:string ;
.
:V-USUBJID
	rdf:type bd:Variable ;
	bd:basedOn <http://rdf.cdisc.org/std/sdtmig-3-1-2#Column.DM.USUBJID> ;
	rdfs:label "SDTM Variable"^^xsd:string ;
	bd:core "???"^^xsd:string ;
	bd:datatype "???"^^xsd:string ;
	bd:defaultCommentSet "false"^^xsd:string ;
	bd:defaultComment ""^^xsd:string ;
	bd:length "NN"^^xsd:string ;
	bd:format "???"^^xsd:string ;
	bd:notes "???"^^xsd:string ;
	bd:origin ""^^xsd:string ;
	bd:role "???"^^xsd:string ;
	bd:supplementalQualifier "false"^^xsd:string ;
	bd:used "false"^^xsd:string ;
.
:V-DOMAIN
	rdf:type bd:Variable ;
	bd:basedOn <http://rdf.cdisc.org/std/sdtmig-3-1-2#Column.DS.DOMAIN> ;
	rdfs:label "SDTM Variable"^^xsd:string ;
	bd:core "???"^^xsd:string ;
	bd:datatype "???"^^xsd:string ;
	bd:defaultCommentSet "false"^^xsd:string ;
	bd:defaultComment ""^^xsd:string ;
	bd:length "NN"^^xsd:string ;
	bd:format "???"^^xsd:string ;
	bd:notes "???"^^xsd:string ;
	bd:origin ""^^xsd:string ;
	bd:role "???"^^xsd:string ;
	bd:supplementalQualifier "false"^^xsd:string ;
	bd:used "false"^^xsd:string ;
.
:V-DSCAT
	rdf:type bd:Variable ;
	bd:basedOn <http://rdf.cdisc.org/std/sdtmig-3-1-2#Column.DS.DSCAT> ;
	rdfs:label "SDTM Variable"^^xsd:string ;
	bd:core "???"^^xsd:string ;
	bd:datatype "???"^^xsd:string ;
	bd:defaultCommentSet "false"^^xsd:string ;
	bd:defaultComment ""^^xsd:string ;
	bd:length "NN"^^xsd:string ;
	bd:format "???"^^xsd:string ;
	bd:notes "???"^^xsd:string ;
	bd:origin ""^^xsd:string ;
	bd:role "???"^^xsd:string ;
	bd:supplementalQualifier "false"^^xsd:string ;
	bd:used "false"^^xsd:string ;
.
:V-DSDECOD
	rdf:type bd:Variable ;
	bd:basedOn <http://rdf.cdisc.org/std/sdtmig-3-1-2#Column.DS.DSDECOD> ;
	rdfs:label "SDTM Variable"^^xsd:string ;
	bd:core "???"^^xsd:string ;
	bd:datatype "???"^^xsd:string ;
	bd:defaultCommentSet "false"^^xsd:string ;
	bd:defaultComment ""^^xsd:string ;
	bd:length "NN"^^xsd:string ;
	bd:format "???"^^xsd:string ;
	bd:notes "???"^^xsd:string ;
	bd:origin ""^^xsd:string ;
	bd:role "???"^^xsd:string ;
	bd:supplementalQualifier "false"^^xsd:string ;
	bd:used "false"^^xsd:string ;
.
:V-DSDTC
	rdf:type bd:Variable ;
	bd:basedOn <http://rdf.cdisc.org/std/sdtmig-3-1-2#Column.DS.DSDTC> ;
	rdfs:label "SDTM Variable"^^xsd:string ;
	bd:core "???"^^xsd:string ;
	bd:datatype "???"^^xsd:string ;
	bd:defaultCommentSet "false"^^xsd:string ;
	bd:defaultComment ""^^xsd:string ;
	bd:length "NN"^^xsd:string ;
	bd:format "???"^^xsd:string ;
	bd:notes "???"^^xsd:string ;
	bd:origin ""^^xsd:string ;
	bd:role "???"^^xsd:string ;
	bd:supplementalQualifier "false"^^xsd:string ;
	bd:used "false"^^xsd:string ;
.
:V-DSGRPID
	rdf:type bd:Variable ;
	bd:basedOn <http://rdf.cdisc.org/std/sdtmig-3-1-2#Column.DS.DSGRPID> ;
	rdfs:label "SDTM Variable"^^xsd:string ;
	bd:core "???"^^xsd:string ;
	bd:datatype "???"^^xsd:string ;
	bd:defaultCommentSet "false"^^xsd:string ;
	bd:defaultComment ""^^xsd:string ;
	bd:length "NN"^^xsd:string ;
	bd:format "???"^^xsd:string ;
	bd:notes "???"^^xsd:string ;
	bd:origin ""^^xsd:string ;
	bd:role "???"^^xsd:string ;
	bd:supplementalQualifier "false"^^xsd:string ;
	bd:used "false"^^xsd:string ;
.
:V-DSREFID
	rdf:type bd:Variable ;
	bd:basedOn <http://rdf.cdisc.org/std/sdtmig-3-1-2#Column.DS.DSREFID> ;
	rdfs:label "SDTM Variable"^^xsd:string ;
	bd:core "???"^^xsd:string ;
	bd:datatype "???"^^xsd:string ;
	bd:defaultCommentSet "false"^^xsd:string ;
	bd:defaultComment ""^^xsd:string ;
	bd:length "NN"^^xsd:string ;
	bd:format "???"^^xsd:string ;
	bd:notes "???"^^xsd:string ;
	bd:origin ""^^xsd:string ;
	bd:role "???"^^xsd:string ;
	bd:supplementalQualifier "false"^^xsd:string ;
	bd:used "false"^^xsd:string ;
.
:V-DSSCAT
	rdf:type bd:Variable ;
	bd:basedOn <http://rdf.cdisc.org/std/sdtmig-3-1-2#Column.DS.DSSCAT> ;
	rdfs:label "SDTM Variable"^^xsd:string ;
	bd:core "???"^^xsd:string ;
	bd:datatype "???"^^xsd:string ;
	bd:defaultCommentSet "false"^^xsd:string ;
	bd:defaultComment ""^^xsd:string ;
	bd:length "NN"^^xsd:string ;
	bd:format "???"^^xsd:string ;
	bd:notes "???"^^xsd:string ;
	bd:origin ""^^xsd:string ;
	bd:role "???"^^xsd:string ;
	bd:supplementalQualifier "false"^^xsd:string ;
	bd:used "false"^^xsd:string ;
.
:V-DSSEQ
	rdf:type bd:Variable ;
	bd:basedOn <http://rdf.cdisc.org/std/sdtmig-3-1-2#Column.DS.DSSEQ> ;
	rdfs:label "SDTM Variable"^^xsd:string ;
	bd:core "???"^^xsd:string ;
	bd:datatype "???"^^xsd:string ;
	bd:defaultCommentSet "false"^^xsd:string ;
	bd:defaultComment ""^^xsd:string ;
	bd:length "NN"^^xsd:string ;
	bd:format "???"^^xsd:string ;
	bd:notes "???"^^xsd:string ;
	bd:origin ""^^xsd:string ;
	bd:role "???"^^xsd:string ;
	bd:supplementalQualifier "false"^^xsd:string ;
	bd:used "false"^^xsd:string ;
.
:V-DSSPID
	rdf:type bd:Variable ;
	bd:basedOn <http://rdf.cdisc.org/std/sdtmig-3-1-2#Column.DS.DSSPID> ;
	rdfs:label "SDTM Variable"^^xsd:string ;
	bd:core "???"^^xsd:string ;
	bd:datatype "???"^^xsd:string ;
	bd:defaultCommentSet "false"^^xsd:string ;
	bd:defaultComment ""^^xsd:string ;
	bd:length "NN"^^xsd:string ;
	bd:format "???"^^xsd:string ;
	bd:notes "???"^^xsd:string ;
	bd:origin ""^^xsd:string ;
	bd:role "???"^^xsd:string ;
	bd:supplementalQualifier "false"^^xsd:string ;
	bd:used "false"^^xsd:string ;
.
:V-DSSTDTC
	rdf:type bd:Variable ;
	bd:basedOn <http://rdf.cdisc.org/std/sdtmig-3-1-2#Column.DS.DSSTDTC> ;
	rdfs:label "SDTM Variable"^^xsd:string ;
	bd:core "???"^^xsd:string ;
	bd:datatype "???"^^xsd:string ;
	bd:defaultCommentSet "false"^^xsd:string ;
	bd:defaultComment ""^^xsd:string ;
	bd:length "NN"^^xsd:string ;
	bd:format "???"^^xsd:string ;
	bd:notes "???"^^xsd:string ;
	bd:origin ""^^xsd:string ;
	bd:role "???"^^xsd:string ;
	bd:supplementalQualifier "false"^^xsd:string ;
	bd:used "false"^^xsd:string ;
.
:V-DSSTDY
	rdf:type bd:Variable ;
	bd:basedOn <http://rdf.cdisc.org/std/sdtmig-3-1-2#Column.DS.DSSTDY> ;
	rdfs:label "SDTM Variable"^^xsd:string ;
	bd:core "???"^^xsd:string ;
	bd:datatype "???"^^xsd:string ;
	bd:defaultCommentSet "false"^^xsd:string ;
	bd:defaultComment ""^^xsd:string ;
	bd:length "NN"^^xsd:string ;
	bd:format "???"^^xsd:string ;
	bd:notes "???"^^xsd:string ;
	bd:origin ""^^xsd:string ;
	bd:role "???"^^xsd:string ;
	bd:supplementalQualifier "false"^^xsd:string ;
	bd:used "false"^^xsd:string ;
.
:V-DSTERM
	rdf:type bd:Variable ;
	bd:basedOn <http://rdf.cdisc.org/std/sdtmig-3-1-2#Column.DS.DSTERM> ;
	rdfs:label "SDTM Variable"^^xsd:string ;
	bd:core "???"^^xsd:string ;
	bd:datatype "???"^^xsd:string ;
	bd:defaultCommentSet "false"^^xsd:string ;
	bd:defaultComment ""^^xsd:string ;
	bd:length "NN"^^xsd:string ;
	bd:format "???"^^xsd:string ;
	bd:notes "???"^^xsd:string ;
	bd:origin ""^^xsd:string ;
	bd:role "???"^^xsd:string ;
	bd:supplementalQualifier "false"^^xsd:string ;
	bd:used "false"^^xsd:string ;
.
:V-EPOCH
	rdf:type bd:Variable ;
	bd:basedOn <http://rdf.cdisc.org/std/sdtmig-3-1-2#Column.DS.EPOCH> ;
	rdfs:label "SDTM Variable"^^xsd:string ;
	bd:core "???"^^xsd:string ;
	bd:datatype "???"^^xsd:string ;
	bd:defaultCommentSet "false"^^xsd:string ;
	bd:defaultComment ""^^xsd:string ;
	bd:length "NN"^^xsd:string ;
	bd:format "???"^^xsd:string ;
	bd:notes "???"^^xsd:string ;
	bd:origin ""^^xsd:string ;
	bd:role "???"^^xsd:string ;
	bd:supplementalQualifier "false"^^xsd:string ;
	bd:used "false"^^xsd:string ;
.
:V-STUDYID
	rdf:type bd:Variable ;
	bd:basedOn <http://rdf.cdisc.org/std/sdtmig-3-1-2#Column.DS.STUDYID> ;
	rdfs:label "SDTM Variable"^^xsd:string ;
	bd:core "???"^^xsd:string ;
	bd:datatype "???"^^xsd:string ;
	bd:defaultCommentSet "false"^^xsd:string ;
	bd:defaultComment ""^^xsd:string ;
	bd:length "NN"^^xsd:string ;
	bd:format "???"^^xsd:string ;
	bd:notes "???"^^xsd:string ;
	bd:origin ""^^xsd:string ;
	bd:role "???"^^xsd:string ;
	bd:supplementalQualifier "false"^^xsd:string ;
	bd:used "false"^^xsd:string ;
.
:V-USUBJID
	rdf:type bd:Variable ;
	bd:basedOn <http://rdf.cdisc.org/std/sdtmig-3-1-2#Column.DS.USUBJID> ;
	rdfs:label "SDTM Variable"^^xsd:string ;
	bd:core "???"^^xsd:string ;
	bd:datatype "???"^^xsd:string ;
	bd:defaultCommentSet "false"^^xsd:string ;
	bd:defaultComment ""^^xsd:string ;
	bd:length "NN"^^xsd:string ;
	bd:format "???"^^xsd:string ;
	bd:notes "???"^^xsd:string ;
	bd:origin ""^^xsd:string ;
	bd:role "???"^^xsd:string ;
	bd:supplementalQualifier "false"^^xsd:string ;
	bd:used "false"^^xsd:string ;
.
:V-DOMAIN
	rdf:type bd:Variable ;
	bd:basedOn <http://rdf.cdisc.org/std/sdtmig-3-1-2#Column.DV.DOMAIN> ;
	rdfs:label "SDTM Variable"^^xsd:string ;
	bd:core "???"^^xsd:string ;
	bd:datatype "???"^^xsd:string ;
	bd:defaultCommentSet "false"^^xsd:string ;
	bd:defaultComment ""^^xsd:string ;
	bd:length "NN"^^xsd:string ;
	bd:format "???"^^xsd:string ;
	bd:notes "???"^^xsd:string ;
	bd:origin ""^^xsd:string ;
	bd:role "???"^^xsd:string ;
	bd:supplementalQualifier "false"^^xsd:string ;
	bd:used "false"^^xsd:string ;
.
:V-DVCAT
	rdf:type bd:Variable ;
	bd:basedOn <http://rdf.cdisc.org/std/sdtmig-3-1-2#Column.DV.DVCAT> ;
	rdfs:label "SDTM Variable"^^xsd:string ;
	bd:core "???"^^xsd:string ;
	bd:datatype "???"^^xsd:string ;
	bd:defaultCommentSet "false"^^xsd:string ;
	bd:defaultComment ""^^xsd:string ;
	bd:length "NN"^^xsd:string ;
	bd:format "???"^^xsd:string ;
	bd:notes "???"^^xsd:string ;
	bd:origin ""^^xsd:string ;
	bd:role "???"^^xsd:string ;
	bd:supplementalQualifier "false"^^xsd:string ;
	bd:used "false"^^xsd:string ;
.
:V-DVDECOD
	rdf:type bd:Variable ;
	bd:basedOn <http://rdf.cdisc.org/std/sdtmig-3-1-2#Column.DV.DVDECOD> ;
	rdfs:label "SDTM Variable"^^xsd:string ;
	bd:core "???"^^xsd:string ;
	bd:datatype "???"^^xsd:string ;
	bd:defaultCommentSet "false"^^xsd:string ;
	bd:defaultComment ""^^xsd:string ;
	bd:length "NN"^^xsd:string ;
	bd:format "???"^^xsd:string ;
	bd:notes "???"^^xsd:string ;
	bd:origin ""^^xsd:string ;
	bd:role "???"^^xsd:string ;
	bd:supplementalQualifier "false"^^xsd:string ;
	bd:used "false"^^xsd:string ;
.
:V-DVENDTC
	rdf:type bd:Variable ;
	bd:basedOn <http://rdf.cdisc.org/std/sdtmig-3-1-2#Column.DV.DVENDTC> ;
	rdfs:label "SDTM Variable"^^xsd:string ;
	bd:core "???"^^xsd:string ;
	bd:datatype "???"^^xsd:string ;
	bd:defaultCommentSet "false"^^xsd:string ;
	bd:defaultComment ""^^xsd:string ;
	bd:length "NN"^^xsd:string ;
	bd:format "???"^^xsd:string ;
	bd:notes "???"^^xsd:string ;
	bd:origin ""^^xsd:string ;
	bd:role "???"^^xsd:string ;
	bd:supplementalQualifier "false"^^xsd:string ;
	bd:used "false"^^xsd:string ;
.
:V-DVREFID
	rdf:type bd:Variable ;
	bd:basedOn <http://rdf.cdisc.org/std/sdtmig-3-1-2#Column.DV.DVREFID> ;
	rdfs:label "SDTM Variable"^^xsd:string ;
	bd:core "???"^^xsd:string ;
	bd:datatype "???"^^xsd:string ;
	bd:defaultCommentSet "false"^^xsd:string ;
	bd:defaultComment ""^^xsd:string ;
	bd:length "NN"^^xsd:string ;
	bd:format "???"^^xsd:string ;
	bd:notes "???"^^xsd:string ;
	bd:origin ""^^xsd:string ;
	bd:role "???"^^xsd:string ;
	bd:supplementalQualifier "false"^^xsd:string ;
	bd:used "false"^^xsd:string ;
.
:V-DVSCAT
	rdf:type bd:Variable ;
	bd:basedOn <http://rdf.cdisc.org/std/sdtmig-3-1-2#Column.DV.DVSCAT> ;
	rdfs:label "SDTM Variable"^^xsd:string ;
	bd:core "???"^^xsd:string ;
	bd:datatype "???"^^xsd:string ;
	bd:defaultCommentSet "false"^^xsd:string ;
	bd:defaultComment ""^^xsd:string ;
	bd:length "NN"^^xsd:string ;
	bd:format "???"^^xsd:string ;
	bd:notes "???"^^xsd:string ;
	bd:origin ""^^xsd:string ;
	bd:role "???"^^xsd:string ;
	bd:supplementalQualifier "false"^^xsd:string ;
	bd:used "false"^^xsd:string ;
.
:V-DVSEQ
	rdf:type bd:Variable ;
	bd:basedOn <http://rdf.cdisc.org/std/sdtmig-3-1-2#Column.DV.DVSEQ> ;
	rdfs:label "SDTM Variable"^^xsd:string ;
	bd:core "???"^^xsd:string ;
	bd:datatype "???"^^xsd:string ;
	bd:defaultCommentSet "false"^^xsd:string ;
	bd:defaultComment ""^^xsd:string ;
	bd:length "NN"^^xsd:string ;
	bd:format "???"^^xsd:string ;
	bd:notes "???"^^xsd:string ;
	bd:origin ""^^xsd:string ;
	bd:role "???"^^xsd:string ;
	bd:supplementalQualifier "false"^^xsd:string ;
	bd:used "false"^^xsd:string ;
.
:V-DVSPID
	rdf:type bd:Variable ;
	bd:basedOn <http://rdf.cdisc.org/std/sdtmig-3-1-2#Column.DV.DVSPID> ;
	rdfs:label "SDTM Variable"^^xsd:string ;
	bd:core "???"^^xsd:string ;
	bd:datatype "???"^^xsd:string ;
	bd:defaultCommentSet "false"^^xsd:string ;
	bd:defaultComment ""^^xsd:string ;
	bd:length "NN"^^xsd:string ;
	bd:format "???"^^xsd:string ;
	bd:notes "???"^^xsd:string ;
	bd:origin ""^^xsd:string ;
	bd:role "???"^^xsd:string ;
	bd:supplementalQualifier "false"^^xsd:string ;
	bd:used "false"^^xsd:string ;
.
:V-DVSTDTC
	rdf:type bd:Variable ;
	bd:basedOn <http://rdf.cdisc.org/std/sdtmig-3-1-2#Column.DV.DVSTDTC> ;
	rdfs:label "SDTM Variable"^^xsd:string ;
	bd:core "???"^^xsd:string ;
	bd:datatype "???"^^xsd:string ;
	bd:defaultCommentSet "false"^^xsd:string ;
	bd:defaultComment ""^^xsd:string ;
	bd:length "NN"^^xsd:string ;
	bd:format "???"^^xsd:string ;
	bd:notes "???"^^xsd:string ;
	bd:origin ""^^xsd:string ;
	bd:role "???"^^xsd:string ;
	bd:supplementalQualifier "false"^^xsd:string ;
	bd:used "false"^^xsd:string ;
.
:V-DVTERM
	rdf:type bd:Variable ;
	bd:basedOn <http://rdf.cdisc.org/std/sdtmig-3-1-2#Column.DV.DVTERM> ;
	rdfs:label "SDTM Variable"^^xsd:string ;
	bd:core "???"^^xsd:string ;
	bd:datatype "???"^^xsd:string ;
	bd:defaultCommentSet "false"^^xsd:string ;
	bd:defaultComment ""^^xsd:string ;
	bd:length "NN"^^xsd:string ;
	bd:format "???"^^xsd:string ;
	bd:notes "???"^^xsd:string ;
	bd:origin ""^^xsd:string ;
	bd:role "???"^^xsd:string ;
	bd:supplementalQualifier "false"^^xsd:string ;
	bd:used "false"^^xsd:string ;
.
:V-EPOCH
	rdf:type bd:Variable ;
	bd:basedOn <http://rdf.cdisc.org/std/sdtmig-3-1-2#Column.DV.EPOCH> ;
	rdfs:label "SDTM Variable"^^xsd:string ;
	bd:core "???"^^xsd:string ;
	bd:datatype "???"^^xsd:string ;
	bd:defaultCommentSet "false"^^xsd:string ;
	bd:defaultComment ""^^xsd:string ;
	bd:length "NN"^^xsd:string ;
	bd:format "???"^^xsd:string ;
	bd:notes "???"^^xsd:string ;
	bd:origin ""^^xsd:string ;
	bd:role "???"^^xsd:string ;
	bd:supplementalQualifier "false"^^xsd:string ;
	bd:used "false"^^xsd:string ;
.
:V-STUDYID
	rdf:type bd:Variable ;
	bd:basedOn <http://rdf.cdisc.org/std/sdtmig-3-1-2#Column.DV.STUDYID> ;
	rdfs:label "SDTM Variable"^^xsd:string ;
	bd:core "???"^^xsd:string ;
	bd:datatype "???"^^xsd:string ;
	bd:defaultCommentSet "false"^^xsd:string ;
	bd:defaultComment ""^^xsd:string ;
	bd:length "NN"^^xsd:string ;
	bd:format "???"^^xsd:string ;
	bd:notes "???"^^xsd:string ;
	bd:origin ""^^xsd:string ;
	bd:role "???"^^xsd:string ;
	bd:supplementalQualifier "false"^^xsd:string ;
	bd:used "false"^^xsd:string ;
.
:V-USUBJID
	rdf:type bd:Variable ;
	bd:basedOn <http://rdf.cdisc.org/std/sdtmig-3-1-2#Column.DV.USUBJID> ;
	rdfs:label "SDTM Variable"^^xsd:string ;
	bd:core "???"^^xsd:string ;
	bd:datatype "???"^^xsd:string ;
	bd:defaultCommentSet "false"^^xsd:string ;
	bd:defaultComment ""^^xsd:string ;
	bd:length "NN"^^xsd:string ;
	bd:format "???"^^xsd:string ;
	bd:notes "???"^^xsd:string ;
	bd:origin ""^^xsd:string ;
	bd:role "???"^^xsd:string ;
	bd:supplementalQualifier "false"^^xsd:string ;
	bd:used "false"^^xsd:string ;
.
:V-DOMAIN
	rdf:type bd:Variable ;
	bd:basedOn <http://rdf.cdisc.org/std/sdtmig-3-1-2#Column.EG.DOMAIN> ;
	rdfs:label "SDTM Variable"^^xsd:string ;
	bd:core "???"^^xsd:string ;
	bd:datatype "???"^^xsd:string ;
	bd:defaultCommentSet "false"^^xsd:string ;
	bd:defaultComment ""^^xsd:string ;
	bd:length "NN"^^xsd:string ;
	bd:format "???"^^xsd:string ;
	bd:notes "???"^^xsd:string ;
	bd:origin ""^^xsd:string ;
	bd:role "???"^^xsd:string ;
	bd:supplementalQualifier "false"^^xsd:string ;
	bd:used "false"^^xsd:string ;
.
:V-EGBLFL
	rdf:type bd:Variable ;
	bd:basedOn <http://rdf.cdisc.org/std/sdtmig-3-1-2#Column.EG.EGBLFL> ;
	rdfs:label "SDTM Variable"^^xsd:string ;
	bd:core "???"^^xsd:string ;
	bd:datatype "???"^^xsd:string ;
	bd:defaultCommentSet "false"^^xsd:string ;
	bd:defaultComment ""^^xsd:string ;
	bd:length "NN"^^xsd:string ;
	bd:format "???"^^xsd:string ;
	bd:notes "???"^^xsd:string ;
	bd:origin ""^^xsd:string ;
	bd:role "???"^^xsd:string ;
	bd:supplementalQualifier "false"^^xsd:string ;
	bd:used "false"^^xsd:string ;
.
:V-EGCAT
	rdf:type bd:Variable ;
	bd:basedOn <http://rdf.cdisc.org/std/sdtmig-3-1-2#Column.EG.EGCAT> ;
	rdfs:label "SDTM Variable"^^xsd:string ;
	bd:core "???"^^xsd:string ;
	bd:datatype "???"^^xsd:string ;
	bd:defaultCommentSet "false"^^xsd:string ;
	bd:defaultComment ""^^xsd:string ;
	bd:length "NN"^^xsd:string ;
	bd:format "???"^^xsd:string ;
	bd:notes "???"^^xsd:string ;
	bd:origin ""^^xsd:string ;
	bd:role "???"^^xsd:string ;
	bd:supplementalQualifier "false"^^xsd:string ;
	bd:used "false"^^xsd:string ;
.
:V-EGDRVFL
	rdf:type bd:Variable ;
	bd:basedOn <http://rdf.cdisc.org/std/sdtmig-3-1-2#Column.EG.EGDRVFL> ;
	rdfs:label "SDTM Variable"^^xsd:string ;
	bd:core "???"^^xsd:string ;
	bd:datatype "???"^^xsd:string ;
	bd:defaultCommentSet "false"^^xsd:string ;
	bd:defaultComment ""^^xsd:string ;
	bd:length "NN"^^xsd:string ;
	bd:format "???"^^xsd:string ;
	bd:notes "???"^^xsd:string ;
	bd:origin ""^^xsd:string ;
	bd:role "???"^^xsd:string ;
	bd:supplementalQualifier "false"^^xsd:string ;
	bd:used "false"^^xsd:string ;
.
:V-EGDTC
	rdf:type bd:Variable ;
	bd:basedOn <http://rdf.cdisc.org/std/sdtmig-3-1-2#Column.EG.EGDTC> ;
	rdfs:label "SDTM Variable"^^xsd:string ;
	bd:core "???"^^xsd:string ;
	bd:datatype "???"^^xsd:string ;
	bd:defaultCommentSet "false"^^xsd:string ;
	bd:defaultComment ""^^xsd:string ;
	bd:length "NN"^^xsd:string ;
	bd:format "???"^^xsd:string ;
	bd:notes "???"^^xsd:string ;
	bd:origin ""^^xsd:string ;
	bd:role "???"^^xsd:string ;
	bd:supplementalQualifier "false"^^xsd:string ;
	bd:used "false"^^xsd:string ;
.
:V-EGDY
	rdf:type bd:Variable ;
	bd:basedOn <http://rdf.cdisc.org/std/sdtmig-3-1-2#Column.EG.EGDY> ;
	rdfs:label "SDTM Variable"^^xsd:string ;
	bd:core "???"^^xsd:string ;
	bd:datatype "???"^^xsd:string ;
	bd:defaultCommentSet "false"^^xsd:string ;
	bd:defaultComment ""^^xsd:string ;
	bd:length "NN"^^xsd:string ;
	bd:format "???"^^xsd:string ;
	bd:notes "???"^^xsd:string ;
	bd:origin ""^^xsd:string ;
	bd:role "???"^^xsd:string ;
	bd:supplementalQualifier "false"^^xsd:string ;
	bd:used "false"^^xsd:string ;
.
:V-EGELTM
	rdf:type bd:Variable ;
	bd:basedOn <http://rdf.cdisc.org/std/sdtmig-3-1-2#Column.EG.EGELTM> ;
	rdfs:label "SDTM Variable"^^xsd:string ;
	bd:core "???"^^xsd:string ;
	bd:datatype "???"^^xsd:string ;
	bd:defaultCommentSet "false"^^xsd:string ;
	bd:defaultComment ""^^xsd:string ;
	bd:length "NN"^^xsd:string ;
	bd:format "???"^^xsd:string ;
	bd:notes "???"^^xsd:string ;
	bd:origin ""^^xsd:string ;
	bd:role "???"^^xsd:string ;
	bd:supplementalQualifier "false"^^xsd:string ;
	bd:used "false"^^xsd:string ;
.
:V-EGEVAL
	rdf:type bd:Variable ;
	bd:basedOn <http://rdf.cdisc.org/std/sdtmig-3-1-2#Column.EG.EGEVAL> ;
	rdfs:label "SDTM Variable"^^xsd:string ;
	bd:core "???"^^xsd:string ;
	bd:datatype "???"^^xsd:string ;
	bd:defaultCommentSet "false"^^xsd:string ;
	bd:defaultComment ""^^xsd:string ;
	bd:length "NN"^^xsd:string ;
	bd:format "???"^^xsd:string ;
	bd:notes "???"^^xsd:string ;
	bd:origin ""^^xsd:string ;
	bd:role "???"^^xsd:string ;
	bd:supplementalQualifier "false"^^xsd:string ;
	bd:used "false"^^xsd:string ;
.
:V-EGGRPID
	rdf:type bd:Variable ;
	bd:basedOn <http://rdf.cdisc.org/std/sdtmig-3-1-2#Column.EG.EGGRPID> ;
	rdfs:label "SDTM Variable"^^xsd:string ;
	bd:core "???"^^xsd:string ;
	bd:datatype "???"^^xsd:string ;
	bd:defaultCommentSet "false"^^xsd:string ;
	bd:defaultComment ""^^xsd:string ;
	bd:length "NN"^^xsd:string ;
	bd:format "???"^^xsd:string ;
	bd:notes "???"^^xsd:string ;
	bd:origin ""^^xsd:string ;
	bd:role "???"^^xsd:string ;
	bd:supplementalQualifier "false"^^xsd:string ;
	bd:used "false"^^xsd:string ;
.
:V-EGLOC
	rdf:type bd:Variable ;
	bd:basedOn <http://rdf.cdisc.org/std/sdtmig-3-1-2#Column.EG.EGLOC> ;
	rdfs:label "SDTM Variable"^^xsd:string ;
	bd:core "???"^^xsd:string ;
	bd:datatype "???"^^xsd:string ;
	bd:defaultCommentSet "false"^^xsd:string ;
	bd:defaultComment ""^^xsd:string ;
	bd:length "NN"^^xsd:string ;
	bd:format "???"^^xsd:string ;
	bd:notes "???"^^xsd:string ;
	bd:origin ""^^xsd:string ;
	bd:role "???"^^xsd:string ;
	bd:supplementalQualifier "false"^^xsd:string ;
	bd:used "false"^^xsd:string ;
.
:V-EGMETHOD
	rdf:type bd:Variable ;
	bd:basedOn <http://rdf.cdisc.org/std/sdtmig-3-1-2#Column.EG.EGMETHOD> ;
	rdfs:label "SDTM Variable"^^xsd:string ;
	bd:core "???"^^xsd:string ;
	bd:datatype "???"^^xsd:string ;
	bd:defaultCommentSet "false"^^xsd:string ;
	bd:defaultComment ""^^xsd:string ;
	bd:length "NN"^^xsd:string ;
	bd:format "???"^^xsd:string ;
	bd:notes "???"^^xsd:string ;
	bd:origin ""^^xsd:string ;
	bd:role "???"^^xsd:string ;
	bd:supplementalQualifier "false"^^xsd:string ;
	bd:used "false"^^xsd:string ;
.
:V-EGNAM
	rdf:type bd:Variable ;
	bd:basedOn <http://rdf.cdisc.org/std/sdtmig-3-1-2#Column.EG.EGNAM> ;
	rdfs:label "SDTM Variable"^^xsd:string ;
	bd:core "???"^^xsd:string ;
	bd:datatype "???"^^xsd:string ;
	bd:defaultCommentSet "false"^^xsd:string ;
	bd:defaultComment ""^^xsd:string ;
	bd:length "NN"^^xsd:string ;
	bd:format "???"^^xsd:string ;
	bd:notes "???"^^xsd:string ;
	bd:origin ""^^xsd:string ;
	bd:role "???"^^xsd:string ;
	bd:supplementalQualifier "false"^^xsd:string ;
	bd:used "false"^^xsd:string ;
.
:V-EGORRES
	rdf:type bd:Variable ;
	bd:basedOn <http://rdf.cdisc.org/std/sdtmig-3-1-2#Column.EG.EGORRES> ;
	rdfs:label "SDTM Variable"^^xsd:string ;
	bd:core "???"^^xsd:string ;
	bd:datatype "???"^^xsd:string ;
	bd:defaultCommentSet "false"^^xsd:string ;
	bd:defaultComment ""^^xsd:string ;
	bd:length "NN"^^xsd:string ;
	bd:format "???"^^xsd:string ;
	bd:notes "???"^^xsd:string ;
	bd:origin ""^^xsd:string ;
	bd:role "???"^^xsd:string ;
	bd:supplementalQualifier "false"^^xsd:string ;
	bd:used "false"^^xsd:string ;
.
:V-EGORRESU
	rdf:type bd:Variable ;
	bd:basedOn <http://rdf.cdisc.org/std/sdtmig-3-1-2#Column.EG.EGORRESU> ;
	rdfs:label "SDTM Variable"^^xsd:string ;
	bd:core "???"^^xsd:string ;
	bd:datatype "???"^^xsd:string ;
	bd:defaultCommentSet "false"^^xsd:string ;
	bd:defaultComment ""^^xsd:string ;
	bd:length "NN"^^xsd:string ;
	bd:format "???"^^xsd:string ;
	bd:notes "???"^^xsd:string ;
	bd:origin ""^^xsd:string ;
	bd:role "???"^^xsd:string ;
	bd:supplementalQualifier "false"^^xsd:string ;
	bd:used "false"^^xsd:string ;
.
:V-EGPOS
	rdf:type bd:Variable ;
	bd:basedOn <http://rdf.cdisc.org/std/sdtmig-3-1-2#Column.EG.EGPOS> ;
	rdfs:label "SDTM Variable"^^xsd:string ;
	bd:core "???"^^xsd:string ;
	bd:datatype "???"^^xsd:string ;
	bd:defaultCommentSet "false"^^xsd:string ;
	bd:defaultComment ""^^xsd:string ;
	bd:length "NN"^^xsd:string ;
	bd:format "???"^^xsd:string ;
	bd:notes "???"^^xsd:string ;
	bd:origin ""^^xsd:string ;
	bd:role "???"^^xsd:string ;
	bd:supplementalQualifier "false"^^xsd:string ;
	bd:used "false"^^xsd:string ;
.
:V-EGREASND
	rdf:type bd:Variable ;
	bd:basedOn <http://rdf.cdisc.org/std/sdtmig-3-1-2#Column.EG.EGREASND> ;
	rdfs:label "SDTM Variable"^^xsd:string ;
	bd:core "???"^^xsd:string ;
	bd:datatype "???"^^xsd:string ;
	bd:defaultCommentSet "false"^^xsd:string ;
	bd:defaultComment ""^^xsd:string ;
	bd:length "NN"^^xsd:string ;
	bd:format "???"^^xsd:string ;
	bd:notes "???"^^xsd:string ;
	bd:origin ""^^xsd:string ;
	bd:role "???"^^xsd:string ;
	bd:supplementalQualifier "false"^^xsd:string ;
	bd:used "false"^^xsd:string ;
.
:V-EGREFID
	rdf:type bd:Variable ;
	bd:basedOn <http://rdf.cdisc.org/std/sdtmig-3-1-2#Column.EG.EGREFID> ;
	rdfs:label "SDTM Variable"^^xsd:string ;
	bd:core "???"^^xsd:string ;
	bd:datatype "???"^^xsd:string ;
	bd:defaultCommentSet "false"^^xsd:string ;
	bd:defaultComment ""^^xsd:string ;
	bd:length "NN"^^xsd:string ;
	bd:format "???"^^xsd:string ;
	bd:notes "???"^^xsd:string ;
	bd:origin ""^^xsd:string ;
	bd:role "???"^^xsd:string ;
	bd:supplementalQualifier "false"^^xsd:string ;
	bd:used "false"^^xsd:string ;
.
:V-EGRFTDTC
	rdf:type bd:Variable ;
	bd:basedOn <http://rdf.cdisc.org/std/sdtmig-3-1-2#Column.EG.EGRFTDTC> ;
	rdfs:label "SDTM Variable"^^xsd:string ;
	bd:core "???"^^xsd:string ;
	bd:datatype "???"^^xsd:string ;
	bd:defaultCommentSet "false"^^xsd:string ;
	bd:defaultComment ""^^xsd:string ;
	bd:length "NN"^^xsd:string ;
	bd:format "???"^^xsd:string ;
	bd:notes "???"^^xsd:string ;
	bd:origin ""^^xsd:string ;
	bd:role "???"^^xsd:string ;
	bd:supplementalQualifier "false"^^xsd:string ;
	bd:used "false"^^xsd:string ;
.
:V-EGSCAT
	rdf:type bd:Variable ;
	bd:basedOn <http://rdf.cdisc.org/std/sdtmig-3-1-2#Column.EG.EGSCAT> ;
	rdfs:label "SDTM Variable"^^xsd:string ;
	bd:core "???"^^xsd:string ;
	bd:datatype "???"^^xsd:string ;
	bd:defaultCommentSet "false"^^xsd:string ;
	bd:defaultComment ""^^xsd:string ;
	bd:length "NN"^^xsd:string ;
	bd:format "???"^^xsd:string ;
	bd:notes "???"^^xsd:string ;
	bd:origin ""^^xsd:string ;
	bd:role "???"^^xsd:string ;
	bd:supplementalQualifier "false"^^xsd:string ;
	bd:used "false"^^xsd:string ;
.
:V-EGSEQ
	rdf:type bd:Variable ;
	bd:basedOn <http://rdf.cdisc.org/std/sdtmig-3-1-2#Column.EG.EGSEQ> ;
	rdfs:label "SDTM Variable"^^xsd:string ;
	bd:core "???"^^xsd:string ;
	bd:datatype "???"^^xsd:string ;
	bd:defaultCommentSet "false"^^xsd:string ;
	bd:defaultComment ""^^xsd:string ;
	bd:length "NN"^^xsd:string ;
	bd:format "???"^^xsd:string ;
	bd:notes "???"^^xsd:string ;
	bd:origin ""^^xsd:string ;
	bd:role "???"^^xsd:string ;
	bd:supplementalQualifier "false"^^xsd:string ;
	bd:used "false"^^xsd:string ;
.
:V-EGSPID
	rdf:type bd:Variable ;
	bd:basedOn <http://rdf.cdisc.org/std/sdtmig-3-1-2#Column.EG.EGSPID> ;
	rdfs:label "SDTM Variable"^^xsd:string ;
	bd:core "???"^^xsd:string ;
	bd:datatype "???"^^xsd:string ;
	bd:defaultCommentSet "false"^^xsd:string ;
	bd:defaultComment ""^^xsd:string ;
	bd:length "NN"^^xsd:string ;
	bd:format "???"^^xsd:string ;
	bd:notes "???"^^xsd:string ;
	bd:origin ""^^xsd:string ;
	bd:role "???"^^xsd:string ;
	bd:supplementalQualifier "false"^^xsd:string ;
	bd:used "false"^^xsd:string ;
.
:V-EGSTAT
	rdf:type bd:Variable ;
	bd:basedOn <http://rdf.cdisc.org/std/sdtmig-3-1-2#Column.EG.EGSTAT> ;
	rdfs:label "SDTM Variable"^^xsd:string ;
	bd:core "???"^^xsd:string ;
	bd:datatype "???"^^xsd:string ;
	bd:defaultCommentSet "false"^^xsd:string ;
	bd:defaultComment ""^^xsd:string ;
	bd:length "NN"^^xsd:string ;
	bd:format "???"^^xsd:string ;
	bd:notes "???"^^xsd:string ;
	bd:origin ""^^xsd:string ;
	bd:role "???"^^xsd:string ;
	bd:supplementalQualifier "false"^^xsd:string ;
	bd:used "false"^^xsd:string ;
.
:V-EGSTRESC
	rdf:type bd:Variable ;
	bd:basedOn <http://rdf.cdisc.org/std/sdtmig-3-1-2#Column.EG.EGSTRESC> ;
	rdfs:label "SDTM Variable"^^xsd:string ;
	bd:core "???"^^xsd:string ;
	bd:datatype "???"^^xsd:string ;
	bd:defaultCommentSet "false"^^xsd:string ;
	bd:defaultComment ""^^xsd:string ;
	bd:length "NN"^^xsd:string ;
	bd:format "???"^^xsd:string ;
	bd:notes "???"^^xsd:string ;
	bd:origin ""^^xsd:string ;
	bd:role "???"^^xsd:string ;
	bd:supplementalQualifier "false"^^xsd:string ;
	bd:used "false"^^xsd:string ;
.
:V-EGSTRESN
	rdf:type bd:Variable ;
	bd:basedOn <http://rdf.cdisc.org/std/sdtmig-3-1-2#Column.EG.EGSTRESN> ;
	rdfs:label "SDTM Variable"^^xsd:string ;
	bd:core "???"^^xsd:string ;
	bd:datatype "???"^^xsd:string ;
	bd:defaultCommentSet "false"^^xsd:string ;
	bd:defaultComment ""^^xsd:string ;
	bd:length "NN"^^xsd:string ;
	bd:format "???"^^xsd:string ;
	bd:notes "???"^^xsd:string ;
	bd:origin ""^^xsd:string ;
	bd:role "???"^^xsd:string ;
	bd:supplementalQualifier "false"^^xsd:string ;
	bd:used "false"^^xsd:string ;
.
:V-EGSTRESU
	rdf:type bd:Variable ;
	bd:basedOn <http://rdf.cdisc.org/std/sdtmig-3-1-2#Column.EG.EGSTRESU> ;
	rdfs:label "SDTM Variable"^^xsd:string ;
	bd:core "???"^^xsd:string ;
	bd:datatype "???"^^xsd:string ;
	bd:defaultCommentSet "false"^^xsd:string ;
	bd:defaultComment ""^^xsd:string ;
	bd:length "NN"^^xsd:string ;
	bd:format "???"^^xsd:string ;
	bd:notes "???"^^xsd:string ;
	bd:origin ""^^xsd:string ;
	bd:role "???"^^xsd:string ;
	bd:supplementalQualifier "false"^^xsd:string ;
	bd:used "false"^^xsd:string ;
.
:V-EGTEST
	rdf:type bd:Variable ;
	bd:basedOn <http://rdf.cdisc.org/std/sdtmig-3-1-2#Column.EG.EGTEST> ;
	rdfs:label "SDTM Variable"^^xsd:string ;
	bd:core "???"^^xsd:string ;
	bd:datatype "???"^^xsd:string ;
	bd:defaultCommentSet "false"^^xsd:string ;
	bd:defaultComment ""^^xsd:string ;
	bd:length "NN"^^xsd:string ;
	bd:format "???"^^xsd:string ;
	bd:notes "???"^^xsd:string ;
	bd:origin ""^^xsd:string ;
	bd:role "???"^^xsd:string ;
	bd:supplementalQualifier "false"^^xsd:string ;
	bd:used "false"^^xsd:string ;
.
:V-EGTESTCD
	rdf:type bd:Variable ;
	bd:basedOn <http://rdf.cdisc.org/std/sdtmig-3-1-2#Column.EG.EGTESTCD> ;
	rdfs:label "SDTM Variable"^^xsd:string ;
	bd:core "???"^^xsd:string ;
	bd:datatype "???"^^xsd:string ;
	bd:defaultCommentSet "false"^^xsd:string ;
	bd:defaultComment ""^^xsd:string ;
	bd:length "NN"^^xsd:string ;
	bd:format "???"^^xsd:string ;
	bd:notes "???"^^xsd:string ;
	bd:origin ""^^xsd:string ;
	bd:role "???"^^xsd:string ;
	bd:supplementalQualifier "false"^^xsd:string ;
	bd:used "false"^^xsd:string ;
.
:V-EGTPT
	rdf:type bd:Variable ;
	bd:basedOn <http://rdf.cdisc.org/std/sdtmig-3-1-2#Column.EG.EGTPT> ;
	rdfs:label "SDTM Variable"^^xsd:string ;
	bd:core "???"^^xsd:string ;
	bd:datatype "???"^^xsd:string ;
	bd:defaultCommentSet "false"^^xsd:string ;
	bd:defaultComment ""^^xsd:string ;
	bd:length "NN"^^xsd:string ;
	bd:format "???"^^xsd:string ;
	bd:notes "???"^^xsd:string ;
	bd:origin ""^^xsd:string ;
	bd:role "???"^^xsd:string ;
	bd:supplementalQualifier "false"^^xsd:string ;
	bd:used "false"^^xsd:string ;
.
:V-EGTPTNUM
	rdf:type bd:Variable ;
	bd:basedOn <http://rdf.cdisc.org/std/sdtmig-3-1-2#Column.EG.EGTPTNUM> ;
	rdfs:label "SDTM Variable"^^xsd:string ;
	bd:core "???"^^xsd:string ;
	bd:datatype "???"^^xsd:string ;
	bd:defaultCommentSet "false"^^xsd:string ;
	bd:defaultComment ""^^xsd:string ;
	bd:length "NN"^^xsd:string ;
	bd:format "???"^^xsd:string ;
	bd:notes "???"^^xsd:string ;
	bd:origin ""^^xsd:string ;
	bd:role "???"^^xsd:string ;
	bd:supplementalQualifier "false"^^xsd:string ;
	bd:used "false"^^xsd:string ;
.
:V-EGTPTREF
	rdf:type bd:Variable ;
	bd:basedOn <http://rdf.cdisc.org/std/sdtmig-3-1-2#Column.EG.EGTPTREF> ;
	rdfs:label "SDTM Variable"^^xsd:string ;
	bd:core "???"^^xsd:string ;
	bd:datatype "???"^^xsd:string ;
	bd:defaultCommentSet "false"^^xsd:string ;
	bd:defaultComment ""^^xsd:string ;
	bd:length "NN"^^xsd:string ;
	bd:format "???"^^xsd:string ;
	bd:notes "???"^^xsd:string ;
	bd:origin ""^^xsd:string ;
	bd:role "???"^^xsd:string ;
	bd:supplementalQualifier "false"^^xsd:string ;
	bd:used "false"^^xsd:string ;
.
:V-EGXFN
	rdf:type bd:Variable ;
	bd:basedOn <http://rdf.cdisc.org/std/sdtmig-3-1-2#Column.EG.EGXFN> ;
	rdfs:label "SDTM Variable"^^xsd:string ;
	bd:core "???"^^xsd:string ;
	bd:datatype "???"^^xsd:string ;
	bd:defaultCommentSet "false"^^xsd:string ;
	bd:defaultComment ""^^xsd:string ;
	bd:length "NN"^^xsd:string ;
	bd:format "???"^^xsd:string ;
	bd:notes "???"^^xsd:string ;
	bd:origin ""^^xsd:string ;
	bd:role "???"^^xsd:string ;
	bd:supplementalQualifier "false"^^xsd:string ;
	bd:used "false"^^xsd:string ;
.
:V-STUDYID
	rdf:type bd:Variable ;
	bd:basedOn <http://rdf.cdisc.org/std/sdtmig-3-1-2#Column.EG.STUDYID> ;
	rdfs:label "SDTM Variable"^^xsd:string ;
	bd:core "???"^^xsd:string ;
	bd:datatype "???"^^xsd:string ;
	bd:defaultCommentSet "false"^^xsd:string ;
	bd:defaultComment ""^^xsd:string ;
	bd:length "NN"^^xsd:string ;
	bd:format "???"^^xsd:string ;
	bd:notes "???"^^xsd:string ;
	bd:origin ""^^xsd:string ;
	bd:role "???"^^xsd:string ;
	bd:supplementalQualifier "false"^^xsd:string ;
	bd:used "false"^^xsd:string ;
.
:V-USUBJID
	rdf:type bd:Variable ;
	bd:basedOn <http://rdf.cdisc.org/std/sdtmig-3-1-2#Column.EG.USUBJID> ;
	rdfs:label "SDTM Variable"^^xsd:string ;
	bd:core "???"^^xsd:string ;
	bd:datatype "???"^^xsd:string ;
	bd:defaultCommentSet "false"^^xsd:string ;
	bd:defaultComment ""^^xsd:string ;
	bd:length "NN"^^xsd:string ;
	bd:format "???"^^xsd:string ;
	bd:notes "???"^^xsd:string ;
	bd:origin ""^^xsd:string ;
	bd:role "???"^^xsd:string ;
	bd:supplementalQualifier "false"^^xsd:string ;
	bd:used "false"^^xsd:string ;
.
:V-VISIT
	rdf:type bd:Variable ;
	bd:basedOn <http://rdf.cdisc.org/std/sdtmig-3-1-2#Column.EG.VISIT> ;
	rdfs:label "SDTM Variable"^^xsd:string ;
	bd:core "???"^^xsd:string ;
	bd:datatype "???"^^xsd:string ;
	bd:defaultCommentSet "false"^^xsd:string ;
	bd:defaultComment ""^^xsd:string ;
	bd:length "NN"^^xsd:string ;
	bd:format "???"^^xsd:string ;
	bd:notes "???"^^xsd:string ;
	bd:origin ""^^xsd:string ;
	bd:role "???"^^xsd:string ;
	bd:supplementalQualifier "false"^^xsd:string ;
	bd:used "false"^^xsd:string ;
.
:V-VISITDY
	rdf:type bd:Variable ;
	bd:basedOn <http://rdf.cdisc.org/std/sdtmig-3-1-2#Column.EG.VISITDY> ;
	rdfs:label "SDTM Variable"^^xsd:string ;
	bd:core "???"^^xsd:string ;
	bd:datatype "???"^^xsd:string ;
	bd:defaultCommentSet "false"^^xsd:string ;
	bd:defaultComment ""^^xsd:string ;
	bd:length "NN"^^xsd:string ;
	bd:format "???"^^xsd:string ;
	bd:notes "???"^^xsd:string ;
	bd:origin ""^^xsd:string ;
	bd:role "???"^^xsd:string ;
	bd:supplementalQualifier "false"^^xsd:string ;
	bd:used "false"^^xsd:string ;
.
:V-VISITNUM
	rdf:type bd:Variable ;
	bd:basedOn <http://rdf.cdisc.org/std/sdtmig-3-1-2#Column.EG.VISITNUM> ;
	rdfs:label "SDTM Variable"^^xsd:string ;
	bd:core "???"^^xsd:string ;
	bd:datatype "???"^^xsd:string ;
	bd:defaultCommentSet "false"^^xsd:string ;
	bd:defaultComment ""^^xsd:string ;
	bd:length "NN"^^xsd:string ;
	bd:format "???"^^xsd:string ;
	bd:notes "???"^^xsd:string ;
	bd:origin ""^^xsd:string ;
	bd:role "???"^^xsd:string ;
	bd:supplementalQualifier "false"^^xsd:string ;
	bd:used "false"^^xsd:string ;
.
:V-DOMAIN
	rdf:type bd:Variable ;
	bd:basedOn <http://rdf.cdisc.org/std/sdtmig-3-1-2#Column.EX.DOMAIN> ;
	rdfs:label "SDTM Variable"^^xsd:string ;
	bd:core "???"^^xsd:string ;
	bd:datatype "???"^^xsd:string ;
	bd:defaultCommentSet "false"^^xsd:string ;
	bd:defaultComment ""^^xsd:string ;
	bd:length "NN"^^xsd:string ;
	bd:format "???"^^xsd:string ;
	bd:notes "???"^^xsd:string ;
	bd:origin ""^^xsd:string ;
	bd:role "???"^^xsd:string ;
	bd:supplementalQualifier "false"^^xsd:string ;
	bd:used "false"^^xsd:string ;
.
:V-EPOCH
	rdf:type bd:Variable ;
	bd:basedOn <http://rdf.cdisc.org/std/sdtmig-3-1-2#Column.EX.EPOCH> ;
	rdfs:label "SDTM Variable"^^xsd:string ;
	bd:core "???"^^xsd:string ;
	bd:datatype "???"^^xsd:string ;
	bd:defaultCommentSet "false"^^xsd:string ;
	bd:defaultComment ""^^xsd:string ;
	bd:length "NN"^^xsd:string ;
	bd:format "???"^^xsd:string ;
	bd:notes "???"^^xsd:string ;
	bd:origin ""^^xsd:string ;
	bd:role "???"^^xsd:string ;
	bd:supplementalQualifier "false"^^xsd:string ;
	bd:used "false"^^xsd:string ;
.
:V-EXADJ
	rdf:type bd:Variable ;
	bd:basedOn <http://rdf.cdisc.org/std/sdtmig-3-1-2#Column.EX.EXADJ> ;
	rdfs:label "SDTM Variable"^^xsd:string ;
	bd:core "???"^^xsd:string ;
	bd:datatype "???"^^xsd:string ;
	bd:defaultCommentSet "false"^^xsd:string ;
	bd:defaultComment ""^^xsd:string ;
	bd:length "NN"^^xsd:string ;
	bd:format "???"^^xsd:string ;
	bd:notes "???"^^xsd:string ;
	bd:origin ""^^xsd:string ;
	bd:role "???"^^xsd:string ;
	bd:supplementalQualifier "false"^^xsd:string ;
	bd:used "false"^^xsd:string ;
.
:V-EXCAT
	rdf:type bd:Variable ;
	bd:basedOn <http://rdf.cdisc.org/std/sdtmig-3-1-2#Column.EX.EXCAT> ;
	rdfs:label "SDTM Variable"^^xsd:string ;
	bd:core "???"^^xsd:string ;
	bd:datatype "???"^^xsd:string ;
	bd:defaultCommentSet "false"^^xsd:string ;
	bd:defaultComment ""^^xsd:string ;
	bd:length "NN"^^xsd:string ;
	bd:format "???"^^xsd:string ;
	bd:notes "???"^^xsd:string ;
	bd:origin ""^^xsd:string ;
	bd:role "???"^^xsd:string ;
	bd:supplementalQualifier "false"^^xsd:string ;
	bd:used "false"^^xsd:string ;
.
:V-EXDOSE
	rdf:type bd:Variable ;
	bd:basedOn <http://rdf.cdisc.org/std/sdtmig-3-1-2#Column.EX.EXDOSE> ;
	rdfs:label "SDTM Variable"^^xsd:string ;
	bd:core "???"^^xsd:string ;
	bd:datatype "???"^^xsd:string ;
	bd:defaultCommentSet "false"^^xsd:string ;
	bd:defaultComment ""^^xsd:string ;
	bd:length "NN"^^xsd:string ;
	bd:format "???"^^xsd:string ;
	bd:notes "???"^^xsd:string ;
	bd:origin ""^^xsd:string ;
	bd:role "???"^^xsd:string ;
	bd:supplementalQualifier "false"^^xsd:string ;
	bd:used "false"^^xsd:string ;
.
:V-EXDOSFRM
	rdf:type bd:Variable ;
	bd:basedOn <http://rdf.cdisc.org/std/sdtmig-3-1-2#Column.EX.EXDOSFRM> ;
	rdfs:label "SDTM Variable"^^xsd:string ;
	bd:core "???"^^xsd:string ;
	bd:datatype "???"^^xsd:string ;
	bd:defaultCommentSet "false"^^xsd:string ;
	bd:defaultComment ""^^xsd:string ;
	bd:length "NN"^^xsd:string ;
	bd:format "???"^^xsd:string ;
	bd:notes "???"^^xsd:string ;
	bd:origin ""^^xsd:string ;
	bd:role "???"^^xsd:string ;
	bd:supplementalQualifier "false"^^xsd:string ;
	bd:used "false"^^xsd:string ;
.
:V-EXDOSFRQ
	rdf:type bd:Variable ;
	bd:basedOn <http://rdf.cdisc.org/std/sdtmig-3-1-2#Column.EX.EXDOSFRQ> ;
	rdfs:label "SDTM Variable"^^xsd:string ;
	bd:core "???"^^xsd:string ;
	bd:datatype "???"^^xsd:string ;
	bd:defaultCommentSet "false"^^xsd:string ;
	bd:defaultComment ""^^xsd:string ;
	bd:length "NN"^^xsd:string ;
	bd:format "???"^^xsd:string ;
	bd:notes "???"^^xsd:string ;
	bd:origin ""^^xsd:string ;
	bd:role "???"^^xsd:string ;
	bd:supplementalQualifier "false"^^xsd:string ;
	bd:used "false"^^xsd:string ;
.
:V-EXDOSRGM
	rdf:type bd:Variable ;
	bd:basedOn <http://rdf.cdisc.org/std/sdtmig-3-1-2#Column.EX.EXDOSRGM> ;
	rdfs:label "SDTM Variable"^^xsd:string ;
	bd:core "???"^^xsd:string ;
	bd:datatype "???"^^xsd:string ;
	bd:defaultCommentSet "false"^^xsd:string ;
	bd:defaultComment ""^^xsd:string ;
	bd:length "NN"^^xsd:string ;
	bd:format "???"^^xsd:string ;
	bd:notes "???"^^xsd:string ;
	bd:origin ""^^xsd:string ;
	bd:role "???"^^xsd:string ;
	bd:supplementalQualifier "false"^^xsd:string ;
	bd:used "false"^^xsd:string ;
.
:V-EXDOSTOT
	rdf:type bd:Variable ;
	bd:basedOn <http://rdf.cdisc.org/std/sdtmig-3-1-2#Column.EX.EXDOSTOT> ;
	rdfs:label "SDTM Variable"^^xsd:string ;
	bd:core "???"^^xsd:string ;
	bd:datatype "???"^^xsd:string ;
	bd:defaultCommentSet "false"^^xsd:string ;
	bd:defaultComment ""^^xsd:string ;
	bd:length "NN"^^xsd:string ;
	bd:format "???"^^xsd:string ;
	bd:notes "???"^^xsd:string ;
	bd:origin ""^^xsd:string ;
	bd:role "???"^^xsd:string ;
	bd:supplementalQualifier "false"^^xsd:string ;
	bd:used "false"^^xsd:string ;
.
:V-EXDOSTXT
	rdf:type bd:Variable ;
	bd:basedOn <http://rdf.cdisc.org/std/sdtmig-3-1-2#Column.EX.EXDOSTXT> ;
	rdfs:label "SDTM Variable"^^xsd:string ;
	bd:core "???"^^xsd:string ;
	bd:datatype "???"^^xsd:string ;
	bd:defaultCommentSet "false"^^xsd:string ;
	bd:defaultComment ""^^xsd:string ;
	bd:length "NN"^^xsd:string ;
	bd:format "???"^^xsd:string ;
	bd:notes "???"^^xsd:string ;
	bd:origin ""^^xsd:string ;
	bd:role "???"^^xsd:string ;
	bd:supplementalQualifier "false"^^xsd:string ;
	bd:used "false"^^xsd:string ;
.
:V-EXDOSU
	rdf:type bd:Variable ;
	bd:basedOn <http://rdf.cdisc.org/std/sdtmig-3-1-2#Column.EX.EXDOSU> ;
	rdfs:label "SDTM Variable"^^xsd:string ;
	bd:core "???"^^xsd:string ;
	bd:datatype "???"^^xsd:string ;
	bd:defaultCommentSet "false"^^xsd:string ;
	bd:defaultComment ""^^xsd:string ;
	bd:length "NN"^^xsd:string ;
	bd:format "???"^^xsd:string ;
	bd:notes "???"^^xsd:string ;
	bd:origin ""^^xsd:string ;
	bd:role "???"^^xsd:string ;
	bd:supplementalQualifier "false"^^xsd:string ;
	bd:used "false"^^xsd:string ;
.
:V-EXDUR
	rdf:type bd:Variable ;
	bd:basedOn <http://rdf.cdisc.org/std/sdtmig-3-1-2#Column.EX.EXDUR> ;
	rdfs:label "SDTM Variable"^^xsd:string ;
	bd:core "???"^^xsd:string ;
	bd:datatype "???"^^xsd:string ;
	bd:defaultCommentSet "false"^^xsd:string ;
	bd:defaultComment ""^^xsd:string ;
	bd:length "NN"^^xsd:string ;
	bd:format "???"^^xsd:string ;
	bd:notes "???"^^xsd:string ;
	bd:origin ""^^xsd:string ;
	bd:role "???"^^xsd:string ;
	bd:supplementalQualifier "false"^^xsd:string ;
	bd:used "false"^^xsd:string ;
.
:V-EXELTM
	rdf:type bd:Variable ;
	bd:basedOn <http://rdf.cdisc.org/std/sdtmig-3-1-2#Column.EX.EXELTM> ;
	rdfs:label "SDTM Variable"^^xsd:string ;
	bd:core "???"^^xsd:string ;
	bd:datatype "???"^^xsd:string ;
	bd:defaultCommentSet "false"^^xsd:string ;
	bd:defaultComment ""^^xsd:string ;
	bd:length "NN"^^xsd:string ;
	bd:format "???"^^xsd:string ;
	bd:notes "???"^^xsd:string ;
	bd:origin ""^^xsd:string ;
	bd:role "???"^^xsd:string ;
	bd:supplementalQualifier "false"^^xsd:string ;
	bd:used "false"^^xsd:string ;
.
:V-EXENDTC
	rdf:type bd:Variable ;
	bd:basedOn <http://rdf.cdisc.org/std/sdtmig-3-1-2#Column.EX.EXENDTC> ;
	rdfs:label "SDTM Variable"^^xsd:string ;
	bd:core "???"^^xsd:string ;
	bd:datatype "???"^^xsd:string ;
	bd:defaultCommentSet "false"^^xsd:string ;
	bd:defaultComment ""^^xsd:string ;
	bd:length "NN"^^xsd:string ;
	bd:format "???"^^xsd:string ;
	bd:notes "???"^^xsd:string ;
	bd:origin ""^^xsd:string ;
	bd:role "???"^^xsd:string ;
	bd:supplementalQualifier "false"^^xsd:string ;
	bd:used "false"^^xsd:string ;
.
:V-EXENDY
	rdf:type bd:Variable ;
	bd:basedOn <http://rdf.cdisc.org/std/sdtmig-3-1-2#Column.EX.EXENDY> ;
	rdfs:label "SDTM Variable"^^xsd:string ;
	bd:core "???"^^xsd:string ;
	bd:datatype "???"^^xsd:string ;
	bd:defaultCommentSet "false"^^xsd:string ;
	bd:defaultComment ""^^xsd:string ;
	bd:length "NN"^^xsd:string ;
	bd:format "???"^^xsd:string ;
	bd:notes "???"^^xsd:string ;
	bd:origin ""^^xsd:string ;
	bd:role "???"^^xsd:string ;
	bd:supplementalQualifier "false"^^xsd:string ;
	bd:used "false"^^xsd:string ;
.
:V-EXGRPID
	rdf:type bd:Variable ;
	bd:basedOn <http://rdf.cdisc.org/std/sdtmig-3-1-2#Column.EX.EXGRPID> ;
	rdfs:label "SDTM Variable"^^xsd:string ;
	bd:core "???"^^xsd:string ;
	bd:datatype "???"^^xsd:string ;
	bd:defaultCommentSet "false"^^xsd:string ;
	bd:defaultComment ""^^xsd:string ;
	bd:length "NN"^^xsd:string ;
	bd:format "???"^^xsd:string ;
	bd:notes "???"^^xsd:string ;
	bd:origin ""^^xsd:string ;
	bd:role "???"^^xsd:string ;
	bd:supplementalQualifier "false"^^xsd:string ;
	bd:used "false"^^xsd:string ;
.
:V-EXLOC
	rdf:type bd:Variable ;
	bd:basedOn <http://rdf.cdisc.org/std/sdtmig-3-1-2#Column.EX.EXLOC> ;
	rdfs:label "SDTM Variable"^^xsd:string ;
	bd:core "???"^^xsd:string ;
	bd:datatype "???"^^xsd:string ;
	bd:defaultCommentSet "false"^^xsd:string ;
	bd:defaultComment ""^^xsd:string ;
	bd:length "NN"^^xsd:string ;
	bd:format "???"^^xsd:string ;
	bd:notes "???"^^xsd:string ;
	bd:origin ""^^xsd:string ;
	bd:role "???"^^xsd:string ;
	bd:supplementalQualifier "false"^^xsd:string ;
	bd:used "false"^^xsd:string ;
.
:V-EXLOT
	rdf:type bd:Variable ;
	bd:basedOn <http://rdf.cdisc.org/std/sdtmig-3-1-2#Column.EX.EXLOT> ;
	rdfs:label "SDTM Variable"^^xsd:string ;
	bd:core "???"^^xsd:string ;
	bd:datatype "???"^^xsd:string ;
	bd:defaultCommentSet "false"^^xsd:string ;
	bd:defaultComment ""^^xsd:string ;
	bd:length "NN"^^xsd:string ;
	bd:format "???"^^xsd:string ;
	bd:notes "???"^^xsd:string ;
	bd:origin ""^^xsd:string ;
	bd:role "???"^^xsd:string ;
	bd:supplementalQualifier "false"^^xsd:string ;
	bd:used "false"^^xsd:string ;
.
:V-EXROUTE
	rdf:type bd:Variable ;
	bd:basedOn <http://rdf.cdisc.org/std/sdtmig-3-1-2#Column.EX.EXROUTE> ;
	rdfs:label "SDTM Variable"^^xsd:string ;
	bd:core "???"^^xsd:string ;
	bd:datatype "???"^^xsd:string ;
	bd:defaultCommentSet "false"^^xsd:string ;
	bd:defaultComment ""^^xsd:string ;
	bd:length "NN"^^xsd:string ;
	bd:format "???"^^xsd:string ;
	bd:notes "???"^^xsd:string ;
	bd:origin ""^^xsd:string ;
	bd:role "???"^^xsd:string ;
	bd:supplementalQualifier "false"^^xsd:string ;
	bd:used "false"^^xsd:string ;
.
:V-EXSCAT
	rdf:type bd:Variable ;
	bd:basedOn <http://rdf.cdisc.org/std/sdtmig-3-1-2#Column.EX.EXSCAT> ;
	rdfs:label "SDTM Variable"^^xsd:string ;
	bd:core "???"^^xsd:string ;
	bd:datatype "???"^^xsd:string ;
	bd:defaultCommentSet "false"^^xsd:string ;
	bd:defaultComment ""^^xsd:string ;
	bd:length "NN"^^xsd:string ;
	bd:format "???"^^xsd:string ;
	bd:notes "???"^^xsd:string ;
	bd:origin ""^^xsd:string ;
	bd:role "???"^^xsd:string ;
	bd:supplementalQualifier "false"^^xsd:string ;
	bd:used "false"^^xsd:string ;
.
:V-EXSEQ
	rdf:type bd:Variable ;
	bd:basedOn <http://rdf.cdisc.org/std/sdtmig-3-1-2#Column.EX.EXSEQ> ;
	rdfs:label "SDTM Variable"^^xsd:string ;
	bd:core "???"^^xsd:string ;
	bd:datatype "???"^^xsd:string ;
	bd:defaultCommentSet "false"^^xsd:string ;
	bd:defaultComment ""^^xsd:string ;
	bd:length "NN"^^xsd:string ;
	bd:format "???"^^xsd:string ;
	bd:notes "???"^^xsd:string ;
	bd:origin ""^^xsd:string ;
	bd:role "???"^^xsd:string ;
	bd:supplementalQualifier "false"^^xsd:string ;
	bd:used "false"^^xsd:string ;
.
:V-EXSPID
	rdf:type bd:Variable ;
	bd:basedOn <http://rdf.cdisc.org/std/sdtmig-3-1-2#Column.EX.EXSPID> ;
	rdfs:label "SDTM Variable"^^xsd:string ;
	bd:core "???"^^xsd:string ;
	bd:datatype "???"^^xsd:string ;
	bd:defaultCommentSet "false"^^xsd:string ;
	bd:defaultComment ""^^xsd:string ;
	bd:length "NN"^^xsd:string ;
	bd:format "???"^^xsd:string ;
	bd:notes "???"^^xsd:string ;
	bd:origin ""^^xsd:string ;
	bd:role "???"^^xsd:string ;
	bd:supplementalQualifier "false"^^xsd:string ;
	bd:used "false"^^xsd:string ;
.
:V-EXSTDTC
	rdf:type bd:Variable ;
	bd:basedOn <http://rdf.cdisc.org/std/sdtmig-3-1-2#Column.EX.EXSTDTC> ;
	rdfs:label "SDTM Variable"^^xsd:string ;
	bd:core "???"^^xsd:string ;
	bd:datatype "???"^^xsd:string ;
	bd:defaultCommentSet "false"^^xsd:string ;
	bd:defaultComment ""^^xsd:string ;
	bd:length "NN"^^xsd:string ;
	bd:format "???"^^xsd:string ;
	bd:notes "???"^^xsd:string ;
	bd:origin ""^^xsd:string ;
	bd:role "???"^^xsd:string ;
	bd:supplementalQualifier "false"^^xsd:string ;
	bd:used "false"^^xsd:string ;
.
:V-EXSTDY
	rdf:type bd:Variable ;
	bd:basedOn <http://rdf.cdisc.org/std/sdtmig-3-1-2#Column.EX.EXSTDY> ;
	rdfs:label "SDTM Variable"^^xsd:string ;
	bd:core "???"^^xsd:string ;
	bd:datatype "???"^^xsd:string ;
	bd:defaultCommentSet "false"^^xsd:string ;
	bd:defaultComment ""^^xsd:string ;
	bd:length "NN"^^xsd:string ;
	bd:format "???"^^xsd:string ;
	bd:notes "???"^^xsd:string ;
	bd:origin ""^^xsd:string ;
	bd:role "???"^^xsd:string ;
	bd:supplementalQualifier "false"^^xsd:string ;
	bd:used "false"^^xsd:string ;
.
:V-EXTPT
	rdf:type bd:Variable ;
	bd:basedOn <http://rdf.cdisc.org/std/sdtmig-3-1-2#Column.EX.EXTPT> ;
	rdfs:label "SDTM Variable"^^xsd:string ;
	bd:core "???"^^xsd:string ;
	bd:datatype "???"^^xsd:string ;
	bd:defaultCommentSet "false"^^xsd:string ;
	bd:defaultComment ""^^xsd:string ;
	bd:length "NN"^^xsd:string ;
	bd:format "???"^^xsd:string ;
	bd:notes "???"^^xsd:string ;
	bd:origin ""^^xsd:string ;
	bd:role "???"^^xsd:string ;
	bd:supplementalQualifier "false"^^xsd:string ;
	bd:used "false"^^xsd:string ;
.
:V-EXTPTNUM
	rdf:type bd:Variable ;
	bd:basedOn <http://rdf.cdisc.org/std/sdtmig-3-1-2#Column.EX.EXTPTNUM> ;
	rdfs:label "SDTM Variable"^^xsd:string ;
	bd:core "???"^^xsd:string ;
	bd:datatype "???"^^xsd:string ;
	bd:defaultCommentSet "false"^^xsd:string ;
	bd:defaultComment ""^^xsd:string ;
	bd:length "NN"^^xsd:string ;
	bd:format "???"^^xsd:string ;
	bd:notes "???"^^xsd:string ;
	bd:origin ""^^xsd:string ;
	bd:role "???"^^xsd:string ;
	bd:supplementalQualifier "false"^^xsd:string ;
	bd:used "false"^^xsd:string ;
.
:V-EXTPTREF
	rdf:type bd:Variable ;
	bd:basedOn <http://rdf.cdisc.org/std/sdtmig-3-1-2#Column.EX.EXTPTREF> ;
	rdfs:label "SDTM Variable"^^xsd:string ;
	bd:core "???"^^xsd:string ;
	bd:datatype "???"^^xsd:string ;
	bd:defaultCommentSet "false"^^xsd:string ;
	bd:defaultComment ""^^xsd:string ;
	bd:length "NN"^^xsd:string ;
	bd:format "???"^^xsd:string ;
	bd:notes "???"^^xsd:string ;
	bd:origin ""^^xsd:string ;
	bd:role "???"^^xsd:string ;
	bd:supplementalQualifier "false"^^xsd:string ;
	bd:used "false"^^xsd:string ;
.
:V-EXTRT
	rdf:type bd:Variable ;
	bd:basedOn <http://rdf.cdisc.org/std/sdtmig-3-1-2#Column.EX.EXTRT> ;
	rdfs:label "SDTM Variable"^^xsd:string ;
	bd:core "???"^^xsd:string ;
	bd:datatype "???"^^xsd:string ;
	bd:defaultCommentSet "false"^^xsd:string ;
	bd:defaultComment ""^^xsd:string ;
	bd:length "NN"^^xsd:string ;
	bd:format "???"^^xsd:string ;
	bd:notes "???"^^xsd:string ;
	bd:origin ""^^xsd:string ;
	bd:role "???"^^xsd:string ;
	bd:supplementalQualifier "false"^^xsd:string ;
	bd:used "false"^^xsd:string ;
.
:V-EXTRTV
	rdf:type bd:Variable ;
	bd:basedOn <http://rdf.cdisc.org/std/sdtmig-3-1-2#Column.EX.EXTRTV> ;
	rdfs:label "SDTM Variable"^^xsd:string ;
	bd:core "???"^^xsd:string ;
	bd:datatype "???"^^xsd:string ;
	bd:defaultCommentSet "false"^^xsd:string ;
	bd:defaultComment ""^^xsd:string ;
	bd:length "NN"^^xsd:string ;
	bd:format "???"^^xsd:string ;
	bd:notes "???"^^xsd:string ;
	bd:origin ""^^xsd:string ;
	bd:role "???"^^xsd:string ;
	bd:supplementalQualifier "false"^^xsd:string ;
	bd:used "false"^^xsd:string ;
.
:V-EXVAMT
	rdf:type bd:Variable ;
	bd:basedOn <http://rdf.cdisc.org/std/sdtmig-3-1-2#Column.EX.EXVAMT> ;
	rdfs:label "SDTM Variable"^^xsd:string ;
	bd:core "???"^^xsd:string ;
	bd:datatype "???"^^xsd:string ;
	bd:defaultCommentSet "false"^^xsd:string ;
	bd:defaultComment ""^^xsd:string ;
	bd:length "NN"^^xsd:string ;
	bd:format "???"^^xsd:string ;
	bd:notes "???"^^xsd:string ;
	bd:origin ""^^xsd:string ;
	bd:role "???"^^xsd:string ;
	bd:supplementalQualifier "false"^^xsd:string ;
	bd:used "false"^^xsd:string ;
.
:V-EXVAMTU
	rdf:type bd:Variable ;
	bd:basedOn <http://rdf.cdisc.org/std/sdtmig-3-1-2#Column.EX.EXVAMTU> ;
	rdfs:label "SDTM Variable"^^xsd:string ;
	bd:core "???"^^xsd:string ;
	bd:datatype "???"^^xsd:string ;
	bd:defaultCommentSet "false"^^xsd:string ;
	bd:defaultComment ""^^xsd:string ;
	bd:length "NN"^^xsd:string ;
	bd:format "???"^^xsd:string ;
	bd:notes "???"^^xsd:string ;
	bd:origin ""^^xsd:string ;
	bd:role "???"^^xsd:string ;
	bd:supplementalQualifier "false"^^xsd:string ;
	bd:used "false"^^xsd:string ;
.
:V-STUDYID
	rdf:type bd:Variable ;
	bd:basedOn <http://rdf.cdisc.org/std/sdtmig-3-1-2#Column.EX.STUDYID> ;
	rdfs:label "SDTM Variable"^^xsd:string ;
	bd:core "???"^^xsd:string ;
	bd:datatype "???"^^xsd:string ;
	bd:defaultCommentSet "false"^^xsd:string ;
	bd:defaultComment ""^^xsd:string ;
	bd:length "NN"^^xsd:string ;
	bd:format "???"^^xsd:string ;
	bd:notes "???"^^xsd:string ;
	bd:origin ""^^xsd:string ;
	bd:role "???"^^xsd:string ;
	bd:supplementalQualifier "false"^^xsd:string ;
	bd:used "false"^^xsd:string ;
.
:V-TAETORD
	rdf:type bd:Variable ;
	bd:basedOn <http://rdf.cdisc.org/std/sdtmig-3-1-2#Column.EX.TAETORD> ;
	rdfs:label "SDTM Variable"^^xsd:string ;
	bd:core "???"^^xsd:string ;
	bd:datatype "???"^^xsd:string ;
	bd:defaultCommentSet "false"^^xsd:string ;
	bd:defaultComment ""^^xsd:string ;
	bd:length "NN"^^xsd:string ;
	bd:format "???"^^xsd:string ;
	bd:notes "???"^^xsd:string ;
	bd:origin ""^^xsd:string ;
	bd:role "???"^^xsd:string ;
	bd:supplementalQualifier "false"^^xsd:string ;
	bd:used "false"^^xsd:string ;
.
:V-USUBJID
	rdf:type bd:Variable ;
	bd:basedOn <http://rdf.cdisc.org/std/sdtmig-3-1-2#Column.EX.USUBJID> ;
	rdfs:label "SDTM Variable"^^xsd:string ;
	bd:core "???"^^xsd:string ;
	bd:datatype "???"^^xsd:string ;
	bd:defaultCommentSet "false"^^xsd:string ;
	bd:defaultComment ""^^xsd:string ;
	bd:length "NN"^^xsd:string ;
	bd:format "???"^^xsd:string ;
	bd:notes "???"^^xsd:string ;
	bd:origin ""^^xsd:string ;
	bd:role "???"^^xsd:string ;
	bd:supplementalQualifier "false"^^xsd:string ;
	bd:used "false"^^xsd:string ;
.
:V-DOMAIN
	rdf:type bd:Variable ;
	bd:basedOn <http://rdf.cdisc.org/std/sdtmig-3-1-2#Column.FA.DOMAIN> ;
	rdfs:label "SDTM Variable"^^xsd:string ;
	bd:core "???"^^xsd:string ;
	bd:datatype "???"^^xsd:string ;
	bd:defaultCommentSet "false"^^xsd:string ;
	bd:defaultComment ""^^xsd:string ;
	bd:length "NN"^^xsd:string ;
	bd:format "???"^^xsd:string ;
	bd:notes "???"^^xsd:string ;
	bd:origin ""^^xsd:string ;
	bd:role "???"^^xsd:string ;
	bd:supplementalQualifier "false"^^xsd:string ;
	bd:used "false"^^xsd:string ;
.
:V-FABLFL
	rdf:type bd:Variable ;
	bd:basedOn <http://rdf.cdisc.org/std/sdtmig-3-1-2#Column.FA.FABLFL> ;
	rdfs:label "SDTM Variable"^^xsd:string ;
	bd:core "???"^^xsd:string ;
	bd:datatype "???"^^xsd:string ;
	bd:defaultCommentSet "false"^^xsd:string ;
	bd:defaultComment ""^^xsd:string ;
	bd:length "NN"^^xsd:string ;
	bd:format "???"^^xsd:string ;
	bd:notes "???"^^xsd:string ;
	bd:origin ""^^xsd:string ;
	bd:role "???"^^xsd:string ;
	bd:supplementalQualifier "false"^^xsd:string ;
	bd:used "false"^^xsd:string ;
.
:V-FACAT
	rdf:type bd:Variable ;
	bd:basedOn <http://rdf.cdisc.org/std/sdtmig-3-1-2#Column.FA.FACAT> ;
	rdfs:label "SDTM Variable"^^xsd:string ;
	bd:core "???"^^xsd:string ;
	bd:datatype "???"^^xsd:string ;
	bd:defaultCommentSet "false"^^xsd:string ;
	bd:defaultComment ""^^xsd:string ;
	bd:length "NN"^^xsd:string ;
	bd:format "???"^^xsd:string ;
	bd:notes "???"^^xsd:string ;
	bd:origin ""^^xsd:string ;
	bd:role "???"^^xsd:string ;
	bd:supplementalQualifier "false"^^xsd:string ;
	bd:used "false"^^xsd:string ;
.
:V-FADTC
	rdf:type bd:Variable ;
	bd:basedOn <http://rdf.cdisc.org/std/sdtmig-3-1-2#Column.FA.FADTC> ;
	rdfs:label "SDTM Variable"^^xsd:string ;
	bd:core "???"^^xsd:string ;
	bd:datatype "???"^^xsd:string ;
	bd:defaultCommentSet "false"^^xsd:string ;
	bd:defaultComment ""^^xsd:string ;
	bd:length "NN"^^xsd:string ;
	bd:format "???"^^xsd:string ;
	bd:notes "???"^^xsd:string ;
	bd:origin ""^^xsd:string ;
	bd:role "???"^^xsd:string ;
	bd:supplementalQualifier "false"^^xsd:string ;
	bd:used "false"^^xsd:string ;
.
:V-FADY
	rdf:type bd:Variable ;
	bd:basedOn <http://rdf.cdisc.org/std/sdtmig-3-1-2#Column.FA.FADY> ;
	rdfs:label "SDTM Variable"^^xsd:string ;
	bd:core "???"^^xsd:string ;
	bd:datatype "???"^^xsd:string ;
	bd:defaultCommentSet "false"^^xsd:string ;
	bd:defaultComment ""^^xsd:string ;
	bd:length "NN"^^xsd:string ;
	bd:format "???"^^xsd:string ;
	bd:notes "???"^^xsd:string ;
	bd:origin ""^^xsd:string ;
	bd:role "???"^^xsd:string ;
	bd:supplementalQualifier "false"^^xsd:string ;
	bd:used "false"^^xsd:string ;
.
:V-FAEVAL
	rdf:type bd:Variable ;
	bd:basedOn <http://rdf.cdisc.org/std/sdtmig-3-1-2#Column.FA.FAEVAL> ;
	rdfs:label "SDTM Variable"^^xsd:string ;
	bd:core "???"^^xsd:string ;
	bd:datatype "???"^^xsd:string ;
	bd:defaultCommentSet "false"^^xsd:string ;
	bd:defaultComment ""^^xsd:string ;
	bd:length "NN"^^xsd:string ;
	bd:format "???"^^xsd:string ;
	bd:notes "???"^^xsd:string ;
	bd:origin ""^^xsd:string ;
	bd:role "???"^^xsd:string ;
	bd:supplementalQualifier "false"^^xsd:string ;
	bd:used "false"^^xsd:string ;
.
:V-FAGRPID
	rdf:type bd:Variable ;
	bd:basedOn <http://rdf.cdisc.org/std/sdtmig-3-1-2#Column.FA.FAGRPID> ;
	rdfs:label "SDTM Variable"^^xsd:string ;
	bd:core "???"^^xsd:string ;
	bd:datatype "???"^^xsd:string ;
	bd:defaultCommentSet "false"^^xsd:string ;
	bd:defaultComment ""^^xsd:string ;
	bd:length "NN"^^xsd:string ;
	bd:format "???"^^xsd:string ;
	bd:notes "???"^^xsd:string ;
	bd:origin ""^^xsd:string ;
	bd:role "???"^^xsd:string ;
	bd:supplementalQualifier "false"^^xsd:string ;
	bd:used "false"^^xsd:string ;
.
:V-FALOC
	rdf:type bd:Variable ;
	bd:basedOn <http://rdf.cdisc.org/std/sdtmig-3-1-2#Column.FA.FALOC> ;
	rdfs:label "SDTM Variable"^^xsd:string ;
	bd:core "???"^^xsd:string ;
	bd:datatype "???"^^xsd:string ;
	bd:defaultCommentSet "false"^^xsd:string ;
	bd:defaultComment ""^^xsd:string ;
	bd:length "NN"^^xsd:string ;
	bd:format "???"^^xsd:string ;
	bd:notes "???"^^xsd:string ;
	bd:origin ""^^xsd:string ;
	bd:role "???"^^xsd:string ;
	bd:supplementalQualifier "false"^^xsd:string ;
	bd:used "false"^^xsd:string ;
.
:V-FAOBJ
	rdf:type bd:Variable ;
	bd:basedOn <http://rdf.cdisc.org/std/sdtmig-3-1-2#Column.FA.FAOBJ> ;
	rdfs:label "SDTM Variable"^^xsd:string ;
	bd:core "???"^^xsd:string ;
	bd:datatype "???"^^xsd:string ;
	bd:defaultCommentSet "false"^^xsd:string ;
	bd:defaultComment ""^^xsd:string ;
	bd:length "NN"^^xsd:string ;
	bd:format "???"^^xsd:string ;
	bd:notes "???"^^xsd:string ;
	bd:origin ""^^xsd:string ;
	bd:role "???"^^xsd:string ;
	bd:supplementalQualifier "false"^^xsd:string ;
	bd:used "false"^^xsd:string ;
.
:V-FAORRES
	rdf:type bd:Variable ;
	bd:basedOn <http://rdf.cdisc.org/std/sdtmig-3-1-2#Column.FA.FAORRES> ;
	rdfs:label "SDTM Variable"^^xsd:string ;
	bd:core "???"^^xsd:string ;
	bd:datatype "???"^^xsd:string ;
	bd:defaultCommentSet "false"^^xsd:string ;
	bd:defaultComment ""^^xsd:string ;
	bd:length "NN"^^xsd:string ;
	bd:format "???"^^xsd:string ;
	bd:notes "???"^^xsd:string ;
	bd:origin ""^^xsd:string ;
	bd:role "???"^^xsd:string ;
	bd:supplementalQualifier "false"^^xsd:string ;
	bd:used "false"^^xsd:string ;
.
:V-FAORRESU
	rdf:type bd:Variable ;
	bd:basedOn <http://rdf.cdisc.org/std/sdtmig-3-1-2#Column.FA.FAORRESU> ;
	rdfs:label "SDTM Variable"^^xsd:string ;
	bd:core "???"^^xsd:string ;
	bd:datatype "???"^^xsd:string ;
	bd:defaultCommentSet "false"^^xsd:string ;
	bd:defaultComment ""^^xsd:string ;
	bd:length "NN"^^xsd:string ;
	bd:format "???"^^xsd:string ;
	bd:notes "???"^^xsd:string ;
	bd:origin ""^^xsd:string ;
	bd:role "???"^^xsd:string ;
	bd:supplementalQualifier "false"^^xsd:string ;
	bd:used "false"^^xsd:string ;
.
:V-FAREASND
	rdf:type bd:Variable ;
	bd:basedOn <http://rdf.cdisc.org/std/sdtmig-3-1-2#Column.FA.FAREASND> ;
	rdfs:label "SDTM Variable"^^xsd:string ;
	bd:core "???"^^xsd:string ;
	bd:datatype "???"^^xsd:string ;
	bd:defaultCommentSet "false"^^xsd:string ;
	bd:defaultComment ""^^xsd:string ;
	bd:length "NN"^^xsd:string ;
	bd:format "???"^^xsd:string ;
	bd:notes "???"^^xsd:string ;
	bd:origin ""^^xsd:string ;
	bd:role "???"^^xsd:string ;
	bd:supplementalQualifier "false"^^xsd:string ;
	bd:used "false"^^xsd:string ;
.
:V-FASCAT
	rdf:type bd:Variable ;
	bd:basedOn <http://rdf.cdisc.org/std/sdtmig-3-1-2#Column.FA.FASCAT> ;
	rdfs:label "SDTM Variable"^^xsd:string ;
	bd:core "???"^^xsd:string ;
	bd:datatype "???"^^xsd:string ;
	bd:defaultCommentSet "false"^^xsd:string ;
	bd:defaultComment ""^^xsd:string ;
	bd:length "NN"^^xsd:string ;
	bd:format "???"^^xsd:string ;
	bd:notes "???"^^xsd:string ;
	bd:origin ""^^xsd:string ;
	bd:role "???"^^xsd:string ;
	bd:supplementalQualifier "false"^^xsd:string ;
	bd:used "false"^^xsd:string ;
.
:V-FASEQ
	rdf:type bd:Variable ;
	bd:basedOn <http://rdf.cdisc.org/std/sdtmig-3-1-2#Column.FA.FASEQ> ;
	rdfs:label "SDTM Variable"^^xsd:string ;
	bd:core "???"^^xsd:string ;
	bd:datatype "???"^^xsd:string ;
	bd:defaultCommentSet "false"^^xsd:string ;
	bd:defaultComment ""^^xsd:string ;
	bd:length "NN"^^xsd:string ;
	bd:format "???"^^xsd:string ;
	bd:notes "???"^^xsd:string ;
	bd:origin ""^^xsd:string ;
	bd:role "???"^^xsd:string ;
	bd:supplementalQualifier "false"^^xsd:string ;
	bd:used "false"^^xsd:string ;
.
:V-FASPID
	rdf:type bd:Variable ;
	bd:basedOn <http://rdf.cdisc.org/std/sdtmig-3-1-2#Column.FA.FASPID> ;
	rdfs:label "SDTM Variable"^^xsd:string ;
	bd:core "???"^^xsd:string ;
	bd:datatype "???"^^xsd:string ;
	bd:defaultCommentSet "false"^^xsd:string ;
	bd:defaultComment ""^^xsd:string ;
	bd:length "NN"^^xsd:string ;
	bd:format "???"^^xsd:string ;
	bd:notes "???"^^xsd:string ;
	bd:origin ""^^xsd:string ;
	bd:role "???"^^xsd:string ;
	bd:supplementalQualifier "false"^^xsd:string ;
	bd:used "false"^^xsd:string ;
.
:V-FASTAT
	rdf:type bd:Variable ;
	bd:basedOn <http://rdf.cdisc.org/std/sdtmig-3-1-2#Column.FA.FASTAT> ;
	rdfs:label "SDTM Variable"^^xsd:string ;
	bd:core "???"^^xsd:string ;
	bd:datatype "???"^^xsd:string ;
	bd:defaultCommentSet "false"^^xsd:string ;
	bd:defaultComment ""^^xsd:string ;
	bd:length "NN"^^xsd:string ;
	bd:format "???"^^xsd:string ;
	bd:notes "???"^^xsd:string ;
	bd:origin ""^^xsd:string ;
	bd:role "???"^^xsd:string ;
	bd:supplementalQualifier "false"^^xsd:string ;
	bd:used "false"^^xsd:string ;
.
:V-FASTRESC
	rdf:type bd:Variable ;
	bd:basedOn <http://rdf.cdisc.org/std/sdtmig-3-1-2#Column.FA.FASTRESC> ;
	rdfs:label "SDTM Variable"^^xsd:string ;
	bd:core "???"^^xsd:string ;
	bd:datatype "???"^^xsd:string ;
	bd:defaultCommentSet "false"^^xsd:string ;
	bd:defaultComment ""^^xsd:string ;
	bd:length "NN"^^xsd:string ;
	bd:format "???"^^xsd:string ;
	bd:notes "???"^^xsd:string ;
	bd:origin ""^^xsd:string ;
	bd:role "???"^^xsd:string ;
	bd:supplementalQualifier "false"^^xsd:string ;
	bd:used "false"^^xsd:string ;
.
:V-FASTRESN
	rdf:type bd:Variable ;
	bd:basedOn <http://rdf.cdisc.org/std/sdtmig-3-1-2#Column.FA.FASTRESN> ;
	rdfs:label "SDTM Variable"^^xsd:string ;
	bd:core "???"^^xsd:string ;
	bd:datatype "???"^^xsd:string ;
	bd:defaultCommentSet "false"^^xsd:string ;
	bd:defaultComment ""^^xsd:string ;
	bd:length "NN"^^xsd:string ;
	bd:format "???"^^xsd:string ;
	bd:notes "???"^^xsd:string ;
	bd:origin ""^^xsd:string ;
	bd:role "???"^^xsd:string ;
	bd:supplementalQualifier "false"^^xsd:string ;
	bd:used "false"^^xsd:string ;
.
:V-FASTRESU
	rdf:type bd:Variable ;
	bd:basedOn <http://rdf.cdisc.org/std/sdtmig-3-1-2#Column.FA.FASTRESU> ;
	rdfs:label "SDTM Variable"^^xsd:string ;
	bd:core "???"^^xsd:string ;
	bd:datatype "???"^^xsd:string ;
	bd:defaultCommentSet "false"^^xsd:string ;
	bd:defaultComment ""^^xsd:string ;
	bd:length "NN"^^xsd:string ;
	bd:format "???"^^xsd:string ;
	bd:notes "???"^^xsd:string ;
	bd:origin ""^^xsd:string ;
	bd:role "???"^^xsd:string ;
	bd:supplementalQualifier "false"^^xsd:string ;
	bd:used "false"^^xsd:string ;
.
:V-FATEST
	rdf:type bd:Variable ;
	bd:basedOn <http://rdf.cdisc.org/std/sdtmig-3-1-2#Column.FA.FATEST> ;
	rdfs:label "SDTM Variable"^^xsd:string ;
	bd:core "???"^^xsd:string ;
	bd:datatype "???"^^xsd:string ;
	bd:defaultCommentSet "false"^^xsd:string ;
	bd:defaultComment ""^^xsd:string ;
	bd:length "NN"^^xsd:string ;
	bd:format "???"^^xsd:string ;
	bd:notes "???"^^xsd:string ;
	bd:origin ""^^xsd:string ;
	bd:role "???"^^xsd:string ;
	bd:supplementalQualifier "false"^^xsd:string ;
	bd:used "false"^^xsd:string ;
.
:V-FATESTCD
	rdf:type bd:Variable ;
	bd:basedOn <http://rdf.cdisc.org/std/sdtmig-3-1-2#Column.FA.FATESTCD> ;
	rdfs:label "SDTM Variable"^^xsd:string ;
	bd:core "???"^^xsd:string ;
	bd:datatype "???"^^xsd:string ;
	bd:defaultCommentSet "false"^^xsd:string ;
	bd:defaultComment ""^^xsd:string ;
	bd:length "NN"^^xsd:string ;
	bd:format "???"^^xsd:string ;
	bd:notes "???"^^xsd:string ;
	bd:origin ""^^xsd:string ;
	bd:role "???"^^xsd:string ;
	bd:supplementalQualifier "false"^^xsd:string ;
	bd:used "false"^^xsd:string ;
.
:V-STUDYID
	rdf:type bd:Variable ;
	bd:basedOn <http://rdf.cdisc.org/std/sdtmig-3-1-2#Column.FA.STUDYID> ;
	rdfs:label "SDTM Variable"^^xsd:string ;
	bd:core "???"^^xsd:string ;
	bd:datatype "???"^^xsd:string ;
	bd:defaultCommentSet "false"^^xsd:string ;
	bd:defaultComment ""^^xsd:string ;
	bd:length "NN"^^xsd:string ;
	bd:format "???"^^xsd:string ;
	bd:notes "???"^^xsd:string ;
	bd:origin ""^^xsd:string ;
	bd:role "???"^^xsd:string ;
	bd:supplementalQualifier "false"^^xsd:string ;
	bd:used "false"^^xsd:string ;
.
:V-USUBJID
	rdf:type bd:Variable ;
	bd:basedOn <http://rdf.cdisc.org/std/sdtmig-3-1-2#Column.FA.USUBJID> ;
	rdfs:label "SDTM Variable"^^xsd:string ;
	bd:core "???"^^xsd:string ;
	bd:datatype "???"^^xsd:string ;
	bd:defaultCommentSet "false"^^xsd:string ;
	bd:defaultComment ""^^xsd:string ;
	bd:length "NN"^^xsd:string ;
	bd:format "???"^^xsd:string ;
	bd:notes "???"^^xsd:string ;
	bd:origin ""^^xsd:string ;
	bd:role "???"^^xsd:string ;
	bd:supplementalQualifier "false"^^xsd:string ;
	bd:used "false"^^xsd:string ;
.
:V-VISIT
	rdf:type bd:Variable ;
	bd:basedOn <http://rdf.cdisc.org/std/sdtmig-3-1-2#Column.FA.VISIT> ;
	rdfs:label "SDTM Variable"^^xsd:string ;
	bd:core "???"^^xsd:string ;
	bd:datatype "???"^^xsd:string ;
	bd:defaultCommentSet "false"^^xsd:string ;
	bd:defaultComment ""^^xsd:string ;
	bd:length "NN"^^xsd:string ;
	bd:format "???"^^xsd:string ;
	bd:notes "???"^^xsd:string ;
	bd:origin ""^^xsd:string ;
	bd:role "???"^^xsd:string ;
	bd:supplementalQualifier "false"^^xsd:string ;
	bd:used "false"^^xsd:string ;
.
:V-VISITDY
	rdf:type bd:Variable ;
	bd:basedOn <http://rdf.cdisc.org/std/sdtmig-3-1-2#Column.FA.VISITDY> ;
	rdfs:label "SDTM Variable"^^xsd:string ;
	bd:core "???"^^xsd:string ;
	bd:datatype "???"^^xsd:string ;
	bd:defaultCommentSet "false"^^xsd:string ;
	bd:defaultComment ""^^xsd:string ;
	bd:length "NN"^^xsd:string ;
	bd:format "???"^^xsd:string ;
	bd:notes "???"^^xsd:string ;
	bd:origin ""^^xsd:string ;
	bd:role "???"^^xsd:string ;
	bd:supplementalQualifier "false"^^xsd:string ;
	bd:used "false"^^xsd:string ;
.
:V-VISITNUM
	rdf:type bd:Variable ;
	bd:basedOn <http://rdf.cdisc.org/std/sdtmig-3-1-2#Column.FA.VISITNUM> ;
	rdfs:label "SDTM Variable"^^xsd:string ;
	bd:core "???"^^xsd:string ;
	bd:datatype "???"^^xsd:string ;
	bd:defaultCommentSet "false"^^xsd:string ;
	bd:defaultComment ""^^xsd:string ;
	bd:length "NN"^^xsd:string ;
	bd:format "???"^^xsd:string ;
	bd:notes "???"^^xsd:string ;
	bd:origin ""^^xsd:string ;
	bd:role "???"^^xsd:string ;
	bd:supplementalQualifier "false"^^xsd:string ;
	bd:used "false"^^xsd:string ;
.
:V-DOMAIN
	rdf:type bd:Variable ;
	bd:basedOn <http://rdf.cdisc.org/std/sdtmig-3-1-2#Column.IE.DOMAIN> ;
	rdfs:label "SDTM Variable"^^xsd:string ;
	bd:core "???"^^xsd:string ;
	bd:datatype "???"^^xsd:string ;
	bd:defaultCommentSet "false"^^xsd:string ;
	bd:defaultComment ""^^xsd:string ;
	bd:length "NN"^^xsd:string ;
	bd:format "???"^^xsd:string ;
	bd:notes "???"^^xsd:string ;
	bd:origin ""^^xsd:string ;
	bd:role "???"^^xsd:string ;
	bd:supplementalQualifier "false"^^xsd:string ;
	bd:used "false"^^xsd:string ;
.
:V-IECAT
	rdf:type bd:Variable ;
	bd:basedOn <http://rdf.cdisc.org/std/sdtmig-3-1-2#Column.IE.IECAT> ;
	rdfs:label "SDTM Variable"^^xsd:string ;
	bd:core "???"^^xsd:string ;
	bd:datatype "???"^^xsd:string ;
	bd:defaultCommentSet "false"^^xsd:string ;
	bd:defaultComment ""^^xsd:string ;
	bd:length "NN"^^xsd:string ;
	bd:format "???"^^xsd:string ;
	bd:notes "???"^^xsd:string ;
	bd:origin ""^^xsd:string ;
	bd:role "???"^^xsd:string ;
	bd:supplementalQualifier "false"^^xsd:string ;
	bd:used "false"^^xsd:string ;
.
:V-IEDTC
	rdf:type bd:Variable ;
	bd:basedOn <http://rdf.cdisc.org/std/sdtmig-3-1-2#Column.IE.IEDTC> ;
	rdfs:label "SDTM Variable"^^xsd:string ;
	bd:core "???"^^xsd:string ;
	bd:datatype "???"^^xsd:string ;
	bd:defaultCommentSet "false"^^xsd:string ;
	bd:defaultComment ""^^xsd:string ;
	bd:length "NN"^^xsd:string ;
	bd:format "???"^^xsd:string ;
	bd:notes "???"^^xsd:string ;
	bd:origin ""^^xsd:string ;
	bd:role "???"^^xsd:string ;
	bd:supplementalQualifier "false"^^xsd:string ;
	bd:used "false"^^xsd:string ;
.
:V-IEDY
	rdf:type bd:Variable ;
	bd:basedOn <http://rdf.cdisc.org/std/sdtmig-3-1-2#Column.IE.IEDY> ;
	rdfs:label "SDTM Variable"^^xsd:string ;
	bd:core "???"^^xsd:string ;
	bd:datatype "???"^^xsd:string ;
	bd:defaultCommentSet "false"^^xsd:string ;
	bd:defaultComment ""^^xsd:string ;
	bd:length "NN"^^xsd:string ;
	bd:format "???"^^xsd:string ;
	bd:notes "???"^^xsd:string ;
	bd:origin ""^^xsd:string ;
	bd:role "???"^^xsd:string ;
	bd:supplementalQualifier "false"^^xsd:string ;
	bd:used "false"^^xsd:string ;
.
:V-IEORRES
	rdf:type bd:Variable ;
	bd:basedOn <http://rdf.cdisc.org/std/sdtmig-3-1-2#Column.IE.IEORRES> ;
	rdfs:label "SDTM Variable"^^xsd:string ;
	bd:core "???"^^xsd:string ;
	bd:datatype "???"^^xsd:string ;
	bd:defaultCommentSet "false"^^xsd:string ;
	bd:defaultComment ""^^xsd:string ;
	bd:length "NN"^^xsd:string ;
	bd:format "???"^^xsd:string ;
	bd:notes "???"^^xsd:string ;
	bd:origin ""^^xsd:string ;
	bd:role "???"^^xsd:string ;
	bd:supplementalQualifier "false"^^xsd:string ;
	bd:used "false"^^xsd:string ;
.
:V-IESCAT
	rdf:type bd:Variable ;
	bd:basedOn <http://rdf.cdisc.org/std/sdtmig-3-1-2#Column.IE.IESCAT> ;
	rdfs:label "SDTM Variable"^^xsd:string ;
	bd:core "???"^^xsd:string ;
	bd:datatype "???"^^xsd:string ;
	bd:defaultCommentSet "false"^^xsd:string ;
	bd:defaultComment ""^^xsd:string ;
	bd:length "NN"^^xsd:string ;
	bd:format "???"^^xsd:string ;
	bd:notes "???"^^xsd:string ;
	bd:origin ""^^xsd:string ;
	bd:role "???"^^xsd:string ;
	bd:supplementalQualifier "false"^^xsd:string ;
	bd:used "false"^^xsd:string ;
.
:V-IESEQ
	rdf:type bd:Variable ;
	bd:basedOn <http://rdf.cdisc.org/std/sdtmig-3-1-2#Column.IE.IESEQ> ;
	rdfs:label "SDTM Variable"^^xsd:string ;
	bd:core "???"^^xsd:string ;
	bd:datatype "???"^^xsd:string ;
	bd:defaultCommentSet "false"^^xsd:string ;
	bd:defaultComment ""^^xsd:string ;
	bd:length "NN"^^xsd:string ;
	bd:format "???"^^xsd:string ;
	bd:notes "???"^^xsd:string ;
	bd:origin ""^^xsd:string ;
	bd:role "???"^^xsd:string ;
	bd:supplementalQualifier "false"^^xsd:string ;
	bd:used "false"^^xsd:string ;
.
:V-IESPID
	rdf:type bd:Variable ;
	bd:basedOn <http://rdf.cdisc.org/std/sdtmig-3-1-2#Column.IE.IESPID> ;
	rdfs:label "SDTM Variable"^^xsd:string ;
	bd:core "???"^^xsd:string ;
	bd:datatype "???"^^xsd:string ;
	bd:defaultCommentSet "false"^^xsd:string ;
	bd:defaultComment ""^^xsd:string ;
	bd:length "NN"^^xsd:string ;
	bd:format "???"^^xsd:string ;
	bd:notes "???"^^xsd:string ;
	bd:origin ""^^xsd:string ;
	bd:role "???"^^xsd:string ;
	bd:supplementalQualifier "false"^^xsd:string ;
	bd:used "false"^^xsd:string ;
.
:V-IESTRESC
	rdf:type bd:Variable ;
	bd:basedOn <http://rdf.cdisc.org/std/sdtmig-3-1-2#Column.IE.IESTRESC> ;
	rdfs:label "SDTM Variable"^^xsd:string ;
	bd:core "???"^^xsd:string ;
	bd:datatype "???"^^xsd:string ;
	bd:defaultCommentSet "false"^^xsd:string ;
	bd:defaultComment ""^^xsd:string ;
	bd:length "NN"^^xsd:string ;
	bd:format "???"^^xsd:string ;
	bd:notes "???"^^xsd:string ;
	bd:origin ""^^xsd:string ;
	bd:role "???"^^xsd:string ;
	bd:supplementalQualifier "false"^^xsd:string ;
	bd:used "false"^^xsd:string ;
.
:V-IETEST
	rdf:type bd:Variable ;
	bd:basedOn <http://rdf.cdisc.org/std/sdtmig-3-1-2#Column.IE.IETEST> ;
	rdfs:label "SDTM Variable"^^xsd:string ;
	bd:core "???"^^xsd:string ;
	bd:datatype "???"^^xsd:string ;
	bd:defaultCommentSet "false"^^xsd:string ;
	bd:defaultComment ""^^xsd:string ;
	bd:length "NN"^^xsd:string ;
	bd:format "???"^^xsd:string ;
	bd:notes "???"^^xsd:string ;
	bd:origin ""^^xsd:string ;
	bd:role "???"^^xsd:string ;
	bd:supplementalQualifier "false"^^xsd:string ;
	bd:used "false"^^xsd:string ;
.
:V-IETESTCD
	rdf:type bd:Variable ;
	bd:basedOn <http://rdf.cdisc.org/std/sdtmig-3-1-2#Column.IE.IETESTCD> ;
	rdfs:label "SDTM Variable"^^xsd:string ;
	bd:core "???"^^xsd:string ;
	bd:datatype "???"^^xsd:string ;
	bd:defaultCommentSet "false"^^xsd:string ;
	bd:defaultComment ""^^xsd:string ;
	bd:length "NN"^^xsd:string ;
	bd:format "???"^^xsd:string ;
	bd:notes "???"^^xsd:string ;
	bd:origin ""^^xsd:string ;
	bd:role "???"^^xsd:string ;
	bd:supplementalQualifier "false"^^xsd:string ;
	bd:used "false"^^xsd:string ;
.
:V-STUDYID
	rdf:type bd:Variable ;
	bd:basedOn <http://rdf.cdisc.org/std/sdtmig-3-1-2#Column.IE.STUDYID> ;
	rdfs:label "SDTM Variable"^^xsd:string ;
	bd:core "???"^^xsd:string ;
	bd:datatype "???"^^xsd:string ;
	bd:defaultCommentSet "false"^^xsd:string ;
	bd:defaultComment ""^^xsd:string ;
	bd:length "NN"^^xsd:string ;
	bd:format "???"^^xsd:string ;
	bd:notes "???"^^xsd:string ;
	bd:origin ""^^xsd:string ;
	bd:role "???"^^xsd:string ;
	bd:supplementalQualifier "false"^^xsd:string ;
	bd:used "false"^^xsd:string ;
.
:V-USUBJID
	rdf:type bd:Variable ;
	bd:basedOn <http://rdf.cdisc.org/std/sdtmig-3-1-2#Column.IE.USUBJID> ;
	rdfs:label "SDTM Variable"^^xsd:string ;
	bd:core "???"^^xsd:string ;
	bd:datatype "???"^^xsd:string ;
	bd:defaultCommentSet "false"^^xsd:string ;
	bd:defaultComment ""^^xsd:string ;
	bd:length "NN"^^xsd:string ;
	bd:format "???"^^xsd:string ;
	bd:notes "???"^^xsd:string ;
	bd:origin ""^^xsd:string ;
	bd:role "???"^^xsd:string ;
	bd:supplementalQualifier "false"^^xsd:string ;
	bd:used "false"^^xsd:string ;
.
:V-VISIT
	rdf:type bd:Variable ;
	bd:basedOn <http://rdf.cdisc.org/std/sdtmig-3-1-2#Column.IE.VISIT> ;
	rdfs:label "SDTM Variable"^^xsd:string ;
	bd:core "???"^^xsd:string ;
	bd:datatype "???"^^xsd:string ;
	bd:defaultCommentSet "false"^^xsd:string ;
	bd:defaultComment ""^^xsd:string ;
	bd:length "NN"^^xsd:string ;
	bd:format "???"^^xsd:string ;
	bd:notes "???"^^xsd:string ;
	bd:origin ""^^xsd:string ;
	bd:role "???"^^xsd:string ;
	bd:supplementalQualifier "false"^^xsd:string ;
	bd:used "false"^^xsd:string ;
.
:V-VISITDY
	rdf:type bd:Variable ;
	bd:basedOn <http://rdf.cdisc.org/std/sdtmig-3-1-2#Column.IE.VISITDY> ;
	rdfs:label "SDTM Variable"^^xsd:string ;
	bd:core "???"^^xsd:string ;
	bd:datatype "???"^^xsd:string ;
	bd:defaultCommentSet "false"^^xsd:string ;
	bd:defaultComment ""^^xsd:string ;
	bd:length "NN"^^xsd:string ;
	bd:format "???"^^xsd:string ;
	bd:notes "???"^^xsd:string ;
	bd:origin ""^^xsd:string ;
	bd:role "???"^^xsd:string ;
	bd:supplementalQualifier "false"^^xsd:string ;
	bd:used "false"^^xsd:string ;
.
:V-VISITNUM
	rdf:type bd:Variable ;
	bd:basedOn <http://rdf.cdisc.org/std/sdtmig-3-1-2#Column.IE.VISITNUM> ;
	rdfs:label "SDTM Variable"^^xsd:string ;
	bd:core "???"^^xsd:string ;
	bd:datatype "???"^^xsd:string ;
	bd:defaultCommentSet "false"^^xsd:string ;
	bd:defaultComment ""^^xsd:string ;
	bd:length "NN"^^xsd:string ;
	bd:format "???"^^xsd:string ;
	bd:notes "???"^^xsd:string ;
	bd:origin ""^^xsd:string ;
	bd:role "???"^^xsd:string ;
	bd:supplementalQualifier "false"^^xsd:string ;
	bd:used "false"^^xsd:string ;
.
:V-DOMAIN
	rdf:type bd:Variable ;
	bd:basedOn <http://rdf.cdisc.org/std/sdtmig-3-1-2#Column.LB.DOMAIN> ;
	rdfs:label "SDTM Variable"^^xsd:string ;
	bd:core "???"^^xsd:string ;
	bd:datatype "???"^^xsd:string ;
	bd:defaultCommentSet "false"^^xsd:string ;
	bd:defaultComment ""^^xsd:string ;
	bd:length "NN"^^xsd:string ;
	bd:format "???"^^xsd:string ;
	bd:notes "???"^^xsd:string ;
	bd:origin ""^^xsd:string ;
	bd:role "???"^^xsd:string ;
	bd:supplementalQualifier "false"^^xsd:string ;
	bd:used "false"^^xsd:string ;
.
:V-LBBLFL
	rdf:type bd:Variable ;
	bd:basedOn <http://rdf.cdisc.org/std/sdtmig-3-1-2#Column.LB.LBBLFL> ;
	rdfs:label "SDTM Variable"^^xsd:string ;
	bd:core "???"^^xsd:string ;
	bd:datatype "???"^^xsd:string ;
	bd:defaultCommentSet "false"^^xsd:string ;
	bd:defaultComment ""^^xsd:string ;
	bd:length "NN"^^xsd:string ;
	bd:format "???"^^xsd:string ;
	bd:notes "???"^^xsd:string ;
	bd:origin ""^^xsd:string ;
	bd:role "???"^^xsd:string ;
	bd:supplementalQualifier "false"^^xsd:string ;
	bd:used "false"^^xsd:string ;
.
:V-LBCAT
	rdf:type bd:Variable ;
	bd:basedOn <http://rdf.cdisc.org/std/sdtmig-3-1-2#Column.LB.LBCAT> ;
	rdfs:label "SDTM Variable"^^xsd:string ;
	bd:core "???"^^xsd:string ;
	bd:datatype "???"^^xsd:string ;
	bd:defaultCommentSet "false"^^xsd:string ;
	bd:defaultComment ""^^xsd:string ;
	bd:length "NN"^^xsd:string ;
	bd:format "???"^^xsd:string ;
	bd:notes "???"^^xsd:string ;
	bd:origin ""^^xsd:string ;
	bd:role "???"^^xsd:string ;
	bd:supplementalQualifier "false"^^xsd:string ;
	bd:used "false"^^xsd:string ;
.
:V-LBDRVFL
	rdf:type bd:Variable ;
	bd:basedOn <http://rdf.cdisc.org/std/sdtmig-3-1-2#Column.LB.LBDRVFL> ;
	rdfs:label "SDTM Variable"^^xsd:string ;
	bd:core "???"^^xsd:string ;
	bd:datatype "???"^^xsd:string ;
	bd:defaultCommentSet "false"^^xsd:string ;
	bd:defaultComment ""^^xsd:string ;
	bd:length "NN"^^xsd:string ;
	bd:format "???"^^xsd:string ;
	bd:notes "???"^^xsd:string ;
	bd:origin ""^^xsd:string ;
	bd:role "???"^^xsd:string ;
	bd:supplementalQualifier "false"^^xsd:string ;
	bd:used "false"^^xsd:string ;
.
:V-LBDTC
	rdf:type bd:Variable ;
	bd:basedOn <http://rdf.cdisc.org/std/sdtmig-3-1-2#Column.LB.LBDTC> ;
	rdfs:label "SDTM Variable"^^xsd:string ;
	bd:core "???"^^xsd:string ;
	bd:datatype "???"^^xsd:string ;
	bd:defaultCommentSet "false"^^xsd:string ;
	bd:defaultComment ""^^xsd:string ;
	bd:length "NN"^^xsd:string ;
	bd:format "???"^^xsd:string ;
	bd:notes "???"^^xsd:string ;
	bd:origin ""^^xsd:string ;
	bd:role "???"^^xsd:string ;
	bd:supplementalQualifier "false"^^xsd:string ;
	bd:used "false"^^xsd:string ;
.
:V-LBDY
	rdf:type bd:Variable ;
	bd:basedOn <http://rdf.cdisc.org/std/sdtmig-3-1-2#Column.LB.LBDY> ;
	rdfs:label "SDTM Variable"^^xsd:string ;
	bd:core "???"^^xsd:string ;
	bd:datatype "???"^^xsd:string ;
	bd:defaultCommentSet "false"^^xsd:string ;
	bd:defaultComment ""^^xsd:string ;
	bd:length "NN"^^xsd:string ;
	bd:format "???"^^xsd:string ;
	bd:notes "???"^^xsd:string ;
	bd:origin ""^^xsd:string ;
	bd:role "???"^^xsd:string ;
	bd:supplementalQualifier "false"^^xsd:string ;
	bd:used "false"^^xsd:string ;
.
:V-LBELTM
	rdf:type bd:Variable ;
	bd:basedOn <http://rdf.cdisc.org/std/sdtmig-3-1-2#Column.LB.LBELTM> ;
	rdfs:label "SDTM Variable"^^xsd:string ;
	bd:core "???"^^xsd:string ;
	bd:datatype "???"^^xsd:string ;
	bd:defaultCommentSet "false"^^xsd:string ;
	bd:defaultComment ""^^xsd:string ;
	bd:length "NN"^^xsd:string ;
	bd:format "???"^^xsd:string ;
	bd:notes "???"^^xsd:string ;
	bd:origin ""^^xsd:string ;
	bd:role "???"^^xsd:string ;
	bd:supplementalQualifier "false"^^xsd:string ;
	bd:used "false"^^xsd:string ;
.
:V-LBENDTC
	rdf:type bd:Variable ;
	bd:basedOn <http://rdf.cdisc.org/std/sdtmig-3-1-2#Column.LB.LBENDTC> ;
	rdfs:label "SDTM Variable"^^xsd:string ;
	bd:core "???"^^xsd:string ;
	bd:datatype "???"^^xsd:string ;
	bd:defaultCommentSet "false"^^xsd:string ;
	bd:defaultComment ""^^xsd:string ;
	bd:length "NN"^^xsd:string ;
	bd:format "???"^^xsd:string ;
	bd:notes "???"^^xsd:string ;
	bd:origin ""^^xsd:string ;
	bd:role "???"^^xsd:string ;
	bd:supplementalQualifier "false"^^xsd:string ;
	bd:used "false"^^xsd:string ;
.
:V-LBFAST
	rdf:type bd:Variable ;
	bd:basedOn <http://rdf.cdisc.org/std/sdtmig-3-1-2#Column.LB.LBFAST> ;
	rdfs:label "SDTM Variable"^^xsd:string ;
	bd:core "???"^^xsd:string ;
	bd:datatype "???"^^xsd:string ;
	bd:defaultCommentSet "false"^^xsd:string ;
	bd:defaultComment ""^^xsd:string ;
	bd:length "NN"^^xsd:string ;
	bd:format "???"^^xsd:string ;
	bd:notes "???"^^xsd:string ;
	bd:origin ""^^xsd:string ;
	bd:role "???"^^xsd:string ;
	bd:supplementalQualifier "false"^^xsd:string ;
	bd:used "false"^^xsd:string ;
.
:V-LBGRPID
	rdf:type bd:Variable ;
	bd:basedOn <http://rdf.cdisc.org/std/sdtmig-3-1-2#Column.LB.LBGRPID> ;
	rdfs:label "SDTM Variable"^^xsd:string ;
	bd:core "???"^^xsd:string ;
	bd:datatype "???"^^xsd:string ;
	bd:defaultCommentSet "false"^^xsd:string ;
	bd:defaultComment ""^^xsd:string ;
	bd:length "NN"^^xsd:string ;
	bd:format "???"^^xsd:string ;
	bd:notes "???"^^xsd:string ;
	bd:origin ""^^xsd:string ;
	bd:role "???"^^xsd:string ;
	bd:supplementalQualifier "false"^^xsd:string ;
	bd:used "false"^^xsd:string ;
.
:V-LBLOINC
	rdf:type bd:Variable ;
	bd:basedOn <http://rdf.cdisc.org/std/sdtmig-3-1-2#Column.LB.LBLOINC> ;
	rdfs:label "SDTM Variable"^^xsd:string ;
	bd:core "???"^^xsd:string ;
	bd:datatype "???"^^xsd:string ;
	bd:defaultCommentSet "false"^^xsd:string ;
	bd:defaultComment ""^^xsd:string ;
	bd:length "NN"^^xsd:string ;
	bd:format "???"^^xsd:string ;
	bd:notes "???"^^xsd:string ;
	bd:origin ""^^xsd:string ;
	bd:role "???"^^xsd:string ;
	bd:supplementalQualifier "false"^^xsd:string ;
	bd:used "false"^^xsd:string ;
.
:V-LBMETHOD
	rdf:type bd:Variable ;
	bd:basedOn <http://rdf.cdisc.org/std/sdtmig-3-1-2#Column.LB.LBMETHOD> ;
	rdfs:label "SDTM Variable"^^xsd:string ;
	bd:core "???"^^xsd:string ;
	bd:datatype "???"^^xsd:string ;
	bd:defaultCommentSet "false"^^xsd:string ;
	bd:defaultComment ""^^xsd:string ;
	bd:length "NN"^^xsd:string ;
	bd:format "???"^^xsd:string ;
	bd:notes "???"^^xsd:string ;
	bd:origin ""^^xsd:string ;
	bd:role "???"^^xsd:string ;
	bd:supplementalQualifier "false"^^xsd:string ;
	bd:used "false"^^xsd:string ;
.
:V-LBNAM
	rdf:type bd:Variable ;
	bd:basedOn <http://rdf.cdisc.org/std/sdtmig-3-1-2#Column.LB.LBNAM> ;
	rdfs:label "SDTM Variable"^^xsd:string ;
	bd:core "???"^^xsd:string ;
	bd:datatype "???"^^xsd:string ;
	bd:defaultCommentSet "false"^^xsd:string ;
	bd:defaultComment ""^^xsd:string ;
	bd:length "NN"^^xsd:string ;
	bd:format "???"^^xsd:string ;
	bd:notes "???"^^xsd:string ;
	bd:origin ""^^xsd:string ;
	bd:role "???"^^xsd:string ;
	bd:supplementalQualifier "false"^^xsd:string ;
	bd:used "false"^^xsd:string ;
.
:V-LBNRIND
	rdf:type bd:Variable ;
	bd:basedOn <http://rdf.cdisc.org/std/sdtmig-3-1-2#Column.LB.LBNRIND> ;
	rdfs:label "SDTM Variable"^^xsd:string ;
	bd:core "???"^^xsd:string ;
	bd:datatype "???"^^xsd:string ;
	bd:defaultCommentSet "false"^^xsd:string ;
	bd:defaultComment ""^^xsd:string ;
	bd:length "NN"^^xsd:string ;
	bd:format "???"^^xsd:string ;
	bd:notes "???"^^xsd:string ;
	bd:origin ""^^xsd:string ;
	bd:role "???"^^xsd:string ;
	bd:supplementalQualifier "false"^^xsd:string ;
	bd:used "false"^^xsd:string ;
.
:V-LBORNRHI
	rdf:type bd:Variable ;
	bd:basedOn <http://rdf.cdisc.org/std/sdtmig-3-1-2#Column.LB.LBORNRHI> ;
	rdfs:label "SDTM Variable"^^xsd:string ;
	bd:core "???"^^xsd:string ;
	bd:datatype "???"^^xsd:string ;
	bd:defaultCommentSet "false"^^xsd:string ;
	bd:defaultComment ""^^xsd:string ;
	bd:length "NN"^^xsd:string ;
	bd:format "???"^^xsd:string ;
	bd:notes "???"^^xsd:string ;
	bd:origin ""^^xsd:string ;
	bd:role "???"^^xsd:string ;
	bd:supplementalQualifier "false"^^xsd:string ;
	bd:used "false"^^xsd:string ;
.
:V-LBORNRLO
	rdf:type bd:Variable ;
	bd:basedOn <http://rdf.cdisc.org/std/sdtmig-3-1-2#Column.LB.LBORNRLO> ;
	rdfs:label "SDTM Variable"^^xsd:string ;
	bd:core "???"^^xsd:string ;
	bd:datatype "???"^^xsd:string ;
	bd:defaultCommentSet "false"^^xsd:string ;
	bd:defaultComment ""^^xsd:string ;
	bd:length "NN"^^xsd:string ;
	bd:format "???"^^xsd:string ;
	bd:notes "???"^^xsd:string ;
	bd:origin ""^^xsd:string ;
	bd:role "???"^^xsd:string ;
	bd:supplementalQualifier "false"^^xsd:string ;
	bd:used "false"^^xsd:string ;
.
:V-LBORRES
	rdf:type bd:Variable ;
	bd:basedOn <http://rdf.cdisc.org/std/sdtmig-3-1-2#Column.LB.LBORRES> ;
	rdfs:label "SDTM Variable"^^xsd:string ;
	bd:core "???"^^xsd:string ;
	bd:datatype "???"^^xsd:string ;
	bd:defaultCommentSet "false"^^xsd:string ;
	bd:defaultComment ""^^xsd:string ;
	bd:length "NN"^^xsd:string ;
	bd:format "???"^^xsd:string ;
	bd:notes "???"^^xsd:string ;
	bd:origin ""^^xsd:string ;
	bd:role "???"^^xsd:string ;
	bd:supplementalQualifier "false"^^xsd:string ;
	bd:used "false"^^xsd:string ;
.
:V-LBORRESU
	rdf:type bd:Variable ;
	bd:basedOn <http://rdf.cdisc.org/std/sdtmig-3-1-2#Column.LB.LBORRESU> ;
	rdfs:label "SDTM Variable"^^xsd:string ;
	bd:core "???"^^xsd:string ;
	bd:datatype "???"^^xsd:string ;
	bd:defaultCommentSet "false"^^xsd:string ;
	bd:defaultComment ""^^xsd:string ;
	bd:length "NN"^^xsd:string ;
	bd:format "???"^^xsd:string ;
	bd:notes "???"^^xsd:string ;
	bd:origin ""^^xsd:string ;
	bd:role "???"^^xsd:string ;
	bd:supplementalQualifier "false"^^xsd:string ;
	bd:used "false"^^xsd:string ;
.
:V-LBREASND
	rdf:type bd:Variable ;
	bd:basedOn <http://rdf.cdisc.org/std/sdtmig-3-1-2#Column.LB.LBREASND> ;
	rdfs:label "SDTM Variable"^^xsd:string ;
	bd:core "???"^^xsd:string ;
	bd:datatype "???"^^xsd:string ;
	bd:defaultCommentSet "false"^^xsd:string ;
	bd:defaultComment ""^^xsd:string ;
	bd:length "NN"^^xsd:string ;
	bd:format "???"^^xsd:string ;
	bd:notes "???"^^xsd:string ;
	bd:origin ""^^xsd:string ;
	bd:role "???"^^xsd:string ;
	bd:supplementalQualifier "false"^^xsd:string ;
	bd:used "false"^^xsd:string ;
.
:V-LBREFID
	rdf:type bd:Variable ;
	bd:basedOn <http://rdf.cdisc.org/std/sdtmig-3-1-2#Column.LB.LBREFID> ;
	rdfs:label "SDTM Variable"^^xsd:string ;
	bd:core "???"^^xsd:string ;
	bd:datatype "???"^^xsd:string ;
	bd:defaultCommentSet "false"^^xsd:string ;
	bd:defaultComment ""^^xsd:string ;
	bd:length "NN"^^xsd:string ;
	bd:format "???"^^xsd:string ;
	bd:notes "???"^^xsd:string ;
	bd:origin ""^^xsd:string ;
	bd:role "???"^^xsd:string ;
	bd:supplementalQualifier "false"^^xsd:string ;
	bd:used "false"^^xsd:string ;
.
:V-LBRFTDTC
	rdf:type bd:Variable ;
	bd:basedOn <http://rdf.cdisc.org/std/sdtmig-3-1-2#Column.LB.LBRFTDTC> ;
	rdfs:label "SDTM Variable"^^xsd:string ;
	bd:core "???"^^xsd:string ;
	bd:datatype "???"^^xsd:string ;
	bd:defaultCommentSet "false"^^xsd:string ;
	bd:defaultComment ""^^xsd:string ;
	bd:length "NN"^^xsd:string ;
	bd:format "???"^^xsd:string ;
	bd:notes "???"^^xsd:string ;
	bd:origin ""^^xsd:string ;
	bd:role "???"^^xsd:string ;
	bd:supplementalQualifier "false"^^xsd:string ;
	bd:used "false"^^xsd:string ;
.
:V-LBSCAT
	rdf:type bd:Variable ;
	bd:basedOn <http://rdf.cdisc.org/std/sdtmig-3-1-2#Column.LB.LBSCAT> ;
	rdfs:label "SDTM Variable"^^xsd:string ;
	bd:core "???"^^xsd:string ;
	bd:datatype "???"^^xsd:string ;
	bd:defaultCommentSet "false"^^xsd:string ;
	bd:defaultComment ""^^xsd:string ;
	bd:length "NN"^^xsd:string ;
	bd:format "???"^^xsd:string ;
	bd:notes "???"^^xsd:string ;
	bd:origin ""^^xsd:string ;
	bd:role "???"^^xsd:string ;
	bd:supplementalQualifier "false"^^xsd:string ;
	bd:used "false"^^xsd:string ;
.
:V-LBSEQ
	rdf:type bd:Variable ;
	bd:basedOn <http://rdf.cdisc.org/std/sdtmig-3-1-2#Column.LB.LBSEQ> ;
	rdfs:label "SDTM Variable"^^xsd:string ;
	bd:core "???"^^xsd:string ;
	bd:datatype "???"^^xsd:string ;
	bd:defaultCommentSet "false"^^xsd:string ;
	bd:defaultComment ""^^xsd:string ;
	bd:length "NN"^^xsd:string ;
	bd:format "???"^^xsd:string ;
	bd:notes "???"^^xsd:string ;
	bd:origin ""^^xsd:string ;
	bd:role "???"^^xsd:string ;
	bd:supplementalQualifier "false"^^xsd:string ;
	bd:used "false"^^xsd:string ;
.
:V-LBSPCCND
	rdf:type bd:Variable ;
	bd:basedOn <http://rdf.cdisc.org/std/sdtmig-3-1-2#Column.LB.LBSPCCND> ;
	rdfs:label "SDTM Variable"^^xsd:string ;
	bd:core "???"^^xsd:string ;
	bd:datatype "???"^^xsd:string ;
	bd:defaultCommentSet "false"^^xsd:string ;
	bd:defaultComment ""^^xsd:string ;
	bd:length "NN"^^xsd:string ;
	bd:format "???"^^xsd:string ;
	bd:notes "???"^^xsd:string ;
	bd:origin ""^^xsd:string ;
	bd:role "???"^^xsd:string ;
	bd:supplementalQualifier "false"^^xsd:string ;
	bd:used "false"^^xsd:string ;
.
:V-LBSPEC
	rdf:type bd:Variable ;
	bd:basedOn <http://rdf.cdisc.org/std/sdtmig-3-1-2#Column.LB.LBSPEC> ;
	rdfs:label "SDTM Variable"^^xsd:string ;
	bd:core "???"^^xsd:string ;
	bd:datatype "???"^^xsd:string ;
	bd:defaultCommentSet "false"^^xsd:string ;
	bd:defaultComment ""^^xsd:string ;
	bd:length "NN"^^xsd:string ;
	bd:format "???"^^xsd:string ;
	bd:notes "???"^^xsd:string ;
	bd:origin ""^^xsd:string ;
	bd:role "???"^^xsd:string ;
	bd:supplementalQualifier "false"^^xsd:string ;
	bd:used "false"^^xsd:string ;
.
:V-LBSPID
	rdf:type bd:Variable ;
	bd:basedOn <http://rdf.cdisc.org/std/sdtmig-3-1-2#Column.LB.LBSPID> ;
	rdfs:label "SDTM Variable"^^xsd:string ;
	bd:core "???"^^xsd:string ;
	bd:datatype "???"^^xsd:string ;
	bd:defaultCommentSet "false"^^xsd:string ;
	bd:defaultComment ""^^xsd:string ;
	bd:length "NN"^^xsd:string ;
	bd:format "???"^^xsd:string ;
	bd:notes "???"^^xsd:string ;
	bd:origin ""^^xsd:string ;
	bd:role "???"^^xsd:string ;
	bd:supplementalQualifier "false"^^xsd:string ;
	bd:used "false"^^xsd:string ;
.
:V-LBSTAT
	rdf:type bd:Variable ;
	bd:basedOn <http://rdf.cdisc.org/std/sdtmig-3-1-2#Column.LB.LBSTAT> ;
	rdfs:label "SDTM Variable"^^xsd:string ;
	bd:core "???"^^xsd:string ;
	bd:datatype "???"^^xsd:string ;
	bd:defaultCommentSet "false"^^xsd:string ;
	bd:defaultComment ""^^xsd:string ;
	bd:length "NN"^^xsd:string ;
	bd:format "???"^^xsd:string ;
	bd:notes "???"^^xsd:string ;
	bd:origin ""^^xsd:string ;
	bd:role "???"^^xsd:string ;
	bd:supplementalQualifier "false"^^xsd:string ;
	bd:used "false"^^xsd:string ;
.
:V-LBSTNRC
	rdf:type bd:Variable ;
	bd:basedOn <http://rdf.cdisc.org/std/sdtmig-3-1-2#Column.LB.LBSTNRC> ;
	rdfs:label "SDTM Variable"^^xsd:string ;
	bd:core "???"^^xsd:string ;
	bd:datatype "???"^^xsd:string ;
	bd:defaultCommentSet "false"^^xsd:string ;
	bd:defaultComment ""^^xsd:string ;
	bd:length "NN"^^xsd:string ;
	bd:format "???"^^xsd:string ;
	bd:notes "???"^^xsd:string ;
	bd:origin ""^^xsd:string ;
	bd:role "???"^^xsd:string ;
	bd:supplementalQualifier "false"^^xsd:string ;
	bd:used "false"^^xsd:string ;
.
:V-LBSTNRHI
	rdf:type bd:Variable ;
	bd:basedOn <http://rdf.cdisc.org/std/sdtmig-3-1-2#Column.LB.LBSTNRHI> ;
	rdfs:label "SDTM Variable"^^xsd:string ;
	bd:core "???"^^xsd:string ;
	bd:datatype "???"^^xsd:string ;
	bd:defaultCommentSet "false"^^xsd:string ;
	bd:defaultComment ""^^xsd:string ;
	bd:length "NN"^^xsd:string ;
	bd:format "???"^^xsd:string ;
	bd:notes "???"^^xsd:string ;
	bd:origin ""^^xsd:string ;
	bd:role "???"^^xsd:string ;
	bd:supplementalQualifier "false"^^xsd:string ;
	bd:used "false"^^xsd:string ;
.
:V-LBSTNRLO
	rdf:type bd:Variable ;
	bd:basedOn <http://rdf.cdisc.org/std/sdtmig-3-1-2#Column.LB.LBSTNRLO> ;
	rdfs:label "SDTM Variable"^^xsd:string ;
	bd:core "???"^^xsd:string ;
	bd:datatype "???"^^xsd:string ;
	bd:defaultCommentSet "false"^^xsd:string ;
	bd:defaultComment ""^^xsd:string ;
	bd:length "NN"^^xsd:string ;
	bd:format "???"^^xsd:string ;
	bd:notes "???"^^xsd:string ;
	bd:origin ""^^xsd:string ;
	bd:role "???"^^xsd:string ;
	bd:supplementalQualifier "false"^^xsd:string ;
	bd:used "false"^^xsd:string ;
.
:V-LBSTRESC
	rdf:type bd:Variable ;
	bd:basedOn <http://rdf.cdisc.org/std/sdtmig-3-1-2#Column.LB.LBSTRESC> ;
	rdfs:label "SDTM Variable"^^xsd:string ;
	bd:core "???"^^xsd:string ;
	bd:datatype "???"^^xsd:string ;
	bd:defaultCommentSet "false"^^xsd:string ;
	bd:defaultComment ""^^xsd:string ;
	bd:length "NN"^^xsd:string ;
	bd:format "???"^^xsd:string ;
	bd:notes "???"^^xsd:string ;
	bd:origin ""^^xsd:string ;
	bd:role "???"^^xsd:string ;
	bd:supplementalQualifier "false"^^xsd:string ;
	bd:used "false"^^xsd:string ;
.
:V-LBSTRESN
	rdf:type bd:Variable ;
	bd:basedOn <http://rdf.cdisc.org/std/sdtmig-3-1-2#Column.LB.LBSTRESN> ;
	rdfs:label "SDTM Variable"^^xsd:string ;
	bd:core "???"^^xsd:string ;
	bd:datatype "???"^^xsd:string ;
	bd:defaultCommentSet "false"^^xsd:string ;
	bd:defaultComment ""^^xsd:string ;
	bd:length "NN"^^xsd:string ;
	bd:format "???"^^xsd:string ;
	bd:notes "???"^^xsd:string ;
	bd:origin ""^^xsd:string ;
	bd:role "???"^^xsd:string ;
	bd:supplementalQualifier "false"^^xsd:string ;
	bd:used "false"^^xsd:string ;
.
:V-LBSTRESU
	rdf:type bd:Variable ;
	bd:basedOn <http://rdf.cdisc.org/std/sdtmig-3-1-2#Column.LB.LBSTRESU> ;
	rdfs:label "SDTM Variable"^^xsd:string ;
	bd:core "???"^^xsd:string ;
	bd:datatype "???"^^xsd:string ;
	bd:defaultCommentSet "false"^^xsd:string ;
	bd:defaultComment ""^^xsd:string ;
	bd:length "NN"^^xsd:string ;
	bd:format "???"^^xsd:string ;
	bd:notes "???"^^xsd:string ;
	bd:origin ""^^xsd:string ;
	bd:role "???"^^xsd:string ;
	bd:supplementalQualifier "false"^^xsd:string ;
	bd:used "false"^^xsd:string ;
.
:V-LBTEST
	rdf:type bd:Variable ;
	bd:basedOn <http://rdf.cdisc.org/std/sdtmig-3-1-2#Column.LB.LBTEST> ;
	rdfs:label "SDTM Variable"^^xsd:string ;
	bd:core "???"^^xsd:string ;
	bd:datatype "???"^^xsd:string ;
	bd:defaultCommentSet "false"^^xsd:string ;
	bd:defaultComment ""^^xsd:string ;
	bd:length "NN"^^xsd:string ;
	bd:format "???"^^xsd:string ;
	bd:notes "???"^^xsd:string ;
	bd:origin ""^^xsd:string ;
	bd:role "???"^^xsd:string ;
	bd:supplementalQualifier "false"^^xsd:string ;
	bd:used "false"^^xsd:string ;
.
:V-LBTESTCD
	rdf:type bd:Variable ;
	bd:basedOn <http://rdf.cdisc.org/std/sdtmig-3-1-2#Column.LB.LBTESTCD> ;
	rdfs:label "SDTM Variable"^^xsd:string ;
	bd:core "???"^^xsd:string ;
	bd:datatype "???"^^xsd:string ;
	bd:defaultCommentSet "false"^^xsd:string ;
	bd:defaultComment ""^^xsd:string ;
	bd:length "NN"^^xsd:string ;
	bd:format "???"^^xsd:string ;
	bd:notes "???"^^xsd:string ;
	bd:origin ""^^xsd:string ;
	bd:role "???"^^xsd:string ;
	bd:supplementalQualifier "false"^^xsd:string ;
	bd:used "false"^^xsd:string ;
.
:V-LBTOX
	rdf:type bd:Variable ;
	bd:basedOn <http://rdf.cdisc.org/std/sdtmig-3-1-2#Column.LB.LBTOX> ;
	rdfs:label "SDTM Variable"^^xsd:string ;
	bd:core "???"^^xsd:string ;
	bd:datatype "???"^^xsd:string ;
	bd:defaultCommentSet "false"^^xsd:string ;
	bd:defaultComment ""^^xsd:string ;
	bd:length "NN"^^xsd:string ;
	bd:format "???"^^xsd:string ;
	bd:notes "???"^^xsd:string ;
	bd:origin ""^^xsd:string ;
	bd:role "???"^^xsd:string ;
	bd:supplementalQualifier "false"^^xsd:string ;
	bd:used "false"^^xsd:string ;
.
:V-LBTOXGR
	rdf:type bd:Variable ;
	bd:basedOn <http://rdf.cdisc.org/std/sdtmig-3-1-2#Column.LB.LBTOXGR> ;
	rdfs:label "SDTM Variable"^^xsd:string ;
	bd:core "???"^^xsd:string ;
	bd:datatype "???"^^xsd:string ;
	bd:defaultCommentSet "false"^^xsd:string ;
	bd:defaultComment ""^^xsd:string ;
	bd:length "NN"^^xsd:string ;
	bd:format "???"^^xsd:string ;
	bd:notes "???"^^xsd:string ;
	bd:origin ""^^xsd:string ;
	bd:role "???"^^xsd:string ;
	bd:supplementalQualifier "false"^^xsd:string ;
	bd:used "false"^^xsd:string ;
.
:V-LBTPT
	rdf:type bd:Variable ;
	bd:basedOn <http://rdf.cdisc.org/std/sdtmig-3-1-2#Column.LB.LBTPT> ;
	rdfs:label "SDTM Variable"^^xsd:string ;
	bd:core "???"^^xsd:string ;
	bd:datatype "???"^^xsd:string ;
	bd:defaultCommentSet "false"^^xsd:string ;
	bd:defaultComment ""^^xsd:string ;
	bd:length "NN"^^xsd:string ;
	bd:format "???"^^xsd:string ;
	bd:notes "???"^^xsd:string ;
	bd:origin ""^^xsd:string ;
	bd:role "???"^^xsd:string ;
	bd:supplementalQualifier "false"^^xsd:string ;
	bd:used "false"^^xsd:string ;
.
:V-LBTPTNUM
	rdf:type bd:Variable ;
	bd:basedOn <http://rdf.cdisc.org/std/sdtmig-3-1-2#Column.LB.LBTPTNUM> ;
	rdfs:label "SDTM Variable"^^xsd:string ;
	bd:core "???"^^xsd:string ;
	bd:datatype "???"^^xsd:string ;
	bd:defaultCommentSet "false"^^xsd:string ;
	bd:defaultComment ""^^xsd:string ;
	bd:length "NN"^^xsd:string ;
	bd:format "???"^^xsd:string ;
	bd:notes "???"^^xsd:string ;
	bd:origin ""^^xsd:string ;
	bd:role "???"^^xsd:string ;
	bd:supplementalQualifier "false"^^xsd:string ;
	bd:used "false"^^xsd:string ;
.
:V-LBTPTREF
	rdf:type bd:Variable ;
	bd:basedOn <http://rdf.cdisc.org/std/sdtmig-3-1-2#Column.LB.LBTPTREF> ;
	rdfs:label "SDTM Variable"^^xsd:string ;
	bd:core "???"^^xsd:string ;
	bd:datatype "???"^^xsd:string ;
	bd:defaultCommentSet "false"^^xsd:string ;
	bd:defaultComment ""^^xsd:string ;
	bd:length "NN"^^xsd:string ;
	bd:format "???"^^xsd:string ;
	bd:notes "???"^^xsd:string ;
	bd:origin ""^^xsd:string ;
	bd:role "???"^^xsd:string ;
	bd:supplementalQualifier "false"^^xsd:string ;
	bd:used "false"^^xsd:string ;
.
:V-STUDYID
	rdf:type bd:Variable ;
	bd:basedOn <http://rdf.cdisc.org/std/sdtmig-3-1-2#Column.LB.STUDYID> ;
	rdfs:label "SDTM Variable"^^xsd:string ;
	bd:core "???"^^xsd:string ;
	bd:datatype "???"^^xsd:string ;
	bd:defaultCommentSet "false"^^xsd:string ;
	bd:defaultComment ""^^xsd:string ;
	bd:length "NN"^^xsd:string ;
	bd:format "???"^^xsd:string ;
	bd:notes "???"^^xsd:string ;
	bd:origin ""^^xsd:string ;
	bd:role "???"^^xsd:string ;
	bd:supplementalQualifier "false"^^xsd:string ;
	bd:used "false"^^xsd:string ;
.
:V-USUBJID
	rdf:type bd:Variable ;
	bd:basedOn <http://rdf.cdisc.org/std/sdtmig-3-1-2#Column.LB.USUBJID> ;
	rdfs:label "SDTM Variable"^^xsd:string ;
	bd:core "???"^^xsd:string ;
	bd:datatype "???"^^xsd:string ;
	bd:defaultCommentSet "false"^^xsd:string ;
	bd:defaultComment ""^^xsd:string ;
	bd:length "NN"^^xsd:string ;
	bd:format "???"^^xsd:string ;
	bd:notes "???"^^xsd:string ;
	bd:origin ""^^xsd:string ;
	bd:role "???"^^xsd:string ;
	bd:supplementalQualifier "false"^^xsd:string ;
	bd:used "false"^^xsd:string ;
.
:V-VISIT
	rdf:type bd:Variable ;
	bd:basedOn <http://rdf.cdisc.org/std/sdtmig-3-1-2#Column.LB.VISIT> ;
	rdfs:label "SDTM Variable"^^xsd:string ;
	bd:core "???"^^xsd:string ;
	bd:datatype "???"^^xsd:string ;
	bd:defaultCommentSet "false"^^xsd:string ;
	bd:defaultComment ""^^xsd:string ;
	bd:length "NN"^^xsd:string ;
	bd:format "???"^^xsd:string ;
	bd:notes "???"^^xsd:string ;
	bd:origin ""^^xsd:string ;
	bd:role "???"^^xsd:string ;
	bd:supplementalQualifier "false"^^xsd:string ;
	bd:used "false"^^xsd:string ;
.
:V-VISITDY
	rdf:type bd:Variable ;
	bd:basedOn <http://rdf.cdisc.org/std/sdtmig-3-1-2#Column.LB.VISITDY> ;
	rdfs:label "SDTM Variable"^^xsd:string ;
	bd:core "???"^^xsd:string ;
	bd:datatype "???"^^xsd:string ;
	bd:defaultCommentSet "false"^^xsd:string ;
	bd:defaultComment ""^^xsd:string ;
	bd:length "NN"^^xsd:string ;
	bd:format "???"^^xsd:string ;
	bd:notes "???"^^xsd:string ;
	bd:origin ""^^xsd:string ;
	bd:role "???"^^xsd:string ;
	bd:supplementalQualifier "false"^^xsd:string ;
	bd:used "false"^^xsd:string ;
.
:V-VISITNUM
	rdf:type bd:Variable ;
	bd:basedOn <http://rdf.cdisc.org/std/sdtmig-3-1-2#Column.LB.VISITNUM> ;
	rdfs:label "SDTM Variable"^^xsd:string ;
	bd:core "???"^^xsd:string ;
	bd:datatype "???"^^xsd:string ;
	bd:defaultCommentSet "false"^^xsd:string ;
	bd:defaultComment ""^^xsd:string ;
	bd:length "NN"^^xsd:string ;
	bd:format "???"^^xsd:string ;
	bd:notes "???"^^xsd:string ;
	bd:origin ""^^xsd:string ;
	bd:role "???"^^xsd:string ;
	bd:supplementalQualifier "false"^^xsd:string ;
	bd:used "false"^^xsd:string ;
.
:V-DOMAIN
	rdf:type bd:Variable ;
	bd:basedOn <http://rdf.cdisc.org/std/sdtmig-3-1-2#Column.MB.DOMAIN> ;
	rdfs:label "SDTM Variable"^^xsd:string ;
	bd:core "???"^^xsd:string ;
	bd:datatype "???"^^xsd:string ;
	bd:defaultCommentSet "false"^^xsd:string ;
	bd:defaultComment ""^^xsd:string ;
	bd:length "NN"^^xsd:string ;
	bd:format "???"^^xsd:string ;
	bd:notes "???"^^xsd:string ;
	bd:origin ""^^xsd:string ;
	bd:role "???"^^xsd:string ;
	bd:supplementalQualifier "false"^^xsd:string ;
	bd:used "false"^^xsd:string ;
.
:V-MBBLFL
	rdf:type bd:Variable ;
	bd:basedOn <http://rdf.cdisc.org/std/sdtmig-3-1-2#Column.MB.MBBLFL> ;
	rdfs:label "SDTM Variable"^^xsd:string ;
	bd:core "???"^^xsd:string ;
	bd:datatype "???"^^xsd:string ;
	bd:defaultCommentSet "false"^^xsd:string ;
	bd:defaultComment ""^^xsd:string ;
	bd:length "NN"^^xsd:string ;
	bd:format "???"^^xsd:string ;
	bd:notes "???"^^xsd:string ;
	bd:origin ""^^xsd:string ;
	bd:role "???"^^xsd:string ;
	bd:supplementalQualifier "false"^^xsd:string ;
	bd:used "false"^^xsd:string ;
.
:V-MBCAT
	rdf:type bd:Variable ;
	bd:basedOn <http://rdf.cdisc.org/std/sdtmig-3-1-2#Column.MB.MBCAT> ;
	rdfs:label "SDTM Variable"^^xsd:string ;
	bd:core "???"^^xsd:string ;
	bd:datatype "???"^^xsd:string ;
	bd:defaultCommentSet "false"^^xsd:string ;
	bd:defaultComment ""^^xsd:string ;
	bd:length "NN"^^xsd:string ;
	bd:format "???"^^xsd:string ;
	bd:notes "???"^^xsd:string ;
	bd:origin ""^^xsd:string ;
	bd:role "???"^^xsd:string ;
	bd:supplementalQualifier "false"^^xsd:string ;
	bd:used "false"^^xsd:string ;
.
:V-MBDRVFL
	rdf:type bd:Variable ;
	bd:basedOn <http://rdf.cdisc.org/std/sdtmig-3-1-2#Column.MB.MBDRVFL> ;
	rdfs:label "SDTM Variable"^^xsd:string ;
	bd:core "???"^^xsd:string ;
	bd:datatype "???"^^xsd:string ;
	bd:defaultCommentSet "false"^^xsd:string ;
	bd:defaultComment ""^^xsd:string ;
	bd:length "NN"^^xsd:string ;
	bd:format "???"^^xsd:string ;
	bd:notes "???"^^xsd:string ;
	bd:origin ""^^xsd:string ;
	bd:role "???"^^xsd:string ;
	bd:supplementalQualifier "false"^^xsd:string ;
	bd:used "false"^^xsd:string ;
.
:V-MBDTC
	rdf:type bd:Variable ;
	bd:basedOn <http://rdf.cdisc.org/std/sdtmig-3-1-2#Column.MB.MBDTC> ;
	rdfs:label "SDTM Variable"^^xsd:string ;
	bd:core "???"^^xsd:string ;
	bd:datatype "???"^^xsd:string ;
	bd:defaultCommentSet "false"^^xsd:string ;
	bd:defaultComment ""^^xsd:string ;
	bd:length "NN"^^xsd:string ;
	bd:format "???"^^xsd:string ;
	bd:notes "???"^^xsd:string ;
	bd:origin ""^^xsd:string ;
	bd:role "???"^^xsd:string ;
	bd:supplementalQualifier "false"^^xsd:string ;
	bd:used "false"^^xsd:string ;
.
:V-MBDY
	rdf:type bd:Variable ;
	bd:basedOn <http://rdf.cdisc.org/std/sdtmig-3-1-2#Column.MB.MBDY> ;
	rdfs:label "SDTM Variable"^^xsd:string ;
	bd:core "???"^^xsd:string ;
	bd:datatype "???"^^xsd:string ;
	bd:defaultCommentSet "false"^^xsd:string ;
	bd:defaultComment ""^^xsd:string ;
	bd:length "NN"^^xsd:string ;
	bd:format "???"^^xsd:string ;
	bd:notes "???"^^xsd:string ;
	bd:origin ""^^xsd:string ;
	bd:role "???"^^xsd:string ;
	bd:supplementalQualifier "false"^^xsd:string ;
	bd:used "false"^^xsd:string ;
.
:V-MBELTM
	rdf:type bd:Variable ;
	bd:basedOn <http://rdf.cdisc.org/std/sdtmig-3-1-2#Column.MB.MBELTM> ;
	rdfs:label "SDTM Variable"^^xsd:string ;
	bd:core "???"^^xsd:string ;
	bd:datatype "???"^^xsd:string ;
	bd:defaultCommentSet "false"^^xsd:string ;
	bd:defaultComment ""^^xsd:string ;
	bd:length "NN"^^xsd:string ;
	bd:format "???"^^xsd:string ;
	bd:notes "???"^^xsd:string ;
	bd:origin ""^^xsd:string ;
	bd:role "???"^^xsd:string ;
	bd:supplementalQualifier "false"^^xsd:string ;
	bd:used "false"^^xsd:string ;
.
:V-MBGRPID
	rdf:type bd:Variable ;
	bd:basedOn <http://rdf.cdisc.org/std/sdtmig-3-1-2#Column.MB.MBGRPID> ;
	rdfs:label "SDTM Variable"^^xsd:string ;
	bd:core "???"^^xsd:string ;
	bd:datatype "???"^^xsd:string ;
	bd:defaultCommentSet "false"^^xsd:string ;
	bd:defaultComment ""^^xsd:string ;
	bd:length "NN"^^xsd:string ;
	bd:format "???"^^xsd:string ;
	bd:notes "???"^^xsd:string ;
	bd:origin ""^^xsd:string ;
	bd:role "???"^^xsd:string ;
	bd:supplementalQualifier "false"^^xsd:string ;
	bd:used "false"^^xsd:string ;
.
:V-MBLOC
	rdf:type bd:Variable ;
	bd:basedOn <http://rdf.cdisc.org/std/sdtmig-3-1-2#Column.MB.MBLOC> ;
	rdfs:label "SDTM Variable"^^xsd:string ;
	bd:core "???"^^xsd:string ;
	bd:datatype "???"^^xsd:string ;
	bd:defaultCommentSet "false"^^xsd:string ;
	bd:defaultComment ""^^xsd:string ;
	bd:length "NN"^^xsd:string ;
	bd:format "???"^^xsd:string ;
	bd:notes "???"^^xsd:string ;
	bd:origin ""^^xsd:string ;
	bd:role "???"^^xsd:string ;
	bd:supplementalQualifier "false"^^xsd:string ;
	bd:used "false"^^xsd:string ;
.
:V-MBLOINC
	rdf:type bd:Variable ;
	bd:basedOn <http://rdf.cdisc.org/std/sdtmig-3-1-2#Column.MB.MBLOINC> ;
	rdfs:label "SDTM Variable"^^xsd:string ;
	bd:core "???"^^xsd:string ;
	bd:datatype "???"^^xsd:string ;
	bd:defaultCommentSet "false"^^xsd:string ;
	bd:defaultComment ""^^xsd:string ;
	bd:length "NN"^^xsd:string ;
	bd:format "???"^^xsd:string ;
	bd:notes "???"^^xsd:string ;
	bd:origin ""^^xsd:string ;
	bd:role "???"^^xsd:string ;
	bd:supplementalQualifier "false"^^xsd:string ;
	bd:used "false"^^xsd:string ;
.
:V-MBMETHOD
	rdf:type bd:Variable ;
	bd:basedOn <http://rdf.cdisc.org/std/sdtmig-3-1-2#Column.MB.MBMETHOD> ;
	rdfs:label "SDTM Variable"^^xsd:string ;
	bd:core "???"^^xsd:string ;
