<?xml version="1.0"?>
<sparql xmlns="http://www.w3.org/2005/sparql-results#">
  <head>
    <variable name="name"/>
    <variable name="subject"/>
    <variable name="domainName"/>
    <variable name="dataset"/>
  </head>
  <results>
    <result>
      <binding name="name">
        <literal datatype="http://www.w3.org/2001/XMLSchema#string">AEACN</literal>
      </binding>
      <binding name="subject">
        <uri>http://rdf.cdisc.org/std/sdtmig-3-1-2#Column.AE.AEACN</uri>
      </binding>
      <binding name="domainName">
        <literal datatype="http://www.w3.org/2001/XMLSchema#string">AE</literal>
      </binding>
      <binding name="dataset">
        <uri>http://rdf.cdisc.org/std/sdtmig-3-1-2#Dataset.AE</uri>
      </binding>
    </result>
    <result>
      <binding name="name">
        <literal datatype="http://www.w3.org/2001/XMLSchema#string">AEACNOTH</literal>
      </binding>
      <binding name="subject">
        <uri>http://rdf.cdisc.org/std/sdtmig-3-1-2#Column.AE.AEACNOTH</uri>
      </binding>
      <binding name="domainName">
        <literal datatype="http://www.w3.org/2001/XMLSchema#string">AE</literal>
      </binding>
      <binding name="dataset">
        <uri>http://rdf.cdisc.org/std/sdtmig-3-1-2#Dataset.AE</uri>
      </binding>
    </result>
    <result>
      <binding name="name">
        <literal datatype="http://www.w3.org/2001/XMLSchema#string">AEBODSYS</literal>
      </binding>
      <binding name="subject">
        <uri>http://rdf.cdisc.org/std/sdtmig-3-1-2#Column.AE.AEBODSYS</uri>
      </binding>
      <binding name="domainName">
        <literal datatype="http://www.w3.org/2001/XMLSchema#string">AE</literal>
      </binding>
      <binding name="dataset">
        <uri>http://rdf.cdisc.org/std/sdtmig-3-1-2#Dataset.AE</uri>
      </binding>
    </result>
    <result>
      <binding name="name">
        <literal datatype="http://www.w3.org/2001/XMLSchema#string">AECAT</literal>
      </binding>
      <binding name="subject">
        <uri>http://rdf.cdisc.org/std/sdtmig-3-1-2#Column.AE.AECAT</uri>
      </binding>
      <binding name="domainName">
        <literal datatype="http://www.w3.org/2001/XMLSchema#string">AE</literal>
      </binding>
      <binding name="dataset">
        <uri>http://rdf.cdisc.org/std/sdtmig-3-1-2#Dataset.AE</uri>
      </binding>
    </result>
    <result>
      <binding name="name">
        <literal datatype="http://www.w3.org/2001/XMLSchema#string">AECONTRT</literal>
      </binding>
      <binding name="subject">
        <uri>http://rdf.cdisc.org/std/sdtmig-3-1-2#Column.AE.AECONTRT</uri>
      </binding>
      <binding name="domainName">
        <literal datatype="http://www.w3.org/2001/XMLSchema#string">AE</literal>
      </binding>
      <binding name="dataset">
        <uri>http://rdf.cdisc.org/std/sdtmig-3-1-2#Dataset.AE</uri>
      </binding>
    </result>
    <result>
      <binding name="name">
        <literal datatype="http://www.w3.org/2001/XMLSchema#string">AEDECOD</literal>
      </binding>
      <binding name="subject">
        <uri>http://rdf.cdisc.org/std/sdtmig-3-1-2#Column.AE.AEDECOD</uri>
      </binding>
      <binding name="domainName">
        <literal datatype="http://www.w3.org/2001/XMLSchema#string">AE</literal>
      </binding>
      <binding name="dataset">
        <uri>http://rdf.cdisc.org/std/sdtmig-3-1-2#Dataset.AE</uri>
      </binding>
    </result>
    <result>
      <binding name="name">
        <literal datatype="http://www.w3.org/2001/XMLSchema#string">AEDUR</literal>
      </binding>
      <binding name="subject">
        <uri>http://rdf.cdisc.org/std/sdtmig-3-1-2#Column.AE.AEDUR</uri>
      </binding>
      <binding name="domainName">
        <literal datatype="http://www.w3.org/2001/XMLSchema#string">AE</literal>
      </binding>
      <binding name="dataset">
        <uri>http://rdf.cdisc.org/std/sdtmig-3-1-2#Dataset.AE</uri>
      </binding>
    </result>
    <result>
      <binding name="name">
        <literal datatype="http://www.w3.org/2001/XMLSchema#string">AEENDTC</literal>
      </binding>
      <binding name="subject">
        <uri>http://rdf.cdisc.org/std/sdtmig-3-1-2#Column.AE.AEENDTC</uri>
      </binding>
      <binding name="domainName">
        <literal datatype="http://www.w3.org/2001/XMLSchema#string">AE</literal>
      </binding>
      <binding name="dataset">
        <uri>http://rdf.cdisc.org/std/sdtmig-3-1-2#Dataset.AE</uri>
      </binding>
    </result>
    <result>
      <binding name="name">
        <literal datatype="http://www.w3.org/2001/XMLSchema#string">AEENDY</literal>
      </binding>
      <binding name="subject">
        <uri>http://rdf.cdisc.org/std/sdtmig-3-1-2#Column.AE.AEENDY</uri>
      </binding>
      <binding name="domainName">
        <literal datatype="http://www.w3.org/2001/XMLSchema#string">AE</literal>
      </binding>
      <binding name="dataset">
        <uri>http://rdf.cdisc.org/std/sdtmig-3-1-2#Dataset.AE</uri>
      </binding>
    </result>
    <result>
      <binding name="name">
        <literal datatype="http://www.w3.org/2001/XMLSchema#string">AEENRF</literal>
      </binding>
      <binding name="subject">
        <uri>http://rdf.cdisc.org/std/sdtmig-3-1-2#Column.AE.AEENRF</uri>
      </binding>
      <binding name="domainName">
        <literal datatype="http://www.w3.org/2001/XMLSchema#string">AE</literal>
      </binding>
      <binding name="dataset">
        <uri>http://rdf.cdisc.org/std/sdtmig-3-1-2#Dataset.AE</uri>
      </binding>
    </result>
    <result>
      <binding name="name">
        <literal datatype="http://www.w3.org/2001/XMLSchema#string">AEENRTPT</literal>
      </binding>
      <binding name="subject">
        <uri>http://rdf.cdisc.org/std/sdtmig-3-1-2#Column.AE.AEENRTPT</uri>
      </binding>
      <binding name="domainName">
        <literal datatype="http://www.w3.org/2001/XMLSchema#string">AE</literal>
      </binding>
      <binding name="dataset">
        <uri>http://rdf.cdisc.org/std/sdtmig-3-1-2#Dataset.AE</uri>
      </binding>
    </result>
    <result>
      <binding name="name">
        <literal datatype="http://www.w3.org/2001/XMLSchema#string">AEENTPT</literal>
      </binding>
      <binding name="subject">
        <uri>http://rdf.cdisc.org/std/sdtmig-3-1-2#Column.AE.AEENTPT</uri>
      </binding>
      <binding name="domainName">
        <literal datatype="http://www.w3.org/2001/XMLSchema#string">AE</literal>
      </binding>
      <binding name="dataset">
        <uri>http://rdf.cdisc.org/std/sdtmig-3-1-2#Dataset.AE</uri>
      </binding>
    </result>
    <result>
      <binding name="name">
        <literal datatype="http://www.w3.org/2001/XMLSchema#string">AEGRPID</literal>
      </binding>
      <binding name="subject">
        <uri>http://rdf.cdisc.org/std/sdtmig-3-1-2#Column.AE.AEGRPID</uri>
      </binding>
      <binding name="domainName">
        <literal datatype="http://www.w3.org/2001/XMLSchema#string">AE</literal>
      </binding>
      <binding name="dataset">
        <uri>http://rdf.cdisc.org/std/sdtmig-3-1-2#Dataset.AE</uri>
      </binding>
    </result>
    <result>
      <binding name="name">
        <literal datatype="http://www.w3.org/2001/XMLSchema#string">AELOC</literal>
      </binding>
      <binding name="subject">
        <uri>http://rdf.cdisc.org/std/sdtmig-3-1-2#Column.AE.AELOC</uri>
      </binding>
      <binding name="domainName">
        <literal datatype="http://www.w3.org/2001/XMLSchema#string">AE</literal>
      </binding>
      <binding name="dataset">
        <uri>http://rdf.cdisc.org/std/sdtmig-3-1-2#Dataset.AE</uri>
      </binding>
    </result>
    <result>
      <binding name="name">
        <literal datatype="http://www.w3.org/2001/XMLSchema#string">AEMODIFY</literal>
      </binding>
      <binding name="subject">
        <uri>http://rdf.cdisc.org/std/sdtmig-3-1-2#Column.AE.AEMODIFY</uri>
      </binding>
      <binding name="domainName">
        <literal datatype="http://www.w3.org/2001/XMLSchema#string">AE</literal>
      </binding>
      <binding name="dataset">
        <uri>http://rdf.cdisc.org/std/sdtmig-3-1-2#Dataset.AE</uri>
      </binding>
    </result>
    <result>
      <binding name="name">
        <literal datatype="http://www.w3.org/2001/XMLSchema#string">AEOUT</literal>
      </binding>
      <binding name="subject">
        <uri>http://rdf.cdisc.org/std/sdtmig-3-1-2#Column.AE.AEOUT</uri>
      </binding>
      <binding name="domainName">
        <literal datatype="http://www.w3.org/2001/XMLSchema#string">AE</literal>
      </binding>
      <binding name="dataset">
        <uri>http://rdf.cdisc.org/std/sdtmig-3-1-2#Dataset.AE</uri>
      </binding>
    </result>
    <result>
      <binding name="name">
        <literal datatype="http://www.w3.org/2001/XMLSchema#string">AEPATT</literal>
      </binding>
      <binding name="subject">
        <uri>http://rdf.cdisc.org/std/sdtmig-3-1-2#Column.AE.AEPATT</uri>
      </binding>
      <binding name="domainName">
        <literal datatype="http://www.w3.org/2001/XMLSchema#string">AE</literal>
      </binding>
      <binding name="dataset">
        <uri>http://rdf.cdisc.org/std/sdtmig-3-1-2#Dataset.AE</uri>
      </binding>
    </result>
    <result>
      <binding name="name">
        <literal datatype="http://www.w3.org/2001/XMLSchema#string">AEPRESP</literal>
      </binding>
      <binding name="subject">
        <uri>http://rdf.cdisc.org/std/sdtmig-3-1-2#Column.AE.AEPRESP</uri>
      </binding>
      <binding name="domainName">
        <literal datatype="http://www.w3.org/2001/XMLSchema#string">AE</literal>
      </binding>
      <binding name="dataset">
        <uri>http://rdf.cdisc.org/std/sdtmig-3-1-2#Dataset.AE</uri>
      </binding>
    </result>
    <result>
      <binding name="name">
        <literal datatype="http://www.w3.org/2001/XMLSchema#string">AEREFID</literal>
      </binding>
      <binding name="subject">
        <uri>http://rdf.cdisc.org/std/sdtmig-3-1-2#Column.AE.AEREFID</uri>
      </binding>
      <binding name="domainName">
        <literal datatype="http://www.w3.org/2001/XMLSchema#string">AE</literal>
      </binding>
      <binding name="dataset">
        <uri>http://rdf.cdisc.org/std/sdtmig-3-1-2#Dataset.AE</uri>
      </binding>
    </result>
    <result>
      <binding name="name">
        <literal datatype="http://www.w3.org/2001/XMLSchema#string">AEREL</literal>
      </binding>
      <binding name="subject">
        <uri>http://rdf.cdisc.org/std/sdtmig-3-1-2#Column.AE.AEREL</uri>
      </binding>
      <binding name="domainName">
        <literal datatype="http://www.w3.org/2001/XMLSchema#string">AE</literal>
      </binding>
      <binding name="dataset">
        <uri>http://rdf.cdisc.org/std/sdtmig-3-1-2#Dataset.AE</uri>
      </binding>
    </result>
    <result>
      <binding name="name">
        <literal datatype="http://www.w3.org/2001/XMLSchema#string">AERELNST</literal>
      </binding>
      <binding name="subject">
        <uri>http://rdf.cdisc.org/std/sdtmig-3-1-2#Column.AE.AERELNST</uri>
      </binding>
      <binding name="domainName">
        <literal datatype="http://www.w3.org/2001/XMLSchema#string">AE</literal>
      </binding>
      <binding name="dataset">
        <uri>http://rdf.cdisc.org/std/sdtmig-3-1-2#Dataset.AE</uri>
      </binding>
    </result>
    <result>
      <binding name="name">
        <literal datatype="http://www.w3.org/2001/XMLSchema#string">AESCAN</literal>
      </binding>
      <binding name="subject">
        <uri>http://rdf.cdisc.org/std/sdtmig-3-1-2#Column.AE.AESCAN</uri>
      </binding>
      <binding name="domainName">
        <literal datatype="http://www.w3.org/2001/XMLSchema#string">AE</literal>
      </binding>
      <binding name="dataset">
        <uri>http://rdf.cdisc.org/std/sdtmig-3-1-2#Dataset.AE</uri>
      </binding>
    </result>
    <result>
      <binding name="name">
        <literal datatype="http://www.w3.org/2001/XMLSchema#string">AESCAT</literal>
      </binding>
      <binding name="subject">
        <uri>http://rdf.cdisc.org/std/sdtmig-3-1-2#Column.AE.AESCAT</uri>
      </binding>
      <binding name="domainName">
        <literal datatype="http://www.w3.org/2001/XMLSchema#string">AE</literal>
      </binding>
      <binding name="dataset">
        <uri>http://rdf.cdisc.org/std/sdtmig-3-1-2#Dataset.AE</uri>
      </binding>
    </result>
    <result>
      <binding name="name">
        <literal datatype="http://www.w3.org/2001/XMLSchema#string">AESCONG</literal>
      </binding>
      <binding name="subject">
        <uri>http://rdf.cdisc.org/std/sdtmig-3-1-2#Column.AE.AESCONG</uri>
      </binding>
      <binding name="domainName">
        <literal datatype="http://www.w3.org/2001/XMLSchema#string">AE</literal>
      </binding>
      <binding name="dataset">
        <uri>http://rdf.cdisc.org/std/sdtmig-3-1-2#Dataset.AE</uri>
      </binding>
    </result>
    <result>
      <binding name="name">
        <literal datatype="http://www.w3.org/2001/XMLSchema#string">AESDISAB</literal>
      </binding>
      <binding name="subject">
        <uri>http://rdf.cdisc.org/std/sdtmig-3-1-2#Column.AE.AESDISAB</uri>
      </binding>
      <binding name="domainName">
        <literal datatype="http://www.w3.org/2001/XMLSchema#string">AE</literal>
      </binding>
      <binding name="dataset">
        <uri>http://rdf.cdisc.org/std/sdtmig-3-1-2#Dataset.AE</uri>
      </binding>
    </result>
    <result>
      <binding name="name">
        <literal datatype="http://www.w3.org/2001/XMLSchema#string">AESDTH</literal>
      </binding>
      <binding name="subject">
        <uri>http://rdf.cdisc.org/std/sdtmig-3-1-2#Column.AE.AESDTH</uri>
      </binding>
      <binding name="domainName">
        <literal datatype="http://www.w3.org/2001/XMLSchema#string">AE</literal>
      </binding>
      <binding name="dataset">
        <uri>http://rdf.cdisc.org/std/sdtmig-3-1-2#Dataset.AE</uri>
      </binding>
    </result>
    <result>
      <binding name="name">
        <literal datatype="http://www.w3.org/2001/XMLSchema#string">AESEQ</literal>
      </binding>
      <binding name="subject">
        <uri>http://rdf.cdisc.org/std/sdtmig-3-1-2#Column.AE.AESEQ</uri>
      </binding>
      <binding name="domainName">
        <literal datatype="http://www.w3.org/2001/XMLSchema#string">AE</literal>
      </binding>
      <binding name="dataset">
        <uri>http://rdf.cdisc.org/std/sdtmig-3-1-2#Dataset.AE</uri>
      </binding>
    </result>
    <result>
      <binding name="name">
        <literal datatype="http://www.w3.org/2001/XMLSchema#string">AESER</literal>
      </binding>
      <binding name="subject">
        <uri>http://rdf.cdisc.org/std/sdtmig-3-1-2#Column.AE.AESER</uri>
      </binding>
      <binding name="domainName">
        <literal datatype="http://www.w3.org/2001/XMLSchema#string">AE</literal>
      </binding>
      <binding name="dataset">
        <uri>http://rdf.cdisc.org/std/sdtmig-3-1-2#Dataset.AE</uri>
      </binding>
    </result>
    <result>
      <binding name="name">
        <literal datatype="http://www.w3.org/2001/XMLSchema#string">AESEV</literal>
      </binding>
      <binding name="subject">
        <uri>http://rdf.cdisc.org/std/sdtmig-3-1-2#Column.AE.AESEV</uri>
      </binding>
      <binding name="domainName">
        <literal datatype="http://www.w3.org/2001/XMLSchema#string">AE</literal>
      </binding>
      <binding name="dataset">
        <uri>http://rdf.cdisc.org/std/sdtmig-3-1-2#Dataset.AE</uri>
      </binding>
    </result>
    <result>
      <binding name="name">
        <literal datatype="http://www.w3.org/2001/XMLSchema#string">AESHOSP</literal>
      </binding>
      <binding name="subject">
        <uri>http://rdf.cdisc.org/std/sdtmig-3-1-2#Column.AE.AESHOSP</uri>
      </binding>
      <binding name="domainName">
        <literal datatype="http://www.w3.org/2001/XMLSchema#string">AE</literal>
      </binding>
      <binding name="dataset">
        <uri>http://rdf.cdisc.org/std/sdtmig-3-1-2#Dataset.AE</uri>
      </binding>
    </result>
    <result>
      <binding name="name">
        <literal datatype="http://www.w3.org/2001/XMLSchema#string">AESLIFE</literal>
      </binding>
      <binding name="subject">
        <uri>http://rdf.cdisc.org/std/sdtmig-3-1-2#Column.AE.AESLIFE</uri>
      </binding>
      <binding name="domainName">
        <literal datatype="http://www.w3.org/2001/XMLSchema#string">AE</literal>
      </binding>
      <binding name="dataset">
        <uri>http://rdf.cdisc.org/std/sdtmig-3-1-2#Dataset.AE</uri>
      </binding>
    </result>
    <result>
      <binding name="name">
        <literal datatype="http://www.w3.org/2001/XMLSchema#string">AESMIE</literal>
      </binding>
      <binding name="subject">
        <uri>http://rdf.cdisc.org/std/sdtmig-3-1-2#Column.AE.AESMIE</uri>
      </binding>
      <binding name="domainName">
        <literal datatype="http://www.w3.org/2001/XMLSchema#string">AE</literal>
      </binding>
      <binding name="dataset">
        <uri>http://rdf.cdisc.org/std/sdtmig-3-1-2#Dataset.AE</uri>
      </binding>
    </result>
    <result>
      <binding name="name">
        <literal datatype="http://www.w3.org/2001/XMLSchema#string">AESOD</literal>
      </binding>
      <binding name="subject">
        <uri>http://rdf.cdisc.org/std/sdtmig-3-1-2#Column.AE.AESOD</uri>
      </binding>
      <binding name="domainName">
        <literal datatype="http://www.w3.org/2001/XMLSchema#string">AE</literal>
      </binding>
      <binding name="dataset">
        <uri>http://rdf.cdisc.org/std/sdtmig-3-1-2#Dataset.AE</uri>
      </binding>
    </result>
    <result>
      <binding name="name">
        <literal datatype="http://www.w3.org/2001/XMLSchema#string">AESPID</literal>
      </binding>
      <binding name="subject">
        <uri>http://rdf.cdisc.org/std/sdtmig-3-1-2#Column.AE.AESPID</uri>
      </binding>
      <binding name="domainName">
        <literal datatype="http://www.w3.org/2001/XMLSchema#string">AE</literal>
      </binding>
      <binding name="dataset">
        <uri>http://rdf.cdisc.org/std/sdtmig-3-1-2#Dataset.AE</uri>
      </binding>
    </result>
    <result>
      <binding name="name">
        <literal datatype="http://www.w3.org/2001/XMLSchema#string">AESTDTC</literal>
      </binding>
      <binding name="subject">
        <uri>http://rdf.cdisc.org/std/sdtmig-3-1-2#Column.AE.AESTDTC</uri>
      </binding>
      <binding name="domainName">
        <literal datatype="http://www.w3.org/2001/XMLSchema#string">AE</literal>
      </binding>
      <binding name="dataset">
        <uri>http://rdf.cdisc.org/std/sdtmig-3-1-2#Dataset.AE</uri>
      </binding>
    </result>
    <result>
      <binding name="name">
        <literal datatype="http://www.w3.org/2001/XMLSchema#string">AESTDY</literal>
      </binding>
      <binding name="subject">
        <uri>http://rdf.cdisc.org/std/sdtmig-3-1-2#Column.AE.AESTDY</uri>
      </binding>
      <binding name="domainName">
        <literal datatype="http://www.w3.org/2001/XMLSchema#string">AE</literal>
      </binding>
      <binding name="dataset">
        <uri>http://rdf.cdisc.org/std/sdtmig-3-1-2#Dataset.AE</uri>
      </binding>
    </result>
    <result>
      <binding name="name">
        <literal datatype="http://www.w3.org/2001/XMLSchema#string">AETERM</literal>
      </binding>
      <binding name="subject">
        <uri>http://rdf.cdisc.org/std/sdtmig-3-1-2#Column.AE.AETERM</uri>
      </binding>
      <binding name="domainName">
        <literal datatype="http://www.w3.org/2001/XMLSchema#string">AE</literal>
      </binding>
      <binding name="dataset">
        <uri>http://rdf.cdisc.org/std/sdtmig-3-1-2#Dataset.AE</uri>
      </binding>
    </result>
    <result>
      <binding name="name">
        <literal datatype="http://www.w3.org/2001/XMLSchema#string">AETOXGR</literal>
      </binding>
      <binding name="subject">
        <uri>http://rdf.cdisc.org/std/sdtmig-3-1-2#Column.AE.AETOXGR</uri>
      </binding>
      <binding name="domainName">
        <literal datatype="http://www.w3.org/2001/XMLSchema#string">AE</literal>
      </binding>
      <binding name="dataset">
        <uri>http://rdf.cdisc.org/std/sdtmig-3-1-2#Dataset.AE</uri>
      </binding>
    </result>
    <result>
      <binding name="name">
        <literal datatype="http://www.w3.org/2001/XMLSchema#string">DOMAIN</literal>
      </binding>
      <binding name="subject">
        <uri>http://rdf.cdisc.org/std/sdtmig-3-1-2#Column.AE.DOMAIN</uri>
      </binding>
      <binding name="domainName">
        <literal datatype="http://www.w3.org/2001/XMLSchema#string">AE</literal>
      </binding>
      <binding name="dataset">
        <uri>http://rdf.cdisc.org/std/sdtmig-3-1-2#Dataset.AE</uri>
      </binding>
    </result>
    <result>
      <binding name="name">
        <literal datatype="http://www.w3.org/2001/XMLSchema#string">STUDYID</literal>
      </binding>
      <binding name="subject">
        <uri>http://rdf.cdisc.org/std/sdtmig-3-1-2#Column.AE.STUDYID</uri>
      </binding>
      <binding name="domainName">
        <literal datatype="http://www.w3.org/2001/XMLSchema#string">AE</literal>
      </binding>
      <binding name="dataset">
        <uri>http://rdf.cdisc.org/std/sdtmig-3-1-2#Dataset.AE</uri>
      </binding>
    </result>
    <result>
      <binding name="name">
        <literal datatype="http://www.w3.org/2001/XMLSchema#string">USUBJID</literal>
      </binding>
      <binding name="subject">
        <uri>http://rdf.cdisc.org/std/sdtmig-3-1-2#Column.AE.USUBJID</uri>
      </binding>
      <binding name="domainName">
        <literal datatype="http://www.w3.org/2001/XMLSchema#string">AE</literal>
      </binding>
      <binding name="dataset">
        <uri>http://rdf.cdisc.org/std/sdtmig-3-1-2#Dataset.AE</uri>
      </binding>
    </result>
    <result>
      <binding name="name">
        <literal datatype="http://www.w3.org/2001/XMLSchema#string">CEBODSYS</literal>
      </binding>
      <binding name="subject">
        <uri>http://rdf.cdisc.org/std/sdtmig-3-1-2#Column.CE.CEBODSYS</uri>
      </binding>
      <binding name="domainName">
        <literal datatype="http://www.w3.org/2001/XMLSchema#string">CE</literal>
      </binding>
      <binding name="dataset">
        <uri>http://rdf.cdisc.org/std/sdtmig-3-1-2#Dataset.CE</uri>
      </binding>
    </result>
    <result>
      <binding name="name">
        <literal datatype="http://www.w3.org/2001/XMLSchema#string">CECAT</literal>
      </binding>
      <binding name="subject">
        <uri>http://rdf.cdisc.org/std/sdtmig-3-1-2#Column.CE.CECAT</uri>
      </binding>
      <binding name="domainName">
        <literal datatype="http://www.w3.org/2001/XMLSchema#string">CE</literal>
      </binding>
      <binding name="dataset">
        <uri>http://rdf.cdisc.org/std/sdtmig-3-1-2#Dataset.CE</uri>
      </binding>
    </result>
    <result>
      <binding name="name">
        <literal datatype="http://www.w3.org/2001/XMLSchema#string">CEDECOD</literal>
      </binding>
      <binding name="subject">
        <uri>http://rdf.cdisc.org/std/sdtmig-3-1-2#Column.CE.CEDECOD</uri>
      </binding>
      <binding name="domainName">
        <literal datatype="http://www.w3.org/2001/XMLSchema#string">CE</literal>
      </binding>
      <binding name="dataset">
        <uri>http://rdf.cdisc.org/std/sdtmig-3-1-2#Dataset.CE</uri>
      </binding>
    </result>
    <result>
      <binding name="name">
        <literal datatype="http://www.w3.org/2001/XMLSchema#string">CEDTC</literal>
      </binding>
      <binding name="subject">
        <uri>http://rdf.cdisc.org/std/sdtmig-3-1-2#Column.CE.CEDTC</uri>
      </binding>
      <binding name="domainName">
        <literal datatype="http://www.w3.org/2001/XMLSchema#string">CE</literal>
      </binding>
      <binding name="dataset">
        <uri>http://rdf.cdisc.org/std/sdtmig-3-1-2#Dataset.CE</uri>
      </binding>
    </result>
    <result>
      <binding name="name">
        <literal datatype="http://www.w3.org/2001/XMLSchema#string">CEDY</literal>
      </binding>
      <binding name="subject">
        <uri>http://rdf.cdisc.org/std/sdtmig-3-1-2#Column.CE.CEDY</uri>
      </binding>
      <binding name="domainName">
        <literal datatype="http://www.w3.org/2001/XMLSchema#string">CE</literal>
      </binding>
      <binding name="dataset">
        <uri>http://rdf.cdisc.org/std/sdtmig-3-1-2#Dataset.CE</uri>
      </binding>
    </result>
    <result>
      <binding name="name">
        <literal datatype="http://www.w3.org/2001/XMLSchema#string">CEENDTC</literal>
      </binding>
      <binding name="subject">
        <uri>http://rdf.cdisc.org/std/sdtmig-3-1-2#Column.CE.CEENDTC</uri>
      </binding>
      <binding name="domainName">
        <literal datatype="http://www.w3.org/2001/XMLSchema#string">CE</literal>
      </binding>
      <binding name="dataset">
        <uri>http://rdf.cdisc.org/std/sdtmig-3-1-2#Dataset.CE</uri>
      </binding>
    </result>
    <result>
      <binding name="name">
        <literal datatype="http://www.w3.org/2001/XMLSchema#string">CEENRF</literal>
      </binding>
      <binding name="subject">
        <uri>http://rdf.cdisc.org/std/sdtmig-3-1-2#Column.CE.CEENRF</uri>
      </binding>
      <binding name="domainName">
        <literal datatype="http://www.w3.org/2001/XMLSchema#string">CE</literal>
      </binding>
      <binding name="dataset">
        <uri>http://rdf.cdisc.org/std/sdtmig-3-1-2#Dataset.CE</uri>
      </binding>
    </result>
    <result>
      <binding name="name">
        <literal datatype="http://www.w3.org/2001/XMLSchema#string">CEENRTPT</literal>
      </binding>
      <binding name="subject">
        <uri>http://rdf.cdisc.org/std/sdtmig-3-1-2#Column.CE.CEENRTPT</uri>
      </binding>
      <binding name="domainName">
        <literal datatype="http://www.w3.org/2001/XMLSchema#string">CE</literal>
      </binding>
      <binding name="dataset">
        <uri>http://rdf.cdisc.org/std/sdtmig-3-1-2#Dataset.CE</uri>
      </binding>
    </result>
    <result>
      <binding name="name">
        <literal datatype="http://www.w3.org/2001/XMLSchema#string">CEENTPT</literal>
      </binding>
      <binding name="subject">
        <uri>http://rdf.cdisc.org/std/sdtmig-3-1-2#Column.CE.CEENTPT</uri>
      </binding>
      <binding name="domainName">
        <literal datatype="http://www.w3.org/2001/XMLSchema#string">CE</literal>
      </binding>
      <binding name="dataset">
        <uri>http://rdf.cdisc.org/std/sdtmig-3-1-2#Dataset.CE</uri>
      </binding>
    </result>
    <result>
      <binding name="name">
        <literal datatype="http://www.w3.org/2001/XMLSchema#string">CEGRPID</literal>
      </binding>
      <binding name="subject">
        <uri>http://rdf.cdisc.org/std/sdtmig-3-1-2#Column.CE.CEGRPID</uri>
      </binding>
      <binding name="domainName">
        <literal datatype="http://www.w3.org/2001/XMLSchema#string">CE</literal>
      </binding>
      <binding name="dataset">
        <uri>http://rdf.cdisc.org/std/sdtmig-3-1-2#Dataset.CE</uri>
      </binding>
    </result>
    <result>
      <binding name="name">
        <literal datatype="http://www.w3.org/2001/XMLSchema#string">CEOCCUR</literal>
      </binding>
      <binding name="subject">
        <uri>http://rdf.cdisc.org/std/sdtmig-3-1-2#Column.CE.CEOCCUR</uri>
      </binding>
      <binding name="domainName">
        <literal datatype="http://www.w3.org/2001/XMLSchema#string">CE</literal>
      </binding>
      <binding name="dataset">
        <uri>http://rdf.cdisc.org/std/sdtmig-3-1-2#Dataset.CE</uri>
      </binding>
    </result>
    <result>
      <binding name="name">
        <literal datatype="http://www.w3.org/2001/XMLSchema#string">CEPRESP</literal>
      </binding>
      <binding name="subject">
        <uri>http://rdf.cdisc.org/std/sdtmig-3-1-2#Column.CE.CEPRESP</uri>
      </binding>
      <binding name="domainName">
        <literal datatype="http://www.w3.org/2001/XMLSchema#string">CE</literal>
      </binding>
      <binding name="dataset">
        <uri>http://rdf.cdisc.org/std/sdtmig-3-1-2#Dataset.CE</uri>
      </binding>
    </result>
    <result>
      <binding name="name">
        <literal datatype="http://www.w3.org/2001/XMLSchema#string">CEREASND</literal>
      </binding>
      <binding name="subject">
        <uri>http://rdf.cdisc.org/std/sdtmig-3-1-2#Column.CE.CEREASND</uri>
      </binding>
      <binding name="domainName">
        <literal datatype="http://www.w3.org/2001/XMLSchema#string">CE</literal>
      </binding>
      <binding name="dataset">
        <uri>http://rdf.cdisc.org/std/sdtmig-3-1-2#Dataset.CE</uri>
      </binding>
    </result>
    <result>
      <binding name="name">
        <literal datatype="http://www.w3.org/2001/XMLSchema#string">CEREFID</literal>
      </binding>
      <binding name="subject">
        <uri>http://rdf.cdisc.org/std/sdtmig-3-1-2#Column.CE.CEREFID</uri>
      </binding>
      <binding name="domainName">
        <literal datatype="http://www.w3.org/2001/XMLSchema#string">CE</literal>
      </binding>
      <binding name="dataset">
        <uri>http://rdf.cdisc.org/std/sdtmig-3-1-2#Dataset.CE</uri>
      </binding>
    </result>
    <result>
      <binding name="name">
        <literal datatype="http://www.w3.org/2001/XMLSchema#string">CESCAT</literal>
      </binding>
      <binding name="subject">
        <uri>http://rdf.cdisc.org/std/sdtmig-3-1-2#Column.CE.CESCAT</uri>
      </binding>
      <binding name="domainName">
        <literal datatype="http://www.w3.org/2001/XMLSchema#string">CE</literal>
      </binding>
      <binding name="dataset">
        <uri>http://rdf.cdisc.org/std/sdtmig-3-1-2#Dataset.CE</uri>
      </binding>
    </result>
    <result>
      <binding name="name">
        <literal datatype="http://www.w3.org/2001/XMLSchema#string">CESEQ</literal>
      </binding>
      <binding name="subject">
        <uri>http://rdf.cdisc.org/std/sdtmig-3-1-2#Column.CE.CESEQ</uri>
      </binding>
      <binding name="domainName">
        <literal datatype="http://www.w3.org/2001/XMLSchema#string">CE</literal>
      </binding>
      <binding name="dataset">
        <uri>http://rdf.cdisc.org/std/sdtmig-3-1-2#Dataset.CE</uri>
      </binding>
    </result>
    <result>
      <binding name="name">
        <literal datatype="http://www.w3.org/2001/XMLSchema#string">CESEV</literal>
      </binding>
      <binding name="subject">
        <uri>http://rdf.cdisc.org/std/sdtmig-3-1-2#Column.CE.CESEV</uri>
      </binding>
      <binding name="domainName">
        <literal datatype="http://www.w3.org/2001/XMLSchema#string">CE</literal>
      </binding>
      <binding name="dataset">
        <uri>http://rdf.cdisc.org/std/sdtmig-3-1-2#Dataset.CE</uri>
      </binding>
    </result>
    <result>
      <binding name="name">
        <literal datatype="http://www.w3.org/2001/XMLSchema#string">CESPID</literal>
      </binding>
      <binding name="subject">
        <uri>http://rdf.cdisc.org/std/sdtmig-3-1-2#Column.CE.CESPID</uri>
      </binding>
      <binding name="domainName">
        <literal datatype="http://www.w3.org/2001/XMLSchema#string">CE</literal>
      </binding>
      <binding name="dataset">
        <uri>http://rdf.cdisc.org/std/sdtmig-3-1-2#Dataset.CE</uri>
      </binding>
    </result>
    <result>
      <binding name="name">
        <literal datatype="http://www.w3.org/2001/XMLSchema#string">CESTAT</literal>
      </binding>
      <binding name="subject">
        <uri>http://rdf.cdisc.org/std/sdtmig-3-1-2#Column.CE.CESTAT</uri>
      </binding>
      <binding name="domainName">
        <literal datatype="http://www.w3.org/2001/XMLSchema#string">CE</literal>
      </binding>
      <binding name="dataset">
        <uri>http://rdf.cdisc.org/std/sdtmig-3-1-2#Dataset.CE</uri>
      </binding>
    </result>
    <result>
      <binding name="name">
        <literal datatype="http://www.w3.org/2001/XMLSchema#string">CESTDTC</literal>
      </binding>
      <binding name="subject">
        <uri>http://rdf.cdisc.org/std/sdtmig-3-1-2#Column.CE.CESTDTC</uri>
      </binding>
      <binding name="domainName">
        <literal datatype="http://www.w3.org/2001/XMLSchema#string">CE</literal>
      </binding>
      <binding name="dataset">
        <uri>http://rdf.cdisc.org/std/sdtmig-3-1-2#Dataset.CE</uri>
      </binding>
    </result>
    <result>
      <binding name="name">
        <literal datatype="http://www.w3.org/2001/XMLSchema#string">CESTRF</literal>
      </binding>
      <binding name="subject">
        <uri>http://rdf.cdisc.org/std/sdtmig-3-1-2#Column.CE.CESTRF</uri>
      </binding>
      <binding name="domainName">
        <literal datatype="http://www.w3.org/2001/XMLSchema#string">CE</literal>
      </binding>
      <binding name="dataset">
        <uri>http://rdf.cdisc.org/std/sdtmig-3-1-2#Dataset.CE</uri>
      </binding>
    </result>
    <result>
      <binding name="name">
        <literal datatype="http://www.w3.org/2001/XMLSchema#string">CESTRTPT</literal>
      </binding>
      <binding name="subject">
        <uri>http://rdf.cdisc.org/std/sdtmig-3-1-2#Column.CE.CESTRTPT</uri>
      </binding>
      <binding name="domainName">
        <literal datatype="http://www.w3.org/2001/XMLSchema#string">CE</literal>
      </binding>
      <binding name="dataset">
        <uri>http://rdf.cdisc.org/std/sdtmig-3-1-2#Dataset.CE</uri>
      </binding>
    </result>
    <result>
      <binding name="name">
        <literal datatype="http://www.w3.org/2001/XMLSchema#string">CESTTPT</literal>
      </binding>
      <binding name="subject">
        <uri>http://rdf.cdisc.org/std/sdtmig-3-1-2#Column.CE.CESTTPT</uri>
      </binding>
      <binding name="domainName">
        <literal datatype="http://www.w3.org/2001/XMLSchema#string">CE</literal>
      </binding>
      <binding name="dataset">
        <uri>http://rdf.cdisc.org/std/sdtmig-3-1-2#Dataset.CE</uri>
      </binding>
    </result>
    <result>
      <binding name="name">
        <literal datatype="http://www.w3.org/2001/XMLSchema#string">CETERM</literal>
      </binding>
      <binding name="subject">
        <uri>http://rdf.cdisc.org/std/sdtmig-3-1-2#Column.CE.CETERM</uri>
      </binding>
      <binding name="domainName">
        <literal datatype="http://www.w3.org/2001/XMLSchema#string">CE</literal>
      </binding>
      <binding name="dataset">
        <uri>http://rdf.cdisc.org/std/sdtmig-3-1-2#Dataset.CE</uri>
      </binding>
    </result>
    <result>
      <binding name="name">
        <literal datatype="http://www.w3.org/2001/XMLSchema#string">DOMAIN</literal>
      </binding>
      <binding name="subject">
        <uri>http://rdf.cdisc.org/std/sdtmig-3-1-2#Column.CE.DOMAIN</uri>
      </binding>
      <binding name="domainName">
        <literal datatype="http://www.w3.org/2001/XMLSchema#string">CE</literal>
      </binding>
      <binding name="dataset">
        <uri>http://rdf.cdisc.org/std/sdtmig-3-1-2#Dataset.CE</uri>
      </binding>
    </result>
    <result>
      <binding name="name">
        <literal datatype="http://www.w3.org/2001/XMLSchema#string">STUDYID</literal>
      </binding>
      <binding name="subject">
        <uri>http://rdf.cdisc.org/std/sdtmig-3-1-2#Column.CE.STUDYID</uri>
      </binding>
      <binding name="domainName">
        <literal datatype="http://www.w3.org/2001/XMLSchema#string">CE</literal>
      </binding>
      <binding name="dataset">
        <uri>http://rdf.cdisc.org/std/sdtmig-3-1-2#Dataset.CE</uri>
      </binding>
    </result>
    <result>
      <binding name="name">
        <literal datatype="http://www.w3.org/2001/XMLSchema#string">USUBJID</literal>
      </binding>
      <binding name="subject">
        <uri>http://rdf.cdisc.org/std/sdtmig-3-1-2#Column.CE.USUBJID</uri>
      </binding>
      <binding name="domainName">
        <literal datatype="http://www.w3.org/2001/XMLSchema#string">CE</literal>
      </binding>
      <binding name="dataset">
        <uri>http://rdf.cdisc.org/std/sdtmig-3-1-2#Dataset.CE</uri>
      </binding>
    </result>
    <result>
      <binding name="name">
        <literal datatype="http://www.w3.org/2001/XMLSchema#string">CMCAT</literal>
      </binding>
      <binding name="subject">
        <uri>http://rdf.cdisc.org/std/sdtmig-3-1-2#Column.CM.CMCAT</uri>
      </binding>
      <binding name="domainName">
        <literal datatype="http://www.w3.org/2001/XMLSchema#string">CM</literal>
      </binding>
      <binding name="dataset">
        <uri>http://rdf.cdisc.org/std/sdtmig-3-1-2#Dataset.CM</uri>
      </binding>
    </result>
    <result>
      <binding name="name">
        <literal datatype="http://www.w3.org/2001/XMLSchema#string">CMCLAS</literal>
      </binding>
      <binding name="subject">
        <uri>http://rdf.cdisc.org/std/sdtmig-3-1-2#Column.CM.CMCLAS</uri>
      </binding>
      <binding name="domainName">
        <literal datatype="http://www.w3.org/2001/XMLSchema#string">CM</literal>
      </binding>
      <binding name="dataset">
        <uri>http://rdf.cdisc.org/std/sdtmig-3-1-2#Dataset.CM</uri>
      </binding>
    </result>
    <result>
      <binding name="name">
        <literal datatype="http://www.w3.org/2001/XMLSchema#string">CMCLASCD</literal>
      </binding>
      <binding name="subject">
        <uri>http://rdf.cdisc.org/std/sdtmig-3-1-2#Column.CM.CMCLASCD</uri>
      </binding>
      <binding name="domainName">
        <literal datatype="http://www.w3.org/2001/XMLSchema#string">CM</literal>
      </binding>
      <binding name="dataset">
        <uri>http://rdf.cdisc.org/std/sdtmig-3-1-2#Dataset.CM</uri>
      </binding>
    </result>
    <result>
      <binding name="name">
        <literal datatype="http://www.w3.org/2001/XMLSchema#string">CMDECOD</literal>
      </binding>
      <binding name="subject">
        <uri>http://rdf.cdisc.org/std/sdtmig-3-1-2#Column.CM.CMDECOD</uri>
      </binding>
      <binding name="domainName">
        <literal datatype="http://www.w3.org/2001/XMLSchema#string">CM</literal>
      </binding>
      <binding name="dataset">
        <uri>http://rdf.cdisc.org/std/sdtmig-3-1-2#Dataset.CM</uri>
      </binding>
    </result>
    <result>
      <binding name="name">
        <literal datatype="http://www.w3.org/2001/XMLSchema#string">CMDOSE</literal>
      </binding>
      <binding name="subject">
        <uri>http://rdf.cdisc.org/std/sdtmig-3-1-2#Column.CM.CMDOSE</uri>
      </binding>
      <binding name="domainName">
        <literal datatype="http://www.w3.org/2001/XMLSchema#string">CM</literal>
      </binding>
      <binding name="dataset">
        <uri>http://rdf.cdisc.org/std/sdtmig-3-1-2#Dataset.CM</uri>
      </binding>
    </result>
    <result>
      <binding name="name">
        <literal datatype="http://www.w3.org/2001/XMLSchema#string">CMDOSFRM</literal>
      </binding>
      <binding name="subject">
        <uri>http://rdf.cdisc.org/std/sdtmig-3-1-2#Column.CM.CMDOSFRM</uri>
      </binding>
      <binding name="domainName">
        <literal datatype="http://www.w3.org/2001/XMLSchema#string">CM</literal>
      </binding>
      <binding name="dataset">
        <uri>http://rdf.cdisc.org/std/sdtmig-3-1-2#Dataset.CM</uri>
      </binding>
    </result>
    <result>
      <binding name="name">
        <literal datatype="http://www.w3.org/2001/XMLSchema#string">CMDOSFRQ</literal>
      </binding>
      <binding name="subject">
        <uri>http://rdf.cdisc.org/std/sdtmig-3-1-2#Column.CM.CMDOSFRQ</uri>
      </binding>
      <binding name="domainName">
        <literal datatype="http://www.w3.org/2001/XMLSchema#string">CM</literal>
      </binding>
      <binding name="dataset">
        <uri>http://rdf.cdisc.org/std/sdtmig-3-1-2#Dataset.CM</uri>
      </binding>
    </result>
    <result>
      <binding name="name">
        <literal datatype="http://www.w3.org/2001/XMLSchema#string">CMDOSRGM</literal>
      </binding>
      <binding name="subject">
        <uri>http://rdf.cdisc.org/std/sdtmig-3-1-2#Column.CM.CMDOSRGM</uri>
      </binding>
      <binding name="domainName">
        <literal datatype="http://www.w3.org/2001/XMLSchema#string">CM</literal>
      </binding>
      <binding name="dataset">
        <uri>http://rdf.cdisc.org/std/sdtmig-3-1-2#Dataset.CM</uri>
      </binding>
    </result>
    <result>
      <binding name="name">
        <literal datatype="http://www.w3.org/2001/XMLSchema#string">CMDOSTOT</literal>
      </binding>
      <binding name="subject">
        <uri>http://rdf.cdisc.org/std/sdtmig-3-1-2#Column.CM.CMDOSTOT</uri>
      </binding>
      <binding name="domainName">
        <literal datatype="http://www.w3.org/2001/XMLSchema#string">CM</literal>
      </binding>
      <binding name="dataset">
        <uri>http://rdf.cdisc.org/std/sdtmig-3-1-2#Dataset.CM</uri>
      </binding>
    </result>
    <result>
      <binding name="name">
        <literal datatype="http://www.w3.org/2001/XMLSchema#string">CMDOSTXT</literal>
      </binding>
      <binding name="subject">
        <uri>http://rdf.cdisc.org/std/sdtmig-3-1-2#Column.CM.CMDOSTXT</uri>
      </binding>
      <binding name="domainName">
        <literal datatype="http://www.w3.org/2001/XMLSchema#string">CM</literal>
      </binding>
      <binding name="dataset">
        <uri>http://rdf.cdisc.org/std/sdtmig-3-1-2#Dataset.CM</uri>
      </binding>
    </result>
    <result>
      <binding name="name">
        <literal datatype="http://www.w3.org/2001/XMLSchema#string">CMDOSU</literal>
      </binding>
      <binding name="subject">
        <uri>http://rdf.cdisc.org/std/sdtmig-3-1-2#Column.CM.CMDOSU</uri>
      </binding>
      <binding name="domainName">
        <literal datatype="http://www.w3.org/2001/XMLSchema#string">CM</literal>
      </binding>
      <binding name="dataset">
        <uri>http://rdf.cdisc.org/std/sdtmig-3-1-2#Dataset.CM</uri>
      </binding>
    </result>
    <result>
      <binding name="name">
        <literal datatype="http://www.w3.org/2001/XMLSchema#string">CMDUR</literal>
      </binding>
      <binding name="subject">
        <uri>http://rdf.cdisc.org/std/sdtmig-3-1-2#Column.CM.CMDUR</uri>
      </binding>
      <binding name="domainName">
        <literal datatype="http://www.w3.org/2001/XMLSchema#string">CM</literal>
      </binding>
      <binding name="dataset">
        <uri>http://rdf.cdisc.org/std/sdtmig-3-1-2#Dataset.CM</uri>
      </binding>
    </result>
    <result>
      <binding name="name">
        <literal datatype="http://www.w3.org/2001/XMLSchema#string">CMENDTC</literal>
      </binding>
      <binding name="subject">
        <uri>http://rdf.cdisc.org/std/sdtmig-3-1-2#Column.CM.CMENDTC</uri>
      </binding>
      <binding name="domainName">
        <literal datatype="http://www.w3.org/2001/XMLSchema#string">CM</literal>
      </binding>
      <binding name="dataset">
        <uri>http://rdf.cdisc.org/std/sdtmig-3-1-2#Dataset.CM</uri>
      </binding>
    </result>
    <result>
      <binding name="name">
        <literal datatype="http://www.w3.org/2001/XMLSchema#string">CMENDY</literal>
      </binding>
      <binding name="subject">
        <uri>http://rdf.cdisc.org/std/sdtmig-3-1-2#Column.CM.CMENDY</uri>
      </binding>
      <binding name="domainName">
        <literal datatype="http://www.w3.org/2001/XMLSchema#string">CM</literal>
      </binding>
      <binding name="dataset">
        <uri>http://rdf.cdisc.org/std/sdtmig-3-1-2#Dataset.CM</uri>
      </binding>
    </result>
    <result>
      <binding name="name">
        <literal datatype="http://www.w3.org/2001/XMLSchema#string">CMENRF</literal>
      </binding>
      <binding name="subject">
        <uri>http://rdf.cdisc.org/std/sdtmig-3-1-2#Column.CM.CMENRF</uri>
      </binding>
      <binding name="domainName">
        <literal datatype="http://www.w3.org/2001/XMLSchema#string">CM</literal>
      </binding>
      <binding name="dataset">
        <uri>http://rdf.cdisc.org/std/sdtmig-3-1-2#Dataset.CM</uri>
      </binding>
    </result>
    <result>
      <binding name="name">
        <literal datatype="http://www.w3.org/2001/XMLSchema#string">CMENRTPT</literal>
      </binding>
      <binding name="subject">
        <uri>http://rdf.cdisc.org/std/sdtmig-3-1-2#Column.CM.CMENRTPT</uri>
      </binding>
      <binding name="domainName">
        <literal datatype="http://www.w3.org/2001/XMLSchema#string">CM</literal>
      </binding>
      <binding name="dataset">
        <uri>http://rdf.cdisc.org/std/sdtmig-3-1-2#Dataset.CM</uri>
      </binding>
    </result>
    <result>
      <binding name="name">
        <literal datatype="http://www.w3.org/2001/XMLSchema#string">CMENTPT</literal>
      </binding>
      <binding name="subject">
        <uri>http://rdf.cdisc.org/std/sdtmig-3-1-2#Column.CM.CMENTPT</uri>
      </binding>
      <binding name="domainName">
        <literal datatype="http://www.w3.org/2001/XMLSchema#string">CM</literal>
      </binding>
      <binding name="dataset">
        <uri>http://rdf.cdisc.org/std/sdtmig-3-1-2#Dataset.CM</uri>
      </binding>
    </result>
    <result>
      <binding name="name">
        <literal datatype="http://www.w3.org/2001/XMLSchema#string">CMGRPID</literal>
      </binding>
      <binding name="subject">
        <uri>http://rdf.cdisc.org/std/sdtmig-3-1-2#Column.CM.CMGRPID</uri>
      </binding>
      <binding name="domainName">
        <literal datatype="http://www.w3.org/2001/XMLSchema#string">CM</literal>
      </binding>
      <binding name="dataset">
        <uri>http://rdf.cdisc.org/std/sdtmig-3-1-2#Dataset.CM</uri>
      </binding>
    </result>
    <result>
      <binding name="name">
        <literal datatype="http://www.w3.org/2001/XMLSchema#string">CMINDC</literal>
      </binding>
      <binding name="subject">
        <uri>http://rdf.cdisc.org/std/sdtmig-3-1-2#Column.CM.CMINDC</uri>
      </binding>
      <binding name="domainName">
        <literal datatype="http://www.w3.org/2001/XMLSchema#string">CM</literal>
      </binding>
      <binding name="dataset">
        <uri>http://rdf.cdisc.org/std/sdtmig-3-1-2#Dataset.CM</uri>
      </binding>
    </result>
    <result>
      <binding name="name">
        <literal datatype="http://www.w3.org/2001/XMLSchema#string">CMMODIFY</literal>
      </binding>
      <binding name="subject">
        <uri>http://rdf.cdisc.org/std/sdtmig-3-1-2#Column.CM.CMMODIFY</uri>
      </binding>
      <binding name="domainName">
        <literal datatype="http://www.w3.org/2001/XMLSchema#string">CM</literal>
      </binding>
      <binding name="dataset">
        <uri>http://rdf.cdisc.org/std/sdtmig-3-1-2#Dataset.CM</uri>
      </binding>
    </result>
    <result>
      <binding name="name">
        <literal datatype="http://www.w3.org/2001/XMLSchema#string">CMOCCUR</literal>
      </binding>
      <binding name="subject">
        <uri>http://rdf.cdisc.org/std/sdtmig-3-1-2#Column.CM.CMOCCUR</uri>
      </binding>
      <binding name="domainName">
        <literal datatype="http://www.w3.org/2001/XMLSchema#string">CM</literal>
      </binding>
      <binding name="dataset">
        <uri>http://rdf.cdisc.org/std/sdtmig-3-1-2#Dataset.CM</uri>
      </binding>
    </result>
    <result>
      <binding name="name">
        <literal datatype="http://www.w3.org/2001/XMLSchema#string">CMPRESP</literal>
      </binding>
      <binding name="subject">
        <uri>http://rdf.cdisc.org/std/sdtmig-3-1-2#Column.CM.CMPRESP</uri>
      </binding>
      <binding name="domainName">
        <literal datatype="http://www.w3.org/2001/XMLSchema#string">CM</literal>
      </binding>
      <binding name="dataset">
        <uri>http://rdf.cdisc.org/std/sdtmig-3-1-2#Dataset.CM</uri>
      </binding>
    </result>
    <result>
      <binding name="name">
        <literal datatype="http://www.w3.org/2001/XMLSchema#string">CMREASND</literal>
      </binding>
      <binding name="subject">
        <uri>http://rdf.cdisc.org/std/sdtmig-3-1-2#Column.CM.CMREASND</uri>
      </binding>
      <binding name="domainName">
        <literal datatype="http://www.w3.org/2001/XMLSchema#string">CM</literal>
      </binding>
      <binding name="dataset">
        <uri>http://rdf.cdisc.org/std/sdtmig-3-1-2#Dataset.CM</uri>
      </binding>
    </result>
    <result>
      <binding name="name">
        <literal datatype="http://www.w3.org/2001/XMLSchema#string">CMROUTE</literal>
      </binding>
      <binding name="subject">
        <uri>http://rdf.cdisc.org/std/sdtmig-3-1-2#Column.CM.CMROUTE</uri>
      </binding>
      <binding name="domainName">
        <literal datatype="http://www.w3.org/2001/XMLSchema#string">CM</literal>
      </binding>
      <binding name="dataset">
        <uri>http://rdf.cdisc.org/std/sdtmig-3-1-2#Dataset.CM</uri>
      </binding>
    </result>
    <result>
      <binding name="name">
        <literal datatype="http://www.w3.org/2001/XMLSchema#string">CMSCAT</literal>
      </binding>
      <binding name="subject">
        <uri>http://rdf.cdisc.org/std/sdtmig-3-1-2#Column.CM.CMSCAT</uri>
      </binding>
      <binding name="domainName">
        <literal datatype="http://www.w3.org/2001/XMLSchema#string">CM</literal>
      </binding>
      <binding name="dataset">
        <uri>http://rdf.cdisc.org/std/sdtmig-3-1-2#Dataset.CM</uri>
      </binding>
    </result>
    <result>
      <binding name="name">
        <literal datatype="http://www.w3.org/2001/XMLSchema#string">CMSEQ</literal>
      </binding>
      <binding name="subject">
        <uri>http://rdf.cdisc.org/std/sdtmig-3-1-2#Column.CM.CMSEQ</uri>
      </binding>
      <binding name="domainName">
        <literal datatype="http://www.w3.org/2001/XMLSchema#string">CM</literal>
      </binding>
      <binding name="dataset">
        <uri>http://rdf.cdisc.org/std/sdtmig-3-1-2#Dataset.CM</uri>
      </binding>
    </result>
    <result>
      <binding name="name">
        <literal datatype="http://www.w3.org/2001/XMLSchema#string">CMSPID</literal>
      </binding>
      <binding name="subject">
        <uri>http://rdf.cdisc.org/std/sdtmig-3-1-2#Column.CM.CMSPID</uri>
      </binding>
      <binding name="domainName">
        <literal datatype="http://www.w3.org/2001/XMLSchema#string">CM</literal>
      </binding>
      <binding name="dataset">
        <uri>http://rdf.cdisc.org/std/sdtmig-3-1-2#Dataset.CM</uri>
      </binding>
    </result>
    <result>
      <binding name="name">
        <literal datatype="http://www.w3.org/2001/XMLSchema#string">CMSTAT</literal>
      </binding>
      <binding name="subject">
        <uri>http://rdf.cdisc.org/std/sdtmig-3-1-2#Column.CM.CMSTAT</uri>
      </binding>
      <binding name="domainName">
        <literal datatype="http://www.w3.org/2001/XMLSchema#string">CM</literal>
      </binding>
      <binding name="dataset">
        <uri>http://rdf.cdisc.org/std/sdtmig-3-1-2#Dataset.CM</uri>
      </binding>
    </result>
    <result>
      <binding name="name">
        <literal datatype="http://www.w3.org/2001/XMLSchema#string">CMSTDTC</literal>
      </binding>
      <binding name="subject">
        <uri>http://rdf.cdisc.org/std/sdtmig-3-1-2#Column.CM.CMSTDTC</uri>
      </binding>
      <binding name="domainName">
        <literal datatype="http://www.w3.org/2001/XMLSchema#string">CM</literal>
      </binding>
      <binding name="dataset">
        <uri>http://rdf.cdisc.org/std/sdtmig-3-1-2#Dataset.CM</uri>
      </binding>
    </result>
    <result>
      <binding name="name">
        <literal datatype="http://www.w3.org/2001/XMLSchema#string">CMSTDY</literal>
      </binding>
      <binding name="subject">
        <uri>http://rdf.cdisc.org/std/sdtmig-3-1-2#Column.CM.CMSTDY</uri>
      </binding>
      <binding name="domainName">
        <literal datatype="http://www.w3.org/2001/XMLSchema#string">CM</literal>
      </binding>
      <binding name="dataset">
        <uri>http://rdf.cdisc.org/std/sdtmig-3-1-2#Dataset.CM</uri>
      </binding>
    </result>
    <result>
      <binding name="name">
        <literal datatype="http://www.w3.org/2001/XMLSchema#string">CMSTRF</literal>
      </binding>
      <binding name="subject">
        <uri>http://rdf.cdisc.org/std/sdtmig-3-1-2#Column.CM.CMSTRF</uri>
      </binding>
      <binding name="domainName">
        <literal datatype="http://www.w3.org/2001/XMLSchema#string">CM</literal>
      </binding>
      <binding name="dataset">
        <uri>http://rdf.cdisc.org/std/sdtmig-3-1-2#Dataset.CM</uri>
      </binding>
    </result>
    <result>
      <binding name="name">
        <literal datatype="http://www.w3.org/2001/XMLSchema#string">CMSTRTPT</literal>
      </binding>
      <binding name="subject">
        <uri>http://rdf.cdisc.org/std/sdtmig-3-1-2#Column.CM.CMSTRTPT</uri>
      </binding>
      <binding name="domainName">
        <literal datatype="http://www.w3.org/2001/XMLSchema#string">CM</literal>
      </binding>
      <binding name="dataset">
        <uri>http://rdf.cdisc.org/std/sdtmig-3-1-2#Dataset.CM</uri>
      </binding>
    </result>
    <result>
      <binding name="name">
        <literal datatype="http://www.w3.org/2001/XMLSchema#string">CMSTTPT</literal>
      </binding>
      <binding name="subject">
        <uri>http://rdf.cdisc.org/std/sdtmig-3-1-2#Column.CM.CMSTTPT</uri>
      </binding>
      <binding name="domainName">
        <literal datatype="http://www.w3.org/2001/XMLSchema#string">CM</literal>
      </binding>
      <binding name="dataset">
        <uri>http://rdf.cdisc.org/std/sdtmig-3-1-2#Dataset.CM</uri>
      </binding>
    </result>
    <result>
      <binding name="name">
        <literal datatype="http://www.w3.org/2001/XMLSchema#string">CMTRT</literal>
      </binding>
      <binding name="subject">
        <uri>http://rdf.cdisc.org/std/sdtmig-3-1-2#Column.CM.CMTRT</uri>
      </binding>
      <binding name="domainName">
        <literal datatype="http://www.w3.org/2001/XMLSchema#string">CM</literal>
      </binding>
      <binding name="dataset">
        <uri>http://rdf.cdisc.org/std/sdtmig-3-1-2#Dataset.CM</uri>
      </binding>
    </result>
    <result>
      <binding name="name">
        <literal datatype="http://www.w3.org/2001/XMLSchema#string">DOMAIN</literal>
      </binding>
      <binding name="subject">
        <uri>http://rdf.cdisc.org/std/sdtmig-3-1-2#Column.CM.DOMAIN</uri>
      </binding>
      <binding name="domainName">
        <literal datatype="http://www.w3.org/2001/XMLSchema#string">CM</literal>
      </binding>
      <binding name="dataset">
        <uri>http://rdf.cdisc.org/std/sdtmig-3-1-2#Dataset.CM</uri>
      </binding>
    </result>
    <result>
      <binding name="name">
        <literal datatype="http://www.w3.org/2001/XMLSchema#string">STUDYID</literal>
      </binding>
      <binding name="subject">
        <uri>http://rdf.cdisc.org/std/sdtmig-3-1-2#Column.CM.STUDYID</uri>
      </binding>
      <binding name="domainName">
        <literal datatype="http://www.w3.org/2001/XMLSchema#string">CM</literal>
      </binding>
      <binding name="dataset">
        <uri>http://rdf.cdisc.org/std/sdtmig-3-1-2#Dataset.CM</uri>
      </binding>
    </result>
    <result>
      <binding name="name">
        <literal datatype="http://www.w3.org/2001/XMLSchema#string">USUBJID</literal>
      </binding>
      <binding name="subject">
        <uri>http://rdf.cdisc.org/std/sdtmig-3-1-2#Column.CM.USUBJID</uri>
      </binding>
      <binding name="domainName">
        <literal datatype="http://www.w3.org/2001/XMLSchema#string">CM</literal>
      </binding>
      <binding name="dataset">
        <uri>http://rdf.cdisc.org/std/sdtmig-3-1-2#Dataset.CM</uri>
      </binding>
    </result>
    <result>
      <binding name="name">
        <literal datatype="http://www.w3.org/2001/XMLSchema#string">CODTC</literal>
      </binding>
      <binding name="subject">
        <uri>http://rdf.cdisc.org/std/sdtmig-3-1-2#Column.CO.CODTC</uri>
      </binding>
      <binding name="domainName">
        <literal datatype="http://www.w3.org/2001/XMLSchema#string">CO</literal>
      </binding>
      <binding name="dataset">
        <uri>http://rdf.cdisc.org/std/sdtmig-3-1-2#Dataset.CO</uri>
      </binding>
    </result>
    <result>
      <binding name="name">
        <literal datatype="http://www.w3.org/2001/XMLSchema#string">COEVAL</literal>
      </binding>
      <binding name="subject">
        <uri>http://rdf.cdisc.org/std/sdtmig-3-1-2#Column.CO.COEVAL</uri>
      </binding>
      <binding name="domainName">
        <literal datatype="http://www.w3.org/2001/XMLSchema#string">CO</literal>
      </binding>
      <binding name="dataset">
        <uri>http://rdf.cdisc.org/std/sdtmig-3-1-2#Dataset.CO</uri>
      </binding>
    </result>
    <result>
      <binding name="name">
        <literal datatype="http://www.w3.org/2001/XMLSchema#string">COREF</literal>
      </binding>
      <binding name="subject">
        <uri>http://rdf.cdisc.org/std/sdtmig-3-1-2#Column.CO.COREF</uri>
      </binding>
      <binding name="domainName">
        <literal datatype="http://www.w3.org/2001/XMLSchema#string">CO</literal>
      </binding>
      <binding name="dataset">
        <uri>http://rdf.cdisc.org/std/sdtmig-3-1-2#Dataset.CO</uri>
      </binding>
    </result>
    <result>
      <binding name="name">
        <literal datatype="http://www.w3.org/2001/XMLSchema#string">COSEQ</literal>
      </binding>
      <binding name="subject">
        <uri>http://rdf.cdisc.org/std/sdtmig-3-1-2#Column.CO.COSEQ</uri>
      </binding>
      <binding name="domainName">
        <literal datatype="http://www.w3.org/2001/XMLSchema#string">CO</literal>
      </binding>
      <binding name="dataset">
        <uri>http://rdf.cdisc.org/std/sdtmig-3-1-2#Dataset.CO</uri>
      </binding>
    </result>
    <result>
      <binding name="name">
        <literal datatype="http://www.w3.org/2001/XMLSchema#string">COVAL</literal>
      </binding>
      <binding name="subject">
        <uri>http://rdf.cdisc.org/std/sdtmig-3-1-2#Column.CO.COVAL</uri>
      </binding>
      <binding name="domainName">
        <literal datatype="http://www.w3.org/2001/XMLSchema#string">CO</literal>
      </binding>
      <binding name="dataset">
        <uri>http://rdf.cdisc.org/std/sdtmig-3-1-2#Dataset.CO</uri>
      </binding>
    </result>
    <result>
      <binding name="name">
        <literal datatype="http://www.w3.org/2001/XMLSchema#string">DOMAIN</literal>
      </binding>
      <binding name="subject">
        <uri>http://rdf.cdisc.org/std/sdtmig-3-1-2#Column.CO.DOMAIN</uri>
      </binding>
      <binding name="domainName">
        <literal datatype="http://www.w3.org/2001/XMLSchema#string">CO</literal>
      </binding>
      <binding name="dataset">
        <uri>http://rdf.cdisc.org/std/sdtmig-3-1-2#Dataset.CO</uri>
      </binding>
    </result>
    <result>
      <binding name="name">
        <literal datatype="http://www.w3.org/2001/XMLSchema#string">IDVAR</literal>
      </binding>
      <binding name="subject">
        <uri>http://rdf.cdisc.org/std/sdtmig-3-1-2#Column.CO.IDVAR</uri>
      </binding>
      <binding name="domainName">
        <literal datatype="http://www.w3.org/2001/XMLSchema#string">CO</literal>
      </binding>
      <binding name="dataset">
        <uri>http://rdf.cdisc.org/std/sdtmig-3-1-2#Dataset.CO</uri>
      </binding>
    </result>
    <result>
      <binding name="name">
        <literal datatype="http://www.w3.org/2001/XMLSchema#string">IDVARVAL</literal>
      </binding>
      <binding name="subject">
        <uri>http://rdf.cdisc.org/std/sdtmig-3-1-2#Column.CO.IDVARVAL</uri>
      </binding>
      <binding name="domainName">
        <literal datatype="http://www.w3.org/2001/XMLSchema#string">CO</literal>
      </binding>
      <binding name="dataset">
        <uri>http://rdf.cdisc.org/std/sdtmig-3-1-2#Dataset.CO</uri>
      </binding>
    </result>
    <result>
      <binding name="name">
        <literal datatype="http://www.w3.org/2001/XMLSchema#string">RDOMAIN</literal>
      </binding>
      <binding name="subject">
        <uri>http://rdf.cdisc.org/std/sdtmig-3-1-2#Column.CO.RDOMAIN</uri>
      </binding>
      <binding name="domainName">
        <literal datatype="http://www.w3.org/2001/XMLSchema#string">CO</literal>
      </binding>
      <binding name="dataset">
        <uri>http://rdf.cdisc.org/std/sdtmig-3-1-2#Dataset.CO</uri>
      </binding>
    </result>
    <result>
      <binding name="name">
        <literal datatype="http://www.w3.org/2001/XMLSchema#string">STUDYID</literal>
      </binding>
      <binding name="subject">
        <uri>http://rdf.cdisc.org/std/sdtmig-3-1-2#Column.CO.STUDYID</uri>
      </binding>
      <binding name="domainName">
        <literal datatype="http://www.w3.org/2001/XMLSchema#string">CO</literal>
      </binding>
      <binding name="dataset">
        <uri>http://rdf.cdisc.org/std/sdtmig-3-1-2#Dataset.CO</uri>
      </binding>
    </result>
    <result>
      <binding name="name">
        <literal datatype="http://www.w3.org/2001/XMLSchema#string">USUBJID</literal>
      </binding>
      <binding name="subject">
        <uri>http://rdf.cdisc.org/std/sdtmig-3-1-2#Column.CO.USUBJID</uri>
      </binding>
      <binding name="domainName">
        <literal datatype="http://www.w3.org/2001/XMLSchema#string">CO</literal>
      </binding>
      <binding name="dataset">
        <uri>http://rdf.cdisc.org/std/sdtmig-3-1-2#Dataset.CO</uri>
      </binding>
    </result>
    <result>
      <binding name="name">
        <literal datatype="http://www.w3.org/2001/XMLSchema#string">DACAT</literal>
      </binding>
      <binding name="subject">
        <uri>http://rdf.cdisc.org/std/sdtmig-3-1-2#Column.DA.DACAT</uri>
      </binding>
      <binding name="domainName">
        <literal datatype="http://www.w3.org/2001/XMLSchema#string">DA</literal>
      </binding>
      <binding name="dataset">
        <uri>http://rdf.cdisc.org/std/sdtmig-3-1-2#Dataset.DA</uri>
      </binding>
    </result>
    <result>
      <binding name="name">
        <literal datatype="http://www.w3.org/2001/XMLSchema#string">DADTC</literal>
      </binding>
      <binding name="subject">
        <uri>http://rdf.cdisc.org/std/sdtmig-3-1-2#Column.DA.DADTC</uri>
      </binding>
      <binding name="domainName">
        <literal datatype="http://www.w3.org/2001/XMLSchema#string">DA</literal>
      </binding>
      <binding name="dataset">
        <uri>http://rdf.cdisc.org/std/sdtmig-3-1-2#Dataset.DA</uri>
      </binding>
    </result>
    <result>
      <binding name="name">
        <literal datatype="http://www.w3.org/2001/XMLSchema#string">DADY</literal>
      </binding>
      <binding name="subject">
        <uri>http://rdf.cdisc.org/std/sdtmig-3-1-2#Column.DA.DADY</uri>
      </binding>
      <binding name="domainName">
        <literal datatype="http://www.w3.org/2001/XMLSchema#string">DA</literal>
      </binding>
      <binding name="dataset">
        <uri>http://rdf.cdisc.org/std/sdtmig-3-1-2#Dataset.DA</uri>
      </binding>
    </result>
    <result>
      <binding name="name">
        <literal datatype="http://www.w3.org/2001/XMLSchema#string">DAGRPID</literal>
      </binding>
      <binding name="subject">
        <uri>http://rdf.cdisc.org/std/sdtmig-3-1-2#Column.DA.DAGRPID</uri>
      </binding>
      <binding name="domainName">
        <literal datatype="http://www.w3.org/2001/XMLSchema#string">DA</literal>
      </binding>
      <binding name="dataset">
        <uri>http://rdf.cdisc.org/std/sdtmig-3-1-2#Dataset.DA</uri>
      </binding>
    </result>
    <result>
      <binding name="name">
        <literal datatype="http://www.w3.org/2001/XMLSchema#string">DAORRES</literal>
      </binding>
      <binding name="subject">
        <uri>http://rdf.cdisc.org/std/sdtmig-3-1-2#Column.DA.DAORRES</uri>
      </binding>
      <binding name="domainName">
        <literal datatype="http://www.w3.org/2001/XMLSchema#string">DA</literal>
      </binding>
      <binding name="dataset">
        <uri>http://rdf.cdisc.org/std/sdtmig-3-1-2#Dataset.DA</uri>
      </binding>
    </result>
    <result>
      <binding name="name">
        <literal datatype="http://www.w3.org/2001/XMLSchema#string">DAORRESU</literal>
      </binding>
      <binding name="subject">
        <uri>http://rdf.cdisc.org/std/sdtmig-3-1-2#Column.DA.DAORRESU</uri>
      </binding>
      <binding name="domainName">
        <literal datatype="http://www.w3.org/2001/XMLSchema#string">DA</literal>
      </binding>
      <binding name="dataset">
        <uri>http://rdf.cdisc.org/std/sdtmig-3-1-2#Dataset.DA</uri>
      </binding>
    </result>
    <result>
      <binding name="name">
        <literal datatype="http://www.w3.org/2001/XMLSchema#string">DAREASND</literal>
      </binding>
      <binding name="subject">
        <uri>http://rdf.cdisc.org/std/sdtmig-3-1-2#Column.DA.DAREASND</uri>
      </binding>
      <binding name="domainName">
        <literal datatype="http://www.w3.org/2001/XMLSchema#string">DA</literal>
      </binding>
      <binding name="dataset">
        <uri>http://rdf.cdisc.org/std/sdtmig-3-1-2#Dataset.DA</uri>
      </binding>
    </result>
    <result>
      <binding name="name">
        <literal datatype="http://www.w3.org/2001/XMLSchema#string">DAREFID</literal>
      </binding>
      <binding name="subject">
        <uri>http://rdf.cdisc.org/std/sdtmig-3-1-2#Column.DA.DAREFID</uri>
      </binding>
      <binding name="domainName">
        <literal datatype="http://www.w3.org/2001/XMLSchema#string">DA</literal>
      </binding>
      <binding name="dataset">
        <uri>http://rdf.cdisc.org/std/sdtmig-3-1-2#Dataset.DA</uri>
      </binding>
    </result>
    <result>
      <binding name="name">
        <literal datatype="http://www.w3.org/2001/XMLSchema#string">DASCAT</literal>
      </binding>
      <binding name="subject">
        <uri>http://rdf.cdisc.org/std/sdtmig-3-1-2#Column.DA.DASCAT</uri>
      </binding>
      <binding name="domainName">
        <literal datatype="http://www.w3.org/2001/XMLSchema#string">DA</literal>
      </binding>
      <binding name="dataset">
        <uri>http://rdf.cdisc.org/std/sdtmig-3-1-2#Dataset.DA</uri>
      </binding>
    </result>
    <result>
      <binding name="name">
        <literal datatype="http://www.w3.org/2001/XMLSchema#string">DASEQ</literal>
      </binding>
      <binding name="subject">
        <uri>http://rdf.cdisc.org/std/sdtmig-3-1-2#Column.DA.DASEQ</uri>
      </binding>
      <binding name="domainName">
        <literal datatype="http://www.w3.org/2001/XMLSchema#string">DA</literal>
      </binding>
      <binding name="dataset">
        <uri>http://rdf.cdisc.org/std/sdtmig-3-1-2#Dataset.DA</uri>
      </binding>
    </result>
    <result>
      <binding name="name">
        <literal datatype="http://www.w3.org/2001/XMLSchema#string">DASPID</literal>
      </binding>
      <binding name="subject">
        <uri>http://rdf.cdisc.org/std/sdtmig-3-1-2#Column.DA.DASPID</uri>
      </binding>
      <binding name="domainName">
        <literal datatype="http://www.w3.org/2001/XMLSchema#string">DA</literal>
      </binding>
      <binding name="dataset">
        <uri>http://rdf.cdisc.org/std/sdtmig-3-1-2#Dataset.DA</uri>
      </binding>
    </result>
    <result>
      <binding name="name">
        <literal datatype="http://www.w3.org/2001/XMLSchema#string">DASTAT</literal>
      </binding>
      <binding name="subject">
        <uri>http://rdf.cdisc.org/std/sdtmig-3-1-2#Column.DA.DASTAT</uri>
      </binding>
      <binding name="domainName">
        <literal datatype="http://www.w3.org/2001/XMLSchema#string">DA</literal>
      </binding>
      <binding name="dataset">
        <uri>http://rdf.cdisc.org/std/sdtmig-3-1-2#Dataset.DA</uri>
      </binding>
    </result>
    <result>
      <binding name="name">
        <literal datatype="http://www.w3.org/2001/XMLSchema#string">DASTRESC</literal>
      </binding>
      <binding name="subject">
        <uri>http://rdf.cdisc.org/std/sdtmig-3-1-2#Column.DA.DASTRESC</uri>
      </binding>
      <binding name="domainName">
        <literal datatype="http://www.w3.org/2001/XMLSchema#string">DA</literal>
      </binding>
      <binding name="dataset">
        <uri>http://rdf.cdisc.org/std/sdtmig-3-1-2#Dataset.DA</uri>
      </binding>
    </result>
    <result>
      <binding name="name">
        <literal datatype="http://www.w3.org/2001/XMLSchema#string">DASTRESN</literal>
      </binding>
      <binding name="subject">
        <uri>http://rdf.cdisc.org/std/sdtmig-3-1-2#Column.DA.DASTRESN</uri>
      </binding>
      <binding name="domainName">
        <literal datatype="http://www.w3.org/2001/XMLSchema#string">DA</literal>
      </binding>
      <binding name="dataset">
        <uri>http://rdf.cdisc.org/std/sdtmig-3-1-2#Dataset.DA</uri>
      </binding>
    </result>
    <result>
      <binding name="name">
        <literal datatype="http://www.w3.org/2001/XMLSchema#string">DASTRESU</literal>
      </binding>
      <binding name="subject">
        <uri>http://rdf.cdisc.org/std/sdtmig-3-1-2#Column.DA.DASTRESU</uri>
      </binding>
      <binding name="domainName">
        <literal datatype="http://www.w3.org/2001/XMLSchema#string">DA</literal>
      </binding>
      <binding name="dataset">
        <uri>http://rdf.cdisc.org/std/sdtmig-3-1-2#Dataset.DA</uri>
      </binding>
    </result>
    <result>
      <binding name="name">
        <literal datatype="http://www.w3.org/2001/XMLSchema#string">DATEST</literal>
      </binding>
      <binding name="subject">
        <uri>http://rdf.cdisc.org/std/sdtmig-3-1-2#Column.DA.DATEST</uri>
      </binding>
      <binding name="domainName">
        <literal datatype="http://www.w3.org/2001/XMLSchema#string">DA</literal>
      </binding>
      <binding name="dataset">
        <uri>http://rdf.cdisc.org/std/sdtmig-3-1-2#Dataset.DA</uri>
      </binding>
    </result>
    <result>
      <binding name="name">
        <literal datatype="http://www.w3.org/2001/XMLSchema#string">DATESTCD</literal>
      </binding>
      <binding name="subject">
        <uri>http://rdf.cdisc.org/std/sdtmig-3-1-2#Column.DA.DATESTCD</uri>
      </binding>
      <binding name="domainName">
        <literal datatype="http://www.w3.org/2001/XMLSchema#string">DA</literal>
      </binding>
      <binding name="dataset">
        <uri>http://rdf.cdisc.org/std/sdtmig-3-1-2#Dataset.DA</uri>
      </binding>
    </result>
    <result>
      <binding name="name">
        <literal datatype="http://www.w3.org/2001/XMLSchema#string">DOMAIN</literal>
      </binding>
      <binding name="subject">
        <uri>http://rdf.cdisc.org/std/sdtmig-3-1-2#Column.DA.DOMAIN</uri>
      </binding>
      <binding name="domainName">
        <literal datatype="http://www.w3.org/2001/XMLSchema#string">DA</literal>
      </binding>
      <binding name="dataset">
        <uri>http://rdf.cdisc.org/std/sdtmig-3-1-2#Dataset.DA</uri>
      </binding>
    </result>
    <result>
      <binding name="name">
        <literal datatype="http://www.w3.org/2001/XMLSchema#string">STUDYID</literal>
      </binding>
      <binding name="subject">
        <uri>http://rdf.cdisc.org/std/sdtmig-3-1-2#Column.DA.STUDYID</uri>
      </binding>
      <binding name="domainName">
        <literal datatype="http://www.w3.org/2001/XMLSchema#string">DA</literal>
      </binding>
      <binding name="dataset">
        <uri>http://rdf.cdisc.org/std/sdtmig-3-1-2#Dataset.DA</uri>
      </binding>
    </result>
    <result>
      <binding name="name">
        <literal datatype="http://www.w3.org/2001/XMLSchema#string">USUBJID</literal>
      </binding>
      <binding name="subject">
        <uri>http://rdf.cdisc.org/std/sdtmig-3-1-2#Column.DA.USUBJID</uri>
      </binding>
      <binding name="domainName">
        <literal datatype="http://www.w3.org/2001/XMLSchema#string">DA</literal>
      </binding>
      <binding name="dataset">
        <uri>http://rdf.cdisc.org/std/sdtmig-3-1-2#Dataset.DA</uri>
      </binding>
    </result>
    <result>
      <binding name="name">
        <literal datatype="http://www.w3.org/2001/XMLSchema#string">VISIT</literal>
      </binding>
      <binding name="subject">
        <uri>http://rdf.cdisc.org/std/sdtmig-3-1-2#Column.DA.VISIT</uri>
      </binding>
      <binding name="domainName">
        <literal datatype="http://www.w3.org/2001/XMLSchema#string">DA</literal>
      </binding>
      <binding name="dataset">
        <uri>http://rdf.cdisc.org/std/sdtmig-3-1-2#Dataset.DA</uri>
      </binding>
    </result>
    <result>
      <binding name="name">
        <literal datatype="http://www.w3.org/2001/XMLSchema#string">VISITDY</literal>
      </binding>
      <binding name="subject">
        <uri>http://rdf.cdisc.org/std/sdtmig-3-1-2#Column.DA.VISITDY</uri>
      </binding>
      <binding name="domainName">
        <literal datatype="http://www.w3.org/2001/XMLSchema#string">DA</literal>
      </binding>
      <binding name="dataset">
        <uri>http://rdf.cdisc.org/std/sdtmig-3-1-2#Dataset.DA</uri>
      </binding>
    </result>
    <result>
      <binding name="name">
        <literal datatype="http://www.w3.org/2001/XMLSchema#string">VISITNUM</literal>
      </binding>
      <binding name="subject">
        <uri>http://rdf.cdisc.org/std/sdtmig-3-1-2#Column.DA.VISITNUM</uri>
      </binding>
      <binding name="domainName">
        <literal datatype="http://www.w3.org/2001/XMLSchema#string">DA</literal>
      </binding>
      <binding name="dataset">
        <uri>http://rdf.cdisc.org/std/sdtmig-3-1-2#Dataset.DA</uri>
      </binding>
    </result>
    <result>
      <binding name="name">
        <literal datatype="http://www.w3.org/2001/XMLSchema#string">AGE</literal>
      </binding>
      <binding name="subject">
        <uri>http://rdf.cdisc.org/std/sdtmig-3-1-2#Column.DM.AGE</uri>
      </binding>
      <binding name="domainName">
        <literal datatype="http://www.w3.org/2001/XMLSchema#string">DM</literal>
      </binding>
      <binding name="dataset">
        <uri>http://rdf.cdisc.org/std/sdtmig-3-1-2#Dataset.DM</uri>
      </binding>
    </result>
    <result>
      <binding name="name">
        <literal datatype="http://www.w3.org/2001/XMLSchema#string">AGEU</literal>
      </binding>
      <binding name="subject">
        <uri>http://rdf.cdisc.org/std/sdtmig-3-1-2#Column.DM.AGEU</uri>
      </binding>
      <binding name="domainName">
        <literal datatype="http://www.w3.org/2001/XMLSchema#string">DM</literal>
      </binding>
      <binding name="dataset">
        <uri>http://rdf.cdisc.org/std/sdtmig-3-1-2#Dataset.DM</uri>
      </binding>
    </result>
    <result>
      <binding name="name">
        <literal datatype="http://www.w3.org/2001/XMLSchema#string">ARM</literal>
      </binding>
      <binding name="subject">
        <uri>http://rdf.cdisc.org/std/sdtmig-3-1-2#Column.DM.ARM</uri>
      </binding>
      <binding name="domainName">
        <literal datatype="http://www.w3.org/2001/XMLSchema#string">DM</literal>
      </binding>
      <binding name="dataset">
        <uri>http://rdf.cdisc.org/std/sdtmig-3-1-2#Dataset.DM</uri>
      </binding>
    </result>
    <result>
      <binding name="name">
        <literal datatype="http://www.w3.org/2001/XMLSchema#string">ARMCD</literal>
      </binding>
      <binding name="subject">
        <uri>http://rdf.cdisc.org/std/sdtmig-3-1-2#Column.DM.ARMCD</uri>
      </binding>
      <binding name="domainName">
        <literal datatype="http://www.w3.org/2001/XMLSchema#string">DM</literal>
      </binding>
      <binding name="dataset">
        <uri>http://rdf.cdisc.org/std/sdtmig-3-1-2#Dataset.DM</uri>
      </binding>
    </result>
    <result>
      <binding name="name">
        <literal datatype="http://www.w3.org/2001/XMLSchema#string">BRTHDTC</literal>
      </binding>
      <binding name="subject">
        <uri>http://rdf.cdisc.org/std/sdtmig-3-1-2#Column.DM.BRTHDTC</uri>
      </binding>
      <binding name="domainName">
        <literal datatype="http://www.w3.org/2001/XMLSchema#string">DM</literal>
      </binding>
      <binding name="dataset">
        <uri>http://rdf.cdisc.org/std/sdtmig-3-1-2#Dataset.DM</uri>
      </binding>
    </result>
    <result>
      <binding name="name">
        <literal datatype="http://www.w3.org/2001/XMLSchema#string">COUNTRY</literal>
      </binding>
      <binding name="subject">
        <uri>http://rdf.cdisc.org/std/sdtmig-3-1-2#Column.DM.COUNTRY</uri>
      </binding>
      <binding name="domainName">
        <literal datatype="http://www.w3.org/2001/XMLSchema#string">DM</literal>
      </binding>
      <binding name="dataset">
        <uri>http://rdf.cdisc.org/std/sdtmig-3-1-2#Dataset.DM</uri>
      </binding>
    </result>
    <result>
      <binding name="name">
        <literal datatype="http://www.w3.org/2001/XMLSchema#string">DMDTC</literal>
      </binding>
      <binding name="subject">
        <uri>http://rdf.cdisc.org/std/sdtmig-3-1-2#Column.DM.DMDTC</uri>
      </binding>
      <binding name="domainName">
        <literal datatype="http://www.w3.org/2001/XMLSchema#string">DM</literal>
      </binding>
      <binding name="dataset">
        <uri>http://rdf.cdisc.org/std/sdtmig-3-1-2#Dataset.DM</uri>
      </binding>
    </result>
    <result>
      <binding name="name">
        <literal datatype="http://www.w3.org/2001/XMLSchema#string">DMDY</literal>
      </binding>
      <binding name="subject">
        <uri>http://rdf.cdisc.org/std/sdtmig-3-1-2#Column.DM.DMDY</uri>
      </binding>
      <binding name="domainName">
        <literal datatype="http://www.w3.org/2001/XMLSchema#string">DM</literal>
      </binding>
      <binding name="dataset">
        <uri>http://rdf.cdisc.org/std/sdtmig-3-1-2#Dataset.DM</uri>
      </binding>
    </result>
    <result>
      <binding name="name">
        <literal datatype="http://www.w3.org/2001/XMLSchema#string">DOMAIN</literal>
      </binding>
      <binding name="subject">
        <uri>http://rdf.cdisc.org/std/sdtmig-3-1-2#Column.DM.DOMAIN</uri>
      </binding>
      <binding name="domainName">
        <literal datatype="http://www.w3.org/2001/XMLSchema#string">DM</literal>
      </binding>
      <binding name="dataset">
        <uri>http://rdf.cdisc.org/std/sdtmig-3-1-2#Dataset.DM</uri>
      </binding>
    </result>
    <result>
      <binding name="name">
        <literal datatype="http://www.w3.org/2001/XMLSchema#string">ETHNIC</literal>
      </binding>
      <binding name="subject">
        <uri>http://rdf.cdisc.org/std/sdtmig-3-1-2#Column.DM.ETHNIC</uri>
      </binding>
      <binding name="domainName">
        <literal datatype="http://www.w3.org/2001/XMLSchema#string">DM</literal>
      </binding>
      <binding name="dataset">
        <uri>http://rdf.cdisc.org/std/sdtmig-3-1-2#Dataset.DM</uri>
      </binding>
    </result>
    <result>
      <binding name="name">
        <literal datatype="http://www.w3.org/2001/XMLSchema#string">INVID</literal>
      </binding>
      <binding name="subject">
        <uri>http://rdf.cdisc.org/std/sdtmig-3-1-2#Column.DM.INVID</uri>
      </binding>
      <binding name="domainName">
        <literal datatype="http://www.w3.org/2001/XMLSchema#string">DM</literal>
      </binding>
      <binding name="dataset">
        <uri>http://rdf.cdisc.org/std/sdtmig-3-1-2#Dataset.DM</uri>
      </binding>
    </result>
    <result>
      <binding name="name">
        <literal datatype="http://www.w3.org/2001/XMLSchema#string">INVNAM</literal>
      </binding>
      <binding name="subject">
        <uri>http://rdf.cdisc.org/std/sdtmig-3-1-2#Column.DM.INVNAM</uri>
      </binding>
      <binding name="domainName">
        <literal datatype="http://www.w3.org/2001/XMLSchema#string">DM</literal>
      </binding>
      <binding name="dataset">
        <uri>http://rdf.cdisc.org/std/sdtmig-3-1-2#Dataset.DM</uri>
      </binding>
    </result>
    <result>
      <binding name="name">
        <literal datatype="http://www.w3.org/2001/XMLSchema#string">RACE</literal>
      </binding>
      <binding name="subject">
        <uri>http://rdf.cdisc.org/std/sdtmig-3-1-2#Column.DM.RACE</uri>
      </binding>
      <binding name="domainName">
        <literal datatype="http://www.w3.org/2001/XMLSchema#string">DM</literal>
      </binding>
      <binding name="dataset">
        <uri>http://rdf.cdisc.org/std/sdtmig-3-1-2#Dataset.DM</uri>
      </binding>
    </result>
    <result>
      <binding name="name">
        <literal datatype="http://www.w3.org/2001/XMLSchema#string">RFENDTC</literal>
      </binding>
      <binding name="subject">
        <uri>http://rdf.cdisc.org/std/sdtmig-3-1-2#Column.DM.RFENDTC</uri>
      </binding>
      <binding name="domainName">
        <literal datatype="http://www.w3.org/2001/XMLSchema#string">DM</literal>
      </binding>
      <binding name="dataset">
        <uri>http://rdf.cdisc.org/std/sdtmig-3-1-2#Dataset.DM</uri>
      </binding>
    </result>
    <result>
      <binding name="name">
        <literal datatype="http://www.w3.org/2001/XMLSchema#string">RFSTDTC</literal>
      </binding>
      <binding name="subject">
        <uri>http://rdf.cdisc.org/std/sdtmig-3-1-2#Column.DM.RFSTDTC</uri>
      </binding>
      <binding name="domainName">
        <literal datatype="http://www.w3.org/2001/XMLSchema#string">DM</literal>
      </binding>
      <binding name="dataset">
        <uri>http://rdf.cdisc.org/std/sdtmig-3-1-2#Dataset.DM</uri>
      </binding>
    </result>
    <result>
      <binding name="name">
        <literal datatype="http://www.w3.org/2001/XMLSchema#string">SEX</literal>
      </binding>
      <binding name="subject">
        <uri>http://rdf.cdisc.org/std/sdtmig-3-1-2#Column.DM.SEX</uri>
      </binding>
      <binding name="domainName">
        <literal datatype="http://www.w3.org/2001/XMLSchema#string">DM</literal>
      </binding>
      <binding name="dataset">
        <uri>http://rdf.cdisc.org/std/sdtmig-3-1-2#Dataset.DM</uri>
      </binding>
    </result>
    <result>
      <binding name="name">
        <literal datatype="http://www.w3.org/2001/XMLSchema#string">SITEID</literal>
      </binding>
      <binding name="subject">
        <uri>http://rdf.cdisc.org/std/sdtmig-3-1-2#Column.DM.SITEID</uri>
      </binding>
      <binding name="domainName">
        <literal datatype="http://www.w3.org/2001/XMLSchema#string">DM</literal>
      </binding>
      <binding name="dataset">
        <uri>http://rdf.cdisc.org/std/sdtmig-3-1-2#Dataset.DM</uri>
      </binding>
    </result>
    <result>
      <binding name="name">
        <literal datatype="http://www.w3.org/2001/XMLSchema#string">STUDYID</literal>
      </binding>
      <binding name="subject">
        <uri>http://rdf.cdisc.org/std/sdtmig-3-1-2#Column.DM.STUDYID</uri>
      </binding>
      <binding name="domainName">
        <literal datatype="http://www.w3.org/2001/XMLSchema#string">DM</literal>
      </binding>
      <binding name="dataset">
        <uri>http://rdf.cdisc.org/std/sdtmig-3-1-2#Dataset.DM</uri>
      </binding>
    </result>
    <result>
      <binding name="name">
        <literal datatype="http://www.w3.org/2001/XMLSchema#string">SUBJID</literal>
      </binding>
      <binding name="subject">
        <uri>http://rdf.cdisc.org/std/sdtmig-3-1-2#Column.DM.SUBJID</uri>
      </binding>
      <binding name="domainName">
        <literal datatype="http://www.w3.org/2001/XMLSchema#string">DM</literal>
      </binding>
      <binding name="dataset">
        <uri>http://rdf.cdisc.org/std/sdtmig-3-1-2#Dataset.DM</uri>
      </binding>
    </result>
    <result>
      <binding name="name">
        <literal datatype="http://www.w3.org/2001/XMLSchema#string">USUBJID</literal>
      </binding>
      <binding name="subject">
        <uri>http://rdf.cdisc.org/std/sdtmig-3-1-2#Column.DM.USUBJID</uri>
      </binding>
      <binding name="domainName">
        <literal datatype="http://www.w3.org/2001/XMLSchema#string">DM</literal>
      </binding>
      <binding name="dataset">
        <uri>http://rdf.cdisc.org/std/sdtmig-3-1-2#Dataset.DM</uri>
      </binding>
    </result>
    <result>
      <binding name="name">
        <literal datatype="http://www.w3.org/2001/XMLSchema#string">DOMAIN</literal>
      </binding>
      <binding name="subject">
        <uri>http://rdf.cdisc.org/std/sdtmig-3-1-2#Column.DS.DOMAIN</uri>
      </binding>
      <binding name="domainName">
        <literal datatype="http://www.w3.org/2001/XMLSchema#string">DS</literal>
      </binding>
      <binding name="dataset">
        <uri>http://rdf.cdisc.org/std/sdtmig-3-1-2#Dataset.DS</uri>
      </binding>
    </result>
    <result>
      <binding name="name">
        <literal datatype="http://www.w3.org/2001/XMLSchema#string">DSCAT</literal>
      </binding>
      <binding name="subject">
        <uri>http://rdf.cdisc.org/std/sdtmig-3-1-2#Column.DS.DSCAT</uri>
      </binding>
      <binding name="domainName">
        <literal datatype="http://www.w3.org/2001/XMLSchema#string">DS</literal>
      </binding>
      <binding name="dataset">
        <uri>http://rdf.cdisc.org/std/sdtmig-3-1-2#Dataset.DS</uri>
      </binding>
    </result>
    <result>
      <binding name="name">
        <literal datatype="http://www.w3.org/2001/XMLSchema#string">DSDECOD</literal>
      </binding>
      <binding name="subject">
        <uri>http://rdf.cdisc.org/std/sdtmig-3-1-2#Column.DS.DSDECOD</uri>
      </binding>
      <binding name="domainName">
        <literal datatype="http://www.w3.org/2001/XMLSchema#string">DS</literal>
      </binding>
      <binding name="dataset">
        <uri>http://rdf.cdisc.org/std/sdtmig-3-1-2#Dataset.DS</uri>
      </binding>
    </result>
    <result>
      <binding name="name">
        <literal datatype="http://www.w3.org/2001/XMLSchema#string">DSDTC</literal>
      </binding>
      <binding name="subject">
        <uri>http://rdf.cdisc.org/std/sdtmig-3-1-2#Column.DS.DSDTC</uri>
      </binding>
      <binding name="domainName">
        <literal datatype="http://www.w3.org/2001/XMLSchema#string">DS</literal>
      </binding>
      <binding name="dataset">
        <uri>http://rdf.cdisc.org/std/sdtmig-3-1-2#Dataset.DS</uri>
      </binding>
    </result>
    <result>
      <binding name="name">
        <literal datatype="http://www.w3.org/2001/XMLSchema#string">DSGRPID</literal>
      </binding>
      <binding name="subject">
        <uri>http://rdf.cdisc.org/std/sdtmig-3-1-2#Column.DS.DSGRPID</uri>
      </binding>
      <binding name="domainName">
        <literal datatype="http://www.w3.org/2001/XMLSchema#string">DS</literal>
      </binding>
      <binding name="dataset">
        <uri>http://rdf.cdisc.org/std/sdtmig-3-1-2#Dataset.DS</uri>
      </binding>
    </result>
    <result>
      <binding name="name">
        <literal datatype="http://www.w3.org/2001/XMLSchema#string">DSREFID</literal>
      </binding>
      <binding name="subject">
        <uri>http://rdf.cdisc.org/std/sdtmig-3-1-2#Column.DS.DSREFID</uri>
      </binding>
      <binding name="domainName">
        <literal datatype="http://www.w3.org/2001/XMLSchema#string">DS</literal>
      </binding>
      <binding name="dataset">
        <uri>http://rdf.cdisc.org/std/sdtmig-3-1-2#Dataset.DS</uri>
      </binding>
    </result>
    <result>
      <binding name="name">
        <literal datatype="http://www.w3.org/2001/XMLSchema#string">DSSCAT</literal>
      </binding>
      <binding name="subject">
        <uri>http://rdf.cdisc.org/std/sdtmig-3-1-2#Column.DS.DSSCAT</uri>
      </binding>
      <binding name="domainName">
        <literal datatype="http://www.w3.org/2001/XMLSchema#string">DS</literal>
      </binding>
      <binding name="dataset">
        <uri>http://rdf.cdisc.org/std/sdtmig-3-1-2#Dataset.DS</uri>
      </binding>
    </result>
    <result>
      <binding name="name">
        <literal datatype="http://www.w3.org/2001/XMLSchema#string">DSSEQ</literal>
      </binding>
      <binding name="subject">
        <uri>http://rdf.cdisc.org/std/sdtmig-3-1-2#Column.DS.DSSEQ</uri>
      </binding>
      <binding name="domainName">
        <literal datatype="http://www.w3.org/2001/XMLSchema#string">DS</literal>
      </binding>
      <binding name="dataset">
        <uri>http://rdf.cdisc.org/std/sdtmig-3-1-2#Dataset.DS</uri>
      </binding>
    </result>
    <result>
      <binding name="name">
        <literal datatype="http://www.w3.org/2001/XMLSchema#string">DSSPID</literal>
      </binding>
      <binding name="subject">
        <uri>http://rdf.cdisc.org/std/sdtmig-3-1-2#Column.DS.DSSPID</uri>
      </binding>
      <binding name="domainName">
        <literal datatype="http://www.w3.org/2001/XMLSchema#string">DS</literal>
      </binding>
      <binding name="dataset">
        <uri>http://rdf.cdisc.org/std/sdtmig-3-1-2#Dataset.DS</uri>
      </binding>
    </result>
    <result>
      <binding name="name">
        <literal datatype="http://www.w3.org/2001/XMLSchema#string">DSSTDTC</literal>
      </binding>
      <binding name="subject">
        <uri>http://rdf.cdisc.org/std/sdtmig-3-1-2#Column.DS.DSSTDTC</uri>
      </binding>
      <binding name="domainName">
        <literal datatype="http://www.w3.org/2001/XMLSchema#string">DS</literal>
      </binding>
      <binding name="dataset">
        <uri>http://rdf.cdisc.org/std/sdtmig-3-1-2#Dataset.DS</uri>
      </binding>
    </result>
    <result>
      <binding name="name">
        <literal datatype="http://www.w3.org/2001/XMLSchema#string">DSSTDY</literal>
      </binding>
      <binding name="subject">
        <uri>http://rdf.cdisc.org/std/sdtmig-3-1-2#Column.DS.DSSTDY</uri>
      </binding>
      <binding name="domainName">
        <literal datatype="http://www.w3.org/2001/XMLSchema#string">DS</literal>
      </binding>
      <binding name="dataset">
        <uri>http://rdf.cdisc.org/std/sdtmig-3-1-2#Dataset.DS</uri>
      </binding>
    </result>
    <result>
      <binding name="name">
        <literal datatype="http://www.w3.org/2001/XMLSchema#string">DSTERM</literal>
      </binding>
      <binding name="subject">
        <uri>http://rdf.cdisc.org/std/sdtmig-3-1-2#Column.DS.DSTERM</uri>
      </binding>
      <binding name="domainName">
        <literal datatype="http://www.w3.org/2001/XMLSchema#string">DS</literal>
      </binding>
      <binding name="dataset">
        <uri>http://rdf.cdisc.org/std/sdtmig-3-1-2#Dataset.DS</uri>
      </binding>
    </result>
    <result>
      <binding name="name">
        <literal datatype="http://www.w3.org/2001/XMLSchema#string">EPOCH</literal>
      </binding>
      <binding name="subject">
        <uri>http://rdf.cdisc.org/std/sdtmig-3-1-2#Column.DS.EPOCH</uri>
      </binding>
      <binding name="domainName">
        <literal datatype="http://www.w3.org/2001/XMLSchema#string">DS</literal>
      </binding>
      <binding name="dataset">
        <uri>http://rdf.cdisc.org/std/sdtmig-3-1-2#Dataset.DS</uri>
      </binding>
    </result>
    <result>
      <binding name="name">
        <literal datatype="http://www.w3.org/2001/XMLSchema#string">STUDYID</literal>
      </binding>
      <binding name="subject">
        <uri>http://rdf.cdisc.org/std/sdtmig-3-1-2#Column.DS.STUDYID</uri>
      </binding>
      <binding name="domainName">
        <literal datatype="http://www.w3.org/2001/XMLSchema#string">DS</literal>
      </binding>
      <binding name="dataset">
        <uri>http://rdf.cdisc.org/std/sdtmig-3-1-2#Dataset.DS</uri>
      </binding>
    </result>
    <result>
      <binding name="name">
        <literal datatype="http://www.w3.org/2001/XMLSchema#string">USUBJID</literal>
      </binding>
      <binding name="subject">
        <uri>http://rdf.cdisc.org/std/sdtmig-3-1-2#Column.DS.USUBJID</uri>
      </binding>
      <binding name="domainName">
        <literal datatype="http://www.w3.org/2001/XMLSchema#string">DS</literal>
      </binding>
      <binding name="dataset">
        <uri>http://rdf.cdisc.org/std/sdtmig-3-1-2#Dataset.DS</uri>
      </binding>
    </result>
    <result>
      <binding name="name">
        <literal datatype="http://www.w3.org/2001/XMLSchema#string">DOMAIN</literal>
      </binding>
      <binding name="subject">
        <uri>http://rdf.cdisc.org/std/sdtmig-3-1-2#Column.DV.DOMAIN</uri>
      </binding>
      <binding name="domainName">
        <literal datatype="http://www.w3.org/2001/XMLSchema#string">DV</literal>
      </binding>
      <binding name="dataset">
        <uri>http://rdf.cdisc.org/std/sdtmig-3-1-2#Dataset.DV</uri>
      </binding>
    </result>
    <result>
      <binding name="name">
        <literal datatype="http://www.w3.org/2001/XMLSchema#string">DVCAT</literal>
      </binding>
      <binding name="subject">
        <uri>http://rdf.cdisc.org/std/sdtmig-3-1-2#Column.DV.DVCAT</uri>
      </binding>
      <binding name="domainName">
        <literal datatype="http://www.w3.org/2001/XMLSchema#string">DV</literal>
      </binding>
      <binding name="dataset">
        <uri>http://rdf.cdisc.org/std/sdtmig-3-1-2#Dataset.DV</uri>
      </binding>
    </result>
    <result>
      <binding name="name">
        <literal datatype="http://www.w3.org/2001/XMLSchema#string">DVDECOD</literal>
      </binding>
      <binding name="subject">
        <uri>http://rdf.cdisc.org/std/sdtmig-3-1-2#Column.DV.DVDECOD</uri>
      </binding>
      <binding name="domainName">
        <literal datatype="http://www.w3.org/2001/XMLSchema#string">DV</literal>
      </binding>
      <binding name="dataset">
        <uri>http://rdf.cdisc.org/std/sdtmig-3-1-2#Dataset.DV</uri>
      </binding>
    </result>
    <result>
      <binding name="name">
        <literal datatype="http://www.w3.org/2001/XMLSchema#string">DVENDTC</literal>
      </binding>
      <binding name="subject">
        <uri>http://rdf.cdisc.org/std/sdtmig-3-1-2#Column.DV.DVENDTC</uri>
      </binding>
      <binding name="domainName">
        <literal datatype="http://www.w3.org/2001/XMLSchema#string">DV</literal>
      </binding>
      <binding name="dataset">
        <uri>http://rdf.cdisc.org/std/sdtmig-3-1-2#Dataset.DV</uri>
      </binding>
    </result>
    <result>
      <binding name="name">
        <literal datatype="http://www.w3.org/2001/XMLSchema#string">DVREFID</literal>
      </binding>
      <binding name="subject">
        <uri>http://rdf.cdisc.org/std/sdtmig-3-1-2#Column.DV.DVREFID</uri>
      </binding>
      <binding name="domainName">
        <literal datatype="http://www.w3.org/2001/XMLSchema#string">DV</literal>
      </binding>
      <binding name="dataset">
        <uri>http://rdf.cdisc.org/std/sdtmig-3-1-2#Dataset.DV</uri>
      </binding>
    </result>
    <result>
      <binding name="name">
        <literal datatype="http://www.w3.org/2001/XMLSchema#string">DVSCAT</literal>
      </binding>
      <binding name="subject">
        <uri>http://rdf.cdisc.org/std/sdtmig-3-1-2#Column.DV.DVSCAT</uri>
      </binding>
      <binding name="domainName">
        <literal datatype="http://www.w3.org/2001/XMLSchema#string">DV</literal>
      </binding>
      <binding name="dataset">
        <uri>http://rdf.cdisc.org/std/sdtmig-3-1-2#Dataset.DV</uri>
      </binding>
    </result>
    <result>
      <binding name="name">
        <literal datatype="http://www.w3.org/2001/XMLSchema#string">DVSEQ</literal>
      </binding>
      <binding name="subject">
        <uri>http://rdf.cdisc.org/std/sdtmig-3-1-2#Column.DV.DVSEQ</uri>
      </binding>
      <binding name="domainName">
        <literal datatype="http://www.w3.org/2001/XMLSchema#string">DV</literal>
      </binding>
      <binding name="dataset">
        <uri>http://rdf.cdisc.org/std/sdtmig-3-1-2#Dataset.DV</uri>
      </binding>
    </result>
    <result>
      <binding name="name">
        <literal datatype="http://www.w3.org/2001/XMLSchema#string">DVSPID</literal>
      </binding>
      <binding name="subject">
        <uri>http://rdf.cdisc.org/std/sdtmig-3-1-2#Column.DV.DVSPID</uri>
      </binding>
      <binding name="domainName">
        <literal datatype="http://www.w3.org/2001/XMLSchema#string">DV</literal>
      </binding>
      <binding name="dataset">
        <uri>http://rdf.cdisc.org/std/sdtmig-3-1-2#Dataset.DV</uri>
      </binding>
    </result>
    <result>
      <binding name="name">
        <literal datatype="http://www.w3.org/2001/XMLSchema#string">DVSTDTC</literal>
      </binding>
      <binding name="subject">
        <uri>http://rdf.cdisc.org/std/sdtmig-3-1-2#Column.DV.DVSTDTC</uri>
      </binding>
      <binding name="domainName">
        <literal datatype="http://www.w3.org/2001/XMLSchema#string">DV</literal>
      </binding>
      <binding name="dataset">
        <uri>http://rdf.cdisc.org/std/sdtmig-3-1-2#Dataset.DV</uri>
      </binding>
    </result>
    <result>
      <binding name="name">
        <literal datatype="http://www.w3.org/2001/XMLSchema#string">DVTERM</literal>
      </binding>
      <binding name="subject">
        <uri>http://rdf.cdisc.org/std/sdtmig-3-1-2#Column.DV.DVTERM</uri>
      </binding>
      <binding name="domainName">
        <literal datatype="http://www.w3.org/2001/XMLSchema#string">DV</literal>
      </binding>
      <binding name="dataset">
        <uri>http://rdf.cdisc.org/std/sdtmig-3-1-2#Dataset.DV</uri>
      </binding>
    </result>
    <result>
      <binding name="name">
        <literal datatype="http://www.w3.org/2001/XMLSchema#string">EPOCH</literal>
      </binding>
      <binding name="subject">
        <uri>http://rdf.cdisc.org/std/sdtmig-3-1-2#Column.DV.EPOCH</uri>
      </binding>
      <binding name="domainName">
        <literal datatype="http://www.w3.org/2001/XMLSchema#string">DV</literal>
      </binding>
      <binding name="dataset">
        <uri>http://rdf.cdisc.org/std/sdtmig-3-1-2#Dataset.DV</uri>
      </binding>
    </result>
    <result>
      <binding name="name">
        <literal datatype="http://www.w3.org/2001/XMLSchema#string">STUDYID</literal>
      </binding>
      <binding name="subject">
        <uri>http://rdf.cdisc.org/std/sdtmig-3-1-2#Column.DV.STUDYID</uri>
      </binding>
      <binding name="domainName">
        <literal datatype="http://www.w3.org/2001/XMLSchema#string">DV</literal>
      </binding>
      <binding name="dataset">
        <uri>http://rdf.cdisc.org/std/sdtmig-3-1-2#Dataset.DV</uri>
      </binding>
    </result>
    <result>
      <binding name="name">
        <literal datatype="http://www.w3.org/2001/XMLSchema#string">USUBJID</literal>
      </binding>
      <binding name="subject">
        <uri>http://rdf.cdisc.org/std/sdtmig-3-1-2#Column.DV.USUBJID</uri>
      </binding>
      <binding name="domainName">
        <literal datatype="http://www.w3.org/2001/XMLSchema#string">DV</literal>
      </binding>
      <binding name="dataset">
        <uri>http://rdf.cdisc.org/std/sdtmig-3-1-2#Dataset.DV</uri>
      </binding>
    </result>
    <result>
      <binding name="name">
        <literal datatype="http://www.w3.org/2001/XMLSchema#string">DOMAIN</literal>
      </binding>
      <binding name="subject">
        <uri>http://rdf.cdisc.org/std/sdtmig-3-1-2#Column.EG.DOMAIN</uri>
      </binding>
      <binding name="domainName">
        <literal datatype="http://www.w3.org/2001/XMLSchema#string">EG</literal>
      </binding>
      <binding name="dataset">
        <uri>http://rdf.cdisc.org/std/sdtmig-3-1-2#Dataset.EG</uri>
      </binding>
    </result>
    <result>
      <binding name="name">
        <literal datatype="http://www.w3.org/2001/XMLSchema#string">EGBLFL</literal>
      </binding>
      <binding name="subject">
        <uri>http://rdf.cdisc.org/std/sdtmig-3-1-2#Column.EG.EGBLFL</uri>
      </binding>
      <binding name="domainName">
        <literal datatype="http://www.w3.org/2001/XMLSchema#string">EG</literal>
      </binding>
      <binding name="dataset">
        <uri>http://rdf.cdisc.org/std/sdtmig-3-1-2#Dataset.EG</uri>
      </binding>
    </result>
    <result>
      <binding name="name">
        <literal datatype="http://www.w3.org/2001/XMLSchema#string">EGCAT</literal>
      </binding>
      <binding name="subject">
        <uri>http://rdf.cdisc.org/std/sdtmig-3-1-2#Column.EG.EGCAT</uri>
      </binding>
      <binding name="domainName">
        <literal datatype="http://www.w3.org/2001/XMLSchema#string">EG</literal>
      </binding>
      <binding name="dataset">
        <uri>http://rdf.cdisc.org/std/sdtmig-3-1-2#Dataset.EG</uri>
      </binding>
    </result>
    <result>
      <binding name="name">
        <literal datatype="http://www.w3.org/2001/XMLSchema#string">EGDRVFL</literal>
      </binding>
      <binding name="subject">
        <uri>http://rdf.cdisc.org/std/sdtmig-3-1-2#Column.EG.EGDRVFL</uri>
      </binding>
      <binding name="domainName">
        <literal datatype="http://www.w3.org/2001/XMLSchema#string">EG</literal>
      </binding>
      <binding name="dataset">
        <uri>http://rdf.cdisc.org/std/sdtmig-3-1-2#Dataset.EG</uri>
      </binding>
    </result>
    <result>
      <binding name="name">
        <literal datatype="http://www.w3.org/2001/XMLSchema#string">EGDTC</literal>
      </binding>
      <binding name="subject">
        <uri>http://rdf.cdisc.org/std/sdtmig-3-1-2#Column.EG.EGDTC</uri>
      </binding>
      <binding name="domainName">
        <literal datatype="http://www.w3.org/2001/XMLSchema#string">EG</literal>
      </binding>
      <binding name="dataset">
        <uri>http://rdf.cdisc.org/std/sdtmig-3-1-2#Dataset.EG</uri>
      </binding>
    </result>
    <result>
      <binding name="name">
        <literal datatype="http://www.w3.org/2001/XMLSchema#string">EGDY</literal>
      </binding>
      <binding name="subject">
        <uri>http://rdf.cdisc.org/std/sdtmig-3-1-2#Column.EG.EGDY</uri>
      </binding>
      <binding name="domainName">
        <literal datatype="http://www.w3.org/2001/XMLSchema#string">EG</literal>
      </binding>
      <binding name="dataset">
        <uri>http://rdf.cdisc.org/std/sdtmig-3-1-2#Dataset.EG</uri>
      </binding>
    </result>
    <result>
      <binding name="name">
        <literal datatype="http://www.w3.org/2001/XMLSchema#string">EGELTM</literal>
      </binding>
      <binding name="subject">
        <uri>http://rdf.cdisc.org/std/sdtmig-3-1-2#Column.EG.EGELTM</uri>
      </binding>
      <binding name="domainName">
        <literal datatype="http://www.w3.org/2001/XMLSchema#string">EG</literal>
      </binding>
      <binding name="dataset">
        <uri>http://rdf.cdisc.org/std/sdtmig-3-1-2#Dataset.EG</uri>
      </binding>
    </result>
    <result>
      <binding name="name">
        <literal datatype="http://www.w3.org/2001/XMLSchema#string">EGEVAL</literal>
      </binding>
      <binding name="subject">
        <uri>http://rdf.cdisc.org/std/sdtmig-3-1-2#Column.EG.EGEVAL</uri>
      </binding>
      <binding name="domainName">
        <literal datatype="http://www.w3.org/2001/XMLSchema#string">EG</literal>
      </binding>
      <binding name="dataset">
        <uri>http://rdf.cdisc.org/std/sdtmig-3-1-2#Dataset.EG</uri>
      </binding>
    </result>
    <result>
      <binding name="name">
        <literal datatype="http://www.w3.org/2001/XMLSchema#string">EGGRPID</literal>
      </binding>
      <binding name="subject">
        <uri>http://rdf.cdisc.org/std/sdtmig-3-1-2#Column.EG.EGGRPID</uri>
      </binding>
      <binding name="domainName">
        <literal datatype="http://www.w3.org/2001/XMLSchema#string">EG</literal>
      </binding>
      <binding name="dataset">
        <uri>http://rdf.cdisc.org/std/sdtmig-3-1-2#Dataset.EG</uri>
      </binding>
    </result>
    <result>
      <binding name="name">
        <literal datatype="http://www.w3.org/2001/XMLSchema#string">EGLOC</literal>
      </binding>
      <binding name="subject">
        <uri>http://rdf.cdisc.org/std/sdtmig-3-1-2#Column.EG.EGLOC</uri>
      </binding>
      <binding name="domainName">
        <literal datatype="http://www.w3.org/2001/XMLSchema#string">EG</literal>
      </binding>
      <binding name="dataset">
        <uri>http://rdf.cdisc.org/std/sdtmig-3-1-2#Dataset.EG</uri>
      </binding>
    </result>
    <result>
      <binding name="name">
        <literal datatype="http://www.w3.org/2001/XMLSchema#string">EGMETHOD</literal>
      </binding>
      <binding name="subject">
        <uri>http://rdf.cdisc.org/std/sdtmig-3-1-2#Column.EG.EGMETHOD</uri>
      </binding>
      <binding name="domainName">
        <literal datatype="http://www.w3.org/2001/XMLSchema#string">EG</literal>
      </binding>
      <binding name="dataset">
        <uri>http://rdf.cdisc.org/std/sdtmig-3-1-2#Dataset.EG</uri>
      </binding>
    </result>
    <result>
      <binding name="name">
        <literal datatype="http://www.w3.org/2001/XMLSchema#string">EGNAM</literal>
      </binding>
      <binding name="subject">
        <uri>http://rdf.cdisc.org/std/sdtmig-3-1-2#Column.EG.EGNAM</uri>
      </binding>
      <binding name="domainName">
        <literal datatype="http://www.w3.org/2001/XMLSchema#string">EG</literal>
      </binding>
      <binding name="dataset">
        <uri>http://rdf.cdisc.org/std/sdtmig-3-1-2#Dataset.EG</uri>
      </binding>
    </result>
    <result>
      <binding name="name">
        <literal datatype="http://www.w3.org/2001/XMLSchema#string">EGORRES</literal>
      </binding>
      <binding name="subject">
        <uri>http://rdf.cdisc.org/std/sdtmig-3-1-2#Column.EG.EGORRES</uri>
      </binding>
      <binding name="domainName">
        <literal datatype="http://www.w3.org/2001/XMLSchema#string">EG</literal>
      </binding>
      <binding name="dataset">
        <uri>http://rdf.cdisc.org/std/sdtmig-3-1-2#Dataset.EG</uri>
      </binding>
    </result>
    <result>
      <binding name="name">
        <literal datatype="http://www.w3.org/2001/XMLSchema#string">EGORRESU</literal>
      </binding>
      <binding name="subject">
        <uri>http://rdf.cdisc.org/std/sdtmig-3-1-2#Column.EG.EGORRESU</uri>
      </binding>
      <binding name="domainName">
        <literal datatype="http://www.w3.org/2001/XMLSchema#string">EG</literal>
      </binding>
      <binding name="dataset">
        <uri>http://rdf.cdisc.org/std/sdtmig-3-1-2#Dataset.EG</uri>
      </binding>
    </result>
    <result>
      <binding name="name">
        <literal datatype="http://www.w3.org/2001/XMLSchema#string">EGPOS</literal>
      </binding>
      <binding name="subject">
        <uri>http://rdf.cdisc.org/std/sdtmig-3-1-2#Column.EG.EGPOS</uri>
      </binding>
      <binding name="domainName">
        <literal datatype="http://www.w3.org/2001/XMLSchema#string">EG</literal>
      </binding>
      <binding name="dataset">
        <uri>http://rdf.cdisc.org/std/sdtmig-3-1-2#Dataset.EG</uri>
      </binding>
    </result>
    <result>
      <binding name="name">
        <literal datatype="http://www.w3.org/2001/XMLSchema#string">EGREASND</literal>
      </binding>
      <binding name="subject">
        <uri>http://rdf.cdisc.org/std/sdtmig-3-1-2#Column.EG.EGREASND</uri>
      </binding>
      <binding name="domainName">
        <literal datatype="http://www.w3.org/2001/XMLSchema#string">EG</literal>
      </binding>
      <binding name="dataset">
        <uri>http://rdf.cdisc.org/std/sdtmig-3-1-2#Dataset.EG</uri>
      </binding>
    </result>
    <result>
      <binding name="name">
        <literal datatype="http://www.w3.org/2001/XMLSchema#string">EGREFID</literal>
      </binding>
      <binding name="subject">
        <uri>http://rdf.cdisc.org/std/sdtmig-3-1-2#Column.EG.EGREFID</uri>
      </binding>
      <binding name="domainName">
        <literal datatype="http://www.w3.org/2001/XMLSchema#string">EG</literal>
      </binding>
      <binding name="dataset">
        <uri>http://rdf.cdisc.org/std/sdtmig-3-1-2#Dataset.EG</uri>
      </binding>
    </result>
    <result>
      <binding name="name">
        <literal datatype="http://www.w3.org/2001/XMLSchema#string">EGRFTDTC</literal>
      </binding>
      <binding name="subject">
        <uri>http://rdf.cdisc.org/std/sdtmig-3-1-2#Column.EG.EGRFTDTC</uri>
      </binding>
      <binding name="domainName">
        <literal datatype="http://www.w3.org/2001/XMLSchema#string">EG</literal>
      </binding>
      <binding name="dataset">
        <uri>http://rdf.cdisc.org/std/sdtmig-3-1-2#Dataset.EG</uri>
      </binding>
    </result>
    <result>
      <binding name="name">
        <literal datatype="http://www.w3.org/2001/XMLSchema#string">EGSCAT</literal>
      </binding>
      <binding name="subject">
        <uri>http://rdf.cdisc.org/std/sdtmig-3-1-2#Column.EG.EGSCAT</uri>
      </binding>
      <binding name="domainName">
        <literal datatype="http://www.w3.org/2001/XMLSchema#string">EG</literal>
      </binding>
      <binding name="dataset">
        <uri>http://rdf.cdisc.org/std/sdtmig-3-1-2#Dataset.EG</uri>
      </binding>
    </result>
    <result>
      <binding name="name">
        <literal datatype="http://www.w3.org/2001/XMLSchema#string">EGSEQ</literal>
      </binding>
      <binding name="subject">
        <uri>http://rdf.cdisc.org/std/sdtmig-3-1-2#Column.EG.EGSEQ</uri>
      </binding>
      <binding name="domainName">
        <literal datatype="http://www.w3.org/2001/XMLSchema#string">EG</literal>
      </binding>
      <binding name="dataset">
        <uri>http://rdf.cdisc.org/std/sdtmig-3-1-2#Dataset.EG</uri>
      </binding>
    </result>
    <result>
      <binding name="name">
        <literal datatype="http://www.w3.org/2001/XMLSchema#string">EGSPID</literal>
      </binding>
      <binding name="subject">
        <uri>http://rdf.cdisc.org/std/sdtmig-3-1-2#Column.EG.EGSPID</uri>
      </binding>
      <binding name="domainName">
        <literal datatype="http://www.w3.org/2001/XMLSchema#string">EG</literal>
      </binding>
      <binding name="dataset">
        <uri>http://rdf.cdisc.org/std/sdtmig-3-1-2#Dataset.EG</uri>
      </binding>
    </result>
    <result>
      <binding name="name">
        <literal datatype="http://www.w3.org/2001/XMLSchema#string">EGSTAT</literal>
      </binding>
      <binding name="subject">
        <uri>http://rdf.cdisc.org/std/sdtmig-3-1-2#Column.EG.EGSTAT</uri>
      </binding>
      <binding name="domainName">
        <literal datatype="http://www.w3.org/2001/XMLSchema#string">EG</literal>
      </binding>
      <binding name="dataset">
        <uri>http://rdf.cdisc.org/std/sdtmig-3-1-2#Dataset.EG</uri>
      </binding>
    </result>
    <result>
      <binding name="name">
        <literal datatype="http://www.w3.org/2001/XMLSchema#string">EGSTRESC</literal>
      </binding>
      <binding name="subject">
        <uri>http://rdf.cdisc.org/std/sdtmig-3-1-2#Column.EG.EGSTRESC</uri>
      </binding>
      <binding name="domainName">
        <literal datatype="http://www.w3.org/2001/XMLSchema#string">EG</literal>
      </binding>
      <binding name="dataset">
        <uri>http://rdf.cdisc.org/std/sdtmig-3-1-2#Dataset.EG</uri>
      </binding>
    </result>
    <result>
      <binding name="name">
        <literal datatype="http://www.w3.org/2001/XMLSchema#string">EGSTRESN</literal>
      </binding>
      <binding name="subject">
        <uri>http://rdf.cdisc.org/std/sdtmig-3-1-2#Column.EG.EGSTRESN</uri>
      </binding>
      <binding name="domainName">
        <literal datatype="http://www.w3.org/2001/XMLSchema#string">EG</literal>
      </binding>
      <binding name="dataset">
        <uri>http://rdf.cdisc.org/std/sdtmig-3-1-2#Dataset.EG</uri>
      </binding>
    </result>
    <result>
      <binding name="name">
        <literal datatype="http://www.w3.org/2001/XMLSchema#string">EGSTRESU</literal>
      </binding>
      <binding name="subject">
        <uri>http://rdf.cdisc.org/std/sdtmig-3-1-2#Column.EG.EGSTRESU</uri>
      </binding>
      <binding name="domainName">
        <literal datatype="http://www.w3.org/2001/XMLSchema#string">EG</literal>
      </binding>
      <binding name="dataset">
        <uri>http://rdf.cdisc.org/std/sdtmig-3-1-2#Dataset.EG</uri>
      </binding>
    </result>
    <result>
      <binding name="name">
        <literal datatype="http://www.w3.org/2001/XMLSchema#string">EGTEST</literal>
      </binding>
      <binding name="subject">
        <uri>http://rdf.cdisc.org/std/sdtmig-3-1-2#Column.EG.EGTEST</uri>
      </binding>
      <binding name="domainName">
        <literal datatype="http://www.w3.org/2001/XMLSchema#string">EG</literal>
      </binding>
      <binding name="dataset">
        <uri>http://rdf.cdisc.org/std/sdtmig-3-1-2#Dataset.EG</uri>
      </binding>
    </result>
    <result>
      <binding name="name">
        <literal datatype="http://www.w3.org/2001/XMLSchema#string">EGTESTCD</literal>
      </binding>
      <binding name="subject">
        <uri>http://rdf.cdisc.org/std/sdtmig-3-1-2#Column.EG.EGTESTCD</uri>
      </binding>
      <binding name="domainName">
        <literal datatype="http://www.w3.org/2001/XMLSchema#string">EG</literal>
      </binding>
      <binding name="dataset">
        <uri>http://rdf.cdisc.org/std/sdtmig-3-1-2#Dataset.EG</uri>
      </binding>
    </result>
    <result>
      <binding name="name">
        <literal datatype="http://www.w3.org/2001/XMLSchema#string">EGTPT</literal>
      </binding>
      <binding name="subject">
        <uri>http://rdf.cdisc.org/std/sdtmig-3-1-2#Column.EG.EGTPT</uri>
      </binding>
      <binding name="domainName">
        <literal datatype="http://www.w3.org/2001/XMLSchema#string">EG</literal>
      </binding>
      <binding name="dataset">
        <uri>http://rdf.cdisc.org/std/sdtmig-3-1-2#Dataset.EG</uri>
      </binding>
    </result>
    <result>
      <binding name="name">
        <literal datatype="http://www.w3.org/2001/XMLSchema#string">EGTPTNUM</literal>
      </binding>
      <binding name="subject">
        <uri>http://rdf.cdisc.org/std/sdtmig-3-1-2#Column.EG.EGTPTNUM</uri>
      </binding>
      <binding name="domainName">
        <literal datatype="http://www.w3.org/2001/XMLSchema#string">EG</literal>
      </binding>
      <binding name="dataset">
        <uri>http://rdf.cdisc.org/std/sdtmig-3-1-2#Dataset.EG</uri>
      </binding>
    </result>
    <result>
      <binding name="name">
        <literal datatype="http://www.w3.org/2001/XMLSchema#string">EGTPTREF</literal>
      </binding>
      <binding name="subject">
        <uri>http://rdf.cdisc.org/std/sdtmig-3-1-2#Column.EG.EGTPTREF</uri>
      </binding>
      <binding name="domainName">
        <literal datatype="http://www.w3.org/2001/XMLSchema#string">EG</literal>
      </binding>
      <binding name="dataset">
        <uri>http://rdf.cdisc.org/std/sdtmig-3-1-2#Dataset.EG</uri>
      </binding>
    </result>
    <result>
      <binding name="name">
        <literal datatype="http://www.w3.org/2001/XMLSchema#string">EGXFN</literal>
      </binding>
      <binding name="subject">
        <uri>http://rdf.cdisc.org/std/sdtmig-3-1-2#Column.EG.EGXFN</uri>
      </binding>
      <binding name="domainName">
        <literal datatype="http://www.w3.org/2001/XMLSchema#string">EG</literal>
      </binding>
      <binding name="dataset">
        <uri>http://rdf.cdisc.org/std/sdtmig-3-1-2#Dataset.EG</uri>
      </binding>
    </result>
    <result>
      <binding name="name">
        <literal datatype="http://www.w3.org/2001/XMLSchema#string">STUDYID</literal>
      </binding>
      <binding name="subject">
        <uri>http://rdf.cdisc.org/std/sdtmig-3-1-2#Column.EG.STUDYID</uri>
      </binding>
      <binding name="domainName">
        <literal datatype="http://www.w3.org/2001/XMLSchema#string">EG</literal>
      </binding>
      <binding name="dataset">
        <uri>http://rdf.cdisc.org/std/sdtmig-3-1-2#Dataset.EG</uri>
      </binding>
    </result>
    <result>
      <binding name="name">
        <literal datatype="http://www.w3.org/2001/XMLSchema#string">USUBJID</literal>
      </binding>
      <binding name="subject">
        <uri>http://rdf.cdisc.org/std/sdtmig-3-1-2#Column.EG.USUBJID</uri>
      </binding>
      <binding name="domainName">
        <literal datatype="http://www.w3.org/2001/XMLSchema#string">EG</literal>
      </binding>
      <binding name="dataset">
        <uri>http://rdf.cdisc.org/std/sdtmig-3-1-2#Dataset.EG</uri>
      </binding>
    </result>
    <result>
      <binding name="name">
        <literal datatype="http://www.w3.org/2001/XMLSchema#string">VISIT</literal>
      </binding>
      <binding name="subject">
        <uri>http://rdf.cdisc.org/std/sdtmig-3-1-2#Column.EG.VISIT</uri>
      </binding>
      <binding name="domainName">
        <literal datatype="http://www.w3.org/2001/XMLSchema#string">EG</literal>
      </binding>
      <binding name="dataset">
        <uri>http://rdf.cdisc.org/std/sdtmig-3-1-2#Dataset.EG</uri>
      </binding>
    </result>
    <result>
      <binding name="name">
        <literal datatype="http://www.w3.org/2001/XMLSchema#string">VISITDY</literal>
      </binding>
      <binding name="subject">
        <uri>http://rdf.cdisc.org/std/sdtmig-3-1-2#Column.EG.VISITDY</uri>
      </binding>
      <binding name="domainName">
        <literal datatype="http://www.w3.org/2001/XMLSchema#string">EG</literal>
      </binding>
      <binding name="dataset">
        <uri>http://rdf.cdisc.org/std/sdtmig-3-1-2#Dataset.EG</uri>
      </binding>
    </result>
    <result>
      <binding name="name">
        <literal datatype="http://www.w3.org/2001/XMLSchema#string">VISITNUM</literal>
      </binding>
      <binding name="subject">
        <uri>http://rdf.cdisc.org/std/sdtmig-3-1-2#Column.EG.VISITNUM</uri>
      </binding>
      <binding name="domainName">
        <literal datatype="http://www.w3.org/2001/XMLSchema#string">EG</literal>
      </binding>
      <binding name="dataset">
        <uri>http://rdf.cdisc.org/std/sdtmig-3-1-2#Dataset.EG</uri>
      </binding>
    </result>
    <result>
      <binding name="name">
        <literal datatype="http://www.w3.org/2001/XMLSchema#string">DOMAIN</literal>
      </binding>
      <binding name="subject">
        <uri>http://rdf.cdisc.org/std/sdtmig-3-1-2#Column.EX.DOMAIN</uri>
      </binding>
      <binding name="domainName">
        <literal datatype="http://www.w3.org/2001/XMLSchema#string">EX</literal>
      </binding>
      <binding name="dataset">
        <uri>http://rdf.cdisc.org/std/sdtmig-3-1-2#Dataset.EX</uri>
      </binding>
    </result>
    <result>
      <binding name="name">
        <literal datatype="http://www.w3.org/2001/XMLSchema#string">EPOCH</literal>
      </binding>
      <binding name="subject">
        <uri>http://rdf.cdisc.org/std/sdtmig-3-1-2#Column.EX.EPOCH</uri>
      </binding>
      <binding name="domainName">
        <literal datatype="http://www.w3.org/2001/XMLSchema#string">EX</literal>
      </binding>
      <binding name="dataset">
        <uri>http://rdf.cdisc.org/std/sdtmig-3-1-2#Dataset.EX</uri>
      </binding>
    </result>
    <result>
      <binding name="name">
        <literal datatype="http://www.w3.org/2001/XMLSchema#string">EXADJ</literal>
      </binding>
      <binding name="subject">
        <uri>http://rdf.cdisc.org/std/sdtmig-3-1-2#Column.EX.EXADJ</uri>
      </binding>
      <binding name="domainName">
        <literal datatype="http://www.w3.org/2001/XMLSchema#string">EX</literal>
      </binding>
      <binding name="dataset">
        <uri>http://rdf.cdisc.org/std/sdtmig-3-1-2#Dataset.EX</uri>
      </binding>
    </result>
    <result>
      <binding name="name">
        <literal datatype="http://www.w3.org/2001/XMLSchema#string">EXCAT</literal>
      </binding>
      <binding name="subject">
        <uri>http://rdf.cdisc.org/std/sdtmig-3-1-2#Column.EX.EXCAT</uri>
      </binding>
      <binding name="domainName">
        <literal datatype="http://www.w3.org/2001/XMLSchema#string">EX</literal>
      </binding>
      <binding name="dataset">
        <uri>http://rdf.cdisc.org/std/sdtmig-3-1-2#Dataset.EX</uri>
      </binding>
    </result>
    <result>
      <binding name="name">
        <literal datatype="http://www.w3.org/2001/XMLSchema#string">EXDOSE</literal>
      </binding>
      <binding name="subject">
        <uri>http://rdf.cdisc.org/std/sdtmig-3-1-2#Column.EX.EXDOSE</uri>
      </binding>
      <binding name="domainName">
        <literal datatype="http://www.w3.org/2001/XMLSchema#string">EX</literal>
      </binding>
      <binding name="dataset">
        <uri>http://rdf.cdisc.org/std/sdtmig-3-1-2#Dataset.EX</uri>
      </binding>
    </result>
    <result>
      <binding name="name">
        <literal datatype="http://www.w3.org/2001/XMLSchema#string">EXDOSFRM</literal>
      </binding>
      <binding name="subject">
        <uri>http://rdf.cdisc.org/std/sdtmig-3-1-2#Column.EX.EXDOSFRM</uri>
      </binding>
      <binding name="domainName">
        <literal datatype="http://www.w3.org/2001/XMLSchema#string">EX</literal>
      </binding>
      <binding name="dataset">
        <uri>http://rdf.cdisc.org/std/sdtmig-3-1-2#Dataset.EX</uri>
      </binding>
    </result>
    <result>
      <binding name="name">
        <literal datatype="http://www.w3.org/2001/XMLSchema#string">EXDOSFRQ</literal>
      </binding>
      <binding name="subject">
        <uri>http://rdf.cdisc.org/std/sdtmig-3-1-2#Column.EX.EXDOSFRQ</uri>
      </binding>
      <binding name="domainName">
        <literal datatype="http://www.w3.org/2001/XMLSchema#string">EX</literal>
      </binding>
      <binding name="dataset">
        <uri>http://rdf.cdisc.org/std/sdtmig-3-1-2#Dataset.EX</uri>
      </binding>
    </result>
    <result>
      <binding name="name">
        <literal datatype="http://www.w3.org/2001/XMLSchema#string">EXDOSRGM</literal>
      </binding>
      <binding name="subject">
        <uri>http://rdf.cdisc.org/std/sdtmig-3-1-2#Column.EX.EXDOSRGM</uri>
      </binding>
      <binding name="domainName">
        <literal datatype="http://www.w3.org/2001/XMLSchema#string">EX</literal>
      </binding>
      <binding name="dataset">
        <uri>http://rdf.cdisc.org/std/sdtmig-3-1-2#Dataset.EX</uri>
      </binding>
    </result>
    <result>
      <binding name="name">
        <literal datatype="http://www.w3.org/2001/XMLSchema#string">EXDOSTOT</literal>
      </binding>
      <binding name="subject">
        <uri>http://rdf.cdisc.org/std/sdtmig-3-1-2#Column.EX.EXDOSTOT</uri>
      </binding>
      <binding name="domainName">
        <literal datatype="http://www.w3.org/2001/XMLSchema#string">EX</literal>
      </binding>
      <binding name="dataset">
        <uri>http://rdf.cdisc.org/std/sdtmig-3-1-2#Dataset.EX</uri>
      </binding>
    </result>
    <result>
      <binding name="name">
        <literal datatype="http://www.w3.org/2001/XMLSchema#string">EXDOSTXT</literal>
      </binding>
      <binding name="subject">
        <uri>http://rdf.cdisc.org/std/sdtmig-3-1-2#Column.EX.EXDOSTXT</uri>
      </binding>
      <binding name="domainName">
        <literal datatype="http://www.w3.org/2001/XMLSchema#string">EX</literal>
      </binding>
      <binding name="dataset">
        <uri>http://rdf.cdisc.org/std/sdtmig-3-1-2#Dataset.EX</uri>
      </binding>
    </result>
    <result>
      <binding name="name">
        <literal datatype="http://www.w3.org/2001/XMLSchema#string">EXDOSU</literal>
      </binding>
      <binding name="subject">
        <uri>http://rdf.cdisc.org/std/sdtmig-3-1-2#Column.EX.EXDOSU</uri>
      </binding>
      <binding name="domainName">
        <literal datatype="http://www.w3.org/2001/XMLSchema#string">EX</literal>
      </binding>
      <binding name="dataset">
        <uri>http://rdf.cdisc.org/std/sdtmig-3-1-2#Dataset.EX</uri>
      </binding>
    </result>
    <result>
      <binding name="name">
        <literal datatype="http://www.w3.org/2001/XMLSchema#string">EXDUR</literal>
      </binding>
      <binding name="subject">
        <uri>http://rdf.cdisc.org/std/sdtmig-3-1-2#Column.EX.EXDUR</uri>
      </binding>
      <binding name="domainName">
        <literal datatype="http://www.w3.org/2001/XMLSchema#string">EX</literal>
      </binding>
      <binding name="dataset">
        <uri>http://rdf.cdisc.org/std/sdtmig-3-1-2#Dataset.EX</uri>
      </binding>
    </result>
    <result>
      <binding name="name">
        <literal datatype="http://www.w3.org/2001/XMLSchema#string">EXELTM</literal>
      </binding>
      <binding name="subject">
        <uri>http://rdf.cdisc.org/std/sdtmig-3-1-2#Column.EX.EXELTM</uri>
      </binding>
      <binding name="domainName">
        <literal datatype="http://www.w3.org/2001/XMLSchema#string">EX</literal>
      </binding>
      <binding name="dataset">
        <uri>http://rdf.cdisc.org/std/sdtmig-3-1-2#Dataset.EX</uri>
      </binding>
    </result>
    <result>
      <binding name="name">
        <literal datatype="http://www.w3.org/2001/XMLSchema#string">EXENDTC</literal>
      </binding>
      <binding name="subject">
        <uri>http://rdf.cdisc.org/std/sdtmig-3-1-2#Column.EX.EXENDTC</uri>
      </binding>
      <binding name="domainName">
        <literal datatype="http://www.w3.org/2001/XMLSchema#string">EX</literal>
      </binding>
      <binding name="dataset">
        <uri>http://rdf.cdisc.org/std/sdtmig-3-1-2#Dataset.EX</uri>
      </binding>
    </result>
    <result>
      <binding name="name">
        <literal datatype="http://www.w3.org/2001/XMLSchema#string">EXENDY</literal>
      </binding>
      <binding name="subject">
        <uri>http://rdf.cdisc.org/std/sdtmig-3-1-2#Column.EX.EXENDY</uri>
      </binding>
      <binding name="domainName">
        <literal datatype="http://www.w3.org/2001/XMLSchema#string">EX</literal>
      </binding>
      <binding name="dataset">
        <uri>http://rdf.cdisc.org/std/sdtmig-3-1-2#Dataset.EX</uri>
      </binding>
    </result>
    <result>
      <binding name="name">
        <literal datatype="http://www.w3.org/2001/XMLSchema#string">EXGRPID</literal>
      </binding>
      <binding name="subject">
        <uri>http://rdf.cdisc.org/std/sdtmig-3-1-2#Column.EX.EXGRPID</uri>
      </binding>
      <binding name="domainName">
        <literal datatype="http://www.w3.org/2001/XMLSchema#string">EX</literal>
      </binding>
      <binding name="dataset">
        <uri>http://rdf.cdisc.org/std/sdtmig-3-1-2#Dataset.EX</uri>
      </binding>
    </result>
    <result>
      <binding name="name">
        <literal datatype="http://www.w3.org/2001/XMLSchema#string">EXLOC</literal>
      </binding>
      <binding name="subject">
        <uri>http://rdf.cdisc.org/std/sdtmig-3-1-2#Column.EX.EXLOC</uri>
      </binding>
      <binding name="domainName">
        <literal datatype="http://www.w3.org/2001/XMLSchema#string">EX</literal>
      </binding>
      <binding name="dataset">
        <uri>http://rdf.cdisc.org/std/sdtmig-3-1-2#Dataset.EX</uri>
      </binding>
    </result>
    <result>
      <binding name="name">
        <literal datatype="http://www.w3.org/2001/XMLSchema#string">EXLOT</literal>
      </binding>
      <binding name="subject">
        <uri>http://rdf.cdisc.org/std/sdtmig-3-1-2#Column.EX.EXLOT</uri>
      </binding>
      <binding name="domainName">
        <literal datatype="http://www.w3.org/2001/XMLSchema#string">EX</literal>
      </binding>
      <binding name="dataset">
        <uri>http://rdf.cdisc.org/std/sdtmig-3-1-2#Dataset.EX</uri>
      </binding>
    </result>
    <result>
      <binding name="name">
        <literal datatype="http://www.w3.org/2001/XMLSchema#string">EXROUTE</literal>
      </binding>
      <binding name="subject">
        <uri>http://rdf.cdisc.org/std/sdtmig-3-1-2#Column.EX.EXROUTE</uri>
      </binding>
      <binding name="domainName">
        <literal datatype="http://www.w3.org/2001/XMLSchema#string">EX</literal>
      </binding>
      <binding name="dataset">
        <uri>http://rdf.cdisc.org/std/sdtmig-3-1-2#Dataset.EX</uri>
      </binding>
    </result>
    <result>
      <binding name="name">
        <literal datatype="http://www.w3.org/2001/XMLSchema#string">EXSCAT</literal>
      </binding>
      <binding name="subject">
        <uri>http://rdf.cdisc.org/std/sdtmig-3-1-2#Column.EX.EXSCAT</uri>
      </binding>
      <binding name="domainName">
        <literal datatype="http://www.w3.org/2001/XMLSchema#string">EX</literal>
      </binding>
      <binding name="dataset">
        <uri>http://rdf.cdisc.org/std/sdtmig-3-1-2#Dataset.EX</uri>
      </binding>
    </result>
    <result>
      <binding name="name">
        <literal datatype="http://www.w3.org/2001/XMLSchema#string">EXSEQ</literal>
      </binding>
      <binding name="subject">
        <uri>http://rdf.cdisc.org/std/sdtmig-3-1-2#Column.EX.EXSEQ</uri>
      </binding>
      <binding name="domainName">
        <literal datatype="http://www.w3.org/2001/XMLSchema#string">EX</literal>
      </binding>
      <binding name="dataset">
        <uri>http://rdf.cdisc.org/std/sdtmig-3-1-2#Dataset.EX</uri>
      </binding>
    </result>
    <result>
      <binding name="name">
        <literal datatype="http://www.w3.org/2001/XMLSchema#string">EXSPID</literal>
      </binding>
      <binding name="subject">
        <uri>http://rdf.cdisc.org/std/sdtmig-3-1-2#Column.EX.EXSPID</uri>
      </binding>
      <binding name="domainName">
        <literal datatype="http://www.w3.org/2001/XMLSchema#string">EX</literal>
      </binding>
      <binding name="dataset">
        <uri>http://rdf.cdisc.org/std/sdtmig-3-1-2#Dataset.EX</uri>
      </binding>
    </result>
    <result>
      <binding name="name">
        <literal datatype="http://www.w3.org/2001/XMLSchema#string">EXSTDTC</literal>
      </binding>
      <binding name="subject">
        <uri>http://rdf.cdisc.org/std/sdtmig-3-1-2#Column.EX.EXSTDTC</uri>
      </binding>
      <binding name="domainName">
        <literal datatype="http://www.w3.org/2001/XMLSchema#string">EX</literal>
      </binding>
      <binding name="dataset">
        <uri>http://rdf.cdisc.org/std/sdtmig-3-1-2#Dataset.EX</uri>
      </binding>
    </result>
    <result>
      <binding name="name">
        <literal datatype="http://www.w3.org/2001/XMLSchema#string">EXSTDY</literal>
      </binding>
      <binding name="subject">
        <uri>http://rdf.cdisc.org/std/sdtmig-3-1-2#Column.EX.EXSTDY</uri>
      </binding>
      <binding name="domainName">
        <literal datatype="http://www.w3.org/2001/XMLSchema#string">EX</literal>
      </binding>
      <binding name="dataset">
        <uri>http://rdf.cdisc.org/std/sdtmig-3-1-2#Dataset.EX</uri>
      </binding>
    </result>
    <result>
      <binding name="name">
        <literal datatype="http://www.w3.org/2001/XMLSchema#string">EXTPT</literal>
      </binding>
      <binding name="subject">
        <uri>http://rdf.cdisc.org/std/sdtmig-3-1-2#Column.EX.EXTPT</uri>
      </binding>
      <binding name="domainName">
        <literal datatype="http://www.w3.org/2001/XMLSchema#string">EX</literal>
      </binding>
      <binding name="dataset">
        <uri>http://rdf.cdisc.org/std/sdtmig-3-1-2#Dataset.EX</uri>
      </binding>
    </result>
    <result>
      <binding name="name">
        <literal datatype="http://www.w3.org/2001/XMLSchema#string">EXTPTNUM</literal>
      </binding>
      <binding name="subject">
        <uri>http://rdf.cdisc.org/std/sdtmig-3-1-2#Column.EX.EXTPTNUM</uri>
      </binding>
      <binding name="domainName">
        <literal datatype="http://www.w3.org/2001/XMLSchema#string">EX</literal>
      </binding>
      <binding name="dataset">
        <uri>http://rdf.cdisc.org/std/sdtmig-3-1-2#Dataset.EX</uri>
      </binding>
    </result>
    <result>
      <binding name="name">
        <literal datatype="http://www.w3.org/2001/XMLSchema#string">EXTPTREF</literal>
      </binding>
      <binding name="subject">
        <uri>http://rdf.cdisc.org/std/sdtmig-3-1-2#Column.EX.EXTPTREF</uri>
      </binding>
      <binding name="domainName">
        <literal datatype="http://www.w3.org/2001/XMLSchema#string">EX</literal>
      </binding>
      <binding name="dataset">
        <uri>http://rdf.cdisc.org/std/sdtmig-3-1-2#Dataset.EX</uri>
      </binding>
    </result>
    <result>
      <binding name="name">
        <literal datatype="http://www.w3.org/2001/XMLSchema#string">EXTRT</literal>
      </binding>
      <binding name="subject">
        <uri>http://rdf.cdisc.org/std/sdtmig-3-1-2#Column.EX.EXTRT</uri>
      </binding>
      <binding name="domainName">
        <literal datatype="http://www.w3.org/2001/XMLSchema#string">EX</literal>
      </binding>
      <binding name="dataset">
        <uri>http://rdf.cdisc.org/std/sdtmig-3-1-2#Dataset.EX</uri>
      </binding>
    </result>
    <result>
      <binding name="name">
        <literal datatype="http://www.w3.org/2001/XMLSchema#string">EXTRTV</literal>
      </binding>
      <binding name="subject">
        <uri>http://rdf.cdisc.org/std/sdtmig-3-1-2#Column.EX.EXTRTV</uri>
      </binding>
      <binding name="domainName">
        <literal datatype="http://www.w3.org/2001/XMLSchema#string">EX</literal>
      </binding>
      <binding name="dataset">
        <uri>http://rdf.cdisc.org/std/sdtmig-3-1-2#Dataset.EX</uri>
      </binding>
    </result>
    <result>
      <binding name="name">
        <literal datatype="http://www.w3.org/2001/XMLSchema#string">EXVAMT</literal>
      </binding>
      <binding name="subject">
        <uri>http://rdf.cdisc.org/std/sdtmig-3-1-2#Column.EX.EXVAMT</uri>
      </binding>
      <binding name="domainName">
        <literal datatype="http://www.w3.org/2001/XMLSchema#string">EX</literal>
      </binding>
      <binding name="dataset">
        <uri>http://rdf.cdisc.org/std/sdtmig-3-1-2#Dataset.EX</uri>
      </binding>
    </result>
    <result>
      <binding name="name">
        <literal datatype="http://www.w3.org/2001/XMLSchema#string">EXVAMTU</literal>
      </binding>
      <binding name="subject">
        <uri>http://rdf.cdisc.org/std/sdtmig-3-1-2#Column.EX.EXVAMTU</uri>
      </binding>
      <binding name="domainName">
        <literal datatype="http://www.w3.org/2001/XMLSchema#string">EX</literal>
      </binding>
      <binding name="dataset">
        <uri>http://rdf.cdisc.org/std/sdtmig-3-1-2#Dataset.EX</uri>
      </binding>
    </result>
    <result>
      <binding name="name">
        <literal datatype="http://www.w3.org/2001/XMLSchema#string">STUDYID</literal>
      </binding>
      <binding name="subject">
        <uri>http://rdf.cdisc.org/std/sdtmig-3-1-2#Column.EX.STUDYID</uri>
      </binding>
      <binding name="domainName">
        <literal datatype="http://www.w3.org/2001/XMLSchema#string">EX</literal>
      </binding>
      <binding name="dataset">
        <uri>http://rdf.cdisc.org/std/sdtmig-3-1-2#Dataset.EX</uri>
      </binding>
    </result>
    <result>
      <binding name="name">
        <literal datatype="http://www.w3.org/2001/XMLSchema#string">TAETORD</literal>
      </binding>
      <binding name="subject">
        <uri>http://rdf.cdisc.org/std/sdtmig-3-1-2#Column.EX.TAETORD</uri>
      </binding>
      <binding name="domainName">
        <literal datatype="http://www.w3.org/2001/XMLSchema#string">EX</literal>
      </binding>
      <binding name="dataset">
        <uri>http://rdf.cdisc.org/std/sdtmig-3-1-2#Dataset.EX</uri>
      </binding>
    </result>
    <result>
      <binding name="name">
        <literal datatype="http://www.w3.org/2001/XMLSchema#string">USUBJID</literal>
      </binding>
      <binding name="subject">
        <uri>http://rdf.cdisc.org/std/sdtmig-3-1-2#Column.EX.USUBJID</uri>
      </binding>
      <binding name="domainName">
        <literal datatype="http://www.w3.org/2001/XMLSchema#string">EX</literal>
      </binding>
      <binding name="dataset">
        <uri>http://rdf.cdisc.org/std/sdtmig-3-1-2#Dataset.EX</uri>
      </binding>
    </result>
    <result>
      <binding name="name">
        <literal datatype="http://www.w3.org/2001/XMLSchema#string">DOMAIN</literal>
      </binding>
      <binding name="subject">
        <uri>http://rdf.cdisc.org/std/sdtmig-3-1-2#Column.FA.DOMAIN</uri>
      </binding>
      <binding name="domainName">
        <literal datatype="http://www.w3.org/2001/XMLSchema#string">FA</literal>
      </binding>
      <binding name="dataset">
        <uri>http://rdf.cdisc.org/std/sdtmig-3-1-2#Dataset.FA</uri>
      </binding>
    </result>
    <result>
      <binding name="name">
        <literal datatype="http://www.w3.org/2001/XMLSchema#string">FABLFL</literal>
      </binding>
      <binding name="subject">
        <uri>http://rdf.cdisc.org/std/sdtmig-3-1-2#Column.FA.FABLFL</uri>
      </binding>
      <binding name="domainName">
        <literal datatype="http://www.w3.org/2001/XMLSchema#string">FA</literal>
      </binding>
      <binding name="dataset">
        <uri>http://rdf.cdisc.org/std/sdtmig-3-1-2#Dataset.FA</uri>
      </binding>
    </result>
    <result>
      <binding name="name">
        <literal datatype="http://www.w3.org/2001/XMLSchema#string">FACAT</literal>
      </binding>
      <binding name="subject">
        <uri>http://rdf.cdisc.org/std/sdtmig-3-1-2#Column.FA.FACAT</uri>
      </binding>
      <binding name="domainName">
        <literal datatype="http://www.w3.org/2001/XMLSchema#string">FA</literal>
      </binding>
      <binding name="dataset">
        <uri>http://rdf.cdisc.org/std/sdtmig-3-1-2#Dataset.FA</uri>
      </binding>
    </result>
    <result>
      <binding name="name">
        <literal datatype="http://www.w3.org/2001/XMLSchema#string">FADTC</literal>
      </binding>
      <binding name="subject">
        <uri>http://rdf.cdisc.org/std/sdtmig-3-1-2#Column.FA.FADTC</uri>
      </binding>
      <binding name="domainName">
        <literal datatype="http://www.w3.org/2001/XMLSchema#string">FA</literal>
      </binding>
      <binding name="dataset">
        <uri>http://rdf.cdisc.org/std/sdtmig-3-1-2#Dataset.FA</uri>
      </binding>
    </result>
    <result>
      <binding name="name">
        <literal datatype="http://www.w3.org/2001/XMLSchema#string">FADY</literal>
      </binding>
      <binding name="subject">
        <uri>http://rdf.cdisc.org/std/sdtmig-3-1-2#Column.FA.FADY</uri>
      </binding>
      <binding name="domainName">
        <literal datatype="http://www.w3.org/2001/XMLSchema#string">FA</literal>
      </binding>
      <binding name="dataset">
        <uri>http://rdf.cdisc.org/std/sdtmig-3-1-2#Dataset.FA</uri>
      </binding>
    </result>
    <result>
      <binding name="name">
        <literal datatype="http://www.w3.org/2001/XMLSchema#string">FAEVAL</literal>
      </binding>
      <binding name="subject">
        <uri>http://rdf.cdisc.org/std/sdtmig-3-1-2#Column.FA.FAEVAL</uri>
      </binding>
      <binding name="domainName">
        <literal datatype="http://www.w3.org/2001/XMLSchema#string">FA</literal>
      </binding>
      <binding name="dataset">
        <uri>http://rdf.cdisc.org/std/sdtmig-3-1-2#Dataset.FA</uri>
      </binding>
    </result>
    <result>
      <binding name="name">
        <literal datatype="http://www.w3.org/2001/XMLSchema#string">FAGRPID</literal>
      </binding>
      <binding name="subject">
        <uri>http://rdf.cdisc.org/std/sdtmig-3-1-2#Column.FA.FAGRPID</uri>
      </binding>
      <binding name="domainName">
        <literal datatype="http://www.w3.org/2001/XMLSchema#string">FA</literal>
      </binding>
      <binding name="dataset">
        <uri>http://rdf.cdisc.org/std/sdtmig-3-1-2#Dataset.FA</uri>
      </binding>
    </result>
    <result>
      <binding name="name">
        <literal datatype="http://www.w3.org/2001/XMLSchema#string">FALOC</literal>
      </binding>
      <binding name="subject">
        <uri>http://rdf.cdisc.org/std/sdtmig-3-1-2#Column.FA.FALOC</uri>
      </binding>
      <binding name="domainName">
        <literal datatype="http://www.w3.org/2001/XMLSchema#string">FA</literal>
      </binding>
      <binding name="dataset">
        <uri>http://rdf.cdisc.org/std/sdtmig-3-1-2#Dataset.FA</uri>
      </binding>
    </result>
    <result>
      <binding name="name">
        <literal datatype="http://www.w3.org/2001/XMLSchema#string">FAOBJ</literal>
      </binding>
      <binding name="subject">
        <uri>http://rdf.cdisc.org/std/sdtmig-3-1-2#Column.FA.FAOBJ</uri>
      </binding>
      <binding name="domainName">
        <literal datatype="http://www.w3.org/2001/XMLSchema#string">FA</literal>
      </binding>
      <binding name="dataset">
        <uri>http://rdf.cdisc.org/std/sdtmig-3-1-2#Dataset.FA</uri>
      </binding>
    </result>
    <result>
      <binding name="name">
        <literal datatype="http://www.w3.org/2001/XMLSchema#string">FAORRES</literal>
      </binding>
      <binding name="subject">
        <uri>http://rdf.cdisc.org/std/sdtmig-3-1-2#Column.FA.FAORRES</uri>
      </binding>
      <binding name="domainName">
        <literal datatype="http://www.w3.org/2001/XMLSchema#string">FA</literal>
      </binding>
      <binding name="dataset">
        <uri>http://rdf.cdisc.org/std/sdtmig-3-1-2#Dataset.FA</uri>
      </binding>
    </result>
    <result>
      <binding name="name">
        <literal datatype="http://www.w3.org/2001/XMLSchema#string">FAORRESU</literal>
      </binding>
      <binding name="subject">
        <uri>http://rdf.cdisc.org/std/sdtmig-3-1-2#Column.FA.FAORRESU</uri>
      </binding>
      <binding name="domainName">
        <literal datatype="http://www.w3.org/2001/XMLSchema#string">FA</literal>
      </binding>
      <binding name="dataset">
        <uri>http://rdf.cdisc.org/std/sdtmig-3-1-2#Dataset.FA</uri>
      </binding>
    </result>
    <result>
      <binding name="name">
        <literal datatype="http://www.w3.org/2001/XMLSchema#string">FAREASND</literal>
      </binding>
      <binding name="subject">
        <uri>http://rdf.cdisc.org/std/sdtmig-3-1-2#Column.FA.FAREASND</uri>
      </binding>
      <binding name="domainName">
        <literal datatype="http://www.w3.org/2001/XMLSchema#string">FA</literal>
      </binding>
      <binding name="dataset">
        <uri>http://rdf.cdisc.org/std/sdtmig-3-1-2#Dataset.FA</uri>
      </binding>
    </result>
    <result>
      <binding name="name">
        <literal datatype="http://www.w3.org/2001/XMLSchema#string">FASCAT</literal>
      </binding>
      <binding name="subject">
        <uri>http://rdf.cdisc.org/std/sdtmig-3-1-2#Column.FA.FASCAT</uri>
      </binding>
      <binding name="domainName">
        <literal datatype="http://www.w3.org/2001/XMLSchema#string">FA</literal>
      </binding>
      <binding name="dataset">
        <uri>http://rdf.cdisc.org/std/sdtmig-3-1-2#Dataset.FA</uri>
      </binding>
    </result>
    <result>
      <binding name="name">
        <literal datatype="http://www.w3.org/2001/XMLSchema#string">FASEQ</literal>
      </binding>
      <binding name="subject">
        <uri>http://rdf.cdisc.org/std/sdtmig-3-1-2#Column.FA.FASEQ</uri>
      </binding>
      <binding name="domainName">
        <literal datatype="http://www.w3.org/2001/XMLSchema#string">FA</literal>
      </binding>
      <binding name="dataset">
        <uri>http://rdf.cdisc.org/std/sdtmig-3-1-2#Dataset.FA</uri>
      </binding>
    </result>
    <result>
      <binding name="name">
        <literal datatype="http://www.w3.org/2001/XMLSchema#string">FASPID</literal>
      </binding>
      <binding name="subject">
        <uri>http://rdf.cdisc.org/std/sdtmig-3-1-2#Column.FA.FASPID</uri>
      </binding>
      <binding name="domainName">
        <literal datatype="http://www.w3.org/2001/XMLSchema#string">FA</literal>
      </binding>
      <binding name="dataset">
        <uri>http://rdf.cdisc.org/std/sdtmig-3-1-2#Dataset.FA</uri>
      </binding>
    </result>
    <result>
      <binding name="name">
        <literal datatype="http://www.w3.org/2001/XMLSchema#string">FASTAT</literal>
      </binding>
      <binding name="subject">
        <uri>http://rdf.cdisc.org/std/sdtmig-3-1-2#Column.FA.FASTAT</uri>
      </binding>
      <binding name="domainName">
        <literal datatype="http://www.w3.org/2001/XMLSchema#string">FA</literal>
      </binding>
      <binding name="dataset">
        <uri>http://rdf.cdisc.org/std/sdtmig-3-1-2#Dataset.FA</uri>
      </binding>
    </result>
    <result>
      <binding name="name">
        <literal datatype="http://www.w3.org/2001/XMLSchema#string">FASTRESC</literal>
      </binding>
      <binding name="subject">
        <uri>http://rdf.cdisc.org/std/sdtmig-3-1-2#Column.FA.FASTRESC</uri>
      </binding>
      <binding name="domainName">
        <literal datatype="http://www.w3.org/2001/XMLSchema#string">FA</literal>
      </binding>
      <binding name="dataset">
        <uri>http://rdf.cdisc.org/std/sdtmig-3-1-2#Dataset.FA</uri>
      </binding>
    </result>
    <result>
      <binding name="name">
        <literal datatype="http://www.w3.org/2001/XMLSchema#string">FASTRESN</literal>
      </binding>
      <binding name="subject">
        <uri>http://rdf.cdisc.org/std/sdtmig-3-1-2#Column.FA.FASTRESN</uri>
      </binding>
      <binding name="domainName">
        <literal datatype="http://www.w3.org/2001/XMLSchema#string">FA</literal>
      </binding>
      <binding name="dataset">
        <uri>http://rdf.cdisc.org/std/sdtmig-3-1-2#Dataset.FA</uri>
      </binding>
    </result>
    <result>
      <binding name="name">
        <literal datatype="http://www.w3.org/2001/XMLSchema#string">FASTRESU</literal>
      </binding>
      <binding name="subject">
        <uri>http://rdf.cdisc.org/std/sdtmig-3-1-2#Column.FA.FASTRESU</uri>
      </binding>
      <binding name="domainName">
        <literal datatype="http://www.w3.org/2001/XMLSchema#string">FA</literal>
      </binding>
      <binding name="dataset">
        <uri>http://rdf.cdisc.org/std/sdtmig-3-1-2#Dataset.FA</uri>
      </binding>
    </result>
    <result>
      <binding name="name">
        <literal datatype="http://www.w3.org/2001/XMLSchema#string">FATEST</literal>
      </binding>
      <binding name="subject">
        <uri>http://rdf.cdisc.org/std/sdtmig-3-1-2#Column.FA.FATEST</uri>
      </binding>
      <binding name="domainName">
        <literal datatype="http://www.w3.org/2001/XMLSchema#string">FA</literal>
      </binding>
      <binding name="dataset">
        <uri>http://rdf.cdisc.org/std/sdtmig-3-1-2#Dataset.FA</uri>
      </binding>
    </result>
    <result>
      <binding name="name">
        <literal datatype="http://www.w3.org/2001/XMLSchema#string">FATESTCD</literal>
      </binding>
      <binding name="subject">
        <uri>http://rdf.cdisc.org/std/sdtmig-3-1-2#Column.FA.FATESTCD</uri>
      </binding>
      <binding name="domainName">
        <literal datatype="http://www.w3.org/2001/XMLSchema#string">FA</literal>
      </binding>
      <binding name="dataset">
        <uri>http://rdf.cdisc.org/std/sdtmig-3-1-2#Dataset.FA</uri>
      </binding>
    </result>
    <result>
      <binding name="name">
        <literal datatype="http://www.w3.org/2001/XMLSchema#string">STUDYID</literal>
      </binding>
      <binding name="subject">
        <uri>http://rdf.cdisc.org/std/sdtmig-3-1-2#Column.FA.STUDYID</uri>
      </binding>
      <binding name="domainName">
        <literal datatype="http://www.w3.org/2001/XMLSchema#string">FA</literal>
      </binding>
      <binding name="dataset">
        <uri>http://rdf.cdisc.org/std/sdtmig-3-1-2#Dataset.FA</uri>
      </binding>
    </result>
    <result>
      <binding name="name">
        <literal datatype="http://www.w3.org/2001/XMLSchema#string">USUBJID</literal>
      </binding>
      <binding name="subject">
        <uri>http://rdf.cdisc.org/std/sdtmig-3-1-2#Column.FA.USUBJID</uri>
      </binding>
      <binding name="domainName">
        <literal datatype="http://www.w3.org/2001/XMLSchema#string">FA</literal>
      </binding>
      <binding name="dataset">
        <uri>http://rdf.cdisc.org/std/sdtmig-3-1-2#Dataset.FA</uri>
      </binding>
    </result>
    <result>
      <binding name="name">
        <literal datatype="http://www.w3.org/2001/XMLSchema#string">VISIT</literal>
      </binding>
      <binding name="subject">
        <uri>http://rdf.cdisc.org/std/sdtmig-3-1-2#Column.FA.VISIT</uri>
      </binding>
      <binding name="domainName">
        <literal datatype="http://www.w3.org/2001/XMLSchema#string">FA</literal>
      </binding>
      <binding name="dataset">
        <uri>http://rdf.cdisc.org/std/sdtmig-3-1-2#Dataset.FA</uri>
      </binding>
    </result>
    <result>
      <binding name="name">
        <literal datatype="http://www.w3.org/2001/XMLSchema#string">VISITDY</literal>
      </binding>
      <binding name="subject">
        <uri>http://rdf.cdisc.org/std/sdtmig-3-1-2#Column.FA.VISITDY</uri>
      </binding>
      <binding name="domainName">
        <literal datatype="http://www.w3.org/2001/XMLSchema#string">FA</literal>
      </binding>
      <binding name="dataset">
        <uri>http://rdf.cdisc.org/std/sdtmig-3-1-2#Dataset.FA</uri>
      </binding>
    </result>
    <result>
      <binding name="name">
        <literal datatype="http://www.w3.org/2001/XMLSchema#string">VISITNUM</literal>
      </binding>
      <binding name="subject">
        <uri>http://rdf.cdisc.org/std/sdtmig-3-1-2#Column.FA.VISITNUM</uri>
      </binding>
      <binding name="domainName">
        <literal datatype="http://www.w3.org/2001/XMLSchema#string">FA</literal>
      </binding>
      <binding name="dataset">
        <uri>http://rdf.cdisc.org/std/sdtmig-3-1-2#Dataset.FA</uri>
      </binding>
    </result>
    <result>
      <binding name="name">
        <literal datatype="http://www.w3.org/2001/XMLSchema#string">DOMAIN</literal>
      </binding>
      <binding name="subject">
        <uri>http://rdf.cdisc.org/std/sdtmig-3-1-2#Column.IE.DOMAIN</uri>
      </binding>
      <binding name="domainName">
        <literal datatype="http://www.w3.org/2001/XMLSchema#string">IE</literal>
      </binding>
      <binding name="dataset">
        <uri>http://rdf.cdisc.org/std/sdtmig-3-1-2#Dataset.IE</uri>
      </binding>
    </result>
    <result>
      <binding name="name">
        <literal datatype="http://www.w3.org/2001/XMLSchema#string">IECAT</literal>
      </binding>
      <binding name="subject">
        <uri>http://rdf.cdisc.org/std/sdtmig-3-1-2#Column.IE.IECAT</uri>
      </binding>
      <binding name="domainName">
        <literal datatype="http://www.w3.org/2001/XMLSchema#string">IE</literal>
      </binding>
      <binding name="dataset">
        <uri>http://rdf.cdisc.org/std/sdtmig-3-1-2#Dataset.IE</uri>
      </binding>
    </result>
    <result>
      <binding name="name">
        <literal datatype="http://www.w3.org/2001/XMLSchema#string">IEDTC</literal>
      </binding>
      <binding name="subject">
        <uri>http://rdf.cdisc.org/std/sdtmig-3-1-2#Column.IE.IEDTC</uri>
      </binding>
      <binding name="domainName">
        <literal datatype="http://www.w3.org/2001/XMLSchema#string">IE</literal>
      </binding>
      <binding name="dataset">
        <uri>http://rdf.cdisc.org/std/sdtmig-3-1-2#Dataset.IE</uri>
      </binding>
    </result>
    <result>
      <binding name="name">
        <literal datatype="http://www.w3.org/2001/XMLSchema#string">IEDY</literal>
      </binding>
      <binding name="subject">
        <uri>http://rdf.cdisc.org/std/sdtmig-3-1-2#Column.IE.IEDY</uri>
      </binding>
      <binding name="domainName">
        <literal datatype="http://www.w3.org/2001/XMLSchema#string">IE</literal>
      </binding>
      <binding name="dataset">
        <uri>http://rdf.cdisc.org/std/sdtmig-3-1-2#Dataset.IE</uri>
      </binding>
    </result>
    <result>
      <binding name="name">
        <literal datatype="http://www.w3.org/2001/XMLSchema#string">IEORRES</literal>
      </binding>
      <binding name="subject">
        <uri>http://rdf.cdisc.org/std/sdtmig-3-1-2#Column.IE.IEORRES</uri>
      </binding>
      <binding name="domainName">
        <literal datatype="http://www.w3.org/2001/XMLSchema#string">IE</literal>
      </binding>
      <binding name="dataset">
        <uri>http://rdf.cdisc.org/std/sdtmig-3-1-2#Dataset.IE</uri>
      </binding>
    </result>
    <result>
      <binding name="name">
        <literal datatype="http://www.w3.org/2001/XMLSchema#string">IESCAT</literal>
      </binding>
      <binding name="subject">
        <uri>http://rdf.cdisc.org/std/sdtmig-3-1-2#Column.IE.IESCAT</uri>
      </binding>
      <binding name="domainName">
        <literal datatype="http://www.w3.org/2001/XMLSchema#string">IE</literal>
      </binding>
      <binding name="dataset">
        <uri>http://rdf.cdisc.org/std/sdtmig-3-1-2#Dataset.IE</uri>
      </binding>
    </result>
    <result>
      <binding name="name">
        <literal datatype="http://www.w3.org/2001/XMLSchema#string">IESEQ</literal>
      </binding>
      <binding name="subject">
        <uri>http://rdf.cdisc.org/std/sdtmig-3-1-2#Column.IE.IESEQ</uri>
      </binding>
      <binding name="domainName">
        <literal datatype="http://www.w3.org/2001/XMLSchema#string">IE</literal>
      </binding>
      <binding name="dataset">
        <uri>http://rdf.cdisc.org/std/sdtmig-3-1-2#Dataset.IE</uri>
      </binding>
    </result>
    <result>
      <binding name="name">
        <literal datatype="http://www.w3.org/2001/XMLSchema#string">IESPID</literal>
      </binding>
      <binding name="subject">
        <uri>http://rdf.cdisc.org/std/sdtmig-3-1-2#Column.IE.IESPID</uri>
      </binding>
      <binding name="domainName">
        <literal datatype="http://www.w3.org/2001/XMLSchema#string">IE</literal>
      </binding>
      <binding name="dataset">
        <uri>http://rdf.cdisc.org/std/sdtmig-3-1-2#Dataset.IE</uri>
      </binding>
    </result>
    <result>
      <binding name="name">
        <literal datatype="http://www.w3.org/2001/XMLSchema#string">IESTRESC</literal>
      </binding>
      <binding name="subject">
        <uri>http://rdf.cdisc.org/std/sdtmig-3-1-2#Column.IE.IESTRESC</uri>
      </binding>
      <binding name="domainName">
        <literal datatype="http://www.w3.org/2001/XMLSchema#string">IE</literal>
      </binding>
      <binding name="dataset">
        <uri>http://rdf.cdisc.org/std/sdtmig-3-1-2#Dataset.IE</uri>
      </binding>
    </result>
    <result>
      <binding name="name">
        <literal datatype="http://www.w3.org/2001/XMLSchema#string">IETEST</literal>
      </binding>
      <binding name="subject">
        <uri>http://rdf.cdisc.org/std/sdtmig-3-1-2#Column.IE.IETEST</uri>
      </binding>
      <binding name="domainName">
        <literal datatype="http://www.w3.org/2001/XMLSchema#string">IE</literal>
      </binding>
      <binding name="dataset">
        <uri>http://rdf.cdisc.org/std/sdtmig-3-1-2#Dataset.IE</uri>
      </binding>
    </result>
    <result>
      <binding name="name">
        <literal datatype="http://www.w3.org/2001/XMLSchema#string">IETESTCD</literal>
      </binding>
      <binding name="subject">
        <uri>http://rdf.cdisc.org/std/sdtmig-3-1-2#Column.IE.IETESTCD</uri>
      </binding>
      <binding name="domainName">
        <literal datatype="http://www.w3.org/2001/XMLSchema#string">IE</literal>
      </binding>
      <binding name="dataset">
        <uri>http://rdf.cdisc.org/std/sdtmig-3-1-2#Dataset.IE</uri>
      </binding>
    </result>
    <result>
      <binding name="name">
        <literal datatype="http://www.w3.org/2001/XMLSchema#string">STUDYID</literal>
      </binding>
      <binding name="subject">
        <uri>http://rdf.cdisc.org/std/sdtmig-3-1-2#Column.IE.STUDYID</uri>
      </binding>
      <binding name="domainName">
        <literal datatype="http://www.w3.org/2001/XMLSchema#string">IE</literal>
      </binding>
      <binding name="dataset">
        <uri>http://rdf.cdisc.org/std/sdtmig-3-1-2#Dataset.IE</uri>
      </binding>
    </result>
    <result>
      <binding name="name">
        <literal datatype="http://www.w3.org/2001/XMLSchema#string">USUBJID</literal>
      </binding>
      <binding name="subject">
        <uri>http://rdf.cdisc.org/std/sdtmig-3-1-2#Column.IE.USUBJID</uri>
      </binding>
      <binding name="domainName">
        <literal datatype="http://www.w3.org/2001/XMLSchema#string">IE</literal>
      </binding>
      <binding name="dataset">
        <uri>http://rdf.cdisc.org/std/sdtmig-3-1-2#Dataset.IE</uri>
      </binding>
    </result>
    <result>
      <binding name="name">
        <literal datatype="http://www.w3.org/2001/XMLSchema#string">VISIT</literal>
      </binding>
      <binding name="subject">
        <uri>http://rdf.cdisc.org/std/sdtmig-3-1-2#Column.IE.VISIT</uri>
      </binding>
      <binding name="domainName">
        <literal datatype="http://www.w3.org/2001/XMLSchema#string">IE</literal>
      </binding>
      <binding name="dataset">
        <uri>http://rdf.cdisc.org/std/sdtmig-3-1-2#Dataset.IE</uri>
      </binding>
    </result>
    <result>
      <binding name="name">
        <literal datatype="http://www.w3.org/2001/XMLSchema#string">VISITDY</literal>
      </binding>
      <binding name="subject">
        <uri>http://rdf.cdisc.org/std/sdtmig-3-1-2#Column.IE.VISITDY</uri>
      </binding>
      <binding name="domainName">
        <literal datatype="http://www.w3.org/2001/XMLSchema#string">IE</literal>
      </binding>
      <binding name="dataset">
        <uri>http://rdf.cdisc.org/std/sdtmig-3-1-2#Dataset.IE</uri>
      </binding>
    </result>
    <result>
      <binding name="name">
        <literal datatype="http://www.w3.org/2001/XMLSchema#string">VISITNUM</literal>
      </binding>
      <binding name="subject">
        <uri>http://rdf.cdisc.org/std/sdtmig-3-1-2#Column.IE.VISITNUM</uri>
      </binding>
      <binding name="domainName">
        <literal datatype="http://www.w3.org/2001/XMLSchema#string">IE</literal>
      </binding>
      <binding name="dataset">
        <uri>http://rdf.cdisc.org/std/sdtmig-3-1-2#Dataset.IE</uri>
      </binding>
    </result>
    <result>
      <binding name="name">
        <literal datatype="http://www.w3.org/2001/XMLSchema#string">DOMAIN</literal>
      </binding>
      <binding name="subject">
        <uri>http://rdf.cdisc.org/std/sdtmig-3-1-2#Column.LB.DOMAIN</uri>
      </binding>
      <binding name="domainName">
        <literal datatype="http://www.w3.org/2001/XMLSchema#string">LB</literal>
      </binding>
      <binding name="dataset">
        <uri>http://rdf.cdisc.org/std/sdtmig-3-1-2#Dataset.LB</uri>
      </binding>
    </result>
    <result>
      <binding name="name">
        <literal datatype="http://www.w3.org/2001/XMLSchema#string">LBBLFL</literal>
      </binding>
      <binding name="subject">
        <uri>http://rdf.cdisc.org/std/sdtmig-3-1-2#Column.LB.LBBLFL</uri>
      </binding>
      <binding name="domainName">
        <literal datatype="http://www.w3.org/2001/XMLSchema#string">LB</literal>
      </binding>
      <binding name="dataset">
        <uri>http://rdf.cdisc.org/std/sdtmig-3-1-2#Dataset.LB</uri>
      </binding>
    </result>
    <result>
      <binding name="name">
        <literal datatype="http://www.w3.org/2001/XMLSchema#string">LBCAT</literal>
      </binding>
      <binding name="subject">
        <uri>http://rdf.cdisc.org/std/sdtmig-3-1-2#Column.LB.LBCAT</uri>
      </binding>
      <binding name="domainName">
        <literal datatype="http://www.w3.org/2001/XMLSchema#string">LB</literal>
      </binding>
      <binding name="dataset">
        <uri>http://rdf.cdisc.org/std/sdtmig-3-1-2#Dataset.LB</uri>
      </binding>
    </result>
    <result>
      <binding name="name">
        <literal datatype="http://www.w3.org/2001/XMLSchema#string">LBDRVFL</literal>
      </binding>
      <binding name="subject">
        <uri>http://rdf.cdisc.org/std/sdtmig-3-1-2#Column.LB.LBDRVFL</uri>
      </binding>
      <binding name="domainName">
        <literal datatype="http://www.w3.org/2001/XMLSchema#string">LB</literal>
      </binding>
      <binding name="dataset">
        <uri>http://rdf.cdisc.org/std/sdtmig-3-1-2#Dataset.LB</uri>
      </binding>
    </result>
    <result>
      <binding name="name">
        <literal datatype="http://www.w3.org/2001/XMLSchema#string">LBDTC</literal>
      </binding>
      <binding name="subject">
        <uri>http://rdf.cdisc.org/std/sdtmig-3-1-2#Column.LB.LBDTC</uri>
      </binding>
      <binding name="domainName">
        <literal datatype="http://www.w3.org/2001/XMLSchema#string">LB</literal>
      </binding>
      <binding name="dataset">
        <uri>http://rdf.cdisc.org/std/sdtmig-3-1-2#Dataset.LB</uri>
      </binding>
    </result>
    <result>
      <binding name="name">
        <literal datatype="http://www.w3.org/2001/XMLSchema#string">LBDY</literal>
      </binding>
      <binding name="subject">
        <uri>http://rdf.cdisc.org/std/sdtmig-3-1-2#Column.LB.LBDY</uri>
      </binding>
      <binding name="domainName">
        <literal datatype="http://www.w3.org/2001/XMLSchema#string">LB</literal>
      </binding>
      <binding name="dataset">
        <uri>http://rdf.cdisc.org/std/sdtmig-3-1-2#Dataset.LB</uri>
      </binding>
    </result>
    <result>
      <binding name="name">
        <literal datatype="http://www.w3.org/2001/XMLSchema#string">LBELTM</literal>
      </binding>
      <binding name="subject">
        <uri>http://rdf.cdisc.org/std/sdtmig-3-1-2#Column.LB.LBELTM</uri>
      </binding>
      <binding name="domainName">
        <literal datatype="http://www.w3.org/2001/XMLSchema#string">LB</literal>
      </binding>
      <binding name="dataset">
        <uri>http://rdf.cdisc.org/std/sdtmig-3-1-2#Dataset.LB</uri>
      </binding>
    </result>
    <result>
      <binding name="name">
        <literal datatype="http://www.w3.org/2001/XMLSchema#string">LBENDTC</literal>
      </binding>
      <binding name="subject">
        <uri>http://rdf.cdisc.org/std/sdtmig-3-1-2#Column.LB.LBENDTC</uri>
      </binding>
      <binding name="domainName">
        <literal datatype="http://www.w3.org/2001/XMLSchema#string">LB</literal>
      </binding>
      <binding name="dataset">
        <uri>http://rdf.cdisc.org/std/sdtmig-3-1-2#Dataset.LB</uri>
      </binding>
    </result>
    <result>
      <binding name="name">
        <literal datatype="http://www.w3.org/2001/XMLSchema#string">LBFAST</literal>
      </binding>
      <binding name="subject">
        <uri>http://rdf.cdisc.org/std/sdtmig-3-1-2#Column.LB.LBFAST</uri>
      </binding>
      <binding name="domainName">
        <literal datatype="http://www.w3.org/2001/XMLSchema#string">LB</literal>
      </binding>
      <binding name="dataset">
        <uri>http://rdf.cdisc.org/std/sdtmig-3-1-2#Dataset.LB</uri>
      </binding>
    </result>
    <result>
      <binding name="name">
        <literal datatype="http://www.w3.org/2001/XMLSchema#string">LBGRPID</literal>
      </binding>
      <binding name="subject">
        <uri>http://rdf.cdisc.org/std/sdtmig-3-1-2#Column.LB.LBGRPID</uri>
      </binding>
      <binding name="domainName">
        <literal datatype="http://www.w3.org/2001/XMLSchema#string">LB</literal>
      </binding>
      <binding name="dataset">
        <uri>http://rdf.cdisc.org/std/sdtmig-3-1-2#Dataset.LB</uri>
      </binding>
    </result>
    <result>
      <binding name="name">
        <literal datatype="http://www.w3.org/2001/XMLSchema#string">LBLOINC</literal>
      </binding>
      <binding name="subject">
        <uri>http://rdf.cdisc.org/std/sdtmig-3-1-2#Column.LB.LBLOINC</uri>
      </binding>
      <binding name="domainName">
        <literal datatype="http://www.w3.org/2001/XMLSchema#string">LB</literal>
      </binding>
      <binding name="dataset">
        <uri>http://rdf.cdisc.org/std/sdtmig-3-1-2#Dataset.LB</uri>
      </binding>
    </result>
    <result>
      <binding name="name">
        <literal datatype="http://www.w3.org/2001/XMLSchema#string">LBMETHOD</literal>
      </binding>
      <binding name="subject">
        <uri>http://rdf.cdisc.org/std/sdtmig-3-1-2#Column.LB.LBMETHOD</uri>
      </binding>
      <binding name="domainName">
        <literal datatype="http://www.w3.org/2001/XMLSchema#string">LB</literal>
      </binding>
      <binding name="dataset">
        <uri>http://rdf.cdisc.org/std/sdtmig-3-1-2#Dataset.LB</uri>
      </binding>
    </result>
    <result>
      <binding name="name">
        <literal datatype="http://www.w3.org/2001/XMLSchema#string">LBNAM</literal>
      </binding>
      <binding name="subject">
        <uri>http://rdf.cdisc.org/std/sdtmig-3-1-2#Column.LB.LBNAM</uri>
      </binding>
      <binding name="domainName">
        <literal datatype="http://www.w3.org/2001/XMLSchema#string">LB</literal>
      </binding>
      <binding name="dataset">
        <uri>http://rdf.cdisc.org/std/sdtmig-3-1-2#Dataset.LB</uri>
      </binding>
    </result>
    <result>
      <binding name="name">
        <literal datatype="http://www.w3.org/2001/XMLSchema#string">LBNRIND</literal>
      </binding>
      <binding name="subject">
        <uri>http://rdf.cdisc.org/std/sdtmig-3-1-2#Column.LB.LBNRIND</uri>
      </binding>
      <binding name="domainName">
        <literal datatype="http://www.w3.org/2001/XMLSchema#string">LB</literal>
      </binding>
      <binding name="dataset">
        <uri>http://rdf.cdisc.org/std/sdtmig-3-1-2#Dataset.LB</uri>
      </binding>
    </result>
    <result>
      <binding name="name">
        <literal datatype="http://www.w3.org/2001/XMLSchema#string">LBORNRHI</literal>
      </binding>
      <binding name="subject">
        <uri>http://rdf.cdisc.org/std/sdtmig-3-1-2#Column.LB.LBORNRHI</uri>
      </binding>
      <binding name="domainName">
        <literal datatype="http://www.w3.org/2001/XMLSchema#string">LB</literal>
      </binding>
      <binding name="dataset">
        <uri>http://rdf.cdisc.org/std/sdtmig-3-1-2#Dataset.LB</uri>
      </binding>
    </result>
    <result>
      <binding name="name">
        <literal datatype="http://www.w3.org/2001/XMLSchema#string">LBORNRLO</literal>
      </binding>
      <binding name="subject">
        <uri>http://rdf.cdisc.org/std/sdtmig-3-1-2#Column.LB.LBORNRLO</uri>
      </binding>
      <binding name="domainName">
        <literal datatype="http://www.w3.org/2001/XMLSchema#string">LB</literal>
      </binding>
      <binding name="dataset">
        <uri>http://rdf.cdisc.org/std/sdtmig-3-1-2#Dataset.LB</uri>
      </binding>
    </result>
    <result>
      <binding name="name">
        <literal datatype="http://www.w3.org/2001/XMLSchema#string">LBORRES</literal>
      </binding>
      <binding name="subject">
        <uri>http://rdf.cdisc.org/std/sdtmig-3-1-2#Column.LB.LBORRES</uri>
      </binding>
      <binding name="domainName">
        <literal datatype="http://www.w3.org/2001/XMLSchema#string">LB</literal>
      </binding>
      <binding name="dataset">
        <uri>http://rdf.cdisc.org/std/sdtmig-3-1-2#Dataset.LB</uri>
      </binding>
    </result>
    <result>
      <binding name="name">
        <literal datatype="http://www.w3.org/2001/XMLSchema#string">LBORRESU</literal>
      </binding>
      <binding name="subject">
        <uri>http://rdf.cdisc.org/std/sdtmig-3-1-2#Column.LB.LBORRESU</uri>
      </binding>
      <binding name="domainName">
        <literal datatype="http://www.w3.org/2001/XMLSchema#string">LB</literal>
      </binding>
      <binding name="dataset">
        <uri>http://rdf.cdisc.org/std/sdtmig-3-1-2#Dataset.LB</uri>
      </binding>
    </result>
    <result>
      <binding name="name">
        <literal datatype="http://www.w3.org/2001/XMLSchema#string">LBREASND</literal>
      </binding>
      <binding name="subject">
        <uri>http://rdf.cdisc.org/std/sdtmig-3-1-2#Column.LB.LBREASND</uri>
      </binding>
      <binding name="domainName">
        <literal datatype="http://www.w3.org/2001/XMLSchema#string">LB</literal>
      </binding>
      <binding name="dataset">
        <uri>http://rdf.cdisc.org/std/sdtmig-3-1-2#Dataset.LB</uri>
      </binding>
    </result>
    <result>
      <binding name="name">
        <literal datatype="http://www.w3.org/2001/XMLSchema#string">LBREFID</literal>
      </binding>
      <binding name="subject">
        <uri>http://rdf.cdisc.org/std/sdtmig-3-1-2#Column.LB.LBREFID</uri>
      </binding>
      <binding name="domainName">
        <literal datatype="http://www.w3.org/2001/XMLSchema#string">LB</literal>
      </binding>
      <binding name="dataset">
        <uri>http://rdf.cdisc.org/std/sdtmig-3-1-2#Dataset.LB</uri>
      </binding>
    </result>
    <result>
      <binding name="name">
        <literal datatype="http://www.w3.org/2001/XMLSchema#string">LBRFTDTC</literal>
      </binding>
      <binding name="subject">
        <uri>http://rdf.cdisc.org/std/sdtmig-3-1-2#Column.LB.LBRFTDTC</uri>
      </binding>
      <binding name="domainName">
        <literal datatype="http://www.w3.org/2001/XMLSchema#string">LB</literal>
      </binding>
      <binding name="dataset">
        <uri>http://rdf.cdisc.org/std/sdtmig-3-1-2#Dataset.LB</uri>
      </binding>
    </result>
    <result>
      <binding name="name">
        <literal datatype="http://www.w3.org/2001/XMLSchema#string">LBSCAT</literal>
      </binding>
      <binding name="subject">
        <uri>http://rdf.cdisc.org/std/sdtmig-3-1-2#Column.LB.LBSCAT</uri>
      </binding>
      <binding name="domainName">
        <literal datatype="http://www.w3.org/2001/XMLSchema#string">LB</literal>
      </binding>
      <binding name="dataset">
        <uri>http://rdf.cdisc.org/std/sdtmig-3-1-2#Dataset.LB</uri>
      </binding>
    </result>
    <result>
      <binding name="name">
        <literal datatype="http://www.w3.org/2001/XMLSchema#string">LBSEQ</literal>
      </binding>
      <binding name="subject">
        <uri>http://rdf.cdisc.org/std/sdtmig-3-1-2#Column.LB.LBSEQ</uri>
      </binding>
      <binding name="domainName">
        <literal datatype="http://www.w3.org/2001/XMLSchema#string">LB</literal>
      </binding>
      <binding name="dataset">
        <uri>http://rdf.cdisc.org/std/sdtmig-3-1-2#Dataset.LB</uri>
      </binding>
    </result>
    <result>
      <binding name="name">
        <literal datatype="http://www.w3.org/2001/XMLSchema#string">LBSPCCND</literal>
      </binding>
      <binding name="subject">
        <uri>http://rdf.cdisc.org/std/sdtmig-3-1-2#Column.LB.LBSPCCND</uri>
      </binding>
      <binding name="domainName">
        <literal datatype="http://www.w3.org/2001/XMLSchema#string">LB</literal>
      </binding>
      <binding name="dataset">
        <uri>http://rdf.cdisc.org/std/sdtmig-3-1-2#Dataset.LB</uri>
      </binding>
    </result>
    <result>
      <binding name="name">
        <literal datatype="http://www.w3.org/2001/XMLSchema#string">LBSPEC</literal>
      </binding>
      <binding name="subject">
        <uri>http://rdf.cdisc.org/std/sdtmig-3-1-2#Column.LB.LBSPEC</uri>
      </binding>
      <binding name="domainName">
        <literal datatype="http://www.w3.org/2001/XMLSchema#string">LB</literal>
      </binding>
      <binding name="dataset">
        <uri>http://rdf.cdisc.org/std/sdtmig-3-1-2#Dataset.LB</uri>
      </binding>
    </result>
    <result>
      <binding name="name">
        <literal datatype="http://www.w3.org/2001/XMLSchema#string">LBSPID</literal>
      </binding>
      <binding name="subject">
        <uri>http://rdf.cdisc.org/std/sdtmig-3-1-2#Column.LB.LBSPID</uri>
      </binding>
      <binding name="domainName">
        <literal datatype="http://www.w3.org/2001/XMLSchema#string">LB</literal>
      </binding>
      <binding name="dataset">
        <uri>http://rdf.cdisc.org/std/sdtmig-3-1-2#Dataset.LB</uri>
      </binding>
    </result>
    <result>
      <binding name="name">
        <literal datatype="http://www.w3.org/2001/XMLSchema#string">LBSTAT</literal>
      </binding>
      <binding name="subject">
        <uri>http://rdf.cdisc.org/std/sdtmig-3-1-2#Column.LB.LBSTAT</uri>
      </binding>
      <binding name="domainName">
        <literal datatype="http://www.w3.org/2001/XMLSchema#string">LB</literal>
      </binding>
      <binding name="dataset">
        <uri>http://rdf.cdisc.org/std/sdtmig-3-1-2#Dataset.LB</uri>
      </binding>
    </result>
    <result>
      <binding name="name">
        <literal datatype="http://www.w3.org/2001/XMLSchema#string">LBSTNRC</literal>
      </binding>
      <binding name="subject">
        <uri>http://rdf.cdisc.org/std/sdtmig-3-1-2#Column.LB.LBSTNRC</uri>
      </binding>
      <binding name="domainName">
        <literal datatype="http://www.w3.org/2001/XMLSchema#string">LB</literal>
      </binding>
      <binding name="dataset">
        <uri>http://rdf.cdisc.org/std/sdtmig-3-1-2#Dataset.LB</uri>
      </binding>
    </result>
    <result>
      <binding name="name">
        <literal datatype="http://www.w3.org/2001/XMLSchema#string">LBSTNRHI</literal>
      </binding>
      <binding name="subject">
        <uri>http://rdf.cdisc.org/std/sdtmig-3-1-2#Column.LB.LBSTNRHI</uri>
      </binding>
      <binding name="domainName">
        <literal datatype="http://www.w3.org/2001/XMLSchema#string">LB</literal>
      </binding>
      <binding name="dataset">
        <uri>http://rdf.cdisc.org/std/sdtmig-3-1-2#Dataset.LB</uri>
      </binding>
    </result>
    <result>
      <binding name="name">
        <literal datatype="http://www.w3.org/2001/XMLSchema#string">LBSTNRLO</literal>
      </binding>
      <binding name="subject">
        <uri>http://rdf.cdisc.org/std/sdtmig-3-1-2#Column.LB.LBSTNRLO</uri>
      </binding>
      <binding name="domainName">
        <literal datatype="http://www.w3.org/2001/XMLSchema#string">LB</literal>
      </binding>
      <binding name="dataset">
        <uri>http://rdf.cdisc.org/std/sdtmig-3-1-2#Dataset.LB</uri>
      </binding>
    </result>
    <result>
      <binding name="name">
        <literal datatype="http://www.w3.org/2001/XMLSchema#string">LBSTRESC</literal>
      </binding>
      <binding name="subject">
        <uri>http://rdf.cdisc.org/std/sdtmig-3-1-2#Column.LB.LBSTRESC</uri>
      </binding>
      <binding name="domainName">
        <literal datatype="http://www.w3.org/2001/XMLSchema#string">LB</literal>
      </binding>
      <binding name="dataset">
        <uri>http://rdf.cdisc.org/std/sdtmig-3-1-2#Dataset.LB</uri>
      </binding>
    </result>
    <result>
      <binding name="name">
        <literal datatype="http://www.w3.org/2001/XMLSchema#string">LBSTRESN</literal>
      </binding>
      <binding name="subject">
        <uri>http://rdf.cdisc.org/std/sdtmig-3-1-2#Column.LB.LBSTRESN</uri>
      </binding>
      <binding name="domainName">
        <literal datatype="http://www.w3.org/2001/XMLSchema#string">LB</literal>
      </binding>
      <binding name="dataset">
        <uri>http://rdf.cdisc.org/std/sdtmig-3-1-2#Dataset.LB</uri>
      </binding>
    </result>
    <result>
      <binding name="name">
        <literal datatype="http://www.w3.org/2001/XMLSchema#string">LBSTRESU</literal>
      </binding>
      <binding name="subject">
        <uri>http://rdf.cdisc.org/std/sdtmig-3-1-2#Column.LB.LBSTRESU</uri>
      </binding>
      <binding name="domainName">
        <literal datatype="http://www.w3.org/2001/XMLSchema#string">LB</literal>
      </binding>
      <binding name="dataset">
        <uri>http://rdf.cdisc.org/std/sdtmig-3-1-2#Dataset.LB</uri>
      </binding>
    </result>
    <result>
      <binding name="name">
        <literal datatype="http://www.w3.org/2001/XMLSchema#string">LBTEST</literal>
      </binding>
      <binding name="subject">
        <uri>http://rdf.cdisc.org/std/sdtmig-3-1-2#Column.LB.LBTEST</uri>
      </binding>
      <binding name="domainName">
        <literal datatype="http://www.w3.org/2001/XMLSchema#string">LB</literal>
      </binding>
      <binding name="dataset">
        <uri>http://rdf.cdisc.org/std/sdtmig-3-1-2#Dataset.LB</uri>
      </binding>
    </result>
    <result>
      <binding name="name">
        <literal datatype="http://www.w3.org/2001/XMLSchema#string">LBTESTCD</literal>
      </binding>
      <binding name="subject">
        <uri>http://rdf.cdisc.org/std/sdtmig-3-1-2#Column.LB.LBTESTCD</uri>
      </binding>
      <binding name="domainName">
        <literal datatype="http://www.w3.org/2001/XMLSchema#string">LB</literal>
      </binding>
      <binding name="dataset">
        <uri>http://rdf.cdisc.org/std/sdtmig-3-1-2#Dataset.LB</uri>
      </binding>
    </result>
    <result>
      <binding name="name">
        <literal datatype="http://www.w3.org/2001/XMLSchema#string">LBTOX</literal>
      </binding>
      <binding name="subject">
        <uri>http://rdf.cdisc.org/std/sdtmig-3-1-2#Column.LB.LBTOX</uri>
      </binding>
      <binding name="domainName">
        <literal datatype="http://www.w3.org/2001/XMLSchema#string">LB</literal>
      </binding>
      <binding name="dataset">
        <uri>http://rdf.cdisc.org/std/sdtmig-3-1-2#Dataset.LB</uri>
      </binding>
    </result>
    <result>
      <binding name="name">
        <literal datatype="http://www.w3.org/2001/XMLSchema#string">LBTOXGR</literal>
      </binding>
      <binding name="subject">
        <uri>http://rdf.cdisc.org/std/sdtmig-3-1-2#Column.LB.LBTOXGR</uri>
      </binding>
      <binding name="domainName">
        <literal datatype="http://www.w3.org/2001/XMLSchema#string">LB</literal>
      </binding>
      <binding name="dataset">
        <uri>http://rdf.cdisc.org/std/sdtmig-3-1-2#Dataset.LB</uri>
      </binding>
    </result>
    <result>
      <binding name="name">
        <literal datatype="http://www.w3.org/2001/XMLSchema#string">LBTPT</literal>
      </binding>
      <binding name="subject">
        <uri>http://rdf.cdisc.org/std/sdtmig-3-1-2#Column.LB.LBTPT</uri>
      </binding>
      <binding name="domainName">
        <literal datatype="http://www.w3.org/2001/XMLSchema#string">LB</literal>
      </binding>
      <binding name="dataset">
        <uri>http://rdf.cdisc.org/std/sdtmig-3-1-2#Dataset.LB</uri>
      </binding>
    </result>
    <result>
      <binding name="name">
        <literal datatype="http://www.w3.org/2001/XMLSchema#string">LBTPTNUM</literal>
      </binding>
      <binding name="subject">
        <uri>http://rdf.cdisc.org/std/sdtmig-3-1-2#Column.LB.LBTPTNUM</uri>
      </binding>
      <binding name="domainName">
        <literal datatype="http://www.w3.org/2001/XMLSchema#string">LB</literal>
      </binding>
      <binding name="dataset">
        <uri>http://rdf.cdisc.org/std/sdtmig-3-1-2#Dataset.LB</uri>
      </binding>
    </result>
    <result>
      <binding name="name">
        <literal datatype="http://www.w3.org/2001/XMLSchema#string">LBTPTREF</literal>
      </binding>
      <binding name="subject">
        <uri>http://rdf.cdisc.org/std/sdtmig-3-1-2#Column.LB.LBTPTREF</uri>
      </binding>
      <binding name="domainName">
        <literal datatype="http://www.w3.org/2001/XMLSchema#string">LB</literal>
      </binding>
      <binding name="dataset">
        <uri>http://rdf.cdisc.org/std/sdtmig-3-1-2#Dataset.LB</uri>
      </binding>
    </result>
    <result>
      <binding name="name">
        <literal datatype="http://www.w3.org/2001/XMLSchema#string">STUDYID</literal>
      </binding>
      <binding name="subject">
        <uri>http://rdf.cdisc.org/std/sdtmig-3-1-2#Column.LB.STUDYID</uri>
      </binding>
      <binding name="domainName">
        <literal datatype="http://www.w3.org/2001/XMLSchema#string">LB</literal>
      </binding>
      <binding name="dataset">
        <uri>http://rdf.cdisc.org/std/sdtmig-3-1-2#Dataset.LB</uri>
      </binding>
    </result>
    <result>
      <binding name="name">
        <literal datatype="http://www.w3.org/2001/XMLSchema#string">USUBJID</literal>
      </binding>
      <binding name="subject">
        <uri>http://rdf.cdisc.org/std/sdtmig-3-1-2#Column.LB.USUBJID</uri>
      </binding>
      <binding name="domainName">
        <literal datatype="http://www.w3.org/2001/XMLSchema#string">LB</literal>
      </binding>
      <binding name="dataset">
        <uri>http://rdf.cdisc.org/std/sdtmig-3-1-2#Dataset.LB</uri>
      </binding>
    </result>
    <result>
      <binding name="name">
        <literal datatype="http://www.w3.org/2001/XMLSchema#string">VISIT</literal>
      </binding>
      <binding name="subject">
        <uri>http://rdf.cdisc.org/std/sdtmig-3-1-2#Column.LB.VISIT</uri>
      </binding>
      <binding name="domainName">
        <literal datatype="http://www.w3.org/2001/XMLSchema#string">LB</literal>
      </binding>
      <binding name="dataset">
        <uri>http://rdf.cdisc.org/std/sdtmig-3-1-2#Dataset.LB</uri>
      </binding>
    </result>
    <result>
      <binding name="name">
        <literal datatype="http://www.w3.org/2001/XMLSchema#string">VISITDY</literal>
      </binding>
      <binding name="subject">
        <uri>http://rdf.cdisc.org/std/sdtmig-3-1-2#Column.LB.VISITDY</uri>
      </binding>
      <binding name="domainName">
        <literal datatype="http://www.w3.org/2001/XMLSchema#string">LB</literal>
      </binding>
      <binding name="dataset">
        <uri>http://rdf.cdisc.org/std/sdtmig-3-1-2#Dataset.LB</uri>
      </binding>
    </result>
    <result>
      <binding name="name">
        <literal datatype="http://www.w3.org/2001/XMLSchema#string">VISITNUM</literal>
      </binding>
      <binding name="subject">
        <uri>http://rdf.cdisc.org/std/sdtmig-3-1-2#Column.LB.VISITNUM</uri>
      </binding>
      <binding name="domainName">
        <literal datatype="http://www.w3.org/2001/XMLSchema#string">LB</literal>
      </binding>
      <binding name="dataset">
        <uri>http://rdf.cdisc.org/std/sdtmig-3-1-2#Dataset.LB</uri>
      </binding>
    </result>
    <result>
      <binding name="name">
        <literal datatype="http://www.w3.org/2001/XMLSchema#string">DOMAIN</literal>
      </binding>
      <binding name="subject">
        <uri>http://rdf.cdisc.org/std/sdtmig-3-1-2#Column.MB.DOMAIN</uri>
      </binding>
      <binding name="domainName">
        <literal datatype="http://www.w3.org/2001/XMLSchema#string">MB</literal>
      </binding>
      <binding name="dataset">
        <uri>http://rdf.cdisc.org/std/sdtmig-3-1-2#Dataset.MB</uri>
      </binding>
    </result>
    <result>
      <binding name="name">
        <literal datatype="http://www.w3.org/2001/XMLSchema#string">MBBLFL</literal>
      </binding>
      <binding name="subject">
        <uri>http://rdf.cdisc.org/std/sdtmig-3-1-2#Column.MB.MBBLFL</uri>
      </binding>
      <binding name="domainName">
        <literal datatype="http://www.w3.org/2001/XMLSchema#string">MB</literal>
      </binding>
      <binding name="dataset">
        <uri>http://rdf.cdisc.org/std/sdtmig-3-1-2#Dataset.MB</uri>
      </binding>
    </result>
    <result>
      <binding name="name">
        <literal datatype="http://www.w3.org/2001/XMLSchema#string">MBCAT</literal>
      </binding>
      <binding name="subject">
        <uri>http://rdf.cdisc.org/std/sdtmig-3-1-2#Column.MB.MBCAT</uri>
      </binding>
      <binding name="domainName">
        <literal datatype="http://www.w3.org/2001/XMLSchema#string">MB</literal>
      </binding>
      <binding name="dataset">
        <uri>http://rdf.cdisc.org/std/sdtmig-3-1-2#Dataset.MB</uri>
      </binding>
    </result>
    <result>
      <binding name="name">
        <literal datatype="http://www.w3.org/2001/XMLSchema#string">MBDRVFL</literal>
      </binding>
      <binding name="subject">
        <uri>http://rdf.cdisc.org/std/sdtmig-3-1-2#Column.MB.MBDRVFL</uri>
      </binding>
      <binding name="domainName">
        <literal datatype="http://www.w3.org/2001/XMLSchema#string">MB</literal>
      </binding>
      <binding name="dataset">
        <uri>http://rdf.cdisc.org/std/sdtmig-3-1-2#Dataset.MB</uri>
      </binding>
    </result>
    <result>
      <binding name="name">
        <literal datatype="http://www.w3.org/2001/XMLSchema#string">MBDTC</literal>
      </binding>
      <binding name="subject">
        <uri>http://rdf.cdisc.org/std/sdtmig-3-1-2#Column.MB.MBDTC</uri>
      </binding>
      <binding name="domainName">
        <literal datatype="http://www.w3.org/2001/XMLSchema#string">MB</literal>
      </binding>
      <binding name="dataset">
        <uri>http://rdf.cdisc.org/std/sdtmig-3-1-2#Dataset.MB</uri>
      </binding>
    </result>
    <result>
      <binding name="name">
        <literal datatype="http://www.w3.org/2001/XMLSchema#string">MBDY</literal>
      </binding>
      <binding name="subject">
        <uri>http://rdf.cdisc.org/std/sdtmig-3-1-2#Column.MB.MBDY</uri>
      </binding>
      <binding name="domainName">
        <literal datatype="http://www.w3.org/2001/XMLSchema#string">MB</literal>
      </binding>
      <binding name="dataset">
        <uri>http://rdf.cdisc.org/std/sdtmig-3-1-2#Dataset.MB</uri>
      </binding>
    </result>
    <result>
      <binding name="name">
        <literal datatype="http://www.w3.org/2001/XMLSchema#string">MBELTM</literal>
      </binding>
      <binding name="subject">
        <uri>http://rdf.cdisc.org/std/sdtmig-3-1-2#Column.MB.MBELTM</uri>
      </binding>
      <binding name="domainName">
        <literal datatype="http://www.w3.org/2001/XMLSchema#string">MB</literal>
      </binding>
      <binding name="dataset">
        <uri>http://rdf.cdisc.org/std/sdtmig-3-1-2#Dataset.MB</uri>
      </binding>
    </result>
    <result>
      <binding name="name">
        <literal datatype="http://www.w3.org/2001/XMLSchema#string">MBGRPID</literal>
      </binding>
      <binding name="subject">
        <uri>http://rdf.cdisc.org/std/sdtmig-3-1-2#Column.MB.MBGRPID</uri>
      </binding>
      <binding name="domainName">
        <literal datatype="http://www.w3.org/2001/XMLSchema#string">MB</literal>
      </binding>
      <binding name="dataset">
        <uri>http://rdf.cdisc.org/std/sdtmig-3-1-2#Dataset.MB</uri>
      </binding>
    </result>
    <result>
      <binding name="name">
        <literal datatype="http://www.w3.org/2001/XMLSchema#string">MBLOC</literal>
      </binding>
      <binding name="subject">
        <uri>http://rdf.cdisc.org/std/sdtmig-3-1-2#Column.MB.MBLOC</uri>
      </binding>
      <binding name="domainName">
        <literal datatype="http://www.w3.org/2001/XMLSchema#string">MB</literal>
      </binding>
      <binding name="dataset">
        <uri>http://rdf.cdisc.org/std/sdtmig-3-1-2#Dataset.MB</uri>
      </binding>
    </result>
    <result>
      <binding name="name">
        <literal datatype="http://www.w3.org/2001/XMLSchema#string">MBLOINC</literal>
      </binding>
      <binding name="subject">
        <uri>http://rdf.cdisc.org/std/sdtmig-3-1-2#Column.MB.MBLOINC</uri>
      </binding>
      <binding name="domainName">
        <literal datatype="http://www.w3.org/2001/XMLSchema#string">MB</literal>
      </binding>
      <binding name="dataset">
        <uri>http://rdf.cdisc.org/std/sdtmig-3-1-2#Dataset.MB</uri>
      </binding>
    </result>
    <result>
      <binding name="name">
        <literal datatype="http://www.w3.org/2001/XMLSchema#string">MBMETHOD</literal>
      </binding>
      <binding name="subject">
        <uri>http://rdf.cdisc.org/std/sdtmig-3-1-2#Column.MB.MBMETHOD</uri>
      </binding>
      <binding name="domainName">
        <literal datatype="http://www.w3.org/2001/XMLSchema#string">MB</literal>
      </binding>
      <binding name="dataset">
        <uri>http://rdf.cdisc.org/std/sdtmig-3-1-2#Dataset.MB</uri>
      </binding>
    </result>
    <result>
      <binding name="name">
        <literal datatype="http://www.w3.org/2001/XMLSchema#string">MBNAM</literal>
      </binding>
      <binding name="subject">
        <uri>http://rdf.cdisc.org/std/sdtmig-3-1-2#Column.MB.MBNAM</uri>
      </binding>
      <binding name="domainName">
        <literal datatype="http://www.w3.org/2001/XMLSchema#string">MB</literal>
      </binding>
      <binding name="dataset">
        <uri>http://rdf.cdisc.org/std/sdtmig-3-1-2#Dataset.MB</uri>
      </binding>
    </result>
    <result>
      <binding name="name">
        <literal datatype="http://www.w3.org/2001/XMLSchema#string">MBORRES</literal>
      </binding>
      <binding name="subject">
        <uri>http://rdf.cdisc.org/std/sdtmig-3-1-2#Column.MB.MBORRES</uri>
      </binding>
      <binding name="domainName">
        <literal datatype="http://www.w3.org/2001/XMLSchema#string">MB</literal>
      </binding>
      <binding name="dataset">
        <uri>http://rdf.cdisc.org/std/sdtmig-3-1-2#Dataset.MB</uri>
      </binding>
    </result>
    <result>
      <binding name="name">
        <literal datatype="http://www.w3.org/2001/XMLSchema#string">MBORRESU</literal>
      </binding>
      <binding name="subject">
        <uri>http://rdf.cdisc.org/std/sdtmig-3-1-2#Column.MB.MBORRESU</uri>
      </binding>
      <binding name="domainName">
        <literal datatype="http://www.w3.org/2001/XMLSchema#string">MB</literal>
      </binding>
      <binding name="dataset">
        <uri>http://rdf.cdisc.org/std/sdtmig-3-1-2#Dataset.MB</uri>
      </binding>
    </result>
    <result>
      <binding name="name">
        <literal datatype="http://www.w3.org/2001/XMLSchema#string">MBREASND</literal>
      </binding>
      <binding name="subject">
        <uri>http://rdf.cdisc.org/std/sdtmig-3-1-2#Column.MB.MBREASND</uri>
      </binding>
      <binding name="domainName">
        <literal datatype="http://www.w3.org/2001/XMLSchema#string">MB</literal>
      </binding>
      <binding name="dataset">
        <uri>http://rdf.cdisc.org/std/sdtmig-3-1-2#Dataset.MB</uri>
      </binding>
    </result>
    <result>
      <binding name="name">
        <literal datatype="http://www.w3.org/2001/XMLSchema#string">MBREFID</literal>
      </binding>
      <binding name="subject">
        <uri>http://rdf.cdisc.org/std/sdtmig-3-1-2#Column.MB.MBREFID</uri>
      </binding>
      <binding name="domainName">
        <literal datatype="http://www.w3.org/2001/XMLSchema#string">MB</literal>
      </binding>
      <binding name="dataset">
        <uri>http://rdf.cdisc.org/std/sdtmig-3-1-2#Dataset.MB</uri>
      </binding>
    </result>
    <result>
      <binding name="name">
        <literal datatype="http://www.w3.org/2001/XMLSchema#string">MBRESCAT</literal>
      </binding>
      <binding name="subject">
        <uri>http://rdf.cdisc.org/std/sdtmig-3-1-2#Column.MB.MBRESCAT</uri>
      </binding>
      <binding name="domainName">
        <literal datatype="http://www.w3.org/2001/XMLSchema#string">MB</literal>
      </binding>
      <binding name="dataset">
        <uri>http://rdf.cdisc.org/std/sdtmig-3-1-2#Dataset.MB</uri>
      </binding>
    </result>
    <result>
      <binding name="name">
        <literal datatype="http://www.w3.org/2001/XMLSchema#string">MBRFTDTC</literal>
      </binding>
      <binding name="subject">
        <uri>http://rdf.cdisc.org/std/sdtmig-3-1-2#Column.MB.MBRFTDTC</uri>
      </binding>
      <binding name="domainName">
        <literal datatype="http://www.w3.org/2001/XMLSchema#string">MB</literal>
      </binding>
      <binding name="dataset">
        <uri>http://rdf.cdisc.org/std/sdtmig-3-1-2#Dataset.MB</uri>
      </binding>
    </result>
    <result>
      <binding name="name">
        <literal datatype="http://www.w3.org/2001/XMLSchema#string">MBSCAT</literal>
      </binding>
      <binding name="subject">
        <uri>http://rdf.cdisc.org/std/sdtmig-3-1-2#Column.MB.MBSCAT</uri>
      </binding>
      <binding name="domainName">
        <literal datatype="http://www.w3.org/2001/XMLSchema#string">MB</literal>
      </binding>
      <binding name="dataset">
        <uri>http://rdf.cdisc.org/std/sdtmig-3-1-2#Dataset.MB</uri>
      </binding>
    </result>
    <result>
      <binding name="name">
        <literal datatype="http://www.w3.org/2001/XMLSchema#string">MBSEQ</literal>
      </binding>
      <binding name="subject">
        <uri>http://rdf.cdisc.org/std/sdtmig-3-1-2#Column.MB.MBSEQ</uri>
      </binding>
      <binding name="domainName">
        <literal datatype="http://www.w3.org/2001/XMLSchema#string">MB</literal>
      </binding>
      <binding name="dataset">
        <uri>http://rdf.cdisc.org/std/sdtmig-3-1-2#Dataset.MB</uri>
      </binding>
    </result>
    <result>
      <binding name="name">
        <literal datatype="http://www.w3.org/2001/XMLSchema#string">MBSPCCND</literal>
      </binding>
      <binding name="subject">
        <uri>http://rdf.cdisc.org/std/sdtmig-3-1-2#Column.MB.MBSPCCND</uri>
      </binding>
      <binding name="domainName">
        <literal datatype="http://www.w3.org/2001/XMLSchema#string">MB</literal>
      </binding>
      <binding name="dataset">
        <uri>http://rdf.cdisc.org/std/sdtmig-3-1-2#Dataset.MB</uri>
      </binding>
    </result>
    <result>
      <binding name="name">
        <literal datatype="http://www.w3.org/2001/XMLSchema#string">MBSPEC</literal>
      </binding>
      <binding name="subject">
        <uri>http://rdf.cdisc.org/std/sdtmig-3-1-2#Column.MB.MBSPEC</uri>
      </binding>
      <binding name="domainName">
        <literal datatype="http://www.w3.org/2001/XMLSchema#string">MB</literal>
      </binding>
      <binding name="dataset">
        <uri>http://rdf.cdisc.org/std/sdtmig-3-1-2#Dataset.MB</uri>
      </binding>
    </result>
    <result>
      <binding name="name">
        <literal datatype="http://www.w3.org/2001/XMLSchema#string">MBSPID</literal>
      </binding>
      <binding name="subject">
        <uri>http://rdf.cdisc.org/std/sdtmig-3-1-2#Column.MB.MBSPID</uri>
      </binding>
      <binding name="domainName">
        <literal datatype="http://www.w3.org/2001/XMLSchema#string">MB</literal>
      </binding>
      <binding name="dataset">
        <uri>http://rdf.cdisc.org/std/sdtmig-3-1-2#Dataset.MB</uri>
      </binding>
    </result>
    <result>
      <binding name="name">
        <literal datatype="http://www.w3.org/2001/XMLSchema#string">MBSTAT</literal>
      </binding>
      <binding name="subject">
        <uri>http://rdf.cdisc.org/std/sdtmig-3-1-2#Column.MB.MBSTAT</uri>
      </binding>
      <binding name="domainName">
        <literal datatype="http://www.w3.org/2001/XMLSchema#string">MB</literal>
      </binding>
      <binding name="dataset">
        <uri>http://rdf.cdisc.org/std/sdtmig-3-1-2#Dataset.MB</uri>
      </binding>
    </result>
    <result>
      <binding name="name">
        <literal datatype="http://www.w3.org/2001/XMLSchema#string">MBSTRESC</literal>
      </binding>
      <binding name="subject">
        <uri>http://rdf.cdisc.org/std/sdtmig-3-1-2#Column.MB.MBSTRESC</uri>
      </binding>
      <binding name="domainName">
        <literal datatype="http://www.w3.org/2001/XMLSchema#string">MB</literal>
      </binding>
      <binding name="dataset">
        <uri>http://rdf.cdisc.org/std/sdtmig-3-1-2#Dataset.MB</uri>
      </binding>
    </result>
    <result>
      <binding name="name">
        <literal datatype="http://www.w3.org/2001/XMLSchema#string">MBSTRESN</literal>
      </binding>
      <binding name="subject">
        <uri>http://rdf.cdisc.org/std/sdtmig-3-1-2#Column.MB.MBSTRESN</uri>
      </binding>
      <binding name="domainName">
        <literal datatype="http://www.w3.org/2001/XMLSchema#string">MB</literal>
      </binding>
      <binding name="dataset">
        <uri>http://rdf.cdisc.org/std/sdtmig-3-1-2#Dataset.MB</uri>
      </binding>
    </result>
    <result>
      <binding name="name">
        <literal datatype="http://www.w3.org/2001/XMLSchema#string">MBSTRESU</literal>
      </binding>
      <binding name="subject">
        <uri>http://rdf.cdisc.org/std/sdtmig-3-1-2#Column.MB.MBSTRESU</uri>
      </binding>
      <binding name="domainName">
        <literal datatype="http://www.w3.org/2001/XMLSchema#string">MB</literal>
      </binding>
      <binding name="dataset">
        <uri>http://rdf.cdisc.org/std/sdtmig-3-1-2#Dataset.MB</uri>
      </binding>
    </result>
    <result>
      <binding name="name">
        <literal datatype="http://www.w3.org/2001/XMLSchema#string">MBTEST</literal>
      </binding>
      <binding name="subject">
        <uri>http://rdf.cdisc.org/std/sdtmig-3-1-2#Column.MB.MBTEST</uri>
      </binding>
      <binding name="domainName">
        <literal datatype="http://www.w3.org/2001/XMLSchema#string">MB</literal>
      </binding>
      <binding name="dataset">
        <uri>http://rdf.cdisc.org/std/sdtmig-3-1-2#Dataset.MB</uri>
      </binding>
    </result>
    <result>
      <binding name="name">
        <literal datatype="http://www.w3.org/2001/XMLSchema#string">MBTESTCD</literal>
      </binding>
      <binding name="subject">
        <uri>http://rdf.cdisc.org/std/sdtmig-3-1-2#Column.MB.MBTESTCD</uri>
      </binding>
      <binding name="domainName">
        <literal datatype="http://www.w3.org/2001/XMLSchema#string">MB</literal>
      </binding>
      <binding name="dataset">
        <uri>http://rdf.cdisc.org/std/sdtmig-3-1-2#Dataset.MB</uri>
      </binding>
    </result>
    <result>
      <binding name="name">
        <literal datatype="http://www.w3.org/2001/XMLSchema#string">MBTPT</literal>
      </binding>
      <binding name="subject">
        <uri>http://rdf.cdisc.org/std/sdtmig-3-1-2#Column.MB.MBTPT</uri>
      </binding>
      <binding name="domainName">
        <literal datatype="http://www.w3.org/2001/XMLSchema#string">MB</literal>
      </binding>
      <binding name="dataset">
        <uri>http://rdf.cdisc.org/std/sdtmig-3-1-2#Dataset.MB</uri>
      </binding>
    </result>
    <result>
      <binding name="name">
        <literal datatype="http://www.w3.org/2001/XMLSchema#string">MBTPTNUM</literal>
      </binding>
      <binding name="subject">
        <uri>http://rdf.cdisc.org/std/sdtmig-3-1-2#Column.MB.MBTPTNUM</uri>
      </binding>
      <binding name="domainName">
        <literal datatype="http://www.w3.org/2001/XMLSchema#string">MB</literal>
      </binding>
      <binding name="dataset">
        <uri>http://rdf.cdisc.org/std/sdtmig-3-1-2#Dataset.MB</uri>
      </binding>
    </result>
    <result>
      <binding name="name">
        <literal datatype="http://www.w3.org/2001/XMLSchema#string">MBTPTREF</literal>
      </binding>
      <binding name="subject">
        <uri>http://rdf.cdisc.org/std/sdtmig-3-1-2#Column.MB.MBTPTREF</uri>
      </binding>
      <binding name="domainName">
        <literal datatype="http://www.w3.org/2001/XMLSchema#string">MB</literal>
      </binding>
      <binding name="dataset">
        <uri>http://rdf.cdisc.org/std/sdtmig-3-1-2#Dataset.MB</uri>
      </binding>
    </result>
    <result>
      <binding name="name">
        <literal datatype="http://www.w3.org/2001/XMLSchema#string">STUDYID</literal>
      </binding>
      <binding name="subject">
        <uri>http://rdf.cdisc.org/std/sdtmig-3-1-2#Column.MB.STUDYID</uri>
      </binding>
      <binding name="domainName">
        <literal datatype="http://www.w3.org/2001/XMLSchema#string">MB</literal>
      </binding>
      <binding name="dataset">
        <uri>http://rdf.cdisc.org/std/sdtmig-3-1-2#Dataset.MB</uri>
      </binding>
    </result>
    <result>
      <binding name="name">
        <literal datatype="http://www.w3.org/2001/XMLSchema#string">USUBJID</literal>
      </binding>
      <binding name="subject">
        <uri>http://rdf.cdisc.org/std/sdtmig-3-1-2#Column.MB.USUBJID</uri>
      </binding>
      <binding name="domainName">
        <literal datatype="http://www.w3.org/2001/XMLSchema#string">MB</literal>
      </binding>
      <binding name="dataset">
        <uri>http://rdf.cdisc.org/std/sdtmig-3-1-2#Dataset.MB</uri>
      </binding>
    </result>
    <result>
      <binding name="name">
        <literal datatype="http://www.w3.org/2001/XMLSchema#string">VISIT</literal>
      </binding>
      <binding name="subject">
