PREFIX : <http://www.assero.co.uk/MDRSdtmIgD/CDISC/V1#>
PREFIX mdrItems: <http://www.assero.co.uk/MDRItems#>
PREFIX isoI: <http://www.assero.co.uk/ISO11179Identification#>
PREFIX isoR: <http://www.assero.co.uk/ISO11179Registration#>
PREFIX bd: <http://www.assero.co.uk/BusinessDomain#>
PREFIX isoT: <http://www.assero.co.uk/ISO11179Types#>
PREFIX bo: <http://www.assero.co.uk/BusinessOperational#>
PREFIX rdf: <http://www.w3.org/1999/02/22-rdf-syntax-ns#>
PREFIX rdfs: <http://www.w3.org/2000/01/rdf-schema#>
PREFIX xsd: <http://www.w3.org/2001/XMLSchema#>
PREFIX skos: <http://www.w3.org/2004/02/skos/core#>
INSERT DATA 
{ 
mdrItems:SI-CDISC_SDTMIG-1 rdf:type isoI:ScopedIdentifier . 
mdrItems:SI-CDISC_SDTMIG-1 isoI:identifier "SDTM IG"^^xsd:string . 
mdrItems:SI-CDISC_SDTMIG-1 isoI:version "1"^^xsd:positiveInteger . 
mdrItems:SI-CDISC_SDTMIG-1 isoI:versionLabel "3.1.2"^^xsd:string . 
mdrItems:SI-CDISC_SDTMIG-1 isoI:hasScope mdrItems:NS-CDISC . 
mdrItems:RS-CDISC_SDTMIG-1 rdf:type isoR:RegistrationState . 
mdrItems:RS-CDISC_SDTMIG-1 isoR:byAuthority mdrItems:RA-084433759 . 
mdrItems:RS-CDISC_SDTMIG-1 isoR:registrationStatus "Standard"^^xsd:string . 
mdrItems:RS-CDISC_SDTMIG-1 isoR:administrativeNote ""^^xsd:string . 
mdrItems:RS-CDISC_SDTMIG-1 isoR:effectiveDate "2016-01-01T00:00:00Z"^^xsd:dateTime . 
mdrItems:RS-CDISC_SDTMIG-1 isoR:untilDate "2016-01-01T00:00:00Z"^^xsd:dateTime . 
mdrItems:RS-CDISC_SDTMIG-1 isoR:unresolvedIssue ""^^xsd:string . 
mdrItems:RS-CDISC_SDTMIG-1 isoR:administrativeStatus ""^^xsd:string . 
mdrItems:RS-CDISC_SDTMIG-1 isoR:previousState "Standard"^^xsd:string . 
<http://www.assero.co.uk/MDRSdtmIg/CDISC/V1#IG-CDISC_SDTMIG> rdf:type bd:ImplementationGuide . 
<http://www.assero.co.uk/MDRSdtmIg/CDISC/V1#IG-CDISC_SDTMIG> isoI:hasIdentifier mdrItems:SI-CDISC_SDTMIG-1 . 
<http://www.assero.co.uk/MDRSdtmIg/CDISC/V1#IG-CDISC_SDTMIG> isoR:hasState mdrItems:RS-CDISC_SDTMIG-1 . 
<http://www.assero.co.uk/MDRSdtmIg/CDISC/V1#IG-CDISC_SDTMIG> rdfs:label "SDTM Implementation Guide 2008-11-12"^^xsd:string . 
<http://www.assero.co.uk/MDRSdtmIg/CDISC/V1#IG-CDISC_SDTMIG> isoT:creationDate "2008-11-12"^^xsd:string . 
<http://www.assero.co.uk/MDRSdtmIg/CDISC/V1#IG-CDISC_SDTMIG> isoT:lastChangeDate "2016-09-02T23:17:38+01:00"^^xsd:string . 
<http://www.assero.co.uk/MDRSdtmIg/CDISC/V1#IG-CDISC_SDTMIG> isoT:changeDescription ""^^xsd:string . 
<http://www.assero.co.uk/MDRSdtmIg/CDISC/V1#IG-CDISC_SDTMIG> isoT:explanatoryComment ""^^xsd:string . 
<http://www.assero.co.uk/MDRSdtmIg/CDISC/V1#IG-CDISC_SDTMIG> isoT:origin ""^^xsd:string . 
mdrItems:SI-CDISC_SDTMIGAE-1 rdf:type isoI:ScopedIdentifier . 
mdrItems:SI-CDISC_SDTMIGAE-1 isoI:identifier "SDTM IG AE"^^xsd:string . 
mdrItems:SI-CDISC_SDTMIGAE-1 isoI:version "1"^^xsd:positiveInteger . 
mdrItems:SI-CDISC_SDTMIGAE-1 isoI:versionLabel "3.1.2"^^xsd:string . 
mdrItems:SI-CDISC_SDTMIGAE-1 isoI:hasScope mdrItems:NS-CDISC . 
mdrItems:RS-CDISC_SDTMIGAE-1 rdf:type isoR:RegistrationState . 
mdrItems:RS-CDISC_SDTMIGAE-1 isoR:byAuthority mdrItems:RA-084433759 . 
mdrItems:RS-CDISC_SDTMIGAE-1 isoR:registrationStatus "Standard"^^xsd:string . 
mdrItems:RS-CDISC_SDTMIGAE-1 isoR:administrativeNote ""^^xsd:string . 
mdrItems:RS-CDISC_SDTMIGAE-1 isoR:effectiveDate "2016-01-01T00:00:00Z"^^xsd:dateTime . 
mdrItems:RS-CDISC_SDTMIGAE-1 isoR:untilDate "2016-01-01T00:00:00Z"^^xsd:dateTime . 
mdrItems:RS-CDISC_SDTMIGAE-1 isoR:unresolvedIssue ""^^xsd:string . 
mdrItems:RS-CDISC_SDTMIGAE-1 isoR:administrativeStatus ""^^xsd:string . 
mdrItems:RS-CDISC_SDTMIGAE-1 isoR:previousState "Standard"^^xsd:string . 
<http://www.assero.co.uk/MDRSdtmIgD/CDISC/V1#IG-CDISC_SDTMIGAE> rdf:type bd:IgDomain . 
<http://www.assero.co.uk/MDRSdtmIgD/CDISC/V1#IG-CDISC_SDTMIGAE> isoI:hasIdentifier mdrItems:SI-CDISC_SDTMIGAE-1 . 
<http://www.assero.co.uk/MDRSdtmIgD/CDISC/V1#IG-CDISC_SDTMIGAE> isoR:hasState mdrItems:RS-CDISC_SDTMIGAE-1 . 
<http://www.assero.co.uk/MDRSdtmIgD/CDISC/V1#IG-CDISC_SDTMIGAE> rdfs:label "Adverse Events"^^xsd:string . 
<http://www.assero.co.uk/MDRSdtmIgD/CDISC/V1#IG-CDISC_SDTMIGAE> isoT:creationDate "2008-11-12"^^xsd:string . 
<http://www.assero.co.uk/MDRSdtmIgD/CDISC/V1#IG-CDISC_SDTMIGAE> isoT:lastChangeDate "2016-09-02T23:17:38+01:00"^^xsd:string . 
<http://www.assero.co.uk/MDRSdtmIgD/CDISC/V1#IG-CDISC_SDTMIGAE> isoT:changeDescription ""^^xsd:string . 
<http://www.assero.co.uk/MDRSdtmIgD/CDISC/V1#IG-CDISC_SDTMIGAE> isoT:explanatoryComment ""^^xsd:string . 
<http://www.assero.co.uk/MDRSdtmIgD/CDISC/V1#IG-CDISC_SDTMIGAE> isoT:origin ""^^xsd:string . 
<http://www.assero.co.uk/MDRSdtmIgD/CDISC/V1#IG-CDISC_SDTMIGAE> bd:prefix "AE"^^xsd:string . 
<http://www.assero.co.uk/MDRSdtmIgD/CDISC/V1#IG-CDISC_SDTMIGAE> bd:structure "One record per adverse event per subject"^^xsd:string . 
<http://www.assero.co.uk/MDRSdtmIgD/CDISC/V1#IG-CDISC_SDTMIGAE> bd:basedOnDomain <http://www.assero.co.uk/MDRSdtmIgD/CDISC/V1#IG-CDISC_SDTMIGAE_CLR> . 
<http://www.assero.co.uk/MDRSdtmIgD/CDISC/V1#IG-CDISC_SDTMIGAE_CLR> rdf:type bo:TReference . 
<http://www.assero.co.uk/MDRSdtmIgD/CDISC/V1#IG-CDISC_SDTMIGAE_CLR> bo:hasTabulation <http://www.assero.co.uk/MDRSdtmMd/CDISC/V1#M-CDISC_SDTMMODEL_EVENTS> . 
<http://www.assero.co.uk/MDRSdtmIgD/CDISC/V1#IG-CDISC_SDTMIGAE_CLR> bo:enabled "true"^^xsd:boolean . 
<http://www.assero.co.uk/MDRSdtmIgD/CDISC/V1#IG-CDISC_SDTMIGAE_CLR> bo:optional "false"^^xsd:boolean . 
<http://www.assero.co.uk/MDRSdtmIgD/CDISC/V1#IG-CDISC_SDTMIGAE_CLR> bo:ordinal "1"^^xsd:positiveInteger . 
<http://www.assero.co.uk/MDRSdtmIgD/CDISC/V1#IG-CDISC_SDTMIGAE_C_REQUIRED> rdf:type bd:VariableCompliance . 
<http://www.assero.co.uk/MDRSdtmIgD/CDISC/V1#IG-CDISC_SDTMIGAE_C_REQUIRED> rdfs:label "Required"^^xsd:string . 
<http://www.assero.co.uk/MDRSdtmIgD/CDISC/V1#IG-CDISC_SDTMIGAE_C_PERMISSIBLE> rdf:type bd:VariableCompliance . 
<http://www.assero.co.uk/MDRSdtmIgD/CDISC/V1#IG-CDISC_SDTMIGAE_C_PERMISSIBLE> rdfs:label "Permissible"^^xsd:string . 
<http://www.assero.co.uk/MDRSdtmIgD/CDISC/V1#IG-CDISC_SDTMIGAE_C_EXPECTED> rdf:type bd:VariableCompliance . 
<http://www.assero.co.uk/MDRSdtmIgD/CDISC/V1#IG-CDISC_SDTMIGAE_C_EXPECTED> rdfs:label "Expected"^^xsd:string . 
<http://www.assero.co.uk/MDRSdtmIgD/CDISC/V1#IG-CDISC_SDTMIGAE_STUDYID> rdf:type bd:IgVariable . 
<http://www.assero.co.uk/MDRSdtmIgD/CDISC/V1#IG-CDISC_SDTMIGAE_STUDYID> rdfs:label "Study Identifier"^^xsd:string . 
<http://www.assero.co.uk/MDRSdtmIgD/CDISC/V1#IG-CDISC_SDTMIGAE_STUDYID> bd:ordinal "1"^^xsd:positiveInteger . 
<http://www.assero.co.uk/MDRSdtmIgD/CDISC/V1#IG-CDISC_SDTMIGAE_STUDYID> bd:controlled_term_or_format ""^^xsd:string . 
<http://www.assero.co.uk/MDRSdtmIgD/CDISC/V1#IG-CDISC_SDTMIGAE_STUDYID> bd:notes "Unique identifier for a study."^^xsd:string . 
<http://www.assero.co.uk/MDRSdtmIgD/CDISC/V1#IG-CDISC_SDTMIGAE_STUDYID> bd:name "STUDYID"^^xsd:string . 
<http://www.assero.co.uk/MDRSdtmIgD/CDISC/V1#IG-CDISC_SDTMIGAE_STUDYID> bd:basedOnVariable <http://www.assero.co.uk/MDRSdtmIgD/CDISC/V1#IG-CDISC_SDTMIGAE_STUDYID_VR> . 
<http://www.assero.co.uk/MDRSdtmIgD/CDISC/V1#IG-CDISC_SDTMIGAE_STUDYID_VR> rdf:type bo:CReference . 
<http://www.assero.co.uk/MDRSdtmIgD/CDISC/V1#IG-CDISC_SDTMIGAE_STUDYID_VR> bo:hasColumn <http://www.assero.co.uk/MDRSdtmMd/CDISC/V1#M-CDISC_SDTMMODEL_EVENTS_STUDYID> . 
<http://www.assero.co.uk/MDRSdtmIgD/CDISC/V1#IG-CDISC_SDTMIGAE_STUDYID_VR> bo:enabled "true"^^xsd:boolean . 
<http://www.assero.co.uk/MDRSdtmIgD/CDISC/V1#IG-CDISC_SDTMIGAE_STUDYID_VR> bo:optional "false"^^xsd:boolean . 
<http://www.assero.co.uk/MDRSdtmIgD/CDISC/V1#IG-CDISC_SDTMIGAE_STUDYID_VR> bo:ordinal "1"^^xsd:positiveInteger . 
<http://www.assero.co.uk/MDRSdtmIgD/CDISC/V1#IG-CDISC_SDTMIGAE_STUDYID> bd:compliance <http://www.assero.co.uk/MDRSdtmIgD/CDISC/V1#IG-CDISC_SDTMIGAE_C_REQUIRED> . 
<http://www.assero.co.uk/MDRSdtmIgD/CDISC/V1#IG-CDISC_SDTMIGAE> bd:includesColumn <http://www.assero.co.uk/MDRSdtmIgD/CDISC/V1#IG-CDISC_SDTMIGAE_STUDYID> . 
<http://www.assero.co.uk/MDRSdtmIgD/CDISC/V1#IG-CDISC_SDTMIGAE_DOMAIN> rdf:type bd:IgVariable . 
<http://www.assero.co.uk/MDRSdtmIgD/CDISC/V1#IG-CDISC_SDTMIGAE_DOMAIN> rdfs:label "Domain Abbreviation"^^xsd:string . 
<http://www.assero.co.uk/MDRSdtmIgD/CDISC/V1#IG-CDISC_SDTMIGAE_DOMAIN> bd:ordinal "2"^^xsd:positiveInteger . 
<http://www.assero.co.uk/MDRSdtmIgD/CDISC/V1#IG-CDISC_SDTMIGAE_DOMAIN> bd:controlled_term_or_format ""^^xsd:string . 
<http://www.assero.co.uk/MDRSdtmIgD/CDISC/V1#IG-CDISC_SDTMIGAE_DOMAIN> bd:notes "Two-character abbreviation for the domain."^^xsd:string . 
<http://www.assero.co.uk/MDRSdtmIgD/CDISC/V1#IG-CDISC_SDTMIGAE_DOMAIN> bd:name "DOMAIN"^^xsd:string . 
<http://www.assero.co.uk/MDRSdtmIgD/CDISC/V1#IG-CDISC_SDTMIGAE_DOMAIN> bd:basedOnVariable <http://www.assero.co.uk/MDRSdtmIgD/CDISC/V1#IG-CDISC_SDTMIGAE_DOMAIN_VR> . 
<http://www.assero.co.uk/MDRSdtmIgD/CDISC/V1#IG-CDISC_SDTMIGAE_DOMAIN_VR> rdf:type bo:CReference . 
<http://www.assero.co.uk/MDRSdtmIgD/CDISC/V1#IG-CDISC_SDTMIGAE_DOMAIN_VR> bo:hasColumn <http://www.assero.co.uk/MDRSdtmMd/CDISC/V1#M-CDISC_SDTMMODEL_EVENTS_DOMAIN> . 
<http://www.assero.co.uk/MDRSdtmIgD/CDISC/V1#IG-CDISC_SDTMIGAE_DOMAIN_VR> bo:enabled "true"^^xsd:boolean . 
<http://www.assero.co.uk/MDRSdtmIgD/CDISC/V1#IG-CDISC_SDTMIGAE_DOMAIN_VR> bo:optional "false"^^xsd:boolean . 
<http://www.assero.co.uk/MDRSdtmIgD/CDISC/V1#IG-CDISC_SDTMIGAE_DOMAIN_VR> bo:ordinal "1"^^xsd:positiveInteger . 
<http://www.assero.co.uk/MDRSdtmIgD/CDISC/V1#IG-CDISC_SDTMIGAE_DOMAIN> bd:compliance <http://www.assero.co.uk/MDRSdtmIgD/CDISC/V1#IG-CDISC_SDTMIGAE_C_REQUIRED> . 
<http://www.assero.co.uk/MDRSdtmIgD/CDISC/V1#IG-CDISC_SDTMIGAE> bd:includesColumn <http://www.assero.co.uk/MDRSdtmIgD/CDISC/V1#IG-CDISC_SDTMIGAE_DOMAIN> . 
<http://www.assero.co.uk/MDRSdtmIgD/CDISC/V1#IG-CDISC_SDTMIGAE_USUBJID> rdf:type bd:IgVariable . 
<http://www.assero.co.uk/MDRSdtmIgD/CDISC/V1#IG-CDISC_SDTMIGAE_USUBJID> rdfs:label "Unique Subject Identifier"^^xsd:string . 
<http://www.assero.co.uk/MDRSdtmIgD/CDISC/V1#IG-CDISC_SDTMIGAE_USUBJID> bd:ordinal "3"^^xsd:positiveInteger . 
<http://www.assero.co.uk/MDRSdtmIgD/CDISC/V1#IG-CDISC_SDTMIGAE_USUBJID> bd:controlled_term_or_format ""^^xsd:string . 
<http://www.assero.co.uk/MDRSdtmIgD/CDISC/V1#IG-CDISC_SDTMIGAE_USUBJID> bd:notes "Identifier used to uniquely identify a subject across all studies for all applications or submissions involving the product."^^xsd:string . 
<http://www.assero.co.uk/MDRSdtmIgD/CDISC/V1#IG-CDISC_SDTMIGAE_USUBJID> bd:name "USUBJID"^^xsd:string . 
<http://www.assero.co.uk/MDRSdtmIgD/CDISC/V1#IG-CDISC_SDTMIGAE_USUBJID> bd:basedOnVariable <http://www.assero.co.uk/MDRSdtmIgD/CDISC/V1#IG-CDISC_SDTMIGAE_USUBJID_VR> . 
<http://www.assero.co.uk/MDRSdtmIgD/CDISC/V1#IG-CDISC_SDTMIGAE_USUBJID_VR> rdf:type bo:CReference . 
<http://www.assero.co.uk/MDRSdtmIgD/CDISC/V1#IG-CDISC_SDTMIGAE_USUBJID_VR> bo:hasColumn <http://www.assero.co.uk/MDRSdtmMd/CDISC/V1#M-CDISC_SDTMMODEL_EVENTS_USUBJID> . 
<http://www.assero.co.uk/MDRSdtmIgD/CDISC/V1#IG-CDISC_SDTMIGAE_USUBJID_VR> bo:enabled "true"^^xsd:boolean . 
<http://www.assero.co.uk/MDRSdtmIgD/CDISC/V1#IG-CDISC_SDTMIGAE_USUBJID_VR> bo:optional "false"^^xsd:boolean . 
<http://www.assero.co.uk/MDRSdtmIgD/CDISC/V1#IG-CDISC_SDTMIGAE_USUBJID_VR> bo:ordinal "1"^^xsd:positiveInteger . 
<http://www.assero.co.uk/MDRSdtmIgD/CDISC/V1#IG-CDISC_SDTMIGAE_USUBJID> bd:compliance <http://www.assero.co.uk/MDRSdtmIgD/CDISC/V1#IG-CDISC_SDTMIGAE_C_REQUIRED> . 
<http://www.assero.co.uk/MDRSdtmIgD/CDISC/V1#IG-CDISC_SDTMIGAE> bd:includesColumn <http://www.assero.co.uk/MDRSdtmIgD/CDISC/V1#IG-CDISC_SDTMIGAE_USUBJID> . 
<http://www.assero.co.uk/MDRSdtmIgD/CDISC/V1#IG-CDISC_SDTMIGAE_AESEQ> rdf:type bd:IgVariable . 
<http://www.assero.co.uk/MDRSdtmIgD/CDISC/V1#IG-CDISC_SDTMIGAE_AESEQ> rdfs:label "Sequence Number"^^xsd:string . 
<http://www.assero.co.uk/MDRSdtmIgD/CDISC/V1#IG-CDISC_SDTMIGAE_AESEQ> bd:ordinal "4"^^xsd:positiveInteger . 
<http://www.assero.co.uk/MDRSdtmIgD/CDISC/V1#IG-CDISC_SDTMIGAE_AESEQ> bd:controlled_term_or_format ""^^xsd:string . 
<http://www.assero.co.uk/MDRSdtmIgD/CDISC/V1#IG-CDISC_SDTMIGAE_AESEQ> bd:notes "Sequence Number given to ensure uniqueness of subject records within a domain. May be any valid number."^^xsd:string . 
<http://www.assero.co.uk/MDRSdtmIgD/CDISC/V1#IG-CDISC_SDTMIGAE_AESEQ> bd:name "AESEQ"^^xsd:string . 
<http://www.assero.co.uk/MDRSdtmIgD/CDISC/V1#IG-CDISC_SDTMIGAE_AESEQ> bd:basedOnVariable <http://www.assero.co.uk/MDRSdtmIgD/CDISC/V1#IG-CDISC_SDTMIGAE_AESEQ_VR> . 
<http://www.assero.co.uk/MDRSdtmIgD/CDISC/V1#IG-CDISC_SDTMIGAE_AESEQ_VR> rdf:type bo:CReference . 
<http://www.assero.co.uk/MDRSdtmIgD/CDISC/V1#IG-CDISC_SDTMIGAE_AESEQ_VR> bo:hasColumn <http://www.assero.co.uk/MDRSdtmMd/CDISC/V1#M-CDISC_SDTMMODEL_EVENTS_xxSEQ> . 
<http://www.assero.co.uk/MDRSdtmIgD/CDISC/V1#IG-CDISC_SDTMIGAE_AESEQ_VR> bo:enabled "true"^^xsd:boolean . 
<http://www.assero.co.uk/MDRSdtmIgD/CDISC/V1#IG-CDISC_SDTMIGAE_AESEQ_VR> bo:optional "false"^^xsd:boolean . 
<http://www.assero.co.uk/MDRSdtmIgD/CDISC/V1#IG-CDISC_SDTMIGAE_AESEQ_VR> bo:ordinal "1"^^xsd:positiveInteger . 
<http://www.assero.co.uk/MDRSdtmIgD/CDISC/V1#IG-CDISC_SDTMIGAE_AESEQ> bd:compliance <http://www.assero.co.uk/MDRSdtmIgD/CDISC/V1#IG-CDISC_SDTMIGAE_C_REQUIRED> . 
<http://www.assero.co.uk/MDRSdtmIgD/CDISC/V1#IG-CDISC_SDTMIGAE> bd:includesColumn <http://www.assero.co.uk/MDRSdtmIgD/CDISC/V1#IG-CDISC_SDTMIGAE_AESEQ> . 
<http://www.assero.co.uk/MDRSdtmIgD/CDISC/V1#IG-CDISC_SDTMIGAE_AEGRPID> rdf:type bd:IgVariable . 
<http://www.assero.co.uk/MDRSdtmIgD/CDISC/V1#IG-CDISC_SDTMIGAE_AEGRPID> rdfs:label "Group ID"^^xsd:string . 
<http://www.assero.co.uk/MDRSdtmIgD/CDISC/V1#IG-CDISC_SDTMIGAE_AEGRPID> bd:ordinal "5"^^xsd:positiveInteger . 
<http://www.assero.co.uk/MDRSdtmIgD/CDISC/V1#IG-CDISC_SDTMIGAE_AEGRPID> bd:controlled_term_or_format ""^^xsd:string . 
<http://www.assero.co.uk/MDRSdtmIgD/CDISC/V1#IG-CDISC_SDTMIGAE_AEGRPID> bd:notes "Used to tie together a block of related records in a single domain for a subject."^^xsd:string . 
<http://www.assero.co.uk/MDRSdtmIgD/CDISC/V1#IG-CDISC_SDTMIGAE_AEGRPID> bd:name "AEGRPID"^^xsd:string . 
<http://www.assero.co.uk/MDRSdtmIgD/CDISC/V1#IG-CDISC_SDTMIGAE_AEGRPID> bd:basedOnVariable <http://www.assero.co.uk/MDRSdtmIgD/CDISC/V1#IG-CDISC_SDTMIGAE_AEGRPID_VR> . 
<http://www.assero.co.uk/MDRSdtmIgD/CDISC/V1#IG-CDISC_SDTMIGAE_AEGRPID_VR> rdf:type bo:CReference . 
<http://www.assero.co.uk/MDRSdtmIgD/CDISC/V1#IG-CDISC_SDTMIGAE_AEGRPID_VR> bo:hasColumn <http://www.assero.co.uk/MDRSdtmMd/CDISC/V1#M-CDISC_SDTMMODEL_EVENTS_xxGRPID> . 
<http://www.assero.co.uk/MDRSdtmIgD/CDISC/V1#IG-CDISC_SDTMIGAE_AEGRPID_VR> bo:enabled "true"^^xsd:boolean . 
<http://www.assero.co.uk/MDRSdtmIgD/CDISC/V1#IG-CDISC_SDTMIGAE_AEGRPID_VR> bo:optional "false"^^xsd:boolean . 
<http://www.assero.co.uk/MDRSdtmIgD/CDISC/V1#IG-CDISC_SDTMIGAE_AEGRPID_VR> bo:ordinal "1"^^xsd:positiveInteger . 
<http://www.assero.co.uk/MDRSdtmIgD/CDISC/V1#IG-CDISC_SDTMIGAE_AEGRPID> bd:compliance <http://www.assero.co.uk/MDRSdtmIgD/CDISC/V1#IG-CDISC_SDTMIGAE_C_PERMISSIBLE> . 
<http://www.assero.co.uk/MDRSdtmIgD/CDISC/V1#IG-CDISC_SDTMIGAE> bd:includesColumn <http://www.assero.co.uk/MDRSdtmIgD/CDISC/V1#IG-CDISC_SDTMIGAE_AEGRPID> . 
<http://www.assero.co.uk/MDRSdtmIgD/CDISC/V1#IG-CDISC_SDTMIGAE_AEREFID> rdf:type bd:IgVariable . 
<http://www.assero.co.uk/MDRSdtmIgD/CDISC/V1#IG-CDISC_SDTMIGAE_AEREFID> rdfs:label "Reference ID"^^xsd:string . 
<http://www.assero.co.uk/MDRSdtmIgD/CDISC/V1#IG-CDISC_SDTMIGAE_AEREFID> bd:ordinal "6"^^xsd:positiveInteger . 
<http://www.assero.co.uk/MDRSdtmIgD/CDISC/V1#IG-CDISC_SDTMIGAE_AEREFID> bd:controlled_term_or_format ""^^xsd:string . 
<http://www.assero.co.uk/MDRSdtmIgD/CDISC/V1#IG-CDISC_SDTMIGAE_AEREFID> bd:notes "Internal or external identifier such as a serial number on an SAE reporting form"^^xsd:string . 
<http://www.assero.co.uk/MDRSdtmIgD/CDISC/V1#IG-CDISC_SDTMIGAE_AEREFID> bd:name "AEREFID"^^xsd:string . 
<http://www.assero.co.uk/MDRSdtmIgD/CDISC/V1#IG-CDISC_SDTMIGAE_AEREFID> bd:basedOnVariable <http://www.assero.co.uk/MDRSdtmIgD/CDISC/V1#IG-CDISC_SDTMIGAE_AEREFID_VR> . 
<http://www.assero.co.uk/MDRSdtmIgD/CDISC/V1#IG-CDISC_SDTMIGAE_AEREFID_VR> rdf:type bo:CReference . 
<http://www.assero.co.uk/MDRSdtmIgD/CDISC/V1#IG-CDISC_SDTMIGAE_AEREFID_VR> bo:hasColumn <http://www.assero.co.uk/MDRSdtmMd/CDISC/V1#M-CDISC_SDTMMODEL_EVENTS_xxREFID> . 
<http://www.assero.co.uk/MDRSdtmIgD/CDISC/V1#IG-CDISC_SDTMIGAE_AEREFID_VR> bo:enabled "true"^^xsd:boolean . 
<http://www.assero.co.uk/MDRSdtmIgD/CDISC/V1#IG-CDISC_SDTMIGAE_AEREFID_VR> bo:optional "false"^^xsd:boolean . 
<http://www.assero.co.uk/MDRSdtmIgD/CDISC/V1#IG-CDISC_SDTMIGAE_AEREFID_VR> bo:ordinal "1"^^xsd:positiveInteger . 
<http://www.assero.co.uk/MDRSdtmIgD/CDISC/V1#IG-CDISC_SDTMIGAE_AEREFID> bd:compliance <http://www.assero.co.uk/MDRSdtmIgD/CDISC/V1#IG-CDISC_SDTMIGAE_C_PERMISSIBLE> . 
<http://www.assero.co.uk/MDRSdtmIgD/CDISC/V1#IG-CDISC_SDTMIGAE> bd:includesColumn <http://www.assero.co.uk/MDRSdtmIgD/CDISC/V1#IG-CDISC_SDTMIGAE_AEREFID> . 
<http://www.assero.co.uk/MDRSdtmIgD/CDISC/V1#IG-CDISC_SDTMIGAE_AESPID> rdf:type bd:IgVariable . 
<http://www.assero.co.uk/MDRSdtmIgD/CDISC/V1#IG-CDISC_SDTMIGAE_AESPID> rdfs:label "Sponsor-Defined Identifier"^^xsd:string . 
<http://www.assero.co.uk/MDRSdtmIgD/CDISC/V1#IG-CDISC_SDTMIGAE_AESPID> bd:ordinal "7"^^xsd:positiveInteger . 
<http://www.assero.co.uk/MDRSdtmIgD/CDISC/V1#IG-CDISC_SDTMIGAE_AESPID> bd:controlled_term_or_format ""^^xsd:string . 
<http://www.assero.co.uk/MDRSdtmIgD/CDISC/V1#IG-CDISC_SDTMIGAE_AESPID> bd:notes "Sponsor-defined identifier. It may be pre-printed on the CRF as an explicit line identifier or defined in the sponsor's operational database. Example: Line number on an Adverse Events page."^^xsd:string . 
<http://www.assero.co.uk/MDRSdtmIgD/CDISC/V1#IG-CDISC_SDTMIGAE_AESPID> bd:name "AESPID"^^xsd:string . 
<http://www.assero.co.uk/MDRSdtmIgD/CDISC/V1#IG-CDISC_SDTMIGAE_AESPID> bd:basedOnVariable <http://www.assero.co.uk/MDRSdtmIgD/CDISC/V1#IG-CDISC_SDTMIGAE_AESPID_VR> . 
<http://www.assero.co.uk/MDRSdtmIgD/CDISC/V1#IG-CDISC_SDTMIGAE_AESPID_VR> rdf:type bo:CReference . 
<http://www.assero.co.uk/MDRSdtmIgD/CDISC/V1#IG-CDISC_SDTMIGAE_AESPID_VR> bo:hasColumn <http://www.assero.co.uk/MDRSdtmMd/CDISC/V1#M-CDISC_SDTMMODEL_EVENTS_xxSPID> . 
<http://www.assero.co.uk/MDRSdtmIgD/CDISC/V1#IG-CDISC_SDTMIGAE_AESPID_VR> bo:enabled "true"^^xsd:boolean . 
<http://www.assero.co.uk/MDRSdtmIgD/CDISC/V1#IG-CDISC_SDTMIGAE_AESPID_VR> bo:optional "false"^^xsd:boolean . 
<http://www.assero.co.uk/MDRSdtmIgD/CDISC/V1#IG-CDISC_SDTMIGAE_AESPID_VR> bo:ordinal "1"^^xsd:positiveInteger . 
<http://www.assero.co.uk/MDRSdtmIgD/CDISC/V1#IG-CDISC_SDTMIGAE_AESPID> bd:compliance <http://www.assero.co.uk/MDRSdtmIgD/CDISC/V1#IG-CDISC_SDTMIGAE_C_PERMISSIBLE> . 
<http://www.assero.co.uk/MDRSdtmIgD/CDISC/V1#IG-CDISC_SDTMIGAE> bd:includesColumn <http://www.assero.co.uk/MDRSdtmIgD/CDISC/V1#IG-CDISC_SDTMIGAE_AESPID> . 
<http://www.assero.co.uk/MDRSdtmIgD/CDISC/V1#IG-CDISC_SDTMIGAE_AETERM> rdf:type bd:IgVariable . 
<http://www.assero.co.uk/MDRSdtmIgD/CDISC/V1#IG-CDISC_SDTMIGAE_AETERM> rdfs:label "Reported Term for the Adverse Event"^^xsd:string . 
<http://www.assero.co.uk/MDRSdtmIgD/CDISC/V1#IG-CDISC_SDTMIGAE_AETERM> bd:ordinal "8"^^xsd:positiveInteger . 
<http://www.assero.co.uk/MDRSdtmIgD/CDISC/V1#IG-CDISC_SDTMIGAE_AETERM> bd:controlled_term_or_format ""^^xsd:string . 
<http://www.assero.co.uk/MDRSdtmIgD/CDISC/V1#IG-CDISC_SDTMIGAE_AETERM> bd:notes "Verbatim name of the event."^^xsd:string . 
<http://www.assero.co.uk/MDRSdtmIgD/CDISC/V1#IG-CDISC_SDTMIGAE_AETERM> bd:name "AETERM"^^xsd:string . 
<http://www.assero.co.uk/MDRSdtmIgD/CDISC/V1#IG-CDISC_SDTMIGAE_AETERM> bd:basedOnVariable <http://www.assero.co.uk/MDRSdtmIgD/CDISC/V1#IG-CDISC_SDTMIGAE_AETERM_VR> . 
<http://www.assero.co.uk/MDRSdtmIgD/CDISC/V1#IG-CDISC_SDTMIGAE_AETERM_VR> rdf:type bo:CReference . 
<http://www.assero.co.uk/MDRSdtmIgD/CDISC/V1#IG-CDISC_SDTMIGAE_AETERM_VR> bo:hasColumn <http://www.assero.co.uk/MDRSdtmMd/CDISC/V1#M-CDISC_SDTMMODEL_EVENTS_xxTERM> . 
<http://www.assero.co.uk/MDRSdtmIgD/CDISC/V1#IG-CDISC_SDTMIGAE_AETERM_VR> bo:enabled "true"^^xsd:boolean . 
<http://www.assero.co.uk/MDRSdtmIgD/CDISC/V1#IG-CDISC_SDTMIGAE_AETERM_VR> bo:optional "false"^^xsd:boolean . 
<http://www.assero.co.uk/MDRSdtmIgD/CDISC/V1#IG-CDISC_SDTMIGAE_AETERM_VR> bo:ordinal "1"^^xsd:positiveInteger . 
<http://www.assero.co.uk/MDRSdtmIgD/CDISC/V1#IG-CDISC_SDTMIGAE_AETERM> bd:compliance <http://www.assero.co.uk/MDRSdtmIgD/CDISC/V1#IG-CDISC_SDTMIGAE_C_REQUIRED> . 
<http://www.assero.co.uk/MDRSdtmIgD/CDISC/V1#IG-CDISC_SDTMIGAE> bd:includesColumn <http://www.assero.co.uk/MDRSdtmIgD/CDISC/V1#IG-CDISC_SDTMIGAE_AETERM> . 
<http://www.assero.co.uk/MDRSdtmIgD/CDISC/V1#IG-CDISC_SDTMIGAE_AEMODIFY> rdf:type bd:IgVariable . 
<http://www.assero.co.uk/MDRSdtmIgD/CDISC/V1#IG-CDISC_SDTMIGAE_AEMODIFY> rdfs:label "Modified Reported Term"^^xsd:string . 
<http://www.assero.co.uk/MDRSdtmIgD/CDISC/V1#IG-CDISC_SDTMIGAE_AEMODIFY> bd:ordinal "9"^^xsd:positiveInteger . 
<http://www.assero.co.uk/MDRSdtmIgD/CDISC/V1#IG-CDISC_SDTMIGAE_AEMODIFY> bd:controlled_term_or_format ""^^xsd:string . 
<http://www.assero.co.uk/MDRSdtmIgD/CDISC/V1#IG-CDISC_SDTMIGAE_AEMODIFY> bd:notes "If AETERM is modified to facilitate coding, then AEMODIFY will contain the modified text."^^xsd:string . 
<http://www.assero.co.uk/MDRSdtmIgD/CDISC/V1#IG-CDISC_SDTMIGAE_AEMODIFY> bd:name "AEMODIFY"^^xsd:string . 
<http://www.assero.co.uk/MDRSdtmIgD/CDISC/V1#IG-CDISC_SDTMIGAE_AEMODIFY> bd:basedOnVariable <http://www.assero.co.uk/MDRSdtmIgD/CDISC/V1#IG-CDISC_SDTMIGAE_AEMODIFY_VR> . 
<http://www.assero.co.uk/MDRSdtmIgD/CDISC/V1#IG-CDISC_SDTMIGAE_AEMODIFY_VR> rdf:type bo:CReference . 
<http://www.assero.co.uk/MDRSdtmIgD/CDISC/V1#IG-CDISC_SDTMIGAE_AEMODIFY_VR> bo:hasColumn <http://www.assero.co.uk/MDRSdtmMd/CDISC/V1#M-CDISC_SDTMMODEL_EVENTS_xxMODIFY> . 
<http://www.assero.co.uk/MDRSdtmIgD/CDISC/V1#IG-CDISC_SDTMIGAE_AEMODIFY_VR> bo:enabled "true"^^xsd:boolean . 
<http://www.assero.co.uk/MDRSdtmIgD/CDISC/V1#IG-CDISC_SDTMIGAE_AEMODIFY_VR> bo:optional "false"^^xsd:boolean . 
<http://www.assero.co.uk/MDRSdtmIgD/CDISC/V1#IG-CDISC_SDTMIGAE_AEMODIFY_VR> bo:ordinal "1"^^xsd:positiveInteger . 
<http://www.assero.co.uk/MDRSdtmIgD/CDISC/V1#IG-CDISC_SDTMIGAE_AEMODIFY> bd:compliance <http://www.assero.co.uk/MDRSdtmIgD/CDISC/V1#IG-CDISC_SDTMIGAE_C_PERMISSIBLE> . 
<http://www.assero.co.uk/MDRSdtmIgD/CDISC/V1#IG-CDISC_SDTMIGAE> bd:includesColumn <http://www.assero.co.uk/MDRSdtmIgD/CDISC/V1#IG-CDISC_SDTMIGAE_AEMODIFY> . 
<http://www.assero.co.uk/MDRSdtmIgD/CDISC/V1#IG-CDISC_SDTMIGAE_AEDECOD> rdf:type bd:IgVariable . 
<http://www.assero.co.uk/MDRSdtmIgD/CDISC/V1#IG-CDISC_SDTMIGAE_AEDECOD> rdfs:label "Dictionary-Derived Term"^^xsd:string . 
<http://www.assero.co.uk/MDRSdtmIgD/CDISC/V1#IG-CDISC_SDTMIGAE_AEDECOD> bd:ordinal "10"^^xsd:positiveInteger . 
<http://www.assero.co.uk/MDRSdtmIgD/CDISC/V1#IG-CDISC_SDTMIGAE_AEDECOD> bd:controlled_term_or_format ""^^xsd:string . 
<http://www.assero.co.uk/MDRSdtmIgD/CDISC/V1#IG-CDISC_SDTMIGAE_AEDECOD> bd:notes "Dictionary-derived text description of AETERM or AEMODIFY. Equivalent to the Preferred Term (PT in MedDRA). The sponsor is expected to provide the dictionary name and version used to map the terms utilizing the define.xml external codelist attributes"^^xsd:string . 
<http://www.assero.co.uk/MDRSdtmIgD/CDISC/V1#IG-CDISC_SDTMIGAE_AEDECOD> bd:name "AEDECOD"^^xsd:string . 
<http://www.assero.co.uk/MDRSdtmIgD/CDISC/V1#IG-CDISC_SDTMIGAE_AEDECOD> bd:basedOnVariable <http://www.assero.co.uk/MDRSdtmIgD/CDISC/V1#IG-CDISC_SDTMIGAE_AEDECOD_VR> . 
<http://www.assero.co.uk/MDRSdtmIgD/CDISC/V1#IG-CDISC_SDTMIGAE_AEDECOD_VR> rdf:type bo:CReference . 
<http://www.assero.co.uk/MDRSdtmIgD/CDISC/V1#IG-CDISC_SDTMIGAE_AEDECOD_VR> bo:hasColumn <http://www.assero.co.uk/MDRSdtmMd/CDISC/V1#M-CDISC_SDTMMODEL_EVENTS_xxDECOD> . 
<http://www.assero.co.uk/MDRSdtmIgD/CDISC/V1#IG-CDISC_SDTMIGAE_AEDECOD_VR> bo:enabled "true"^^xsd:boolean . 
<http://www.assero.co.uk/MDRSdtmIgD/CDISC/V1#IG-CDISC_SDTMIGAE_AEDECOD_VR> bo:optional "false"^^xsd:boolean . 
<http://www.assero.co.uk/MDRSdtmIgD/CDISC/V1#IG-CDISC_SDTMIGAE_AEDECOD_VR> bo:ordinal "1"^^xsd:positiveInteger . 
<http://www.assero.co.uk/MDRSdtmIgD/CDISC/V1#IG-CDISC_SDTMIGAE_AEDECOD> bd:compliance <http://www.assero.co.uk/MDRSdtmIgD/CDISC/V1#IG-CDISC_SDTMIGAE_C_REQUIRED> . 
<http://www.assero.co.uk/MDRSdtmIgD/CDISC/V1#IG-CDISC_SDTMIGAE> bd:includesColumn <http://www.assero.co.uk/MDRSdtmIgD/CDISC/V1#IG-CDISC_SDTMIGAE_AEDECOD> . 
<http://www.assero.co.uk/MDRSdtmIgD/CDISC/V1#IG-CDISC_SDTMIGAE_AECAT> rdf:type bd:IgVariable . 
<http://www.assero.co.uk/MDRSdtmIgD/CDISC/V1#IG-CDISC_SDTMIGAE_AECAT> rdfs:label "Category for Adverse Event"^^xsd:string . 
<http://www.assero.co.uk/MDRSdtmIgD/CDISC/V1#IG-CDISC_SDTMIGAE_AECAT> bd:ordinal "11"^^xsd:positiveInteger . 
<http://www.assero.co.uk/MDRSdtmIgD/CDISC/V1#IG-CDISC_SDTMIGAE_AECAT> bd:controlled_term_or_format ""^^xsd:string . 
<http://www.assero.co.uk/MDRSdtmIgD/CDISC/V1#IG-CDISC_SDTMIGAE_AECAT> bd:notes "Used to define a category of related records. Example: BLEEDING, NEUROPSYCHIATRIC."^^xsd:string . 
<http://www.assero.co.uk/MDRSdtmIgD/CDISC/V1#IG-CDISC_SDTMIGAE_AECAT> bd:name "AECAT"^^xsd:string . 
<http://www.assero.co.uk/MDRSdtmIgD/CDISC/V1#IG-CDISC_SDTMIGAE_AECAT> bd:basedOnVariable <http://www.assero.co.uk/MDRSdtmIgD/CDISC/V1#IG-CDISC_SDTMIGAE_AECAT_VR> . 
<http://www.assero.co.uk/MDRSdtmIgD/CDISC/V1#IG-CDISC_SDTMIGAE_AECAT_VR> rdf:type bo:CReference . 
<http://www.assero.co.uk/MDRSdtmIgD/CDISC/V1#IG-CDISC_SDTMIGAE_AECAT_VR> bo:hasColumn <http://www.assero.co.uk/MDRSdtmMd/CDISC/V1#M-CDISC_SDTMMODEL_EVENTS_xxCAT> . 
<http://www.assero.co.uk/MDRSdtmIgD/CDISC/V1#IG-CDISC_SDTMIGAE_AECAT_VR> bo:enabled "true"^^xsd:boolean . 
<http://www.assero.co.uk/MDRSdtmIgD/CDISC/V1#IG-CDISC_SDTMIGAE_AECAT_VR> bo:optional "false"^^xsd:boolean . 
<http://www.assero.co.uk/MDRSdtmIgD/CDISC/V1#IG-CDISC_SDTMIGAE_AECAT_VR> bo:ordinal "1"^^xsd:positiveInteger . 
<http://www.assero.co.uk/MDRSdtmIgD/CDISC/V1#IG-CDISC_SDTMIGAE_AECAT> bd:compliance <http://www.assero.co.uk/MDRSdtmIgD/CDISC/V1#IG-CDISC_SDTMIGAE_C_PERMISSIBLE> . 
<http://www.assero.co.uk/MDRSdtmIgD/CDISC/V1#IG-CDISC_SDTMIGAE> bd:includesColumn <http://www.assero.co.uk/MDRSdtmIgD/CDISC/V1#IG-CDISC_SDTMIGAE_AECAT> . 
<http://www.assero.co.uk/MDRSdtmIgD/CDISC/V1#IG-CDISC_SDTMIGAE_AESCAT> rdf:type bd:IgVariable . 
<http://www.assero.co.uk/MDRSdtmIgD/CDISC/V1#IG-CDISC_SDTMIGAE_AESCAT> rdfs:label "Subcategory for Adverse Event"^^xsd:string . 
<http://www.assero.co.uk/MDRSdtmIgD/CDISC/V1#IG-CDISC_SDTMIGAE_AESCAT> bd:ordinal "12"^^xsd:positiveInteger . 
<http://www.assero.co.uk/MDRSdtmIgD/CDISC/V1#IG-CDISC_SDTMIGAE_AESCAT> bd:controlled_term_or_format ""^^xsd:string . 
<http://www.assero.co.uk/MDRSdtmIgD/CDISC/V1#IG-CDISC_SDTMIGAE_AESCAT> bd:notes "A further categorization of adverse event. Example: NEUROLOGIC."^^xsd:string . 
<http://www.assero.co.uk/MDRSdtmIgD/CDISC/V1#IG-CDISC_SDTMIGAE_AESCAT> bd:name "AESCAT"^^xsd:string . 
<http://www.assero.co.uk/MDRSdtmIgD/CDISC/V1#IG-CDISC_SDTMIGAE_AESCAT> bd:basedOnVariable <http://www.assero.co.uk/MDRSdtmIgD/CDISC/V1#IG-CDISC_SDTMIGAE_AESCAT_VR> . 
<http://www.assero.co.uk/MDRSdtmIgD/CDISC/V1#IG-CDISC_SDTMIGAE_AESCAT_VR> rdf:type bo:CReference . 
<http://www.assero.co.uk/MDRSdtmIgD/CDISC/V1#IG-CDISC_SDTMIGAE_AESCAT_VR> bo:hasColumn <http://www.assero.co.uk/MDRSdtmMd/CDISC/V1#M-CDISC_SDTMMODEL_EVENTS_xxSCAT> . 
<http://www.assero.co.uk/MDRSdtmIgD/CDISC/V1#IG-CDISC_SDTMIGAE_AESCAT_VR> bo:enabled "true"^^xsd:boolean . 
<http://www.assero.co.uk/MDRSdtmIgD/CDISC/V1#IG-CDISC_SDTMIGAE_AESCAT_VR> bo:optional "false"^^xsd:boolean . 
<http://www.assero.co.uk/MDRSdtmIgD/CDISC/V1#IG-CDISC_SDTMIGAE_AESCAT_VR> bo:ordinal "1"^^xsd:positiveInteger . 
<http://www.assero.co.uk/MDRSdtmIgD/CDISC/V1#IG-CDISC_SDTMIGAE_AESCAT> bd:compliance <http://www.assero.co.uk/MDRSdtmIgD/CDISC/V1#IG-CDISC_SDTMIGAE_C_PERMISSIBLE> . 
<http://www.assero.co.uk/MDRSdtmIgD/CDISC/V1#IG-CDISC_SDTMIGAE> bd:includesColumn <http://www.assero.co.uk/MDRSdtmIgD/CDISC/V1#IG-CDISC_SDTMIGAE_AESCAT> . 
<http://www.assero.co.uk/MDRSdtmIgD/CDISC/V1#IG-CDISC_SDTMIGAE_AEPRESP> rdf:type bd:IgVariable . 
<http://www.assero.co.uk/MDRSdtmIgD/CDISC/V1#IG-CDISC_SDTMIGAE_AEPRESP> rdfs:label "Pre-Specified Adverse Event"^^xsd:string . 
<http://www.assero.co.uk/MDRSdtmIgD/CDISC/V1#IG-CDISC_SDTMIGAE_AEPRESP> bd:ordinal "13"^^xsd:positiveInteger . 
<http://www.assero.co.uk/MDRSdtmIgD/CDISC/V1#IG-CDISC_SDTMIGAE_AEPRESP> bd:controlled_term_or_format "(NY)"^^xsd:string . 
<http://www.assero.co.uk/MDRSdtmIgD/CDISC/V1#IG-CDISC_SDTMIGAE_AEPRESP> bd:notes "A value of 'Y' indicates that this adverse event was pre-specified on the CRF. Values are null for spontaneously reported events (i.e., those collected as free-text verbatim terms)"^^xsd:string . 
<http://www.assero.co.uk/MDRSdtmIgD/CDISC/V1#IG-CDISC_SDTMIGAE_AEPRESP> bd:name "AEPRESP"^^xsd:string . 
<http://www.assero.co.uk/MDRSdtmIgD/CDISC/V1#IG-CDISC_SDTMIGAE_AEPRESP> bd:basedOnVariable <http://www.assero.co.uk/MDRSdtmIgD/CDISC/V1#IG-CDISC_SDTMIGAE_AEPRESP_VR> . 
<http://www.assero.co.uk/MDRSdtmIgD/CDISC/V1#IG-CDISC_SDTMIGAE_AEPRESP_VR> rdf:type bo:CReference . 
<http://www.assero.co.uk/MDRSdtmIgD/CDISC/V1#IG-CDISC_SDTMIGAE_AEPRESP_VR> bo:hasColumn <http://www.assero.co.uk/MDRSdtmMd/CDISC/V1#M-CDISC_SDTMMODEL_EVENTS_xxPRESP> . 
<http://www.assero.co.uk/MDRSdtmIgD/CDISC/V1#IG-CDISC_SDTMIGAE_AEPRESP_VR> bo:enabled "true"^^xsd:boolean . 
<http://www.assero.co.uk/MDRSdtmIgD/CDISC/V1#IG-CDISC_SDTMIGAE_AEPRESP_VR> bo:optional "false"^^xsd:boolean . 
<http://www.assero.co.uk/MDRSdtmIgD/CDISC/V1#IG-CDISC_SDTMIGAE_AEPRESP_VR> bo:ordinal "1"^^xsd:positiveInteger . 
<http://www.assero.co.uk/MDRSdtmIgD/CDISC/V1#IG-CDISC_SDTMIGAE_AEPRESP> bd:compliance <http://www.assero.co.uk/MDRSdtmIgD/CDISC/V1#IG-CDISC_SDTMIGAE_C_PERMISSIBLE> . 
<http://www.assero.co.uk/MDRSdtmIgD/CDISC/V1#IG-CDISC_SDTMIGAE> bd:includesColumn <http://www.assero.co.uk/MDRSdtmIgD/CDISC/V1#IG-CDISC_SDTMIGAE_AEPRESP> . 
<http://www.assero.co.uk/MDRSdtmIgD/CDISC/V1#IG-CDISC_SDTMIGAE_AEBODSYS> rdf:type bd:IgVariable . 
<http://www.assero.co.uk/MDRSdtmIgD/CDISC/V1#IG-CDISC_SDTMIGAE_AEBODSYS> rdfs:label "Body System or Organ Class"^^xsd:string . 
<http://www.assero.co.uk/MDRSdtmIgD/CDISC/V1#IG-CDISC_SDTMIGAE_AEBODSYS> bd:ordinal "14"^^xsd:positiveInteger . 
<http://www.assero.co.uk/MDRSdtmIgD/CDISC/V1#IG-CDISC_SDTMIGAE_AEBODSYS> bd:controlled_term_or_format ""^^xsd:string . 
<http://www.assero.co.uk/MDRSdtmIgD/CDISC/V1#IG-CDISC_SDTMIGAE_AEBODSYS> bd:notes "Dictionary derived. Body system or organ class used by the sponsor from the coding dictionary (e.g., MedDRA). When using a multi-axial dictionary such as MedDRA, this should contain the SOC used for the sponsor's analyses and summary tables which may not necessarily be the primary SOC."^^xsd:string . 
<http://www.assero.co.uk/MDRSdtmIgD/CDISC/V1#IG-CDISC_SDTMIGAE_AEBODSYS> bd:name "AEBODSYS"^^xsd:string . 
<http://www.assero.co.uk/MDRSdtmIgD/CDISC/V1#IG-CDISC_SDTMIGAE_AEBODSYS> bd:basedOnVariable <http://www.assero.co.uk/MDRSdtmIgD/CDISC/V1#IG-CDISC_SDTMIGAE_AEBODSYS_VR> . 
<http://www.assero.co.uk/MDRSdtmIgD/CDISC/V1#IG-CDISC_SDTMIGAE_AEBODSYS_VR> rdf:type bo:CReference . 
<http://www.assero.co.uk/MDRSdtmIgD/CDISC/V1#IG-CDISC_SDTMIGAE_AEBODSYS_VR> bo:hasColumn <http://www.assero.co.uk/MDRSdtmMd/CDISC/V1#M-CDISC_SDTMMODEL_EVENTS_xxBODSYS> . 
<http://www.assero.co.uk/MDRSdtmIgD/CDISC/V1#IG-CDISC_SDTMIGAE_AEBODSYS_VR> bo:enabled "true"^^xsd:boolean . 
<http://www.assero.co.uk/MDRSdtmIgD/CDISC/V1#IG-CDISC_SDTMIGAE_AEBODSYS_VR> bo:optional "false"^^xsd:boolean . 
<http://www.assero.co.uk/MDRSdtmIgD/CDISC/V1#IG-CDISC_SDTMIGAE_AEBODSYS_VR> bo:ordinal "1"^^xsd:positiveInteger . 
<http://www.assero.co.uk/MDRSdtmIgD/CDISC/V1#IG-CDISC_SDTMIGAE_AEBODSYS> bd:compliance <http://www.assero.co.uk/MDRSdtmIgD/CDISC/V1#IG-CDISC_SDTMIGAE_C_EXPECTED> . 
<http://www.assero.co.uk/MDRSdtmIgD/CDISC/V1#IG-CDISC_SDTMIGAE> bd:includesColumn <http://www.assero.co.uk/MDRSdtmIgD/CDISC/V1#IG-CDISC_SDTMIGAE_AEBODSYS> . 
<http://www.assero.co.uk/MDRSdtmIgD/CDISC/V1#IG-CDISC_SDTMIGAE_AELOC> rdf:type bd:IgVariable . 
<http://www.assero.co.uk/MDRSdtmIgD/CDISC/V1#IG-CDISC_SDTMIGAE_AELOC> rdfs:label "Location of Event"^^xsd:string . 
<http://www.assero.co.uk/MDRSdtmIgD/CDISC/V1#IG-CDISC_SDTMIGAE_AELOC> bd:ordinal "15"^^xsd:positiveInteger . 
<http://www.assero.co.uk/MDRSdtmIgD/CDISC/V1#IG-CDISC_SDTMIGAE_AELOC> bd:controlled_term_or_format "(LOC)"^^xsd:string . 
<http://www.assero.co.uk/MDRSdtmIgD/CDISC/V1#IG-CDISC_SDTMIGAE_AELOC> bd:notes "Describes anatomical location relevant for the event (e.g., LEFT ARM for skin rash)."^^xsd:string . 
<http://www.assero.co.uk/MDRSdtmIgD/CDISC/V1#IG-CDISC_SDTMIGAE_AELOC> bd:name "AELOC"^^xsd:string . 
<http://www.assero.co.uk/MDRSdtmIgD/CDISC/V1#IG-CDISC_SDTMIGAE_AELOC> bd:basedOnVariable <http://www.assero.co.uk/MDRSdtmIgD/CDISC/V1#IG-CDISC_SDTMIGAE_AELOC_VR> . 
<http://www.assero.co.uk/MDRSdtmIgD/CDISC/V1#IG-CDISC_SDTMIGAE_AELOC_VR> rdf:type bo:CReference . 
<http://www.assero.co.uk/MDRSdtmIgD/CDISC/V1#IG-CDISC_SDTMIGAE_AELOC_VR> bo:hasColumn <http://www.assero.co.uk/MDRSdtmMd/CDISC/V1#M-CDISC_SDTMMODEL_EVENTS_xxLOC> . 
<http://www.assero.co.uk/MDRSdtmIgD/CDISC/V1#IG-CDISC_SDTMIGAE_AELOC_VR> bo:enabled "true"^^xsd:boolean . 
<http://www.assero.co.uk/MDRSdtmIgD/CDISC/V1#IG-CDISC_SDTMIGAE_AELOC_VR> bo:optional "false"^^xsd:boolean . 
<http://www.assero.co.uk/MDRSdtmIgD/CDISC/V1#IG-CDISC_SDTMIGAE_AELOC_VR> bo:ordinal "1"^^xsd:positiveInteger . 
<http://www.assero.co.uk/MDRSdtmIgD/CDISC/V1#IG-CDISC_SDTMIGAE_AELOC> bd:compliance <http://www.assero.co.uk/MDRSdtmIgD/CDISC/V1#IG-CDISC_SDTMIGAE_C_PERMISSIBLE> . 
<http://www.assero.co.uk/MDRSdtmIgD/CDISC/V1#IG-CDISC_SDTMIGAE> bd:includesColumn <http://www.assero.co.uk/MDRSdtmIgD/CDISC/V1#IG-CDISC_SDTMIGAE_AELOC> . 
<http://www.assero.co.uk/MDRSdtmIgD/CDISC/V1#IG-CDISC_SDTMIGAE_AESEV> rdf:type bd:IgVariable . 
<http://www.assero.co.uk/MDRSdtmIgD/CDISC/V1#IG-CDISC_SDTMIGAE_AESEV> rdfs:label "Severity/Intensity"^^xsd:string . 
<http://www.assero.co.uk/MDRSdtmIgD/CDISC/V1#IG-CDISC_SDTMIGAE_AESEV> bd:ordinal "16"^^xsd:positiveInteger . 
<http://www.assero.co.uk/MDRSdtmIgD/CDISC/V1#IG-CDISC_SDTMIGAE_AESEV> bd:controlled_term_or_format "(AESEV)"^^xsd:string . 
<http://www.assero.co.uk/MDRSdtmIgD/CDISC/V1#IG-CDISC_SDTMIGAE_AESEV> bd:notes "The severity or intensity of the event. Examples: MILD, MODERATE, SEVERE."^^xsd:string . 
<http://www.assero.co.uk/MDRSdtmIgD/CDISC/V1#IG-CDISC_SDTMIGAE_AESEV> bd:name "AESEV"^^xsd:string . 
<http://www.assero.co.uk/MDRSdtmIgD/CDISC/V1#IG-CDISC_SDTMIGAE_AESEV> bd:basedOnVariable <http://www.assero.co.uk/MDRSdtmIgD/CDISC/V1#IG-CDISC_SDTMIGAE_AESEV_VR> . 
<http://www.assero.co.uk/MDRSdtmIgD/CDISC/V1#IG-CDISC_SDTMIGAE_AESEV_VR> rdf:type bo:CReference . 
<http://www.assero.co.uk/MDRSdtmIgD/CDISC/V1#IG-CDISC_SDTMIGAE_AESEV_VR> bo:hasColumn <http://www.assero.co.uk/MDRSdtmMd/CDISC/V1#M-CDISC_SDTMMODEL_EVENTS_xxSEV> . 
<http://www.assero.co.uk/MDRSdtmIgD/CDISC/V1#IG-CDISC_SDTMIGAE_AESEV_VR> bo:enabled "true"^^xsd:boolean . 
<http://www.assero.co.uk/MDRSdtmIgD/CDISC/V1#IG-CDISC_SDTMIGAE_AESEV_VR> bo:optional "false"^^xsd:boolean . 
<http://www.assero.co.uk/MDRSdtmIgD/CDISC/V1#IG-CDISC_SDTMIGAE_AESEV_VR> bo:ordinal "1"^^xsd:positiveInteger . 
<http://www.assero.co.uk/MDRSdtmIgD/CDISC/V1#IG-CDISC_SDTMIGAE_AESEV> bd:compliance <http://www.assero.co.uk/MDRSdtmIgD/CDISC/V1#IG-CDISC_SDTMIGAE_C_PERMISSIBLE> . 
<http://www.assero.co.uk/MDRSdtmIgD/CDISC/V1#IG-CDISC_SDTMIGAE> bd:includesColumn <http://www.assero.co.uk/MDRSdtmIgD/CDISC/V1#IG-CDISC_SDTMIGAE_AESEV> . 
<http://www.assero.co.uk/MDRSdtmIgD/CDISC/V1#IG-CDISC_SDTMIGAE_AESER> rdf:type bd:IgVariable . 
<http://www.assero.co.uk/MDRSdtmIgD/CDISC/V1#IG-CDISC_SDTMIGAE_AESER> rdfs:label "Serious Event"^^xsd:string . 
<http://www.assero.co.uk/MDRSdtmIgD/CDISC/V1#IG-CDISC_SDTMIGAE_AESER> bd:ordinal "17"^^xsd:positiveInteger . 
<http://www.assero.co.uk/MDRSdtmIgD/CDISC/V1#IG-CDISC_SDTMIGAE_AESER> bd:controlled_term_or_format "(NY)"^^xsd:string . 
<http://www.assero.co.uk/MDRSdtmIgD/CDISC/V1#IG-CDISC_SDTMIGAE_AESER> bd:notes "Is this a serious event?"^^xsd:string . 
<http://www.assero.co.uk/MDRSdtmIgD/CDISC/V1#IG-CDISC_SDTMIGAE_AESER> bd:name "AESER"^^xsd:string . 
<http://www.assero.co.uk/MDRSdtmIgD/CDISC/V1#IG-CDISC_SDTMIGAE_AESER> bd:basedOnVariable <http://www.assero.co.uk/MDRSdtmIgD/CDISC/V1#IG-CDISC_SDTMIGAE_AESER_VR> . 
<http://www.assero.co.uk/MDRSdtmIgD/CDISC/V1#IG-CDISC_SDTMIGAE_AESER_VR> rdf:type bo:CReference . 
<http://www.assero.co.uk/MDRSdtmIgD/CDISC/V1#IG-CDISC_SDTMIGAE_AESER_VR> bo:hasColumn <http://www.assero.co.uk/MDRSdtmMd/CDISC/V1#M-CDISC_SDTMMODEL_EVENTS_xxSER> . 
<http://www.assero.co.uk/MDRSdtmIgD/CDISC/V1#IG-CDISC_SDTMIGAE_AESER_VR> bo:enabled "true"^^xsd:boolean . 
<http://www.assero.co.uk/MDRSdtmIgD/CDISC/V1#IG-CDISC_SDTMIGAE_AESER_VR> bo:optional "false"^^xsd:boolean . 
<http://www.assero.co.uk/MDRSdtmIgD/CDISC/V1#IG-CDISC_SDTMIGAE_AESER_VR> bo:ordinal "1"^^xsd:positiveInteger . 
<http://www.assero.co.uk/MDRSdtmIgD/CDISC/V1#IG-CDISC_SDTMIGAE_AESER> bd:compliance <http://www.assero.co.uk/MDRSdtmIgD/CDISC/V1#IG-CDISC_SDTMIGAE_C_EXPECTED> . 
<http://www.assero.co.uk/MDRSdtmIgD/CDISC/V1#IG-CDISC_SDTMIGAE> bd:includesColumn <http://www.assero.co.uk/MDRSdtmIgD/CDISC/V1#IG-CDISC_SDTMIGAE_AESER> . 
<http://www.assero.co.uk/MDRSdtmIgD/CDISC/V1#IG-CDISC_SDTMIGAE_AEACN> rdf:type bd:IgVariable . 
<http://www.assero.co.uk/MDRSdtmIgD/CDISC/V1#IG-CDISC_SDTMIGAE_AEACN> rdfs:label "Action Taken with Study Treatment"^^xsd:string . 
<http://www.assero.co.uk/MDRSdtmIgD/CDISC/V1#IG-CDISC_SDTMIGAE_AEACN> bd:ordinal "18"^^xsd:positiveInteger . 
<http://www.assero.co.uk/MDRSdtmIgD/CDISC/V1#IG-CDISC_SDTMIGAE_AEACN> bd:controlled_term_or_format "(ACN)"^^xsd:string . 
<http://www.assero.co.uk/MDRSdtmIgD/CDISC/V1#IG-CDISC_SDTMIGAE_AEACN> bd:notes "Describes changes to the study treatment as a result of the event. AEACN is specifically for the relationship to study treatment. AEACNOTH is for actions unrelated to dose adjustments of study treatment. Examples of AEACN values include ICH E2B values: DRUG WITHDRAWN, DOSE REDUCED, DOSE INCREASED, DOSE NOT CHANGED, UNKNOWN or NOT APPLICABLE"^^xsd:string . 
<http://www.assero.co.uk/MDRSdtmIgD/CDISC/V1#IG-CDISC_SDTMIGAE_AEACN> bd:name "AEACN"^^xsd:string . 
<http://www.assero.co.uk/MDRSdtmIgD/CDISC/V1#IG-CDISC_SDTMIGAE_AEACN> bd:basedOnVariable <http://www.assero.co.uk/MDRSdtmIgD/CDISC/V1#IG-CDISC_SDTMIGAE_AEACN_VR> . 
<http://www.assero.co.uk/MDRSdtmIgD/CDISC/V1#IG-CDISC_SDTMIGAE_AEACN_VR> rdf:type bo:CReference . 
<http://www.assero.co.uk/MDRSdtmIgD/CDISC/V1#IG-CDISC_SDTMIGAE_AEACN_VR> bo:hasColumn <http://www.assero.co.uk/MDRSdtmMd/CDISC/V1#M-CDISC_SDTMMODEL_EVENTS_xxACN> . 
<http://www.assero.co.uk/MDRSdtmIgD/CDISC/V1#IG-CDISC_SDTMIGAE_AEACN_VR> bo:enabled "true"^^xsd:boolean . 
<http://www.assero.co.uk/MDRSdtmIgD/CDISC/V1#IG-CDISC_SDTMIGAE_AEACN_VR> bo:optional "false"^^xsd:boolean . 
<http://www.assero.co.uk/MDRSdtmIgD/CDISC/V1#IG-CDISC_SDTMIGAE_AEACN_VR> bo:ordinal "1"^^xsd:positiveInteger . 
<http://www.assero.co.uk/MDRSdtmIgD/CDISC/V1#IG-CDISC_SDTMIGAE_AEACN> bd:compliance <http://www.assero.co.uk/MDRSdtmIgD/CDISC/V1#IG-CDISC_SDTMIGAE_C_EXPECTED> . 
<http://www.assero.co.uk/MDRSdtmIgD/CDISC/V1#IG-CDISC_SDTMIGAE> bd:includesColumn <http://www.assero.co.uk/MDRSdtmIgD/CDISC/V1#IG-CDISC_SDTMIGAE_AEACN> . 
<http://www.assero.co.uk/MDRSdtmIgD/CDISC/V1#IG-CDISC_SDTMIGAE_AEACNOTH> rdf:type bd:IgVariable . 
<http://www.assero.co.uk/MDRSdtmIgD/CDISC/V1#IG-CDISC_SDTMIGAE_AEACNOTH> rdfs:label "Other Action Taken"^^xsd:string . 
<http://www.assero.co.uk/MDRSdtmIgD/CDISC/V1#IG-CDISC_SDTMIGAE_AEACNOTH> bd:ordinal "19"^^xsd:positiveInteger . 
<http://www.assero.co.uk/MDRSdtmIgD/CDISC/V1#IG-CDISC_SDTMIGAE_AEACNOTH> bd:controlled_term_or_format ""^^xsd:string . 
<http://www.assero.co.uk/MDRSdtmIgD/CDISC/V1#IG-CDISC_SDTMIGAE_AEACNOTH> bd:notes "Describes other actions taken as a result of the event that are unrelated to dose adjustments of study treatment. Usually reported as free text. Example: 'TREATMENT UNBLINDED. PRIMARY CARE PHYSICIAN NOTIFIED.'"^^xsd:string . 
<http://www.assero.co.uk/MDRSdtmIgD/CDISC/V1#IG-CDISC_SDTMIGAE_AEACNOTH> bd:name "AEACNOTH"^^xsd:string . 
<http://www.assero.co.uk/MDRSdtmIgD/CDISC/V1#IG-CDISC_SDTMIGAE_AEACNOTH> bd:basedOnVariable <http://www.assero.co.uk/MDRSdtmIgD/CDISC/V1#IG-CDISC_SDTMIGAE_AEACNOTH_VR> . 
<http://www.assero.co.uk/MDRSdtmIgD/CDISC/V1#IG-CDISC_SDTMIGAE_AEACNOTH_VR> rdf:type bo:CReference . 
<http://www.assero.co.uk/MDRSdtmIgD/CDISC/V1#IG-CDISC_SDTMIGAE_AEACNOTH_VR> bo:hasColumn <http://www.assero.co.uk/MDRSdtmMd/CDISC/V1#M-CDISC_SDTMMODEL_EVENTS_xxACNOTH> . 
<http://www.assero.co.uk/MDRSdtmIgD/CDISC/V1#IG-CDISC_SDTMIGAE_AEACNOTH_VR> bo:enabled "true"^^xsd:boolean . 
<http://www.assero.co.uk/MDRSdtmIgD/CDISC/V1#IG-CDISC_SDTMIGAE_AEACNOTH_VR> bo:optional "false"^^xsd:boolean . 
<http://www.assero.co.uk/MDRSdtmIgD/CDISC/V1#IG-CDISC_SDTMIGAE_AEACNOTH_VR> bo:ordinal "1"^^xsd:positiveInteger . 
<http://www.assero.co.uk/MDRSdtmIgD/CDISC/V1#IG-CDISC_SDTMIGAE_AEACNOTH> bd:compliance <http://www.assero.co.uk/MDRSdtmIgD/CDISC/V1#IG-CDISC_SDTMIGAE_C_PERMISSIBLE> . 
<http://www.assero.co.uk/MDRSdtmIgD/CDISC/V1#IG-CDISC_SDTMIGAE> bd:includesColumn <http://www.assero.co.uk/MDRSdtmIgD/CDISC/V1#IG-CDISC_SDTMIGAE_AEACNOTH> . 
<http://www.assero.co.uk/MDRSdtmIgD/CDISC/V1#IG-CDISC_SDTMIGAE_AEREL> rdf:type bd:IgVariable . 
<http://www.assero.co.uk/MDRSdtmIgD/CDISC/V1#IG-CDISC_SDTMIGAE_AEREL> rdfs:label "Causality"^^xsd:string . 
<http://www.assero.co.uk/MDRSdtmIgD/CDISC/V1#IG-CDISC_SDTMIGAE_AEREL> bd:ordinal "20"^^xsd:positiveInteger . 
<http://www.assero.co.uk/MDRSdtmIgD/CDISC/V1#IG-CDISC_SDTMIGAE_AEREL> bd:controlled_term_or_format ""^^xsd:string . 
<http://www.assero.co.uk/MDRSdtmIgD/CDISC/V1#IG-CDISC_SDTMIGAE_AEREL> bd:notes "Records the investigator's opinion as to the causality of the event to the treatment. ICH E2A and E2B examples include NOT RELATED, UNLIKELY RELATED, POSSIBLY RELATED, RELATED. Controlled Terminology may be defined in the future. Check with regulatory authority for population of this variable"^^xsd:string . 
<http://www.assero.co.uk/MDRSdtmIgD/CDISC/V1#IG-CDISC_SDTMIGAE_AEREL> bd:name "AEREL"^^xsd:string . 
<http://www.assero.co.uk/MDRSdtmIgD/CDISC/V1#IG-CDISC_SDTMIGAE_AEREL> bd:basedOnVariable <http://www.assero.co.uk/MDRSdtmIgD/CDISC/V1#IG-CDISC_SDTMIGAE_AEREL_VR> . 
<http://www.assero.co.uk/MDRSdtmIgD/CDISC/V1#IG-CDISC_SDTMIGAE_AEREL_VR> rdf:type bo:CReference . 
<http://www.assero.co.uk/MDRSdtmIgD/CDISC/V1#IG-CDISC_SDTMIGAE_AEREL_VR> bo:hasColumn <http://www.assero.co.uk/MDRSdtmMd/CDISC/V1#M-CDISC_SDTMMODEL_EVENTS_xxREL> . 
<http://www.assero.co.uk/MDRSdtmIgD/CDISC/V1#IG-CDISC_SDTMIGAE_AEREL_VR> bo:enabled "true"^^xsd:boolean . 
<http://www.assero.co.uk/MDRSdtmIgD/CDISC/V1#IG-CDISC_SDTMIGAE_AEREL_VR> bo:optional "false"^^xsd:boolean . 
<http://www.assero.co.uk/MDRSdtmIgD/CDISC/V1#IG-CDISC_SDTMIGAE_AEREL_VR> bo:ordinal "1"^^xsd:positiveInteger . 
<http://www.assero.co.uk/MDRSdtmIgD/CDISC/V1#IG-CDISC_SDTMIGAE_AEREL> bd:compliance <http://www.assero.co.uk/MDRSdtmIgD/CDISC/V1#IG-CDISC_SDTMIGAE_C_EXPECTED> . 
<http://www.assero.co.uk/MDRSdtmIgD/CDISC/V1#IG-CDISC_SDTMIGAE> bd:includesColumn <http://www.assero.co.uk/MDRSdtmIgD/CDISC/V1#IG-CDISC_SDTMIGAE_AEREL> . 
<http://www.assero.co.uk/MDRSdtmIgD/CDISC/V1#IG-CDISC_SDTMIGAE_AERELNST> rdf:type bd:IgVariable . 
<http://www.assero.co.uk/MDRSdtmIgD/CDISC/V1#IG-CDISC_SDTMIGAE_AERELNST> rdfs:label "Relationship to Non-Study Treatment"^^xsd:string . 
<http://www.assero.co.uk/MDRSdtmIgD/CDISC/V1#IG-CDISC_SDTMIGAE_AERELNST> bd:ordinal "21"^^xsd:positiveInteger . 
<http://www.assero.co.uk/MDRSdtmIgD/CDISC/V1#IG-CDISC_SDTMIGAE_AERELNST> bd:controlled_term_or_format ""^^xsd:string . 
<http://www.assero.co.uk/MDRSdtmIgD/CDISC/V1#IG-CDISC_SDTMIGAE_AERELNST> bd:notes "Records the investigator's opinion as to whether the event may have been due to a treatment other than study drug. May be reported as free text. Example: 'MORE LIKELY RELATED TO ASPIRIN USE.'."^^xsd:string . 
<http://www.assero.co.uk/MDRSdtmIgD/CDISC/V1#IG-CDISC_SDTMIGAE_AERELNST> bd:name "AERELNST"^^xsd:string . 
<http://www.assero.co.uk/MDRSdtmIgD/CDISC/V1#IG-CDISC_SDTMIGAE_AERELNST> bd:basedOnVariable <http://www.assero.co.uk/MDRSdtmIgD/CDISC/V1#IG-CDISC_SDTMIGAE_AERELNST_VR> . 
<http://www.assero.co.uk/MDRSdtmIgD/CDISC/V1#IG-CDISC_SDTMIGAE_AERELNST_VR> rdf:type bo:CReference . 
<http://www.assero.co.uk/MDRSdtmIgD/CDISC/V1#IG-CDISC_SDTMIGAE_AERELNST_VR> bo:hasColumn <http://www.assero.co.uk/MDRSdtmMd/CDISC/V1#M-CDISC_SDTMMODEL_EVENTS_xxRELNST> . 
<http://www.assero.co.uk/MDRSdtmIgD/CDISC/V1#IG-CDISC_SDTMIGAE_AERELNST_VR> bo:enabled "true"^^xsd:boolean . 
<http://www.assero.co.uk/MDRSdtmIgD/CDISC/V1#IG-CDISC_SDTMIGAE_AERELNST_VR> bo:optional "false"^^xsd:boolean . 
<http://www.assero.co.uk/MDRSdtmIgD/CDISC/V1#IG-CDISC_SDTMIGAE_AERELNST_VR> bo:ordinal "1"^^xsd:positiveInteger . 
<http://www.assero.co.uk/MDRSdtmIgD/CDISC/V1#IG-CDISC_SDTMIGAE_AERELNST> bd:compliance <http://www.assero.co.uk/MDRSdtmIgD/CDISC/V1#IG-CDISC_SDTMIGAE_C_PERMISSIBLE> . 
<http://www.assero.co.uk/MDRSdtmIgD/CDISC/V1#IG-CDISC_SDTMIGAE> bd:includesColumn <http://www.assero.co.uk/MDRSdtmIgD/CDISC/V1#IG-CDISC_SDTMIGAE_AERELNST> . 
<http://www.assero.co.uk/MDRSdtmIgD/CDISC/V1#IG-CDISC_SDTMIGAE_AEPATT> rdf:type bd:IgVariable . 
<http://www.assero.co.uk/MDRSdtmIgD/CDISC/V1#IG-CDISC_SDTMIGAE_AEPATT> rdfs:label "Pattern of Adverse Event"^^xsd:string . 
<http://www.assero.co.uk/MDRSdtmIgD/CDISC/V1#IG-CDISC_SDTMIGAE_AEPATT> bd:ordinal "22"^^xsd:positiveInteger . 
<http://www.assero.co.uk/MDRSdtmIgD/CDISC/V1#IG-CDISC_SDTMIGAE_AEPATT> bd:controlled_term_or_format ""^^xsd:string . 
<http://www.assero.co.uk/MDRSdtmIgD/CDISC/V1#IG-CDISC_SDTMIGAE_AEPATT> bd:notes "Used to indicate the pattern of the event over time. Examples: INTERMITTENT, CONTINUOUS, SINGLE EVENT."^^xsd:string . 
<http://www.assero.co.uk/MDRSdtmIgD/CDISC/V1#IG-CDISC_SDTMIGAE_AEPATT> bd:name "AEPATT"^^xsd:string . 
<http://www.assero.co.uk/MDRSdtmIgD/CDISC/V1#IG-CDISC_SDTMIGAE_AEPATT> bd:basedOnVariable <http://www.assero.co.uk/MDRSdtmIgD/CDISC/V1#IG-CDISC_SDTMIGAE_AEPATT_VR> . 
<http://www.assero.co.uk/MDRSdtmIgD/CDISC/V1#IG-CDISC_SDTMIGAE_AEPATT_VR> rdf:type bo:CReference . 
<http://www.assero.co.uk/MDRSdtmIgD/CDISC/V1#IG-CDISC_SDTMIGAE_AEPATT_VR> bo:hasColumn <http://www.assero.co.uk/MDRSdtmMd/CDISC/V1#M-CDISC_SDTMMODEL_EVENTS_xxPATT> . 
<http://www.assero.co.uk/MDRSdtmIgD/CDISC/V1#IG-CDISC_SDTMIGAE_AEPATT_VR> bo:enabled "true"^^xsd:boolean . 
<http://www.assero.co.uk/MDRSdtmIgD/CDISC/V1#IG-CDISC_SDTMIGAE_AEPATT_VR> bo:optional "false"^^xsd:boolean . 
<http://www.assero.co.uk/MDRSdtmIgD/CDISC/V1#IG-CDISC_SDTMIGAE_AEPATT_VR> bo:ordinal "1"^^xsd:positiveInteger . 
<http://www.assero.co.uk/MDRSdtmIgD/CDISC/V1#IG-CDISC_SDTMIGAE_AEPATT> bd:compliance <http://www.assero.co.uk/MDRSdtmIgD/CDISC/V1#IG-CDISC_SDTMIGAE_C_PERMISSIBLE> . 
<http://www.assero.co.uk/MDRSdtmIgD/CDISC/V1#IG-CDISC_SDTMIGAE> bd:includesColumn <http://www.assero.co.uk/MDRSdtmIgD/CDISC/V1#IG-CDISC_SDTMIGAE_AEPATT> . 
<http://www.assero.co.uk/MDRSdtmIgD/CDISC/V1#IG-CDISC_SDTMIGAE_AEOUT> rdf:type bd:IgVariable . 
<http://www.assero.co.uk/MDRSdtmIgD/CDISC/V1#IG-CDISC_SDTMIGAE_AEOUT> rdfs:label "Outcome of Adverse Event"^^xsd:string . 
<http://www.assero.co.uk/MDRSdtmIgD/CDISC/V1#IG-CDISC_SDTMIGAE_AEOUT> bd:ordinal "23"^^xsd:positiveInteger . 
<http://www.assero.co.uk/MDRSdtmIgD/CDISC/V1#IG-CDISC_SDTMIGAE_AEOUT> bd:controlled_term_or_format "(OUT)"^^xsd:string . 
<http://www.assero.co.uk/MDRSdtmIgD/CDISC/V1#IG-CDISC_SDTMIGAE_AEOUT> bd:notes "Description of the outcome of an event."^^xsd:string . 
<http://www.assero.co.uk/MDRSdtmIgD/CDISC/V1#IG-CDISC_SDTMIGAE_AEOUT> bd:name "AEOUT"^^xsd:string . 
<http://www.assero.co.uk/MDRSdtmIgD/CDISC/V1#IG-CDISC_SDTMIGAE_AEOUT> bd:basedOnVariable <http://www.assero.co.uk/MDRSdtmIgD/CDISC/V1#IG-CDISC_SDTMIGAE_AEOUT_VR> . 
<http://www.assero.co.uk/MDRSdtmIgD/CDISC/V1#IG-CDISC_SDTMIGAE_AEOUT_VR> rdf:type bo:CReference . 
<http://www.assero.co.uk/MDRSdtmIgD/CDISC/V1#IG-CDISC_SDTMIGAE_AEOUT_VR> bo:hasColumn <http://www.assero.co.uk/MDRSdtmMd/CDISC/V1#M-CDISC_SDTMMODEL_EVENTS_xxOUT> . 
<http://www.assero.co.uk/MDRSdtmIgD/CDISC/V1#IG-CDISC_SDTMIGAE_AEOUT_VR> bo:enabled "true"^^xsd:boolean . 
<http://www.assero.co.uk/MDRSdtmIgD/CDISC/V1#IG-CDISC_SDTMIGAE_AEOUT_VR> bo:optional "false"^^xsd:boolean . 
<http://www.assero.co.uk/MDRSdtmIgD/CDISC/V1#IG-CDISC_SDTMIGAE_AEOUT_VR> bo:ordinal "1"^^xsd:positiveInteger . 
<http://www.assero.co.uk/MDRSdtmIgD/CDISC/V1#IG-CDISC_SDTMIGAE_AEOUT> bd:compliance <http://www.assero.co.uk/MDRSdtmIgD/CDISC/V1#IG-CDISC_SDTMIGAE_C_PERMISSIBLE> . 
<http://www.assero.co.uk/MDRSdtmIgD/CDISC/V1#IG-CDISC_SDTMIGAE> bd:includesColumn <http://www.assero.co.uk/MDRSdtmIgD/CDISC/V1#IG-CDISC_SDTMIGAE_AEOUT> . 
<http://www.assero.co.uk/MDRSdtmIgD/CDISC/V1#IG-CDISC_SDTMIGAE_AESCAN> rdf:type bd:IgVariable . 
<http://www.assero.co.uk/MDRSdtmIgD/CDISC/V1#IG-CDISC_SDTMIGAE_AESCAN> rdfs:label "Involves Cancer"^^xsd:string . 
<http://www.assero.co.uk/MDRSdtmIgD/CDISC/V1#IG-CDISC_SDTMIGAE_AESCAN> bd:ordinal "24"^^xsd:positiveInteger . 
<http://www.assero.co.uk/MDRSdtmIgD/CDISC/V1#IG-CDISC_SDTMIGAE_AESCAN> bd:controlled_term_or_format "(NY)"^^xsd:string . 
<http://www.assero.co.uk/MDRSdtmIgD/CDISC/V1#IG-CDISC_SDTMIGAE_AESCAN> bd:notes "Was the serious event associated with the development of cancer?"^^xsd:string . 
<http://www.assero.co.uk/MDRSdtmIgD/CDISC/V1#IG-CDISC_SDTMIGAE_AESCAN> bd:name "AESCAN"^^xsd:string . 
<http://www.assero.co.uk/MDRSdtmIgD/CDISC/V1#IG-CDISC_SDTMIGAE_AESCAN> bd:basedOnVariable <http://www.assero.co.uk/MDRSdtmIgD/CDISC/V1#IG-CDISC_SDTMIGAE_AESCAN_VR> . 
<http://www.assero.co.uk/MDRSdtmIgD/CDISC/V1#IG-CDISC_SDTMIGAE_AESCAN_VR> rdf:type bo:CReference . 
<http://www.assero.co.uk/MDRSdtmIgD/CDISC/V1#IG-CDISC_SDTMIGAE_AESCAN_VR> bo:hasColumn <http://www.assero.co.uk/MDRSdtmMd/CDISC/V1#M-CDISC_SDTMMODEL_EVENTS_xxSCAN> . 
<http://www.assero.co.uk/MDRSdtmIgD/CDISC/V1#IG-CDISC_SDTMIGAE_AESCAN_VR> bo:enabled "true"^^xsd:boolean . 
<http://www.assero.co.uk/MDRSdtmIgD/CDISC/V1#IG-CDISC_SDTMIGAE_AESCAN_VR> bo:optional "false"^^xsd:boolean . 
<http://www.assero.co.uk/MDRSdtmIgD/CDISC/V1#IG-CDISC_SDTMIGAE_AESCAN_VR> bo:ordinal "1"^^xsd:positiveInteger . 
<http://www.assero.co.uk/MDRSdtmIgD/CDISC/V1#IG-CDISC_SDTMIGAE_AESCAN> bd:compliance <http://www.assero.co.uk/MDRSdtmIgD/CDISC/V1#IG-CDISC_SDTMIGAE_C_PERMISSIBLE> . 
<http://www.assero.co.uk/MDRSdtmIgD/CDISC/V1#IG-CDISC_SDTMIGAE> bd:includesColumn <http://www.assero.co.uk/MDRSdtmIgD/CDISC/V1#IG-CDISC_SDTMIGAE_AESCAN> . 
<http://www.assero.co.uk/MDRSdtmIgD/CDISC/V1#IG-CDISC_SDTMIGAE_AESCONG> rdf:type bd:IgVariable . 
<http://www.assero.co.uk/MDRSdtmIgD/CDISC/V1#IG-CDISC_SDTMIGAE_AESCONG> rdfs:label "Congenital Anomaly or Birth Defect"^^xsd:string . 
<http://www.assero.co.uk/MDRSdtmIgD/CDISC/V1#IG-CDISC_SDTMIGAE_AESCONG> bd:ordinal "25"^^xsd:positiveInteger . 
<http://www.assero.co.uk/MDRSdtmIgD/CDISC/V1#IG-CDISC_SDTMIGAE_AESCONG> bd:controlled_term_or_format "(NY)"^^xsd:string . 
<http://www.assero.co.uk/MDRSdtmIgD/CDISC/V1#IG-CDISC_SDTMIGAE_AESCONG> bd:notes "Was the serious event associated with congenital anomaly or birth defect?"^^xsd:string . 
<http://www.assero.co.uk/MDRSdtmIgD/CDISC/V1#IG-CDISC_SDTMIGAE_AESCONG> bd:name "AESCONG"^^xsd:string . 
<http://www.assero.co.uk/MDRSdtmIgD/CDISC/V1#IG-CDISC_SDTMIGAE_AESCONG> bd:basedOnVariable <http://www.assero.co.uk/MDRSdtmIgD/CDISC/V1#IG-CDISC_SDTMIGAE_AESCONG_VR> . 
<http://www.assero.co.uk/MDRSdtmIgD/CDISC/V1#IG-CDISC_SDTMIGAE_AESCONG_VR> rdf:type bo:CReference . 
<http://www.assero.co.uk/MDRSdtmIgD/CDISC/V1#IG-CDISC_SDTMIGAE_AESCONG_VR> bo:hasColumn <http://www.assero.co.uk/MDRSdtmMd/CDISC/V1#M-CDISC_SDTMMODEL_EVENTS_xxSCONG> . 
<http://www.assero.co.uk/MDRSdtmIgD/CDISC/V1#IG-CDISC_SDTMIGAE_AESCONG_VR> bo:enabled "true"^^xsd:boolean . 
<http://www.assero.co.uk/MDRSdtmIgD/CDISC/V1#IG-CDISC_SDTMIGAE_AESCONG_VR> bo:optional "false"^^xsd:boolean . 
<http://www.assero.co.uk/MDRSdtmIgD/CDISC/V1#IG-CDISC_SDTMIGAE_AESCONG_VR> bo:ordinal "1"^^xsd:positiveInteger . 
<http://www.assero.co.uk/MDRSdtmIgD/CDISC/V1#IG-CDISC_SDTMIGAE_AESCONG> bd:compliance <http://www.assero.co.uk/MDRSdtmIgD/CDISC/V1#IG-CDISC_SDTMIGAE_C_PERMISSIBLE> . 
<http://www.assero.co.uk/MDRSdtmIgD/CDISC/V1#IG-CDISC_SDTMIGAE> bd:includesColumn <http://www.assero.co.uk/MDRSdtmIgD/CDISC/V1#IG-CDISC_SDTMIGAE_AESCONG> . 
<http://www.assero.co.uk/MDRSdtmIgD/CDISC/V1#IG-CDISC_SDTMIGAE_AESDISAB> rdf:type bd:IgVariable . 
<http://www.assero.co.uk/MDRSdtmIgD/CDISC/V1#IG-CDISC_SDTMIGAE_AESDISAB> rdfs:label "Persist or Signif Disability/Incapacity"^^xsd:string . 
<http://www.assero.co.uk/MDRSdtmIgD/CDISC/V1#IG-CDISC_SDTMIGAE_AESDISAB> bd:ordinal "26"^^xsd:positiveInteger . 
<http://www.assero.co.uk/MDRSdtmIgD/CDISC/V1#IG-CDISC_SDTMIGAE_AESDISAB> bd:controlled_term_or_format "(NY)"^^xsd:string . 
<http://www.assero.co.uk/MDRSdtmIgD/CDISC/V1#IG-CDISC_SDTMIGAE_AESDISAB> bd:notes "Did the serious event result in persistent or significant disability/incapacity?"^^xsd:string . 
<http://www.assero.co.uk/MDRSdtmIgD/CDISC/V1#IG-CDISC_SDTMIGAE_AESDISAB> bd:name "AESDISAB"^^xsd:string . 
<http://www.assero.co.uk/MDRSdtmIgD/CDISC/V1#IG-CDISC_SDTMIGAE_AESDISAB> bd:basedOnVariable <http://www.assero.co.uk/MDRSdtmIgD/CDISC/V1#IG-CDISC_SDTMIGAE_AESDISAB_VR> . 
<http://www.assero.co.uk/MDRSdtmIgD/CDISC/V1#IG-CDISC_SDTMIGAE_AESDISAB_VR> rdf:type bo:CReference . 
<http://www.assero.co.uk/MDRSdtmIgD/CDISC/V1#IG-CDISC_SDTMIGAE_AESDISAB_VR> bo:hasColumn <http://www.assero.co.uk/MDRSdtmMd/CDISC/V1#M-CDISC_SDTMMODEL_EVENTS_xxSDISAB> . 
<http://www.assero.co.uk/MDRSdtmIgD/CDISC/V1#IG-CDISC_SDTMIGAE_AESDISAB_VR> bo:enabled "true"^^xsd:boolean . 
<http://www.assero.co.uk/MDRSdtmIgD/CDISC/V1#IG-CDISC_SDTMIGAE_AESDISAB_VR> bo:optional "false"^^xsd:boolean . 
<http://www.assero.co.uk/MDRSdtmIgD/CDISC/V1#IG-CDISC_SDTMIGAE_AESDISAB_VR> bo:ordinal "1"^^xsd:positiveInteger . 
<http://www.assero.co.uk/MDRSdtmIgD/CDISC/V1#IG-CDISC_SDTMIGAE_AESDISAB> bd:compliance <http://www.assero.co.uk/MDRSdtmIgD/CDISC/V1#IG-CDISC_SDTMIGAE_C_PERMISSIBLE> . 
<http://www.assero.co.uk/MDRSdtmIgD/CDISC/V1#IG-CDISC_SDTMIGAE> bd:includesColumn <http://www.assero.co.uk/MDRSdtmIgD/CDISC/V1#IG-CDISC_SDTMIGAE_AESDISAB> . 
<http://www.assero.co.uk/MDRSdtmIgD/CDISC/V1#IG-CDISC_SDTMIGAE_AESDTH> rdf:type bd:IgVariable . 
<http://www.assero.co.uk/MDRSdtmIgD/CDISC/V1#IG-CDISC_SDTMIGAE_AESDTH> rdfs:label "Results in Death"^^xsd:string . 
<http://www.assero.co.uk/MDRSdtmIgD/CDISC/V1#IG-CDISC_SDTMIGAE_AESDTH> bd:ordinal "27"^^xsd:positiveInteger . 
<http://www.assero.co.uk/MDRSdtmIgD/CDISC/V1#IG-CDISC_SDTMIGAE_AESDTH> bd:controlled_term_or_format "(NY)"^^xsd:string . 
<http://www.assero.co.uk/MDRSdtmIgD/CDISC/V1#IG-CDISC_SDTMIGAE_AESDTH> bd:notes "Did the serious event result in death?"^^xsd:string . 
<http://www.assero.co.uk/MDRSdtmIgD/CDISC/V1#IG-CDISC_SDTMIGAE_AESDTH> bd:name "AESDTH"^^xsd:string . 
<http://www.assero.co.uk/MDRSdtmIgD/CDISC/V1#IG-CDISC_SDTMIGAE_AESDTH> bd:basedOnVariable <http://www.assero.co.uk/MDRSdtmIgD/CDISC/V1#IG-CDISC_SDTMIGAE_AESDTH_VR> . 
<http://www.assero.co.uk/MDRSdtmIgD/CDISC/V1#IG-CDISC_SDTMIGAE_AESDTH_VR> rdf:type bo:CReference . 
<http://www.assero.co.uk/MDRSdtmIgD/CDISC/V1#IG-CDISC_SDTMIGAE_AESDTH_VR> bo:hasColumn <http://www.assero.co.uk/MDRSdtmMd/CDISC/V1#M-CDISC_SDTMMODEL_EVENTS_xxSDTH> . 
<http://www.assero.co.uk/MDRSdtmIgD/CDISC/V1#IG-CDISC_SDTMIGAE_AESDTH_VR> bo:enabled "true"^^xsd:boolean . 
<http://www.assero.co.uk/MDRSdtmIgD/CDISC/V1#IG-CDISC_SDTMIGAE_AESDTH_VR> bo:optional "false"^^xsd:boolean . 
<http://www.assero.co.uk/MDRSdtmIgD/CDISC/V1#IG-CDISC_SDTMIGAE_AESDTH_VR> bo:ordinal "1"^^xsd:positiveInteger . 
<http://www.assero.co.uk/MDRSdtmIgD/CDISC/V1#IG-CDISC_SDTMIGAE_AESDTH> bd:compliance <http://www.assero.co.uk/MDRSdtmIgD/CDISC/V1#IG-CDISC_SDTMIGAE_C_PERMISSIBLE> . 
<http://www.assero.co.uk/MDRSdtmIgD/CDISC/V1#IG-CDISC_SDTMIGAE> bd:includesColumn <http://www.assero.co.uk/MDRSdtmIgD/CDISC/V1#IG-CDISC_SDTMIGAE_AESDTH> . 
<http://www.assero.co.uk/MDRSdtmIgD/CDISC/V1#IG-CDISC_SDTMIGAE_AESHOSP> rdf:type bd:IgVariable . 
<http://www.assero.co.uk/MDRSdtmIgD/CDISC/V1#IG-CDISC_SDTMIGAE_AESHOSP> rdfs:label "Requires or Prolongs Hospitalization"^^xsd:string . 
<http://www.assero.co.uk/MDRSdtmIgD/CDISC/V1#IG-CDISC_SDTMIGAE_AESHOSP> bd:ordinal "28"^^xsd:positiveInteger . 
<http://www.assero.co.uk/MDRSdtmIgD/CDISC/V1#IG-CDISC_SDTMIGAE_AESHOSP> bd:controlled_term_or_format "(NY)"^^xsd:string . 
<http://www.assero.co.uk/MDRSdtmIgD/CDISC/V1#IG-CDISC_SDTMIGAE_AESHOSP> bd:notes "Did the serious event require or prolong hospitalization?"^^xsd:string . 
<http://www.assero.co.uk/MDRSdtmIgD/CDISC/V1#IG-CDISC_SDTMIGAE_AESHOSP> bd:name "AESHOSP"^^xsd:string . 
<http://www.assero.co.uk/MDRSdtmIgD/CDISC/V1#IG-CDISC_SDTMIGAE_AESHOSP> bd:basedOnVariable <http://www.assero.co.uk/MDRSdtmIgD/CDISC/V1#IG-CDISC_SDTMIGAE_AESHOSP_VR> . 
<http://www.assero.co.uk/MDRSdtmIgD/CDISC/V1#IG-CDISC_SDTMIGAE_AESHOSP_VR> rdf:type bo:CReference . 
<http://www.assero.co.uk/MDRSdtmIgD/CDISC/V1#IG-CDISC_SDTMIGAE_AESHOSP_VR> bo:hasColumn <http://www.assero.co.uk/MDRSdtmMd/CDISC/V1#M-CDISC_SDTMMODEL_EVENTS_xxSHOSP> . 
<http://www.assero.co.uk/MDRSdtmIgD/CDISC/V1#IG-CDISC_SDTMIGAE_AESHOSP_VR> bo:enabled "true"^^xsd:boolean . 
<http://www.assero.co.uk/MDRSdtmIgD/CDISC/V1#IG-CDISC_SDTMIGAE_AESHOSP_VR> bo:optional "false"^^xsd:boolean . 
<http://www.assero.co.uk/MDRSdtmIgD/CDISC/V1#IG-CDISC_SDTMIGAE_AESHOSP_VR> bo:ordinal "1"^^xsd:positiveInteger . 
<http://www.assero.co.uk/MDRSdtmIgD/CDISC/V1#IG-CDISC_SDTMIGAE_AESHOSP> bd:compliance <http://www.assero.co.uk/MDRSdtmIgD/CDISC/V1#IG-CDISC_SDTMIGAE_C_PERMISSIBLE> . 
<http://www.assero.co.uk/MDRSdtmIgD/CDISC/V1#IG-CDISC_SDTMIGAE> bd:includesColumn <http://www.assero.co.uk/MDRSdtmIgD/CDISC/V1#IG-CDISC_SDTMIGAE_AESHOSP> . 
<http://www.assero.co.uk/MDRSdtmIgD/CDISC/V1#IG-CDISC_SDTMIGAE_AESLIFE> rdf:type bd:IgVariable . 
<http://www.assero.co.uk/MDRSdtmIgD/CDISC/V1#IG-CDISC_SDTMIGAE_AESLIFE> rdfs:label "Is Life Threatening"^^xsd:string . 
<http://www.assero.co.uk/MDRSdtmIgD/CDISC/V1#IG-CDISC_SDTMIGAE_AESLIFE> bd:ordinal "29"^^xsd:positiveInteger . 
<http://www.assero.co.uk/MDRSdtmIgD/CDISC/V1#IG-CDISC_SDTMIGAE_AESLIFE> bd:controlled_term_or_format "(NY)"^^xsd:string . 
<http://www.assero.co.uk/MDRSdtmIgD/CDISC/V1#IG-CDISC_SDTMIGAE_AESLIFE> bd:notes "Was the serious event life threatening?"^^xsd:string . 
<http://www.assero.co.uk/MDRSdtmIgD/CDISC/V1#IG-CDISC_SDTMIGAE_AESLIFE> bd:name "AESLIFE"^^xsd:string . 
<http://www.assero.co.uk/MDRSdtmIgD/CDISC/V1#IG-CDISC_SDTMIGAE_AESLIFE> bd:basedOnVariable <http://www.assero.co.uk/MDRSdtmIgD/CDISC/V1#IG-CDISC_SDTMIGAE_AESLIFE_VR> . 
<http://www.assero.co.uk/MDRSdtmIgD/CDISC/V1#IG-CDISC_SDTMIGAE_AESLIFE_VR> rdf:type bo:CReference . 
<http://www.assero.co.uk/MDRSdtmIgD/CDISC/V1#IG-CDISC_SDTMIGAE_AESLIFE_VR> bo:hasColumn <http://www.assero.co.uk/MDRSdtmMd/CDISC/V1#M-CDISC_SDTMMODEL_EVENTS_xxSLIFE> . 
<http://www.assero.co.uk/MDRSdtmIgD/CDISC/V1#IG-CDISC_SDTMIGAE_AESLIFE_VR> bo:enabled "true"^^xsd:boolean . 
<http://www.assero.co.uk/MDRSdtmIgD/CDISC/V1#IG-CDISC_SDTMIGAE_AESLIFE_VR> bo:optional "false"^^xsd:boolean . 
<http://www.assero.co.uk/MDRSdtmIgD/CDISC/V1#IG-CDISC_SDTMIGAE_AESLIFE_VR> bo:ordinal "1"^^xsd:positiveInteger . 
<http://www.assero.co.uk/MDRSdtmIgD/CDISC/V1#IG-CDISC_SDTMIGAE_AESLIFE> bd:compliance <http://www.assero.co.uk/MDRSdtmIgD/CDISC/V1#IG-CDISC_SDTMIGAE_C_PERMISSIBLE> . 
<http://www.assero.co.uk/MDRSdtmIgD/CDISC/V1#IG-CDISC_SDTMIGAE> bd:includesColumn <http://www.assero.co.uk/MDRSdtmIgD/CDISC/V1#IG-CDISC_SDTMIGAE_AESLIFE> . 
<http://www.assero.co.uk/MDRSdtmIgD/CDISC/V1#IG-CDISC_SDTMIGAE_AESOD> rdf:type bd:IgVariable . 
<http://www.assero.co.uk/MDRSdtmIgD/CDISC/V1#IG-CDISC_SDTMIGAE_AESOD> rdfs:label "Occurred with Overdose"^^xsd:string . 
<http://www.assero.co.uk/MDRSdtmIgD/CDISC/V1#IG-CDISC_SDTMIGAE_AESOD> bd:ordinal "30"^^xsd:positiveInteger . 
<http://www.assero.co.uk/MDRSdtmIgD/CDISC/V1#IG-CDISC_SDTMIGAE_AESOD> bd:controlled_term_or_format "(NY)"^^xsd:string . 
<http://www.assero.co.uk/MDRSdtmIgD/CDISC/V1#IG-CDISC_SDTMIGAE_AESOD> bd:notes "Did the serious event occur with an overdose?"^^xsd:string . 
<http://www.assero.co.uk/MDRSdtmIgD/CDISC/V1#IG-CDISC_SDTMIGAE_AESOD> bd:name "AESOD"^^xsd:string . 
<http://www.assero.co.uk/MDRSdtmIgD/CDISC/V1#IG-CDISC_SDTMIGAE_AESOD> bd:basedOnVariable <http://www.assero.co.uk/MDRSdtmIgD/CDISC/V1#IG-CDISC_SDTMIGAE_AESOD_VR> . 
<http://www.assero.co.uk/MDRSdtmIgD/CDISC/V1#IG-CDISC_SDTMIGAE_AESOD_VR> rdf:type bo:CReference . 
<http://www.assero.co.uk/MDRSdtmIgD/CDISC/V1#IG-CDISC_SDTMIGAE_AESOD_VR> bo:hasColumn <http://www.assero.co.uk/MDRSdtmMd/CDISC/V1#M-CDISC_SDTMMODEL_EVENTS_xxSOD> . 
<http://www.assero.co.uk/MDRSdtmIgD/CDISC/V1#IG-CDISC_SDTMIGAE_AESOD_VR> bo:enabled "true"^^xsd:boolean . 
<http://www.assero.co.uk/MDRSdtmIgD/CDISC/V1#IG-CDISC_SDTMIGAE_AESOD_VR> bo:optional "false"^^xsd:boolean . 
<http://www.assero.co.uk/MDRSdtmIgD/CDISC/V1#IG-CDISC_SDTMIGAE_AESOD_VR> bo:ordinal "1"^^xsd:positiveInteger . 
<http://www.assero.co.uk/MDRSdtmIgD/CDISC/V1#IG-CDISC_SDTMIGAE_AESOD> bd:compliance <http://www.assero.co.uk/MDRSdtmIgD/CDISC/V1#IG-CDISC_SDTMIGAE_C_PERMISSIBLE> . 
<http://www.assero.co.uk/MDRSdtmIgD/CDISC/V1#IG-CDISC_SDTMIGAE> bd:includesColumn <http://www.assero.co.uk/MDRSdtmIgD/CDISC/V1#IG-CDISC_SDTMIGAE_AESOD> . 
<http://www.assero.co.uk/MDRSdtmIgD/CDISC/V1#IG-CDISC_SDTMIGAE_AESMIE> rdf:type bd:IgVariable . 
<http://www.assero.co.uk/MDRSdtmIgD/CDISC/V1#IG-CDISC_SDTMIGAE_AESMIE> rdfs:label "Other Medically Important Serious Event"^^xsd:string . 
<http://www.assero.co.uk/MDRSdtmIgD/CDISC/V1#IG-CDISC_SDTMIGAE_AESMIE> bd:ordinal "31"^^xsd:positiveInteger . 
<http://www.assero.co.uk/MDRSdtmIgD/CDISC/V1#IG-CDISC_SDTMIGAE_AESMIE> bd:controlled_term_or_format "(NY)"^^xsd:string . 
<http://www.assero.co.uk/MDRSdtmIgD/CDISC/V1#IG-CDISC_SDTMIGAE_AESMIE> bd:notes "Do additional categories for seriousness apply?"^^xsd:string . 
<http://www.assero.co.uk/MDRSdtmIgD/CDISC/V1#IG-CDISC_SDTMIGAE_AESMIE> bd:name "AESMIE"^^xsd:string . 
<http://www.assero.co.uk/MDRSdtmIgD/CDISC/V1#IG-CDISC_SDTMIGAE_AESMIE> bd:basedOnVariable <http://www.assero.co.uk/MDRSdtmIgD/CDISC/V1#IG-CDISC_SDTMIGAE_AESMIE_VR> . 
<http://www.assero.co.uk/MDRSdtmIgD/CDISC/V1#IG-CDISC_SDTMIGAE_AESMIE_VR> rdf:type bo:CReference . 
<http://www.assero.co.uk/MDRSdtmIgD/CDISC/V1#IG-CDISC_SDTMIGAE_AESMIE_VR> bo:hasColumn <http://www.assero.co.uk/MDRSdtmMd/CDISC/V1#M-CDISC_SDTMMODEL_EVENTS_xxSMIE> . 
<http://www.assero.co.uk/MDRSdtmIgD/CDISC/V1#IG-CDISC_SDTMIGAE_AESMIE_VR> bo:enabled "true"^^xsd:boolean . 
<http://www.assero.co.uk/MDRSdtmIgD/CDISC/V1#IG-CDISC_SDTMIGAE_AESMIE_VR> bo:optional "false"^^xsd:boolean . 
<http://www.assero.co.uk/MDRSdtmIgD/CDISC/V1#IG-CDISC_SDTMIGAE_AESMIE_VR> bo:ordinal "1"^^xsd:positiveInteger . 
<http://www.assero.co.uk/MDRSdtmIgD/CDISC/V1#IG-CDISC_SDTMIGAE_AESMIE> bd:compliance <http://www.assero.co.uk/MDRSdtmIgD/CDISC/V1#IG-CDISC_SDTMIGAE_C_PERMISSIBLE> . 
<http://www.assero.co.uk/MDRSdtmIgD/CDISC/V1#IG-CDISC_SDTMIGAE> bd:includesColumn <http://www.assero.co.uk/MDRSdtmIgD/CDISC/V1#IG-CDISC_SDTMIGAE_AESMIE> . 
<http://www.assero.co.uk/MDRSdtmIgD/CDISC/V1#IG-CDISC_SDTMIGAE_AECONTRT> rdf:type bd:IgVariable . 
<http://www.assero.co.uk/MDRSdtmIgD/CDISC/V1#IG-CDISC_SDTMIGAE_AECONTRT> rdfs:label "Concomitant or Additional Trtmnt Given"^^xsd:string . 
<http://www.assero.co.uk/MDRSdtmIgD/CDISC/V1#IG-CDISC_SDTMIGAE_AECONTRT> bd:ordinal "32"^^xsd:positiveInteger . 
<http://www.assero.co.uk/MDRSdtmIgD/CDISC/V1#IG-CDISC_SDTMIGAE_AECONTRT> bd:controlled_term_or_format "(NY)"^^xsd:string . 
<http://www.assero.co.uk/MDRSdtmIgD/CDISC/V1#IG-CDISC_SDTMIGAE_AECONTRT> bd:notes "Was another treatment given because of the occurrence of the event?"^^xsd:string . 
<http://www.assero.co.uk/MDRSdtmIgD/CDISC/V1#IG-CDISC_SDTMIGAE_AECONTRT> bd:name "AECONTRT"^^xsd:string . 
<http://www.assero.co.uk/MDRSdtmIgD/CDISC/V1#IG-CDISC_SDTMIGAE_AECONTRT> bd:basedOnVariable <http://www.assero.co.uk/MDRSdtmIgD/CDISC/V1#IG-CDISC_SDTMIGAE_AECONTRT_VR> . 
<http://www.assero.co.uk/MDRSdtmIgD/CDISC/V1#IG-CDISC_SDTMIGAE_AECONTRT_VR> rdf:type bo:CReference . 
<http://www.assero.co.uk/MDRSdtmIgD/CDISC/V1#IG-CDISC_SDTMIGAE_AECONTRT_VR> bo:hasColumn <http://www.assero.co.uk/MDRSdtmMd/CDISC/V1#M-CDISC_SDTMMODEL_EVENTS_xxCONTRT> . 
<http://www.assero.co.uk/MDRSdtmIgD/CDISC/V1#IG-CDISC_SDTMIGAE_AECONTRT_VR> bo:enabled "true"^^xsd:boolean . 
<http://www.assero.co.uk/MDRSdtmIgD/CDISC/V1#IG-CDISC_SDTMIGAE_AECONTRT_VR> bo:optional "false"^^xsd:boolean . 
<http://www.assero.co.uk/MDRSdtmIgD/CDISC/V1#IG-CDISC_SDTMIGAE_AECONTRT_VR> bo:ordinal "1"^^xsd:positiveInteger . 
<http://www.assero.co.uk/MDRSdtmIgD/CDISC/V1#IG-CDISC_SDTMIGAE_AECONTRT> bd:compliance <http://www.assero.co.uk/MDRSdtmIgD/CDISC/V1#IG-CDISC_SDTMIGAE_C_PERMISSIBLE> . 
<http://www.assero.co.uk/MDRSdtmIgD/CDISC/V1#IG-CDISC_SDTMIGAE> bd:includesColumn <http://www.assero.co.uk/MDRSdtmIgD/CDISC/V1#IG-CDISC_SDTMIGAE_AECONTRT> . 
<http://www.assero.co.uk/MDRSdtmIgD/CDISC/V1#IG-CDISC_SDTMIGAE_AETOXGR> rdf:type bd:IgVariable . 
<http://www.assero.co.uk/MDRSdtmIgD/CDISC/V1#IG-CDISC_SDTMIGAE_AETOXGR> rdfs:label "Standard Toxicity Grade"^^xsd:string . 
<http://www.assero.co.uk/MDRSdtmIgD/CDISC/V1#IG-CDISC_SDTMIGAE_AETOXGR> bd:ordinal "33"^^xsd:positiveInteger . 
<http://www.assero.co.uk/MDRSdtmIgD/CDISC/V1#IG-CDISC_SDTMIGAE_AETOXGR> bd:controlled_term_or_format ""^^xsd:string . 
<http://www.assero.co.uk/MDRSdtmIgD/CDISC/V1#IG-CDISC_SDTMIGAE_AETOXGR> bd:notes "Toxicity grade according to a standard toxicity scale such as Common Terminology Criteria for Adverse Events v3.0 (CTCAE). Sponsor should specify name of the scale and version used in the metadata (see 6.2.1.1, Assumption 6c). If value is from a numeric scale, represent only the number (e.g., '2' and not 'Grade 2')."^^xsd:string . 
<http://www.assero.co.uk/MDRSdtmIgD/CDISC/V1#IG-CDISC_SDTMIGAE_AETOXGR> bd:name "AETOXGR"^^xsd:string . 
<http://www.assero.co.uk/MDRSdtmIgD/CDISC/V1#IG-CDISC_SDTMIGAE_AETOXGR> bd:basedOnVariable <http://www.assero.co.uk/MDRSdtmIgD/CDISC/V1#IG-CDISC_SDTMIGAE_AETOXGR_VR> . 
<http://www.assero.co.uk/MDRSdtmIgD/CDISC/V1#IG-CDISC_SDTMIGAE_AETOXGR_VR> rdf:type bo:CReference . 
<http://www.assero.co.uk/MDRSdtmIgD/CDISC/V1#IG-CDISC_SDTMIGAE_AETOXGR_VR> bo:hasColumn <http://www.assero.co.uk/MDRSdtmMd/CDISC/V1#M-CDISC_SDTMMODEL_EVENTS_xxTOXGR> . 
<http://www.assero.co.uk/MDRSdtmIgD/CDISC/V1#IG-CDISC_SDTMIGAE_AETOXGR_VR> bo:enabled "true"^^xsd:boolean . 
<http://www.assero.co.uk/MDRSdtmIgD/CDISC/V1#IG-CDISC_SDTMIGAE_AETOXGR_VR> bo:optional "false"^^xsd:boolean . 
<http://www.assero.co.uk/MDRSdtmIgD/CDISC/V1#IG-CDISC_SDTMIGAE_AETOXGR_VR> bo:ordinal "1"^^xsd:positiveInteger . 
<http://www.assero.co.uk/MDRSdtmIgD/CDISC/V1#IG-CDISC_SDTMIGAE_AETOXGR> bd:compliance <http://www.assero.co.uk/MDRSdtmIgD/CDISC/V1#IG-CDISC_SDTMIGAE_C_PERMISSIBLE> . 
<http://www.assero.co.uk/MDRSdtmIgD/CDISC/V1#IG-CDISC_SDTMIGAE> bd:includesColumn <http://www.assero.co.uk/MDRSdtmIgD/CDISC/V1#IG-CDISC_SDTMIGAE_AETOXGR> . 
<http://www.assero.co.uk/MDRSdtmIgD/CDISC/V1#IG-CDISC_SDTMIGAE_AESTDTC> rdf:type bd:IgVariable . 
<http://www.assero.co.uk/MDRSdtmIgD/CDISC/V1#IG-CDISC_SDTMIGAE_AESTDTC> rdfs:label "Start Date/Time of Adverse Event"^^xsd:string . 
<http://www.assero.co.uk/MDRSdtmIgD/CDISC/V1#IG-CDISC_SDTMIGAE_AESTDTC> bd:ordinal "34"^^xsd:positiveInteger . 
<http://www.assero.co.uk/MDRSdtmIgD/CDISC/V1#IG-CDISC_SDTMIGAE_AESTDTC> bd:controlled_term_or_format "ISO 8601"^^xsd:string . 
<http://www.assero.co.uk/MDRSdtmIgD/CDISC/V1#IG-CDISC_SDTMIGAE_AESTDTC> bd:notes ""^^xsd:string . 
<http://www.assero.co.uk/MDRSdtmIgD/CDISC/V1#IG-CDISC_SDTMIGAE_AESTDTC> bd:name "AESTDTC"^^xsd:string . 
<http://www.assero.co.uk/MDRSdtmIgD/CDISC/V1#IG-CDISC_SDTMIGAE_AESTDTC> bd:basedOnVariable <http://www.assero.co.uk/MDRSdtmIgD/CDISC/V1#IG-CDISC_SDTMIGAE_AESTDTC_VR> . 
<http://www.assero.co.uk/MDRSdtmIgD/CDISC/V1#IG-CDISC_SDTMIGAE_AESTDTC_VR> rdf:type bo:CReference . 
<http://www.assero.co.uk/MDRSdtmIgD/CDISC/V1#IG-CDISC_SDTMIGAE_AESTDTC_VR> bo:hasColumn <http://www.assero.co.uk/MDRSdtmMd/CDISC/V1#M-CDISC_SDTMMODEL_EVENTS_xxSTDTC> . 
<http://www.assero.co.uk/MDRSdtmIgD/CDISC/V1#IG-CDISC_SDTMIGAE_AESTDTC_VR> bo:enabled "true"^^xsd:boolean . 
<http://www.assero.co.uk/MDRSdtmIgD/CDISC/V1#IG-CDISC_SDTMIGAE_AESTDTC_VR> bo:optional "false"^^xsd:boolean . 
<http://www.assero.co.uk/MDRSdtmIgD/CDISC/V1#IG-CDISC_SDTMIGAE_AESTDTC_VR> bo:ordinal "1"^^xsd:positiveInteger . 
<http://www.assero.co.uk/MDRSdtmIgD/CDISC/V1#IG-CDISC_SDTMIGAE_AESTDTC> bd:compliance <http://www.assero.co.uk/MDRSdtmIgD/CDISC/V1#IG-CDISC_SDTMIGAE_C_EXPECTED> . 
<http://www.assero.co.uk/MDRSdtmIgD/CDISC/V1#IG-CDISC_SDTMIGAE> bd:includesColumn <http://www.assero.co.uk/MDRSdtmIgD/CDISC/V1#IG-CDISC_SDTMIGAE_AESTDTC> . 
<http://www.assero.co.uk/MDRSdtmIgD/CDISC/V1#IG-CDISC_SDTMIGAE_AEENDTC> rdf:type bd:IgVariable . 
<http://www.assero.co.uk/MDRSdtmIgD/CDISC/V1#IG-CDISC_SDTMIGAE_AEENDTC> rdfs:label "End Date/Time of Adverse Event"^^xsd:string . 
<http://www.assero.co.uk/MDRSdtmIgD/CDISC/V1#IG-CDISC_SDTMIGAE_AEENDTC> bd:ordinal "35"^^xsd:positiveInteger . 
<http://www.assero.co.uk/MDRSdtmIgD/CDISC/V1#IG-CDISC_SDTMIGAE_AEENDTC> bd:controlled_term_or_format "ISO 8601"^^xsd:string . 
<http://www.assero.co.uk/MDRSdtmIgD/CDISC/V1#IG-CDISC_SDTMIGAE_AEENDTC> bd:notes ""^^xsd:string . 
<http://www.assero.co.uk/MDRSdtmIgD/CDISC/V1#IG-CDISC_SDTMIGAE_AEENDTC> bd:name "AEENDTC"^^xsd:string . 
<http://www.assero.co.uk/MDRSdtmIgD/CDISC/V1#IG-CDISC_SDTMIGAE_AEENDTC> bd:basedOnVariable <http://www.assero.co.uk/MDRSdtmIgD/CDISC/V1#IG-CDISC_SDTMIGAE_AEENDTC_VR> . 
<http://www.assero.co.uk/MDRSdtmIgD/CDISC/V1#IG-CDISC_SDTMIGAE_AEENDTC_VR> rdf:type bo:CReference . 
<http://www.assero.co.uk/MDRSdtmIgD/CDISC/V1#IG-CDISC_SDTMIGAE_AEENDTC_VR> bo:hasColumn <http://www.assero.co.uk/MDRSdtmMd/CDISC/V1#M-CDISC_SDTMMODEL_EVENTS_xxENDTC> . 
<http://www.assero.co.uk/MDRSdtmIgD/CDISC/V1#IG-CDISC_SDTMIGAE_AEENDTC_VR> bo:enabled "true"^^xsd:boolean . 
<http://www.assero.co.uk/MDRSdtmIgD/CDISC/V1#IG-CDISC_SDTMIGAE_AEENDTC_VR> bo:optional "false"^^xsd:boolean . 
<http://www.assero.co.uk/MDRSdtmIgD/CDISC/V1#IG-CDISC_SDTMIGAE_AEENDTC_VR> bo:ordinal "1"^^xsd:positiveInteger . 
<http://www.assero.co.uk/MDRSdtmIgD/CDISC/V1#IG-CDISC_SDTMIGAE_AEENDTC> bd:compliance <http://www.assero.co.uk/MDRSdtmIgD/CDISC/V1#IG-CDISC_SDTMIGAE_C_EXPECTED> . 
<http://www.assero.co.uk/MDRSdtmIgD/CDISC/V1#IG-CDISC_SDTMIGAE> bd:includesColumn <http://www.assero.co.uk/MDRSdtmIgD/CDISC/V1#IG-CDISC_SDTMIGAE_AEENDTC> . 
<http://www.assero.co.uk/MDRSdtmIgD/CDISC/V1#IG-CDISC_SDTMIGAE_AESTDY> rdf:type bd:IgVariable . 
<http://www.assero.co.uk/MDRSdtmIgD/CDISC/V1#IG-CDISC_SDTMIGAE_AESTDY> rdfs:label "Study Day of Start of Adverse Event"^^xsd:string . 
<http://www.assero.co.uk/MDRSdtmIgD/CDISC/V1#IG-CDISC_SDTMIGAE_AESTDY> bd:ordinal "36"^^xsd:positiveInteger . 
<http://www.assero.co.uk/MDRSdtmIgD/CDISC/V1#IG-CDISC_SDTMIGAE_AESTDY> bd:controlled_term_or_format ""^^xsd:string . 
<http://www.assero.co.uk/MDRSdtmIgD/CDISC/V1#IG-CDISC_SDTMIGAE_AESTDY> bd:notes "Study day of start of adverse event relative to the sponsor-defined RFSTDTC."^^xsd:string . 
<http://www.assero.co.uk/MDRSdtmIgD/CDISC/V1#IG-CDISC_SDTMIGAE_AESTDY> bd:name "AESTDY"^^xsd:string . 
<http://www.assero.co.uk/MDRSdtmIgD/CDISC/V1#IG-CDISC_SDTMIGAE_AESTDY> bd:basedOnVariable <http://www.assero.co.uk/MDRSdtmIgD/CDISC/V1#IG-CDISC_SDTMIGAE_AESTDY_VR> . 
<http://www.assero.co.uk/MDRSdtmIgD/CDISC/V1#IG-CDISC_SDTMIGAE_AESTDY_VR> rdf:type bo:CReference . 
<http://www.assero.co.uk/MDRSdtmIgD/CDISC/V1#IG-CDISC_SDTMIGAE_AESTDY_VR> bo:hasColumn <http://www.assero.co.uk/MDRSdtmMd/CDISC/V1#M-CDISC_SDTMMODEL_EVENTS_xxSTDY> . 
<http://www.assero.co.uk/MDRSdtmIgD/CDISC/V1#IG-CDISC_SDTMIGAE_AESTDY_VR> bo:enabled "true"^^xsd:boolean . 
<http://www.assero.co.uk/MDRSdtmIgD/CDISC/V1#IG-CDISC_SDTMIGAE_AESTDY_VR> bo:optional "false"^^xsd:boolean . 
<http://www.assero.co.uk/MDRSdtmIgD/CDISC/V1#IG-CDISC_SDTMIGAE_AESTDY_VR> bo:ordinal "1"^^xsd:positiveInteger . 
<http://www.assero.co.uk/MDRSdtmIgD/CDISC/V1#IG-CDISC_SDTMIGAE_AESTDY> bd:compliance <http://www.assero.co.uk/MDRSdtmIgD/CDISC/V1#IG-CDISC_SDTMIGAE_C_PERMISSIBLE> . 
<http://www.assero.co.uk/MDRSdtmIgD/CDISC/V1#IG-CDISC_SDTMIGAE> bd:includesColumn <http://www.assero.co.uk/MDRSdtmIgD/CDISC/V1#IG-CDISC_SDTMIGAE_AESTDY> . 
<http://www.assero.co.uk/MDRSdtmIgD/CDISC/V1#IG-CDISC_SDTMIGAE_AEENDY> rdf:type bd:IgVariable . 
<http://www.assero.co.uk/MDRSdtmIgD/CDISC/V1#IG-CDISC_SDTMIGAE_AEENDY> rdfs:label "Study Day of End of Adverse Event"^^xsd:string . 
<http://www.assero.co.uk/MDRSdtmIgD/CDISC/V1#IG-CDISC_SDTMIGAE_AEENDY> bd:ordinal "37"^^xsd:positiveInteger . 
<http://www.assero.co.uk/MDRSdtmIgD/CDISC/V1#IG-CDISC_SDTMIGAE_AEENDY> bd:controlled_term_or_format ""^^xsd:string . 
<http://www.assero.co.uk/MDRSdtmIgD/CDISC/V1#IG-CDISC_SDTMIGAE_AEENDY> bd:notes "Study day of end of event relative to the sponsor-defined RFSTDTC."^^xsd:string . 
<http://www.assero.co.uk/MDRSdtmIgD/CDISC/V1#IG-CDISC_SDTMIGAE_AEENDY> bd:name "AEENDY"^^xsd:string . 
<http://www.assero.co.uk/MDRSdtmIgD/CDISC/V1#IG-CDISC_SDTMIGAE_AEENDY> bd:basedOnVariable <http://www.assero.co.uk/MDRSdtmIgD/CDISC/V1#IG-CDISC_SDTMIGAE_AEENDY_VR> . 
<http://www.assero.co.uk/MDRSdtmIgD/CDISC/V1#IG-CDISC_SDTMIGAE_AEENDY_VR> rdf:type bo:CReference . 
<http://www.assero.co.uk/MDRSdtmIgD/CDISC/V1#IG-CDISC_SDTMIGAE_AEENDY_VR> bo:hasColumn <http://www.assero.co.uk/MDRSdtmMd/CDISC/V1#M-CDISC_SDTMMODEL_EVENTS_xxENDY> . 
<http://www.assero.co.uk/MDRSdtmIgD/CDISC/V1#IG-CDISC_SDTMIGAE_AEENDY_VR> bo:enabled "true"^^xsd:boolean . 
<http://www.assero.co.uk/MDRSdtmIgD/CDISC/V1#IG-CDISC_SDTMIGAE_AEENDY_VR> bo:optional "false"^^xsd:boolean . 
<http://www.assero.co.uk/MDRSdtmIgD/CDISC/V1#IG-CDISC_SDTMIGAE_AEENDY_VR> bo:ordinal "1"^^xsd:positiveInteger . 
<http://www.assero.co.uk/MDRSdtmIgD/CDISC/V1#IG-CDISC_SDTMIGAE_AEENDY> bd:compliance <http://www.assero.co.uk/MDRSdtmIgD/CDISC/V1#IG-CDISC_SDTMIGAE_C_PERMISSIBLE> . 
<http://www.assero.co.uk/MDRSdtmIgD/CDISC/V1#IG-CDISC_SDTMIGAE> bd:includesColumn <http://www.assero.co.uk/MDRSdtmIgD/CDISC/V1#IG-CDISC_SDTMIGAE_AEENDY> . 
<http://www.assero.co.uk/MDRSdtmIgD/CDISC/V1#IG-CDISC_SDTMIGAE_AEDUR> rdf:type bd:IgVariable . 
<http://www.assero.co.uk/MDRSdtmIgD/CDISC/V1#IG-CDISC_SDTMIGAE_AEDUR> rdfs:label "Duration of Adverse Event"^^xsd:string . 
<http://www.assero.co.uk/MDRSdtmIgD/CDISC/V1#IG-CDISC_SDTMIGAE_AEDUR> bd:ordinal "38"^^xsd:positiveInteger . 
<http://www.assero.co.uk/MDRSdtmIgD/CDISC/V1#IG-CDISC_SDTMIGAE_AEDUR> bd:controlled_term_or_format "ISO 8601"^^xsd:string . 
<http://www.assero.co.uk/MDRSdtmIgD/CDISC/V1#IG-CDISC_SDTMIGAE_AEDUR> bd:notes "Collected duration and unit of an adverse event. Used only if collected on the CRF and not derived from start and end date/times. Example: P1DT2H (for 1 day, 2 hours)."^^xsd:string . 
<http://www.assero.co.uk/MDRSdtmIgD/CDISC/V1#IG-CDISC_SDTMIGAE_AEDUR> bd:name "AEDUR"^^xsd:string . 
<http://www.assero.co.uk/MDRSdtmIgD/CDISC/V1#IG-CDISC_SDTMIGAE_AEDUR> bd:basedOnVariable <http://www.assero.co.uk/MDRSdtmIgD/CDISC/V1#IG-CDISC_SDTMIGAE_AEDUR_VR> . 
<http://www.assero.co.uk/MDRSdtmIgD/CDISC/V1#IG-CDISC_SDTMIGAE_AEDUR_VR> rdf:type bo:CReference . 
<http://www.assero.co.uk/MDRSdtmIgD/CDISC/V1#IG-CDISC_SDTMIGAE_AEDUR_VR> bo:hasColumn <http://www.assero.co.uk/MDRSdtmMd/CDISC/V1#M-CDISC_SDTMMODEL_EVENTS_xxDUR> . 
<http://www.assero.co.uk/MDRSdtmIgD/CDISC/V1#IG-CDISC_SDTMIGAE_AEDUR_VR> bo:enabled "true"^^xsd:boolean . 
<http://www.assero.co.uk/MDRSdtmIgD/CDISC/V1#IG-CDISC_SDTMIGAE_AEDUR_VR> bo:optional "false"^^xsd:boolean . 
<http://www.assero.co.uk/MDRSdtmIgD/CDISC/V1#IG-CDISC_SDTMIGAE_AEDUR_VR> bo:ordinal "1"^^xsd:positiveInteger . 
<http://www.assero.co.uk/MDRSdtmIgD/CDISC/V1#IG-CDISC_SDTMIGAE_AEDUR> bd:compliance <http://www.assero.co.uk/MDRSdtmIgD/CDISC/V1#IG-CDISC_SDTMIGAE_C_PERMISSIBLE> . 
<http://www.assero.co.uk/MDRSdtmIgD/CDISC/V1#IG-CDISC_SDTMIGAE> bd:includesColumn <http://www.assero.co.uk/MDRSdtmIgD/CDISC/V1#IG-CDISC_SDTMIGAE_AEDUR> . 
<http://www.assero.co.uk/MDRSdtmIgD/CDISC/V1#IG-CDISC_SDTMIGAE_AEENRF> rdf:type bd:IgVariable . 
<http://www.assero.co.uk/MDRSdtmIgD/CDISC/V1#IG-CDISC_SDTMIGAE_AEENRF> rdfs:label "End Relative to Reference Period"^^xsd:string . 
<http://www.assero.co.uk/MDRSdtmIgD/CDISC/V1#IG-CDISC_SDTMIGAE_AEENRF> bd:ordinal "39"^^xsd:positiveInteger . 
<http://www.assero.co.uk/MDRSdtmIgD/CDISC/V1#IG-CDISC_SDTMIGAE_AEENRF> bd:controlled_term_or_format "(STENRF)"^^xsd:string . 
<http://www.assero.co.uk/MDRSdtmIgD/CDISC/V1#IG-CDISC_SDTMIGAE_AEENRF> bd:notes "Describes the end of the event relative to the sponsor-defined reference period. The sponsor-defined reference period is a continuous period of time defined by a discrete starting point (RFSTDTC) and a discrete ending point (RFENDTC) of the trial."^^xsd:string . 
<http://www.assero.co.uk/MDRSdtmIgD/CDISC/V1#IG-CDISC_SDTMIGAE_AEENRF> bd:name "AEENRF"^^xsd:string . 
<http://www.assero.co.uk/MDRSdtmIgD/CDISC/V1#IG-CDISC_SDTMIGAE_AEENRF> bd:basedOnVariable <http://www.assero.co.uk/MDRSdtmIgD/CDISC/V1#IG-CDISC_SDTMIGAE_AEENRF_VR> . 
<http://www.assero.co.uk/MDRSdtmIgD/CDISC/V1#IG-CDISC_SDTMIGAE_AEENRF_VR> rdf:type bo:CReference . 
<http://www.assero.co.uk/MDRSdtmIgD/CDISC/V1#IG-CDISC_SDTMIGAE_AEENRF_VR> bo:hasColumn <http://www.assero.co.uk/MDRSdtmMd/CDISC/V1#M-CDISC_SDTMMODEL_EVENTS_xxENRF> . 
<http://www.assero.co.uk/MDRSdtmIgD/CDISC/V1#IG-CDISC_SDTMIGAE_AEENRF_VR> bo:enabled "true"^^xsd:boolean . 
<http://www.assero.co.uk/MDRSdtmIgD/CDISC/V1#IG-CDISC_SDTMIGAE_AEENRF_VR> bo:optional "false"^^xsd:boolean . 
<http://www.assero.co.uk/MDRSdtmIgD/CDISC/V1#IG-CDISC_SDTMIGAE_AEENRF_VR> bo:ordinal "1"^^xsd:positiveInteger . 
<http://www.assero.co.uk/MDRSdtmIgD/CDISC/V1#IG-CDISC_SDTMIGAE_AEENRF> bd:compliance <http://www.assero.co.uk/MDRSdtmIgD/CDISC/V1#IG-CDISC_SDTMIGAE_C_PERMISSIBLE> . 
<http://www.assero.co.uk/MDRSdtmIgD/CDISC/V1#IG-CDISC_SDTMIGAE> bd:includesColumn <http://www.assero.co.uk/MDRSdtmIgD/CDISC/V1#IG-CDISC_SDTMIGAE_AEENRF> . 
<http://www.assero.co.uk/MDRSdtmIgD/CDISC/V1#IG-CDISC_SDTMIGAE_AEENRTPT> rdf:type bd:IgVariable . 
<http://www.assero.co.uk/MDRSdtmIgD/CDISC/V1#IG-CDISC_SDTMIGAE_AEENRTPT> rdfs:label "End Relative to Reference Time Point"^^xsd:string . 
<http://www.assero.co.uk/MDRSdtmIgD/CDISC/V1#IG-CDISC_SDTMIGAE_AEENRTPT> bd:ordinal "40"^^xsd:positiveInteger . 
<http://www.assero.co.uk/MDRSdtmIgD/CDISC/V1#IG-CDISC_SDTMIGAE_AEENRTPT> bd:controlled_term_or_format "(ENRTPT)"^^xsd:string . 
<http://www.assero.co.uk/MDRSdtmIgD/CDISC/V1#IG-CDISC_SDTMIGAE_AEENRTPT> bd:notes "Identifies the end of the event as being before or after the reference time point defined by variable AEENTPT."^^xsd:string . 
<http://www.assero.co.uk/MDRSdtmIgD/CDISC/V1#IG-CDISC_SDTMIGAE_AEENRTPT> bd:name "AEENRTPT"^^xsd:string . 
<http://www.assero.co.uk/MDRSdtmIgD/CDISC/V1#IG-CDISC_SDTMIGAE_AEENRTPT> bd:compliance <http://www.assero.co.uk/MDRSdtmIgD/CDISC/V1#IG-CDISC_SDTMIGAE_C_PERMISSIBLE> . 
<http://www.assero.co.uk/MDRSdtmIgD/CDISC/V1#IG-CDISC_SDTMIGAE> bd:includesColumn <http://www.assero.co.uk/MDRSdtmIgD/CDISC/V1#IG-CDISC_SDTMIGAE_AEENRTPT> . 
<http://www.assero.co.uk/MDRSdtmIgD/CDISC/V1#IG-CDISC_SDTMIGAE_AEENTPT> rdf:type bd:IgVariable . 
<http://www.assero.co.uk/MDRSdtmIgD/CDISC/V1#IG-CDISC_SDTMIGAE_AEENTPT> rdfs:label "End Reference Time Point"^^xsd:string . 
<http://www.assero.co.uk/MDRSdtmIgD/CDISC/V1#IG-CDISC_SDTMIGAE_AEENTPT> bd:ordinal "41"^^xsd:positiveInteger . 
<http://www.assero.co.uk/MDRSdtmIgD/CDISC/V1#IG-CDISC_SDTMIGAE_AEENTPT> bd:controlled_term_or_format ""^^xsd:string . 
<http://www.assero.co.uk/MDRSdtmIgD/CDISC/V1#IG-CDISC_SDTMIGAE_AEENTPT> bd:notes "Description of date/time in ISO 8601 character format of the reference point referred to by AEENRTPT. Examples: '2003-12-25' or 'VISIT 2'."^^xsd:string . 
<http://www.assero.co.uk/MDRSdtmIgD/CDISC/V1#IG-CDISC_SDTMIGAE_AEENTPT> bd:name "AEENTPT"^^xsd:string . 
<http://www.assero.co.uk/MDRSdtmIgD/CDISC/V1#IG-CDISC_SDTMIGAE_AEENTPT> bd:basedOnVariable <http://www.assero.co.uk/MDRSdtmIgD/CDISC/V1#IG-CDISC_SDTMIGAE_AEENTPT_VR> . 
<http://www.assero.co.uk/MDRSdtmIgD/CDISC/V1#IG-CDISC_SDTMIGAE_AEENTPT_VR> rdf:type bo:CReference . 
<http://www.assero.co.uk/MDRSdtmIgD/CDISC/V1#IG-CDISC_SDTMIGAE_AEENTPT_VR> bo:hasColumn <http://www.assero.co.uk/MDRSdtmMd/CDISC/V1#M-CDISC_SDTMMODEL_EVENTS_xxENTPT> . 
<http://www.assero.co.uk/MDRSdtmIgD/CDISC/V1#IG-CDISC_SDTMIGAE_AEENTPT_VR> bo:enabled "true"^^xsd:boolean . 
<http://www.assero.co.uk/MDRSdtmIgD/CDISC/V1#IG-CDISC_SDTMIGAE_AEENTPT_VR> bo:optional "false"^^xsd:boolean . 
<http://www.assero.co.uk/MDRSdtmIgD/CDISC/V1#IG-CDISC_SDTMIGAE_AEENTPT_VR> bo:ordinal "1"^^xsd:positiveInteger . 
<http://www.assero.co.uk/MDRSdtmIgD/CDISC/V1#IG-CDISC_SDTMIGAE_AEENTPT> bd:compliance <http://www.assero.co.uk/MDRSdtmIgD/CDISC/V1#IG-CDISC_SDTMIGAE_C_PERMISSIBLE> . 
<http://www.assero.co.uk/MDRSdtmIgD/CDISC/V1#IG-CDISC_SDTMIGAE> bd:includesColumn <http://www.assero.co.uk/MDRSdtmIgD/CDISC/V1#IG-CDISC_SDTMIGAE_AEENTPT> . 
<http://www.assero.co.uk/MDRSdtmIg/CDISC/V1#IG-CDISC_SDTMIG> bd:includesTabulation <http://www.assero.co.uk/MDRSdtmIg/CDISC/V1#IG-CDISC_SDTMIG_TR1> . 
<http://www.assero.co.uk/MDRSdtmIg/CDISC/V1#IG-CDISC_SDTMIG_TR1> rdf:type bo:TReference . 
<http://www.assero.co.uk/MDRSdtmIg/CDISC/V1#IG-CDISC_SDTMIG_TR1> bo:hasTabulation <http://www.assero.co.uk/MDRSdtmIgD/CDISC/V1#IG-CDISC_SDTMIGAE> . 
<http://www.assero.co.uk/MDRSdtmIg/CDISC/V1#IG-CDISC_SDTMIG_TR1> bo:enabled "true"^^xsd:boolean . 
<http://www.assero.co.uk/MDRSdtmIg/CDISC/V1#IG-CDISC_SDTMIG_TR1> bo:optional "false"^^xsd:boolean . 
<http://www.assero.co.uk/MDRSdtmIg/CDISC/V1#IG-CDISC_SDTMIG_TR1> bo:ordinal "1"^^xsd:positiveInteger . 
mdrItems:SI-CDISC_SDTMIGCE-1 rdf:type isoI:ScopedIdentifier . 
mdrItems:SI-CDISC_SDTMIGCE-1 isoI:identifier "SDTM IG CE"^^xsd:string . 
mdrItems:SI-CDISC_SDTMIGCE-1 isoI:version "1"^^xsd:positiveInteger . 
mdrItems:SI-CDISC_SDTMIGCE-1 isoI:versionLabel "3.1.2"^^xsd:string . 
mdrItems:SI-CDISC_SDTMIGCE-1 isoI:hasScope mdrItems:NS-CDISC . 
mdrItems:RS-CDISC_SDTMIGCE-1 rdf:type isoR:RegistrationState . 
mdrItems:RS-CDISC_SDTMIGCE-1 isoR:byAuthority mdrItems:RA-084433759 . 
mdrItems:RS-CDISC_SDTMIGCE-1 isoR:registrationStatus "Standard"^^xsd:string . 
mdrItems:RS-CDISC_SDTMIGCE-1 isoR:administrativeNote ""^^xsd:string . 
mdrItems:RS-CDISC_SDTMIGCE-1 isoR:effectiveDate "2016-01-01T00:00:00Z"^^xsd:dateTime . 
mdrItems:RS-CDISC_SDTMIGCE-1 isoR:untilDate "2016-01-01T00:00:00Z"^^xsd:dateTime . 
mdrItems:RS-CDISC_SDTMIGCE-1 isoR:unresolvedIssue ""^^xsd:string . 
mdrItems:RS-CDISC_SDTMIGCE-1 isoR:administrativeStatus ""^^xsd:string . 
mdrItems:RS-CDISC_SDTMIGCE-1 isoR:previousState "Standard"^^xsd:string . 
<http://www.assero.co.uk/MDRSdtmIgD/CDISC/V1#IG-CDISC_SDTMIGCE> rdf:type bd:IgDomain . 
<http://www.assero.co.uk/MDRSdtmIgD/CDISC/V1#IG-CDISC_SDTMIGCE> isoI:hasIdentifier mdrItems:SI-CDISC_SDTMIGCE-1 . 
<http://www.assero.co.uk/MDRSdtmIgD/CDISC/V1#IG-CDISC_SDTMIGCE> isoR:hasState mdrItems:RS-CDISC_SDTMIGCE-1 . 
<http://www.assero.co.uk/MDRSdtmIgD/CDISC/V1#IG-CDISC_SDTMIGCE> rdfs:label "Clinical Events"^^xsd:string . 
<http://www.assero.co.uk/MDRSdtmIgD/CDISC/V1#IG-CDISC_SDTMIGCE> isoT:creationDate "2008-11-12"^^xsd:string . 
<http://www.assero.co.uk/MDRSdtmIgD/CDISC/V1#IG-CDISC_SDTMIGCE> isoT:lastChangeDate "2016-09-02T23:17:38+01:00"^^xsd:string . 
<http://www.assero.co.uk/MDRSdtmIgD/CDISC/V1#IG-CDISC_SDTMIGCE> isoT:changeDescription ""^^xsd:string . 
<http://www.assero.co.uk/MDRSdtmIgD/CDISC/V1#IG-CDISC_SDTMIGCE> isoT:explanatoryComment ""^^xsd:string . 
<http://www.assero.co.uk/MDRSdtmIgD/CDISC/V1#IG-CDISC_SDTMIGCE> isoT:origin ""^^xsd:string . 
<http://www.assero.co.uk/MDRSdtmIgD/CDISC/V1#IG-CDISC_SDTMIGCE> bd:prefix "CE"^^xsd:string . 
<http://www.assero.co.uk/MDRSdtmIgD/CDISC/V1#IG-CDISC_SDTMIGCE> bd:structure "One record per event per subject"^^xsd:string . 
<http://www.assero.co.uk/MDRSdtmIgD/CDISC/V1#IG-CDISC_SDTMIGCE> bd:basedOnDomain <http://www.assero.co.uk/MDRSdtmIgD/CDISC/V1#IG-CDISC_SDTMIGCE_CLR> . 
<http://www.assero.co.uk/MDRSdtmIgD/CDISC/V1#IG-CDISC_SDTMIGCE_CLR> rdf:type bo:TReference . 
<http://www.assero.co.uk/MDRSdtmIgD/CDISC/V1#IG-CDISC_SDTMIGCE_CLR> bo:hasTabulation <http://www.assero.co.uk/MDRSdtmMd/CDISC/V1#M-CDISC_SDTMMODEL_EVENTS> . 
<http://www.assero.co.uk/MDRSdtmIgD/CDISC/V1#IG-CDISC_SDTMIGCE_CLR> bo:enabled "true"^^xsd:boolean . 
<http://www.assero.co.uk/MDRSdtmIgD/CDISC/V1#IG-CDISC_SDTMIGCE_CLR> bo:optional "false"^^xsd:boolean . 
<http://www.assero.co.uk/MDRSdtmIgD/CDISC/V1#IG-CDISC_SDTMIGCE_CLR> bo:ordinal "1"^^xsd:positiveInteger . 
<http://www.assero.co.uk/MDRSdtmIgD/CDISC/V1#IG-CDISC_SDTMIGCE_C_REQUIRED> rdf:type bd:VariableCompliance . 
<http://www.assero.co.uk/MDRSdtmIgD/CDISC/V1#IG-CDISC_SDTMIGCE_C_REQUIRED> rdfs:label "Required"^^xsd:string . 
<http://www.assero.co.uk/MDRSdtmIgD/CDISC/V1#IG-CDISC_SDTMIGCE_C_PERMISSIBLE> rdf:type bd:VariableCompliance . 
<http://www.assero.co.uk/MDRSdtmIgD/CDISC/V1#IG-CDISC_SDTMIGCE_C_PERMISSIBLE> rdfs:label "Permissible"^^xsd:string . 
<http://www.assero.co.uk/MDRSdtmIgD/CDISC/V1#IG-CDISC_SDTMIGCE_C_EXPECTED> rdf:type bd:VariableCompliance . 
<http://www.assero.co.uk/MDRSdtmIgD/CDISC/V1#IG-CDISC_SDTMIGCE_C_EXPECTED> rdfs:label "Expected"^^xsd:string . 
<http://www.assero.co.uk/MDRSdtmIgD/CDISC/V1#IG-CDISC_SDTMIGCE_STUDYID> rdf:type bd:IgVariable . 
<http://www.assero.co.uk/MDRSdtmIgD/CDISC/V1#IG-CDISC_SDTMIGCE_STUDYID> rdfs:label "Study Identifier"^^xsd:string . 
<http://www.assero.co.uk/MDRSdtmIgD/CDISC/V1#IG-CDISC_SDTMIGCE_STUDYID> bd:ordinal "1"^^xsd:positiveInteger . 
<http://www.assero.co.uk/MDRSdtmIgD/CDISC/V1#IG-CDISC_SDTMIGCE_STUDYID> bd:controlled_term_or_format ""^^xsd:string . 
<http://www.assero.co.uk/MDRSdtmIgD/CDISC/V1#IG-CDISC_SDTMIGCE_STUDYID> bd:notes "Unique identifier for a study."^^xsd:string . 
<http://www.assero.co.uk/MDRSdtmIgD/CDISC/V1#IG-CDISC_SDTMIGCE_STUDYID> bd:name "STUDYID"^^xsd:string . 
<http://www.assero.co.uk/MDRSdtmIgD/CDISC/V1#IG-CDISC_SDTMIGCE_STUDYID> bd:basedOnVariable <http://www.assero.co.uk/MDRSdtmIgD/CDISC/V1#IG-CDISC_SDTMIGCE_STUDYID_VR> . 
<http://www.assero.co.uk/MDRSdtmIgD/CDISC/V1#IG-CDISC_SDTMIGCE_STUDYID_VR> rdf:type bo:CReference . 
<http://www.assero.co.uk/MDRSdtmIgD/CDISC/V1#IG-CDISC_SDTMIGCE_STUDYID_VR> bo:hasColumn <http://www.assero.co.uk/MDRSdtmMd/CDISC/V1#M-CDISC_SDTMMODEL_EVENTS_STUDYID> . 
<http://www.assero.co.uk/MDRSdtmIgD/CDISC/V1#IG-CDISC_SDTMIGCE_STUDYID_VR> bo:enabled "true"^^xsd:boolean . 
<http://www.assero.co.uk/MDRSdtmIgD/CDISC/V1#IG-CDISC_SDTMIGCE_STUDYID_VR> bo:optional "false"^^xsd:boolean . 
<http://www.assero.co.uk/MDRSdtmIgD/CDISC/V1#IG-CDISC_SDTMIGCE_STUDYID_VR> bo:ordinal "1"^^xsd:positiveInteger . 
<http://www.assero.co.uk/MDRSdtmIgD/CDISC/V1#IG-CDISC_SDTMIGCE_STUDYID> bd:compliance <http://www.assero.co.uk/MDRSdtmIgD/CDISC/V1#IG-CDISC_SDTMIGCE_C_REQUIRED> . 
<http://www.assero.co.uk/MDRSdtmIgD/CDISC/V1#IG-CDISC_SDTMIGCE> bd:includesColumn <http://www.assero.co.uk/MDRSdtmIgD/CDISC/V1#IG-CDISC_SDTMIGCE_STUDYID> . 
<http://www.assero.co.uk/MDRSdtmIgD/CDISC/V1#IG-CDISC_SDTMIGCE_DOMAIN> rdf:type bd:IgVariable . 
<http://www.assero.co.uk/MDRSdtmIgD/CDISC/V1#IG-CDISC_SDTMIGCE_DOMAIN> rdfs:label "Domain Abbreviation"^^xsd:string . 
<http://www.assero.co.uk/MDRSdtmIgD/CDISC/V1#IG-CDISC_SDTMIGCE_DOMAIN> bd:ordinal "2"^^xsd:positiveInteger . 
<http://www.assero.co.uk/MDRSdtmIgD/CDISC/V1#IG-CDISC_SDTMIGCE_DOMAIN> bd:controlled_term_or_format ""^^xsd:string . 
<http://www.assero.co.uk/MDRSdtmIgD/CDISC/V1#IG-CDISC_SDTMIGCE_DOMAIN> bd:notes "Two-character abbreviation for the domain."^^xsd:string . 
<http://www.assero.co.uk/MDRSdtmIgD/CDISC/V1#IG-CDISC_SDTMIGCE_DOMAIN> bd:name "DOMAIN"^^xsd:string . 
<http://www.assero.co.uk/MDRSdtmIgD/CDISC/V1#IG-CDISC_SDTMIGCE_DOMAIN> bd:basedOnVariable <http://www.assero.co.uk/MDRSdtmIgD/CDISC/V1#IG-CDISC_SDTMIGCE_DOMAIN_VR> . 
<http://www.assero.co.uk/MDRSdtmIgD/CDISC/V1#IG-CDISC_SDTMIGCE_DOMAIN_VR> rdf:type bo:CReference . 
<http://www.assero.co.uk/MDRSdtmIgD/CDISC/V1#IG-CDISC_SDTMIGCE_DOMAIN_VR> bo:hasColumn <http://www.assero.co.uk/MDRSdtmMd/CDISC/V1#M-CDISC_SDTMMODEL_EVENTS_DOMAIN> . 
<http://www.assero.co.uk/MDRSdtmIgD/CDISC/V1#IG-CDISC_SDTMIGCE_DOMAIN_VR> bo:enabled "true"^^xsd:boolean . 
<http://www.assero.co.uk/MDRSdtmIgD/CDISC/V1#IG-CDISC_SDTMIGCE_DOMAIN_VR> bo:optional "false"^^xsd:boolean . 
<http://www.assero.co.uk/MDRSdtmIgD/CDISC/V1#IG-CDISC_SDTMIGCE_DOMAIN_VR> bo:ordinal "1"^^xsd:positiveInteger . 
<http://www.assero.co.uk/MDRSdtmIgD/CDISC/V1#IG-CDISC_SDTMIGCE_DOMAIN> bd:compliance <http://www.assero.co.uk/MDRSdtmIgD/CDISC/V1#IG-CDISC_SDTMIGCE_C_REQUIRED> . 
<http://www.assero.co.uk/MDRSdtmIgD/CDISC/V1#IG-CDISC_SDTMIGCE> bd:includesColumn <http://www.assero.co.uk/MDRSdtmIgD/CDISC/V1#IG-CDISC_SDTMIGCE_DOMAIN> . 
<http://www.assero.co.uk/MDRSdtmIgD/CDISC/V1#IG-CDISC_SDTMIGCE_USUBJID> rdf:type bd:IgVariable . 
<http://www.assero.co.uk/MDRSdtmIgD/CDISC/V1#IG-CDISC_SDTMIGCE_USUBJID> rdfs:label "Unique Subject Identifier"^^xsd:string . 
<http://www.assero.co.uk/MDRSdtmIgD/CDISC/V1#IG-CDISC_SDTMIGCE_USUBJID> bd:ordinal "3"^^xsd:positiveInteger . 
<http://www.assero.co.uk/MDRSdtmIgD/CDISC/V1#IG-CDISC_SDTMIGCE_USUBJID> bd:controlled_term_or_format ""^^xsd:string . 
<http://www.assero.co.uk/MDRSdtmIgD/CDISC/V1#IG-CDISC_SDTMIGCE_USUBJID> bd:notes "Identifier used to uniquely identify a subject across all studies for all applications or submissions involving the product."^^xsd:string . 
<http://www.assero.co.uk/MDRSdtmIgD/CDISC/V1#IG-CDISC_SDTMIGCE_USUBJID> bd:name "USUBJID"^^xsd:string . 
<http://www.assero.co.uk/MDRSdtmIgD/CDISC/V1#IG-CDISC_SDTMIGCE_USUBJID> bd:basedOnVariable <http://www.assero.co.uk/MDRSdtmIgD/CDISC/V1#IG-CDISC_SDTMIGCE_USUBJID_VR> . 
<http://www.assero.co.uk/MDRSdtmIgD/CDISC/V1#IG-CDISC_SDTMIGCE_USUBJID_VR> rdf:type bo:CReference . 
<http://www.assero.co.uk/MDRSdtmIgD/CDISC/V1#IG-CDISC_SDTMIGCE_USUBJID_VR> bo:hasColumn <http://www.assero.co.uk/MDRSdtmMd/CDISC/V1#M-CDISC_SDTMMODEL_EVENTS_USUBJID> . 
<http://www.assero.co.uk/MDRSdtmIgD/CDISC/V1#IG-CDISC_SDTMIGCE_USUBJID_VR> bo:enabled "true"^^xsd:boolean . 
<http://www.assero.co.uk/MDRSdtmIgD/CDISC/V1#IG-CDISC_SDTMIGCE_USUBJID_VR> bo:optional "false"^^xsd:boolean . 
<http://www.assero.co.uk/MDRSdtmIgD/CDISC/V1#IG-CDISC_SDTMIGCE_USUBJID_VR> bo:ordinal "1"^^xsd:positiveInteger . 
<http://www.assero.co.uk/MDRSdtmIgD/CDISC/V1#IG-CDISC_SDTMIGCE_USUBJID> bd:compliance <http://www.assero.co.uk/MDRSdtmIgD/CDISC/V1#IG-CDISC_SDTMIGCE_C_REQUIRED> . 
<http://www.assero.co.uk/MDRSdtmIgD/CDISC/V1#IG-CDISC_SDTMIGCE> bd:includesColumn <http://www.assero.co.uk/MDRSdtmIgD/CDISC/V1#IG-CDISC_SDTMIGCE_USUBJID> . 
<http://www.assero.co.uk/MDRSdtmIgD/CDISC/V1#IG-CDISC_SDTMIGCE_CESEQ> rdf:type bd:IgVariable . 
<http://www.assero.co.uk/MDRSdtmIgD/CDISC/V1#IG-CDISC_SDTMIGCE_CESEQ> rdfs:label "Sequence Number"^^xsd:string . 
<http://www.assero.co.uk/MDRSdtmIgD/CDISC/V1#IG-CDISC_SDTMIGCE_CESEQ> bd:ordinal "4"^^xsd:positiveInteger . 
<http://www.assero.co.uk/MDRSdtmIgD/CDISC/V1#IG-CDISC_SDTMIGCE_CESEQ> bd:controlled_term_or_format ""^^xsd:string . 
<http://www.assero.co.uk/MDRSdtmIgD/CDISC/V1#IG-CDISC_SDTMIGCE_CESEQ> bd:notes "Sequence Number given to ensure uniqueness of subject records within a domain. May be any valid number."^^xsd:string . 
<http://www.assero.co.uk/MDRSdtmIgD/CDISC/V1#IG-CDISC_SDTMIGCE_CESEQ> bd:name "CESEQ"^^xsd:string . 
<http://www.assero.co.uk/MDRSdtmIgD/CDISC/V1#IG-CDISC_SDTMIGCE_CESEQ> bd:basedOnVariable <http://www.assero.co.uk/MDRSdtmIgD/CDISC/V1#IG-CDISC_SDTMIGCE_CESEQ_VR> . 
<http://www.assero.co.uk/MDRSdtmIgD/CDISC/V1#IG-CDISC_SDTMIGCE_CESEQ_VR> rdf:type bo:CReference . 
<http://www.assero.co.uk/MDRSdtmIgD/CDISC/V1#IG-CDISC_SDTMIGCE_CESEQ_VR> bo:hasColumn <http://www.assero.co.uk/MDRSdtmMd/CDISC/V1#M-CDISC_SDTMMODEL_EVENTS_xxSEQ> . 
<http://www.assero.co.uk/MDRSdtmIgD/CDISC/V1#IG-CDISC_SDTMIGCE_CESEQ_VR> bo:enabled "true"^^xsd:boolean . 
<http://www.assero.co.uk/MDRSdtmIgD/CDISC/V1#IG-CDISC_SDTMIGCE_CESEQ_VR> bo:optional "false"^^xsd:boolean . 
<http://www.assero.co.uk/MDRSdtmIgD/CDISC/V1#IG-CDISC_SDTMIGCE_CESEQ_VR> bo:ordinal "1"^^xsd:positiveInteger . 
<http://www.assero.co.uk/MDRSdtmIgD/CDISC/V1#IG-CDISC_SDTMIGCE_CESEQ> bd:compliance <http://www.assero.co.uk/MDRSdtmIgD/CDISC/V1#IG-CDISC_SDTMIGCE_C_REQUIRED> . 
<http://www.assero.co.uk/MDRSdtmIgD/CDISC/V1#IG-CDISC_SDTMIGCE> bd:includesColumn <http://www.assero.co.uk/MDRSdtmIgD/CDISC/V1#IG-CDISC_SDTMIGCE_CESEQ> . 
<http://www.assero.co.uk/MDRSdtmIgD/CDISC/V1#IG-CDISC_SDTMIGCE_CEGRPID> rdf:type bd:IgVariable . 
<http://www.assero.co.uk/MDRSdtmIgD/CDISC/V1#IG-CDISC_SDTMIGCE_CEGRPID> rdfs:label "Group ID"^^xsd:string . 
<http://www.assero.co.uk/MDRSdtmIgD/CDISC/V1#IG-CDISC_SDTMIGCE_CEGRPID> bd:ordinal "5"^^xsd:positiveInteger . 
<http://www.assero.co.uk/MDRSdtmIgD/CDISC/V1#IG-CDISC_SDTMIGCE_CEGRPID> bd:controlled_term_or_format ""^^xsd:string . 
<http://www.assero.co.uk/MDRSdtmIgD/CDISC/V1#IG-CDISC_SDTMIGCE_CEGRPID> bd:notes "Used to tie together a block of related records for a subject within a domain."^^xsd:string . 
<http://www.assero.co.uk/MDRSdtmIgD/CDISC/V1#IG-CDISC_SDTMIGCE_CEGRPID> bd:name "CEGRPID"^^xsd:string . 
<http://www.assero.co.uk/MDRSdtmIgD/CDISC/V1#IG-CDISC_SDTMIGCE_CEGRPID> bd:basedOnVariable <http://www.assero.co.uk/MDRSdtmIgD/CDISC/V1#IG-CDISC_SDTMIGCE_CEGRPID_VR> . 
<http://www.assero.co.uk/MDRSdtmIgD/CDISC/V1#IG-CDISC_SDTMIGCE_CEGRPID_VR> rdf:type bo:CReference . 
<http://www.assero.co.uk/MDRSdtmIgD/CDISC/V1#IG-CDISC_SDTMIGCE_CEGRPID_VR> bo:hasColumn <http://www.assero.co.uk/MDRSdtmMd/CDISC/V1#M-CDISC_SDTMMODEL_EVENTS_xxGRPID> . 
<http://www.assero.co.uk/MDRSdtmIgD/CDISC/V1#IG-CDISC_SDTMIGCE_CEGRPID_VR> bo:enabled "true"^^xsd:boolean . 
<http://www.assero.co.uk/MDRSdtmIgD/CDISC/V1#IG-CDISC_SDTMIGCE_CEGRPID_VR> bo:optional "false"^^xsd:boolean . 
<http://www.assero.co.uk/MDRSdtmIgD/CDISC/V1#IG-CDISC_SDTMIGCE_CEGRPID_VR> bo:ordinal "1"^^xsd:positiveInteger . 
<http://www.assero.co.uk/MDRSdtmIgD/CDISC/V1#IG-CDISC_SDTMIGCE_CEGRPID> bd:compliance <http://www.assero.co.uk/MDRSdtmIgD/CDISC/V1#IG-CDISC_SDTMIGCE_C_PERMISSIBLE> . 
<http://www.assero.co.uk/MDRSdtmIgD/CDISC/V1#IG-CDISC_SDTMIGCE> bd:includesColumn <http://www.assero.co.uk/MDRSdtmIgD/CDISC/V1#IG-CDISC_SDTMIGCE_CEGRPID> . 
<http://www.assero.co.uk/MDRSdtmIgD/CDISC/V1#IG-CDISC_SDTMIGCE_CEREFID> rdf:type bd:IgVariable . 
<http://www.assero.co.uk/MDRSdtmIgD/CDISC/V1#IG-CDISC_SDTMIGCE_CEREFID> rdfs:label "Reference ID"^^xsd:string . 
<http://www.assero.co.uk/MDRSdtmIgD/CDISC/V1#IG-CDISC_SDTMIGCE_CEREFID> bd:ordinal "6"^^xsd:positiveInteger . 
<http://www.assero.co.uk/MDRSdtmIgD/CDISC/V1#IG-CDISC_SDTMIGCE_CEREFID> bd:controlled_term_or_format ""^^xsd:string . 
<http://www.assero.co.uk/MDRSdtmIgD/CDISC/V1#IG-CDISC_SDTMIGCE_CEREFID> bd:notes "Internal or external identifier."^^xsd:string . 
<http://www.assero.co.uk/MDRSdtmIgD/CDISC/V1#IG-CDISC_SDTMIGCE_CEREFID> bd:name "CEREFID"^^xsd:string . 
<http://www.assero.co.uk/MDRSdtmIgD/CDISC/V1#IG-CDISC_SDTMIGCE_CEREFID> bd:basedOnVariable <http://www.assero.co.uk/MDRSdtmIgD/CDISC/V1#IG-CDISC_SDTMIGCE_CEREFID_VR> . 
<http://www.assero.co.uk/MDRSdtmIgD/CDISC/V1#IG-CDISC_SDTMIGCE_CEREFID_VR> rdf:type bo:CReference . 
<http://www.assero.co.uk/MDRSdtmIgD/CDISC/V1#IG-CDISC_SDTMIGCE_CEREFID_VR> bo:hasColumn <http://www.assero.co.uk/MDRSdtmMd/CDISC/V1#M-CDISC_SDTMMODEL_EVENTS_xxREFID> . 
<http://www.assero.co.uk/MDRSdtmIgD/CDISC/V1#IG-CDISC_SDTMIGCE_CEREFID_VR> bo:enabled "true"^^xsd:boolean . 
<http://www.assero.co.uk/MDRSdtmIgD/CDISC/V1#IG-CDISC_SDTMIGCE_CEREFID_VR> bo:optional "false"^^xsd:boolean . 
<http://www.assero.co.uk/MDRSdtmIgD/CDISC/V1#IG-CDISC_SDTMIGCE_CEREFID_VR> bo:ordinal "1"^^xsd:positiveInteger . 
<http://www.assero.co.uk/MDRSdtmIgD/CDISC/V1#IG-CDISC_SDTMIGCE_CEREFID> bd:compliance <http://www.assero.co.uk/MDRSdtmIgD/CDISC/V1#IG-CDISC_SDTMIGCE_C_PERMISSIBLE> . 
<http://www.assero.co.uk/MDRSdtmIgD/CDISC/V1#IG-CDISC_SDTMIGCE> bd:includesColumn <http://www.assero.co.uk/MDRSdtmIgD/CDISC/V1#IG-CDISC_SDTMIGCE_CEREFID> . 
<http://www.assero.co.uk/MDRSdtmIgD/CDISC/V1#IG-CDISC_SDTMIGCE_CESPID> rdf:type bd:IgVariable . 
<http://www.assero.co.uk/MDRSdtmIgD/CDISC/V1#IG-CDISC_SDTMIGCE_CESPID> rdfs:label "Sponsor-Defined Identifier"^^xsd:string . 
<http://www.assero.co.uk/MDRSdtmIgD/CDISC/V1#IG-CDISC_SDTMIGCE_CESPID> bd:ordinal "7"^^xsd:positiveInteger . 
<http://www.assero.co.uk/MDRSdtmIgD/CDISC/V1#IG-CDISC_SDTMIGCE_CESPID> bd:controlled_term_or_format ""^^xsd:string . 
<http://www.assero.co.uk/MDRSdtmIgD/CDISC/V1#IG-CDISC_SDTMIGCE_CESPID> bd:notes "Sponsor-defined reference number. Perhaps pre-printed on the CRF as an explicit line identifier or defined in the sponsor's operational database. Example: Line number on a CRF page."^^xsd:string . 
<http://www.assero.co.uk/MDRSdtmIgD/CDISC/V1#IG-CDISC_SDTMIGCE_CESPID> bd:name "CESPID"^^xsd:string . 
<http://www.assero.co.uk/MDRSdtmIgD/CDISC/V1#IG-CDISC_SDTMIGCE_CESPID> bd:basedOnVariable <http://www.assero.co.uk/MDRSdtmIgD/CDISC/V1#IG-CDISC_SDTMIGCE_CESPID_VR> . 
<http://www.assero.co.uk/MDRSdtmIgD/CDISC/V1#IG-CDISC_SDTMIGCE_CESPID_VR> rdf:type bo:CReference . 
<http://www.assero.co.uk/MDRSdtmIgD/CDISC/V1#IG-CDISC_SDTMIGCE_CESPID_VR> bo:hasColumn <http://www.assero.co.uk/MDRSdtmMd/CDISC/V1#M-CDISC_SDTMMODEL_EVENTS_xxSPID> . 
<http://www.assero.co.uk/MDRSdtmIgD/CDISC/V1#IG-CDISC_SDTMIGCE_CESPID_VR> bo:enabled "true"^^xsd:boolean . 
<http://www.assero.co.uk/MDRSdtmIgD/CDISC/V1#IG-CDISC_SDTMIGCE_CESPID_VR> bo:optional "false"^^xsd:boolean . 
<http://www.assero.co.uk/MDRSdtmIgD/CDISC/V1#IG-CDISC_SDTMIGCE_CESPID_VR> bo:ordinal "1"^^xsd:positiveInteger . 
<http://www.assero.co.uk/MDRSdtmIgD/CDISC/V1#IG-CDISC_SDTMIGCE_CESPID> bd:compliance <http://www.assero.co.uk/MDRSdtmIgD/CDISC/V1#IG-CDISC_SDTMIGCE_C_PERMISSIBLE> . 
<http://www.assero.co.uk/MDRSdtmIgD/CDISC/V1#IG-CDISC_SDTMIGCE> bd:includesColumn <http://www.assero.co.uk/MDRSdtmIgD/CDISC/V1#IG-CDISC_SDTMIGCE_CESPID> . 
<http://www.assero.co.uk/MDRSdtmIgD/CDISC/V1#IG-CDISC_SDTMIGCE_CETERM> rdf:type bd:IgVariable . 
<http://www.assero.co.uk/MDRSdtmIgD/CDISC/V1#IG-CDISC_SDTMIGCE_CETERM> rdfs:label "Reported Term for the Clinical Event"^^xsd:string . 
<http://www.assero.co.uk/MDRSdtmIgD/CDISC/V1#IG-CDISC_SDTMIGCE_CETERM> bd:ordinal "8"^^xsd:positiveInteger . 
<http://www.assero.co.uk/MDRSdtmIgD/CDISC/V1#IG-CDISC_SDTMIGCE_CETERM> bd:controlled_term_or_format ""^^xsd:string . 
<http://www.assero.co.uk/MDRSdtmIgD/CDISC/V1#IG-CDISC_SDTMIGCE_CETERM> bd:notes "Term for the medical condition or event. Most likely pre-printed on CRF."^^xsd:string . 
<http://www.assero.co.uk/MDRSdtmIgD/CDISC/V1#IG-CDISC_SDTMIGCE_CETERM> bd:name "CETERM"^^xsd:string . 
<http://www.assero.co.uk/MDRSdtmIgD/CDISC/V1#IG-CDISC_SDTMIGCE_CETERM> bd:basedOnVariable <http://www.assero.co.uk/MDRSdtmIgD/CDISC/V1#IG-CDISC_SDTMIGCE_CETERM_VR> . 
<http://www.assero.co.uk/MDRSdtmIgD/CDISC/V1#IG-CDISC_SDTMIGCE_CETERM_VR> rdf:type bo:CReference . 
<http://www.assero.co.uk/MDRSdtmIgD/CDISC/V1#IG-CDISC_SDTMIGCE_CETERM_VR> bo:hasColumn <http://www.assero.co.uk/MDRSdtmMd/CDISC/V1#M-CDISC_SDTMMODEL_EVENTS_xxTERM> . 
<http://www.assero.co.uk/MDRSdtmIgD/CDISC/V1#IG-CDISC_SDTMIGCE_CETERM_VR> bo:enabled "true"^^xsd:boolean . 
<http://www.assero.co.uk/MDRSdtmIgD/CDISC/V1#IG-CDISC_SDTMIGCE_CETERM_VR> bo:optional "false"^^xsd:boolean . 
<http://www.assero.co.uk/MDRSdtmIgD/CDISC/V1#IG-CDISC_SDTMIGCE_CETERM_VR> bo:ordinal "1"^^xsd:positiveInteger . 
<http://www.assero.co.uk/MDRSdtmIgD/CDISC/V1#IG-CDISC_SDTMIGCE_CETERM> bd:compliance <http://www.assero.co.uk/MDRSdtmIgD/CDISC/V1#IG-CDISC_SDTMIGCE_C_REQUIRED> . 
<http://www.assero.co.uk/MDRSdtmIgD/CDISC/V1#IG-CDISC_SDTMIGCE> bd:includesColumn <http://www.assero.co.uk/MDRSdtmIgD/CDISC/V1#IG-CDISC_SDTMIGCE_CETERM> . 
<http://www.assero.co.uk/MDRSdtmIgD/CDISC/V1#IG-CDISC_SDTMIGCE_CEDECOD> rdf:type bd:IgVariable . 
<http://www.assero.co.uk/MDRSdtmIgD/CDISC/V1#IG-CDISC_SDTMIGCE_CEDECOD> rdfs:label "Dictionary-Derived Term"^^xsd:string . 
<http://www.assero.co.uk/MDRSdtmIgD/CDISC/V1#IG-CDISC_SDTMIGCE_CEDECOD> bd:ordinal "9"^^xsd:positiveInteger . 
<http://www.assero.co.uk/MDRSdtmIgD/CDISC/V1#IG-CDISC_SDTMIGCE_CEDECOD> bd:controlled_term_or_format ""^^xsd:string . 
<http://www.assero.co.uk/MDRSdtmIgD/CDISC/V1#IG-CDISC_SDTMIGCE_CEDECOD> bd:notes "Controlled terminology for the name of the clinical event. The sponsor is expected to provide the dictionary name and version used to map the terms utilizing the define.xml external codelist attributes"^^xsd:string . 
<http://www.assero.co.uk/MDRSdtmIgD/CDISC/V1#IG-CDISC_SDTMIGCE_CEDECOD> bd:name "CEDECOD"^^xsd:string . 
<http://www.assero.co.uk/MDRSdtmIgD/CDISC/V1#IG-CDISC_SDTMIGCE_CEDECOD> bd:basedOnVariable <http://www.assero.co.uk/MDRSdtmIgD/CDISC/V1#IG-CDISC_SDTMIGCE_CEDECOD_VR> . 
<http://www.assero.co.uk/MDRSdtmIgD/CDISC/V1#IG-CDISC_SDTMIGCE_CEDECOD_VR> rdf:type bo:CReference . 
<http://www.assero.co.uk/MDRSdtmIgD/CDISC/V1#IG-CDISC_SDTMIGCE_CEDECOD_VR> bo:hasColumn <http://www.assero.co.uk/MDRSdtmMd/CDISC/V1#M-CDISC_SDTMMODEL_EVENTS_xxDECOD> . 
<http://www.assero.co.uk/MDRSdtmIgD/CDISC/V1#IG-CDISC_SDTMIGCE_CEDECOD_VR> bo:enabled "true"^^xsd:boolean . 
<http://www.assero.co.uk/MDRSdtmIgD/CDISC/V1#IG-CDISC_SDTMIGCE_CEDECOD_VR> bo:optional "false"^^xsd:boolean . 
<http://www.assero.co.uk/MDRSdtmIgD/CDISC/V1#IG-CDISC_SDTMIGCE_CEDECOD_VR> bo:ordinal "1"^^xsd:positiveInteger . 
<http://www.assero.co.uk/MDRSdtmIgD/CDISC/V1#IG-CDISC_SDTMIGCE_CEDECOD> bd:compliance <http://www.assero.co.uk/MDRSdtmIgD/CDISC/V1#IG-CDISC_SDTMIGCE_C_PERMISSIBLE> . 
<http://www.assero.co.uk/MDRSdtmIgD/CDISC/V1#IG-CDISC_SDTMIGCE> bd:includesColumn <http://www.assero.co.uk/MDRSdtmIgD/CDISC/V1#IG-CDISC_SDTMIGCE_CEDECOD> . 
<http://www.assero.co.uk/MDRSdtmIgD/CDISC/V1#IG-CDISC_SDTMIGCE_CECAT> rdf:type bd:IgVariable . 
<http://www.assero.co.uk/MDRSdtmIgD/CDISC/V1#IG-CDISC_SDTMIGCE_CECAT> rdfs:label "Category for Clinical Event"^^xsd:string . 
<http://www.assero.co.uk/MDRSdtmIgD/CDISC/V1#IG-CDISC_SDTMIGCE_CECAT> bd:ordinal "10"^^xsd:positiveInteger . 
<http://www.assero.co.uk/MDRSdtmIgD/CDISC/V1#IG-CDISC_SDTMIGCE_CECAT> bd:controlled_term_or_format ""^^xsd:string . 
<http://www.assero.co.uk/MDRSdtmIgD/CDISC/V1#IG-CDISC_SDTMIGCE_CECAT> bd:notes "Used to define a category of related records."^^xsd:string . 
<http://www.assero.co.uk/MDRSdtmIgD/CDISC/V1#IG-CDISC_SDTMIGCE_CECAT> bd:name "CECAT"^^xsd:string . 
<http://www.assero.co.uk/MDRSdtmIgD/CDISC/V1#IG-CDISC_SDTMIGCE_CECAT> bd:basedOnVariable <http://www.assero.co.uk/MDRSdtmIgD/CDISC/V1#IG-CDISC_SDTMIGCE_CECAT_VR> . 
<http://www.assero.co.uk/MDRSdtmIgD/CDISC/V1#IG-CDISC_SDTMIGCE_CECAT_VR> rdf:type bo:CReference . 
<http://www.assero.co.uk/MDRSdtmIgD/CDISC/V1#IG-CDISC_SDTMIGCE_CECAT_VR> bo:hasColumn <http://www.assero.co.uk/MDRSdtmMd/CDISC/V1#M-CDISC_SDTMMODEL_EVENTS_xxCAT> . 
<http://www.assero.co.uk/MDRSdtmIgD/CDISC/V1#IG-CDISC_SDTMIGCE_CECAT_VR> bo:enabled "true"^^xsd:boolean . 
<http://www.assero.co.uk/MDRSdtmIgD/CDISC/V1#IG-CDISC_SDTMIGCE_CECAT_VR> bo:optional "false"^^xsd:boolean . 
<http://www.assero.co.uk/MDRSdtmIgD/CDISC/V1#IG-CDISC_SDTMIGCE_CECAT_VR> bo:ordinal "1"^^xsd:positiveInteger . 
<http://www.assero.co.uk/MDRSdtmIgD/CDISC/V1#IG-CDISC_SDTMIGCE_CECAT> bd:compliance <http://www.assero.co.uk/MDRSdtmIgD/CDISC/V1#IG-CDISC_SDTMIGCE_C_PERMISSIBLE> . 
<http://www.assero.co.uk/MDRSdtmIgD/CDISC/V1#IG-CDISC_SDTMIGCE> bd:includesColumn <http://www.assero.co.uk/MDRSdtmIgD/CDISC/V1#IG-CDISC_SDTMIGCE_CECAT> . 
<http://www.assero.co.uk/MDRSdtmIgD/CDISC/V1#IG-CDISC_SDTMIGCE_CESCAT> rdf:type bd:IgVariable . 
<http://www.assero.co.uk/MDRSdtmIgD/CDISC/V1#IG-CDISC_SDTMIGCE_CESCAT> rdfs:label "Subcategory for Clinical Event"^^xsd:string . 
<http://www.assero.co.uk/MDRSdtmIgD/CDISC/V1#IG-CDISC_SDTMIGCE_CESCAT> bd:ordinal "11"^^xsd:positiveInteger . 
<http://www.assero.co.uk/MDRSdtmIgD/CDISC/V1#IG-CDISC_SDTMIGCE_CESCAT> bd:controlled_term_or_format ""^^xsd:string . 
<http://www.assero.co.uk/MDRSdtmIgD/CDISC/V1#IG-CDISC_SDTMIGCE_CESCAT> bd:notes "A further categorization of the condition or event."^^xsd:string . 
<http://www.assero.co.uk/MDRSdtmIgD/CDISC/V1#IG-CDISC_SDTMIGCE_CESCAT> bd:name "CESCAT"^^xsd:string . 
<http://www.assero.co.uk/MDRSdtmIgD/CDISC/V1#IG-CDISC_SDTMIGCE_CESCAT> bd:basedOnVariable <http://www.assero.co.uk/MDRSdtmIgD/CDISC/V1#IG-CDISC_SDTMIGCE_CESCAT_VR> . 
<http://www.assero.co.uk/MDRSdtmIgD/CDISC/V1#IG-CDISC_SDTMIGCE_CESCAT_VR> rdf:type bo:CReference . 
<http://www.assero.co.uk/MDRSdtmIgD/CDISC/V1#IG-CDISC_SDTMIGCE_CESCAT_VR> bo:hasColumn <http://www.assero.co.uk/MDRSdtmMd/CDISC/V1#M-CDISC_SDTMMODEL_EVENTS_xxSCAT> . 
<http://www.assero.co.uk/MDRSdtmIgD/CDISC/V1#IG-CDISC_SDTMIGCE_CESCAT_VR> bo:enabled "true"^^xsd:boolean . 
<http://www.assero.co.uk/MDRSdtmIgD/CDISC/V1#IG-CDISC_SDTMIGCE_CESCAT_VR> bo:optional "false"^^xsd:boolean . 
<http://www.assero.co.uk/MDRSdtmIgD/CDISC/V1#IG-CDISC_SDTMIGCE_CESCAT_VR> bo:ordinal "1"^^xsd:positiveInteger . 
<http://www.assero.co.uk/MDRSdtmIgD/CDISC/V1#IG-CDISC_SDTMIGCE_CESCAT> bd:compliance <http://www.assero.co.uk/MDRSdtmIgD/CDISC/V1#IG-CDISC_SDTMIGCE_C_PERMISSIBLE> . 
<http://www.assero.co.uk/MDRSdtmIgD/CDISC/V1#IG-CDISC_SDTMIGCE> bd:includesColumn <http://www.assero.co.uk/MDRSdtmIgD/CDISC/V1#IG-CDISC_SDTMIGCE_CESCAT> . 
<http://www.assero.co.uk/MDRSdtmIgD/CDISC/V1#IG-CDISC_SDTMIGCE_CEPRESP> rdf:type bd:IgVariable . 
<http://www.assero.co.uk/MDRSdtmIgD/CDISC/V1#IG-CDISC_SDTMIGCE_CEPRESP> rdfs:label "Clinical Event Pre-Specified"^^xsd:string . 
<http://www.assero.co.uk/MDRSdtmIgD/CDISC/V1#IG-CDISC_SDTMIGCE_CEPRESP> bd:ordinal "12"^^xsd:positiveInteger . 
<http://www.assero.co.uk/MDRSdtmIgD/CDISC/V1#IG-CDISC_SDTMIGCE_CEPRESP> bd:controlled_term_or_format "(NY)"^^xsd:string . 
<http://www.assero.co.uk/MDRSdtmIgD/CDISC/V1#IG-CDISC_SDTMIGCE_CEPRESP> bd:notes "Used to indicate whether the Event in CETERM was pre-specified. Value is Y for pre-specified events, null for spontaneously reported events."^^xsd:string . 
<http://www.assero.co.uk/MDRSdtmIgD/CDISC/V1#IG-CDISC_SDTMIGCE_CEPRESP> bd:name "CEPRESP"^^xsd:string . 
<http://www.assero.co.uk/MDRSdtmIgD/CDISC/V1#IG-CDISC_SDTMIGCE_CEPRESP> bd:basedOnVariable <http://www.assero.co.uk/MDRSdtmIgD/CDISC/V1#IG-CDISC_SDTMIGCE_CEPRESP_VR> . 
<http://www.assero.co.uk/MDRSdtmIgD/CDISC/V1#IG-CDISC_SDTMIGCE_CEPRESP_VR> rdf:type bo:CReference . 
<http://www.assero.co.uk/MDRSdtmIgD/CDISC/V1#IG-CDISC_SDTMIGCE_CEPRESP_VR> bo:hasColumn <http://www.assero.co.uk/MDRSdtmMd/CDISC/V1#M-CDISC_SDTMMODEL_EVENTS_xxPRESP> . 
<http://www.assero.co.uk/MDRSdtmIgD/CDISC/V1#IG-CDISC_SDTMIGCE_CEPRESP_VR> bo:enabled "true"^^xsd:boolean . 
<http://www.assero.co.uk/MDRSdtmIgD/CDISC/V1#IG-CDISC_SDTMIGCE_CEPRESP_VR> bo:optional "false"^^xsd:boolean . 
<http://www.assero.co.uk/MDRSdtmIgD/CDISC/V1#IG-CDISC_SDTMIGCE_CEPRESP_VR> bo:ordinal "1"^^xsd:positiveInteger . 
<http://www.assero.co.uk/MDRSdtmIgD/CDISC/V1#IG-CDISC_SDTMIGCE_CEPRESP> bd:compliance <http://www.assero.co.uk/MDRSdtmIgD/CDISC/V1#IG-CDISC_SDTMIGCE_C_PERMISSIBLE> . 
<http://www.assero.co.uk/MDRSdtmIgD/CDISC/V1#IG-CDISC_SDTMIGCE> bd:includesColumn <http://www.assero.co.uk/MDRSdtmIgD/CDISC/V1#IG-CDISC_SDTMIGCE_CEPRESP> . 
<http://www.assero.co.uk/MDRSdtmIgD/CDISC/V1#IG-CDISC_SDTMIGCE_CEOCCUR> rdf:type bd:IgVariable . 
<http://www.assero.co.uk/MDRSdtmIgD/CDISC/V1#IG-CDISC_SDTMIGCE_CEOCCUR> rdfs:label "Clinical Event Occurrence"^^xsd:string . 
<http://www.assero.co.uk/MDRSdtmIgD/CDISC/V1#IG-CDISC_SDTMIGCE_CEOCCUR> bd:ordinal "13"^^xsd:positiveInteger . 
<http://www.assero.co.uk/MDRSdtmIgD/CDISC/V1#IG-CDISC_SDTMIGCE_CEOCCUR> bd:controlled_term_or_format "(NY)"^^xsd:string . 
<http://www.assero.co.uk/MDRSdtmIgD/CDISC/V1#IG-CDISC_SDTMIGCE_CEOCCUR> bd:notes "Used when the occurrence of specific events is solicited to indicate whether or not a clinical event occurred. Values are null for spontaneously reported events."^^xsd:string . 
<http://www.assero.co.uk/MDRSdtmIgD/CDISC/V1#IG-CDISC_SDTMIGCE_CEOCCUR> bd:name "CEOCCUR"^^xsd:string . 
<http://www.assero.co.uk/MDRSdtmIgD/CDISC/V1#IG-CDISC_SDTMIGCE_CEOCCUR> bd:basedOnVariable <http://www.assero.co.uk/MDRSdtmIgD/CDISC/V1#IG-CDISC_SDTMIGCE_CEOCCUR_VR> . 
<http://www.assero.co.uk/MDRSdtmIgD/CDISC/V1#IG-CDISC_SDTMIGCE_CEOCCUR_VR> rdf:type bo:CReference . 
<http://www.assero.co.uk/MDRSdtmIgD/CDISC/V1#IG-CDISC_SDTMIGCE_CEOCCUR_VR> bo:hasColumn <http://www.assero.co.uk/MDRSdtmMd/CDISC/V1#M-CDISC_SDTMMODEL_EVENTS_xxOCCUR> . 
<http://www.assero.co.uk/MDRSdtmIgD/CDISC/V1#IG-CDISC_SDTMIGCE_CEOCCUR_VR> bo:enabled "true"^^xsd:boolean . 
<http://www.assero.co.uk/MDRSdtmIgD/CDISC/V1#IG-CDISC_SDTMIGCE_CEOCCUR_VR> bo:optional "false"^^xsd:boolean . 
<http://www.assero.co.uk/MDRSdtmIgD/CDISC/V1#IG-CDISC_SDTMIGCE_CEOCCUR_VR> bo:ordinal "1"^^xsd:positiveInteger . 
<http://www.assero.co.uk/MDRSdtmIgD/CDISC/V1#IG-CDISC_SDTMIGCE_CEOCCUR> bd:compliance <http://www.assero.co.uk/MDRSdtmIgD/CDISC/V1#IG-CDISC_SDTMIGCE_C_PERMISSIBLE> . 
<http://www.assero.co.uk/MDRSdtmIgD/CDISC/V1#IG-CDISC_SDTMIGCE> bd:includesColumn <http://www.assero.co.uk/MDRSdtmIgD/CDISC/V1#IG-CDISC_SDTMIGCE_CEOCCUR> . 
<http://www.assero.co.uk/MDRSdtmIgD/CDISC/V1#IG-CDISC_SDTMIGCE_CESTAT> rdf:type bd:IgVariable . 
<http://www.assero.co.uk/MDRSdtmIgD/CDISC/V1#IG-CDISC_SDTMIGCE_CESTAT> rdfs:label "Completion Status"^^xsd:string . 
<http://www.assero.co.uk/MDRSdtmIgD/CDISC/V1#IG-CDISC_SDTMIGCE_CESTAT> bd:ordinal "14"^^xsd:positiveInteger . 
<http://www.assero.co.uk/MDRSdtmIgD/CDISC/V1#IG-CDISC_SDTMIGCE_CESTAT> bd:controlled_term_or_format "(ND)"^^xsd:string . 
<http://www.assero.co.uk/MDRSdtmIgD/CDISC/V1#IG-CDISC_SDTMIGCE_CESTAT> bd:notes "The status indicates that a question from a pre-specified list was not answered."^^xsd:string . 
<http://www.assero.co.uk/MDRSdtmIgD/CDISC/V1#IG-CDISC_SDTMIGCE_CESTAT> bd:name "CESTAT"^^xsd:string . 
<http://www.assero.co.uk/MDRSdtmIgD/CDISC/V1#IG-CDISC_SDTMIGCE_CESTAT> bd:basedOnVariable <http://www.assero.co.uk/MDRSdtmIgD/CDISC/V1#IG-CDISC_SDTMIGCE_CESTAT_VR> . 
<http://www.assero.co.uk/MDRSdtmIgD/CDISC/V1#IG-CDISC_SDTMIGCE_CESTAT_VR> rdf:type bo:CReference . 
<http://www.assero.co.uk/MDRSdtmIgD/CDISC/V1#IG-CDISC_SDTMIGCE_CESTAT_VR> bo:hasColumn <http://www.assero.co.uk/MDRSdtmMd/CDISC/V1#M-CDISC_SDTMMODEL_EVENTS_xxSTAT> . 
<http://www.assero.co.uk/MDRSdtmIgD/CDISC/V1#IG-CDISC_SDTMIGCE_CESTAT_VR> bo:enabled "true"^^xsd:boolean . 
<http://www.assero.co.uk/MDRSdtmIgD/CDISC/V1#IG-CDISC_SDTMIGCE_CESTAT_VR> bo:optional "false"^^xsd:boolean . 
<http://www.assero.co.uk/MDRSdtmIgD/CDISC/V1#IG-CDISC_SDTMIGCE_CESTAT_VR> bo:ordinal "1"^^xsd:positiveInteger . 
<http://www.assero.co.uk/MDRSdtmIgD/CDISC/V1#IG-CDISC_SDTMIGCE_CESTAT> bd:compliance <http://www.assero.co.uk/MDRSdtmIgD/CDISC/V1#IG-CDISC_SDTMIGCE_C_PERMISSIBLE> . 
<http://www.assero.co.uk/MDRSdtmIgD/CDISC/V1#IG-CDISC_SDTMIGCE> bd:includesColumn <http://www.assero.co.uk/MDRSdtmIgD/CDISC/V1#IG-CDISC_SDTMIGCE_CESTAT> . 
<http://www.assero.co.uk/MDRSdtmIgD/CDISC/V1#IG-CDISC_SDTMIGCE_CEREASND> rdf:type bd:IgVariable . 
<http://www.assero.co.uk/MDRSdtmIgD/CDISC/V1#IG-CDISC_SDTMIGCE_CEREASND> rdfs:label "Reason Clinical Event Not Collected"^^xsd:string . 
<http://www.assero.co.uk/MDRSdtmIgD/CDISC/V1#IG-CDISC_SDTMIGCE_CEREASND> bd:ordinal "15"^^xsd:positiveInteger . 
<http://www.assero.co.uk/MDRSdtmIgD/CDISC/V1#IG-CDISC_SDTMIGCE_CEREASND> bd:controlled_term_or_format ""^^xsd:string . 
<http://www.assero.co.uk/MDRSdtmIgD/CDISC/V1#IG-CDISC_SDTMIGCE_CEREASND> bd:notes "Describes the reason clinical event data was not collected. Used in conjunction with CESTAT when value is NOT DONE."^^xsd:string . 
<http://www.assero.co.uk/MDRSdtmIgD/CDISC/V1#IG-CDISC_SDTMIGCE_CEREASND> bd:name "CEREASND"^^xsd:string . 
<http://www.assero.co.uk/MDRSdtmIgD/CDISC/V1#IG-CDISC_SDTMIGCE_CEREASND> bd:basedOnVariable <http://www.assero.co.uk/MDRSdtmIgD/CDISC/V1#IG-CDISC_SDTMIGCE_CEREASND_VR> . 
<http://www.assero.co.uk/MDRSdtmIgD/CDISC/V1#IG-CDISC_SDTMIGCE_CEREASND_VR> rdf:type bo:CReference . 
<http://www.assero.co.uk/MDRSdtmIgD/CDISC/V1#IG-CDISC_SDTMIGCE_CEREASND_VR> bo:hasColumn <http://www.assero.co.uk/MDRSdtmMd/CDISC/V1#M-CDISC_SDTMMODEL_EVENTS_xxREASND> . 
<http://www.assero.co.uk/MDRSdtmIgD/CDISC/V1#IG-CDISC_SDTMIGCE_CEREASND_VR> bo:enabled "true"^^xsd:boolean . 
<http://www.assero.co.uk/MDRSdtmIgD/CDISC/V1#IG-CDISC_SDTMIGCE_CEREASND_VR> bo:optional "false"^^xsd:boolean . 
<http://www.assero.co.uk/MDRSdtmIgD/CDISC/V1#IG-CDISC_SDTMIGCE_CEREASND_VR> bo:ordinal "1"^^xsd:positiveInteger . 
<http://www.assero.co.uk/MDRSdtmIgD/CDISC/V1#IG-CDISC_SDTMIGCE_CEREASND> bd:compliance <http://www.assero.co.uk/MDRSdtmIgD/CDISC/V1#IG-CDISC_SDTMIGCE_C_PERMISSIBLE> . 
<http://www.assero.co.uk/MDRSdtmIgD/CDISC/V1#IG-CDISC_SDTMIGCE> bd:includesColumn <http://www.assero.co.uk/MDRSdtmIgD/CDISC/V1#IG-CDISC_SDTMIGCE_CEREASND> . 
<http://www.assero.co.uk/MDRSdtmIgD/CDISC/V1#IG-CDISC_SDTMIGCE_CEBODSYS> rdf:type bd:IgVariable . 
<http://www.assero.co.uk/MDRSdtmIgD/CDISC/V1#IG-CDISC_SDTMIGCE_CEBODSYS> rdfs:label "Body System or Organ Class"^^xsd:string . 
<http://www.assero.co.uk/MDRSdtmIgD/CDISC/V1#IG-CDISC_SDTMIGCE_CEBODSYS> bd:ordinal "16"^^xsd:positiveInteger . 
<http://www.assero.co.uk/MDRSdtmIgD/CDISC/V1#IG-CDISC_SDTMIGCE_CEBODSYS> bd:controlled_term_or_format ""^^xsd:string . 
<http://www.assero.co.uk/MDRSdtmIgD/CDISC/V1#IG-CDISC_SDTMIGCE_CEBODSYS> bd:notes "Dictionary-derived. Body system or organ class that is involved in an event or measurement from a standard hierarchy (e.g., MedDRA). When using a multi-axial dictionary such as MedDRA, this should contain the SOC used for the sponsor's analyses and summary tables which may not necessarily be the primary SOC."^^xsd:string . 
<http://www.assero.co.uk/MDRSdtmIgD/CDISC/V1#IG-CDISC_SDTMIGCE_CEBODSYS> bd:name "CEBODSYS"^^xsd:string . 
<http://www.assero.co.uk/MDRSdtmIgD/CDISC/V1#IG-CDISC_SDTMIGCE_CEBODSYS> bd:basedOnVariable <http://www.assero.co.uk/MDRSdtmIgD/CDISC/V1#IG-CDISC_SDTMIGCE_CEBODSYS_VR> . 
<http://www.assero.co.uk/MDRSdtmIgD/CDISC/V1#IG-CDISC_SDTMIGCE_CEBODSYS_VR> rdf:type bo:CReference . 
<http://www.assero.co.uk/MDRSdtmIgD/CDISC/V1#IG-CDISC_SDTMIGCE_CEBODSYS_VR> bo:hasColumn <http://www.assero.co.uk/MDRSdtmMd/CDISC/V1#M-CDISC_SDTMMODEL_EVENTS_xxBODSYS> . 
<http://www.assero.co.uk/MDRSdtmIgD/CDISC/V1#IG-CDISC_SDTMIGCE_CEBODSYS_VR> bo:enabled "true"^^xsd:boolean . 
<http://www.assero.co.uk/MDRSdtmIgD/CDISC/V1#IG-CDISC_SDTMIGCE_CEBODSYS_VR> bo:optional "false"^^xsd:boolean . 
<http://www.assero.co.uk/MDRSdtmIgD/CDISC/V1#IG-CDISC_SDTMIGCE_CEBODSYS_VR> bo:ordinal "1"^^xsd:positiveInteger . 
<http://www.assero.co.uk/MDRSdtmIgD/CDISC/V1#IG-CDISC_SDTMIGCE_CEBODSYS> bd:compliance <http://www.assero.co.uk/MDRSdtmIgD/CDISC/V1#IG-CDISC_SDTMIGCE_C_PERMISSIBLE> . 
<http://www.assero.co.uk/MDRSdtmIgD/CDISC/V1#IG-CDISC_SDTMIGCE> bd:includesColumn <http://www.assero.co.uk/MDRSdtmIgD/CDISC/V1#IG-CDISC_SDTMIGCE_CEBODSYS> . 
<http://www.assero.co.uk/MDRSdtmIgD/CDISC/V1#IG-CDISC_SDTMIGCE_CESEV> rdf:type bd:IgVariable . 
<http://www.assero.co.uk/MDRSdtmIgD/CDISC/V1#IG-CDISC_SDTMIGCE_CESEV> rdfs:label "Severity/Intensity"^^xsd:string . 
<http://www.assero.co.uk/MDRSdtmIgD/CDISC/V1#IG-CDISC_SDTMIGCE_CESEV> bd:ordinal "17"^^xsd:positiveInteger . 
<http://www.assero.co.uk/MDRSdtmIgD/CDISC/V1#IG-CDISC_SDTMIGCE_CESEV> bd:controlled_term_or_format ""^^xsd:string . 
<http://www.assero.co.uk/MDRSdtmIgD/CDISC/V1#IG-CDISC_SDTMIGCE_CESEV> bd:notes "The severity or intensity of the event. Examples: MILD, MODERATE, SEVERE"^^xsd:string . 
<http://www.assero.co.uk/MDRSdtmIgD/CDISC/V1#IG-CDISC_SDTMIGCE_CESEV> bd:name "CESEV"^^xsd:string . 
<http://www.assero.co.uk/MDRSdtmIgD/CDISC/V1#IG-CDISC_SDTMIGCE_CESEV> bd:basedOnVariable <http://www.assero.co.uk/MDRSdtmIgD/CDISC/V1#IG-CDISC_SDTMIGCE_CESEV_VR> . 
<http://www.assero.co.uk/MDRSdtmIgD/CDISC/V1#IG-CDISC_SDTMIGCE_CESEV_VR> rdf:type bo:CReference . 
<http://www.assero.co.uk/MDRSdtmIgD/CDISC/V1#IG-CDISC_SDTMIGCE_CESEV_VR> bo:hasColumn <http://www.assero.co.uk/MDRSdtmMd/CDISC/V1#M-CDISC_SDTMMODEL_EVENTS_xxSEV> . 
<http://www.assero.co.uk/MDRSdtmIgD/CDISC/V1#IG-CDISC_SDTMIGCE_CESEV_VR> bo:enabled "true"^^xsd:boolean . 
<http://www.assero.co.uk/MDRSdtmIgD/CDISC/V1#IG-CDISC_SDTMIGCE_CESEV_VR> bo:optional "false"^^xsd:boolean . 
<http://www.assero.co.uk/MDRSdtmIgD/CDISC/V1#IG-CDISC_SDTMIGCE_CESEV_VR> bo:ordinal "1"^^xsd:positiveInteger . 
<http://www.assero.co.uk/MDRSdtmIgD/CDISC/V1#IG-CDISC_SDTMIGCE_CESEV> bd:compliance <http://www.assero.co.uk/MDRSdtmIgD/CDISC/V1#IG-CDISC_SDTMIGCE_C_PERMISSIBLE> . 
<http://www.assero.co.uk/MDRSdtmIgD/CDISC/V1#IG-CDISC_SDTMIGCE> bd:includesColumn <http://www.assero.co.uk/MDRSdtmIgD/CDISC/V1#IG-CDISC_SDTMIGCE_CESEV> . 
<http://www.assero.co.uk/MDRSdtmIgD/CDISC/V1#IG-CDISC_SDTMIGCE_CEDTC> rdf:type bd:IgVariable . 
<http://www.assero.co.uk/MDRSdtmIgD/CDISC/V1#IG-CDISC_SDTMIGCE_CEDTC> rdfs:label "Date/Time of Event Collection"^^xsd:string . 
<http://www.assero.co.uk/MDRSdtmIgD/CDISC/V1#IG-CDISC_SDTMIGCE_CEDTC> bd:ordinal "18"^^xsd:positiveInteger . 
<http://www.assero.co.uk/MDRSdtmIgD/CDISC/V1#IG-CDISC_SDTMIGCE_CEDTC> bd:controlled_term_or_format "ISO 8601"^^xsd:string . 
<http://www.assero.co.uk/MDRSdtmIgD/CDISC/V1#IG-CDISC_SDTMIGCE_CEDTC> bd:notes ""^^xsd:string . 
<http://www.assero.co.uk/MDRSdtmIgD/CDISC/V1#IG-CDISC_SDTMIGCE_CEDTC> bd:name "CEDTC"^^xsd:string . 
<http://www.assero.co.uk/MDRSdtmIgD/CDISC/V1#IG-CDISC_SDTMIGCE_CEDTC> bd:basedOnVariable <http://www.assero.co.uk/MDRSdtmIgD/CDISC/V1#IG-CDISC_SDTMIGCE_CEDTC_VR> . 
<http://www.assero.co.uk/MDRSdtmIgD/CDISC/V1#IG-CDISC_SDTMIGCE_CEDTC_VR> rdf:type bo:CReference . 
<http://www.assero.co.uk/MDRSdtmIgD/CDISC/V1#IG-CDISC_SDTMIGCE_CEDTC_VR> bo:hasColumn <http://www.assero.co.uk/MDRSdtmMd/CDISC/V1#M-CDISC_SDTMMODEL_EVENTS_xxDTC> . 
<http://www.assero.co.uk/MDRSdtmIgD/CDISC/V1#IG-CDISC_SDTMIGCE_CEDTC_VR> bo:enabled "true"^^xsd:boolean . 
<http://www.assero.co.uk/MDRSdtmIgD/CDISC/V1#IG-CDISC_SDTMIGCE_CEDTC_VR> bo:optional "false"^^xsd:boolean . 
<http://www.assero.co.uk/MDRSdtmIgD/CDISC/V1#IG-CDISC_SDTMIGCE_CEDTC_VR> bo:ordinal "1"^^xsd:positiveInteger . 
<http://www.assero.co.uk/MDRSdtmIgD/CDISC/V1#IG-CDISC_SDTMIGCE_CEDTC> bd:compliance <http://www.assero.co.uk/MDRSdtmIgD/CDISC/V1#IG-CDISC_SDTMIGCE_C_PERMISSIBLE> . 
<http://www.assero.co.uk/MDRSdtmIgD/CDISC/V1#IG-CDISC_SDTMIGCE> bd:includesColumn <http://www.assero.co.uk/MDRSdtmIgD/CDISC/V1#IG-CDISC_SDTMIGCE_CEDTC> . 
<http://www.assero.co.uk/MDRSdtmIgD/CDISC/V1#IG-CDISC_SDTMIGCE_CESTDTC> rdf:type bd:IgVariable . 
<http://www.assero.co.uk/MDRSdtmIgD/CDISC/V1#IG-CDISC_SDTMIGCE_CESTDTC> rdfs:label "Start Date/Time of Clinical Event"^^xsd:string . 
<http://www.assero.co.uk/MDRSdtmIgD/CDISC/V1#IG-CDISC_SDTMIGCE_CESTDTC> bd:ordinal "19"^^xsd:positiveInteger . 
<http://www.assero.co.uk/MDRSdtmIgD/CDISC/V1#IG-CDISC_SDTMIGCE_CESTDTC> bd:controlled_term_or_format "ISO 8601"^^xsd:string . 
<http://www.assero.co.uk/MDRSdtmIgD/CDISC/V1#IG-CDISC_SDTMIGCE_CESTDTC> bd:notes ""^^xsd:string . 
<http://www.assero.co.uk/MDRSdtmIgD/CDISC/V1#IG-CDISC_SDTMIGCE_CESTDTC> bd:name "CESTDTC"^^xsd:string . 
<http://www.assero.co.uk/MDRSdtmIgD/CDISC/V1#IG-CDISC_SDTMIGCE_CESTDTC> bd:basedOnVariable <http://www.assero.co.uk/MDRSdtmIgD/CDISC/V1#IG-CDISC_SDTMIGCE_CESTDTC_VR> . 
<http://www.assero.co.uk/MDRSdtmIgD/CDISC/V1#IG-CDISC_SDTMIGCE_CESTDTC_VR> rdf:type bo:CReference . 
<http://www.assero.co.uk/MDRSdtmIgD/CDISC/V1#IG-CDISC_SDTMIGCE_CESTDTC_VR> bo:hasColumn <http://www.assero.co.uk/MDRSdtmMd/CDISC/V1#M-CDISC_SDTMMODEL_EVENTS_xxSTDTC> . 
<http://www.assero.co.uk/MDRSdtmIgD/CDISC/V1#IG-CDISC_SDTMIGCE_CESTDTC_VR> bo:enabled "true"^^xsd:boolean . 
<http://www.assero.co.uk/MDRSdtmIgD/CDISC/V1#IG-CDISC_SDTMIGCE_CESTDTC_VR> bo:optional "false"^^xsd:boolean . 
<http://www.assero.co.uk/MDRSdtmIgD/CDISC/V1#IG-CDISC_SDTMIGCE_CESTDTC_VR> bo:ordinal "1"^^xsd:positiveInteger . 
<http://www.assero.co.uk/MDRSdtmIgD/CDISC/V1#IG-CDISC_SDTMIGCE_CESTDTC> bd:compliance <http://www.assero.co.uk/MDRSdtmIgD/CDISC/V1#IG-CDISC_SDTMIGCE_C_PERMISSIBLE> . 
<http://www.assero.co.uk/MDRSdtmIgD/CDISC/V1#IG-CDISC_SDTMIGCE> bd:includesColumn <http://www.assero.co.uk/MDRSdtmIgD/CDISC/V1#IG-CDISC_SDTMIGCE_CESTDTC> . 
<http://www.assero.co.uk/MDRSdtmIgD/CDISC/V1#IG-CDISC_SDTMIGCE_CEENDTC> rdf:type bd:IgVariable . 
<http://www.assero.co.uk/MDRSdtmIgD/CDISC/V1#IG-CDISC_SDTMIGCE_CEENDTC> rdfs:label "End Date/Time of Clinical Event"^^xsd:string . 
<http://www.assero.co.uk/MDRSdtmIgD/CDISC/V1#IG-CDISC_SDTMIGCE_CEENDTC> bd:ordinal "20"^^xsd:positiveInteger . 
<http://www.assero.co.uk/MDRSdtmIgD/CDISC/V1#IG-CDISC_SDTMIGCE_CEENDTC> bd:controlled_term_or_format "ISO 8601"^^xsd:string . 
<http://www.assero.co.uk/MDRSdtmIgD/CDISC/V1#IG-CDISC_SDTMIGCE_CEENDTC> bd:notes ""^^xsd:string . 
<http://www.assero.co.uk/MDRSdtmIgD/CDISC/V1#IG-CDISC_SDTMIGCE_CEENDTC> bd:name "CEENDTC"^^xsd:string . 
<http://www.assero.co.uk/MDRSdtmIgD/CDISC/V1#IG-CDISC_SDTMIGCE_CEENDTC> bd:basedOnVariable <http://www.assero.co.uk/MDRSdtmIgD/CDISC/V1#IG-CDISC_SDTMIGCE_CEENDTC_VR> . 
<http://www.assero.co.uk/MDRSdtmIgD/CDISC/V1#IG-CDISC_SDTMIGCE_CEENDTC_VR> rdf:type bo:CReference . 
<http://www.assero.co.uk/MDRSdtmIgD/CDISC/V1#IG-CDISC_SDTMIGCE_CEENDTC_VR> bo:hasColumn <http://www.assero.co.uk/MDRSdtmMd/CDISC/V1#M-CDISC_SDTMMODEL_EVENTS_xxENDTC> . 
<http://www.assero.co.uk/MDRSdtmIgD/CDISC/V1#IG-CDISC_SDTMIGCE_CEENDTC_VR> bo:enabled "true"^^xsd:boolean . 
<http://www.assero.co.uk/MDRSdtmIgD/CDISC/V1#IG-CDISC_SDTMIGCE_CEENDTC_VR> bo:optional "false"^^xsd:boolean . 
<http://www.assero.co.uk/MDRSdtmIgD/CDISC/V1#IG-CDISC_SDTMIGCE_CEENDTC_VR> bo:ordinal "1"^^xsd:positiveInteger . 
<http://www.assero.co.uk/MDRSdtmIgD/CDISC/V1#IG-CDISC_SDTMIGCE_CEENDTC> bd:compliance <http://www.assero.co.uk/MDRSdtmIgD/CDISC/V1#IG-CDISC_SDTMIGCE_C_PERMISSIBLE> . 
<http://www.assero.co.uk/MDRSdtmIgD/CDISC/V1#IG-CDISC_SDTMIGCE> bd:includesColumn <http://www.assero.co.uk/MDRSdtmIgD/CDISC/V1#IG-CDISC_SDTMIGCE_CEENDTC> . 
<http://www.assero.co.uk/MDRSdtmIgD/CDISC/V1#IG-CDISC_SDTMIGCE_CEDY> rdf:type bd:IgVariable . 
<http://www.assero.co.uk/MDRSdtmIgD/CDISC/V1#IG-CDISC_SDTMIGCE_CEDY> rdfs:label "Study Day of Event Collection"^^xsd:string . 
<http://www.assero.co.uk/MDRSdtmIgD/CDISC/V1#IG-CDISC_SDTMIGCE_CEDY> bd:ordinal "21"^^xsd:positiveInteger . 
<http://www.assero.co.uk/MDRSdtmIgD/CDISC/V1#IG-CDISC_SDTMIGCE_CEDY> bd:controlled_term_or_format ""^^xsd:string . 
<http://www.assero.co.uk/MDRSdtmIgD/CDISC/V1#IG-CDISC_SDTMIGCE_CEDY> bd:notes "1. Study day of clinical event collection, measured as integer days. 2. Algorithm for calculations must be relative to the sponsor-defined RFSTDTC variable in Demographics. This formula should be consistent across the submission."^^xsd:string . 
<http://www.assero.co.uk/MDRSdtmIgD/CDISC/V1#IG-CDISC_SDTMIGCE_CEDY> bd:name "CEDY"^^xsd:string . 
<http://www.assero.co.uk/MDRSdtmIgD/CDISC/V1#IG-CDISC_SDTMIGCE_CEDY> bd:basedOnVariable <http://www.assero.co.uk/MDRSdtmIgD/CDISC/V1#IG-CDISC_SDTMIGCE_CEDY_VR> . 
<http://www.assero.co.uk/MDRSdtmIgD/CDISC/V1#IG-CDISC_SDTMIGCE_CEDY_VR> rdf:type bo:CReference . 
<http://www.assero.co.uk/MDRSdtmIgD/CDISC/V1#IG-CDISC_SDTMIGCE_CEDY_VR> bo:hasColumn <http://www.assero.co.uk/MDRSdtmMd/CDISC/V1#M-CDISC_SDTMMODEL_EVENTS_xxDY> . 
<http://www.assero.co.uk/MDRSdtmIgD/CDISC/V1#IG-CDISC_SDTMIGCE_CEDY_VR> bo:enabled "true"^^xsd:boolean . 
<http://www.assero.co.uk/MDRSdtmIgD/CDISC/V1#IG-CDISC_SDTMIGCE_CEDY_VR> bo:optional "false"^^xsd:boolean . 
<http://www.assero.co.uk/MDRSdtmIgD/CDISC/V1#IG-CDISC_SDTMIGCE_CEDY_VR> bo:ordinal "1"^^xsd:positiveInteger . 
<http://www.assero.co.uk/MDRSdtmIgD/CDISC/V1#IG-CDISC_SDTMIGCE_CEDY> bd:compliance <http://www.assero.co.uk/MDRSdtmIgD/CDISC/V1#IG-CDISC_SDTMIGCE_C_PERMISSIBLE> . 
<http://www.assero.co.uk/MDRSdtmIgD/CDISC/V1#IG-CDISC_SDTMIGCE> bd:includesColumn <http://www.assero.co.uk/MDRSdtmIgD/CDISC/V1#IG-CDISC_SDTMIGCE_CEDY> . 
<http://www.assero.co.uk/MDRSdtmIgD/CDISC/V1#IG-CDISC_SDTMIGCE_CESTRF> rdf:type bd:IgVariable . 
<http://www.assero.co.uk/MDRSdtmIgD/CDISC/V1#IG-CDISC_SDTMIGCE_CESTRF> rdfs:label "Start Relative to Reference Period"^^xsd:string . 
<http://www.assero.co.uk/MDRSdtmIgD/CDISC/V1#IG-CDISC_SDTMIGCE_CESTRF> bd:ordinal "22"^^xsd:positiveInteger . 
<http://www.assero.co.uk/MDRSdtmIgD/CDISC/V1#IG-CDISC_SDTMIGCE_CESTRF> bd:controlled_term_or_format "(STENRF)"^^xsd:string . 
<http://www.assero.co.uk/MDRSdtmIgD/CDISC/V1#IG-CDISC_SDTMIGCE_CESTRF> bd:notes "Describes the start of the clinical event relative to the sponsor-defined reference period. The sponsor-defined reference period is a continuous period of time defined by a discrete starting point and a discrete ending point (represented by RFSTDTC and RFENDTC in Demographics)."^^xsd:string . 
<http://www.assero.co.uk/MDRSdtmIgD/CDISC/V1#IG-CDISC_SDTMIGCE_CESTRF> bd:name "CESTRF"^^xsd:string . 
<http://www.assero.co.uk/MDRSdtmIgD/CDISC/V1#IG-CDISC_SDTMIGCE_CESTRF> bd:basedOnVariable <http://www.assero.co.uk/MDRSdtmIgD/CDISC/V1#IG-CDISC_SDTMIGCE_CESTRF_VR> . 
<http://www.assero.co.uk/MDRSdtmIgD/CDISC/V1#IG-CDISC_SDTMIGCE_CESTRF_VR> rdf:type bo:CReference . 
<http://www.assero.co.uk/MDRSdtmIgD/CDISC/V1#IG-CDISC_SDTMIGCE_CESTRF_VR> bo:hasColumn <http://www.assero.co.uk/MDRSdtmMd/CDISC/V1#M-CDISC_SDTMMODEL_EVENTS_xxSTRF> . 
<http://www.assero.co.uk/MDRSdtmIgD/CDISC/V1#IG-CDISC_SDTMIGCE_CESTRF_VR> bo:enabled "true"^^xsd:boolean . 
<http://www.assero.co.uk/MDRSdtmIgD/CDISC/V1#IG-CDISC_SDTMIGCE_CESTRF_VR> bo:optional "false"^^xsd:boolean . 
<http://www.assero.co.uk/MDRSdtmIgD/CDISC/V1#IG-CDISC_SDTMIGCE_CESTRF_VR> bo:ordinal "1"^^xsd:positiveInteger . 
<http://www.assero.co.uk/MDRSdtmIgD/CDISC/V1#IG-CDISC_SDTMIGCE_CESTRF> bd:compliance <http://www.assero.co.uk/MDRSdtmIgD/CDISC/V1#IG-CDISC_SDTMIGCE_C_PERMISSIBLE> . 
<http://www.assero.co.uk/MDRSdtmIgD/CDISC/V1#IG-CDISC_SDTMIGCE> bd:includesColumn <http://www.assero.co.uk/MDRSdtmIgD/CDISC/V1#IG-CDISC_SDTMIGCE_CESTRF> . 
<http://www.assero.co.uk/MDRSdtmIgD/CDISC/V1#IG-CDISC_SDTMIGCE_CEENRF> rdf:type bd:IgVariable . 
<http://www.assero.co.uk/MDRSdtmIgD/CDISC/V1#IG-CDISC_SDTMIGCE_CEENRF> rdfs:label "End Relative to Reference Period"^^xsd:string . 
<http://www.assero.co.uk/MDRSdtmIgD/CDISC/V1#IG-CDISC_SDTMIGCE_CEENRF> bd:ordinal "23"^^xsd:positiveInteger . 
<http://www.assero.co.uk/MDRSdtmIgD/CDISC/V1#IG-CDISC_SDTMIGCE_CEENRF> bd:controlled_term_or_format "(STENRF)"^^xsd:string . 
<http://www.assero.co.uk/MDRSdtmIgD/CDISC/V1#IG-CDISC_SDTMIGCE_CEENRF> bd:notes "Describes the end of the event relative to the sponsor-defined reference period. The sponsor-defined reference period is a continuous period of time defined by a discrete starting point and a discrete ending point (represented by RFSTDTC and RFENDTC in Demographics)."^^xsd:string . 
<http://www.assero.co.uk/MDRSdtmIgD/CDISC/V1#IG-CDISC_SDTMIGCE_CEENRF> bd:name "CEENRF"^^xsd:string . 
<http://www.assero.co.uk/MDRSdtmIgD/CDISC/V1#IG-CDISC_SDTMIGCE_CEENRF> bd:basedOnVariable <http://www.assero.co.uk/MDRSdtmIgD/CDISC/V1#IG-CDISC_SDTMIGCE_CEENRF_VR> . 
<http://www.assero.co.uk/MDRSdtmIgD/CDISC/V1#IG-CDISC_SDTMIGCE_CEENRF_VR> rdf:type bo:CReference . 
<http://www.assero.co.uk/MDRSdtmIgD/CDISC/V1#IG-CDISC_SDTMIGCE_CEENRF_VR> bo:hasColumn <http://www.assero.co.uk/MDRSdtmMd/CDISC/V1#M-CDISC_SDTMMODEL_EVENTS_xxENRF> . 
<http://www.assero.co.uk/MDRSdtmIgD/CDISC/V1#IG-CDISC_SDTMIGCE_CEENRF_VR> bo:enabled "true"^^xsd:boolean . 
<http://www.assero.co.uk/MDRSdtmIgD/CDISC/V1#IG-CDISC_SDTMIGCE_CEENRF_VR> bo:optional "false"^^xsd:boolean . 
<http://www.assero.co.uk/MDRSdtmIgD/CDISC/V1#IG-CDISC_SDTMIGCE_CEENRF_VR> bo:ordinal "1"^^xsd:positiveInteger . 
<http://www.assero.co.uk/MDRSdtmIgD/CDISC/V1#IG-CDISC_SDTMIGCE_CEENRF> bd:compliance <http://www.assero.co.uk/MDRSdtmIgD/CDISC/V1#IG-CDISC_SDTMIGCE_C_PERMISSIBLE> . 
<http://www.assero.co.uk/MDRSdtmIgD/CDISC/V1#IG-CDISC_SDTMIGCE> bd:includesColumn <http://www.assero.co.uk/MDRSdtmIgD/CDISC/V1#IG-CDISC_SDTMIGCE_CEENRF> . 
<http://www.assero.co.uk/MDRSdtmIgD/CDISC/V1#IG-CDISC_SDTMIGCE_CESTRTPT> rdf:type bd:IgVariable . 
<http://www.assero.co.uk/MDRSdtmIgD/CDISC/V1#IG-CDISC_SDTMIGCE_CESTRTPT> rdfs:label "Start Relative to Reference Time Point"^^xsd:string . 
<http://www.assero.co.uk/MDRSdtmIgD/CDISC/V1#IG-CDISC_SDTMIGCE_CESTRTPT> bd:ordinal "24"^^xsd:positiveInteger . 
<http://www.assero.co.uk/MDRSdtmIgD/CDISC/V1#IG-CDISC_SDTMIGCE_CESTRTPT> bd:controlled_term_or_format "(STRTPT)"^^xsd:string . 
<http://www.assero.co.uk/MDRSdtmIgD/CDISC/V1#IG-CDISC_SDTMIGCE_CESTRTPT> bd:notes "Identifies the start of the observation as being before or after the reference time point defined by variable CESTTPT."^^xsd:string . 
<http://www.assero.co.uk/MDRSdtmIgD/CDISC/V1#IG-CDISC_SDTMIGCE_CESTRTPT> bd:name "CESTRTPT"^^xsd:string . 
<http://www.assero.co.uk/MDRSdtmIgD/CDISC/V1#IG-CDISC_SDTMIGCE_CESTRTPT> bd:compliance <http://www.assero.co.uk/MDRSdtmIgD/CDISC/V1#IG-CDISC_SDTMIGCE_C_PERMISSIBLE> . 
<http://www.assero.co.uk/MDRSdtmIgD/CDISC/V1#IG-CDISC_SDTMIGCE> bd:includesColumn <http://www.assero.co.uk/MDRSdtmIgD/CDISC/V1#IG-CDISC_SDTMIGCE_CESTRTPT> . 
<http://www.assero.co.uk/MDRSdtmIgD/CDISC/V1#IG-CDISC_SDTMIGCE_CESTTPT> rdf:type bd:IgVariable . 
<http://www.assero.co.uk/MDRSdtmIgD/CDISC/V1#IG-CDISC_SDTMIGCE_CESTTPT> rdfs:label "Start Reference Time Point"^^xsd:string . 
<http://www.assero.co.uk/MDRSdtmIgD/CDISC/V1#IG-CDISC_SDTMIGCE_CESTTPT> bd:ordinal "25"^^xsd:positiveInteger . 
<http://www.assero.co.uk/MDRSdtmIgD/CDISC/V1#IG-CDISC_SDTMIGCE_CESTTPT> bd:controlled_term_or_format ""^^xsd:string . 
<http://www.assero.co.uk/MDRSdtmIgD/CDISC/V1#IG-CDISC_SDTMIGCE_CESTTPT> bd:notes "Description or date/time in ISO 8601 character format of the sponsor-defined reference point referred to by --STRTPT. Examples: '2003-12-15' or 'VISIT 1'."^^xsd:string . 
<http://www.assero.co.uk/MDRSdtmIgD/CDISC/V1#IG-CDISC_SDTMIGCE_CESTTPT> bd:name "CESTTPT"^^xsd:string . 
<http://www.assero.co.uk/MDRSdtmIgD/CDISC/V1#IG-CDISC_SDTMIGCE_CESTTPT> bd:basedOnVariable <http://www.assero.co.uk/MDRSdtmIgD/CDISC/V1#IG-CDISC_SDTMIGCE_CESTTPT_VR> . 
<http://www.assero.co.uk/MDRSdtmIgD/CDISC/V1#IG-CDISC_SDTMIGCE_CESTTPT_VR> rdf:type bo:CReference . 
<http://www.assero.co.uk/MDRSdtmIgD/CDISC/V1#IG-CDISC_SDTMIGCE_CESTTPT_VR> bo:hasColumn <http://www.assero.co.uk/MDRSdtmMd/CDISC/V1#M-CDISC_SDTMMODEL_EVENTS_xxSTTPT> . 
<http://www.assero.co.uk/MDRSdtmIgD/CDISC/V1#IG-CDISC_SDTMIGCE_CESTTPT_VR> bo:enabled "true"^^xsd:boolean . 
<http://www.assero.co.uk/MDRSdtmIgD/CDISC/V1#IG-CDISC_SDTMIGCE_CESTTPT_VR> bo:optional "false"^^xsd:boolean . 
<http://www.assero.co.uk/MDRSdtmIgD/CDISC/V1#IG-CDISC_SDTMIGCE_CESTTPT_VR> bo:ordinal "1"^^xsd:positiveInteger . 
<http://www.assero.co.uk/MDRSdtmIgD/CDISC/V1#IG-CDISC_SDTMIGCE_CESTTPT> bd:compliance <http://www.assero.co.uk/MDRSdtmIgD/CDISC/V1#IG-CDISC_SDTMIGCE_C_PERMISSIBLE> . 
<http://www.assero.co.uk/MDRSdtmIgD/CDISC/V1#IG-CDISC_SDTMIGCE> bd:includesColumn <http://www.assero.co.uk/MDRSdtmIgD/CDISC/V1#IG-CDISC_SDTMIGCE_CESTTPT> . 
<http://www.assero.co.uk/MDRSdtmIgD/CDISC/V1#IG-CDISC_SDTMIGCE_CEENRTPT> rdf:type bd:IgVariable . 
<http://www.assero.co.uk/MDRSdtmIgD/CDISC/V1#IG-CDISC_SDTMIGCE_CEENRTPT> rdfs:label "End Relative to Reference Time Point"^^xsd:string . 
<http://www.assero.co.uk/MDRSdtmIgD/CDISC/V1#IG-CDISC_SDTMIGCE_CEENRTPT> bd:ordinal "26"^^xsd:positiveInteger . 
<http://www.assero.co.uk/MDRSdtmIgD/CDISC/V1#IG-CDISC_SDTMIGCE_CEENRTPT> bd:controlled_term_or_format "(ENRTPT)"^^xsd:string . 
<http://www.assero.co.uk/MDRSdtmIgD/CDISC/V1#IG-CDISC_SDTMIGCE_CEENRTPT> bd:notes "Identifies the end of the event as being before or after the reference time point defined by variable CEENTPT."^^xsd:string . 
<http://www.assero.co.uk/MDRSdtmIgD/CDISC/V1#IG-CDISC_SDTMIGCE_CEENRTPT> bd:name "CEENRTPT"^^xsd:string . 
<http://www.assero.co.uk/MDRSdtmIgD/CDISC/V1#IG-CDISC_SDTMIGCE_CEENRTPT> bd:compliance <http://www.assero.co.uk/MDRSdtmIgD/CDISC/V1#IG-CDISC_SDTMIGCE_C_PERMISSIBLE> . 
<http://www.assero.co.uk/MDRSdtmIgD/CDISC/V1#IG-CDISC_SDTMIGCE> bd:includesColumn <http://www.assero.co.uk/MDRSdtmIgD/CDISC/V1#IG-CDISC_SDTMIGCE_CEENRTPT> . 
<http://www.assero.co.uk/MDRSdtmIgD/CDISC/V1#IG-CDISC_SDTMIGCE_CEENTPT> rdf:type bd:IgVariable . 
<http://www.assero.co.uk/MDRSdtmIgD/CDISC/V1#IG-CDISC_SDTMIGCE_CEENTPT> rdfs:label "End Reference Time Point"^^xsd:string . 
<http://www.assero.co.uk/MDRSdtmIgD/CDISC/V1#IG-CDISC_SDTMIGCE_CEENTPT> bd:ordinal "27"^^xsd:positiveInteger . 
<http://www.assero.co.uk/MDRSdtmIgD/CDISC/V1#IG-CDISC_SDTMIGCE_CEENTPT> bd:controlled_term_or_format ""^^xsd:string . 
<http://www.assero.co.uk/MDRSdtmIgD/CDISC/V1#IG-CDISC_SDTMIGCE_CEENTPT> bd:notes "Description or date/time in ISO 8601 character format of the reference point referred to by CEENRTPT. Examples: '2003-12-25' or 'VISIT 2'."^^xsd:string . 
<http://www.assero.co.uk/MDRSdtmIgD/CDISC/V1#IG-CDISC_SDTMIGCE_CEENTPT> bd:name "CEENTPT"^^xsd:string . 
<http://www.assero.co.uk/MDRSdtmIgD/CDISC/V1#IG-CDISC_SDTMIGCE_CEENTPT> bd:basedOnVariable <http://www.assero.co.uk/MDRSdtmIgD/CDISC/V1#IG-CDISC_SDTMIGCE_CEENTPT_VR> . 
<http://www.assero.co.uk/MDRSdtmIgD/CDISC/V1#IG-CDISC_SDTMIGCE_CEENTPT_VR> rdf:type bo:CReference . 
<http://www.assero.co.uk/MDRSdtmIgD/CDISC/V1#IG-CDISC_SDTMIGCE_CEENTPT_VR> bo:hasColumn <http://www.assero.co.uk/MDRSdtmMd/CDISC/V1#M-CDISC_SDTMMODEL_EVENTS_xxENTPT> . 
<http://www.assero.co.uk/MDRSdtmIgD/CDISC/V1#IG-CDISC_SDTMIGCE_CEENTPT_VR> bo:enabled "true"^^xsd:boolean . 
<http://www.assero.co.uk/MDRSdtmIgD/CDISC/V1#IG-CDISC_SDTMIGCE_CEENTPT_VR> bo:optional "false"^^xsd:boolean . 
<http://www.assero.co.uk/MDRSdtmIgD/CDISC/V1#IG-CDISC_SDTMIGCE_CEENTPT_VR> bo:ordinal "1"^^xsd:positiveInteger . 
<http://www.assero.co.uk/MDRSdtmIgD/CDISC/V1#IG-CDISC_SDTMIGCE_CEENTPT> bd:compliance <http://www.assero.co.uk/MDRSdtmIgD/CDISC/V1#IG-CDISC_SDTMIGCE_C_PERMISSIBLE> . 
<http://www.assero.co.uk/MDRSdtmIgD/CDISC/V1#IG-CDISC_SDTMIGCE> bd:includesColumn <http://www.assero.co.uk/MDRSdtmIgD/CDISC/V1#IG-CDISC_SDTMIGCE_CEENTPT> . 
<http://www.assero.co.uk/MDRSdtmIg/CDISC/V1#IG-CDISC_SDTMIG> bd:includesTabulation <http://www.assero.co.uk/MDRSdtmIg/CDISC/V1#IG-CDISC_SDTMIG_TR2> . 
<http://www.assero.co.uk/MDRSdtmIg/CDISC/V1#IG-CDISC_SDTMIG_TR2> rdf:type bo:TReference . 
<http://www.assero.co.uk/MDRSdtmIg/CDISC/V1#IG-CDISC_SDTMIG_TR2> bo:hasTabulation <http://www.assero.co.uk/MDRSdtmIgD/CDISC/V1#IG-CDISC_SDTMIGCE> . 
<http://www.assero.co.uk/MDRSdtmIg/CDISC/V1#IG-CDISC_SDTMIG_TR2> bo:enabled "true"^^xsd:boolean . 
<http://www.assero.co.uk/MDRSdtmIg/CDISC/V1#IG-CDISC_SDTMIG_TR2> bo:optional "false"^^xsd:boolean . 
<http://www.assero.co.uk/MDRSdtmIg/CDISC/V1#IG-CDISC_SDTMIG_TR2> bo:ordinal "2"^^xsd:positiveInteger . 
mdrItems:SI-CDISC_SDTMIGCM-1 rdf:type isoI:ScopedIdentifier . 
mdrItems:SI-CDISC_SDTMIGCM-1 isoI:identifier "SDTM IG CM"^^xsd:string . 
mdrItems:SI-CDISC_SDTMIGCM-1 isoI:version "1"^^xsd:positiveInteger . 
mdrItems:SI-CDISC_SDTMIGCM-1 isoI:versionLabel "3.1.2"^^xsd:string . 
mdrItems:SI-CDISC_SDTMIGCM-1 isoI:hasScope mdrItems:NS-CDISC . 
mdrItems:RS-CDISC_SDTMIGCM-1 rdf:type isoR:RegistrationState . 
mdrItems:RS-CDISC_SDTMIGCM-1 isoR:byAuthority mdrItems:RA-084433759 . 
mdrItems:RS-CDISC_SDTMIGCM-1 isoR:registrationStatus "Standard"^^xsd:string . 
mdrItems:RS-CDISC_SDTMIGCM-1 isoR:administrativeNote ""^^xsd:string . 
mdrItems:RS-CDISC_SDTMIGCM-1 isoR:effectiveDate "2016-01-01T00:00:00Z"^^xsd:dateTime . 
mdrItems:RS-CDISC_SDTMIGCM-1 isoR:untilDate "2016-01-01T00:00:00Z"^^xsd:dateTime . 
mdrItems:RS-CDISC_SDTMIGCM-1 isoR:unresolvedIssue ""^^xsd:string . 
mdrItems:RS-CDISC_SDTMIGCM-1 isoR:administrativeStatus ""^^xsd:string . 
mdrItems:RS-CDISC_SDTMIGCM-1 isoR:previousState "Standard"^^xsd:string . 
<http://www.assero.co.uk/MDRSdtmIgD/CDISC/V1#IG-CDISC_SDTMIGCM> rdf:type bd:IgDomain . 
<http://www.assero.co.uk/MDRSdtmIgD/CDISC/V1#IG-CDISC_SDTMIGCM> isoI:hasIdentifier mdrItems:SI-CDISC_SDTMIGCM-1 . 
<http://www.assero.co.uk/MDRSdtmIgD/CDISC/V1#IG-CDISC_SDTMIGCM> isoR:hasState mdrItems:RS-CDISC_SDTMIGCM-1 . 
<http://www.assero.co.uk/MDRSdtmIgD/CDISC/V1#IG-CDISC_SDTMIGCM> rdfs:label "Concomitant Meds"^^xsd:string . 
<http://www.assero.co.uk/MDRSdtmIgD/CDISC/V1#IG-CDISC_SDTMIGCM> isoT:creationDate "2008-11-12"^^xsd:string . 
<http://www.assero.co.uk/MDRSdtmIgD/CDISC/V1#IG-CDISC_SDTMIGCM> isoT:lastChangeDate "2016-09-02T23:17:38+01:00"^^xsd:string . 
<http://www.assero.co.uk/MDRSdtmIgD/CDISC/V1#IG-CDISC_SDTMIGCM> isoT:changeDescription ""^^xsd:string . 
<http://www.assero.co.uk/MDRSdtmIgD/CDISC/V1#IG-CDISC_SDTMIGCM> isoT:explanatoryComment ""^^xsd:string . 
<http://www.assero.co.uk/MDRSdtmIgD/CDISC/V1#IG-CDISC_SDTMIGCM> isoT:origin ""^^xsd:string . 
<http://www.assero.co.uk/MDRSdtmIgD/CDISC/V1#IG-CDISC_SDTMIGCM> bd:prefix "CM"^^xsd:string . 
<http://www.assero.co.uk/MDRSdtmIgD/CDISC/V1#IG-CDISC_SDTMIGCM> bd:structure ""^^xsd:string . 
<http://www.assero.co.uk/MDRSdtmIgD/CDISC/V1#IG-CDISC_SDTMIGCM> bd:basedOnDomain <http://www.assero.co.uk/MDRSdtmIgD/CDISC/V1#IG-CDISC_SDTMIGCM_CLR> . 
<http://www.assero.co.uk/MDRSdtmIgD/CDISC/V1#IG-CDISC_SDTMIGCM_CLR> rdf:type bo:TReference . 
<http://www.assero.co.uk/MDRSdtmIgD/CDISC/V1#IG-CDISC_SDTMIGCM_CLR> bo:hasTabulation <http://www.assero.co.uk/MDRSdtmMd/CDISC/V1#M-CDISC_SDTMMODEL_INTERVENTIONS> . 
<http://www.assero.co.uk/MDRSdtmIgD/CDISC/V1#IG-CDISC_SDTMIGCM_CLR> bo:enabled "true"^^xsd:boolean . 
<http://www.assero.co.uk/MDRSdtmIgD/CDISC/V1#IG-CDISC_SDTMIGCM_CLR> bo:optional "false"^^xsd:boolean . 
<http://www.assero.co.uk/MDRSdtmIgD/CDISC/V1#IG-CDISC_SDTMIGCM_CLR> bo:ordinal "1"^^xsd:positiveInteger . 
<http://www.assero.co.uk/MDRSdtmIgD/CDISC/V1#IG-CDISC_SDTMIGCM_C_REQUIRED> rdf:type bd:VariableCompliance . 
<http://www.assero.co.uk/MDRSdtmIgD/CDISC/V1#IG-CDISC_SDTMIGCM_C_REQUIRED> rdfs:label "Required"^^xsd:string . 
<http://www.assero.co.uk/MDRSdtmIgD/CDISC/V1#IG-CDISC_SDTMIGCM_C_PERMISSIBLE> rdf:type bd:VariableCompliance . 
<http://www.assero.co.uk/MDRSdtmIgD/CDISC/V1#IG-CDISC_SDTMIGCM_C_PERMISSIBLE> rdfs:label "Permissible"^^xsd:string . 
<http://www.assero.co.uk/MDRSdtmIgD/CDISC/V1#IG-CDISC_SDTMIGCM_C_EXPECTED> rdf:type bd:VariableCompliance . 
<http://www.assero.co.uk/MDRSdtmIgD/CDISC/V1#IG-CDISC_SDTMIGCM_C_EXPECTED> rdfs:label "Expected"^^xsd:string . 
<http://www.assero.co.uk/MDRSdtmIgD/CDISC/V1#IG-CDISC_SDTMIGCM_STUDYID> rdf:type bd:IgVariable . 
<http://www.assero.co.uk/MDRSdtmIgD/CDISC/V1#IG-CDISC_SDTMIGCM_STUDYID> rdfs:label "Study Identifier"^^xsd:string . 
<http://www.assero.co.uk/MDRSdtmIgD/CDISC/V1#IG-CDISC_SDTMIGCM_STUDYID> bd:ordinal "1"^^xsd:positiveInteger . 
<http://www.assero.co.uk/MDRSdtmIgD/CDISC/V1#IG-CDISC_SDTMIGCM_STUDYID> bd:controlled_term_or_format ""^^xsd:string . 
<http://www.assero.co.uk/MDRSdtmIgD/CDISC/V1#IG-CDISC_SDTMIGCM_STUDYID> bd:notes "Unique identifier for a study."^^xsd:string . 
<http://www.assero.co.uk/MDRSdtmIgD/CDISC/V1#IG-CDISC_SDTMIGCM_STUDYID> bd:name "STUDYID"^^xsd:string . 
<http://www.assero.co.uk/MDRSdtmIgD/CDISC/V1#IG-CDISC_SDTMIGCM_STUDYID> bd:basedOnVariable <http://www.assero.co.uk/MDRSdtmIgD/CDISC/V1#IG-CDISC_SDTMIGCM_STUDYID_VR> . 
<http://www.assero.co.uk/MDRSdtmIgD/CDISC/V1#IG-CDISC_SDTMIGCM_STUDYID_VR> rdf:type bo:CReference . 
<http://www.assero.co.uk/MDRSdtmIgD/CDISC/V1#IG-CDISC_SDTMIGCM_STUDYID_VR> bo:hasColumn <http://www.assero.co.uk/MDRSdtmMd/CDISC/V1#M-CDISC_SDTMMODEL_INTERVENTIONS_STUDYID> . 
<http://www.assero.co.uk/MDRSdtmIgD/CDISC/V1#IG-CDISC_SDTMIGCM_STUDYID_VR> bo:enabled "true"^^xsd:boolean . 
<http://www.assero.co.uk/MDRSdtmIgD/CDISC/V1#IG-CDISC_SDTMIGCM_STUDYID_VR> bo:optional "false"^^xsd:boolean . 
<http://www.assero.co.uk/MDRSdtmIgD/CDISC/V1#IG-CDISC_SDTMIGCM_STUDYID_VR> bo:ordinal "1"^^xsd:positiveInteger . 
<http://www.assero.co.uk/MDRSdtmIgD/CDISC/V1#IG-CDISC_SDTMIGCM_STUDYID> bd:compliance <http://www.assero.co.uk/MDRSdtmIgD/CDISC/V1#IG-CDISC_SDTMIGCM_C_REQUIRED> . 
<http://www.assero.co.uk/MDRSdtmIgD/CDISC/V1#IG-CDISC_SDTMIGCM> bd:includesColumn <http://www.assero.co.uk/MDRSdtmIgD/CDISC/V1#IG-CDISC_SDTMIGCM_STUDYID> . 
<http://www.assero.co.uk/MDRSdtmIgD/CDISC/V1#IG-CDISC_SDTMIGCM_DOMAIN> rdf:type bd:IgVariable . 
<http://www.assero.co.uk/MDRSdtmIgD/CDISC/V1#IG-CDISC_SDTMIGCM_DOMAIN> rdfs:label "Domain Abbreviation"^^xsd:string . 
<http://www.assero.co.uk/MDRSdtmIgD/CDISC/V1#IG-CDISC_SDTMIGCM_DOMAIN> bd:ordinal "2"^^xsd:positiveInteger . 
<http://www.assero.co.uk/MDRSdtmIgD/CDISC/V1#IG-CDISC_SDTMIGCM_DOMAIN> bd:controlled_term_or_format ""^^xsd:string . 
<http://www.assero.co.uk/MDRSdtmIgD/CDISC/V1#IG-CDISC_SDTMIGCM_DOMAIN> bd:notes "Two-character abbreviation for the domain."^^xsd:string . 
<http://www.assero.co.uk/MDRSdtmIgD/CDISC/V1#IG-CDISC_SDTMIGCM_DOMAIN> bd:name "DOMAIN"^^xsd:string . 
<http://www.assero.co.uk/MDRSdtmIgD/CDISC/V1#IG-CDISC_SDTMIGCM_DOMAIN> bd:basedOnVariable <http://www.assero.co.uk/MDRSdtmIgD/CDISC/V1#IG-CDISC_SDTMIGCM_DOMAIN_VR> . 
<http://www.assero.co.uk/MDRSdtmIgD/CDISC/V1#IG-CDISC_SDTMIGCM_DOMAIN_VR> rdf:type bo:CReference . 
<http://www.assero.co.uk/MDRSdtmIgD/CDISC/V1#IG-CDISC_SDTMIGCM_DOMAIN_VR> bo:hasColumn <http://www.assero.co.uk/MDRSdtmMd/CDISC/V1#M-CDISC_SDTMMODEL_INTERVENTIONS_DOMAIN> . 
<http://www.assero.co.uk/MDRSdtmIgD/CDISC/V1#IG-CDISC_SDTMIGCM_DOMAIN_VR> bo:enabled "true"^^xsd:boolean . 
<http://www.assero.co.uk/MDRSdtmIgD/CDISC/V1#IG-CDISC_SDTMIGCM_DOMAIN_VR> bo:optional "false"^^xsd:boolean . 
<http://www.assero.co.uk/MDRSdtmIgD/CDISC/V1#IG-CDISC_SDTMIGCM_DOMAIN_VR> bo:ordinal "1"^^xsd:positiveInteger . 
<http://www.assero.co.uk/MDRSdtmIgD/CDISC/V1#IG-CDISC_SDTMIGCM_DOMAIN> bd:compliance <http://www.assero.co.uk/MDRSdtmIgD/CDISC/V1#IG-CDISC_SDTMIGCM_C_REQUIRED> . 
<http://www.assero.co.uk/MDRSdtmIgD/CDISC/V1#IG-CDISC_SDTMIGCM> bd:includesColumn <http://www.assero.co.uk/MDRSdtmIgD/CDISC/V1#IG-CDISC_SDTMIGCM_DOMAIN> . 
<http://www.assero.co.uk/MDRSdtmIgD/CDISC/V1#IG-CDISC_SDTMIGCM_USUBJID> rdf:type bd:IgVariable . 
<http://www.assero.co.uk/MDRSdtmIgD/CDISC/V1#IG-CDISC_SDTMIGCM_USUBJID> rdfs:label "Unique Subject Identifier"^^xsd:string . 
<http://www.assero.co.uk/MDRSdtmIgD/CDISC/V1#IG-CDISC_SDTMIGCM_USUBJID> bd:ordinal "3"^^xsd:positiveInteger . 
<http://www.assero.co.uk/MDRSdtmIgD/CDISC/V1#IG-CDISC_SDTMIGCM_USUBJID> bd:controlled_term_or_format ""^^xsd:string . 
<http://www.assero.co.uk/MDRSdtmIgD/CDISC/V1#IG-CDISC_SDTMIGCM_USUBJID> bd:notes "Identifier used to uniquely identify a subject across all studies for all applications or submissions involving the product."^^xsd:string . 
<http://www.assero.co.uk/MDRSdtmIgD/CDISC/V1#IG-CDISC_SDTMIGCM_USUBJID> bd:name "USUBJID"^^xsd:string . 
<http://www.assero.co.uk/MDRSdtmIgD/CDISC/V1#IG-CDISC_SDTMIGCM_USUBJID> bd:basedOnVariable <http://www.assero.co.uk/MDRSdtmIgD/CDISC/V1#IG-CDISC_SDTMIGCM_USUBJID_VR> . 
<http://www.assero.co.uk/MDRSdtmIgD/CDISC/V1#IG-CDISC_SDTMIGCM_USUBJID_VR> rdf:type bo:CReference . 
<http://www.assero.co.uk/MDRSdtmIgD/CDISC/V1#IG-CDISC_SDTMIGCM_USUBJID_VR> bo:hasColumn <http://www.assero.co.uk/MDRSdtmMd/CDISC/V1#M-CDISC_SDTMMODEL_INTERVENTIONS_USUBJID> . 
<http://www.assero.co.uk/MDRSdtmIgD/CDISC/V1#IG-CDISC_SDTMIGCM_USUBJID_VR> bo:enabled "true"^^xsd:boolean . 
<http://www.assero.co.uk/MDRSdtmIgD/CDISC/V1#IG-CDISC_SDTMIGCM_USUBJID_VR> bo:optional "false"^^xsd:boolean . 
<http://www.assero.co.uk/MDRSdtmIgD/CDISC/V1#IG-CDISC_SDTMIGCM_USUBJID_VR> bo:ordinal "1"^^xsd:positiveInteger . 
<http://www.assero.co.uk/MDRSdtmIgD/CDISC/V1#IG-CDISC_SDTMIGCM_USUBJID> bd:compliance <http://www.assero.co.uk/MDRSdtmIgD/CDISC/V1#IG-CDISC_SDTMIGCM_C_REQUIRED> . 
<http://www.assero.co.uk/MDRSdtmIgD/CDISC/V1#IG-CDISC_SDTMIGCM> bd:includesColumn <http://www.assero.co.uk/MDRSdtmIgD/CDISC/V1#IG-CDISC_SDTMIGCM_USUBJID> . 
<http://www.assero.co.uk/MDRSdtmIgD/CDISC/V1#IG-CDISC_SDTMIGCM_CMSEQ> rdf:type bd:IgVariable . 
<http://www.assero.co.uk/MDRSdtmIgD/CDISC/V1#IG-CDISC_SDTMIGCM_CMSEQ> rdfs:label "Sequence Number"^^xsd:string . 
<http://www.assero.co.uk/MDRSdtmIgD/CDISC/V1#IG-CDISC_SDTMIGCM_CMSEQ> bd:ordinal "4"^^xsd:positiveInteger . 
<http://www.assero.co.uk/MDRSdtmIgD/CDISC/V1#IG-CDISC_SDTMIGCM_CMSEQ> bd:controlled_term_or_format ""^^xsd:string . 
<http://www.assero.co.uk/MDRSdtmIgD/CDISC/V1#IG-CDISC_SDTMIGCM_CMSEQ> bd:notes "Sequence Number given to ensure uniqueness of subject records within a domain. May be any valid number."^^xsd:string . 
<http://www.assero.co.uk/MDRSdtmIgD/CDISC/V1#IG-CDISC_SDTMIGCM_CMSEQ> bd:name "CMSEQ"^^xsd:string . 
<http://www.assero.co.uk/MDRSdtmIgD/CDISC/V1#IG-CDISC_SDTMIGCM_CMSEQ> bd:basedOnVariable <http://www.assero.co.uk/MDRSdtmIgD/CDISC/V1#IG-CDISC_SDTMIGCM_CMSEQ_VR> . 
<http://www.assero.co.uk/MDRSdtmIgD/CDISC/V1#IG-CDISC_SDTMIGCM_CMSEQ_VR> rdf:type bo:CReference . 
<http://www.assero.co.uk/MDRSdtmIgD/CDISC/V1#IG-CDISC_SDTMIGCM_CMSEQ_VR> bo:hasColumn <http://www.assero.co.uk/MDRSdtmMd/CDISC/V1#M-CDISC_SDTMMODEL_INTERVENTIONS_xxSEQ> . 
<http://www.assero.co.uk/MDRSdtmIgD/CDISC/V1#IG-CDISC_SDTMIGCM_CMSEQ_VR> bo:enabled "true"^^xsd:boolean . 
<http://www.assero.co.uk/MDRSdtmIgD/CDISC/V1#IG-CDISC_SDTMIGCM_CMSEQ_VR> bo:optional "false"^^xsd:boolean . 
<http://www.assero.co.uk/MDRSdtmIgD/CDISC/V1#IG-CDISC_SDTMIGCM_CMSEQ_VR> bo:ordinal "1"^^xsd:positiveInteger . 
<http://www.assero.co.uk/MDRSdtmIgD/CDISC/V1#IG-CDISC_SDTMIGCM_CMSEQ> bd:compliance <http://www.assero.co.uk/MDRSdtmIgD/CDISC/V1#IG-CDISC_SDTMIGCM_C_REQUIRED> . 
<http://www.assero.co.uk/MDRSdtmIgD/CDISC/V1#IG-CDISC_SDTMIGCM> bd:includesColumn <http://www.assero.co.uk/MDRSdtmIgD/CDISC/V1#IG-CDISC_SDTMIGCM_CMSEQ> . 
<http://www.assero.co.uk/MDRSdtmIgD/CDISC/V1#IG-CDISC_SDTMIGCM_CMGRPID> rdf:type bd:IgVariable . 
<http://www.assero.co.uk/MDRSdtmIgD/CDISC/V1#IG-CDISC_SDTMIGCM_CMGRPID> rdfs:label "Group ID"^^xsd:string . 
<http://www.assero.co.uk/MDRSdtmIgD/CDISC/V1#IG-CDISC_SDTMIGCM_CMGRPID> bd:ordinal "5"^^xsd:positiveInteger . 
<http://www.assero.co.uk/MDRSdtmIgD/CDISC/V1#IG-CDISC_SDTMIGCM_CMGRPID> bd:controlled_term_or_format ""^^xsd:string . 
<http://www.assero.co.uk/MDRSdtmIgD/CDISC/V1#IG-CDISC_SDTMIGCM_CMGRPID> bd:notes "Used to tie together a block of related records in a single domain for a subject."^^xsd:string . 
<http://www.assero.co.uk/MDRSdtmIgD/CDISC/V1#IG-CDISC_SDTMIGCM_CMGRPID> bd:name "CMGRPID"^^xsd:string . 
<http://www.assero.co.uk/MDRSdtmIgD/CDISC/V1#IG-CDISC_SDTMIGCM_CMGRPID> bd:basedOnVariable <http://www.assero.co.uk/MDRSdtmIgD/CDISC/V1#IG-CDISC_SDTMIGCM_CMGRPID_VR> . 
<http://www.assero.co.uk/MDRSdtmIgD/CDISC/V1#IG-CDISC_SDTMIGCM_CMGRPID_VR> rdf:type bo:CReference . 
<http://www.assero.co.uk/MDRSdtmIgD/CDISC/V1#IG-CDISC_SDTMIGCM_CMGRPID_VR> bo:hasColumn <http://www.assero.co.uk/MDRSdtmMd/CDISC/V1#M-CDISC_SDTMMODEL_INTERVENTIONS_xxGRPID> . 
<http://www.assero.co.uk/MDRSdtmIgD/CDISC/V1#IG-CDISC_SDTMIGCM_CMGRPID_VR> bo:enabled "true"^^xsd:boolean . 
<http://www.assero.co.uk/MDRSdtmIgD/CDISC/V1#IG-CDISC_SDTMIGCM_CMGRPID_VR> bo:optional "false"^^xsd:boolean . 
<http://www.assero.co.uk/MDRSdtmIgD/CDISC/V1#IG-CDISC_SDTMIGCM_CMGRPID_VR> bo:ordinal "1"^^xsd:positiveInteger . 
<http://www.assero.co.uk/MDRSdtmIgD/CDISC/V1#IG-CDISC_SDTMIGCM_CMGRPID> bd:compliance <http://www.assero.co.uk/MDRSdtmIgD/CDISC/V1#IG-CDISC_SDTMIGCM_C_PERMISSIBLE> . 
<http://www.assero.co.uk/MDRSdtmIgD/CDISC/V1#IG-CDISC_SDTMIGCM> bd:includesColumn <http://www.assero.co.uk/MDRSdtmIgD/CDISC/V1#IG-CDISC_SDTMIGCM_CMGRPID> . 
<http://www.assero.co.uk/MDRSdtmIgD/CDISC/V1#IG-CDISC_SDTMIGCM_CMSPID> rdf:type bd:IgVariable . 
<http://www.assero.co.uk/MDRSdtmIgD/CDISC/V1#IG-CDISC_SDTMIGCM_CMSPID> rdfs:label "Sponsor-Defined Identifier"^^xsd:string . 
<http://www.assero.co.uk/MDRSdtmIgD/CDISC/V1#IG-CDISC_SDTMIGCM_CMSPID> bd:ordinal "6"^^xsd:positiveInteger . 
<http://www.assero.co.uk/MDRSdtmIgD/CDISC/V1#IG-CDISC_SDTMIGCM_CMSPID> bd:controlled_term_or_format ""^^xsd:string . 
<http://www.assero.co.uk/MDRSdtmIgD/CDISC/V1#IG-CDISC_SDTMIGCM_CMSPID> bd:notes "Sponsor-defined reference number. Examples: a number pre-printed on the CRF as an explicit line identifier or record identifier defined in the sponsor's operational database. Example: line number on a concomitant medication page."^^xsd:string . 
<http://www.assero.co.uk/MDRSdtmIgD/CDISC/V1#IG-CDISC_SDTMIGCM_CMSPID> bd:name "CMSPID"^^xsd:string . 
<http://www.assero.co.uk/MDRSdtmIgD/CDISC/V1#IG-CDISC_SDTMIGCM_CMSPID> bd:basedOnVariable <http://www.assero.co.uk/MDRSdtmIgD/CDISC/V1#IG-CDISC_SDTMIGCM_CMSPID_VR> . 
<http://www.assero.co.uk/MDRSdtmIgD/CDISC/V1#IG-CDISC_SDTMIGCM_CMSPID_VR> rdf:type bo:CReference . 
<http://www.assero.co.uk/MDRSdtmIgD/CDISC/V1#IG-CDISC_SDTMIGCM_CMSPID_VR> bo:hasColumn <http://www.assero.co.uk/MDRSdtmMd/CDISC/V1#M-CDISC_SDTMMODEL_INTERVENTIONS_xxSPID> . 
<http://www.assero.co.uk/MDRSdtmIgD/CDISC/V1#IG-CDISC_SDTMIGCM_CMSPID_VR> bo:enabled "true"^^xsd:boolean . 
<http://www.assero.co.uk/MDRSdtmIgD/CDISC/V1#IG-CDISC_SDTMIGCM_CMSPID_VR> bo:optional "false"^^xsd:boolean . 
<http://www.assero.co.uk/MDRSdtmIgD/CDISC/V1#IG-CDISC_SDTMIGCM_CMSPID_VR> bo:ordinal "1"^^xsd:positiveInteger . 
<http://www.assero.co.uk/MDRSdtmIgD/CDISC/V1#IG-CDISC_SDTMIGCM_CMSPID> bd:compliance <http://www.assero.co.uk/MDRSdtmIgD/CDISC/V1#IG-CDISC_SDTMIGCM_C_PERMISSIBLE> . 
<http://www.assero.co.uk/MDRSdtmIgD/CDISC/V1#IG-CDISC_SDTMIGCM> bd:includesColumn <http://www.assero.co.uk/MDRSdtmIgD/CDISC/V1#IG-CDISC_SDTMIGCM_CMSPID> . 
<http://www.assero.co.uk/MDRSdtmIgD/CDISC/V1#IG-CDISC_SDTMIGCM_CMTRT> rdf:type bd:IgVariable . 
<http://www.assero.co.uk/MDRSdtmIgD/CDISC/V1#IG-CDISC_SDTMIGCM_CMTRT> rdfs:label "Reported Name of Drug, Med, or Therapy"^^xsd:string . 
<http://www.assero.co.uk/MDRSdtmIgD/CDISC/V1#IG-CDISC_SDTMIGCM_CMTRT> bd:ordinal "7"^^xsd:positiveInteger . 
<http://www.assero.co.uk/MDRSdtmIgD/CDISC/V1#IG-CDISC_SDTMIGCM_CMTRT> bd:controlled_term_or_format ""^^xsd:string . 
<http://www.assero.co.uk/MDRSdtmIgD/CDISC/V1#IG-CDISC_SDTMIGCM_CMTRT> bd:notes "Verbatim medication name that is either pre-printed or collected on a CRF."^^xsd:string . 
<http://www.assero.co.uk/MDRSdtmIgD/CDISC/V1#IG-CDISC_SDTMIGCM_CMTRT> bd:name "CMTRT"^^xsd:string . 
<http://www.assero.co.uk/MDRSdtmIgD/CDISC/V1#IG-CDISC_SDTMIGCM_CMTRT> bd:basedOnVariable <http://www.assero.co.uk/MDRSdtmIgD/CDISC/V1#IG-CDISC_SDTMIGCM_CMTRT_VR> . 
<http://www.assero.co.uk/MDRSdtmIgD/CDISC/V1#IG-CDISC_SDTMIGCM_CMTRT_VR> rdf:type bo:CReference . 
<http://www.assero.co.uk/MDRSdtmIgD/CDISC/V1#IG-CDISC_SDTMIGCM_CMTRT_VR> bo:hasColumn <http://www.assero.co.uk/MDRSdtmMd/CDISC/V1#M-CDISC_SDTMMODEL_INTERVENTIONS_xxTRT> . 
<http://www.assero.co.uk/MDRSdtmIgD/CDISC/V1#IG-CDISC_SDTMIGCM_CMTRT_VR> bo:enabled "true"^^xsd:boolean . 
<http://www.assero.co.uk/MDRSdtmIgD/CDISC/V1#IG-CDISC_SDTMIGCM_CMTRT_VR> bo:optional "false"^^xsd:boolean . 
<http://www.assero.co.uk/MDRSdtmIgD/CDISC/V1#IG-CDISC_SDTMIGCM_CMTRT_VR> bo:ordinal "1"^^xsd:positiveInteger . 
<http://www.assero.co.uk/MDRSdtmIgD/CDISC/V1#IG-CDISC_SDTMIGCM_CMTRT> bd:compliance <http://www.assero.co.uk/MDRSdtmIgD/CDISC/V1#IG-CDISC_SDTMIGCM_C_REQUIRED> . 
<http://www.assero.co.uk/MDRSdtmIgD/CDISC/V1#IG-CDISC_SDTMIGCM> bd:includesColumn <http://www.assero.co.uk/MDRSdtmIgD/CDISC/V1#IG-CDISC_SDTMIGCM_CMTRT> . 
<http://www.assero.co.uk/MDRSdtmIgD/CDISC/V1#IG-CDISC_SDTMIGCM_CMMODIFY> rdf:type bd:IgVariable . 
<http://www.assero.co.uk/MDRSdtmIgD/CDISC/V1#IG-CDISC_SDTMIGCM_CMMODIFY> rdfs:label "Modified Reported Name"^^xsd:string . 
<http://www.assero.co.uk/MDRSdtmIgD/CDISC/V1#IG-CDISC_SDTMIGCM_CMMODIFY> bd:ordinal "8"^^xsd:positiveInteger . 
<http://www.assero.co.uk/MDRSdtmIgD/CDISC/V1#IG-CDISC_SDTMIGCM_CMMODIFY> bd:controlled_term_or_format ""^^xsd:string . 
<http://www.assero.co.uk/MDRSdtmIgD/CDISC/V1#IG-CDISC_SDTMIGCM_CMMODIFY> bd:notes "If CMTRT is modified to facilitate coding, then CMMODIFY will contain the modified text."^^xsd:string . 
<http://www.assero.co.uk/MDRSdtmIgD/CDISC/V1#IG-CDISC_SDTMIGCM_CMMODIFY> bd:name "CMMODIFY"^^xsd:string . 
<http://www.assero.co.uk/MDRSdtmIgD/CDISC/V1#IG-CDISC_SDTMIGCM_CMMODIFY> bd:basedOnVariable <http://www.assero.co.uk/MDRSdtmIgD/CDISC/V1#IG-CDISC_SDTMIGCM_CMMODIFY_VR> . 
<http://www.assero.co.uk/MDRSdtmIgD/CDISC/V1#IG-CDISC_SDTMIGCM_CMMODIFY_VR> rdf:type bo:CReference . 
<http://www.assero.co.uk/MDRSdtmIgD/CDISC/V1#IG-CDISC_SDTMIGCM_CMMODIFY_VR> bo:hasColumn <http://www.assero.co.uk/MDRSdtmMd/CDISC/V1#M-CDISC_SDTMMODEL_INTERVENTIONS_xxMODIFY> . 
<http://www.assero.co.uk/MDRSdtmIgD/CDISC/V1#IG-CDISC_SDTMIGCM_CMMODIFY_VR> bo:enabled "true"^^xsd:boolean . 
<http://www.assero.co.uk/MDRSdtmIgD/CDISC/V1#IG-CDISC_SDTMIGCM_CMMODIFY_VR> bo:optional "false"^^xsd:boolean . 
<http://www.assero.co.uk/MDRSdtmIgD/CDISC/V1#IG-CDISC_SDTMIGCM_CMMODIFY_VR> bo:ordinal "1"^^xsd:positiveInteger . 
<http://www.assero.co.uk/MDRSdtmIgD/CDISC/V1#IG-CDISC_SDTMIGCM_CMMODIFY> bd:compliance <http://www.assero.co.uk/MDRSdtmIgD/CDISC/V1#IG-CDISC_SDTMIGCM_C_PERMISSIBLE> . 
<http://www.assero.co.uk/MDRSdtmIgD/CDISC/V1#IG-CDISC_SDTMIGCM> bd:includesColumn <http://www.assero.co.uk/MDRSdtmIgD/CDISC/V1#IG-CDISC_SDTMIGCM_CMMODIFY> . 
<http://www.assero.co.uk/MDRSdtmIgD/CDISC/V1#IG-CDISC_SDTMIGCM_CMDECOD> rdf:type bd:IgVariable . 
<http://www.assero.co.uk/MDRSdtmIgD/CDISC/V1#IG-CDISC_SDTMIGCM_CMDECOD> rdfs:label "Standardized Medication Name"^^xsd:string . 
<http://www.assero.co.uk/MDRSdtmIgD/CDISC/V1#IG-CDISC_SDTMIGCM_CMDECOD> bd:ordinal "9"^^xsd:positiveInteger . 
<http://www.assero.co.uk/MDRSdtmIgD/CDISC/V1#IG-CDISC_SDTMIGCM_CMDECOD> bd:controlled_term_or_format ""^^xsd:string . 
<http://www.assero.co.uk/MDRSdtmIgD/CDISC/V1#IG-CDISC_SDTMIGCM_CMDECOD> bd:notes "Standardized or dictionary-derived text description of CMTRT or CMMODIFY. Equivalent to the generic medication name in WHO Drug. The sponsor is expected to provide the dictionary name and version used to map the terms utilizing the define.xml external codelist attributes. If an intervention term does not have a decode value in the dictionary then CMDECOD will be left blank."^^xsd:string . 
<http://www.assero.co.uk/MDRSdtmIgD/CDISC/V1#IG-CDISC_SDTMIGCM_CMDECOD> bd:name "CMDECOD"^^xsd:string . 
<http://www.assero.co.uk/MDRSdtmIgD/CDISC/V1#IG-CDISC_SDTMIGCM_CMDECOD> bd:basedOnVariable <http://www.assero.co.uk/MDRSdtmIgD/CDISC/V1#IG-CDISC_SDTMIGCM_CMDECOD_VR> . 
<http://www.assero.co.uk/MDRSdtmIgD/CDISC/V1#IG-CDISC_SDTMIGCM_CMDECOD_VR> rdf:type bo:CReference . 
<http://www.assero.co.uk/MDRSdtmIgD/CDISC/V1#IG-CDISC_SDTMIGCM_CMDECOD_VR> bo:hasColumn <http://www.assero.co.uk/MDRSdtmMd/CDISC/V1#M-CDISC_SDTMMODEL_INTERVENTIONS_xxDECOD> . 
<http://www.assero.co.uk/MDRSdtmIgD/CDISC/V1#IG-CDISC_SDTMIGCM_CMDECOD_VR> bo:enabled "true"^^xsd:boolean . 
<http://www.assero.co.uk/MDRSdtmIgD/CDISC/V1#IG-CDISC_SDTMIGCM_CMDECOD_VR> bo:optional "false"^^xsd:boolean . 
<http://www.assero.co.uk/MDRSdtmIgD/CDISC/V1#IG-CDISC_SDTMIGCM_CMDECOD_VR> bo:ordinal "1"^^xsd:positiveInteger . 
<http://www.assero.co.uk/MDRSdtmIgD/CDISC/V1#IG-CDISC_SDTMIGCM_CMDECOD> bd:compliance <http://www.assero.co.uk/MDRSdtmIgD/CDISC/V1#IG-CDISC_SDTMIGCM_C_PERMISSIBLE> . 
<http://www.assero.co.uk/MDRSdtmIgD/CDISC/V1#IG-CDISC_SDTMIGCM> bd:includesColumn <http://www.assero.co.uk/MDRSdtmIgD/CDISC/V1#IG-CDISC_SDTMIGCM_CMDECOD> . 
<http://www.assero.co.uk/MDRSdtmIgD/CDISC/V1#IG-CDISC_SDTMIGCM_CMCAT> rdf:type bd:IgVariable . 
<http://www.assero.co.uk/MDRSdtmIgD/CDISC/V1#IG-CDISC_SDTMIGCM_CMCAT> rdfs:label "Category for Medication"^^xsd:string . 
<http://www.assero.co.uk/MDRSdtmIgD/CDISC/V1#IG-CDISC_SDTMIGCM_CMCAT> bd:ordinal "10"^^xsd:positiveInteger . 
<http://www.assero.co.uk/MDRSdtmIgD/CDISC/V1#IG-CDISC_SDTMIGCM_CMCAT> bd:controlled_term_or_format ""^^xsd:string . 
<http://www.assero.co.uk/MDRSdtmIgD/CDISC/V1#IG-CDISC_SDTMIGCM_CMCAT> bd:notes "Used to define a category of medications/treatments. Examples: PRIOR, CONCOMITANT, ANTI-CANCER MEDICATION, or GENERAL CONMED."^^xsd:string . 
<http://www.assero.co.uk/MDRSdtmIgD/CDISC/V1#IG-CDISC_SDTMIGCM_CMCAT> bd:name "CMCAT"^^xsd:string . 
<http://www.assero.co.uk/MDRSdtmIgD/CDISC/V1#IG-CDISC_SDTMIGCM_CMCAT> bd:basedOnVariable <http://www.assero.co.uk/MDRSdtmIgD/CDISC/V1#IG-CDISC_SDTMIGCM_CMCAT_VR> . 
<http://www.assero.co.uk/MDRSdtmIgD/CDISC/V1#IG-CDISC_SDTMIGCM_CMCAT_VR> rdf:type bo:CReference . 
<http://www.assero.co.uk/MDRSdtmIgD/CDISC/V1#IG-CDISC_SDTMIGCM_CMCAT_VR> bo:hasColumn <http://www.assero.co.uk/MDRSdtmMd/CDISC/V1#M-CDISC_SDTMMODEL_INTERVENTIONS_xxCAT> . 
<http://www.assero.co.uk/MDRSdtmIgD/CDISC/V1#IG-CDISC_SDTMIGCM_CMCAT_VR> bo:enabled "true"^^xsd:boolean . 
<http://www.assero.co.uk/MDRSdtmIgD/CDISC/V1#IG-CDISC_SDTMIGCM_CMCAT_VR> bo:optional "false"^^xsd:boolean . 
<http://www.assero.co.uk/MDRSdtmIgD/CDISC/V1#IG-CDISC_SDTMIGCM_CMCAT_VR> bo:ordinal "1"^^xsd:positiveInteger . 
<http://www.assero.co.uk/MDRSdtmIgD/CDISC/V1#IG-CDISC_SDTMIGCM_CMCAT> bd:compliance <http://www.assero.co.uk/MDRSdtmIgD/CDISC/V1#IG-CDISC_SDTMIGCM_C_PERMISSIBLE> . 
<http://www.assero.co.uk/MDRSdtmIgD/CDISC/V1#IG-CDISC_SDTMIGCM> bd:includesColumn <http://www.assero.co.uk/MDRSdtmIgD/CDISC/V1#IG-CDISC_SDTMIGCM_CMCAT> . 
<http://www.assero.co.uk/MDRSdtmIgD/CDISC/V1#IG-CDISC_SDTMIGCM_CMSCAT> rdf:type bd:IgVariable . 
<http://www.assero.co.uk/MDRSdtmIgD/CDISC/V1#IG-CDISC_SDTMIGCM_CMSCAT> rdfs:label "Subcategory for Medication"^^xsd:string . 
<http://www.assero.co.uk/MDRSdtmIgD/CDISC/V1#IG-CDISC_SDTMIGCM_CMSCAT> bd:ordinal "11"^^xsd:positiveInteger . 
<http://www.assero.co.uk/MDRSdtmIgD/CDISC/V1#IG-CDISC_SDTMIGCM_CMSCAT> bd:controlled_term_or_format ""^^xsd:string . 
<http://www.assero.co.uk/MDRSdtmIgD/CDISC/V1#IG-CDISC_SDTMIGCM_CMSCAT> bd:notes "A further categorization of medications/ treatment. Examples: CHEMOTHERAPY, HORMONAL THERAPY, ALTERNATIVE THERAPY."^^xsd:string . 
<http://www.assero.co.uk/MDRSdtmIgD/CDISC/V1#IG-CDISC_SDTMIGCM_CMSCAT> bd:name "CMSCAT"^^xsd:string . 
<http://www.assero.co.uk/MDRSdtmIgD/CDISC/V1#IG-CDISC_SDTMIGCM_CMSCAT> bd:basedOnVariable <http://www.assero.co.uk/MDRSdtmIgD/CDISC/V1#IG-CDISC_SDTMIGCM_CMSCAT_VR> . 
<http://www.assero.co.uk/MDRSdtmIgD/CDISC/V1#IG-CDISC_SDTMIGCM_CMSCAT_VR> rdf:type bo:CReference . 
<http://www.assero.co.uk/MDRSdtmIgD/CDISC/V1#IG-CDISC_SDTMIGCM_CMSCAT_VR> bo:hasColumn <http://www.assero.co.uk/MDRSdtmMd/CDISC/V1#M-CDISC_SDTMMODEL_INTERVENTIONS_xxSCAT> . 
<http://www.assero.co.uk/MDRSdtmIgD/CDISC/V1#IG-CDISC_SDTMIGCM_CMSCAT_VR> bo:enabled "true"^^xsd:boolean . 
<http://www.assero.co.uk/MDRSdtmIgD/CDISC/V1#IG-CDISC_SDTMIGCM_CMSCAT_VR> bo:optional "false"^^xsd:boolean . 
<http://www.assero.co.uk/MDRSdtmIgD/CDISC/V1#IG-CDISC_SDTMIGCM_CMSCAT_VR> bo:ordinal "1"^^xsd:positiveInteger . 
<http://www.assero.co.uk/MDRSdtmIgD/CDISC/V1#IG-CDISC_SDTMIGCM_CMSCAT> bd:compliance <http://www.assero.co.uk/MDRSdtmIgD/CDISC/V1#IG-CDISC_SDTMIGCM_C_PERMISSIBLE> . 
<http://www.assero.co.uk/MDRSdtmIgD/CDISC/V1#IG-CDISC_SDTMIGCM> bd:includesColumn <http://www.assero.co.uk/MDRSdtmIgD/CDISC/V1#IG-CDISC_SDTMIGCM_CMSCAT> . 
<http://www.assero.co.uk/MDRSdtmIgD/CDISC/V1#IG-CDISC_SDTMIGCM_CMPRESP> rdf:type bd:IgVariable . 
<http://www.assero.co.uk/MDRSdtmIgD/CDISC/V1#IG-CDISC_SDTMIGCM_CMPRESP> rdfs:label "CM Pre-Specified"^^xsd:string . 
<http://www.assero.co.uk/MDRSdtmIgD/CDISC/V1#IG-CDISC_SDTMIGCM_CMPRESP> bd:ordinal "12"^^xsd:positiveInteger . 
<http://www.assero.co.uk/MDRSdtmIgD/CDISC/V1#IG-CDISC_SDTMIGCM_CMPRESP> bd:controlled_term_or_format "(NY)"^^xsd:string . 
<http://www.assero.co.uk/MDRSdtmIgD/CDISC/V1#IG-CDISC_SDTMIGCM_CMPRESP> bd:notes "Used to indicate whether (Y/null) information about the use of a specific medication was solicited on the CRF."^^xsd:string . 
<http://www.assero.co.uk/MDRSdtmIgD/CDISC/V1#IG-CDISC_SDTMIGCM_CMPRESP> bd:name "CMPRESP"^^xsd:string . 
<http://www.assero.co.uk/MDRSdtmIgD/CDISC/V1#IG-CDISC_SDTMIGCM_CMPRESP> bd:basedOnVariable <http://www.assero.co.uk/MDRSdtmIgD/CDISC/V1#IG-CDISC_SDTMIGCM_CMPRESP_VR> . 
<http://www.assero.co.uk/MDRSdtmIgD/CDISC/V1#IG-CDISC_SDTMIGCM_CMPRESP_VR> rdf:type bo:CReference . 
<http://www.assero.co.uk/MDRSdtmIgD/CDISC/V1#IG-CDISC_SDTMIGCM_CMPRESP_VR> bo:hasColumn <http://www.assero.co.uk/MDRSdtmMd/CDISC/V1#M-CDISC_SDTMMODEL_INTERVENTIONS_xxPRESP> . 
<http://www.assero.co.uk/MDRSdtmIgD/CDISC/V1#IG-CDISC_SDTMIGCM_CMPRESP_VR> bo:enabled "true"^^xsd:boolean . 
<http://www.assero.co.uk/MDRSdtmIgD/CDISC/V1#IG-CDISC_SDTMIGCM_CMPRESP_VR> bo:optional "false"^^xsd:boolean . 
<http://www.assero.co.uk/MDRSdtmIgD/CDISC/V1#IG-CDISC_SDTMIGCM_CMPRESP_VR> bo:ordinal "1"^^xsd:positiveInteger . 
<http://www.assero.co.uk/MDRSdtmIgD/CDISC/V1#IG-CDISC_SDTMIGCM_CMPRESP> bd:compliance <http://www.assero.co.uk/MDRSdtmIgD/CDISC/V1#IG-CDISC_SDTMIGCM_C_PERMISSIBLE> . 
<http://www.assero.co.uk/MDRSdtmIgD/CDISC/V1#IG-CDISC_SDTMIGCM> bd:includesColumn <http://www.assero.co.uk/MDRSdtmIgD/CDISC/V1#IG-CDISC_SDTMIGCM_CMPRESP> . 
<http://www.assero.co.uk/MDRSdtmIgD/CDISC/V1#IG-CDISC_SDTMIGCM_CMOCCUR> rdf:type bd:IgVariable . 
<http://www.assero.co.uk/MDRSdtmIgD/CDISC/V1#IG-CDISC_SDTMIGCM_CMOCCUR> rdfs:label "CM Occurrence"^^xsd:string . 
<http://www.assero.co.uk/MDRSdtmIgD/CDISC/V1#IG-CDISC_SDTMIGCM_CMOCCUR> bd:ordinal "13"^^xsd:positiveInteger . 
<http://www.assero.co.uk/MDRSdtmIgD/CDISC/V1#IG-CDISC_SDTMIGCM_CMOCCUR> bd:controlled_term_or_format "(NY)"^^xsd:string . 
<http://www.assero.co.uk/MDRSdtmIgD/CDISC/V1#IG-CDISC_SDTMIGCM_CMOCCUR> bd:notes "When the use of specific medications is solicited, CMOCCUR is used to indicate whether or not (Y/N) use of the medication occurred. Values are null for medications not specifically solicited."^^xsd:string . 
<http://www.assero.co.uk/MDRSdtmIgD/CDISC/V1#IG-CDISC_SDTMIGCM_CMOCCUR> bd:name "CMOCCUR"^^xsd:string . 
<http://www.assero.co.uk/MDRSdtmIgD/CDISC/V1#IG-CDISC_SDTMIGCM_CMOCCUR> bd:basedOnVariable <http://www.assero.co.uk/MDRSdtmIgD/CDISC/V1#IG-CDISC_SDTMIGCM_CMOCCUR_VR> . 
<http://www.assero.co.uk/MDRSdtmIgD/CDISC/V1#IG-CDISC_SDTMIGCM_CMOCCUR_VR> rdf:type bo:CReference . 
<http://www.assero.co.uk/MDRSdtmIgD/CDISC/V1#IG-CDISC_SDTMIGCM_CMOCCUR_VR> bo:hasColumn <http://www.assero.co.uk/MDRSdtmMd/CDISC/V1#M-CDISC_SDTMMODEL_INTERVENTIONS_xxOCCUR> . 
<http://www.assero.co.uk/MDRSdtmIgD/CDISC/V1#IG-CDISC_SDTMIGCM_CMOCCUR_VR> bo:enabled "true"^^xsd:boolean . 
<http://www.assero.co.uk/MDRSdtmIgD/CDISC/V1#IG-CDISC_SDTMIGCM_CMOCCUR_VR> bo:optional "false"^^xsd:boolean . 
<http://www.assero.co.uk/MDRSdtmIgD/CDISC/V1#IG-CDISC_SDTMIGCM_CMOCCUR_VR> bo:ordinal "1"^^xsd:positiveInteger . 
<http://www.assero.co.uk/MDRSdtmIgD/CDISC/V1#IG-CDISC_SDTMIGCM_CMOCCUR> bd:compliance <http://www.assero.co.uk/MDRSdtmIgD/CDISC/V1#IG-CDISC_SDTMIGCM_C_PERMISSIBLE> . 
<http://www.assero.co.uk/MDRSdtmIgD/CDISC/V1#IG-CDISC_SDTMIGCM> bd:includesColumn <http://www.assero.co.uk/MDRSdtmIgD/CDISC/V1#IG-CDISC_SDTMIGCM_CMOCCUR> . 
<http://www.assero.co.uk/MDRSdtmIgD/CDISC/V1#IG-CDISC_SDTMIGCM_CMSTAT> rdf:type bd:IgVariable . 
<http://www.assero.co.uk/MDRSdtmIgD/CDISC/V1#IG-CDISC_SDTMIGCM_CMSTAT> rdfs:label "Completion Status"^^xsd:string . 
<http://www.assero.co.uk/MDRSdtmIgD/CDISC/V1#IG-CDISC_SDTMIGCM_CMSTAT> bd:ordinal "14"^^xsd:positiveInteger . 
<http://www.assero.co.uk/MDRSdtmIgD/CDISC/V1#IG-CDISC_SDTMIGCM_CMSTAT> bd:controlled_term_or_format "(ND)"^^xsd:string . 
<http://www.assero.co.uk/MDRSdtmIgD/CDISC/V1#IG-CDISC_SDTMIGCM_CMSTAT> bd:notes "Used to indicate that a question about a pre-specified medication was not answered. Should be null or have a value of NOT DONE."^^xsd:string . 
<http://www.assero.co.uk/MDRSdtmIgD/CDISC/V1#IG-CDISC_SDTMIGCM_CMSTAT> bd:name "CMSTAT"^^xsd:string . 
<http://www.assero.co.uk/MDRSdtmIgD/CDISC/V1#IG-CDISC_SDTMIGCM_CMSTAT> bd:basedOnVariable <http://www.assero.co.uk/MDRSdtmIgD/CDISC/V1#IG-CDISC_SDTMIGCM_CMSTAT_VR> . 
<http://www.assero.co.uk/MDRSdtmIgD/CDISC/V1#IG-CDISC_SDTMIGCM_CMSTAT_VR> rdf:type bo:CReference . 
<http://www.assero.co.uk/MDRSdtmIgD/CDISC/V1#IG-CDISC_SDTMIGCM_CMSTAT_VR> bo:hasColumn <http://www.assero.co.uk/MDRSdtmMd/CDISC/V1#M-CDISC_SDTMMODEL_INTERVENTIONS_xxSTAT> . 
<http://www.assero.co.uk/MDRSdtmIgD/CDISC/V1#IG-CDISC_SDTMIGCM_CMSTAT_VR> bo:enabled "true"^^xsd:boolean . 
<http://www.assero.co.uk/MDRSdtmIgD/CDISC/V1#IG-CDISC_SDTMIGCM_CMSTAT_VR> bo:optional "false"^^xsd:boolean . 
<http://www.assero.co.uk/MDRSdtmIgD/CDISC/V1#IG-CDISC_SDTMIGCM_CMSTAT_VR> bo:ordinal "1"^^xsd:positiveInteger . 
<http://www.assero.co.uk/MDRSdtmIgD/CDISC/V1#IG-CDISC_SDTMIGCM_CMSTAT> bd:compliance <http://www.assero.co.uk/MDRSdtmIgD/CDISC/V1#IG-CDISC_SDTMIGCM_C_PERMISSIBLE> . 
<http://www.assero.co.uk/MDRSdtmIgD/CDISC/V1#IG-CDISC_SDTMIGCM> bd:includesColumn <http://www.assero.co.uk/MDRSdtmIgD/CDISC/V1#IG-CDISC_SDTMIGCM_CMSTAT> . 
<http://www.assero.co.uk/MDRSdtmIgD/CDISC/V1#IG-CDISC_SDTMIGCM_CMREASND> rdf:type bd:IgVariable . 
<http://www.assero.co.uk/MDRSdtmIgD/CDISC/V1#IG-CDISC_SDTMIGCM_CMREASND> rdfs:label "Reason Medication Not Collected"^^xsd:string . 
<http://www.assero.co.uk/MDRSdtmIgD/CDISC/V1#IG-CDISC_SDTMIGCM_CMREASND> bd:ordinal "15"^^xsd:positiveInteger . 
<http://www.assero.co.uk/MDRSdtmIgD/CDISC/V1#IG-CDISC_SDTMIGCM_CMREASND> bd:controlled_term_or_format ""^^xsd:string . 
<http://www.assero.co.uk/MDRSdtmIgD/CDISC/V1#IG-CDISC_SDTMIGCM_CMREASND> bd:notes "Describes the reason concomitant medication was not collected. Used in conjunction with CMSTAT when value is NOT DONE."^^xsd:string . 
<http://www.assero.co.uk/MDRSdtmIgD/CDISC/V1#IG-CDISC_SDTMIGCM_CMREASND> bd:name "CMREASND"^^xsd:string . 
<http://www.assero.co.uk/MDRSdtmIgD/CDISC/V1#IG-CDISC_SDTMIGCM_CMREASND> bd:basedOnVariable <http://www.assero.co.uk/MDRSdtmIgD/CDISC/V1#IG-CDISC_SDTMIGCM_CMREASND_VR> . 
<http://www.assero.co.uk/MDRSdtmIgD/CDISC/V1#IG-CDISC_SDTMIGCM_CMREASND_VR> rdf:type bo:CReference . 
<http://www.assero.co.uk/MDRSdtmIgD/CDISC/V1#IG-CDISC_SDTMIGCM_CMREASND_VR> bo:hasColumn <http://www.assero.co.uk/MDRSdtmMd/CDISC/V1#M-CDISC_SDTMMODEL_INTERVENTIONS_xxREASND> . 
<http://www.assero.co.uk/MDRSdtmIgD/CDISC/V1#IG-CDISC_SDTMIGCM_CMREASND_VR> bo:enabled "true"^^xsd:boolean . 
<http://www.assero.co.uk/MDRSdtmIgD/CDISC/V1#IG-CDISC_SDTMIGCM_CMREASND_VR> bo:optional "false"^^xsd:boolean . 
<http://www.assero.co.uk/MDRSdtmIgD/CDISC/V1#IG-CDISC_SDTMIGCM_CMREASND_VR> bo:ordinal "1"^^xsd:positiveInteger . 
<http://www.assero.co.uk/MDRSdtmIgD/CDISC/V1#IG-CDISC_SDTMIGCM_CMREASND> bd:compliance <http://www.assero.co.uk/MDRSdtmIgD/CDISC/V1#IG-CDISC_SDTMIGCM_C_PERMISSIBLE> . 
<http://www.assero.co.uk/MDRSdtmIgD/CDISC/V1#IG-CDISC_SDTMIGCM> bd:includesColumn <http://www.assero.co.uk/MDRSdtmIgD/CDISC/V1#IG-CDISC_SDTMIGCM_CMREASND> . 
<http://www.assero.co.uk/MDRSdtmIgD/CDISC/V1#IG-CDISC_SDTMIGCM_CMINDC> rdf:type bd:IgVariable . 
<http://www.assero.co.uk/MDRSdtmIgD/CDISC/V1#IG-CDISC_SDTMIGCM_CMINDC> rdfs:label "Indication"^^xsd:string . 
<http://www.assero.co.uk/MDRSdtmIgD/CDISC/V1#IG-CDISC_SDTMIGCM_CMINDC> bd:ordinal "16"^^xsd:positiveInteger . 
<http://www.assero.co.uk/MDRSdtmIgD/CDISC/V1#IG-CDISC_SDTMIGCM_CMINDC> bd:controlled_term_or_format ""^^xsd:string . 
<http://www.assero.co.uk/MDRSdtmIgD/CDISC/V1#IG-CDISC_SDTMIGCM_CMINDC> bd:notes "Denotes why a medication was taken or administered. Examples: NAUSEA, HYPERTENSION."^^xsd:string . 
<http://www.assero.co.uk/MDRSdtmIgD/CDISC/V1#IG-CDISC_SDTMIGCM_CMINDC> bd:name "CMINDC"^^xsd:string . 
<http://www.assero.co.uk/MDRSdtmIgD/CDISC/V1#IG-CDISC_SDTMIGCM_CMINDC> bd:basedOnVariable <http://www.assero.co.uk/MDRSdtmIgD/CDISC/V1#IG-CDISC_SDTMIGCM_CMINDC_VR> . 
<http://www.assero.co.uk/MDRSdtmIgD/CDISC/V1#IG-CDISC_SDTMIGCM_CMINDC_VR> rdf:type bo:CReference . 
<http://www.assero.co.uk/MDRSdtmIgD/CDISC/V1#IG-CDISC_SDTMIGCM_CMINDC_VR> bo:hasColumn <http://www.assero.co.uk/MDRSdtmMd/CDISC/V1#M-CDISC_SDTMMODEL_INTERVENTIONS_xxINDC> . 
<http://www.assero.co.uk/MDRSdtmIgD/CDISC/V1#IG-CDISC_SDTMIGCM_CMINDC_VR> bo:enabled "true"^^xsd:boolean . 
<http://www.assero.co.uk/MDRSdtmIgD/CDISC/V1#IG-CDISC_SDTMIGCM_CMINDC_VR> bo:optional "false"^^xsd:boolean . 
<http://www.assero.co.uk/MDRSdtmIgD/CDISC/V1#IG-CDISC_SDTMIGCM_CMINDC_VR> bo:ordinal "1"^^xsd:positiveInteger . 
<http://www.assero.co.uk/MDRSdtmIgD/CDISC/V1#IG-CDISC_SDTMIGCM_CMINDC> bd:compliance <http://www.assero.co.uk/MDRSdtmIgD/CDISC/V1#IG-CDISC_SDTMIGCM_C_PERMISSIBLE> . 
<http://www.assero.co.uk/MDRSdtmIgD/CDISC/V1#IG-CDISC_SDTMIGCM> bd:includesColumn <http://www.assero.co.uk/MDRSdtmIgD/CDISC/V1#IG-CDISC_SDTMIGCM_CMINDC> . 
<http://www.assero.co.uk/MDRSdtmIgD/CDISC/V1#IG-CDISC_SDTMIGCM_CMCLAS> rdf:type bd:IgVariable . 
<http://www.assero.co.uk/MDRSdtmIgD/CDISC/V1#IG-CDISC_SDTMIGCM_CMCLAS> rdfs:label "Medication Class"^^xsd:string . 
<http://www.assero.co.uk/MDRSdtmIgD/CDISC/V1#IG-CDISC_SDTMIGCM_CMCLAS> bd:ordinal "17"^^xsd:positiveInteger . 
<http://www.assero.co.uk/MDRSdtmIgD/CDISC/V1#IG-CDISC_SDTMIGCM_CMCLAS> bd:controlled_term_or_format ""^^xsd:string . 
<http://www.assero.co.uk/MDRSdtmIgD/CDISC/V1#IG-CDISC_SDTMIGCM_CMCLAS> bd:notes "Drug class. May be obtained from coding. When coding to a single class, populate with class value. If using a dictionary and coding to multiple classes, then follow assumption 4.1.2.8.3 or omit CMCLAS."^^xsd:string . 
<http://www.assero.co.uk/MDRSdtmIgD/CDISC/V1#IG-CDISC_SDTMIGCM_CMCLAS> bd:name "CMCLAS"^^xsd:string . 
<http://www.assero.co.uk/MDRSdtmIgD/CDISC/V1#IG-CDISC_SDTMIGCM_CMCLAS> bd:basedOnVariable <http://www.assero.co.uk/MDRSdtmIgD/CDISC/V1#IG-CDISC_SDTMIGCM_CMCLAS_VR> . 
<http://www.assero.co.uk/MDRSdtmIgD/CDISC/V1#IG-CDISC_SDTMIGCM_CMCLAS_VR> rdf:type bo:CReference . 
<http://www.assero.co.uk/MDRSdtmIgD/CDISC/V1#IG-CDISC_SDTMIGCM_CMCLAS_VR> bo:hasColumn <http://www.assero.co.uk/MDRSdtmMd/CDISC/V1#M-CDISC_SDTMMODEL_INTERVENTIONS_xxCLAS> . 
<http://www.assero.co.uk/MDRSdtmIgD/CDISC/V1#IG-CDISC_SDTMIGCM_CMCLAS_VR> bo:enabled "true"^^xsd:boolean . 
<http://www.assero.co.uk/MDRSdtmIgD/CDISC/V1#IG-CDISC_SDTMIGCM_CMCLAS_VR> bo:optional "false"^^xsd:boolean . 
<http://www.assero.co.uk/MDRSdtmIgD/CDISC/V1#IG-CDISC_SDTMIGCM_CMCLAS_VR> bo:ordinal "1"^^xsd:positiveInteger . 
<http://www.assero.co.uk/MDRSdtmIgD/CDISC/V1#IG-CDISC_SDTMIGCM_CMCLAS> bd:compliance <http://www.assero.co.uk/MDRSdtmIgD/CDISC/V1#IG-CDISC_SDTMIGCM_C_PERMISSIBLE> . 
<http://www.assero.co.uk/MDRSdtmIgD/CDISC/V1#IG-CDISC_SDTMIGCM> bd:includesColumn <http://www.assero.co.uk/MDRSdtmIgD/CDISC/V1#IG-CDISC_SDTMIGCM_CMCLAS> . 
<http://www.assero.co.uk/MDRSdtmIgD/CDISC/V1#IG-CDISC_SDTMIGCM_CMCLASCD> rdf:type bd:IgVariable . 
<http://www.assero.co.uk/MDRSdtmIgD/CDISC/V1#IG-CDISC_SDTMIGCM_CMCLASCD> rdfs:label "Medication Class Code"^^xsd:string . 
<http://www.assero.co.uk/MDRSdtmIgD/CDISC/V1#IG-CDISC_SDTMIGCM_CMCLASCD> bd:ordinal "18"^^xsd:positiveInteger . 
<http://www.assero.co.uk/MDRSdtmIgD/CDISC/V1#IG-CDISC_SDTMIGCM_CMCLASCD> bd:controlled_term_or_format ""^^xsd:string . 
<http://www.assero.co.uk/MDRSdtmIgD/CDISC/V1#IG-CDISC_SDTMIGCM_CMCLASCD> bd:notes "Class code corresponding to CMCLAS. Drug class. May be obtained from coding. When coding to a single class, populate with class code. If using a dictionary and coding to multiple classes, then follow assumption 4.1.2.8.3 or omit CMCLASCD."^^xsd:string . 
<http://www.assero.co.uk/MDRSdtmIgD/CDISC/V1#IG-CDISC_SDTMIGCM_CMCLASCD> bd:name "CMCLASCD"^^xsd:string . 
<http://www.assero.co.uk/MDRSdtmIgD/CDISC/V1#IG-CDISC_SDTMIGCM_CMCLASCD> bd:basedOnVariable <http://www.assero.co.uk/MDRSdtmIgD/CDISC/V1#IG-CDISC_SDTMIGCM_CMCLASCD_VR> . 
<http://www.assero.co.uk/MDRSdtmIgD/CDISC/V1#IG-CDISC_SDTMIGCM_CMCLASCD_VR> rdf:type bo:CReference . 
<http://www.assero.co.uk/MDRSdtmIgD/CDISC/V1#IG-CDISC_SDTMIGCM_CMCLASCD_VR> bo:hasColumn <http://www.assero.co.uk/MDRSdtmMd/CDISC/V1#M-CDISC_SDTMMODEL_INTERVENTIONS_xxCLASCD> . 
<http://www.assero.co.uk/MDRSdtmIgD/CDISC/V1#IG-CDISC_SDTMIGCM_CMCLASCD_VR> bo:enabled "true"^^xsd:boolean . 
<http://www.assero.co.uk/MDRSdtmIgD/CDISC/V1#IG-CDISC_SDTMIGCM_CMCLASCD_VR> bo:optional "false"^^xsd:boolean . 
<http://www.assero.co.uk/MDRSdtmIgD/CDISC/V1#IG-CDISC_SDTMIGCM_CMCLASCD_VR> bo:ordinal "1"^^xsd:positiveInteger . 
<http://www.assero.co.uk/MDRSdtmIgD/CDISC/V1#IG-CDISC_SDTMIGCM_CMCLASCD> bd:compliance <http://www.assero.co.uk/MDRSdtmIgD/CDISC/V1#IG-CDISC_SDTMIGCM_C_PERMISSIBLE> . 
<http://www.assero.co.uk/MDRSdtmIgD/CDISC/V1#IG-CDISC_SDTMIGCM> bd:includesColumn <http://www.assero.co.uk/MDRSdtmIgD/CDISC/V1#IG-CDISC_SDTMIGCM_CMCLASCD> . 
<http://www.assero.co.uk/MDRSdtmIgD/CDISC/V1#IG-CDISC_SDTMIGCM_CMDOSE> rdf:type bd:IgVariable . 
<http://www.assero.co.uk/MDRSdtmIgD/CDISC/V1#IG-CDISC_SDTMIGCM_CMDOSE> rdfs:label "Dose per Administration"^^xsd:string . 
<http://www.assero.co.uk/MDRSdtmIgD/CDISC/V1#IG-CDISC_SDTMIGCM_CMDOSE> bd:ordinal "19"^^xsd:positiveInteger . 
<http://www.assero.co.uk/MDRSdtmIgD/CDISC/V1#IG-CDISC_SDTMIGCM_CMDOSE> bd:controlled_term_or_format ""^^xsd:string . 
<http://www.assero.co.uk/MDRSdtmIgD/CDISC/V1#IG-CDISC_SDTMIGCM_CMDOSE> bd:notes "Amount of CMTRT taken."^^xsd:string . 
<http://www.assero.co.uk/MDRSdtmIgD/CDISC/V1#IG-CDISC_SDTMIGCM_CMDOSE> bd:name "CMDOSE"^^xsd:string . 
<http://www.assero.co.uk/MDRSdtmIgD/CDISC/V1#IG-CDISC_SDTMIGCM_CMDOSE> bd:basedOnVariable <http://www.assero.co.uk/MDRSdtmIgD/CDISC/V1#IG-CDISC_SDTMIGCM_CMDOSE_VR> . 
<http://www.assero.co.uk/MDRSdtmIgD/CDISC/V1#IG-CDISC_SDTMIGCM_CMDOSE_VR> rdf:type bo:CReference . 
<http://www.assero.co.uk/MDRSdtmIgD/CDISC/V1#IG-CDISC_SDTMIGCM_CMDOSE_VR> bo:hasColumn <http://www.assero.co.uk/MDRSdtmMd/CDISC/V1#M-CDISC_SDTMMODEL_INTERVENTIONS_xxDOSE> . 
<http://www.assero.co.uk/MDRSdtmIgD/CDISC/V1#IG-CDISC_SDTMIGCM_CMDOSE_VR> bo:enabled "true"^^xsd:boolean . 
<http://www.assero.co.uk/MDRSdtmIgD/CDISC/V1#IG-CDISC_SDTMIGCM_CMDOSE_VR> bo:optional "false"^^xsd:boolean . 
<http://www.assero.co.uk/MDRSdtmIgD/CDISC/V1#IG-CDISC_SDTMIGCM_CMDOSE_VR> bo:ordinal "1"^^xsd:positiveInteger . 
<http://www.assero.co.uk/MDRSdtmIgD/CDISC/V1#IG-CDISC_SDTMIGCM_CMDOSE> bd:compliance <http://www.assero.co.uk/MDRSdtmIgD/CDISC/V1#IG-CDISC_SDTMIGCM_C_PERMISSIBLE> . 
<http://www.assero.co.uk/MDRSdtmIgD/CDISC/V1#IG-CDISC_SDTMIGCM> bd:includesColumn <http://www.assero.co.uk/MDRSdtmIgD/CDISC/V1#IG-CDISC_SDTMIGCM_CMDOSE> . 
<http://www.assero.co.uk/MDRSdtmIgD/CDISC/V1#IG-CDISC_SDTMIGCM_CMDOSTXT> rdf:type bd:IgVariable . 
<http://www.assero.co.uk/MDRSdtmIgD/CDISC/V1#IG-CDISC_SDTMIGCM_CMDOSTXT> rdfs:label "Dose Description"^^xsd:string . 
<http://www.assero.co.uk/MDRSdtmIgD/CDISC/V1#IG-CDISC_SDTMIGCM_CMDOSTXT> bd:ordinal "20"^^xsd:positiveInteger . 
<http://www.assero.co.uk/MDRSdtmIgD/CDISC/V1#IG-CDISC_SDTMIGCM_CMDOSTXT> bd:controlled_term_or_format ""^^xsd:string . 
<http://www.assero.co.uk/MDRSdtmIgD/CDISC/V1#IG-CDISC_SDTMIGCM_CMDOSTXT> bd:notes "Dosing amounts or a range of dosing information collected in text form. Units may be stored in CMDOSU. Example: 200-400, 15-20."^^xsd:string . 
<http://www.assero.co.uk/MDRSdtmIgD/CDISC/V1#IG-CDISC_SDTMIGCM_CMDOSTXT> bd:name "CMDOSTXT"^^xsd:string . 
<http://www.assero.co.uk/MDRSdtmIgD/CDISC/V1#IG-CDISC_SDTMIGCM_CMDOSTXT> bd:basedOnVariable <http://www.assero.co.uk/MDRSdtmIgD/CDISC/V1#IG-CDISC_SDTMIGCM_CMDOSTXT_VR> . 
<http://www.assero.co.uk/MDRSdtmIgD/CDISC/V1#IG-CDISC_SDTMIGCM_CMDOSTXT_VR> rdf:type bo:CReference . 
<http://www.assero.co.uk/MDRSdtmIgD/CDISC/V1#IG-CDISC_SDTMIGCM_CMDOSTXT_VR> bo:hasColumn <http://www.assero.co.uk/MDRSdtmMd/CDISC/V1#M-CDISC_SDTMMODEL_INTERVENTIONS_xxDOSTXT> . 
<http://www.assero.co.uk/MDRSdtmIgD/CDISC/V1#IG-CDISC_SDTMIGCM_CMDOSTXT_VR> bo:enabled "true"^^xsd:boolean . 
<http://www.assero.co.uk/MDRSdtmIgD/CDISC/V1#IG-CDISC_SDTMIGCM_CMDOSTXT_VR> bo:optional "false"^^xsd:boolean . 
<http://www.assero.co.uk/MDRSdtmIgD/CDISC/V1#IG-CDISC_SDTMIGCM_CMDOSTXT_VR> bo:ordinal "1"^^xsd:positiveInteger . 
<http://www.assero.co.uk/MDRSdtmIgD/CDISC/V1#IG-CDISC_SDTMIGCM_CMDOSTXT> bd:compliance <http://www.assero.co.uk/MDRSdtmIgD/CDISC/V1#IG-CDISC_SDTMIGCM_C_PERMISSIBLE> . 
<http://www.assero.co.uk/MDRSdtmIgD/CDISC/V1#IG-CDISC_SDTMIGCM> bd:includesColumn <http://www.assero.co.uk/MDRSdtmIgD/CDISC/V1#IG-CDISC_SDTMIGCM_CMDOSTXT> . 
<http://www.assero.co.uk/MDRSdtmIgD/CDISC/V1#IG-CDISC_SDTMIGCM_CMDOSU> rdf:type bd:IgVariable . 
<http://www.assero.co.uk/MDRSdtmIgD/CDISC/V1#IG-CDISC_SDTMIGCM_CMDOSU> rdfs:label "Dose Units"^^xsd:string . 
<http://www.assero.co.uk/MDRSdtmIgD/CDISC/V1#IG-CDISC_SDTMIGCM_CMDOSU> bd:ordinal "21"^^xsd:positiveInteger . 
<http://www.assero.co.uk/MDRSdtmIgD/CDISC/V1#IG-CDISC_SDTMIGCM_CMDOSU> bd:controlled_term_or_format "(UNIT)"^^xsd:string . 
<http://www.assero.co.uk/MDRSdtmIgD/CDISC/V1#IG-CDISC_SDTMIGCM_CMDOSU> bd:notes "Units for CMDOSE, CMDOSTXT, and CMDOSTOT. Examples: ng, mg, or mg/kg."^^xsd:string . 
<http://www.assero.co.uk/MDRSdtmIgD/CDISC/V1#IG-CDISC_SDTMIGCM_CMDOSU> bd:name "CMDOSU"^^xsd:string . 
<http://www.assero.co.uk/MDRSdtmIgD/CDISC/V1#IG-CDISC_SDTMIGCM_CMDOSU> bd:basedOnVariable <http://www.assero.co.uk/MDRSdtmIgD/CDISC/V1#IG-CDISC_SDTMIGCM_CMDOSU_VR> . 
<http://www.assero.co.uk/MDRSdtmIgD/CDISC/V1#IG-CDISC_SDTMIGCM_CMDOSU_VR> rdf:type bo:CReference . 
<http://www.assero.co.uk/MDRSdtmIgD/CDISC/V1#IG-CDISC_SDTMIGCM_CMDOSU_VR> bo:hasColumn <http://www.assero.co.uk/MDRSdtmMd/CDISC/V1#M-CDISC_SDTMMODEL_INTERVENTIONS_xxDOSU> . 
<http://www.assero.co.uk/MDRSdtmIgD/CDISC/V1#IG-CDISC_SDTMIGCM_CMDOSU_VR> bo:enabled "true"^^xsd:boolean . 
<http://www.assero.co.uk/MDRSdtmIgD/CDISC/V1#IG-CDISC_SDTMIGCM_CMDOSU_VR> bo:optional "false"^^xsd:boolean . 
<http://www.assero.co.uk/MDRSdtmIgD/CDISC/V1#IG-CDISC_SDTMIGCM_CMDOSU_VR> bo:ordinal "1"^^xsd:positiveInteger . 
<http://www.assero.co.uk/MDRSdtmIgD/CDISC/V1#IG-CDISC_SDTMIGCM_CMDOSU> bd:compliance <http://www.assero.co.uk/MDRSdtmIgD/CDISC/V1#IG-CDISC_SDTMIGCM_C_PERMISSIBLE> . 
<http://www.assero.co.uk/MDRSdtmIgD/CDISC/V1#IG-CDISC_SDTMIGCM> bd:includesColumn <http://www.assero.co.uk/MDRSdtmIgD/CDISC/V1#IG-CDISC_SDTMIGCM_CMDOSU> . 
<http://www.assero.co.uk/MDRSdtmIgD/CDISC/V1#IG-CDISC_SDTMIGCM_CMDOSFRM> rdf:type bd:IgVariable . 
<http://www.assero.co.uk/MDRSdtmIgD/CDISC/V1#IG-CDISC_SDTMIGCM_CMDOSFRM> rdfs:label "Dose Form"^^xsd:string . 
<http://www.assero.co.uk/MDRSdtmIgD/CDISC/V1#IG-CDISC_SDTMIGCM_CMDOSFRM> bd:ordinal "22"^^xsd:positiveInteger . 
<http://www.assero.co.uk/MDRSdtmIgD/CDISC/V1#IG-CDISC_SDTMIGCM_CMDOSFRM> bd:controlled_term_or_format "(FRM)"^^xsd:string . 
<http://www.assero.co.uk/MDRSdtmIgD/CDISC/V1#IG-CDISC_SDTMIGCM_CMDOSFRM> bd:notes "Dose form for CMTRT. Examples: TABLET, LOTION."^^xsd:string . 
<http://www.assero.co.uk/MDRSdtmIgD/CDISC/V1#IG-CDISC_SDTMIGCM_CMDOSFRM> bd:name "CMDOSFRM"^^xsd:string . 
<http://www.assero.co.uk/MDRSdtmIgD/CDISC/V1#IG-CDISC_SDTMIGCM_CMDOSFRM> bd:basedOnVariable <http://www.assero.co.uk/MDRSdtmIgD/CDISC/V1#IG-CDISC_SDTMIGCM_CMDOSFRM_VR> . 
<http://www.assero.co.uk/MDRSdtmIgD/CDISC/V1#IG-CDISC_SDTMIGCM_CMDOSFRM_VR> rdf:type bo:CReference . 
<http://www.assero.co.uk/MDRSdtmIgD/CDISC/V1#IG-CDISC_SDTMIGCM_CMDOSFRM_VR> bo:hasColumn <http://www.assero.co.uk/MDRSdtmMd/CDISC/V1#M-CDISC_SDTMMODEL_INTERVENTIONS_xxDOSFRM> . 
<http://www.assero.co.uk/MDRSdtmIgD/CDISC/V1#IG-CDISC_SDTMIGCM_CMDOSFRM_VR> bo:enabled "true"^^xsd:boolean . 
<http://www.assero.co.uk/MDRSdtmIgD/CDISC/V1#IG-CDISC_SDTMIGCM_CMDOSFRM_VR> bo:optional "false"^^xsd:boolean . 
<http://www.assero.co.uk/MDRSdtmIgD/CDISC/V1#IG-CDISC_SDTMIGCM_CMDOSFRM_VR> bo:ordinal "1"^^xsd:positiveInteger . 
<http://www.assero.co.uk/MDRSdtmIgD/CDISC/V1#IG-CDISC_SDTMIGCM_CMDOSFRM> bd:compliance <http://www.assero.co.uk/MDRSdtmIgD/CDISC/V1#IG-CDISC_SDTMIGCM_C_PERMISSIBLE> . 
<http://www.assero.co.uk/MDRSdtmIgD/CDISC/V1#IG-CDISC_SDTMIGCM> bd:includesColumn <http://www.assero.co.uk/MDRSdtmIgD/CDISC/V1#IG-CDISC_SDTMIGCM_CMDOSFRM> . 
<http://www.assero.co.uk/MDRSdtmIgD/CDISC/V1#IG-CDISC_SDTMIGCM_CMDOSFRQ> rdf:type bd:IgVariable . 
<http://www.assero.co.uk/MDRSdtmIgD/CDISC/V1#IG-CDISC_SDTMIGCM_CMDOSFRQ> rdfs:label "Dosing Frequency per Interval"^^xsd:string . 
<http://www.assero.co.uk/MDRSdtmIgD/CDISC/V1#IG-CDISC_SDTMIGCM_CMDOSFRQ> bd:ordinal "23"^^xsd:positiveInteger . 
<http://www.assero.co.uk/MDRSdtmIgD/CDISC/V1#IG-CDISC_SDTMIGCM_CMDOSFRQ> bd:controlled_term_or_format "(FREQ)"^^xsd:string . 
<http://www.assero.co.uk/MDRSdtmIgD/CDISC/V1#IG-CDISC_SDTMIGCM_CMDOSFRQ> bd:notes "Usually expressed as the number of repeated administrations of CMDOSE within a specific time period. Examples: BID (twice daily), Q12H (every 12 hours)."^^xsd:string . 
<http://www.assero.co.uk/MDRSdtmIgD/CDISC/V1#IG-CDISC_SDTMIGCM_CMDOSFRQ> bd:name "CMDOSFRQ"^^xsd:string . 
<http://www.assero.co.uk/MDRSdtmIgD/CDISC/V1#IG-CDISC_SDTMIGCM_CMDOSFRQ> bd:basedOnVariable <http://www.assero.co.uk/MDRSdtmIgD/CDISC/V1#IG-CDISC_SDTMIGCM_CMDOSFRQ_VR> . 
<http://www.assero.co.uk/MDRSdtmIgD/CDISC/V1#IG-CDISC_SDTMIGCM_CMDOSFRQ_VR> rdf:type bo:CReference . 
<http://www.assero.co.uk/MDRSdtmIgD/CDISC/V1#IG-CDISC_SDTMIGCM_CMDOSFRQ_VR> bo:hasColumn <http://www.assero.co.uk/MDRSdtmMd/CDISC/V1#M-CDISC_SDTMMODEL_INTERVENTIONS_xxDOSFRQ> . 
<http://www.assero.co.uk/MDRSdtmIgD/CDISC/V1#IG-CDISC_SDTMIGCM_CMDOSFRQ_VR> bo:enabled "true"^^xsd:boolean . 
<http://www.assero.co.uk/MDRSdtmIgD/CDISC/V1#IG-CDISC_SDTMIGCM_CMDOSFRQ_VR> bo:optional "false"^^xsd:boolean . 
<http://www.assero.co.uk/MDRSdtmIgD/CDISC/V1#IG-CDISC_SDTMIGCM_CMDOSFRQ_VR> bo:ordinal "1"^^xsd:positiveInteger . 
<http://www.assero.co.uk/MDRSdtmIgD/CDISC/V1#IG-CDISC_SDTMIGCM_CMDOSFRQ> bd:compliance <http://www.assero.co.uk/MDRSdtmIgD/CDISC/V1#IG-CDISC_SDTMIGCM_C_PERMISSIBLE> . 
<http://www.assero.co.uk/MDRSdtmIgD/CDISC/V1#IG-CDISC_SDTMIGCM> bd:includesColumn <http://www.assero.co.uk/MDRSdtmIgD/CDISC/V1#IG-CDISC_SDTMIGCM_CMDOSFRQ> . 
<http://www.assero.co.uk/MDRSdtmIgD/CDISC/V1#IG-CDISC_SDTMIGCM_CMDOSTOT> rdf:type bd:IgVariable . 
<http://www.assero.co.uk/MDRSdtmIgD/CDISC/V1#IG-CDISC_SDTMIGCM_CMDOSTOT> rdfs:label "Total Daily Dose"^^xsd:string . 
<http://www.assero.co.uk/MDRSdtmIgD/CDISC/V1#IG-CDISC_SDTMIGCM_CMDOSTOT> bd:ordinal "24"^^xsd:positiveInteger . 
<http://www.assero.co.uk/MDRSdtmIgD/CDISC/V1#IG-CDISC_SDTMIGCM_CMDOSTOT> bd:controlled_term_or_format ""^^xsd:string . 
<http://www.assero.co.uk/MDRSdtmIgD/CDISC/V1#IG-CDISC_SDTMIGCM_CMDOSTOT> bd:notes "Total daily dose of CMTRT using the units in CMDOSU. Total dose over a period other than day could be recorded in a separate Supplemental Qualifier variable. CMDOSTOT should be used in addition to CMDOSE, and not in place of it."^^xsd:string . 
<http://www.assero.co.uk/MDRSdtmIgD/CDISC/V1#IG-CDISC_SDTMIGCM_CMDOSTOT> bd:name "CMDOSTOT"^^xsd:string . 
<http://www.assero.co.uk/MDRSdtmIgD/CDISC/V1#IG-CDISC_SDTMIGCM_CMDOSTOT> bd:basedOnVariable <http://www.assero.co.uk/MDRSdtmIgD/CDISC/V1#IG-CDISC_SDTMIGCM_CMDOSTOT_VR> . 
<http://www.assero.co.uk/MDRSdtmIgD/CDISC/V1#IG-CDISC_SDTMIGCM_CMDOSTOT_VR> rdf:type bo:CReference . 
<http://www.assero.co.uk/MDRSdtmIgD/CDISC/V1#IG-CDISC_SDTMIGCM_CMDOSTOT_VR> bo:hasColumn <http://www.assero.co.uk/MDRSdtmMd/CDISC/V1#M-CDISC_SDTMMODEL_INTERVENTIONS_xxDOSTOT> . 
<http://www.assero.co.uk/MDRSdtmIgD/CDISC/V1#IG-CDISC_SDTMIGCM_CMDOSTOT_VR> bo:enabled "true"^^xsd:boolean . 
<http://www.assero.co.uk/MDRSdtmIgD/CDISC/V1#IG-CDISC_SDTMIGCM_CMDOSTOT_VR> bo:optional "false"^^xsd:boolean . 
<http://www.assero.co.uk/MDRSdtmIgD/CDISC/V1#IG-CDISC_SDTMIGCM_CMDOSTOT_VR> bo:ordinal "1"^^xsd:positiveInteger . 
<http://www.assero.co.uk/MDRSdtmIgD/CDISC/V1#IG-CDISC_SDTMIGCM_CMDOSTOT> bd:compliance <http://www.assero.co.uk/MDRSdtmIgD/CDISC/V1#IG-CDISC_SDTMIGCM_C_PERMISSIBLE> . 
<http://www.assero.co.uk/MDRSdtmIgD/CDISC/V1#IG-CDISC_SDTMIGCM> bd:includesColumn <http://www.assero.co.uk/MDRSdtmIgD/CDISC/V1#IG-CDISC_SDTMIGCM_CMDOSTOT> . 
<http://www.assero.co.uk/MDRSdtmIgD/CDISC/V1#IG-CDISC_SDTMIGCM_CMDOSRGM> rdf:type bd:IgVariable . 
<http://www.assero.co.uk/MDRSdtmIgD/CDISC/V1#IG-CDISC_SDTMIGCM_CMDOSRGM> rdfs:label "Intended Dose Regimen"^^xsd:string . 
<http://www.assero.co.uk/MDRSdtmIgD/CDISC/V1#IG-CDISC_SDTMIGCM_CMDOSRGM> bd:ordinal "25"^^xsd:positiveInteger . 
<http://www.assero.co.uk/MDRSdtmIgD/CDISC/V1#IG-CDISC_SDTMIGCM_CMDOSRGM> bd:controlled_term_or_format ""^^xsd:string . 
<http://www.assero.co.uk/MDRSdtmIgD/CDISC/V1#IG-CDISC_SDTMIGCM_CMDOSRGM> bd:notes "Text description of the (intended) schedule or regimen for the Intervention. Examples: TWO WEEKS ON, TWO WEEKS OFF."^^xsd:string . 
<http://www.assero.co.uk/MDRSdtmIgD/CDISC/V1#IG-CDISC_SDTMIGCM_CMDOSRGM> bd:name "CMDOSRGM"^^xsd:string . 
<http://www.assero.co.uk/MDRSdtmIgD/CDISC/V1#IG-CDISC_SDTMIGCM_CMDOSRGM> bd:basedOnVariable <http://www.assero.co.uk/MDRSdtmIgD/CDISC/V1#IG-CDISC_SDTMIGCM_CMDOSRGM_VR> . 
<http://www.assero.co.uk/MDRSdtmIgD/CDISC/V1#IG-CDISC_SDTMIGCM_CMDOSRGM_VR> rdf:type bo:CReference . 
<http://www.assero.co.uk/MDRSdtmIgD/CDISC/V1#IG-CDISC_SDTMIGCM_CMDOSRGM_VR> bo:hasColumn <http://www.assero.co.uk/MDRSdtmMd/CDISC/V1#M-CDISC_SDTMMODEL_INTERVENTIONS_xxDOSRGM> . 
<http://www.assero.co.uk/MDRSdtmIgD/CDISC/V1#IG-CDISC_SDTMIGCM_CMDOSRGM_VR> bo:enabled "true"^^xsd:boolean . 
<http://www.assero.co.uk/MDRSdtmIgD/CDISC/V1#IG-CDISC_SDTMIGCM_CMDOSRGM_VR> bo:optional "false"^^xsd:boolean . 
<http://www.assero.co.uk/MDRSdtmIgD/CDISC/V1#IG-CDISC_SDTMIGCM_CMDOSRGM_VR> bo:ordinal "1"^^xsd:positiveInteger . 
<http://www.assero.co.uk/MDRSdtmIgD/CDISC/V1#IG-CDISC_SDTMIGCM_CMDOSRGM> bd:compliance <http://www.assero.co.uk/MDRSdtmIgD/CDISC/V1#IG-CDISC_SDTMIGCM_C_PERMISSIBLE> . 
<http://www.assero.co.uk/MDRSdtmIgD/CDISC/V1#IG-CDISC_SDTMIGCM> bd:includesColumn <http://www.assero.co.uk/MDRSdtmIgD/CDISC/V1#IG-CDISC_SDTMIGCM_CMDOSRGM> . 
<http://www.assero.co.uk/MDRSdtmIgD/CDISC/V1#IG-CDISC_SDTMIGCM_CMROUTE> rdf:type bd:IgVariable . 
<http://www.assero.co.uk/MDRSdtmIgD/CDISC/V1#IG-CDISC_SDTMIGCM_CMROUTE> rdfs:label "Route of Administration"^^xsd:string . 
<http://www.assero.co.uk/MDRSdtmIgD/CDISC/V1#IG-CDISC_SDTMIGCM_CMROUTE> bd:ordinal "26"^^xsd:positiveInteger . 
<http://www.assero.co.uk/MDRSdtmIgD/CDISC/V1#IG-CDISC_SDTMIGCM_CMROUTE> bd:controlled_term_or_format "(ROUTE)"^^xsd:string . 
<http://www.assero.co.uk/MDRSdtmIgD/CDISC/V1#IG-CDISC_SDTMIGCM_CMROUTE> bd:notes "Route of administration for CMTRT. Examples: ORAL, INTRAVENOUS."^^xsd:string . 
<http://www.assero.co.uk/MDRSdtmIgD/CDISC/V1#IG-CDISC_SDTMIGCM_CMROUTE> bd:name "CMROUTE"^^xsd:string . 
<http://www.assero.co.uk/MDRSdtmIgD/CDISC/V1#IG-CDISC_SDTMIGCM_CMROUTE> bd:compliance <http://www.assero.co.uk/MDRSdtmIgD/CDISC/V1#IG-CDISC_SDTMIGCM_C_PERMISSIBLE> . 
<http://www.assero.co.uk/MDRSdtmIgD/CDISC/V1#IG-CDISC_SDTMIGCM> bd:includesColumn <http://www.assero.co.uk/MDRSdtmIgD/CDISC/V1#IG-CDISC_SDTMIGCM_CMROUTE> . 
<http://www.assero.co.uk/MDRSdtmIgD/CDISC/V1#IG-CDISC_SDTMIGCM_CMSTDTC> rdf:type bd:IgVariable . 
<http://www.assero.co.uk/MDRSdtmIgD/CDISC/V1#IG-CDISC_SDTMIGCM_CMSTDTC> rdfs:label "Start Date/Time of Medication"^^xsd:string . 
<http://www.assero.co.uk/MDRSdtmIgD/CDISC/V1#IG-CDISC_SDTMIGCM_CMSTDTC> bd:ordinal "27"^^xsd:positiveInteger . 
<http://www.assero.co.uk/MDRSdtmIgD/CDISC/V1#IG-CDISC_SDTMIGCM_CMSTDTC> bd:controlled_term_or_format "ISO 8601"^^xsd:string . 
<http://www.assero.co.uk/MDRSdtmIgD/CDISC/V1#IG-CDISC_SDTMIGCM_CMSTDTC> bd:notes ""^^xsd:string . 
<http://www.assero.co.uk/MDRSdtmIgD/CDISC/V1#IG-CDISC_SDTMIGCM_CMSTDTC> bd:name "CMSTDTC"^^xsd:string . 
<http://www.assero.co.uk/MDRSdtmIgD/CDISC/V1#IG-CDISC_SDTMIGCM_CMSTDTC> bd:basedOnVariable <http://www.assero.co.uk/MDRSdtmIgD/CDISC/V1#IG-CDISC_SDTMIGCM_CMSTDTC_VR> . 
<http://www.assero.co.uk/MDRSdtmIgD/CDISC/V1#IG-CDISC_SDTMIGCM_CMSTDTC_VR> rdf:type bo:CReference . 
<http://www.assero.co.uk/MDRSdtmIgD/CDISC/V1#IG-CDISC_SDTMIGCM_CMSTDTC_VR> bo:hasColumn <http://www.assero.co.uk/MDRSdtmMd/CDISC/V1#M-CDISC_SDTMMODEL_INTERVENTIONS_xxSTDTC> . 
<http://www.assero.co.uk/MDRSdtmIgD/CDISC/V1#IG-CDISC_SDTMIGCM_CMSTDTC_VR> bo:enabled "true"^^xsd:boolean . 
<http://www.assero.co.uk/MDRSdtmIgD/CDISC/V1#IG-CDISC_SDTMIGCM_CMSTDTC_VR> bo:optional "false"^^xsd:boolean . 
<http://www.assero.co.uk/MDRSdtmIgD/CDISC/V1#IG-CDISC_SDTMIGCM_CMSTDTC_VR> bo:ordinal "1"^^xsd:positiveInteger . 
<http://www.assero.co.uk/MDRSdtmIgD/CDISC/V1#IG-CDISC_SDTMIGCM_CMSTDTC> bd:compliance <http://www.assero.co.uk/MDRSdtmIgD/CDISC/V1#IG-CDISC_SDTMIGCM_C_PERMISSIBLE> . 
<http://www.assero.co.uk/MDRSdtmIgD/CDISC/V1#IG-CDISC_SDTMIGCM> bd:includesColumn <http://www.assero.co.uk/MDRSdtmIgD/CDISC/V1#IG-CDISC_SDTMIGCM_CMSTDTC> . 
<http://www.assero.co.uk/MDRSdtmIgD/CDISC/V1#IG-CDISC_SDTMIGCM_CMENDTC> rdf:type bd:IgVariable . 
<http://www.assero.co.uk/MDRSdtmIgD/CDISC/V1#IG-CDISC_SDTMIGCM_CMENDTC> rdfs:label "End Date/Time of Medication"^^xsd:string . 
<http://www.assero.co.uk/MDRSdtmIgD/CDISC/V1#IG-CDISC_SDTMIGCM_CMENDTC> bd:ordinal "28"^^xsd:positiveInteger . 
<http://www.assero.co.uk/MDRSdtmIgD/CDISC/V1#IG-CDISC_SDTMIGCM_CMENDTC> bd:controlled_term_or_format "ISO 8601"^^xsd:string . 
<http://www.assero.co.uk/MDRSdtmIgD/CDISC/V1#IG-CDISC_SDTMIGCM_CMENDTC> bd:notes ""^^xsd:string . 
<http://www.assero.co.uk/MDRSdtmIgD/CDISC/V1#IG-CDISC_SDTMIGCM_CMENDTC> bd:name "CMENDTC"^^xsd:string . 
<http://www.assero.co.uk/MDRSdtmIgD/CDISC/V1#IG-CDISC_SDTMIGCM_CMENDTC> bd:basedOnVariable <http://www.assero.co.uk/MDRSdtmIgD/CDISC/V1#IG-CDISC_SDTMIGCM_CMENDTC_VR> . 
<http://www.assero.co.uk/MDRSdtmIgD/CDISC/V1#IG-CDISC_SDTMIGCM_CMENDTC_VR> rdf:type bo:CReference . 
<http://www.assero.co.uk/MDRSdtmIgD/CDISC/V1#IG-CDISC_SDTMIGCM_CMENDTC_VR> bo:hasColumn <http://www.assero.co.uk/MDRSdtmMd/CDISC/V1#M-CDISC_SDTMMODEL_INTERVENTIONS_xxENDTC> . 
<http://www.assero.co.uk/MDRSdtmIgD/CDISC/V1#IG-CDISC_SDTMIGCM_CMENDTC_VR> bo:enabled "true"^^xsd:boolean . 
<http://www.assero.co.uk/MDRSdtmIgD/CDISC/V1#IG-CDISC_SDTMIGCM_CMENDTC_VR> bo:optional "false"^^xsd:boolean . 
<http://www.assero.co.uk/MDRSdtmIgD/CDISC/V1#IG-CDISC_SDTMIGCM_CMENDTC_VR> bo:ordinal "1"^^xsd:positiveInteger . 
<http://www.assero.co.uk/MDRSdtmIgD/CDISC/V1#IG-CDISC_SDTMIGCM_CMENDTC> bd:compliance <http://www.assero.co.uk/MDRSdtmIgD/CDISC/V1#IG-CDISC_SDTMIGCM_C_PERMISSIBLE> . 
<http://www.assero.co.uk/MDRSdtmIgD/CDISC/V1#IG-CDISC_SDTMIGCM> bd:includesColumn <http://www.assero.co.uk/MDRSdtmIgD/CDISC/V1#IG-CDISC_SDTMIGCM_CMENDTC> . 
<http://www.assero.co.uk/MDRSdtmIgD/CDISC/V1#IG-CDISC_SDTMIGCM_CMSTDY> rdf:type bd:IgVariable . 
<http://www.assero.co.uk/MDRSdtmIgD/CDISC/V1#IG-CDISC_SDTMIGCM_CMSTDY> rdfs:label "Study Day of Start of Medication"^^xsd:string . 
<http://www.assero.co.uk/MDRSdtmIgD/CDISC/V1#IG-CDISC_SDTMIGCM_CMSTDY> bd:ordinal "29"^^xsd:positiveInteger . 
<http://www.assero.co.uk/MDRSdtmIgD/CDISC/V1#IG-CDISC_SDTMIGCM_CMSTDY> bd:controlled_term_or_format ""^^xsd:string . 
<http://www.assero.co.uk/MDRSdtmIgD/CDISC/V1#IG-CDISC_SDTMIGCM_CMSTDY> bd:notes "Study day of start of medication relative to the sponsor-defined RFSTDTC."^^xsd:string . 
<http://www.assero.co.uk/MDRSdtmIgD/CDISC/V1#IG-CDISC_SDTMIGCM_CMSTDY> bd:name "CMSTDY"^^xsd:string . 
<http://www.assero.co.uk/MDRSdtmIgD/CDISC/V1#IG-CDISC_SDTMIGCM_CMSTDY> bd:basedOnVariable <http://www.assero.co.uk/MDRSdtmIgD/CDISC/V1#IG-CDISC_SDTMIGCM_CMSTDY_VR> . 
<http://www.assero.co.uk/MDRSdtmIgD/CDISC/V1#IG-CDISC_SDTMIGCM_CMSTDY_VR> rdf:type bo:CReference . 
<http://www.assero.co.uk/MDRSdtmIgD/CDISC/V1#IG-CDISC_SDTMIGCM_CMSTDY_VR> bo:hasColumn <http://www.assero.co.uk/MDRSdtmMd/CDISC/V1#M-CDISC_SDTMMODEL_INTERVENTIONS_xxSTDY> . 
<http://www.assero.co.uk/MDRSdtmIgD/CDISC/V1#IG-CDISC_SDTMIGCM_CMSTDY_VR> bo:enabled "true"^^xsd:boolean . 
<http://www.assero.co.uk/MDRSdtmIgD/CDISC/V1#IG-CDISC_SDTMIGCM_CMSTDY_VR> bo:optional "false"^^xsd:boolean . 
<http://www.assero.co.uk/MDRSdtmIgD/CDISC/V1#IG-CDISC_SDTMIGCM_CMSTDY_VR> bo:ordinal "1"^^xsd:positiveInteger . 
<http://www.assero.co.uk/MDRSdtmIgD/CDISC/V1#IG-CDISC_SDTMIGCM_CMSTDY> bd:compliance <http://www.assero.co.uk/MDRSdtmIgD/CDISC/V1#IG-CDISC_SDTMIGCM_C_PERMISSIBLE> . 
<http://www.assero.co.uk/MDRSdtmIgD/CDISC/V1#IG-CDISC_SDTMIGCM> bd:includesColumn <http://www.assero.co.uk/MDRSdtmIgD/CDISC/V1#IG-CDISC_SDTMIGCM_CMSTDY> . 
<http://www.assero.co.uk/MDRSdtmIgD/CDISC/V1#IG-CDISC_SDTMIGCM_CMENDY> rdf:type bd:IgVariable . 
<http://www.assero.co.uk/MDRSdtmIgD/CDISC/V1#IG-CDISC_SDTMIGCM_CMENDY> rdfs:label "Study Day of End of Medication"^^xsd:string . 
<http://www.assero.co.uk/MDRSdtmIgD/CDISC/V1#IG-CDISC_SDTMIGCM_CMENDY> bd:ordinal "30"^^xsd:positiveInteger . 
<http://www.assero.co.uk/MDRSdtmIgD/CDISC/V1#IG-CDISC_SDTMIGCM_CMENDY> bd:controlled_term_or_format ""^^xsd:string . 
<http://www.assero.co.uk/MDRSdtmIgD/CDISC/V1#IG-CDISC_SDTMIGCM_CMENDY> bd:notes "Study day of end of medication relative to the sponsor-defined RFSTDTC."^^xsd:string . 
<http://www.assero.co.uk/MDRSdtmIgD/CDISC/V1#IG-CDISC_SDTMIGCM_CMENDY> bd:name "CMENDY"^^xsd:string . 
<http://www.assero.co.uk/MDRSdtmIgD/CDISC/V1#IG-CDISC_SDTMIGCM_CMENDY> bd:basedOnVariable <http://www.assero.co.uk/MDRSdtmIgD/CDISC/V1#IG-CDISC_SDTMIGCM_CMENDY_VR> . 
<http://www.assero.co.uk/MDRSdtmIgD/CDISC/V1#IG-CDISC_SDTMIGCM_CMENDY_VR> rdf:type bo:CReference . 
<http://www.assero.co.uk/MDRSdtmIgD/CDISC/V1#IG-CDISC_SDTMIGCM_CMENDY_VR> bo:hasColumn <http://www.assero.co.uk/MDRSdtmMd/CDISC/V1#M-CDISC_SDTMMODEL_INTERVENTIONS_xxENDY> . 
<http://www.assero.co.uk/MDRSdtmIgD/CDISC/V1#IG-CDISC_SDTMIGCM_CMENDY_VR> bo:enabled "true"^^xsd:boolean . 
<http://www.assero.co.uk/MDRSdtmIgD/CDISC/V1#IG-CDISC_SDTMIGCM_CMENDY_VR> bo:optional "false"^^xsd:boolean . 
<http://www.assero.co.uk/MDRSdtmIgD/CDISC/V1#IG-CDISC_SDTMIGCM_CMENDY_VR> bo:ordinal "1"^^xsd:positiveInteger . 
<http://www.assero.co.uk/MDRSdtmIgD/CDISC/V1#IG-CDISC_SDTMIGCM_CMENDY> bd:compliance <http://www.assero.co.uk/MDRSdtmIgD/CDISC/V1#IG-CDISC_SDTMIGCM_C_PERMISSIBLE> . 
<http://www.assero.co.uk/MDRSdtmIgD/CDISC/V1#IG-CDISC_SDTMIGCM> bd:includesColumn <http://www.assero.co.uk/MDRSdtmIgD/CDISC/V1#IG-CDISC_SDTMIGCM_CMENDY> . 
<http://www.assero.co.uk/MDRSdtmIgD/CDISC/V1#IG-CDISC_SDTMIGCM_CMDUR> rdf:type bd:IgVariable . 
<http://www.assero.co.uk/MDRSdtmIgD/CDISC/V1#IG-CDISC_SDTMIGCM_CMDUR> rdfs:label "Duration of Medication"^^xsd:string . 
<http://www.assero.co.uk/MDRSdtmIgD/CDISC/V1#IG-CDISC_SDTMIGCM_CMDUR> bd:ordinal "31"^^xsd:positiveInteger . 
<http://www.assero.co.uk/MDRSdtmIgD/CDISC/V1#IG-CDISC_SDTMIGCM_CMDUR> bd:controlled_term_or_format "ISO 8601"^^xsd:string . 
<http://www.assero.co.uk/MDRSdtmIgD/CDISC/V1#IG-CDISC_SDTMIGCM_CMDUR> bd:notes "Collected duration for a treatment episode. Used only if collected on the CRF and not derived from start and end date/times."^^xsd:string . 
<http://www.assero.co.uk/MDRSdtmIgD/CDISC/V1#IG-CDISC_SDTMIGCM_CMDUR> bd:name "CMDUR"^^xsd:string . 
<http://www.assero.co.uk/MDRSdtmIgD/CDISC/V1#IG-CDISC_SDTMIGCM_CMDUR> bd:basedOnVariable <http://www.assero.co.uk/MDRSdtmIgD/CDISC/V1#IG-CDISC_SDTMIGCM_CMDUR_VR> . 
<http://www.assero.co.uk/MDRSdtmIgD/CDISC/V1#IG-CDISC_SDTMIGCM_CMDUR_VR> rdf:type bo:CReference . 
<http://www.assero.co.uk/MDRSdtmIgD/CDISC/V1#IG-CDISC_SDTMIGCM_CMDUR_VR> bo:hasColumn <http://www.assero.co.uk/MDRSdtmMd/CDISC/V1#M-CDISC_SDTMMODEL_INTERVENTIONS_xxDUR> . 
<http://www.assero.co.uk/MDRSdtmIgD/CDISC/V1#IG-CDISC_SDTMIGCM_CMDUR_VR> bo:enabled "true"^^xsd:boolean . 
<http://www.assero.co.uk/MDRSdtmIgD/CDISC/V1#IG-CDISC_SDTMIGCM_CMDUR_VR> bo:optional "false"^^xsd:boolean . 
<http://www.assero.co.uk/MDRSdtmIgD/CDISC/V1#IG-CDISC_SDTMIGCM_CMDUR_VR> bo:ordinal "1"^^xsd:positiveInteger . 
<http://www.assero.co.uk/MDRSdtmIgD/CDISC/V1#IG-CDISC_SDTMIGCM_CMDUR> bd:compliance <http://www.assero.co.uk/MDRSdtmIgD/CDISC/V1#IG-CDISC_SDTMIGCM_C_PERMISSIBLE> . 
<http://www.assero.co.uk/MDRSdtmIgD/CDISC/V1#IG-CDISC_SDTMIGCM> bd:includesColumn <http://www.assero.co.uk/MDRSdtmIgD/CDISC/V1#IG-CDISC_SDTMIGCM_CMDUR> . 
<http://www.assero.co.uk/MDRSdtmIgD/CDISC/V1#IG-CDISC_SDTMIGCM_CMSTRF> rdf:type bd:IgVariable . 
<http://www.assero.co.uk/MDRSdtmIgD/CDISC/V1#IG-CDISC_SDTMIGCM_CMSTRF> rdfs:label "Start Relative to Reference Period"^^xsd:string . 
<http://www.assero.co.uk/MDRSdtmIgD/CDISC/V1#IG-CDISC_SDTMIGCM_CMSTRF> bd:ordinal "32"^^xsd:positiveInteger . 
<http://www.assero.co.uk/MDRSdtmIgD/CDISC/V1#IG-CDISC_SDTMIGCM_CMSTRF> bd:controlled_term_or_format "(STENRF)"^^xsd:string . 
<http://www.assero.co.uk/MDRSdtmIgD/CDISC/V1#IG-CDISC_SDTMIGCM_CMSTRF> bd:notes "Describes the start of the medication relative to sponsor-defined reference period. The sponsor-defined reference period is a continuous period of time defined by a discrete starting point and a discrete ending point (represented by RFSTDTC and RFENDTC in Demographics). If information such as 'PRIOR', 'ONGOING', or 'CONTINUING' was collected, this information may be translated into CMSTRF."^^xsd:string . 
<http://www.assero.co.uk/MDRSdtmIgD/CDISC/V1#IG-CDISC_SDTMIGCM_CMSTRF> bd:name "CMSTRF"^^xsd:string . 
<http://www.assero.co.uk/MDRSdtmIgD/CDISC/V1#IG-CDISC_SDTMIGCM_CMSTRF> bd:basedOnVariable <http://www.assero.co.uk/MDRSdtmIgD/CDISC/V1#IG-CDISC_SDTMIGCM_CMSTRF_VR> . 
<http://www.assero.co.uk/MDRSdtmIgD/CDISC/V1#IG-CDISC_SDTMIGCM_CMSTRF_VR> rdf:type bo:CReference . 
<http://www.assero.co.uk/MDRSdtmIgD/CDISC/V1#IG-CDISC_SDTMIGCM_CMSTRF_VR> bo:hasColumn <http://www.assero.co.uk/MDRSdtmMd/CDISC/V1#M-CDISC_SDTMMODEL_INTERVENTIONS_xxSTRF> . 
<http://www.assero.co.uk/MDRSdtmIgD/CDISC/V1#IG-CDISC_SDTMIGCM_CMSTRF_VR> bo:enabled "true"^^xsd:boolean . 
<http://www.assero.co.uk/MDRSdtmIgD/CDISC/V1#IG-CDISC_SDTMIGCM_CMSTRF_VR> bo:optional "false"^^xsd:boolean . 
<http://www.assero.co.uk/MDRSdtmIgD/CDISC/V1#IG-CDISC_SDTMIGCM_CMSTRF_VR> bo:ordinal "1"^^xsd:positiveInteger . 
<http://www.assero.co.uk/MDRSdtmIgD/CDISC/V1#IG-CDISC_SDTMIGCM_CMSTRF> bd:compliance <http://www.assero.co.uk/MDRSdtmIgD/CDISC/V1#IG-CDISC_SDTMIGCM_C_PERMISSIBLE> . 
<http://www.assero.co.uk/MDRSdtmIgD/CDISC/V1#IG-CDISC_SDTMIGCM> bd:includesColumn <http://www.assero.co.uk/MDRSdtmIgD/CDISC/V1#IG-CDISC_SDTMIGCM_CMSTRF> . 
<http://www.assero.co.uk/MDRSdtmIgD/CDISC/V1#IG-CDISC_SDTMIGCM_CMENRF> rdf:type bd:IgVariable . 
<http://www.assero.co.uk/MDRSdtmIgD/CDISC/V1#IG-CDISC_SDTMIGCM_CMENRF> rdfs:label "End Relative to Reference Period"^^xsd:string . 
<http://www.assero.co.uk/MDRSdtmIgD/CDISC/V1#IG-CDISC_SDTMIGCM_CMENRF> bd:ordinal "33"^^xsd:positiveInteger . 
<http://www.assero.co.uk/MDRSdtmIgD/CDISC/V1#IG-CDISC_SDTMIGCM_CMENRF> bd:controlled_term_or_format "(STENRF)"^^xsd:string . 
<http://www.assero.co.uk/MDRSdtmIgD/CDISC/V1#IG-CDISC_SDTMIGCM_CMENRF> bd:notes "Describes the end of the medication relative to the sponsor-defined reference period. The sponsor-defined reference period is a continuous period of time defined by a discrete starting point and a discrete ending point (represented by RFSTDTC and RFENDTC in Demographics). If information such as 'PRIOR', 'ONGOING', or 'CONTINUING' was collected, this information may be translated into CMENRF."^^xsd:string . 
<http://www.assero.co.uk/MDRSdtmIgD/CDISC/V1#IG-CDISC_SDTMIGCM_CMENRF> bd:name "CMENRF"^^xsd:string . 
<http://www.assero.co.uk/MDRSdtmIgD/CDISC/V1#IG-CDISC_SDTMIGCM_CMENRF> bd:basedOnVariable <http://www.assero.co.uk/MDRSdtmIgD/CDISC/V1#IG-CDISC_SDTMIGCM_CMENRF_VR> . 
<http://www.assero.co.uk/MDRSdtmIgD/CDISC/V1#IG-CDISC_SDTMIGCM_CMENRF_VR> rdf:type bo:CReference . 
<http://www.assero.co.uk/MDRSdtmIgD/CDISC/V1#IG-CDISC_SDTMIGCM_CMENRF_VR> bo:hasColumn <http://www.assero.co.uk/MDRSdtmMd/CDISC/V1#M-CDISC_SDTMMODEL_INTERVENTIONS_xxENRF> . 
<http://www.assero.co.uk/MDRSdtmIgD/CDISC/V1#IG-CDISC_SDTMIGCM_CMENRF_VR> bo:enabled "true"^^xsd:boolean . 
