@prefix : <http://www.cdisc.org/SDTM_IG/V1#> .
@prefix bd: <http://www.assero.co.uk/Tabulation#> .
@prefix isoC: <http://www.assero.co.uk/ISO11179Concepts#> .
@prefix isoT: <http://www.assero.co.uk/ISO11179Types#> .
@prefix isoR: <http://www.assero.co.uk/ISO11179Registration#> .
@prefix isoI: <http://www.assero.co.uk/ISO11179Identification#> .
@prefix bo: <http://www.assero.co.uk/BusinessOperational#> .
@prefix owl: <http://www.w3.org/2002/07/owl#> .
@prefix rdf: <http://www.w3.org/1999/02/22-rdf-syntax-ns#> .
@prefix rdfs: <http://www.w3.org/2000/01/rdf-schema#> .
@prefix xsd: <http://www.w3.org/2001/XMLSchema#> .
@prefix skos: <http://www.w3.org/2004/02/skos/core#> .

<http://www.cdisc.org/SDTM_IG/V1>
	rdf:type owl:Ontology ;
.
:
	rdf:type bd:SDTMImplementationGuide ;
	isoC:label "SDTM Implememntation Giude"^^xsd:string ;
	isoT:hasState :RS ;
	isoT:hasIdentifier :SI ;
	isoT:origin "Created from files: 'import_input_1.xlsx'"^^xsd:string ;
	isoT:changeDescription ""^^xsd:string ;
	isoT:creationDate "2020-01-01T00:00:00+00:00"^^xsd:dateTime ;
	isoT:lastChangeDate "2020-01-01T00:00:00+00:00"^^xsd:dateTime ;
	isoT:explanatoryComment ""^^xsd:string ;
	bo:hasManaged :R1 ;
	bo:hasManaged :R2 ;
	bo:hasManaged :R3 ;
	bo:hasManaged :R4 ;
	bo:hasManaged :R5 ;
	bo:hasManaged :R6 ;
	bo:hasManaged :R7 ;
	bo:hasManaged :R8 ;
	bo:hasManaged :R9 ;
	bo:hasManaged :R10 ;
	bo:hasManaged :R11 ;
	bo:hasManaged :R12 ;
	bo:hasManaged :R13 ;
	bo:hasManaged :R14 ;
	bo:hasManaged :R15 ;
	bo:hasManaged :R16 ;
	bo:hasManaged :R17 ;
	bo:hasManaged :R18 ;
	bo:hasManaged :R19 ;
	bo:hasManaged :R20 ;
	bo:hasManaged :R21 ;
	bo:hasManaged :R22 ;
	bo:hasManaged :R23 ;
	bo:hasManaged :R24 ;
	bo:hasManaged :R25 ;
	bo:hasManaged :R26 ;
	bo:hasManaged :R27 ;
	bo:hasManaged :R28 ;
	bo:hasManaged :R29 ;
	bo:hasManaged :R30 ;
	bo:hasManaged :R31 ;
	bo:hasManaged :R32 ;
	bo:hasManaged :R33 ;
	bo:hasManaged :R34 ;
	bo:hasManaged :R35 ;
	bo:hasManaged :R36 ;
	bo:hasManaged :R37 ;
	bo:hasManaged :R38 ;
	bo:hasManaged :R39 ;
	bo:hasManaged :R40 ;
	bo:hasManaged :R41 ;
	bo:hasManaged :R42 ;
	bo:hasManaged :R43 ;
	bo:hasManaged :R44 ;
	bo:hasManaged :R45 ;
	bo:hasManaged :R46 ;
	bo:hasManaged :R47 ;
	bo:hasManaged :R48 ;
	bo:hasManaged :R49 ;
	bo:hasManaged :R50 ;
	bo:hasManaged :R51 ;
	bo:hasManaged :R52 ;
	bo:hasManaged :R53 ;
	bo:hasManaged :R54 ;
	bo:hasManaged :R55 ;
	bo:hasManaged :R56 ;
	bo:hasManaged :R57 ;
	bo:hasManaged :R58 ;
	bo:hasManaged :R59 ;
.
:RS
	rdf:type isoR:RegistrationState ;
	isoR:registrationStatus "Standard"^^xsd:string ;
	isoR:administrativeNote ""^^xsd:string ;
	isoR:effectiveDate "2016-01-01T00:00:00+00:00"^^xsd:dateTime ;
	isoR:untilDate "2016-01-01T00:00:00+00:00"^^xsd:dateTime ;
	isoR:unresolvedIssue ""^^xsd:string ;
	isoR:administrativeStatus ""^^xsd:string ;
	isoR:previousState "Standard"^^xsd:string ;
	isoR:multipleEdit "false"^^xsd:boolean ;
	isoR:byAuthority <http://www.assero.co.uk/RA#DUNS084433759> ;
.
:SI
	rdf:type isoI:ScopedIdentifier ;
	isoI:identifier "SDTM IG"^^xsd:string ;
	isoI:versionLabel "1.1.1"^^xsd:string ;
	isoI:version "1"^^xsd:positiveInteger ;
	isoI:semanticVersion "1.1.1"^^xsd:string ;
	isoI:hasScope <http://www.assero.co.uk/NS#CDISC> ;
.
:R1
	rdf:type bo:Reference ;
	isoC:label ""^^xsd:string ;
	bo:enabled "true"^^xsd:boolean ;
	bo:optional "false"^^xsd:boolean ;
	bo:ordinal "1"^^xsd:positiveInteger ;
	bo:reference <http://www.cdisc.org/CO/V1#IG> ;
.
:R2
	rdf:type bo:Reference ;
	isoC:label ""^^xsd:string ;
	bo:enabled "true"^^xsd:boolean ;
	bo:optional "false"^^xsd:boolean ;
	bo:ordinal "2"^^xsd:positiveInteger ;
	bo:reference <http://www.cdisc.org/DM/V1#IG> ;
.
:R3
	rdf:type bo:Reference ;
	isoC:label ""^^xsd:string ;
	bo:enabled "true"^^xsd:boolean ;
	bo:optional "false"^^xsd:boolean ;
	bo:ordinal "3"^^xsd:positiveInteger ;
	bo:reference <http://www.cdisc.org/SE/V1#IG> ;
.
:R4
	rdf:type bo:Reference ;
	isoC:label ""^^xsd:string ;
	bo:enabled "true"^^xsd:boolean ;
	bo:optional "false"^^xsd:boolean ;
	bo:ordinal "4"^^xsd:positiveInteger ;
	bo:reference <http://www.cdisc.org/SM/V1#IG> ;
.
:R5
	rdf:type bo:Reference ;
	isoC:label ""^^xsd:string ;
	bo:enabled "true"^^xsd:boolean ;
	bo:optional "false"^^xsd:boolean ;
	bo:ordinal "5"^^xsd:positiveInteger ;
	bo:reference <http://www.cdisc.org/SV/V1#IG> ;
.
:R6
	rdf:type bo:Reference ;
	isoC:label ""^^xsd:string ;
	bo:enabled "true"^^xsd:boolean ;
	bo:optional "false"^^xsd:boolean ;
	bo:ordinal "6"^^xsd:positiveInteger ;
	bo:reference <http://www.cdisc.org/AG/V1#IG> ;
.
:R7
	rdf:type bo:Reference ;
	isoC:label ""^^xsd:string ;
	bo:enabled "true"^^xsd:boolean ;
	bo:optional "false"^^xsd:boolean ;
	bo:ordinal "7"^^xsd:positiveInteger ;
	bo:reference <http://www.cdisc.org/CM/V1#IG> ;
.
:R8
	rdf:type bo:Reference ;
	isoC:label ""^^xsd:string ;
	bo:enabled "true"^^xsd:boolean ;
	bo:optional "false"^^xsd:boolean ;
	bo:ordinal "8"^^xsd:positiveInteger ;
	bo:reference <http://www.cdisc.org/EX/V1#IG> ;
.
:R9
	rdf:type bo:Reference ;
	isoC:label ""^^xsd:string ;
	bo:enabled "true"^^xsd:boolean ;
	bo:optional "false"^^xsd:boolean ;
	bo:ordinal "9"^^xsd:positiveInteger ;
	bo:reference <http://www.cdisc.org/EC/V1#IG> ;
.
:R10
	rdf:type bo:Reference ;
	isoC:label ""^^xsd:string ;
	bo:enabled "true"^^xsd:boolean ;
	bo:optional "false"^^xsd:boolean ;
	bo:ordinal "10"^^xsd:positiveInteger ;
	bo:reference <http://www.cdisc.org/ML/V1#IG> ;
.
:R11
	rdf:type bo:Reference ;
	isoC:label ""^^xsd:string ;
	bo:enabled "true"^^xsd:boolean ;
	bo:optional "false"^^xsd:boolean ;
	bo:ordinal "11"^^xsd:positiveInteger ;
	bo:reference <http://www.cdisc.org/PR/V1#IG> ;
.
:R12
	rdf:type bo:Reference ;
	isoC:label ""^^xsd:string ;
	bo:enabled "true"^^xsd:boolean ;
	bo:optional "false"^^xsd:boolean ;
	bo:ordinal "12"^^xsd:positiveInteger ;
	bo:reference <http://www.cdisc.org/SU/V1#IG> ;
.
:R13
	rdf:type bo:Reference ;
	isoC:label ""^^xsd:string ;
	bo:enabled "true"^^xsd:boolean ;
	bo:optional "false"^^xsd:boolean ;
	bo:ordinal "13"^^xsd:positiveInteger ;
	bo:reference <http://www.cdisc.org/AE/V1#IG> ;
.
:R14
	rdf:type bo:Reference ;
	isoC:label ""^^xsd:string ;
	bo:enabled "true"^^xsd:boolean ;
	bo:optional "false"^^xsd:boolean ;
	bo:ordinal "14"^^xsd:positiveInteger ;
	bo:reference <http://www.cdisc.org/CE/V1#IG> ;
.
:R15
	rdf:type bo:Reference ;
	isoC:label ""^^xsd:string ;
	bo:enabled "true"^^xsd:boolean ;
	bo:optional "false"^^xsd:boolean ;
	bo:ordinal "15"^^xsd:positiveInteger ;
	bo:reference <http://www.cdisc.org/DS/V1#IG> ;
.
:R16
	rdf:type bo:Reference ;
	isoC:label ""^^xsd:string ;
	bo:enabled "true"^^xsd:boolean ;
	bo:optional "false"^^xsd:boolean ;
	bo:ordinal "16"^^xsd:positiveInteger ;
	bo:reference <http://www.cdisc.org/DV/V1#IG> ;
.
:R17
	rdf:type bo:Reference ;
	isoC:label ""^^xsd:string ;
	bo:enabled "true"^^xsd:boolean ;
	bo:optional "false"^^xsd:boolean ;
	bo:ordinal "17"^^xsd:positiveInteger ;
	bo:reference <http://www.cdisc.org/HO/V1#IG> ;
.
:R18
	rdf:type bo:Reference ;
	isoC:label ""^^xsd:string ;
	bo:enabled "true"^^xsd:boolean ;
	bo:optional "false"^^xsd:boolean ;
	bo:ordinal "18"^^xsd:positiveInteger ;
	bo:reference <http://www.cdisc.org/MH/V1#IG> ;
.
:R19
	rdf:type bo:Reference ;
	isoC:label ""^^xsd:string ;
	bo:enabled "true"^^xsd:boolean ;
	bo:optional "false"^^xsd:boolean ;
	bo:ordinal "19"^^xsd:positiveInteger ;
	bo:reference <http://www.cdisc.org/DA/V1#IG> ;
.
:R20
	rdf:type bo:Reference ;
	isoC:label ""^^xsd:string ;
	bo:enabled "true"^^xsd:boolean ;
	bo:optional "false"^^xsd:boolean ;
	bo:ordinal "20"^^xsd:positiveInteger ;
	bo:reference <http://www.cdisc.org/DD/V1#IG> ;
.
:R21
	rdf:type bo:Reference ;
	isoC:label ""^^xsd:string ;
	bo:enabled "true"^^xsd:boolean ;
	bo:optional "false"^^xsd:boolean ;
	bo:ordinal "21"^^xsd:positiveInteger ;
	bo:reference <http://www.cdisc.org/EG/V1#IG> ;
.
:R22
	rdf:type bo:Reference ;
	isoC:label ""^^xsd:string ;
	bo:enabled "true"^^xsd:boolean ;
	bo:optional "false"^^xsd:boolean ;
	bo:ordinal "22"^^xsd:positiveInteger ;
	bo:reference <http://www.cdisc.org/IE/V1#IG> ;
.
:R23
	rdf:type bo:Reference ;
	isoC:label ""^^xsd:string ;
	bo:enabled "true"^^xsd:boolean ;
	bo:optional "false"^^xsd:boolean ;
	bo:ordinal "23"^^xsd:positiveInteger ;
	bo:reference <http://www.cdisc.org/IS/V1#IG> ;
.
:R24
	rdf:type bo:Reference ;
	isoC:label ""^^xsd:string ;
	bo:enabled "true"^^xsd:boolean ;
	bo:optional "false"^^xsd:boolean ;
	bo:ordinal "24"^^xsd:positiveInteger ;
	bo:reference <http://www.cdisc.org/LB/V1#IG> ;
.
:R25
	rdf:type bo:Reference ;
	isoC:label ""^^xsd:string ;
	bo:enabled "true"^^xsd:boolean ;
	bo:optional "false"^^xsd:boolean ;
	bo:ordinal "25"^^xsd:positiveInteger ;
	bo:reference <http://www.cdisc.org/MB/V1#IG> ;
.
:R26
	rdf:type bo:Reference ;
	isoC:label ""^^xsd:string ;
	bo:enabled "true"^^xsd:boolean ;
	bo:optional "false"^^xsd:boolean ;
	bo:ordinal "26"^^xsd:positiveInteger ;
	bo:reference <http://www.cdisc.org/MS/V1#IG> ;
.
:R27
	rdf:type bo:Reference ;
	isoC:label ""^^xsd:string ;
	bo:enabled "true"^^xsd:boolean ;
	bo:optional "false"^^xsd:boolean ;
	bo:ordinal "27"^^xsd:positiveInteger ;
	bo:reference <http://www.cdisc.org/MI/V1#IG> ;
.
:R28
	rdf:type bo:Reference ;
	isoC:label ""^^xsd:string ;
	bo:enabled "true"^^xsd:boolean ;
	bo:optional "false"^^xsd:boolean ;
	bo:ordinal "28"^^xsd:positiveInteger ;
	bo:reference <http://www.cdisc.org/MO/V1#IG> ;
.
:R29
	rdf:type bo:Reference ;
	isoC:label ""^^xsd:string ;
	bo:enabled "true"^^xsd:boolean ;
	bo:optional "false"^^xsd:boolean ;
	bo:ordinal "29"^^xsd:positiveInteger ;
	bo:reference <http://www.cdisc.org/CV/V1#IG> ;
.
:R30
	rdf:type bo:Reference ;
	isoC:label ""^^xsd:string ;
	bo:enabled "true"^^xsd:boolean ;
	bo:optional "false"^^xsd:boolean ;
	bo:ordinal "30"^^xsd:positiveInteger ;
	bo:reference <http://www.cdisc.org/MK/V1#IG> ;
.
:R31
	rdf:type bo:Reference ;
	isoC:label ""^^xsd:string ;
	bo:enabled "true"^^xsd:boolean ;
	bo:optional "false"^^xsd:boolean ;
	bo:ordinal "31"^^xsd:positiveInteger ;
	bo:reference <http://www.cdisc.org/NV/V1#IG> ;
.
:R32
	rdf:type bo:Reference ;
	isoC:label ""^^xsd:string ;
	bo:enabled "true"^^xsd:boolean ;
	bo:optional "false"^^xsd:boolean ;
	bo:ordinal "32"^^xsd:positiveInteger ;
	bo:reference <http://www.cdisc.org/OE/V1#IG> ;
.
:R33
	rdf:type bo:Reference ;
	isoC:label ""^^xsd:string ;
	bo:enabled "true"^^xsd:boolean ;
	bo:optional "false"^^xsd:boolean ;
	bo:ordinal "33"^^xsd:positiveInteger ;
	bo:reference <http://www.cdisc.org/RP/V1#IG> ;
.
:R34
	rdf:type bo:Reference ;
	isoC:label ""^^xsd:string ;
	bo:enabled "true"^^xsd:boolean ;
	bo:optional "false"^^xsd:boolean ;
	bo:ordinal "34"^^xsd:positiveInteger ;
	bo:reference <http://www.cdisc.org/RE/V1#IG> ;
.
:R35
	rdf:type bo:Reference ;
	isoC:label ""^^xsd:string ;
	bo:enabled "true"^^xsd:boolean ;
	bo:optional "false"^^xsd:boolean ;
	bo:ordinal "35"^^xsd:positiveInteger ;
	bo:reference <http://www.cdisc.org/UR/V1#IG> ;
.
:R36
	rdf:type bo:Reference ;
	isoC:label ""^^xsd:string ;
	bo:enabled "true"^^xsd:boolean ;
	bo:optional "false"^^xsd:boolean ;
	bo:ordinal "36"^^xsd:positiveInteger ;
	bo:reference <http://www.cdisc.org/PC/V1#IG> ;
.
:R37
	rdf:type bo:Reference ;
	isoC:label ""^^xsd:string ;
	bo:enabled "true"^^xsd:boolean ;
	bo:optional "false"^^xsd:boolean ;
	bo:ordinal "37"^^xsd:positiveInteger ;
	bo:reference <http://www.cdisc.org/PP/V1#IG> ;
.
:R38
	rdf:type bo:Reference ;
	isoC:label ""^^xsd:string ;
	bo:enabled "true"^^xsd:boolean ;
	bo:optional "false"^^xsd:boolean ;
	bo:ordinal "38"^^xsd:positiveInteger ;
	bo:reference <http://www.cdisc.org/PE/V1#IG> ;
.
:R39
	rdf:type bo:Reference ;
	isoC:label ""^^xsd:string ;
	bo:enabled "true"^^xsd:boolean ;
	bo:optional "false"^^xsd:boolean ;
	bo:ordinal "39"^^xsd:positiveInteger ;
	bo:reference <http://www.cdisc.org/FT/V1#IG> ;
.
:R40
	rdf:type bo:Reference ;
	isoC:label ""^^xsd:string ;
	bo:enabled "true"^^xsd:boolean ;
	bo:optional "false"^^xsd:boolean ;
	bo:ordinal "40"^^xsd:positiveInteger ;
	bo:reference <http://www.cdisc.org/QS/V1#IG> ;
.
:R41
	rdf:type bo:Reference ;
	isoC:label ""^^xsd:string ;
	bo:enabled "true"^^xsd:boolean ;
	bo:optional "false"^^xsd:boolean ;
	bo:ordinal "41"^^xsd:positiveInteger ;
	bo:reference <http://www.cdisc.org/RS/V1#IG> ;
.
:R42
	rdf:type bo:Reference ;
	isoC:label ""^^xsd:string ;
	bo:enabled "true"^^xsd:boolean ;
	bo:optional "false"^^xsd:boolean ;
	bo:ordinal "42"^^xsd:positiveInteger ;
	bo:reference <http://www.cdisc.org/SC/V1#IG> ;
.
:R43
	rdf:type bo:Reference ;
	isoC:label ""^^xsd:string ;
	bo:enabled "true"^^xsd:boolean ;
	bo:optional "false"^^xsd:boolean ;
	bo:ordinal "43"^^xsd:positiveInteger ;
	bo:reference <http://www.cdisc.org/SS/V1#IG> ;
.
:R44
	rdf:type bo:Reference ;
	isoC:label ""^^xsd:string ;
	bo:enabled "true"^^xsd:boolean ;
	bo:optional "false"^^xsd:boolean ;
	bo:ordinal "44"^^xsd:positiveInteger ;
	bo:reference <http://www.cdisc.org/TU/V1#IG> ;
.
:R45
	rdf:type bo:Reference ;
	isoC:label ""^^xsd:string ;
	bo:enabled "true"^^xsd:boolean ;
	bo:optional "false"^^xsd:boolean ;
	bo:ordinal "45"^^xsd:positiveInteger ;
	bo:reference <http://www.cdisc.org/TR/V1#IG> ;
.
:R46
	rdf:type bo:Reference ;
	isoC:label ""^^xsd:string ;
	bo:enabled "true"^^xsd:boolean ;
	bo:optional "false"^^xsd:boolean ;
	bo:ordinal "46"^^xsd:positiveInteger ;
	bo:reference <http://www.cdisc.org/VS/V1#IG> ;
.
:R47
	rdf:type bo:Reference ;
	isoC:label ""^^xsd:string ;
	bo:enabled "true"^^xsd:boolean ;
	bo:optional "false"^^xsd:boolean ;
	bo:ordinal "47"^^xsd:positiveInteger ;
	bo:reference <http://www.cdisc.org/FA/V1#IG> ;
.
:R48
	rdf:type bo:Reference ;
	isoC:label ""^^xsd:string ;
	bo:enabled "true"^^xsd:boolean ;
	bo:optional "false"^^xsd:boolean ;
	bo:ordinal "48"^^xsd:positiveInteger ;
	bo:reference <http://www.cdisc.org/SR/V1#IG> ;
.
:R49
	rdf:type bo:Reference ;
	isoC:label ""^^xsd:string ;
	bo:enabled "true"^^xsd:boolean ;
	bo:optional "false"^^xsd:boolean ;
	bo:ordinal "49"^^xsd:positiveInteger ;
	bo:reference <http://www.cdisc.org/TA/V1#IG> ;
.
:R50
	rdf:type bo:Reference ;
	isoC:label ""^^xsd:string ;
	bo:enabled "true"^^xsd:boolean ;
	bo:optional "false"^^xsd:boolean ;
	bo:ordinal "50"^^xsd:positiveInteger ;
	bo:reference <http://www.cdisc.org/TE/V1#IG> ;
.
:R51
	rdf:type bo:Reference ;
	isoC:label ""^^xsd:string ;
	bo:enabled "true"^^xsd:boolean ;
	bo:optional "false"^^xsd:boolean ;
	bo:ordinal "51"^^xsd:positiveInteger ;
	bo:reference <http://www.cdisc.org/TV/V1#IG> ;
.
:R52
	rdf:type bo:Reference ;
	isoC:label ""^^xsd:string ;
	bo:enabled "true"^^xsd:boolean ;
	bo:optional "false"^^xsd:boolean ;
	bo:ordinal "52"^^xsd:positiveInteger ;
	bo:reference <http://www.cdisc.org/TD/V1#IG> ;
.
:R53
	rdf:type bo:Reference ;
	isoC:label ""^^xsd:string ;
	bo:enabled "true"^^xsd:boolean ;
	bo:optional "false"^^xsd:boolean ;
	bo:ordinal "53"^^xsd:positiveInteger ;
	bo:reference <http://www.cdisc.org/TM/V1#IG> ;
.
:R54
	rdf:type bo:Reference ;
	isoC:label ""^^xsd:string ;
	bo:enabled "true"^^xsd:boolean ;
	bo:optional "false"^^xsd:boolean ;
	bo:ordinal "54"^^xsd:positiveInteger ;
	bo:reference <http://www.cdisc.org/TI/V1#IG> ;
.
:R55
	rdf:type bo:Reference ;
	isoC:label ""^^xsd:string ;
	bo:enabled "true"^^xsd:boolean ;
	bo:optional "false"^^xsd:boolean ;
	bo:ordinal "55"^^xsd:positiveInteger ;
	bo:reference <http://www.cdisc.org/TS/V1#IG> ;
.
:R56
	rdf:type bo:Reference ;
	isoC:label ""^^xsd:string ;
	bo:enabled "true"^^xsd:boolean ;
	bo:optional "false"^^xsd:boolean ;
	bo:ordinal "56"^^xsd:positiveInteger ;
	bo:reference <http://www.cdisc.org/RELREC/V1#IG> ;
.
:R57
	rdf:type bo:Reference ;
	isoC:label ""^^xsd:string ;
	bo:enabled "true"^^xsd:boolean ;
	bo:optional "false"^^xsd:boolean ;
	bo:ordinal "57"^^xsd:positiveInteger ;
	bo:reference <http://www.cdisc.org/SUPPQUAL/V1#IG> ;
.
:R58
	rdf:type bo:Reference ;
	isoC:label ""^^xsd:string ;
	bo:enabled "true"^^xsd:boolean ;
	bo:optional "false"^^xsd:boolean ;
	bo:ordinal "58"^^xsd:positiveInteger ;
	bo:reference <http://www.cdisc.org/RELSUB/V1#IG> ;
.
:R59
	rdf:type bo:Reference ;
	isoC:label ""^^xsd:string ;
	bo:enabled "true"^^xsd:boolean ;
	bo:optional "false"^^xsd:boolean ;
	bo:ordinal "59"^^xsd:positiveInteger ;
	bo:reference <http://www.cdisc.org/OI/V1#IG> ;
.
<http://www.cdisc.org/CO/V1#IG>
	rdf:type bd:SdtmDomain ;
	isoC:label "Comments"^^xsd:string ;
	isoT:hasState <http://www.cdisc.org/CO/V1#IG_RS> ;
	isoT:hasIdentifier <http://www.cdisc.org/CO/V1#IG_SI> ;
	isoT:origin ""^^xsd:string ;
	isoT:changeDescription ""^^xsd:string ;
	isoT:creationDate "2020-01-01T00:00:00+00:00"^^xsd:dateTime ;
	isoT:lastChangeDate "2020-01-01T00:00:00+00:00"^^xsd:dateTime ;
	isoT:explanatoryComment ""^^xsd:string ;
	bd:rule ""^^xsd:string ;
	bd:ordinal "1"^^xsd:positiveInteger ;
	bd:includesColumn <http://www.cdisc.org/CO/V1#IG_DVSTUDYID> ;
	bd:includesColumn <http://www.cdisc.org/CO/V1#IG_DVDOMAIN> ;
	bd:includesColumn <http://www.cdisc.org/CO/V1#IG_DVRDOMAIN> ;
	bd:includesColumn <http://www.cdisc.org/CO/V1#IG_DVUSUBJID> ;
	bd:includesColumn <http://www.cdisc.org/CO/V1#IG_DVCOSEQ> ;
	bd:includesColumn <http://www.cdisc.org/CO/V1#IG_DVIDVAR> ;
	bd:includesColumn <http://www.cdisc.org/CO/V1#IG_DVIDVARVAL> ;
	bd:includesColumn <http://www.cdisc.org/CO/V1#IG_DVCOREF> ;
	bd:includesColumn <http://www.cdisc.org/CO/V1#IG_DVCOVAL> ;
	bd:includesColumn <http://www.cdisc.org/CO/V1#IG_DVCOEVAL> ;
	bd:includesColumn <http://www.cdisc.org/CO/V1#IG_DVCOEVALID> ;
	bd:includesColumn <http://www.cdisc.org/CO/V1#IG_DVCODTC> ;
	bd:includesColumn <http://www.cdisc.org/CO/V1#IG_DVCODY> ;
	bd:prefix ""^^xsd:string ;
	bd:structure ""^^xsd:string ;
.
<http://www.cdisc.org/CO/V1#IG_RS>
	rdf:type isoR:RegistrationState ;
	isoR:registrationStatus "Standard"^^xsd:string ;
	isoR:administrativeNote ""^^xsd:string ;
	isoR:effectiveDate "2016-01-01T00:00:00+00:00"^^xsd:dateTime ;
	isoR:untilDate "2016-01-01T00:00:00+00:00"^^xsd:dateTime ;
	isoR:unresolvedIssue ""^^xsd:string ;
	isoR:administrativeStatus ""^^xsd:string ;
	isoR:previousState "Standard"^^xsd:string ;
	isoR:multipleEdit "false"^^xsd:boolean ;
	isoR:byAuthority <http://www.assero.co.uk/RA#DUNS084433759> ;
.
<http://www.cdisc.org/CO/V1#IG_SI>
	rdf:type isoI:ScopedIdentifier ;
	isoI:identifier "CO"^^xsd:string ;
	isoI:versionLabel "1.1.1"^^xsd:string ;
	isoI:version "1"^^xsd:positiveInteger ;
	isoI:semanticVersion "1.1.1"^^xsd:string ;
	isoI:hasScope <http://www.assero.co.uk/NS#CDISC> ;
.
<http://www.cdisc.org/CO/V1#IG_DVSTUDYID>
	rdf:type bd:SdtmDomainVariable ;
	isoC:label "Study Identifier"^^xsd:string ;
	bd:rule ""^^xsd:string ;
	bd:ordinal "1"^^xsd:positiveInteger ;
	bd:name "STUDYID"^^xsd:string ;
	bd:description "Unique identifier for a study."^^xsd:string ;
	bd:format ""^^xsd:string ;
	bd:ctAndFormat ""^^xsd:string ;
	bd:compliance <http://www.assero.co.uk/CSN#8f112ba7-caa3-4f34-a9fc-8bc808b13955> ;
.
<http://www.cdisc.org/CO/V1#IG_DVDOMAIN>
	rdf:type bd:SdtmDomainVariable ;
	isoC:label "Domain Abbreviation"^^xsd:string ;
	bd:rule ""^^xsd:string ;
	bd:ordinal "2"^^xsd:positiveInteger ;
	bd:name "DOMAIN"^^xsd:string ;
	bd:description "Two-character abbreviation for the domain."^^xsd:string ;
	bd:format ""^^xsd:string ;
	bd:ctAndFormat "CO"^^xsd:string ;
	bd:compliance <http://www.assero.co.uk/CSN#8f112ba7-caa3-4f34-a9fc-8bc808b13955> ;
.
<http://www.cdisc.org/CO/V1#IG_DVRDOMAIN>
	rdf:type bd:SdtmDomainVariable ;
	isoC:label "Related Domain Abbreviation"^^xsd:string ;
	bd:rule ""^^xsd:string ;
	bd:ordinal "3"^^xsd:positiveInteger ;
	bd:name "RDOMAIN"^^xsd:string ;
	bd:description "Two-character abbreviation for the domain of the parent record(s). Null for comments collected on a general comments or additional information CRF page."^^xsd:string ;
	bd:format ""^^xsd:string ;
	bd:ctAndFormat ""^^xsd:string ;
	bd:compliance <http://www.assero.co.uk/CSN#da9f1092-7a20-4c97-9144-8bac2e72d1ea> ;
.
<http://www.cdisc.org/CO/V1#IG_DVUSUBJID>
	rdf:type bd:SdtmDomainVariable ;
	isoC:label "Unique Subject Identifier"^^xsd:string ;
	bd:rule ""^^xsd:string ;
	bd:ordinal "4"^^xsd:positiveInteger ;
	bd:name "USUBJID"^^xsd:string ;
	bd:description "Identifier used to uniquely identify a subject across all studies for all applications or submissions involving the product."^^xsd:string ;
	bd:format ""^^xsd:string ;
	bd:ctAndFormat ""^^xsd:string ;
	bd:compliance <http://www.assero.co.uk/CSN#8f112ba7-caa3-4f34-a9fc-8bc808b13955> ;
.
<http://www.cdisc.org/CO/V1#IG_DVCOSEQ>
	rdf:type bd:SdtmDomainVariable ;
	isoC:label "Sequence Number"^^xsd:string ;
	bd:rule ""^^xsd:string ;
	bd:ordinal "5"^^xsd:positiveInteger ;
	bd:name "COSEQ"^^xsd:string ;
	bd:description "Sequence Number given to ensure uniqueness of subject records within a domain. May be any valid number."^^xsd:string ;
	bd:format ""^^xsd:string ;
	bd:ctAndFormat ""^^xsd:string ;
	bd:compliance <http://www.assero.co.uk/CSN#8f112ba7-caa3-4f34-a9fc-8bc808b13955> ;
.
<http://www.cdisc.org/CO/V1#IG_DVIDVAR>
	rdf:type bd:SdtmDomainVariable ;
	isoC:label "Identifying Variable"^^xsd:string ;
	bd:rule ""^^xsd:string ;
	bd:ordinal "6"^^xsd:positiveInteger ;
	bd:name "IDVAR"^^xsd:string ;
	bd:description "Identifying variable in the parent dataset that identifies the record(s) to which the comment applies. Examples AESEQ or CMGRPID. Used only when individual comments are related to domain records. Null for comments collected on separate CRFs."^^xsd:string ;
	bd:format ""^^xsd:string ;
	bd:ctAndFormat ""^^xsd:string ;
	bd:compliance <http://www.assero.co.uk/CSN#da9f1092-7a20-4c97-9144-8bac2e72d1ea> ;
.
<http://www.cdisc.org/CO/V1#IG_DVIDVARVAL>
	rdf:type bd:SdtmDomainVariable ;
	isoC:label "Identifying Variable Value"^^xsd:string ;
	bd:rule ""^^xsd:string ;
	bd:ordinal "7"^^xsd:positiveInteger ;
	bd:name "IDVARVAL"^^xsd:string ;
	bd:description "Value of identifying variable of the parent record(s). Used only when individual comments are related to domain records. Null for comments collected on separate CRFs."^^xsd:string ;
	bd:format ""^^xsd:string ;
	bd:ctAndFormat ""^^xsd:string ;
	bd:compliance <http://www.assero.co.uk/CSN#da9f1092-7a20-4c97-9144-8bac2e72d1ea> ;
.
<http://www.cdisc.org/CO/V1#IG_DVCOREF>
	rdf:type bd:SdtmDomainVariable ;
	isoC:label "Comment Reference"^^xsd:string ;
	bd:rule ""^^xsd:string ;
	bd:ordinal "8"^^xsd:positiveInteger ;
	bd:name "COREF"^^xsd:string ;
	bd:description "Sponsor-defined reference associated with the comment. May be the CRF page number (e.g., 650), or a module name (e.g., DEMOG), or a combination of information that identifies the reference (e.g. 650-VITALS-VISIT 2)."^^xsd:string ;
	bd:format ""^^xsd:string ;
	bd:ctAndFormat ""^^xsd:string ;
	bd:compliance <http://www.assero.co.uk/CSN#da9f1092-7a20-4c97-9144-8bac2e72d1ea> ;
.
<http://www.cdisc.org/CO/V1#IG_DVCOVAL>
	rdf:type bd:SdtmDomainVariable ;
	isoC:label "Comment"^^xsd:string ;
	bd:rule ""^^xsd:string ;
	bd:ordinal "9"^^xsd:positiveInteger ;
	bd:name "COVAL"^^xsd:string ;
	bd:description "The text of the comment. Text over 200 characters can be added to additional columns COVAL1-COVALn. See Assumption 3."^^xsd:string ;
	bd:format ""^^xsd:string ;
	bd:ctAndFormat ""^^xsd:string ;
	bd:compliance <http://www.assero.co.uk/CSN#8f112ba7-caa3-4f34-a9fc-8bc808b13955> ;
.
<http://www.cdisc.org/CO/V1#IG_DVCOEVAL>
	rdf:type bd:SdtmDomainVariable ;
	isoC:label "Evaluator"^^xsd:string ;
	bd:rule ""^^xsd:string ;
	bd:ordinal "10"^^xsd:positiveInteger ;
	bd:name "COEVAL"^^xsd:string ;
	bd:description "Used to describe the originator of the comment. Examples: CENTRAL, REVIEWER, ADJUDICATION COMMITTEE, PRINCIPAL INVESTIGATOR."^^xsd:string ;
	bd:format ""^^xsd:string ;
	bd:ctAndFormat ""^^xsd:string ;
	bd:compliance <http://www.assero.co.uk/CSN#da9f1092-7a20-4c97-9144-8bac2e72d1ea> ;
.
<http://www.cdisc.org/CO/V1#IG_DVCOEVALID>
	rdf:type bd:SdtmDomainVariable ;
	isoC:label "Evaluator Identifier"^^xsd:string ;
	bd:rule ""^^xsd:string ;
	bd:ordinal "11"^^xsd:positiveInteger ;
	bd:name "COEVALID"^^xsd:string ;
	bd:description "Used to distinguish multiple evaluators with the same role recorded in --EVAL. Examples: RADIOLOGIST, RADIOLOGIST1, RADIOLOGIST2."^^xsd:string ;
	bd:format ""^^xsd:string ;
	bd:ctAndFormat "(MEDEVAL)"^^xsd:string ;
	bd:compliance <http://www.assero.co.uk/CSN#da9f1092-7a20-4c97-9144-8bac2e72d1ea> ;
.
<http://www.cdisc.org/CO/V1#IG_DVCODTC>
	rdf:type bd:SdtmDomainVariable ;
	isoC:label "Date/Time of Comment"^^xsd:string ;
	bd:rule ""^^xsd:string ;
	bd:ordinal "12"^^xsd:positiveInteger ;
	bd:name "CODTC"^^xsd:string ;
	bd:description "Date/time of comment on dedicated comment form. Should be null if this is a child record of another domain or if comment date was not collected."^^xsd:string ;
	bd:format ""^^xsd:string ;
	bd:ctAndFormat "ISO 8601"^^xsd:string ;
	bd:compliance <http://www.assero.co.uk/CSN#da9f1092-7a20-4c97-9144-8bac2e72d1ea> ;
.
<http://www.cdisc.org/CO/V1#IG_DVCODY>
	rdf:type bd:SdtmDomainVariable ;
	isoC:label "Study Day of Comment"^^xsd:string ;
	bd:rule ""^^xsd:string ;
	bd:ordinal "13"^^xsd:positiveInteger ;
	bd:name "CODY"^^xsd:string ;
	bd:description "Study day of the comment, in integer days. The algorithm for calculations must be relative to the sponsor-defined RFSTDTC variable in the Demographics (DM) domain."^^xsd:string ;
	bd:format ""^^xsd:string ;
	bd:ctAndFormat ""^^xsd:string ;
	bd:compliance <http://www.assero.co.uk/CSN#da9f1092-7a20-4c97-9144-8bac2e72d1ea> ;
.
<http://www.cdisc.org/DM/V1#IG>
	rdf:type bd:SdtmDomain ;
	isoC:label "Demographics"^^xsd:string ;
	isoT:hasState <http://www.cdisc.org/DM/V1#IG_RS> ;
	isoT:hasIdentifier <http://www.cdisc.org/DM/V1#IG_SI> ;
	isoT:origin ""^^xsd:string ;
	isoT:changeDescription ""^^xsd:string ;
	isoT:creationDate "2020-01-01T00:00:00+00:00"^^xsd:dateTime ;
	isoT:lastChangeDate "2020-01-01T00:00:00+00:00"^^xsd:dateTime ;
	isoT:explanatoryComment ""^^xsd:string ;
	bd:rule ""^^xsd:string ;
	bd:ordinal "1"^^xsd:positiveInteger ;
	bd:includesColumn <http://www.cdisc.org/DM/V1#IG_DVSTUDYID> ;
	bd:includesColumn <http://www.cdisc.org/DM/V1#IG_DVDOMAIN> ;
	bd:includesColumn <http://www.cdisc.org/DM/V1#IG_DVUSUBJID> ;
	bd:includesColumn <http://www.cdisc.org/DM/V1#IG_DVSUBJID> ;
	bd:includesColumn <http://www.cdisc.org/DM/V1#IG_DVRFSTDTC> ;
	bd:includesColumn <http://www.cdisc.org/DM/V1#IG_DVRFENDTC> ;
	bd:includesColumn <http://www.cdisc.org/DM/V1#IG_DVRFXSTDTC> ;
	bd:includesColumn <http://www.cdisc.org/DM/V1#IG_DVRFXENDTC> ;
	bd:includesColumn <http://www.cdisc.org/DM/V1#IG_DVRFICDTC> ;
	bd:includesColumn <http://www.cdisc.org/DM/V1#IG_DVRFPENDTC> ;
	bd:includesColumn <http://www.cdisc.org/DM/V1#IG_DVDTHDTC> ;
	bd:includesColumn <http://www.cdisc.org/DM/V1#IG_DVDTHFL> ;
	bd:includesColumn <http://www.cdisc.org/DM/V1#IG_DVSITEID> ;
	bd:includesColumn <http://www.cdisc.org/DM/V1#IG_DVINVID> ;
	bd:includesColumn <http://www.cdisc.org/DM/V1#IG_DVINVNAM> ;
	bd:includesColumn <http://www.cdisc.org/DM/V1#IG_DVBRTHDTC> ;
	bd:includesColumn <http://www.cdisc.org/DM/V1#IG_DVAGE> ;
	bd:includesColumn <http://www.cdisc.org/DM/V1#IG_DVAGEU> ;
	bd:includesColumn <http://www.cdisc.org/DM/V1#IG_DVSEX> ;
	bd:includesColumn <http://www.cdisc.org/DM/V1#IG_DVRACE> ;
	bd:includesColumn <http://www.cdisc.org/DM/V1#IG_DVETHNIC> ;
	bd:includesColumn <http://www.cdisc.org/DM/V1#IG_DVARMCD> ;
	bd:includesColumn <http://www.cdisc.org/DM/V1#IG_DVARM> ;
	bd:includesColumn <http://www.cdisc.org/DM/V1#IG_DVACTARMCD> ;
	bd:includesColumn <http://www.cdisc.org/DM/V1#IG_DVACTARM> ;
	bd:includesColumn <http://www.cdisc.org/DM/V1#IG_DVARMNRS> ;
	bd:includesColumn <http://www.cdisc.org/DM/V1#IG_DVACTARMUD> ;
	bd:includesColumn <http://www.cdisc.org/DM/V1#IG_DVCOUNTRY> ;
	bd:includesColumn <http://www.cdisc.org/DM/V1#IG_DVDMDTC> ;
	bd:includesColumn <http://www.cdisc.org/DM/V1#IG_DVDMDY> ;
	bd:prefix ""^^xsd:string ;
	bd:structure ""^^xsd:string ;
.
<http://www.cdisc.org/DM/V1#IG_RS>
	rdf:type isoR:RegistrationState ;
	isoR:registrationStatus "Standard"^^xsd:string ;
	isoR:administrativeNote ""^^xsd:string ;
	isoR:effectiveDate "2016-01-01T00:00:00+00:00"^^xsd:dateTime ;
	isoR:untilDate "2016-01-01T00:00:00+00:00"^^xsd:dateTime ;
	isoR:unresolvedIssue ""^^xsd:string ;
	isoR:administrativeStatus ""^^xsd:string ;
	isoR:previousState "Standard"^^xsd:string ;
	isoR:multipleEdit "false"^^xsd:boolean ;
	isoR:byAuthority <http://www.assero.co.uk/RA#DUNS084433759> ;
.
<http://www.cdisc.org/DM/V1#IG_SI>
	rdf:type isoI:ScopedIdentifier ;
	isoI:identifier "DM"^^xsd:string ;
	isoI:versionLabel "1.1.1"^^xsd:string ;
	isoI:version "1"^^xsd:positiveInteger ;
	isoI:semanticVersion "1.1.1"^^xsd:string ;
	isoI:hasScope <http://www.assero.co.uk/NS#CDISC> ;
.
<http://www.cdisc.org/DM/V1#IG_DVSTUDYID>
	rdf:type bd:SdtmDomainVariable ;
	isoC:label "Study Identifier"^^xsd:string ;
	bd:rule ""^^xsd:string ;
	bd:ordinal "1"^^xsd:positiveInteger ;
	bd:name "STUDYID"^^xsd:string ;
	bd:description "Unique identifier for a study."^^xsd:string ;
	bd:format ""^^xsd:string ;
	bd:ctAndFormat ""^^xsd:string ;
	bd:compliance <http://www.assero.co.uk/CSN#8f112ba7-caa3-4f34-a9fc-8bc808b13955> ;
.
<http://www.cdisc.org/DM/V1#IG_DVDOMAIN>
	rdf:type bd:SdtmDomainVariable ;
	isoC:label "Domain Abbreviation"^^xsd:string ;
	bd:rule ""^^xsd:string ;
	bd:ordinal "2"^^xsd:positiveInteger ;
	bd:name "DOMAIN"^^xsd:string ;
	bd:description "Two-character abbreviation for the domain."^^xsd:string ;
	bd:format ""^^xsd:string ;
	bd:ctAndFormat "DM"^^xsd:string ;
	bd:compliance <http://www.assero.co.uk/CSN#8f112ba7-caa3-4f34-a9fc-8bc808b13955> ;
.
<http://www.cdisc.org/DM/V1#IG_DVUSUBJID>
	rdf:type bd:SdtmDomainVariable ;
	isoC:label "Unique Subject Identifier"^^xsd:string ;
	bd:rule ""^^xsd:string ;
	bd:ordinal "3"^^xsd:positiveInteger ;
	bd:name "USUBJID"^^xsd:string ;
	bd:description "Identifier used to uniquely identify a subject across all studies for all applications or submissions involving the product. This must be a unique number, and could be a compound identifier formed by concatenating STUDYID-SITEID-SUBJID."^^xsd:string ;
	bd:format ""^^xsd:string ;
	bd:ctAndFormat ""^^xsd:string ;
	bd:compliance <http://www.assero.co.uk/CSN#8f112ba7-caa3-4f34-a9fc-8bc808b13955> ;
.
<http://www.cdisc.org/DM/V1#IG_DVSUBJID>
	rdf:type bd:SdtmDomainVariable ;
	isoC:label "Subject Identifier for the Study"^^xsd:string ;
	bd:rule ""^^xsd:string ;
	bd:ordinal "4"^^xsd:positiveInteger ;
	bd:name "SUBJID"^^xsd:string ;
	bd:description "Subject identifier, which must be unique within the study. Often the ID of the subject as recorded on a CRF."^^xsd:string ;
	bd:format ""^^xsd:string ;
	bd:ctAndFormat ""^^xsd:string ;
	bd:compliance <http://www.assero.co.uk/CSN#8f112ba7-caa3-4f34-a9fc-8bc808b13955> ;
.
<http://www.cdisc.org/DM/V1#IG_DVRFSTDTC>
	rdf:type bd:SdtmDomainVariable ;
	isoC:label "Subject Reference Start Date/Time"^^xsd:string ;
	bd:rule ""^^xsd:string ;
	bd:ordinal "5"^^xsd:positiveInteger ;
	bd:name "RFSTDTC"^^xsd:string ;
	bd:description "Reference Start Date/time for the subject in ISO 8601 character format. Usually equivalent to date/time when subject was first exposed to study treatment. See Assumption 9 for additional detail on when RFSTDTC may be null."^^xsd:string ;
	bd:format ""^^xsd:string ;
	bd:ctAndFormat "ISO 8601"^^xsd:string ;
	bd:compliance <http://www.assero.co.uk/CSN#fc544083-2437-4ec0-97f4-767598bee682> ;
.
<http://www.cdisc.org/DM/V1#IG_DVRFENDTC>
	rdf:type bd:SdtmDomainVariable ;
	isoC:label "Subject Reference End Date/Time"^^xsd:string ;
	bd:rule ""^^xsd:string ;
	bd:ordinal "6"^^xsd:positiveInteger ;
	bd:name "RFENDTC"^^xsd:string ;
	bd:description "Reference End Date/time for the subject in ISO 8601 character format. Usually equivalent to the date/time when subject was determined to have ended the trial, and often equivalent to date/time of last exposure to study treatment. Required for all randomized subjects; null for screen failures or unassigned subjects."^^xsd:string ;
	bd:format ""^^xsd:string ;
	bd:ctAndFormat "ISO 8601"^^xsd:string ;
	bd:compliance <http://www.assero.co.uk/CSN#fc544083-2437-4ec0-97f4-767598bee682> ;
.
<http://www.cdisc.org/DM/V1#IG_DVRFXSTDTC>
	rdf:type bd:SdtmDomainVariable ;
	isoC:label "Date/Time of First Study Treatment"^^xsd:string ;
	bd:rule ""^^xsd:string ;
	bd:ordinal "7"^^xsd:positiveInteger ;
	bd:name "RFXSTDTC"^^xsd:string ;
	bd:description "First date/time of exposure to any protocol-specified treatment or therapy, equal to the earliest value of EXSTDTC."^^xsd:string ;
	bd:format ""^^xsd:string ;
	bd:ctAndFormat "ISO 8601"^^xsd:string ;
	bd:compliance <http://www.assero.co.uk/CSN#fc544083-2437-4ec0-97f4-767598bee682> ;
.
<http://www.cdisc.org/DM/V1#IG_DVRFXENDTC>
	rdf:type bd:SdtmDomainVariable ;
	isoC:label "Date/Time of Last Study Treatment"^^xsd:string ;
	bd:rule ""^^xsd:string ;
	bd:ordinal "8"^^xsd:positiveInteger ;
	bd:name "RFXENDTC"^^xsd:string ;
	bd:description "Last date/time of exposure to any protocol-specified treatment or therapy, equal to the latest value of EXENDTC (or the latest value of EXSTDTC if EXENDTC was not collected or is missing)."^^xsd:string ;
	bd:format ""^^xsd:string ;
	bd:ctAndFormat "ISO 8601"^^xsd:string ;
	bd:compliance <http://www.assero.co.uk/CSN#fc544083-2437-4ec0-97f4-767598bee682> ;
.
<http://www.cdisc.org/DM/V1#IG_DVRFICDTC>
	rdf:type bd:SdtmDomainVariable ;
	isoC:label "Date/Time of Informed Consent"^^xsd:string ;
	bd:rule ""^^xsd:string ;
	bd:ordinal "9"^^xsd:positiveInteger ;
	bd:name "RFICDTC"^^xsd:string ;
	bd:description "Date/time of informed consent in ISO 8601 character format. This will be the same as the date of informed consent in the Disposition domain, if that protocol milestone is documented. Would be null only in studies not collecting the date of informed consent."^^xsd:string ;
	bd:format ""^^xsd:string ;
	bd:ctAndFormat "ISO 8601"^^xsd:string ;
	bd:compliance <http://www.assero.co.uk/CSN#fc544083-2437-4ec0-97f4-767598bee682> ;
.
<http://www.cdisc.org/DM/V1#IG_DVRFPENDTC>
	rdf:type bd:SdtmDomainVariable ;
	isoC:label "Date/Time of End of Participation"^^xsd:string ;
	bd:rule ""^^xsd:string ;
	bd:ordinal "10"^^xsd:positiveInteger ;
	bd:name "RFPENDTC"^^xsd:string ;
	bd:description "Date/time when subject ended participation or follow-up in a trial, as defined in the protocol, in ISO 8601 character format. Should correspond to the last known date of contact. Examples include completion date, withdrawal date, last follow-up, date recorded for lost to follow up, or death date."^^xsd:string ;
	bd:format ""^^xsd:string ;
	bd:ctAndFormat "ISO 8601"^^xsd:string ;
	bd:compliance <http://www.assero.co.uk/CSN#fc544083-2437-4ec0-97f4-767598bee682> ;
.
<http://www.cdisc.org/DM/V1#IG_DVDTHDTC>
	rdf:type bd:SdtmDomainVariable ;
	isoC:label "Date/Time of Death"^^xsd:string ;
	bd:rule ""^^xsd:string ;
	bd:ordinal "11"^^xsd:positiveInteger ;
	bd:name "DTHDTC"^^xsd:string ;
	bd:description "Date/time of death for any subject who died, in ISO 8601 format. Should represent the date/time that is captured in the clinical-trial database."^^xsd:string ;
	bd:format ""^^xsd:string ;
	bd:ctAndFormat "ISO 8601"^^xsd:string ;
	bd:compliance <http://www.assero.co.uk/CSN#fc544083-2437-4ec0-97f4-767598bee682> ;
.
<http://www.cdisc.org/DM/V1#IG_DVDTHFL>
	rdf:type bd:SdtmDomainVariable ;
	isoC:label "Subject Death Flag"^^xsd:string ;
	bd:rule ""^^xsd:string ;
	bd:ordinal "12"^^xsd:positiveInteger ;
	bd:name "DTHFL"^^xsd:string ;
	bd:description "Indicates the subject died. Should be \"Y\" or null. Should be populated even when the death date is unknown."^^xsd:string ;
	bd:format ""^^xsd:string ;
	bd:ctAndFormat "(NY)"^^xsd:string ;
	bd:compliance <http://www.assero.co.uk/CSN#fc544083-2437-4ec0-97f4-767598bee682> ;
.
<http://www.cdisc.org/DM/V1#IG_DVSITEID>
	rdf:type bd:SdtmDomainVariable ;
	isoC:label "Study Site Identifier"^^xsd:string ;
	bd:rule ""^^xsd:string ;
	bd:ordinal "13"^^xsd:positiveInteger ;
	bd:name "SITEID"^^xsd:string ;
	bd:description "Unique identifier for a site within a study."^^xsd:string ;
	bd:format ""^^xsd:string ;
	bd:ctAndFormat ""^^xsd:string ;
	bd:compliance <http://www.assero.co.uk/CSN#8f112ba7-caa3-4f34-a9fc-8bc808b13955> ;
.
<http://www.cdisc.org/DM/V1#IG_DVINVID>
	rdf:type bd:SdtmDomainVariable ;
	isoC:label "Investigator Identifier"^^xsd:string ;
	bd:rule ""^^xsd:string ;
	bd:ordinal "14"^^xsd:positiveInteger ;
	bd:name "INVID"^^xsd:string ;
	bd:description "An identifier to describe the Investigator for the study. May be used in addition to SITEID. Not needed if SITEID is equivalent to INVID."^^xsd:string ;
	bd:format ""^^xsd:string ;
	bd:ctAndFormat ""^^xsd:string ;
	bd:compliance <http://www.assero.co.uk/CSN#da9f1092-7a20-4c97-9144-8bac2e72d1ea> ;
.
<http://www.cdisc.org/DM/V1#IG_DVINVNAM>
	rdf:type bd:SdtmDomainVariable ;
	isoC:label "Investigator Name"^^xsd:string ;
	bd:rule ""^^xsd:string ;
	bd:ordinal "15"^^xsd:positiveInteger ;
	bd:name "INVNAM"^^xsd:string ;
	bd:description "Name of the investigator for a site."^^xsd:string ;
	bd:format ""^^xsd:string ;
	bd:ctAndFormat ""^^xsd:string ;
	bd:compliance <http://www.assero.co.uk/CSN#da9f1092-7a20-4c97-9144-8bac2e72d1ea> ;
.
<http://www.cdisc.org/DM/V1#IG_DVBRTHDTC>
	rdf:type bd:SdtmDomainVariable ;
	isoC:label "Date/Time of Birth"^^xsd:string ;
	bd:rule ""^^xsd:string ;
	bd:ordinal "16"^^xsd:positiveInteger ;
	bd:name "BRTHDTC"^^xsd:string ;
	bd:description "Date/time of birth of the subject."^^xsd:string ;
	bd:format ""^^xsd:string ;
	bd:ctAndFormat "ISO 8601"^^xsd:string ;
	bd:compliance <http://www.assero.co.uk/CSN#da9f1092-7a20-4c97-9144-8bac2e72d1ea> ;
.
<http://www.cdisc.org/DM/V1#IG_DVAGE>
	rdf:type bd:SdtmDomainVariable ;
	isoC:label "Age"^^xsd:string ;
	bd:rule ""^^xsd:string ;
	bd:ordinal "17"^^xsd:positiveInteger ;
	bd:name "AGE"^^xsd:string ;
	bd:description "Age expressed in AGEU. May be derived from RFSTDTC and BRTHDTC, but BRTHDTC may not be available in all cases (due to subject privacy concerns)."^^xsd:string ;
	bd:format ""^^xsd:string ;
	bd:ctAndFormat ""^^xsd:string ;
	bd:compliance <http://www.assero.co.uk/CSN#fc544083-2437-4ec0-97f4-767598bee682> ;
.
<http://www.cdisc.org/DM/V1#IG_DVAGEU>
	rdf:type bd:SdtmDomainVariable ;
	isoC:label "Age Units"^^xsd:string ;
	bd:rule ""^^xsd:string ;
	bd:ordinal "18"^^xsd:positiveInteger ;
	bd:name "AGEU"^^xsd:string ;
	bd:description "Units associated with AGE."^^xsd:string ;
	bd:format ""^^xsd:string ;
	bd:ctAndFormat "(AGEU)"^^xsd:string ;
	bd:compliance <http://www.assero.co.uk/CSN#fc544083-2437-4ec0-97f4-767598bee682> ;
.
<http://www.cdisc.org/DM/V1#IG_DVSEX>
	rdf:type bd:SdtmDomainVariable ;
	isoC:label "Sex"^^xsd:string ;
	bd:rule ""^^xsd:string ;
	bd:ordinal "19"^^xsd:positiveInteger ;
	bd:name "SEX"^^xsd:string ;
	bd:description "Sex of the subject."^^xsd:string ;
	bd:format ""^^xsd:string ;
	bd:ctAndFormat "(SEX)"^^xsd:string ;
	bd:compliance <http://www.assero.co.uk/CSN#8f112ba7-caa3-4f34-a9fc-8bc808b13955> ;
.
<http://www.cdisc.org/DM/V1#IG_DVRACE>
	rdf:type bd:SdtmDomainVariable ;
	isoC:label "Race"^^xsd:string ;
	bd:rule ""^^xsd:string ;
	bd:ordinal "20"^^xsd:positiveInteger ;
	bd:name "RACE"^^xsd:string ;
	bd:description "Race of the subject. Sponsors should refer to \"Collection of Race and Ethnicity Data in Clinical Trials\" (FDA, October, 2016) for guidance regarding the collection of race (https://www.fda.gov/downloads/regulatoryinformation/guidances/ucm126396.pdf) See Assumption below regarding RACE."^^xsd:string ;
	bd:format ""^^xsd:string ;
	bd:ctAndFormat "(RACE)"^^xsd:string ;
	bd:compliance <http://www.assero.co.uk/CSN#fc544083-2437-4ec0-97f4-767598bee682> ;
.
<http://www.cdisc.org/DM/V1#IG_DVETHNIC>
	rdf:type bd:SdtmDomainVariable ;
	isoC:label "Ethnicity"^^xsd:string ;
	bd:rule ""^^xsd:string ;
	bd:ordinal "21"^^xsd:positiveInteger ;
	bd:name "ETHNIC"^^xsd:string ;
	bd:description "The ethnicity of the subject. Sponsors should refer to \"Collection of Race and Ethnicity Data in Clinical Trials\" (FDA, October, 2016) for guidance regarding the collection of ethnicity (https://www.fda.gov/downloads/regulatoryinformation/guidances/ucm126396.pdf)."^^xsd:string ;
	bd:format ""^^xsd:string ;
	bd:ctAndFormat "(ETHNIC)"^^xsd:string ;
	bd:compliance <http://www.assero.co.uk/CSN#da9f1092-7a20-4c97-9144-8bac2e72d1ea> ;
.
<http://www.cdisc.org/DM/V1#IG_DVARMCD>
	rdf:type bd:SdtmDomainVariable ;
	isoC:label "Planned Arm Code"^^xsd:string ;
	bd:rule ""^^xsd:string ;
	bd:ordinal "22"^^xsd:positiveInteger ;
	bd:name "ARMCD"^^xsd:string ;
	bd:description "ARMCD is limited to 20 characters. It is not subject to the character restrictions that apply to TESTCD.The maximum length of ARMCD is longer than for other \"short\" variables to accommodate the kind of values that are likely to be needed for crossover trials. For example, if ARMCD values for a seven-period crossover were constructed using two-character abbreviations for each treatment and separating hyphens, the length of ARMCD values would be 20. If the subject was not assigned to an Arm, ARMCD is null and ARMNRS is populated. With the exception of studies which use multi-stage Arm assignments, must be a value of ARMCD in the Trial Arms Dataset."^^xsd:string ;
	bd:format ""^^xsd:string ;
	bd:ctAndFormat ""^^xsd:string ;
	bd:compliance <http://www.assero.co.uk/CSN#fc544083-2437-4ec0-97f4-767598bee682> ;
.
<http://www.cdisc.org/DM/V1#IG_DVARM>
	rdf:type bd:SdtmDomainVariable ;
	isoC:label "Description of Planned Arm"^^xsd:string ;
	bd:rule ""^^xsd:string ;
	bd:ordinal "23"^^xsd:positiveInteger ;
	bd:name "ARM"^^xsd:string ;
	bd:description "Name of the Arm to which the subject was assigned. If the subject was not assigned to an Arm, ARM is null and ARMNRS is populated. With the exception of studies which use multi-stage Arm assignments, must be a value of ARM in the Trial Arms Dataset."^^xsd:string ;
	bd:format ""^^xsd:string ;
	bd:ctAndFormat ""^^xsd:string ;
	bd:compliance <http://www.assero.co.uk/CSN#fc544083-2437-4ec0-97f4-767598bee682> ;
.
<http://www.cdisc.org/DM/V1#IG_DVACTARMCD>
	rdf:type bd:SdtmDomainVariable ;
	isoC:label "Actual Arm Code"^^xsd:string ;
	bd:rule ""^^xsd:string ;
	bd:ordinal "24"^^xsd:positiveInteger ;
	bd:name "ACTARMCD"^^xsd:string ;
	bd:description "Code of actual Arm. ACTARMCD is limited to 20 characters. It is not subject to the character restrictions that apply to TESTCD. The maximum length of ACTARMCD is longer than for other short variables to accommodate the kind of values that are likely to be needed for crossover trials. With the exception of studies which use multi-stage Arm assignments, must be a value of ARMCD in the Trial Arms Dataset. If the subject was not assigned to an Arm or followed a course not described by any planned Arm, ACTARMCD is null and ARMNRS is populated."^^xsd:string ;
	bd:format ""^^xsd:string ;
	bd:ctAndFormat ""^^xsd:string ;
	bd:compliance <http://www.assero.co.uk/CSN#fc544083-2437-4ec0-97f4-767598bee682> ;
.
<http://www.cdisc.org/DM/V1#IG_DVACTARM>
	rdf:type bd:SdtmDomainVariable ;
	isoC:label "Description of Actual Arm"^^xsd:string ;
	bd:rule ""^^xsd:string ;
	bd:ordinal "25"^^xsd:positiveInteger ;
	bd:name "ACTARM"^^xsd:string ;
	bd:description "Description of actual Arm. With the exception of studies which use multi-stage Arm assignments, must be a value of ARM in the Trial Arms Dataset. If the subject was not assigned to an Arm or followed a course not described by any planned Arm, ACTARM is null and ARMNRS is populated."^^xsd:string ;
	bd:format ""^^xsd:string ;
	bd:ctAndFormat ""^^xsd:string ;
	bd:compliance <http://www.assero.co.uk/CSN#fc544083-2437-4ec0-97f4-767598bee682> ;
.
<http://www.cdisc.org/DM/V1#IG_DVARMNRS>
	rdf:type bd:SdtmDomainVariable ;
	isoC:label "Reason Arm and/or Actual Arm is Null"^^xsd:string ;
	bd:rule ""^^xsd:string ;
	bd:ordinal "26"^^xsd:positiveInteger ;
	bd:name "ARMNRS"^^xsd:string ;
	bd:description "A coded reason that Arm variables (ARM and ARMCD) and/or actual Arm variables (ACTARM and ACTARMCD) are null. Examples: \"SCREEN FAILURE\", \"NOT ASSIGNED\", \"ASSIGNED, NOT TREATED\", \"UNPLANNED TREATMENT\". It is assumed that if the Arm and actual Arm variables are null, the same reason applies to both Arm and actual Arm."^^xsd:string ;
	bd:format ""^^xsd:string ;
	bd:ctAndFormat ""^^xsd:string ;
	bd:compliance <http://www.assero.co.uk/CSN#fc544083-2437-4ec0-97f4-767598bee682> ;
.
<http://www.cdisc.org/DM/V1#IG_DVACTARMUD>
	rdf:type bd:SdtmDomainVariable ;
	isoC:label "Description of Unplanned Actual Arm"^^xsd:string ;
	bd:rule ""^^xsd:string ;
	bd:ordinal "27"^^xsd:positiveInteger ;
	bd:name "ACTARMUD"^^xsd:string ;
	bd:description "A description of actual treatment for a subject who did not receive treatment described in one of the planned trial Arms."^^xsd:string ;
	bd:format ""^^xsd:string ;
	bd:ctAndFormat ""^^xsd:string ;
	bd:compliance <http://www.assero.co.uk/CSN#fc544083-2437-4ec0-97f4-767598bee682> ;
.
<http://www.cdisc.org/DM/V1#IG_DVCOUNTRY>
	rdf:type bd:SdtmDomainVariable ;
	isoC:label "Country"^^xsd:string ;
	bd:rule ""^^xsd:string ;
	bd:ordinal "28"^^xsd:positiveInteger ;
	bd:name "COUNTRY"^^xsd:string ;
	bd:description "Country of the investigational site in which the subject participated in the trial."^^xsd:string ;
	bd:format ""^^xsd:string ;
	bd:ctAndFormat "ISO 3166-1 Alpha-3"^^xsd:string ;
	bd:compliance <http://www.assero.co.uk/CSN#8f112ba7-caa3-4f34-a9fc-8bc808b13955> ;
.
<http://www.cdisc.org/DM/V1#IG_DVDMDTC>
	rdf:type bd:SdtmDomainVariable ;
	isoC:label "Date/Time of Collection"^^xsd:string ;
	bd:rule ""^^xsd:string ;
	bd:ordinal "29"^^xsd:positiveInteger ;
	bd:name "DMDTC"^^xsd:string ;
	bd:description "Date/time of demographic data collection."^^xsd:string ;
	bd:format ""^^xsd:string ;
	bd:ctAndFormat "ISO 8601"^^xsd:string ;
	bd:compliance <http://www.assero.co.uk/CSN#da9f1092-7a20-4c97-9144-8bac2e72d1ea> ;
.
<http://www.cdisc.org/DM/V1#IG_DVDMDY>
	rdf:type bd:SdtmDomainVariable ;
	isoC:label "Study Day of Collection"^^xsd:string ;
	bd:rule ""^^xsd:string ;
	bd:ordinal "30"^^xsd:positiveInteger ;
	bd:name "DMDY"^^xsd:string ;
	bd:description "Study day of collection measured as integer days."^^xsd:string ;
	bd:format ""^^xsd:string ;
	bd:ctAndFormat ""^^xsd:string ;
	bd:compliance <http://www.assero.co.uk/CSN#da9f1092-7a20-4c97-9144-8bac2e72d1ea> ;
.
<http://www.cdisc.org/SE/V1#IG>
	rdf:type bd:SdtmDomain ;
	isoC:label "Subject Elements"^^xsd:string ;
	isoT:hasState <http://www.cdisc.org/SE/V1#IG_RS> ;
	isoT:hasIdentifier <http://www.cdisc.org/SE/V1#IG_SI> ;
	isoT:origin ""^^xsd:string ;
	isoT:changeDescription ""^^xsd:string ;
	isoT:creationDate "2020-01-01T00:00:00+00:00"^^xsd:dateTime ;
	isoT:lastChangeDate "2020-01-01T00:00:00+00:00"^^xsd:dateTime ;
	isoT:explanatoryComment ""^^xsd:string ;
	bd:rule ""^^xsd:string ;
	bd:ordinal "1"^^xsd:positiveInteger ;
	bd:includesColumn <http://www.cdisc.org/SE/V1#IG_DVSTUDYID> ;
	bd:includesColumn <http://www.cdisc.org/SE/V1#IG_DVDOMAIN> ;
	bd:includesColumn <http://www.cdisc.org/SE/V1#IG_DVUSUBJID> ;
	bd:includesColumn <http://www.cdisc.org/SE/V1#IG_DVSESEQ> ;
	bd:includesColumn <http://www.cdisc.org/SE/V1#IG_DVETCD> ;
	bd:includesColumn <http://www.cdisc.org/SE/V1#IG_DVELEMENT> ;
	bd:includesColumn <http://www.cdisc.org/SE/V1#IG_DVTAETORD> ;
	bd:includesColumn <http://www.cdisc.org/SE/V1#IG_DVEPOCH> ;
	bd:includesColumn <http://www.cdisc.org/SE/V1#IG_DVSESTDTC> ;
	bd:includesColumn <http://www.cdisc.org/SE/V1#IG_DVSEENDTC> ;
	bd:includesColumn <http://www.cdisc.org/SE/V1#IG_DVSEUPDES> ;
	bd:prefix ""^^xsd:string ;
	bd:structure ""^^xsd:string ;
.
<http://www.cdisc.org/SE/V1#IG_RS>
	rdf:type isoR:RegistrationState ;
	isoR:registrationStatus "Standard"^^xsd:string ;
	isoR:administrativeNote ""^^xsd:string ;
	isoR:effectiveDate "2016-01-01T00:00:00+00:00"^^xsd:dateTime ;
	isoR:untilDate "2016-01-01T00:00:00+00:00"^^xsd:dateTime ;
	isoR:unresolvedIssue ""^^xsd:string ;
	isoR:administrativeStatus ""^^xsd:string ;
	isoR:previousState "Standard"^^xsd:string ;
	isoR:multipleEdit "false"^^xsd:boolean ;
	isoR:byAuthority <http://www.assero.co.uk/RA#DUNS084433759> ;
.
<http://www.cdisc.org/SE/V1#IG_SI>
	rdf:type isoI:ScopedIdentifier ;
	isoI:identifier "SE"^^xsd:string ;
	isoI:versionLabel "1.1.1"^^xsd:string ;
	isoI:version "1"^^xsd:positiveInteger ;
	isoI:semanticVersion "1.1.1"^^xsd:string ;
	isoI:hasScope <http://www.assero.co.uk/NS#CDISC> ;
.
<http://www.cdisc.org/SE/V1#IG_DVSTUDYID>
	rdf:type bd:SdtmDomainVariable ;
	isoC:label "Study Identifier"^^xsd:string ;
	bd:rule ""^^xsd:string ;
	bd:ordinal "1"^^xsd:positiveInteger ;
	bd:name "STUDYID"^^xsd:string ;
	bd:description "Unique identifier for a study."^^xsd:string ;
	bd:format ""^^xsd:string ;
	bd:ctAndFormat ""^^xsd:string ;
	bd:compliance <http://www.assero.co.uk/CSN#8f112ba7-caa3-4f34-a9fc-8bc808b13955> ;
.
<http://www.cdisc.org/SE/V1#IG_DVDOMAIN>
	rdf:type bd:SdtmDomainVariable ;
	isoC:label "Domain Abbreviation"^^xsd:string ;
	bd:rule ""^^xsd:string ;
	bd:ordinal "2"^^xsd:positiveInteger ;
	bd:name "DOMAIN"^^xsd:string ;
	bd:description "Two-character abbreviation for the domain."^^xsd:string ;
	bd:format ""^^xsd:string ;
	bd:ctAndFormat "SE"^^xsd:string ;
	bd:compliance <http://www.assero.co.uk/CSN#8f112ba7-caa3-4f34-a9fc-8bc808b13955> ;
.
<http://www.cdisc.org/SE/V1#IG_DVUSUBJID>
	rdf:type bd:SdtmDomainVariable ;
	isoC:label "Unique Subject Identifier"^^xsd:string ;
	bd:rule ""^^xsd:string ;
	bd:ordinal "3"^^xsd:positiveInteger ;
	bd:name "USUBJID"^^xsd:string ;
	bd:description "Identifier used to uniquely identify a subject across all studies for all applications or submissions involving the product."^^xsd:string ;
	bd:format ""^^xsd:string ;
	bd:ctAndFormat ""^^xsd:string ;
	bd:compliance <http://www.assero.co.uk/CSN#8f112ba7-caa3-4f34-a9fc-8bc808b13955> ;
.
<http://www.cdisc.org/SE/V1#IG_DVSESEQ>
	rdf:type bd:SdtmDomainVariable ;
	isoC:label "Sequence Number"^^xsd:string ;
	bd:rule ""^^xsd:string ;
	bd:ordinal "4"^^xsd:positiveInteger ;
	bd:name "SESEQ"^^xsd:string ;
	bd:description "Sequence number given to ensure uniqueness of subject records within a domain. Should be assigned to be consistent chronological order."^^xsd:string ;
	bd:format ""^^xsd:string ;
	bd:ctAndFormat ""^^xsd:string ;
	bd:compliance <http://www.assero.co.uk/CSN#8f112ba7-caa3-4f34-a9fc-8bc808b13955> ;
.
<http://www.cdisc.org/SE/V1#IG_DVETCD>
	rdf:type bd:SdtmDomainVariable ;
	isoC:label "Element Code"^^xsd:string ;
	bd:rule ""^^xsd:string ;
	bd:ordinal "5"^^xsd:positiveInteger ;
	bd:name "ETCD"^^xsd:string ;
	bd:description "1. ETCD (the companion to ELEMENT) is limited to 8 characters and does not have special character restrictions. These values should be short for ease of use in programming, but it is not expected that ETCD will need to serve as a variable name. 2. If an encountered Element differs from the planned Element to the point that it is considered a new Element, then use \"UNPLAN\" as the value for ETCD to represent this Element."^^xsd:string ;
	bd:format ""^^xsd:string ;
	bd:ctAndFormat ""^^xsd:string ;
	bd:compliance <http://www.assero.co.uk/CSN#8f112ba7-caa3-4f34-a9fc-8bc808b13955> ;
.
<http://www.cdisc.org/SE/V1#IG_DVELEMENT>
	rdf:type bd:SdtmDomainVariable ;
	isoC:label "Description of Element"^^xsd:string ;
	bd:rule ""^^xsd:string ;
	bd:ordinal "6"^^xsd:positiveInteger ;
	bd:name "ELEMENT"^^xsd:string ;
	bd:description "The name of the Element. If ETCD has a value of \"UNPLAN\" then ELEMENT should be null."^^xsd:string ;
	bd:format ""^^xsd:string ;
	bd:ctAndFormat ""^^xsd:string ;
	bd:compliance <http://www.assero.co.uk/CSN#da9f1092-7a20-4c97-9144-8bac2e72d1ea> ;
.
<http://www.cdisc.org/SE/V1#IG_DVTAETORD>
	rdf:type bd:SdtmDomainVariable ;
	isoC:label "Planned Order of Element within Arm"^^xsd:string ;
	bd:rule ""^^xsd:string ;
	bd:ordinal "7"^^xsd:positiveInteger ;
	bd:name "TAETORD"^^xsd:string ;
	bd:description "Number that gives the planned order of the Element within the subject's assigned Arm."^^xsd:string ;
	bd:format ""^^xsd:string ;
	bd:ctAndFormat ""^^xsd:string ;
	bd:compliance <http://www.assero.co.uk/CSN#da9f1092-7a20-4c97-9144-8bac2e72d1ea> ;
.
<http://www.cdisc.org/SE/V1#IG_DVEPOCH>
	rdf:type bd:SdtmDomainVariable ;
	isoC:label "Epoch"^^xsd:string ;
	bd:rule ""^^xsd:string ;
	bd:ordinal "8"^^xsd:positiveInteger ;
	bd:name "EPOCH"^^xsd:string ;
	bd:description "Epoch associated with the Element in the planned sequence of Elements for the Arm to which the subject was assigned."^^xsd:string ;
	bd:format ""^^xsd:string ;
	bd:ctAndFormat "(EPOCH)"^^xsd:string ;
	bd:compliance <http://www.assero.co.uk/CSN#da9f1092-7a20-4c97-9144-8bac2e72d1ea> ;
.
<http://www.cdisc.org/SE/V1#IG_DVSESTDTC>
	rdf:type bd:SdtmDomainVariable ;
	isoC:label "Start Date/Time of Element"^^xsd:string ;
	bd:rule ""^^xsd:string ;
	bd:ordinal "9"^^xsd:positiveInteger ;
	bd:name "SESTDTC"^^xsd:string ;
	bd:description "Start date/time for an Element for each subject."^^xsd:string ;
	bd:format ""^^xsd:string ;
	bd:ctAndFormat "ISO 8601"^^xsd:string ;
	bd:compliance <http://www.assero.co.uk/CSN#8f112ba7-caa3-4f34-a9fc-8bc808b13955> ;
.
<http://www.cdisc.org/SE/V1#IG_DVSEENDTC>
	rdf:type bd:SdtmDomainVariable ;
	isoC:label "End Date/Time of Element"^^xsd:string ;
	bd:rule ""^^xsd:string ;
	bd:ordinal "10"^^xsd:positiveInteger ;
	bd:name "SEENDTC"^^xsd:string ;
	bd:description "End date/time for an Element for each subject."^^xsd:string ;
	bd:format ""^^xsd:string ;
	bd:ctAndFormat "ISO 8601"^^xsd:string ;
	bd:compliance <http://www.assero.co.uk/CSN#fc544083-2437-4ec0-97f4-767598bee682> ;
.
<http://www.cdisc.org/SE/V1#IG_DVSEUPDES>
	rdf:type bd:SdtmDomainVariable ;
	isoC:label "Description of Unplanned Element"^^xsd:string ;
	bd:rule ""^^xsd:string ;
	bd:ordinal "11"^^xsd:positiveInteger ;
	bd:name "SEUPDES"^^xsd:string ;
	bd:description "Description of what happened to the subject during an unplanned Element. Used only if ETCD has the value of \"UNPLAN\"."^^xsd:string ;
	bd:format ""^^xsd:string ;
	bd:ctAndFormat ""^^xsd:string ;
	bd:compliance <http://www.assero.co.uk/CSN#da9f1092-7a20-4c97-9144-8bac2e72d1ea> ;
.
<http://www.cdisc.org/SM/V1#IG>
	rdf:type bd:SdtmDomain ;
	isoC:label "Subject Disease Milestones"^^xsd:string ;
	isoT:hasState <http://www.cdisc.org/SM/V1#IG_RS> ;
	isoT:hasIdentifier <http://www.cdisc.org/SM/V1#IG_SI> ;
	isoT:origin ""^^xsd:string ;
	isoT:changeDescription ""^^xsd:string ;
	isoT:creationDate "2020-01-01T00:00:00+00:00"^^xsd:dateTime ;
	isoT:lastChangeDate "2020-01-01T00:00:00+00:00"^^xsd:dateTime ;
	isoT:explanatoryComment ""^^xsd:string ;
	bd:rule ""^^xsd:string ;
	bd:ordinal "1"^^xsd:positiveInteger ;
	bd:includesColumn <http://www.cdisc.org/SM/V1#IG_DVSTUDYID> ;
	bd:includesColumn <http://www.cdisc.org/SM/V1#IG_DVDOMAIN> ;
	bd:includesColumn <http://www.cdisc.org/SM/V1#IG_DVUSUBJID> ;
	bd:includesColumn <http://www.cdisc.org/SM/V1#IG_DVSMSEQ> ;
	bd:includesColumn <http://www.cdisc.org/SM/V1#IG_DVMIDS> ;
	bd:includesColumn <http://www.cdisc.org/SM/V1#IG_DVMIDSTYPE> ;
	bd:includesColumn <http://www.cdisc.org/SM/V1#IG_DVSMSTDTC> ;
	bd:includesColumn <http://www.cdisc.org/SM/V1#IG_DVSMENDTC> ;
	bd:includesColumn <http://www.cdisc.org/SM/V1#IG_DVSMSTDY> ;
	bd:includesColumn <http://www.cdisc.org/SM/V1#IG_DVSMENDY> ;
	bd:prefix ""^^xsd:string ;
	bd:structure ""^^xsd:string ;
.
<http://www.cdisc.org/SM/V1#IG_RS>
	rdf:type isoR:RegistrationState ;
	isoR:registrationStatus "Standard"^^xsd:string ;
	isoR:administrativeNote ""^^xsd:string ;
	isoR:effectiveDate "2016-01-01T00:00:00+00:00"^^xsd:dateTime ;
	isoR:untilDate "2016-01-01T00:00:00+00:00"^^xsd:dateTime ;
	isoR:unresolvedIssue ""^^xsd:string ;
	isoR:administrativeStatus ""^^xsd:string ;
	isoR:previousState "Standard"^^xsd:string ;
	isoR:multipleEdit "false"^^xsd:boolean ;
	isoR:byAuthority <http://www.assero.co.uk/RA#DUNS084433759> ;
.
<http://www.cdisc.org/SM/V1#IG_SI>
	rdf:type isoI:ScopedIdentifier ;
	isoI:identifier "SM"^^xsd:string ;
	isoI:versionLabel "1.1.1"^^xsd:string ;
	isoI:version "1"^^xsd:positiveInteger ;
	isoI:semanticVersion "1.1.1"^^xsd:string ;
	isoI:hasScope <http://www.assero.co.uk/NS#CDISC> ;
.
<http://www.cdisc.org/SM/V1#IG_DVSTUDYID>
	rdf:type bd:SdtmDomainVariable ;
	isoC:label "Study Identifier"^^xsd:string ;
	bd:rule ""^^xsd:string ;
	bd:ordinal "1"^^xsd:positiveInteger ;
	bd:name "STUDYID"^^xsd:string ;
	bd:description "Unique identifier for a study."^^xsd:string ;
	bd:format ""^^xsd:string ;
	bd:ctAndFormat ""^^xsd:string ;
	bd:compliance <http://www.assero.co.uk/CSN#8f112ba7-caa3-4f34-a9fc-8bc808b13955> ;
.
<http://www.cdisc.org/SM/V1#IG_DVDOMAIN>
	rdf:type bd:SdtmDomainVariable ;
	isoC:label "Domain"^^xsd:string ;
	bd:rule ""^^xsd:string ;
	bd:ordinal "2"^^xsd:positiveInteger ;
	bd:name "DOMAIN"^^xsd:string ;
	bd:description "Two-character abbreviation for the domain."^^xsd:string ;
	bd:format ""^^xsd:string ;
	bd:ctAndFormat "SM"^^xsd:string ;
	bd:compliance <http://www.assero.co.uk/CSN#8f112ba7-caa3-4f34-a9fc-8bc808b13955> ;
.
<http://www.cdisc.org/SM/V1#IG_DVUSUBJID>
	rdf:type bd:SdtmDomainVariable ;
	isoC:label "Unique Subject Identifier"^^xsd:string ;
	bd:rule ""^^xsd:string ;
	bd:ordinal "3"^^xsd:positiveInteger ;
	bd:name "USUBJID"^^xsd:string ;
	bd:description "Identifier used to uniquely identify a subject across all studies."^^xsd:string ;
	bd:format ""^^xsd:string ;
	bd:ctAndFormat ""^^xsd:string ;
	bd:compliance <http://www.assero.co.uk/CSN#8f112ba7-caa3-4f34-a9fc-8bc808b13955> ;
.
<http://www.cdisc.org/SM/V1#IG_DVSMSEQ>
	rdf:type bd:SdtmDomainVariable ;
	isoC:label "Sequence Number"^^xsd:string ;
	bd:rule ""^^xsd:string ;
	bd:ordinal "4"^^xsd:positiveInteger ;
	bd:name "SMSEQ"^^xsd:string ;
	bd:description "Sequence number to ensure uniqueness of subject records. Should be assigned to be consistent chronological order."^^xsd:string ;
	bd:format ""^^xsd:string ;
	bd:ctAndFormat ""^^xsd:string ;
	bd:compliance <http://www.assero.co.uk/CSN#8f112ba7-caa3-4f34-a9fc-8bc808b13955> ;
.
<http://www.cdisc.org/SM/V1#IG_DVMIDS>
	rdf:type bd:SdtmDomainVariable ;
	isoC:label "Disease Milestone Instance Name"^^xsd:string ;
	bd:rule ""^^xsd:string ;
	bd:ordinal "5"^^xsd:positiveInteger ;
	bd:name "MIDS"^^xsd:string ;
	bd:description "Name of the specific Disease Milestone. For types of Disease Milestone that can occur multiple times, the name will end with a sequence number. Example: \"HYPO1\"."^^xsd:string ;
	bd:format ""^^xsd:string ;
	bd:ctAndFormat ""^^xsd:string ;
	bd:compliance <http://www.assero.co.uk/CSN#8f112ba7-caa3-4f34-a9fc-8bc808b13955> ;
.
<http://www.cdisc.org/SM/V1#IG_DVMIDSTYPE>
	rdf:type bd:SdtmDomainVariable ;
	isoC:label "Disease Milestone Type"^^xsd:string ;
	bd:rule ""^^xsd:string ;
	bd:ordinal "6"^^xsd:positiveInteger ;
	bd:name "MIDSTYPE"^^xsd:string ;
	bd:description "The type of Disease Milestone. Example: \"HYPOGLYCEMIC EVENT\"."^^xsd:string ;
	bd:format ""^^xsd:string ;
	bd:ctAndFormat ""^^xsd:string ;
	bd:compliance <http://www.assero.co.uk/CSN#8f112ba7-caa3-4f34-a9fc-8bc808b13955> ;
.
<http://www.cdisc.org/SM/V1#IG_DVSMSTDTC>
	rdf:type bd:SdtmDomainVariable ;
	isoC:label "Start Date/Time of Milestone"^^xsd:string ;
	bd:rule ""^^xsd:string ;
	bd:ordinal "7"^^xsd:positiveInteger ;
	bd:name "SMSTDTC"^^xsd:string ;
	bd:description "State date/time of Milestone Instance, if Milestone is an intervention or event, or date of Milestone if Milestone is a finding."^^xsd:string ;
	bd:format ""^^xsd:string ;
	bd:ctAndFormat "ISO 8601"^^xsd:string ;
	bd:compliance <http://www.assero.co.uk/CSN#fc544083-2437-4ec0-97f4-767598bee682> ;
.
<http://www.cdisc.org/SM/V1#IG_DVSMENDTC>
	rdf:type bd:SdtmDomainVariable ;
	isoC:label "End Date/Time of Milestone"^^xsd:string ;
	bd:rule ""^^xsd:string ;
	bd:ordinal "8"^^xsd:positiveInteger ;
	bd:name "SMENDTC"^^xsd:string ;
	bd:description "End date/time of Disease Milestone Instance."^^xsd:string ;
	bd:format ""^^xsd:string ;
	bd:ctAndFormat "ISO 8601"^^xsd:string ;
	bd:compliance <http://www.assero.co.uk/CSN#fc544083-2437-4ec0-97f4-767598bee682> ;
.
<http://www.cdisc.org/SM/V1#IG_DVSMSTDY>
	rdf:type bd:SdtmDomainVariable ;
	isoC:label "Study Day of Start of Milestone"^^xsd:string ;
	bd:rule ""^^xsd:string ;
	bd:ordinal "9"^^xsd:positiveInteger ;
	bd:name "SMSTDY"^^xsd:string ;
	bd:description "Study day of start of Disease Milestone Instance, relative to the sponsor-defined RFSTDTC."^^xsd:string ;
	bd:format ""^^xsd:string ;
	bd:ctAndFormat ""^^xsd:string ;
	bd:compliance <http://www.assero.co.uk/CSN#fc544083-2437-4ec0-97f4-767598bee682> ;
.
<http://www.cdisc.org/SM/V1#IG_DVSMENDY>
	rdf:type bd:SdtmDomainVariable ;
	isoC:label "Study Day of End of Milestone"^^xsd:string ;
	bd:rule ""^^xsd:string ;
	bd:ordinal "10"^^xsd:positiveInteger ;
	bd:name "SMENDY"^^xsd:string ;
	bd:description "Study day of end of Disease Milestone Instance, relative to the sponsor-defined RFSTDTC."^^xsd:string ;
	bd:format ""^^xsd:string ;
	bd:ctAndFormat ""^^xsd:string ;
	bd:compliance <http://www.assero.co.uk/CSN#fc544083-2437-4ec0-97f4-767598bee682> ;
.
<http://www.cdisc.org/SV/V1#IG>
	rdf:type bd:SdtmDomain ;
	isoC:label "Subject Visits"^^xsd:string ;
	isoT:hasState <http://www.cdisc.org/SV/V1#IG_RS> ;
	isoT:hasIdentifier <http://www.cdisc.org/SV/V1#IG_SI> ;
	isoT:origin ""^^xsd:string ;
	isoT:changeDescription ""^^xsd:string ;
	isoT:creationDate "2020-01-01T00:00:00+00:00"^^xsd:dateTime ;
	isoT:lastChangeDate "2020-01-01T00:00:00+00:00"^^xsd:dateTime ;
	isoT:explanatoryComment ""^^xsd:string ;
	bd:rule ""^^xsd:string ;
	bd:ordinal "1"^^xsd:positiveInteger ;
	bd:includesColumn <http://www.cdisc.org/SV/V1#IG_DVSTUDYID> ;
	bd:includesColumn <http://www.cdisc.org/SV/V1#IG_DVDOMAIN> ;
	bd:includesColumn <http://www.cdisc.org/SV/V1#IG_DVUSUBJID> ;
	bd:includesColumn <http://www.cdisc.org/SV/V1#IG_DVVISITNUM> ;
	bd:includesColumn <http://www.cdisc.org/SV/V1#IG_DVVISIT> ;
	bd:includesColumn <http://www.cdisc.org/SV/V1#IG_DVVISITDY> ;
	bd:includesColumn <http://www.cdisc.org/SV/V1#IG_DVSVSTDTC> ;
	bd:includesColumn <http://www.cdisc.org/SV/V1#IG_DVSVENDTC> ;
	bd:includesColumn <http://www.cdisc.org/SV/V1#IG_DVSVSTDY> ;
	bd:includesColumn <http://www.cdisc.org/SV/V1#IG_DVSVENDY> ;
	bd:includesColumn <http://www.cdisc.org/SV/V1#IG_DVSVUPDES> ;
	bd:prefix ""^^xsd:string ;
	bd:structure ""^^xsd:string ;
.
<http://www.cdisc.org/SV/V1#IG_RS>
	rdf:type isoR:RegistrationState ;
	isoR:registrationStatus "Standard"^^xsd:string ;
	isoR:administrativeNote ""^^xsd:string ;
	isoR:effectiveDate "2016-01-01T00:00:00+00:00"^^xsd:dateTime ;
	isoR:untilDate "2016-01-01T00:00:00+00:00"^^xsd:dateTime ;
	isoR:unresolvedIssue ""^^xsd:string ;
	isoR:administrativeStatus ""^^xsd:string ;
	isoR:previousState "Standard"^^xsd:string ;
	isoR:multipleEdit "false"^^xsd:boolean ;
	isoR:byAuthority <http://www.assero.co.uk/RA#DUNS084433759> ;
.
<http://www.cdisc.org/SV/V1#IG_SI>
	rdf:type isoI:ScopedIdentifier ;
	isoI:identifier "SV"^^xsd:string ;
	isoI:versionLabel "1.1.1"^^xsd:string ;
	isoI:version "1"^^xsd:positiveInteger ;
	isoI:semanticVersion "1.1.1"^^xsd:string ;
	isoI:hasScope <http://www.assero.co.uk/NS#CDISC> ;
.
<http://www.cdisc.org/SV/V1#IG_DVSTUDYID>
	rdf:type bd:SdtmDomainVariable ;
	isoC:label "Study Identifier"^^xsd:string ;
	bd:rule ""^^xsd:string ;
	bd:ordinal "1"^^xsd:positiveInteger ;
	bd:name "STUDYID"^^xsd:string ;
	bd:description "Unique identifier for a study."^^xsd:string ;
	bd:format ""^^xsd:string ;
	bd:ctAndFormat ""^^xsd:string ;
	bd:compliance <http://www.assero.co.uk/CSN#8f112ba7-caa3-4f34-a9fc-8bc808b13955> ;
.
<http://www.cdisc.org/SV/V1#IG_DVDOMAIN>
	rdf:type bd:SdtmDomainVariable ;
	isoC:label "Domain Abbreviation"^^xsd:string ;
	bd:rule ""^^xsd:string ;
	bd:ordinal "2"^^xsd:positiveInteger ;
	bd:name "DOMAIN"^^xsd:string ;
	bd:description "Two-character abbreviation for the domain."^^xsd:string ;
	bd:format ""^^xsd:string ;
	bd:ctAndFormat "SV"^^xsd:string ;
	bd:compliance <http://www.assero.co.uk/CSN#8f112ba7-caa3-4f34-a9fc-8bc808b13955> ;
.
<http://www.cdisc.org/SV/V1#IG_DVUSUBJID>
	rdf:type bd:SdtmDomainVariable ;
	isoC:label "Unique Subject Identifier"^^xsd:string ;
	bd:rule ""^^xsd:string ;
	bd:ordinal "3"^^xsd:positiveInteger ;
	bd:name "USUBJID"^^xsd:string ;
	bd:description "Identifier used to uniquely identify a subject across all studies for all applications or submissions involving the product."^^xsd:string ;
	bd:format ""^^xsd:string ;
	bd:ctAndFormat ""^^xsd:string ;
	bd:compliance <http://www.assero.co.uk/CSN#8f112ba7-caa3-4f34-a9fc-8bc808b13955> ;
.
<http://www.cdisc.org/SV/V1#IG_DVVISITNUM>
	rdf:type bd:SdtmDomainVariable ;
	isoC:label "Visit Number"^^xsd:string ;
	bd:rule ""^^xsd:string ;
	bd:ordinal "4"^^xsd:positiveInteger ;
	bd:name "VISITNUM"^^xsd:string ;
	bd:description "1. Clinical encounter number. (Decimal numbering may be useful for inserting unplanned visits.) 2. Numeric version of VISIT, used for sorting."^^xsd:string ;
	bd:format ""^^xsd:string ;
	bd:ctAndFormat ""^^xsd:string ;
	bd:compliance <http://www.assero.co.uk/CSN#8f112ba7-caa3-4f34-a9fc-8bc808b13955> ;
.
<http://www.cdisc.org/SV/V1#IG_DVVISIT>
	rdf:type bd:SdtmDomainVariable ;
	isoC:label "Visit Name"^^xsd:string ;
	bd:rule ""^^xsd:string ;
	bd:ordinal "5"^^xsd:positiveInteger ;
	bd:name "VISIT"^^xsd:string ;
	bd:description "1. Protocol-defined description of clinical encounter. 2. May be used in addition to VISITNUM and/or VISITDY as a text description of the clinical encounter."^^xsd:string ;
	bd:format ""^^xsd:string ;
	bd:ctAndFormat ""^^xsd:string ;
	bd:compliance <http://www.assero.co.uk/CSN#da9f1092-7a20-4c97-9144-8bac2e72d1ea> ;
.
<http://www.cdisc.org/SV/V1#IG_DVVISITDY>
	rdf:type bd:SdtmDomainVariable ;
	isoC:label "Planned Study Day of Visit"^^xsd:string ;
	bd:rule ""^^xsd:string ;
	bd:ordinal "6"^^xsd:positiveInteger ;
	bd:name "VISITDY"^^xsd:string ;
	bd:description "Planned study day of the start of the visit based upon RFSTDTC in Demographics."^^xsd:string ;
	bd:format ""^^xsd:string ;
	bd:ctAndFormat ""^^xsd:string ;
	bd:compliance <http://www.assero.co.uk/CSN#da9f1092-7a20-4c97-9144-8bac2e72d1ea> ;
.
<http://www.cdisc.org/SV/V1#IG_DVSVSTDTC>
	rdf:type bd:SdtmDomainVariable ;
	isoC:label "Start Date/Time of Visit"^^xsd:string ;
	bd:rule ""^^xsd:string ;
	bd:ordinal "7"^^xsd:positiveInteger ;
	bd:name "SVSTDTC"^^xsd:string ;
	bd:description "Start date/time for a Visit."^^xsd:string ;
	bd:format ""^^xsd:string ;
	bd:ctAndFormat "ISO 8601"^^xsd:string ;
	bd:compliance <http://www.assero.co.uk/CSN#fc544083-2437-4ec0-97f4-767598bee682> ;
.
<http://www.cdisc.org/SV/V1#IG_DVSVENDTC>
	rdf:type bd:SdtmDomainVariable ;
	isoC:label "End Date/Time of Visit"^^xsd:string ;
	bd:rule ""^^xsd:string ;
	bd:ordinal "8"^^xsd:positiveInteger ;
	bd:name "SVENDTC"^^xsd:string ;
	bd:description "End date/time of a Visit."^^xsd:string ;
	bd:format ""^^xsd:string ;
	bd:ctAndFormat "ISO 8601"^^xsd:string ;
	bd:compliance <http://www.assero.co.uk/CSN#fc544083-2437-4ec0-97f4-767598bee682> ;
.
<http://www.cdisc.org/SV/V1#IG_DVSVSTDY>
	rdf:type bd:SdtmDomainVariable ;
	isoC:label "Study Day of Start of Visit"^^xsd:string ;
	bd:rule ""^^xsd:string ;
	bd:ordinal "9"^^xsd:positiveInteger ;
	bd:name "SVSTDY"^^xsd:string ;
	bd:description "Study day of start of visit relative to the sponsor-defined RFSTDTC."^^xsd:string ;
	bd:format ""^^xsd:string ;
	bd:ctAndFormat ""^^xsd:string ;
	bd:compliance <http://www.assero.co.uk/CSN#da9f1092-7a20-4c97-9144-8bac2e72d1ea> ;
.
<http://www.cdisc.org/SV/V1#IG_DVSVENDY>
	rdf:type bd:SdtmDomainVariable ;
	isoC:label "Study Day of End of Visit"^^xsd:string ;
	bd:rule ""^^xsd:string ;
	bd:ordinal "10"^^xsd:positiveInteger ;
	bd:name "SVENDY"^^xsd:string ;
	bd:description "Study day of end of visit relative to the sponsor-defined RFSTDTC."^^xsd:string ;
	bd:format ""^^xsd:string ;
	bd:ctAndFormat ""^^xsd:string ;
	bd:compliance <http://www.assero.co.uk/CSN#da9f1092-7a20-4c97-9144-8bac2e72d1ea> ;
.
<http://www.cdisc.org/SV/V1#IG_DVSVUPDES>
	rdf:type bd:SdtmDomainVariable ;
	isoC:label "Description of Unplanned Visit"^^xsd:string ;
	bd:rule ""^^xsd:string ;
	bd:ordinal "11"^^xsd:positiveInteger ;
	bd:name "SVUPDES"^^xsd:string ;
	bd:description "Description of what happened to the subject during an unplanned visit."^^xsd:string ;
	bd:format ""^^xsd:string ;
	bd:ctAndFormat ""^^xsd:string ;
	bd:compliance <http://www.assero.co.uk/CSN#da9f1092-7a20-4c97-9144-8bac2e72d1ea> ;
.
<http://www.cdisc.org/AG/V1#IG>
	rdf:type bd:SdtmDomain ;
	isoC:label "Procedure Agents"^^xsd:string ;
	isoT:hasState <http://www.cdisc.org/AG/V1#IG_RS> ;
	isoT:hasIdentifier <http://www.cdisc.org/AG/V1#IG_SI> ;
	isoT:origin ""^^xsd:string ;
	isoT:changeDescription ""^^xsd:string ;
	isoT:creationDate "2020-01-01T00:00:00+00:00"^^xsd:dateTime ;
	isoT:lastChangeDate "2020-01-01T00:00:00+00:00"^^xsd:dateTime ;
	isoT:explanatoryComment ""^^xsd:string ;
	bd:rule ""^^xsd:string ;
	bd:ordinal "1"^^xsd:positiveInteger ;
	bd:includesColumn <http://www.cdisc.org/AG/V1#IG_DVSTUDYID> ;
	bd:includesColumn <http://www.cdisc.org/AG/V1#IG_DVDOMAIN> ;
	bd:includesColumn <http://www.cdisc.org/AG/V1#IG_DVUSUBJID> ;
	bd:includesColumn <http://www.cdisc.org/AG/V1#IG_DVAGSEQ> ;
	bd:includesColumn <http://www.cdisc.org/AG/V1#IG_DVAGGRPID> ;
	bd:includesColumn <http://www.cdisc.org/AG/V1#IG_DVAGSPID> ;
	bd:includesColumn <http://www.cdisc.org/AG/V1#IG_DVAGLNKID> ;
	bd:includesColumn <http://www.cdisc.org/AG/V1#IG_DVAGLNKGRP> ;
	bd:includesColumn <http://www.cdisc.org/AG/V1#IG_DVAGTRT> ;
	bd:includesColumn <http://www.cdisc.org/AG/V1#IG_DVAGMODIFY> ;
	bd:includesColumn <http://www.cdisc.org/AG/V1#IG_DVAGDECOD> ;
	bd:includesColumn <http://www.cdisc.org/AG/V1#IG_DVAGCAT> ;
	bd:includesColumn <http://www.cdisc.org/AG/V1#IG_DVAGSCAT> ;
	bd:includesColumn <http://www.cdisc.org/AG/V1#IG_DVAGPRESP> ;
	bd:includesColumn <http://www.cdisc.org/AG/V1#IG_DVAGOCCUR> ;
	bd:includesColumn <http://www.cdisc.org/AG/V1#IG_DVAGSTAT> ;
	bd:includesColumn <http://www.cdisc.org/AG/V1#IG_DVAGREASND> ;
	bd:includesColumn <http://www.cdisc.org/AG/V1#IG_DVAGCLAS> ;
	bd:includesColumn <http://www.cdisc.org/AG/V1#IG_DVAGCLASCD> ;
	bd:includesColumn <http://www.cdisc.org/AG/V1#IG_DVAGDOSE> ;
	bd:includesColumn <http://www.cdisc.org/AG/V1#IG_DVAGDOSTXT> ;
	bd:includesColumn <http://www.cdisc.org/AG/V1#IG_DVAGDOSU> ;
	bd:includesColumn <http://www.cdisc.org/AG/V1#IG_DVAGDOSFRM> ;
	bd:includesColumn <http://www.cdisc.org/AG/V1#IG_DVAGDOSFRQ> ;
	bd:includesColumn <http://www.cdisc.org/AG/V1#IG_DVAGROUTE> ;
	bd:includesColumn <http://www.cdisc.org/AG/V1#IG_DVVISITNUM> ;
	bd:includesColumn <http://www.cdisc.org/AG/V1#IG_DVVISIT> ;
	bd:includesColumn <http://www.cdisc.org/AG/V1#IG_DVVISITDY> ;
	bd:includesColumn <http://www.cdisc.org/AG/V1#IG_DVTAETORD> ;
	bd:includesColumn <http://www.cdisc.org/AG/V1#IG_DVEPOCH> ;
	bd:includesColumn <http://www.cdisc.org/AG/V1#IG_DVAGSTDTC> ;
	bd:includesColumn <http://www.cdisc.org/AG/V1#IG_DVAGENDTC> ;
	bd:includesColumn <http://www.cdisc.org/AG/V1#IG_DVAGSTDY> ;
	bd:includesColumn <http://www.cdisc.org/AG/V1#IG_DVAGENDY> ;
	bd:includesColumn <http://www.cdisc.org/AG/V1#IG_DVAGDUR> ;
	bd:includesColumn <http://www.cdisc.org/AG/V1#IG_DVAGSTRF> ;
	bd:includesColumn <http://www.cdisc.org/AG/V1#IG_DVAGENRF> ;
	bd:includesColumn <http://www.cdisc.org/AG/V1#IG_DVAGSTRTPT> ;
	bd:includesColumn <http://www.cdisc.org/AG/V1#IG_DVAGSTTPT> ;
	bd:includesColumn <http://www.cdisc.org/AG/V1#IG_DVAGENRTPT> ;
	bd:includesColumn <http://www.cdisc.org/AG/V1#IG_DVAGENTPT> ;
	bd:prefix ""^^xsd:string ;
	bd:structure ""^^xsd:string ;
.
<http://www.cdisc.org/AG/V1#IG_RS>
	rdf:type isoR:RegistrationState ;
	isoR:registrationStatus "Standard"^^xsd:string ;
	isoR:administrativeNote ""^^xsd:string ;
	isoR:effectiveDate "2016-01-01T00:00:00+00:00"^^xsd:dateTime ;
	isoR:untilDate "2016-01-01T00:00:00+00:00"^^xsd:dateTime ;
	isoR:unresolvedIssue ""^^xsd:string ;
	isoR:administrativeStatus ""^^xsd:string ;
	isoR:previousState "Standard"^^xsd:string ;
	isoR:multipleEdit "false"^^xsd:boolean ;
	isoR:byAuthority <http://www.assero.co.uk/RA#DUNS084433759> ;
.
<http://www.cdisc.org/AG/V1#IG_SI>
	rdf:type isoI:ScopedIdentifier ;
	isoI:identifier "AG"^^xsd:string ;
	isoI:versionLabel "1.1.1"^^xsd:string ;
	isoI:version "1"^^xsd:positiveInteger ;
	isoI:semanticVersion "1.1.1"^^xsd:string ;
	isoI:hasScope <http://www.assero.co.uk/NS#CDISC> ;
.
<http://www.cdisc.org/AG/V1#IG_DVSTUDYID>
	rdf:type bd:SdtmDomainVariable ;
	isoC:label "Study Identifier"^^xsd:string ;
	bd:rule ""^^xsd:string ;
	bd:ordinal "1"^^xsd:positiveInteger ;
	bd:name "STUDYID"^^xsd:string ;
	bd:description "Unique identifier for a study."^^xsd:string ;
	bd:format ""^^xsd:string ;
	bd:ctAndFormat ""^^xsd:string ;
	bd:compliance <http://www.assero.co.uk/CSN#8f112ba7-caa3-4f34-a9fc-8bc808b13955> ;
.
<http://www.cdisc.org/AG/V1#IG_DVDOMAIN>
	rdf:type bd:SdtmDomainVariable ;
	isoC:label "Domain Abbreviation"^^xsd:string ;
	bd:rule ""^^xsd:string ;
	bd:ordinal "2"^^xsd:positiveInteger ;
	bd:name "DOMAIN"^^xsd:string ;
	bd:description "Two-character abbreviation for the domain."^^xsd:string ;
	bd:format ""^^xsd:string ;
	bd:ctAndFormat "AG"^^xsd:string ;
	bd:compliance <http://www.assero.co.uk/CSN#8f112ba7-caa3-4f34-a9fc-8bc808b13955> ;
.
<http://www.cdisc.org/AG/V1#IG_DVUSUBJID>
	rdf:type bd:SdtmDomainVariable ;
	isoC:label "Unique Subject Identifier"^^xsd:string ;
	bd:rule ""^^xsd:string ;
	bd:ordinal "3"^^xsd:positiveInteger ;
	bd:name "USUBJID"^^xsd:string ;
	bd:description "Identifier used to uniquely identify a subject across all studies for all applications or submissions involving the product."^^xsd:string ;
	bd:format ""^^xsd:string ;
	bd:ctAndFormat ""^^xsd:string ;
	bd:compliance <http://www.assero.co.uk/CSN#8f112ba7-caa3-4f34-a9fc-8bc808b13955> ;
.
<http://www.cdisc.org/AG/V1#IG_DVAGSEQ>
	rdf:type bd:SdtmDomainVariable ;
	isoC:label "Sequence Number"^^xsd:string ;
	bd:rule ""^^xsd:string ;
	bd:ordinal "4"^^xsd:positiveInteger ;
	bd:name "AGSEQ"^^xsd:string ;
	bd:description "Sequence Number given to ensure uniqueness of subject records within a domain. May be any valid number."^^xsd:string ;
	bd:format ""^^xsd:string ;
	bd:ctAndFormat ""^^xsd:string ;
	bd:compliance <http://www.assero.co.uk/CSN#8f112ba7-caa3-4f34-a9fc-8bc808b13955> ;
.
<http://www.cdisc.org/AG/V1#IG_DVAGGRPID>
	rdf:type bd:SdtmDomainVariable ;
	isoC:label "Group ID"^^xsd:string ;
	bd:rule ""^^xsd:string ;
	bd:ordinal "5"^^xsd:positiveInteger ;
	bd:name "AGGRPID"^^xsd:string ;
	bd:description "Used to tie together a block of related records in a single domain for a subject."^^xsd:string ;
	bd:format ""^^xsd:string ;
	bd:ctAndFormat ""^^xsd:string ;
	bd:compliance <http://www.assero.co.uk/CSN#da9f1092-7a20-4c97-9144-8bac2e72d1ea> ;
.
<http://www.cdisc.org/AG/V1#IG_DVAGSPID>
	rdf:type bd:SdtmDomainVariable ;
	isoC:label "Sponsor-Defined Identifier"^^xsd:string ;
	bd:rule ""^^xsd:string ;
	bd:ordinal "6"^^xsd:positiveInteger ;
	bd:name "AGSPID"^^xsd:string ;
	bd:description "Sponsor-defined reference number. Perhaps pre-printed on the CRF as an explicit line identifier or defined in the sponsor's operational database. Example: Line number from the procedure or test page."^^xsd:string ;
	bd:format ""^^xsd:string ;
	bd:ctAndFormat ""^^xsd:string ;
	bd:compliance <http://www.assero.co.uk/CSN#da9f1092-7a20-4c97-9144-8bac2e72d1ea> ;
.
<http://www.cdisc.org/AG/V1#IG_DVAGLNKID>
	rdf:type bd:SdtmDomainVariable ;
	isoC:label "Link ID"^^xsd:string ;
	bd:rule ""^^xsd:string ;
	bd:ordinal "7"^^xsd:positiveInteger ;
	bd:name "AGLNKID"^^xsd:string ;
	bd:description "Identifier used to link related records across domains.This may be a one-to-one or a one-to-many relationship."^^xsd:string ;
	bd:format ""^^xsd:string ;
	bd:ctAndFormat ""^^xsd:string ;
	bd:compliance <http://www.assero.co.uk/CSN#da9f1092-7a20-4c97-9144-8bac2e72d1ea> ;
.
<http://www.cdisc.org/AG/V1#IG_DVAGLNKGRP>
	rdf:type bd:SdtmDomainVariable ;
	isoC:label "Link Group ID"^^xsd:string ;
	bd:rule ""^^xsd:string ;
	bd:ordinal "8"^^xsd:positiveInteger ;
	bd:name "AGLNKGRP"^^xsd:string ;
	bd:description "Identifier used to link related records across domains.This will usually be a many-to-one relationship."^^xsd:string ;
	bd:format ""^^xsd:string ;
	bd:ctAndFormat ""^^xsd:string ;
	bd:compliance <http://www.assero.co.uk/CSN#da9f1092-7a20-4c97-9144-8bac2e72d1ea> ;
.
<http://www.cdisc.org/AG/V1#IG_DVAGTRT>
	rdf:type bd:SdtmDomainVariable ;
	isoC:label "Reported Agent Name"^^xsd:string ;
	bd:rule ""^^xsd:string ;
	bd:ordinal "9"^^xsd:positiveInteger ;
	bd:name "AGTRT"^^xsd:string ;
	bd:description "Verbatim medication name that is either pre-printed or collected on a CRF."^^xsd:string ;
	bd:format ""^^xsd:string ;
	bd:ctAndFormat ""^^xsd:string ;
	bd:compliance <http://www.assero.co.uk/CSN#8f112ba7-caa3-4f34-a9fc-8bc808b13955> ;
.
<http://www.cdisc.org/AG/V1#IG_DVAGMODIFY>
	rdf:type bd:SdtmDomainVariable ;
	isoC:label "Modified Reported Name"^^xsd:string ;
	bd:rule ""^^xsd:string ;
	bd:ordinal "10"^^xsd:positiveInteger ;
	bd:name "AGMODIFY"^^xsd:string ;
	bd:description "If AGTRT is modified to facilitate coding, then AGMODIFY will contain the modified text."^^xsd:string ;
	bd:format ""^^xsd:string ;
	bd:ctAndFormat ""^^xsd:string ;
	bd:compliance <http://www.assero.co.uk/CSN#da9f1092-7a20-4c97-9144-8bac2e72d1ea> ;
.
<http://www.cdisc.org/AG/V1#IG_DVAGDECOD>
	rdf:type bd:SdtmDomainVariable ;
	isoC:label "Standardized Agent Name"^^xsd:string ;
	bd:rule ""^^xsd:string ;
	bd:ordinal "11"^^xsd:positiveInteger ;
	bd:name "AGDECOD"^^xsd:string ;
	bd:description "Standardized or dictionary-derived text description of AGTRT or AGMODIFY. Equivalent to the generic medication name in WHO Drug. The sponsor is expected to provide the dictionary name and version used to map the terms utilizing the external codelist element in the Define-XML document. If an intervention term does not have a decode value in the dictionary, then AGDECOD will be left blank."^^xsd:string ;
	bd:format ""^^xsd:string ;
	bd:ctAndFormat ""^^xsd:string ;
	bd:compliance <http://www.assero.co.uk/CSN#da9f1092-7a20-4c97-9144-8bac2e72d1ea> ;
.
<http://www.cdisc.org/AG/V1#IG_DVAGCAT>
	rdf:type bd:SdtmDomainVariable ;
	isoC:label "Category for Agent"^^xsd:string ;
	bd:rule ""^^xsd:string ;
	bd:ordinal "12"^^xsd:positiveInteger ;
	bd:name "AGCAT"^^xsd:string ;
	bd:description "Used to define a category of agent. Examples: \"CHALLENGE AGENT\", or \"PET TRACER\"."^^xsd:string ;
	bd:format ""^^xsd:string ;
	bd:ctAndFormat ""^^xsd:string ;
	bd:compliance <http://www.assero.co.uk/CSN#da9f1092-7a20-4c97-9144-8bac2e72d1ea> ;
.
<http://www.cdisc.org/AG/V1#IG_DVAGSCAT>
	rdf:type bd:SdtmDomainVariable ;
	isoC:label "Subcategory for Agent"^^xsd:string ;
	bd:rule ""^^xsd:string ;
	bd:ordinal "13"^^xsd:positiveInteger ;
	bd:name "AGSCAT"^^xsd:string ;
	bd:description "Further categorization of agent."^^xsd:string ;
	bd:format ""^^xsd:string ;
	bd:ctAndFormat ""^^xsd:string ;
	bd:compliance <http://www.assero.co.uk/CSN#da9f1092-7a20-4c97-9144-8bac2e72d1ea> ;
.
<http://www.cdisc.org/AG/V1#IG_DVAGPRESP>
	rdf:type bd:SdtmDomainVariable ;
	isoC:label "AG Pre-Specified"^^xsd:string ;
	bd:rule ""^^xsd:string ;
	bd:ordinal "14"^^xsd:positiveInteger ;
	bd:name "AGPRESP"^^xsd:string ;
	bd:description "Used to indicate whether (\"Y\"/null) information about the use of a specific agent was solicited on the CRF."^^xsd:string ;
	bd:format ""^^xsd:string ;
	bd:ctAndFormat "(NY)"^^xsd:string ;
	bd:compliance <http://www.assero.co.uk/CSN#da9f1092-7a20-4c97-9144-8bac2e72d1ea> ;
.
<http://www.cdisc.org/AG/V1#IG_DVAGOCCUR>
	rdf:type bd:SdtmDomainVariable ;
	isoC:label "AG Occurrence"^^xsd:string ;
	bd:rule ""^^xsd:string ;
	bd:ordinal "15"^^xsd:positiveInteger ;
	bd:name "AGOCCUR"^^xsd:string ;
	bd:description "When the use of specific agent is solicited, AGOCCUR is used to indicate whether or not (\"Y\"/\"N\") use of the agent occurred. Values are null for agents not specifically solicited."^^xsd:string ;
	bd:format ""^^xsd:string ;
	bd:ctAndFormat "(NY)"^^xsd:string ;
	bd:compliance <http://www.assero.co.uk/CSN#da9f1092-7a20-4c97-9144-8bac2e72d1ea> ;
.
<http://www.cdisc.org/AG/V1#IG_DVAGSTAT>
	rdf:type bd:SdtmDomainVariable ;
	isoC:label "Completion Status"^^xsd:string ;
	bd:rule ""^^xsd:string ;
	bd:ordinal "16"^^xsd:positiveInteger ;
	bd:name "AGSTAT"^^xsd:string ;
	bd:description "Used to indicate that a question about a pre-specified agent was not answered. Should be null or have a value of \"NOT DONE\"."^^xsd:string ;
	bd:format ""^^xsd:string ;
	bd:ctAndFormat "(ND)"^^xsd:string ;
	bd:compliance <http://www.assero.co.uk/CSN#da9f1092-7a20-4c97-9144-8bac2e72d1ea> ;
.
<http://www.cdisc.org/AG/V1#IG_DVAGREASND>
	rdf:type bd:SdtmDomainVariable ;
	isoC:label "Reason Procedure Agent Not Collected"^^xsd:string ;
	bd:rule ""^^xsd:string ;
	bd:ordinal "17"^^xsd:positiveInteger ;
	bd:name "AGREASND"^^xsd:string ;
	bd:description "Describes the reason a response to a question about the occurrence of a procedure agent was not collected. Used in conjunction with AGSTAT when value is \"NOT DONE\"."^^xsd:string ;
	bd:format ""^^xsd:string ;
	bd:ctAndFormat ""^^xsd:string ;
	bd:compliance <http://www.assero.co.uk/CSN#da9f1092-7a20-4c97-9144-8bac2e72d1ea> ;
.
<http://www.cdisc.org/AG/V1#IG_DVAGCLAS>
	rdf:type bd:SdtmDomainVariable ;
	isoC:label "Agent Class"^^xsd:string ;
	bd:rule ""^^xsd:string ;
	bd:ordinal "18"^^xsd:positiveInteger ;
	bd:name "AGCLAS"^^xsd:string ;
	bd:description "Drug class. May be obtained from coding. When coding to a single class, populate with class value. If using a dictionary and coding to multiple classes, then follow assumption 4.1.2.8.3 or omit AGCLAS."^^xsd:string ;
	bd:format ""^^xsd:string ;
	bd:ctAndFormat ""^^xsd:string ;
	bd:compliance <http://www.assero.co.uk/CSN#da9f1092-7a20-4c97-9144-8bac2e72d1ea> ;
.
<http://www.cdisc.org/AG/V1#IG_DVAGCLASCD>
	rdf:type bd:SdtmDomainVariable ;
	isoC:label "Agent Class Code"^^xsd:string ;
	bd:rule ""^^xsd:string ;
	bd:ordinal "19"^^xsd:positiveInteger ;
	bd:name "AGCLASCD"^^xsd:string ;
	bd:description "Class code corresponding to AGCLAS. Drug class. May be obtained from coding. When coding to a single class, populate with class code. If using a dictionary and coding to multiple classes, then follow Assumption 4.1.2.8.3, Multiple Values for a Non-Result Qualifier Variable, or omit AGCLASCD."^^xsd:string ;
	bd:format ""^^xsd:string ;
	bd:ctAndFormat ""^^xsd:string ;
	bd:compliance <http://www.assero.co.uk/CSN#da9f1092-7a20-4c97-9144-8bac2e72d1ea> ;
.
<http://www.cdisc.org/AG/V1#IG_DVAGDOSE>
	rdf:type bd:SdtmDomainVariable ;
	isoC:label "Dose per Administration"^^xsd:string ;
	bd:rule ""^^xsd:string ;
	bd:ordinal "20"^^xsd:positiveInteger ;
	bd:name "AGDOSE"^^xsd:string ;
	bd:description "Amount of AGTRT taken."^^xsd:string ;
	bd:format ""^^xsd:string ;
	bd:ctAndFormat ""^^xsd:string ;
	bd:compliance <http://www.assero.co.uk/CSN#da9f1092-7a20-4c97-9144-8bac2e72d1ea> ;
.
<http://www.cdisc.org/AG/V1#IG_DVAGDOSTXT>
	rdf:type bd:SdtmDomainVariable ;
	isoC:label "Dose Description"^^xsd:string ;
	bd:rule ""^^xsd:string ;
	bd:ordinal "21"^^xsd:positiveInteger ;
	bd:name "AGDOSTXT"^^xsd:string ;
	bd:description "Dosing amounts or a range of dosing information collected in text form. Units may be stored in AGDOSU. Example: \"200-400\", \"15-20\"."^^xsd:string ;
	bd:format ""^^xsd:string ;
	bd:ctAndFormat ""^^xsd:string ;
	bd:compliance <http://www.assero.co.uk/CSN#da9f1092-7a20-4c97-9144-8bac2e72d1ea> ;
.
<http://www.cdisc.org/AG/V1#IG_DVAGDOSU>
	rdf:type bd:SdtmDomainVariable ;
	isoC:label "Dose Units"^^xsd:string ;
	bd:rule ""^^xsd:string ;
	bd:ordinal "22"^^xsd:positiveInteger ;
	bd:name "AGDOSU"^^xsd:string ;
	bd:description "Units for AGDOSE and AGDOSTXT. Examples: \"ng\", \"mg\", or \"mg/kg\"."^^xsd:string ;
	bd:format ""^^xsd:string ;
	bd:ctAndFormat "(UNIT)"^^xsd:string ;
	bd:compliance <http://www.assero.co.uk/CSN#da9f1092-7a20-4c97-9144-8bac2e72d1ea> ;
.
<http://www.cdisc.org/AG/V1#IG_DVAGDOSFRM>
	rdf:type bd:SdtmDomainVariable ;
	isoC:label "Dose Form"^^xsd:string ;
	bd:rule ""^^xsd:string ;
	bd:ordinal "23"^^xsd:positiveInteger ;
	bd:name "AGDOSFRM"^^xsd:string ;
	bd:description "Dose form for AGTRT. Examples: \"TABLET\", \"AEROSOL\"."^^xsd:string ;
	bd:format ""^^xsd:string ;
	bd:ctAndFormat "(FRM)"^^xsd:string ;
	bd:compliance <http://www.assero.co.uk/CSN#da9f1092-7a20-4c97-9144-8bac2e72d1ea> ;
.
<http://www.cdisc.org/AG/V1#IG_DVAGDOSFRQ>
	rdf:type bd:SdtmDomainVariable ;
	isoC:label "Dosing Frequency per Interval"^^xsd:string ;
	bd:rule ""^^xsd:string ;
	bd:ordinal "24"^^xsd:positiveInteger ;
	bd:name "AGDOSFRQ"^^xsd:string ;
	bd:description "Usually expressed as the number of repeated administrations of AGDOSE within a specific time period. Example: \"ONCE\"."^^xsd:string ;
	bd:format ""^^xsd:string ;
	bd:ctAndFormat "(FREQ)"^^xsd:string ;
	bd:compliance <http://www.assero.co.uk/CSN#da9f1092-7a20-4c97-9144-8bac2e72d1ea> ;
.
<http://www.cdisc.org/AG/V1#IG_DVAGROUTE>
	rdf:type bd:SdtmDomainVariable ;
	isoC:label "Route of Administration"^^xsd:string ;
	bd:rule ""^^xsd:string ;
	bd:ordinal "25"^^xsd:positiveInteger ;
	bd:name "AGROUTE"^^xsd:string ;
	bd:description "Route of administration for AGTRT. Examples: \"ORAL\"."^^xsd:string ;
	bd:format ""^^xsd:string ;
	bd:ctAndFormat "(ROUTE)"^^xsd:string ;
	bd:compliance <http://www.assero.co.uk/CSN#da9f1092-7a20-4c97-9144-8bac2e72d1ea> ;
.
<http://www.cdisc.org/AG/V1#IG_DVVISITNUM>
	rdf:type bd:SdtmDomainVariable ;
	isoC:label "Visit Number"^^xsd:string ;
	bd:rule ""^^xsd:string ;
	bd:ordinal "26"^^xsd:positiveInteger ;
	bd:name "VISITNUM"^^xsd:string ;
	bd:description "1. Clinical encounter number. 2. Numeric version of VISIT, used for sorting."^^xsd:string ;
	bd:format ""^^xsd:string ;
	bd:ctAndFormat ""^^xsd:string ;
	bd:compliance <http://www.assero.co.uk/CSN#fc544083-2437-4ec0-97f4-767598bee682> ;
.
<http://www.cdisc.org/AG/V1#IG_DVVISIT>
	rdf:type bd:SdtmDomainVariable ;
	isoC:label "Visit Name"^^xsd:string ;
	bd:rule ""^^xsd:string ;
	bd:ordinal "27"^^xsd:positiveInteger ;
	bd:name "VISIT"^^xsd:string ;
	bd:description "1. Protocol-defined description of clinical encounter. 2. May be used in addition to VISITNUM and/or VISITDY."^^xsd:string ;
	bd:format ""^^xsd:string ;
	bd:ctAndFormat ""^^xsd:string ;
	bd:compliance <http://www.assero.co.uk/CSN#da9f1092-7a20-4c97-9144-8bac2e72d1ea> ;
.
<http://www.cdisc.org/AG/V1#IG_DVVISITDY>
	rdf:type bd:SdtmDomainVariable ;
	isoC:label "Planned Study Day of Visit"^^xsd:string ;
	bd:rule ""^^xsd:string ;
	bd:ordinal "28"^^xsd:positiveInteger ;
	bd:name "VISITDY"^^xsd:string ;
	bd:description "Planned study day of the visit based upon RFSTDTC in Demographics."^^xsd:string ;
	bd:format ""^^xsd:string ;
	bd:ctAndFormat ""^^xsd:string ;
	bd:compliance <http://www.assero.co.uk/CSN#da9f1092-7a20-4c97-9144-8bac2e72d1ea> ;
.
<http://www.cdisc.org/AG/V1#IG_DVTAETORD>
	rdf:type bd:SdtmDomainVariable ;
	isoC:label "Planned Order of Element within Arm"^^xsd:string ;
	bd:rule ""^^xsd:string ;
	bd:ordinal "29"^^xsd:positiveInteger ;
	bd:name "TAETORD"^^xsd:string ;
	bd:description "Number that gives the planned order of the Element within the Arm for the Element in which the agent administration started."^^xsd:string ;
	bd:format ""^^xsd:string ;
	bd:ctAndFormat ""^^xsd:string ;
	bd:compliance <http://www.assero.co.uk/CSN#da9f1092-7a20-4c97-9144-8bac2e72d1ea> ;
.
<http://www.cdisc.org/AG/V1#IG_DVEPOCH>
	rdf:type bd:SdtmDomainVariable ;
	isoC:label "Epoch"^^xsd:string ;
	bd:rule ""^^xsd:string ;
	bd:ordinal "30"^^xsd:positiveInteger ;
	bd:name "EPOCH"^^xsd:string ;
	bd:description "Epoch associated with the start date/time of the agent administration started."^^xsd:string ;
	bd:format ""^^xsd:string ;
	bd:ctAndFormat "(EPOCH)"^^xsd:string ;
	bd:compliance <http://www.assero.co.uk/CSN#da9f1092-7a20-4c97-9144-8bac2e72d1ea> ;
.
<http://www.cdisc.org/AG/V1#IG_DVAGSTDTC>
	rdf:type bd:SdtmDomainVariable ;
	isoC:label "Start Date/Time of Agent"^^xsd:string ;
	bd:rule ""^^xsd:string ;
	bd:ordinal "31"^^xsd:positiveInteger ;
	bd:name "AGSTDTC"^^xsd:string ;
	bd:description "The date/time when administration of the treatment indicated by AGTRT and the dosing variables began."^^xsd:string ;
	bd:format ""^^xsd:string ;
	bd:ctAndFormat "ISO 8601"^^xsd:string ;
	bd:compliance <http://www.assero.co.uk/CSN#da9f1092-7a20-4c97-9144-8bac2e72d1ea> ;
.
<http://www.cdisc.org/AG/V1#IG_DVAGENDTC>
	rdf:type bd:SdtmDomainVariable ;
	isoC:label "End Date/Time of Agent"^^xsd:string ;
	bd:rule ""^^xsd:string ;
	bd:ordinal "32"^^xsd:positiveInteger ;
	bd:name "AGENDTC"^^xsd:string ;
	bd:description "The date/time when administration of the treatment indicated by AGTRT and the dosing variables ended."^^xsd:string ;
	bd:format ""^^xsd:string ;
	bd:ctAndFormat "ISO 8601"^^xsd:string ;
	bd:compliance <http://www.assero.co.uk/CSN#da9f1092-7a20-4c97-9144-8bac2e72d1ea> ;
.
<http://www.cdisc.org/AG/V1#IG_DVAGSTDY>
	rdf:type bd:SdtmDomainVariable ;
	isoC:label "Study Day of Start of Agent"^^xsd:string ;
	bd:rule ""^^xsd:string ;
	bd:ordinal "33"^^xsd:positiveInteger ;
	bd:name "AGSTDY"^^xsd:string ;
	bd:description "Study day of start of agent relative to the sponsor-defined RFSTDTC."^^xsd:string ;
	bd:format ""^^xsd:string ;
	bd:ctAndFormat ""^^xsd:string ;
	bd:compliance <http://www.assero.co.uk/CSN#da9f1092-7a20-4c97-9144-8bac2e72d1ea> ;
.
<http://www.cdisc.org/AG/V1#IG_DVAGENDY>
	rdf:type bd:SdtmDomainVariable ;
	isoC:label "Study Day of End of Agent"^^xsd:string ;
	bd:rule ""^^xsd:string ;
	bd:ordinal "34"^^xsd:positiveInteger ;
	bd:name "AGENDY"^^xsd:string ;
	bd:description "Study day of end of agent relative to the sponsor-defined RFSTDTC."^^xsd:string ;
	bd:format ""^^xsd:string ;
	bd:ctAndFormat ""^^xsd:string ;
	bd:compliance <http://www.assero.co.uk/CSN#da9f1092-7a20-4c97-9144-8bac2e72d1ea> ;
.
<http://www.cdisc.org/AG/V1#IG_DVAGDUR>
	rdf:type bd:SdtmDomainVariable ;
	isoC:label "Duration of Agent"^^xsd:string ;
	bd:rule ""^^xsd:string ;
	bd:ordinal "35"^^xsd:positiveInteger ;
	bd:name "AGDUR"^^xsd:string ;
	bd:description "Collected duration for an agent episode. Used only if collected on the CRF and not derived from start and end date/times."^^xsd:string ;
	bd:format ""^^xsd:string ;
	bd:ctAndFormat "ISO 8601"^^xsd:string ;
	bd:compliance <http://www.assero.co.uk/CSN#da9f1092-7a20-4c97-9144-8bac2e72d1ea> ;
.
<http://www.cdisc.org/AG/V1#IG_DVAGSTRF>
	rdf:type bd:SdtmDomainVariable ;
	isoC:label "Start Relative to Reference Period"^^xsd:string ;
	bd:rule ""^^xsd:string ;
	bd:ordinal "36"^^xsd:positiveInteger ;
	bd:name "AGSTRF"^^xsd:string ;
	bd:description "Describes the start of the agent relative to sponsor-defined reference period. The sponsor-defined reference period is a continuous period of time defined by a discrete starting point and a discrete ending point (represented by RFSTDTC and RFENDTC in Demographics). If information such as \"PRIOR\", \"ONGOING\", or \"CONTINUING\" was collected, this information may be translated into AGSTRF."^^xsd:string ;
	bd:format ""^^xsd:string ;
	bd:ctAndFormat "(STENRF)"^^xsd:string ;
	bd:compliance <http://www.assero.co.uk/CSN#da9f1092-7a20-4c97-9144-8bac2e72d1ea> ;
.
<http://www.cdisc.org/AG/V1#IG_DVAGENRF>
	rdf:type bd:SdtmDomainVariable ;
	isoC:label "End Relative to Reference Period"^^xsd:string ;
	bd:rule ""^^xsd:string ;
	bd:ordinal "37"^^xsd:positiveInteger ;
	bd:name "AGENRF"^^xsd:string ;
	bd:description "Describes the end of the agent relative to the sponsor-defined reference period. The sponsor-defined reference period is a continuous period of time defined by a discrete starting point and a discrete ending point (represented by RFSTDTC and RFENDTC in Demographics). If information such as \"PRIOR\", \"ONGOING\", or \"CONTINUING\" was collected, this information may be translated into AGENRF."^^xsd:string ;
	bd:format ""^^xsd:string ;
	bd:ctAndFormat "(STENRF)"^^xsd:string ;
	bd:compliance <http://www.assero.co.uk/CSN#da9f1092-7a20-4c97-9144-8bac2e72d1ea> ;
.
<http://www.cdisc.org/AG/V1#IG_DVAGSTRTPT>
	rdf:type bd:SdtmDomainVariable ;
	isoC:label "Start Relative to Reference Time Point"^^xsd:string ;
	bd:rule ""^^xsd:string ;
	bd:ordinal "38"^^xsd:positiveInteger ;
	bd:name "AGSTRTPT"^^xsd:string ;
	bd:description "Identifies the start of the agent as being before or after the sponsor-defined reference time point defined by variable AGSTTPT."^^xsd:string ;
	bd:format ""^^xsd:string ;
	bd:ctAndFormat "(STENRF)"^^xsd:string ;
	bd:compliance <http://www.assero.co.uk/CSN#da9f1092-7a20-4c97-9144-8bac2e72d1ea> ;
.
<http://www.cdisc.org/AG/V1#IG_DVAGSTTPT>
	rdf:type bd:SdtmDomainVariable ;
	isoC:label "Start Reference Time Point"^^xsd:string ;
	bd:rule ""^^xsd:string ;
	bd:ordinal "39"^^xsd:positiveInteger ;
	bd:name "AGSTTPT"^^xsd:string ;
	bd:description "Description or date/time in ISO 8601 character format of the reference point referred to by AGSTRTPT. Examples: \"2003-12-15\" or \"VISIT 1\"."^^xsd:string ;
	bd:format ""^^xsd:string ;
	bd:ctAndFormat ""^^xsd:string ;
	bd:compliance <http://www.assero.co.uk/CSN#da9f1092-7a20-4c97-9144-8bac2e72d1ea> ;
.
<http://www.cdisc.org/AG/V1#IG_DVAGENRTPT>
	rdf:type bd:SdtmDomainVariable ;
	isoC:label "End Relative to Reference Time Point"^^xsd:string ;
	bd:rule ""^^xsd:string ;
	bd:ordinal "40"^^xsd:positiveInteger ;
	bd:name "AGENRTPT"^^xsd:string ;
	bd:description "Identifies the end of the agent as being before or after the reference time point defined by variable AGENTPT. Identifies the end of the agent as being before or after the sponsor-defined reference time point defined by variable AGENTPT."^^xsd:string ;
	bd:format ""^^xsd:string ;
	bd:ctAndFormat "(STENRF)"^^xsd:string ;
	bd:compliance <http://www.assero.co.uk/CSN#da9f1092-7a20-4c97-9144-8bac2e72d1ea> ;
.
<http://www.cdisc.org/AG/V1#IG_DVAGENTPT>
	rdf:type bd:SdtmDomainVariable ;
	isoC:label "End Reference Time Point"^^xsd:string ;
	bd:rule ""^^xsd:string ;
	bd:ordinal "41"^^xsd:positiveInteger ;
	bd:name "AGENTPT"^^xsd:string ;
	bd:description "Description or date/time in ISO 8601 character format of the reference point referred to by AGENRTPT. Examples: \"2003-12-25\" or \"VISIT 2\"."^^xsd:string ;
	bd:format ""^^xsd:string ;
	bd:ctAndFormat ""^^xsd:string ;
	bd:compliance <http://www.assero.co.uk/CSN#da9f1092-7a20-4c97-9144-8bac2e72d1ea> ;
.
<http://www.cdisc.org/CM/V1#IG>
	rdf:type bd:SdtmDomain ;
	isoC:label "Concomitant/Prior Medications"^^xsd:string ;
	isoT:hasState <http://www.cdisc.org/CM/V1#IG_RS> ;
	isoT:hasIdentifier <http://www.cdisc.org/CM/V1#IG_SI> ;
	isoT:origin ""^^xsd:string ;
	isoT:changeDescription ""^^xsd:string ;
	isoT:creationDate "2020-01-01T00:00:00+00:00"^^xsd:dateTime ;
	isoT:lastChangeDate "2020-01-01T00:00:00+00:00"^^xsd:dateTime ;
	isoT:explanatoryComment ""^^xsd:string ;
	bd:rule ""^^xsd:string ;
	bd:ordinal "1"^^xsd:positiveInteger ;
	bd:includesColumn <http://www.cdisc.org/CM/V1#IG_DVSTUDYID> ;
	bd:includesColumn <http://www.cdisc.org/CM/V1#IG_DVDOMAIN> ;
	bd:includesColumn <http://www.cdisc.org/CM/V1#IG_DVUSUBJID> ;
	bd:includesColumn <http://www.cdisc.org/CM/V1#IG_DVCMSEQ> ;
	bd:includesColumn <http://www.cdisc.org/CM/V1#IG_DVCMGRPID> ;
	bd:includesColumn <http://www.cdisc.org/CM/V1#IG_DVCMSPID> ;
	bd:includesColumn <http://www.cdisc.org/CM/V1#IG_DVCMTRT> ;
	bd:includesColumn <http://www.cdisc.org/CM/V1#IG_DVCMMODIFY> ;
	bd:includesColumn <http://www.cdisc.org/CM/V1#IG_DVCMDECOD> ;
	bd:includesColumn <http://www.cdisc.org/CM/V1#IG_DVCMCAT> ;
	bd:includesColumn <http://www.cdisc.org/CM/V1#IG_DVCMSCAT> ;
	bd:includesColumn <http://www.cdisc.org/CM/V1#IG_DVCMPRESP> ;
	bd:includesColumn <http://www.cdisc.org/CM/V1#IG_DVCMOCCUR> ;
	bd:includesColumn <http://www.cdisc.org/CM/V1#IG_DVCMSTAT> ;
	bd:includesColumn <http://www.cdisc.org/CM/V1#IG_DVCMREASND> ;
	bd:includesColumn <http://www.cdisc.org/CM/V1#IG_DVCMINDC> ;
	bd:includesColumn <http://www.cdisc.org/CM/V1#IG_DVCMCLAS> ;
	bd:includesColumn <http://www.cdisc.org/CM/V1#IG_DVCMCLASCD> ;
	bd:includesColumn <http://www.cdisc.org/CM/V1#IG_DVCMDOSE> ;
	bd:includesColumn <http://www.cdisc.org/CM/V1#IG_DVCMDOSTXT> ;
	bd:includesColumn <http://www.cdisc.org/CM/V1#IG_DVCMDOSU> ;
	bd:includesColumn <http://www.cdisc.org/CM/V1#IG_DVCMDOSFRM> ;
	bd:includesColumn <http://www.cdisc.org/CM/V1#IG_DVCMDOSFRQ> ;
	bd:includesColumn <http://www.cdisc.org/CM/V1#IG_DVCMDOSTOT> ;
	bd:includesColumn <http://www.cdisc.org/CM/V1#IG_DVCMDOSRGM> ;
	bd:includesColumn <http://www.cdisc.org/CM/V1#IG_DVCMROUTE> ;
	bd:includesColumn <http://www.cdisc.org/CM/V1#IG_DVCMADJ> ;
	bd:includesColumn <http://www.cdisc.org/CM/V1#IG_DVCMRSDISC> ;
	bd:includesColumn <http://www.cdisc.org/CM/V1#IG_DVTAETORD> ;
	bd:includesColumn <http://www.cdisc.org/CM/V1#IG_DVEPOCH> ;
	bd:includesColumn <http://www.cdisc.org/CM/V1#IG_DVCMSTDTC> ;
	bd:includesColumn <http://www.cdisc.org/CM/V1#IG_DVCMENDTC> ;
	bd:includesColumn <http://www.cdisc.org/CM/V1#IG_DVCMSTDY> ;
	bd:includesColumn <http://www.cdisc.org/CM/V1#IG_DVCMENDY> ;
	bd:includesColumn <http://www.cdisc.org/CM/V1#IG_DVCMDUR> ;
	bd:includesColumn <http://www.cdisc.org/CM/V1#IG_DVCMSTRF> ;
	bd:includesColumn <http://www.cdisc.org/CM/V1#IG_DVCMENRF> ;
	bd:includesColumn <http://www.cdisc.org/CM/V1#IG_DVCMSTRTPT> ;
	bd:includesColumn <http://www.cdisc.org/CM/V1#IG_DVCMSTTPT> ;
	bd:includesColumn <http://www.cdisc.org/CM/V1#IG_DVCMENRTPT> ;
	bd:includesColumn <http://www.cdisc.org/CM/V1#IG_DVCMENTPT> ;
	bd:prefix ""^^xsd:string ;
	bd:structure ""^^xsd:string ;
.
<http://www.cdisc.org/CM/V1#IG_RS>
	rdf:type isoR:RegistrationState ;
	isoR:registrationStatus "Standard"^^xsd:string ;
	isoR:administrativeNote ""^^xsd:string ;
	isoR:effectiveDate "2016-01-01T00:00:00+00:00"^^xsd:dateTime ;
	isoR:untilDate "2016-01-01T00:00:00+00:00"^^xsd:dateTime ;
	isoR:unresolvedIssue ""^^xsd:string ;
	isoR:administrativeStatus ""^^xsd:string ;
	isoR:previousState "Standard"^^xsd:string ;
	isoR:multipleEdit "false"^^xsd:boolean ;
	isoR:byAuthority <http://www.assero.co.uk/RA#DUNS084433759> ;
.
<http://www.cdisc.org/CM/V1#IG_SI>
	rdf:type isoI:ScopedIdentifier ;
	isoI:identifier "CM"^^xsd:string ;
	isoI:versionLabel "1.1.1"^^xsd:string ;
	isoI:version "1"^^xsd:positiveInteger ;
	isoI:semanticVersion "1.1.1"^^xsd:string ;
	isoI:hasScope <http://www.assero.co.uk/NS#CDISC> ;
.
<http://www.cdisc.org/CM/V1#IG_DVSTUDYID>
	rdf:type bd:SdtmDomainVariable ;
	isoC:label "Study Identifier"^^xsd:string ;
	bd:rule ""^^xsd:string ;
	bd:ordinal "1"^^xsd:positiveInteger ;
	bd:name "STUDYID"^^xsd:string ;
	bd:description "Unique identifier for a study."^^xsd:string ;
	bd:format ""^^xsd:string ;
	bd:ctAndFormat ""^^xsd:string ;
	bd:compliance <http://www.assero.co.uk/CSN#8f112ba7-caa3-4f34-a9fc-8bc808b13955> ;
.
<http://www.cdisc.org/CM/V1#IG_DVDOMAIN>
	rdf:type bd:SdtmDomainVariable ;
	isoC:label "Domain Abbreviation"^^xsd:string ;
	bd:rule ""^^xsd:string ;
	bd:ordinal "2"^^xsd:positiveInteger ;
	bd:name "DOMAIN"^^xsd:string ;
	bd:description "Two-character abbreviation for the domain."^^xsd:string ;
	bd:format ""^^xsd:string ;
	bd:ctAndFormat "CM"^^xsd:string ;
	bd:compliance <http://www.assero.co.uk/CSN#8f112ba7-caa3-4f34-a9fc-8bc808b13955> ;
.
<http://www.cdisc.org/CM/V1#IG_DVUSUBJID>
	rdf:type bd:SdtmDomainVariable ;
	isoC:label "Unique Subject Identifier"^^xsd:string ;
	bd:rule ""^^xsd:string ;
	bd:ordinal "3"^^xsd:positiveInteger ;
	bd:name "USUBJID"^^xsd:string ;
	bd:description "Identifier used to uniquely identify a subject across all studies for all applications or submissions involving the product."^^xsd:string ;
	bd:format ""^^xsd:string ;
	bd:ctAndFormat ""^^xsd:string ;
	bd:compliance <http://www.assero.co.uk/CSN#8f112ba7-caa3-4f34-a9fc-8bc808b13955> ;
.
<http://www.cdisc.org/CM/V1#IG_DVCMSEQ>
	rdf:type bd:SdtmDomainVariable ;
	isoC:label "Sequence Number"^^xsd:string ;
	bd:rule ""^^xsd:string ;
	bd:ordinal "4"^^xsd:positiveInteger ;
	bd:name "CMSEQ"^^xsd:string ;
	bd:description "Sequence number to ensure uniqueness of subject records within a domain. May be any valid number."^^xsd:string ;
	bd:format ""^^xsd:string ;
	bd:ctAndFormat ""^^xsd:string ;
	bd:compliance <http://www.assero.co.uk/CSN#8f112ba7-caa3-4f34-a9fc-8bc808b13955> ;
.
<http://www.cdisc.org/CM/V1#IG_DVCMGRPID>
	rdf:type bd:SdtmDomainVariable ;
	isoC:label "Group ID"^^xsd:string ;
	bd:rule ""^^xsd:string ;
	bd:ordinal "5"^^xsd:positiveInteger ;
	bd:name "CMGRPID"^^xsd:string ;
	bd:description "Used to tie together a block of related records in a single domain for a subject."^^xsd:string ;
	bd:format ""^^xsd:string ;
	bd:ctAndFormat ""^^xsd:string ;
	bd:compliance <http://www.assero.co.uk/CSN#da9f1092-7a20-4c97-9144-8bac2e72d1ea> ;
.
<http://www.cdisc.org/CM/V1#IG_DVCMSPID>
	rdf:type bd:SdtmDomainVariable ;
	isoC:label "Sponsor-Defined Identifier"^^xsd:string ;
	bd:rule ""^^xsd:string ;
	bd:ordinal "6"^^xsd:positiveInteger ;
	bd:name "CMSPID"^^xsd:string ;
	bd:description "Sponsor-defined reference number. Example: a number pre-printed on the CRF as an explicit line identifier or record identifier defined in the sponsor's operational database. Example: line number on a concomitant medication page."^^xsd:string ;
	bd:format ""^^xsd:string ;
	bd:ctAndFormat ""^^xsd:string ;
	bd:compliance <http://www.assero.co.uk/CSN#da9f1092-7a20-4c97-9144-8bac2e72d1ea> ;
.
<http://www.cdisc.org/CM/V1#IG_DVCMTRT>
	rdf:type bd:SdtmDomainVariable ;
	isoC:label "Reported Name of Drug, Med, or Therapy"^^xsd:string ;
	bd:rule ""^^xsd:string ;
	bd:ordinal "7"^^xsd:positiveInteger ;
	bd:name "CMTRT"^^xsd:string ;
	bd:description "Verbatim medication name that is either pre-printed or collected on a CRF."^^xsd:string ;
	bd:format ""^^xsd:string ;
	bd:ctAndFormat ""^^xsd:string ;
	bd:compliance <http://www.assero.co.uk/CSN#8f112ba7-caa3-4f34-a9fc-8bc808b13955> ;
.
<http://www.cdisc.org/CM/V1#IG_DVCMMODIFY>
	rdf:type bd:SdtmDomainVariable ;
	isoC:label "Modified Reported Name"^^xsd:string ;
	bd:rule ""^^xsd:string ;
	bd:ordinal "8"^^xsd:positiveInteger ;
	bd:name "CMMODIFY"^^xsd:string ;
	bd:description "If CMTRT is modified to facilitate coding, then CMMODIFY will contain the modified text."^^xsd:string ;
	bd:format ""^^xsd:string ;
	bd:ctAndFormat ""^^xsd:string ;
	bd:compliance <http://www.assero.co.uk/CSN#da9f1092-7a20-4c97-9144-8bac2e72d1ea> ;
.
<http://www.cdisc.org/CM/V1#IG_DVCMDECOD>
	rdf:type bd:SdtmDomainVariable ;
	isoC:label "Standardized Medication Name"^^xsd:string ;
	bd:rule ""^^xsd:string ;
	bd:ordinal "9"^^xsd:positiveInteger ;
	bd:name "CMDECOD"^^xsd:string ;
	bd:description "Standardized or dictionary-derived text description of CMTRT or CMMODIFY. Equivalent to the generic drug name in WHO Drug. The sponsor is expected to provide the dictionary name and version used to map the terms utilizing the external codelist element in the Define-XML document. If an intervention term does not have a decode value in the dictionary, then CMDECOD will be left blank."^^xsd:string ;
	bd:format ""^^xsd:string ;
	bd:ctAndFormat ""^^xsd:string ;
	bd:compliance <http://www.assero.co.uk/CSN#da9f1092-7a20-4c97-9144-8bac2e72d1ea> ;
.
<http://www.cdisc.org/CM/V1#IG_DVCMCAT>
	rdf:type bd:SdtmDomainVariable ;
	isoC:label "Category for Medication"^^xsd:string ;
	bd:rule ""^^xsd:string ;
	bd:ordinal "10"^^xsd:positiveInteger ;
	bd:name "CMCAT"^^xsd:string ;
	bd:description "Used to define a category of medications/treatment. Examples: \"PRIOR\", \"CONCOMITANT\", \"ANTI-CANCER MEDICATION\", or \"GENERAL CONMED\"."^^xsd:string ;
	bd:format ""^^xsd:string ;
	bd:ctAndFormat ""^^xsd:string ;
	bd:compliance <http://www.assero.co.uk/CSN#da9f1092-7a20-4c97-9144-8bac2e72d1ea> ;
.
<http://www.cdisc.org/CM/V1#IG_DVCMSCAT>
	rdf:type bd:SdtmDomainVariable ;
	isoC:label "Subcategory for Medication"^^xsd:string ;
	bd:rule ""^^xsd:string ;
	bd:ordinal "11"^^xsd:positiveInteger ;
	bd:name "CMSCAT"^^xsd:string ;
	bd:description "A further categorization of medications/treatment. Examples: \"CHEMOTHERAPY\", \"HORMONAL THERAPY\", \"ALTERNATIVE THERAPY\"."^^xsd:string ;
	bd:format ""^^xsd:string ;
	bd:ctAndFormat ""^^xsd:string ;
	bd:compliance <http://www.assero.co.uk/CSN#da9f1092-7a20-4c97-9144-8bac2e72d1ea> ;
.
<http://www.cdisc.org/CM/V1#IG_DVCMPRESP>
	rdf:type bd:SdtmDomainVariable ;
	isoC:label "CM Pre-specified"^^xsd:string ;
	bd:rule ""^^xsd:string ;
	bd:ordinal "12"^^xsd:positiveInteger ;
	bd:name "CMPRESP"^^xsd:string ;
	bd:description "Used to indicate whether (\"Y\"/null) information about the use of a specific medication was solicited on the CRF."^^xsd:string ;
	bd:format ""^^xsd:string ;
	bd:ctAndFormat "(NY)"^^xsd:string ;
	bd:compliance <http://www.assero.co.uk/CSN#da9f1092-7a20-4c97-9144-8bac2e72d1ea> ;
.
<http://www.cdisc.org/CM/V1#IG_DVCMOCCUR>
	rdf:type bd:SdtmDomainVariable ;
	isoC:label "CM Occurrence"^^xsd:string ;
	bd:rule ""^^xsd:string ;
	bd:ordinal "13"^^xsd:positiveInteger ;
	bd:name "CMOCCUR"^^xsd:string ;
	bd:description "When the use of a specific medication is solicited. CMOCCUR is used to indicate whether or not (\"Y\"/\"N\") use of the medication occurred. Values are null for medications not specifically solicited."^^xsd:string ;
	bd:format ""^^xsd:string ;
	bd:ctAndFormat "(NY)"^^xsd:string ;
	bd:compliance <http://www.assero.co.uk/CSN#da9f1092-7a20-4c97-9144-8bac2e72d1ea> ;
.
<http://www.cdisc.org/CM/V1#IG_DVCMSTAT>
	rdf:type bd:SdtmDomainVariable ;
	isoC:label "Completion Status"^^xsd:string ;
	bd:rule ""^^xsd:string ;
	bd:ordinal "14"^^xsd:positiveInteger ;
	bd:name "CMSTAT"^^xsd:string ;
	bd:description "Used to indicate that a question about the occurrence of a pre-specified intervention was not answered. Should be null or have a value of \"NOT DONE\"."^^xsd:string ;
	bd:format ""^^xsd:string ;
	bd:ctAndFormat "(ND)"^^xsd:string ;
	bd:compliance <http://www.assero.co.uk/CSN#da9f1092-7a20-4c97-9144-8bac2e72d1ea> ;
.
<http://www.cdisc.org/CM/V1#IG_DVCMREASND>
	rdf:type bd:SdtmDomainVariable ;
	isoC:label "Reason Medication Not Collected"^^xsd:string ;
	bd:rule ""^^xsd:string ;
	bd:ordinal "15"^^xsd:positiveInteger ;
	bd:name "CMREASND"^^xsd:string ;
	bd:description "Reason not done. Used in conjunction with CMSTAT when value is \"NOT DONE\"."^^xsd:string ;
	bd:format ""^^xsd:string ;
	bd:ctAndFormat ""^^xsd:string ;
	bd:compliance <http://www.assero.co.uk/CSN#da9f1092-7a20-4c97-9144-8bac2e72d1ea> ;
.
<http://www.cdisc.org/CM/V1#IG_DVCMINDC>
	rdf:type bd:SdtmDomainVariable ;
	isoC:label "Indication"^^xsd:string ;
	bd:rule ""^^xsd:string ;
	bd:ordinal "16"^^xsd:positiveInteger ;
	bd:name "CMINDC"^^xsd:string ;
	bd:description "Denotes why a medication was taken or administered. Examples: \"NAUSEA\", \"HYPERTENSION\"."^^xsd:string ;
	bd:format ""^^xsd:string ;
	bd:ctAndFormat ""^^xsd:string ;
	bd:compliance <http://www.assero.co.uk/CSN#da9f1092-7a20-4c97-9144-8bac2e72d1ea> ;
.
<http://www.cdisc.org/CM/V1#IG_DVCMCLAS>
	rdf:type bd:SdtmDomainVariable ;
	isoC:label "Medication Class"^^xsd:string ;
	bd:rule ""^^xsd:string ;
	bd:ordinal "17"^^xsd:positiveInteger ;
	bd:name "CMCLAS"^^xsd:string ;
	bd:description "Drug class. May be obtained from coding. When coding to a single class, populate with class value. If using a dictionary and coding to multiple classes, then follow Section 4.2.8.3, Multiple Values for a Non-Result Qualifier Variable, or omit CMCLAS."^^xsd:string ;
	bd:format ""^^xsd:string ;
	bd:ctAndFormat ""^^xsd:string ;
	bd:compliance <http://www.assero.co.uk/CSN#da9f1092-7a20-4c97-9144-8bac2e72d1ea> ;
.
<http://www.cdisc.org/CM/V1#IG_DVCMCLASCD>
	rdf:type bd:SdtmDomainVariable ;
	isoC:label "Medication Class Code"^^xsd:string ;
	bd:rule ""^^xsd:string ;
	bd:ordinal "18"^^xsd:positiveInteger ;
	bd:name "CMCLASCD"^^xsd:string ;
	bd:description "Class code corresponding to CMCLAS. Drug class. May be obtained from coding. When coding to a single class, populate with class code. If using a dictionary and coding to multiple classes, then follow Section 4.2.8.3, Multiple Values for a Non-Result Qualifier Variable, or omit CMCLASCD."^^xsd:string ;
	bd:format ""^^xsd:string ;
	bd:ctAndFormat ""^^xsd:string ;
	bd:compliance <http://www.assero.co.uk/CSN#da9f1092-7a20-4c97-9144-8bac2e72d1ea> ;
.
<http://www.cdisc.org/CM/V1#IG_DVCMDOSE>
	rdf:type bd:SdtmDomainVariable ;
	isoC:label "Dose per Administration"^^xsd:string ;
	bd:rule ""^^xsd:string ;
	bd:ordinal "19"^^xsd:positiveInteger ;
	bd:name "CMDOSE"^^xsd:string ;
	bd:description "Amount of CMTRT given. Not populated when CMDOSTXT is populated."^^xsd:string ;
	bd:format ""^^xsd:string ;
	bd:ctAndFormat ""^^xsd:string ;
	bd:compliance <http://www.assero.co.uk/CSN#da9f1092-7a20-4c97-9144-8bac2e72d1ea> ;
.
<http://www.cdisc.org/CM/V1#IG_DVCMDOSTXT>
	rdf:type bd:SdtmDomainVariable ;
	isoC:label "Dose Description"^^xsd:string ;
	bd:rule ""^^xsd:string ;
	bd:ordinal "20"^^xsd:positiveInteger ;
	bd:name "CMDOSTXT"^^xsd:string ;
	bd:description "Dosing amounts or a range of dosing information collected in text form. Units may be stored in CMDOSU. Examples: \"200-400\", \"15-20\". Not populated when CMDOSE is populated."^^xsd:string ;
	bd:format ""^^xsd:string ;
	bd:ctAndFormat ""^^xsd:string ;
	bd:compliance <http://www.assero.co.uk/CSN#da9f1092-7a20-4c97-9144-8bac2e72d1ea> ;
.
<http://www.cdisc.org/CM/V1#IG_DVCMDOSU>
	rdf:type bd:SdtmDomainVariable ;
	isoC:label "Dose Units"^^xsd:string ;
	bd:rule ""^^xsd:string ;
	bd:ordinal "21"^^xsd:positiveInteger ;
	bd:name "CMDOSU"^^xsd:string ;
	bd:description "Units for CMDOSE, CMDOSTOT, or CMDOSTXT. Examples: \"ng\", \"mg\", or \"mg/kg\"."^^xsd:string ;
	bd:format ""^^xsd:string ;
	bd:ctAndFormat "(UNIT)"^^xsd:string ;
	bd:compliance <http://www.assero.co.uk/CSN#da9f1092-7a20-4c97-9144-8bac2e72d1ea> ;
.
<http://www.cdisc.org/CM/V1#IG_DVCMDOSFRM>
	rdf:type bd:SdtmDomainVariable ;
	isoC:label "Dose Form"^^xsd:string ;
	bd:rule ""^^xsd:string ;
	bd:ordinal "22"^^xsd:positiveInteger ;
	bd:name "CMDOSFRM"^^xsd:string ;
	bd:description "Dose form for CMTRT. Examples: \"TABLET\", \"LOTION\"."^^xsd:string ;
	bd:format ""^^xsd:string ;
	bd:ctAndFormat "(FRM)"^^xsd:string ;
	bd:compliance <http://www.assero.co.uk/CSN#da9f1092-7a20-4c97-9144-8bac2e72d1ea> ;
.
<http://www.cdisc.org/CM/V1#IG_DVCMDOSFRQ>
	rdf:type bd:SdtmDomainVariable ;
	isoC:label "Dosing Frequency per Interval"^^xsd:string ;
	bd:rule ""^^xsd:string ;
	bd:ordinal "23"^^xsd:positiveInteger ;
	bd:name "CMDOSFRQ"^^xsd:string ;
	bd:description "Usually expressed as the number of repeated administrations of CMDOSE within a specific time period. Examples: \"BID\" (twice daily), \"Q12H\" (every 12 hours)."^^xsd:string ;
	bd:format ""^^xsd:string ;
	bd:ctAndFormat "(FREQ)"^^xsd:string ;
	bd:compliance <http://www.assero.co.uk/CSN#da9f1092-7a20-4c97-9144-8bac2e72d1ea> ;
.
<http://www.cdisc.org/CM/V1#IG_DVCMDOSTOT>
	rdf:type bd:SdtmDomainVariable ;
	isoC:label "Total Daily Dose"^^xsd:string ;
	bd:rule ""^^xsd:string ;
	bd:ordinal "24"^^xsd:positiveInteger ;
	bd:name "CMDOSTOT"^^xsd:string ;
	bd:description "Total daily dose of CMTRT using the units in CMDOSU. Used when dosing is collected as Total Daily Dose. Total dose over a period other than day could be recorded in a separate Supplemental Qualifier variable."^^xsd:string ;
	bd:format ""^^xsd:string ;
	bd:ctAndFormat ""^^xsd:string ;
	bd:compliance <http://www.assero.co.uk/CSN#da9f1092-7a20-4c97-9144-8bac2e72d1ea> ;
.
<http://www.cdisc.org/CM/V1#IG_DVCMDOSRGM>
	rdf:type bd:SdtmDomainVariable ;
	isoC:label "Intended Dose Regimen"^^xsd:string ;
	bd:rule ""^^xsd:string ;
	bd:ordinal "25"^^xsd:positiveInteger ;
	bd:name "CMDOSRGM"^^xsd:string ;
	bd:description "Text description of the (intended) schedule or regimen for the Intervention. Example: \"TWO WEEKS ON, TWO WEEKS OFF\"."^^xsd:string ;
	bd:format ""^^xsd:string ;
	bd:ctAndFormat ""^^xsd:string ;
	bd:compliance <http://www.assero.co.uk/CSN#da9f1092-7a20-4c97-9144-8bac2e72d1ea> ;
.
<http://www.cdisc.org/CM/V1#IG_DVCMROUTE>
	rdf:type bd:SdtmDomainVariable ;
	isoC:label "Route of Administration"^^xsd:string ;
	bd:rule ""^^xsd:string ;
	bd:ordinal "26"^^xsd:positiveInteger ;
	bd:name "CMROUTE"^^xsd:string ;
	bd:description "Route of administration for the intervention. Examples: \"ORAL\", \"INTRAVENOUS\"."^^xsd:string ;
	bd:format ""^^xsd:string ;
	bd:ctAndFormat "(ROUTE)"^^xsd:string ;
	bd:compliance <http://www.assero.co.uk/CSN#da9f1092-7a20-4c97-9144-8bac2e72d1ea> ;
.
<http://www.cdisc.org/CM/V1#IG_DVCMADJ>
	rdf:type bd:SdtmDomainVariable ;
	isoC:label "Reason for Dose Adjustment"^^xsd:string ;
	bd:rule ""^^xsd:string ;
	bd:ordinal "27"^^xsd:positiveInteger ;
	bd:name "CMADJ"^^xsd:string ;
	bd:description "Describes reason or explanation of why a dose is adjusted. Examples: \"ADVERSE EVENT\", \"INSUFFICIENT RESPONSE\", \"NON-MEDICAL REASON\"."^^xsd:string ;
	bd:format ""^^xsd:string ;
	bd:ctAndFormat ""^^xsd:string ;
	bd:compliance <http://www.assero.co.uk/CSN#da9f1092-7a20-4c97-9144-8bac2e72d1ea> ;
.
<http://www.cdisc.org/CM/V1#IG_DVCMRSDISC>
	rdf:type bd:SdtmDomainVariable ;
	isoC:label "Reason the Intervention Was Discontinued"^^xsd:string ;
	bd:rule ""^^xsd:string ;
	bd:ordinal "28"^^xsd:positiveInteger ;
	bd:name "CMRSDISC"^^xsd:string ;
	bd:description "When dosing of a treatment is recorded over multiple successive records, this variable is applicable only for the (chronologically) last record for the treatment."^^xsd:string ;
	bd:format ""^^xsd:string ;
	bd:ctAndFormat ""^^xsd:string ;
	bd:compliance <http://www.assero.co.uk/CSN#da9f1092-7a20-4c97-9144-8bac2e72d1ea> ;
.
<http://www.cdisc.org/CM/V1#IG_DVTAETORD>
	rdf:type bd:SdtmDomainVariable ;
	isoC:label "Planned Order of Element within Arm"^^xsd:string ;
	bd:rule ""^^xsd:string ;
	bd:ordinal "29"^^xsd:positiveInteger ;
	bd:name "TAETORD"^^xsd:string ;
	bd:description "Number that gives the planned order of the Element within the Arm for the Element in which the medication administration started. Null for medications that started before study participation."^^xsd:string ;
	bd:format ""^^xsd:string ;
	bd:ctAndFormat ""^^xsd:string ;
	bd:compliance <http://www.assero.co.uk/CSN#da9f1092-7a20-4c97-9144-8bac2e72d1ea> ;
.
<http://www.cdisc.org/CM/V1#IG_DVEPOCH>
	rdf:type bd:SdtmDomainVariable ;
	isoC:label "Epoch"^^xsd:string ;
	bd:rule ""^^xsd:string ;
	bd:ordinal "30"^^xsd:positiveInteger ;
	bd:name "EPOCH"^^xsd:string ;
	bd:description "Epoch associated with the start date/time of the medication administration. Null for medications that started before study participation."^^xsd:string ;
	bd:format ""^^xsd:string ;
	bd:ctAndFormat "(EPOCH)"^^xsd:string ;
	bd:compliance <http://www.assero.co.uk/CSN#da9f1092-7a20-4c97-9144-8bac2e72d1ea> ;
.
<http://www.cdisc.org/CM/V1#IG_DVCMSTDTC>
	rdf:type bd:SdtmDomainVariable ;
	isoC:label "Start Date/Time of Medication"^^xsd:string ;
	bd:rule ""^^xsd:string ;
	bd:ordinal "31"^^xsd:positiveInteger ;
	bd:name "CMSTDTC"^^xsd:string ;
	bd:description "Start date/time of the medication administration represented in ISO 8601 character format."^^xsd:string ;
	bd:format ""^^xsd:string ;
	bd:ctAndFormat "ISO 8601"^^xsd:string ;
	bd:compliance <http://www.assero.co.uk/CSN#da9f1092-7a20-4c97-9144-8bac2e72d1ea> ;
.
<http://www.cdisc.org/CM/V1#IG_DVCMENDTC>
	rdf:type bd:SdtmDomainVariable ;
	isoC:label "End Date/Time of Medication"^^xsd:string ;
	bd:rule ""^^xsd:string ;
	bd:ordinal "32"^^xsd:positiveInteger ;
	bd:name "CMENDTC"^^xsd:string ;
	bd:description "End date/time of the medication administration represented in ISO 8601 character format."^^xsd:string ;
	bd:format ""^^xsd:string ;
	bd:ctAndFormat "ISO 8601"^^xsd:string ;
	bd:compliance <http://www.assero.co.uk/CSN#da9f1092-7a20-4c97-9144-8bac2e72d1ea> ;
.
<http://www.cdisc.org/CM/V1#IG_DVCMSTDY>
	rdf:type bd:SdtmDomainVariable ;
	isoC:label "Study Day of Start of Medication"^^xsd:string ;
	bd:rule ""^^xsd:string ;
	bd:ordinal "33"^^xsd:positiveInteger ;
	bd:name "CMSTDY"^^xsd:string ;
	bd:description "Study day of start of medication relative to the sponsor-defined RFSTDTC."^^xsd:string ;
	bd:format ""^^xsd:string ;
	bd:ctAndFormat ""^^xsd:string ;
	bd:compliance <http://www.assero.co.uk/CSN#da9f1092-7a20-4c97-9144-8bac2e72d1ea> ;
.
<http://www.cdisc.org/CM/V1#IG_DVCMENDY>
	rdf:type bd:SdtmDomainVariable ;
	isoC:label "Study Day of End of Medication"^^xsd:string ;
	bd:rule ""^^xsd:string ;
	bd:ordinal "34"^^xsd:positiveInteger ;
	bd:name "CMENDY"^^xsd:string ;
	bd:description "Study day of end of medication relative to the sponsor-defined RFSTDTC."^^xsd:string ;
	bd:format ""^^xsd:string ;
	bd:ctAndFormat ""^^xsd:string ;
	bd:compliance <http://www.assero.co.uk/CSN#da9f1092-7a20-4c97-9144-8bac2e72d1ea> ;
.
<http://www.cdisc.org/CM/V1#IG_DVCMDUR>
	rdf:type bd:SdtmDomainVariable ;
	isoC:label "Duration"^^xsd:string ;
	bd:rule ""^^xsd:string ;
	bd:ordinal "35"^^xsd:positiveInteger ;
	bd:name "CMDUR"^^xsd:string ;
	bd:description "Collected duration for a treatment episode. Used only if collected on the CRF and not derived from start and end date/times."^^xsd:string ;
	bd:format ""^^xsd:string ;
	bd:ctAndFormat "ISO 8601"^^xsd:string ;
	bd:compliance <http://www.assero.co.uk/CSN#da9f1092-7a20-4c97-9144-8bac2e72d1ea> ;
.
<http://www.cdisc.org/CM/V1#IG_DVCMSTRF>
	rdf:type bd:SdtmDomainVariable ;
	isoC:label "Start Relative to Reference Period"^^xsd:string ;
	bd:rule ""^^xsd:string ;
	bd:ordinal "36"^^xsd:positiveInteger ;
	bd:name "CMSTRF"^^xsd:string ;
	bd:description "Describes the start of the medication relative to sponsor-defined reference period. The sponsor-defined reference period is a continuous period of time defined by a discrete starting point and a discrete ending point (represented by RFSTDTC and RFENDTC in Demographics). If information such as \"PRIOR\" was collected, this information may be translated into CMSTRF. Not all values of the codelist are allowable for this variable. See Section 4.4.7, Use of Relative Timing Variables."^^xsd:string ;
	bd:format ""^^xsd:string ;
	bd:ctAndFormat "(STENRF)"^^xsd:string ;
	bd:compliance <http://www.assero.co.uk/CSN#da9f1092-7a20-4c97-9144-8bac2e72d1ea> ;
.
<http://www.cdisc.org/CM/V1#IG_DVCMENRF>
	rdf:type bd:SdtmDomainVariable ;
	isoC:label "End Relative to Reference Period"^^xsd:string ;
	bd:rule ""^^xsd:string ;
	bd:ordinal "37"^^xsd:positiveInteger ;
	bd:name "CMENRF"^^xsd:string ;
	bd:description "Describes the end of the medication relative to the sponsor-defined reference period. The sponsor-defined reference period is a continuous period of time defined by a discrete starting point and a discrete ending point (represented by RFSTDTC and RFENDTC in Demographics). If information such as \"PRIOR\", \"ONGOING, or \"CONTINUING\" was collected, this information may be translated into CMENRF. Not all values of the codelist are allowable for this variable. See Section 4.4.7, Use of Relative Timing Variables."^^xsd:string ;
	bd:format ""^^xsd:string ;
	bd:ctAndFormat "(STENRF)"^^xsd:string ;
	bd:compliance <http://www.assero.co.uk/CSN#da9f1092-7a20-4c97-9144-8bac2e72d1ea> ;
.
<http://www.cdisc.org/CM/V1#IG_DVCMSTRTPT>
	rdf:type bd:SdtmDomainVariable ;
	isoC:label "Start Relative to Reference Time Point"^^xsd:string ;
	bd:rule ""^^xsd:string ;
	bd:ordinal "38"^^xsd:positiveInteger ;
	bd:name "CMSTRTPT"^^xsd:string ;
	bd:description "Identifies the start of the medication as being before or after the sponsor-defined reference time point defined by variable CMSTTPT. Not all values of the codelist are allowable for this variable. See Section 4.4.7, Use of Relative Timing Variables."^^xsd:string ;
	bd:format ""^^xsd:string ;
	bd:ctAndFormat "(STENRF)"^^xsd:string ;
	bd:compliance <http://www.assero.co.uk/CSN#da9f1092-7a20-4c97-9144-8bac2e72d1ea> ;
.
<http://www.cdisc.org/CM/V1#IG_DVCMSTTPT>
	rdf:type bd:SdtmDomainVariable ;
	isoC:label "Start Reference Time Point"^^xsd:string ;
	bd:rule ""^^xsd:string ;
	bd:ordinal "39"^^xsd:positiveInteger ;
	bd:name "CMSTTPT"^^xsd:string ;
	bd:description "Description or date/time in ISO 8601 character format of the sponsor-defined reference point referred to by CMSTRTPT. Examples: \"2003-12-15\" or \"VISIT 1\"."^^xsd:string ;
	bd:format ""^^xsd:string ;
	bd:ctAndFormat ""^^xsd:string ;
	bd:compliance <http://www.assero.co.uk/CSN#da9f1092-7a20-4c97-9144-8bac2e72d1ea> ;
.
<http://www.cdisc.org/CM/V1#IG_DVCMENRTPT>
	rdf:type bd:SdtmDomainVariable ;
	isoC:label "End Relative to Reference Time Point"^^xsd:string ;
	bd:rule ""^^xsd:string ;
	bd:ordinal "40"^^xsd:positiveInteger ;
	bd:name "CMENRTPT"^^xsd:string ;
	bd:description "Identifies the end of the medication as being before or after the sponsor-defined reference time point defined by variable CMENTPT. Not all values of the codelist are allowable for this variable. See Section 4.4.7, Use of Relative Timing Variables."^^xsd:string ;
	bd:format ""^^xsd:string ;
	bd:ctAndFormat "(STENRF)"^^xsd:string ;
	bd:compliance <http://www.assero.co.uk/CSN#da9f1092-7a20-4c97-9144-8bac2e72d1ea> ;
.
<http://www.cdisc.org/CM/V1#IG_DVCMENTPT>
	rdf:type bd:SdtmDomainVariable ;
	isoC:label "End Reference Time Point"^^xsd:string ;
	bd:rule ""^^xsd:string ;
	bd:ordinal "41"^^xsd:positiveInteger ;
	bd:name "CMENTPT"^^xsd:string ;
	bd:description "Description or date/time in ISO 8601 character format of the sponsor-defined reference point referred to by CMENRTPT. Examples: \"2003-12-25\" or \"VISIT 2\"."^^xsd:string ;
	bd:format ""^^xsd:string ;
	bd:ctAndFormat ""^^xsd:string ;
	bd:compliance <http://www.assero.co.uk/CSN#da9f1092-7a20-4c97-9144-8bac2e72d1ea> ;
.
<http://www.cdisc.org/EX/V1#IG>
	rdf:type bd:SdtmDomain ;
	isoC:label "Exposure"^^xsd:string ;
	isoT:hasState <http://www.cdisc.org/EX/V1#IG_RS> ;
	isoT:hasIdentifier <http://www.cdisc.org/EX/V1#IG_SI> ;
	isoT:origin ""^^xsd:string ;
	isoT:changeDescription ""^^xsd:string ;
	isoT:creationDate "2020-01-01T00:00:00+00:00"^^xsd:dateTime ;
	isoT:lastChangeDate "2020-01-01T00:00:00+00:00"^^xsd:dateTime ;
	isoT:explanatoryComment ""^^xsd:string ;
	bd:rule ""^^xsd:string ;
	bd:ordinal "1"^^xsd:positiveInteger ;
	bd:includesColumn <http://www.cdisc.org/EX/V1#IG_DVSTUDYID> ;
	bd:includesColumn <http://www.cdisc.org/EX/V1#IG_DVDOMAIN> ;
	bd:includesColumn <http://www.cdisc.org/EX/V1#IG_DVUSUBJID> ;
	bd:includesColumn <http://www.cdisc.org/EX/V1#IG_DVEXSEQ> ;
	bd:includesColumn <http://www.cdisc.org/EX/V1#IG_DVEXGRPID> ;
	bd:includesColumn <http://www.cdisc.org/EX/V1#IG_DVEXREFID> ;
	bd:includesColumn <http://www.cdisc.org/EX/V1#IG_DVEXSPID> ;
	bd:includesColumn <http://www.cdisc.org/EX/V1#IG_DVEXLNKID> ;
	bd:includesColumn <http://www.cdisc.org/EX/V1#IG_DVEXLNKGRP> ;
	bd:includesColumn <http://www.cdisc.org/EX/V1#IG_DVEXTRT> ;
	bd:includesColumn <http://www.cdisc.org/EX/V1#IG_DVEXCAT> ;
	bd:includesColumn <http://www.cdisc.org/EX/V1#IG_DVEXSCAT> ;
	bd:includesColumn <http://www.cdisc.org/EX/V1#IG_DVEXDOSE> ;
	bd:includesColumn <http://www.cdisc.org/EX/V1#IG_DVEXDOSTXT> ;
	bd:includesColumn <http://www.cdisc.org/EX/V1#IG_DVEXDOSU> ;
	bd:includesColumn <http://www.cdisc.org/EX/V1#IG_DVEXDOSFRM> ;
	bd:includesColumn <http://www.cdisc.org/EX/V1#IG_DVEXDOSFRQ> ;
	bd:includesColumn <http://www.cdisc.org/EX/V1#IG_DVEXDOSRGM> ;
	bd:includesColumn <http://www.cdisc.org/EX/V1#IG_DVEXROUTE> ;
	bd:includesColumn <http://www.cdisc.org/EX/V1#IG_DVEXLOT> ;
	bd:includesColumn <http://www.cdisc.org/EX/V1#IG_DVEXLOC> ;
	bd:includesColumn <http://www.cdisc.org/EX/V1#IG_DVEXLAT> ;
	bd:includesColumn <http://www.cdisc.org/EX/V1#IG_DVEXDIR> ;
	bd:includesColumn <http://www.cdisc.org/EX/V1#IG_DVEXFAST> ;
	bd:includesColumn <http://www.cdisc.org/EX/V1#IG_DVEXADJ> ;
	bd:includesColumn <http://www.cdisc.org/EX/V1#IG_DVTAETORD> ;
	bd:includesColumn <http://www.cdisc.org/EX/V1#IG_DVEPOCH> ;
	bd:includesColumn <http://www.cdisc.org/EX/V1#IG_DVEXSTDTC> ;
	bd:includesColumn <http://www.cdisc.org/EX/V1#IG_DVEXENDTC> ;
	bd:includesColumn <http://www.cdisc.org/EX/V1#IG_DVEXSTDY> ;
	bd:includesColumn <http://www.cdisc.org/EX/V1#IG_DVEXENDY> ;
	bd:includesColumn <http://www.cdisc.org/EX/V1#IG_DVEXDUR> ;
	bd:includesColumn <http://www.cdisc.org/EX/V1#IG_DVEXTPT> ;
	bd:includesColumn <http://www.cdisc.org/EX/V1#IG_DVEXTPTNUM> ;
	bd:includesColumn <http://www.cdisc.org/EX/V1#IG_DVEXELTM> ;
	bd:includesColumn <http://www.cdisc.org/EX/V1#IG_DVEXTPTREF> ;
	bd:includesColumn <http://www.cdisc.org/EX/V1#IG_DVEXRFTDTC> ;
	bd:prefix ""^^xsd:string ;
	bd:structure ""^^xsd:string ;
.
<http://www.cdisc.org/EX/V1#IG_RS>
	rdf:type isoR:RegistrationState ;
	isoR:registrationStatus "Standard"^^xsd:string ;
	isoR:administrativeNote ""^^xsd:string ;
	isoR:effectiveDate "2016-01-01T00:00:00+00:00"^^xsd:dateTime ;
	isoR:untilDate "2016-01-01T00:00:00+00:00"^^xsd:dateTime ;
	isoR:unresolvedIssue ""^^xsd:string ;
	isoR:administrativeStatus ""^^xsd:string ;
	isoR:previousState "Standard"^^xsd:string ;
	isoR:multipleEdit "false"^^xsd:boolean ;
	isoR:byAuthority <http://www.assero.co.uk/RA#DUNS084433759> ;
.
<http://www.cdisc.org/EX/V1#IG_SI>
	rdf:type isoI:ScopedIdentifier ;
	isoI:identifier "EX"^^xsd:string ;
	isoI:versionLabel "1.1.1"^^xsd:string ;
	isoI:version "1"^^xsd:positiveInteger ;
	isoI:semanticVersion "1.1.1"^^xsd:string ;
	isoI:hasScope <http://www.assero.co.uk/NS#CDISC> ;
.
<http://www.cdisc.org/EX/V1#IG_DVSTUDYID>
	rdf:type bd:SdtmDomainVariable ;
	isoC:label "Study Identifier"^^xsd:string ;
	bd:rule ""^^xsd:string ;
	bd:ordinal "1"^^xsd:positiveInteger ;
	bd:name "STUDYID"^^xsd:string ;
	bd:description "Unique identifier for a study."^^xsd:string ;
	bd:format ""^^xsd:string ;
	bd:ctAndFormat ""^^xsd:string ;
	bd:compliance <http://www.assero.co.uk/CSN#8f112ba7-caa3-4f34-a9fc-8bc808b13955> ;
.
<http://www.cdisc.org/EX/V1#IG_DVDOMAIN>
	rdf:type bd:SdtmDomainVariable ;
	isoC:label "Domain Abbreviation"^^xsd:string ;
	bd:rule ""^^xsd:string ;
	bd:ordinal "2"^^xsd:positiveInteger ;
	bd:name "DOMAIN"^^xsd:string ;
	bd:description "Two-character abbreviation for the domain."^^xsd:string ;
	bd:format ""^^xsd:string ;
	bd:ctAndFormat "EX"^^xsd:string ;
	bd:compliance <http://www.assero.co.uk/CSN#8f112ba7-caa3-4f34-a9fc-8bc808b13955> ;
.
<http://www.cdisc.org/EX/V1#IG_DVUSUBJID>
	rdf:type bd:SdtmDomainVariable ;
	isoC:label "Unique Subject Identifier"^^xsd:string ;
	bd:rule ""^^xsd:string ;
	bd:ordinal "3"^^xsd:positiveInteger ;
	bd:name "USUBJID"^^xsd:string ;
	bd:description "Identifier used to uniquely identify a subject across all studies for all applications or submissions involving the product."^^xsd:string ;
	bd:format ""^^xsd:string ;
	bd:ctAndFormat ""^^xsd:string ;
	bd:compliance <http://www.assero.co.uk/CSN#8f112ba7-caa3-4f34-a9fc-8bc808b13955> ;
.
<http://www.cdisc.org/EX/V1#IG_DVEXSEQ>
	rdf:type bd:SdtmDomainVariable ;
	isoC:label "Sequence Number"^^xsd:string ;
	bd:rule ""^^xsd:string ;
	bd:ordinal "4"^^xsd:positiveInteger ;
	bd:name "EXSEQ"^^xsd:string ;
	bd:description "Sequence Number given to ensure uniqueness of subject records within a domain. May be any valid number."^^xsd:string ;
	bd:format ""^^xsd:string ;
	bd:ctAndFormat ""^^xsd:string ;
	bd:compliance <http://www.assero.co.uk/CSN#8f112ba7-caa3-4f34-a9fc-8bc808b13955> ;
.
<http://www.cdisc.org/EX/V1#IG_DVEXGRPID>
	rdf:type bd:SdtmDomainVariable ;
	isoC:label "Group ID"^^xsd:string ;
	bd:rule ""^^xsd:string ;
	bd:ordinal "5"^^xsd:positiveInteger ;
	bd:name "EXGRPID"^^xsd:string ;
	bd:description "Used to tie together a block of related records in a single domain for a subject."^^xsd:string ;
	bd:format ""^^xsd:string ;
	bd:ctAndFormat ""^^xsd:string ;
	bd:compliance <http://www.assero.co.uk/CSN#da9f1092-7a20-4c97-9144-8bac2e72d1ea> ;
.
<http://www.cdisc.org/EX/V1#IG_DVEXREFID>
	rdf:type bd:SdtmDomainVariable ;
	isoC:label "Reference ID"^^xsd:string ;
	bd:rule ""^^xsd:string ;
	bd:ordinal "6"^^xsd:positiveInteger ;
	bd:name "EXREFID"^^xsd:string ;
	bd:description "Internal or external identifier (e.g., kit number, bottle label, vial identifier)."^^xsd:string ;
	bd:format ""^^xsd:string ;
	bd:ctAndFormat ""^^xsd:string ;
	bd:compliance <http://www.assero.co.uk/CSN#da9f1092-7a20-4c97-9144-8bac2e72d1ea> ;
.
<http://www.cdisc.org/EX/V1#IG_DVEXSPID>
	rdf:type bd:SdtmDomainVariable ;
	isoC:label "Sponsor-Defined Identifier"^^xsd:string ;
	bd:rule ""^^xsd:string ;
	bd:ordinal "7"^^xsd:positiveInteger ;
	bd:name "EXSPID"^^xsd:string ;
	bd:description "Sponsor-defined reference number. Perhaps pre-printed on the CRF as an explicit line identifier or defined in the sponsor's operational database. Example: Line number on a CRF Page."^^xsd:string ;
	bd:format ""^^xsd:string ;
	bd:ctAndFormat ""^^xsd:string ;
	bd:compliance <http://www.assero.co.uk/CSN#da9f1092-7a20-4c97-9144-8bac2e72d1ea> ;
.
<http://www.cdisc.org/EX/V1#IG_DVEXLNKID>
	rdf:type bd:SdtmDomainVariable ;
	isoC:label "Link ID"^^xsd:string ;
	bd:rule ""^^xsd:string ;
	bd:ordinal "8"^^xsd:positiveInteger ;
	bd:name "EXLNKID"^^xsd:string ;
	bd:description "Identifier used to link related records across domains."^^xsd:string ;
	bd:format ""^^xsd:string ;
	bd:ctAndFormat ""^^xsd:string ;
	bd:compliance <http://www.assero.co.uk/CSN#da9f1092-7a20-4c97-9144-8bac2e72d1ea> ;
.
<http://www.cdisc.org/EX/V1#IG_DVEXLNKGRP>
	rdf:type bd:SdtmDomainVariable ;
	isoC:label "Link Group ID"^^xsd:string ;
	bd:rule ""^^xsd:string ;
	bd:ordinal "9"^^xsd:positiveInteger ;
	bd:name "EXLNKGRP"^^xsd:string ;
	bd:description "Identifier used to link related, grouped records across domains."^^xsd:string ;
	bd:format ""^^xsd:string ;
	bd:ctAndFormat ""^^xsd:string ;
	bd:compliance <http://www.assero.co.uk/CSN#da9f1092-7a20-4c97-9144-8bac2e72d1ea> ;
.
<http://www.cdisc.org/EX/V1#IG_DVEXTRT>
	rdf:type bd:SdtmDomainVariable ;
	isoC:label "Name of Treatment"^^xsd:string ;
	bd:rule ""^^xsd:string ;
	bd:ordinal "10"^^xsd:positiveInteger ;
	bd:name "EXTRT"^^xsd:string ;
	bd:description "Name of the protocol-specified study treatment given during the dosing period for the observation."^^xsd:string ;
	bd:format ""^^xsd:string ;
	bd:ctAndFormat ""^^xsd:string ;
	bd:compliance <http://www.assero.co.uk/CSN#8f112ba7-caa3-4f34-a9fc-8bc808b13955> ;
.
<http://www.cdisc.org/EX/V1#IG_DVEXCAT>
	rdf:type bd:SdtmDomainVariable ;
	isoC:label "Category of Treatment"^^xsd:string ;
	bd:rule ""^^xsd:string ;
	bd:ordinal "11"^^xsd:positiveInteger ;
	bd:name "EXCAT"^^xsd:string ;
	bd:description "Used to define a category of EXTRT values."^^xsd:string ;
	bd:format ""^^xsd:string ;
	bd:ctAndFormat ""^^xsd:string ;
	bd:compliance <http://www.assero.co.uk/CSN#da9f1092-7a20-4c97-9144-8bac2e72d1ea> ;
.
<http://www.cdisc.org/EX/V1#IG_DVEXSCAT>
	rdf:type bd:SdtmDomainVariable ;
	isoC:label "Subcategory of Treatment"^^xsd:string ;
	bd:rule ""^^xsd:string ;
	bd:ordinal "12"^^xsd:positiveInteger ;
	bd:name "EXSCAT"^^xsd:string ;
	bd:description "A further categorization of EXCAT values."^^xsd:string ;
	bd:format ""^^xsd:string ;
	bd:ctAndFormat ""^^xsd:string ;
	bd:compliance <http://www.assero.co.uk/CSN#da9f1092-7a20-4c97-9144-8bac2e72d1ea> ;
.
<http://www.cdisc.org/EX/V1#IG_DVEXDOSE>
	rdf:type bd:SdtmDomainVariable ;
	isoC:label "Dose"^^xsd:string ;
	bd:rule ""^^xsd:string ;
	bd:ordinal "13"^^xsd:positiveInteger ;
	bd:name "EXDOSE"^^xsd:string ;
	bd:description "Amount of EXTRT when numeric. Not populated when EXDOSTXT is populated."^^xsd:string ;
	bd:format ""^^xsd:string ;
	bd:ctAndFormat ""^^xsd:string ;
	bd:compliance <http://www.assero.co.uk/CSN#fc544083-2437-4ec0-97f4-767598bee682> ;
.
<http://www.cdisc.org/EX/V1#IG_DVEXDOSTXT>
	rdf:type bd:SdtmDomainVariable ;
	isoC:label "Dose Description"^^xsd:string ;
	bd:rule ""^^xsd:string ;
	bd:ordinal "14"^^xsd:positiveInteger ;
	bd:name "EXDOSTXT"^^xsd:string ;
	bd:description "Amount of EXTRT when non-numeric. Dosing amounts or a range of dosing information collected in text form. Example: 200-400. Not populated when EXDOSE is populated."^^xsd:string ;
	bd:format ""^^xsd:string ;
	bd:ctAndFormat ""^^xsd:string ;
	bd:compliance <http://www.assero.co.uk/CSN#da9f1092-7a20-4c97-9144-8bac2e72d1ea> ;
.
<http://www.cdisc.org/EX/V1#IG_DVEXDOSU>
	rdf:type bd:SdtmDomainVariable ;
	isoC:label "Dose Units"^^xsd:string ;
	bd:rule ""^^xsd:string ;
	bd:ordinal "15"^^xsd:positiveInteger ;
	bd:name "EXDOSU"^^xsd:string ;
	bd:description "Units for EXDOSE, EXDOSTOT, or EXDOSTXT representing protocol-specified values. Examples: \"ng\", \"mg\", \"mg/kg\", \"mg/m2\"."^^xsd:string ;
	bd:format ""^^xsd:string ;
	bd:ctAndFormat "(UNIT)"^^xsd:string ;
	bd:compliance <http://www.assero.co.uk/CSN#fc544083-2437-4ec0-97f4-767598bee682> ;
.
<http://www.cdisc.org/EX/V1#IG_DVEXDOSFRM>
	rdf:type bd:SdtmDomainVariable ;
	isoC:label "Dose Form"^^xsd:string ;
	bd:rule ""^^xsd:string ;
	bd:ordinal "16"^^xsd:positiveInteger ;
	bd:name "EXDOSFRM"^^xsd:string ;
	bd:description "Dose form for EXTRT. Examples: \"TABLET\", \"LOTION\"."^^xsd:string ;
	bd:format ""^^xsd:string ;
	bd:ctAndFormat "(FRM)"^^xsd:string ;
	bd:compliance <http://www.assero.co.uk/CSN#fc544083-2437-4ec0-97f4-767598bee682> ;
.
<http://www.cdisc.org/EX/V1#IG_DVEXDOSFRQ>
	rdf:type bd:SdtmDomainVariable ;
	isoC:label "Dosing Frequency per Interval"^^xsd:string ;
	bd:rule ""^^xsd:string ;
	bd:ordinal "17"^^xsd:positiveInteger ;
	bd:name "EXDOSFRQ"^^xsd:string ;
	bd:description "Usually expressed as the number of repeated administrations of EXDOSE within a specific time period. Examples: \"Q2H\", \"QD\", \"BID\"."^^xsd:string ;
	bd:format ""^^xsd:string ;
	bd:ctAndFormat "(FREQ)"^^xsd:string ;
	bd:compliance <http://www.assero.co.uk/CSN#da9f1092-7a20-4c97-9144-8bac2e72d1ea> ;
.
<http://www.cdisc.org/EX/V1#IG_DVEXDOSRGM>
	rdf:type bd:SdtmDomainVariable ;
	isoC:label "Intended Dose Regimen"^^xsd:string ;
	bd:rule ""^^xsd:string ;
	bd:ordinal "18"^^xsd:positiveInteger ;
	bd:name "EXDOSRGM"^^xsd:string ;
	bd:description "Text description of the intended schedule or regimen for the Intervention. Example: \"TWO WEEKS ON, TWO WEEKS OFF\"."^^xsd:string ;
	bd:format ""^^xsd:string ;
	bd:ctAndFormat ""^^xsd:string ;
	bd:compliance <http://www.assero.co.uk/CSN#da9f1092-7a20-4c97-9144-8bac2e72d1ea> ;
.
<http://www.cdisc.org/EX/V1#IG_DVEXROUTE>
	rdf:type bd:SdtmDomainVariable ;
	isoC:label "Route of Administration"^^xsd:string ;
	bd:rule ""^^xsd:string ;
	bd:ordinal "19"^^xsd:positiveInteger ;
	bd:name "EXROUTE"^^xsd:string ;
	bd:description "Route of administration for the intervention. Examples: \"ORAL\", \"INTRAVENOUS\"."^^xsd:string ;
	bd:format ""^^xsd:string ;
	bd:ctAndFormat "(ROUTE)"^^xsd:string ;
	bd:compliance <http://www.assero.co.uk/CSN#da9f1092-7a20-4c97-9144-8bac2e72d1ea> ;
.
<http://www.cdisc.org/EX/V1#IG_DVEXLOT>
	rdf:type bd:SdtmDomainVariable ;
	isoC:label "Lot Number"^^xsd:string ;
	bd:rule ""^^xsd:string ;
	bd:ordinal "20"^^xsd:positiveInteger ;
	bd:name "EXLOT"^^xsd:string ;
	bd:description "Lot number of the intervention product."^^xsd:string ;
	bd:format ""^^xsd:string ;
	bd:ctAndFormat ""^^xsd:string ;
	bd:compliance <http://www.assero.co.uk/CSN#da9f1092-7a20-4c97-9144-8bac2e72d1ea> ;
.
<http://www.cdisc.org/EX/V1#IG_DVEXLOC>
	rdf:type bd:SdtmDomainVariable ;
	isoC:label "Location of Dose Administration"^^xsd:string ;
	bd:rule ""^^xsd:string ;
	bd:ordinal "21"^^xsd:positiveInteger ;
	bd:name "EXLOC"^^xsd:string ;
	bd:description "Specifies location of administration. Examples: \"ARM\", \"LIP\"."^^xsd:string ;
	bd:format ""^^xsd:string ;
	bd:ctAndFormat "(LOC)"^^xsd:string ;
	bd:compliance <http://www.assero.co.uk/CSN#da9f1092-7a20-4c97-9144-8bac2e72d1ea> ;
.
<http://www.cdisc.org/EX/V1#IG_DVEXLAT>
	rdf:type bd:SdtmDomainVariable ;
	isoC:label "Laterality"^^xsd:string ;
	bd:rule ""^^xsd:string ;
	bd:ordinal "22"^^xsd:positiveInteger ;
	bd:name "EXLAT"^^xsd:string ;
	bd:description "Qualifier for anatomical location further detailing laterality of the intervention administration. Examples: \"LEFT\", \"RIGHT\"."^^xsd:string ;
	bd:format ""^^xsd:string ;
	bd:ctAndFormat "(LAT)"^^xsd:string ;
	bd:compliance <http://www.assero.co.uk/CSN#da9f1092-7a20-4c97-9144-8bac2e72d1ea> ;
.
<http://www.cdisc.org/EX/V1#IG_DVEXDIR>
	rdf:type bd:SdtmDomainVariable ;
	isoC:label "Directionality"^^xsd:string ;
	bd:rule ""^^xsd:string ;
	bd:ordinal "23"^^xsd:positiveInteger ;
	bd:name "EXDIR"^^xsd:string ;
	bd:description "Qualifier for anatomical location further detailing directionality. Examples: \"ANTERIOR\", \"LOWER\", \"PROXIMAL\", \"UPPER\"."^^xsd:string ;
	bd:format ""^^xsd:string ;
	bd:ctAndFormat "(DIR)"^^xsd:string ;
	bd:compliance <http://www.assero.co.uk/CSN#da9f1092-7a20-4c97-9144-8bac2e72d1ea> ;
.
<http://www.cdisc.org/EX/V1#IG_DVEXFAST>
	rdf:type bd:SdtmDomainVariable ;
	isoC:label "Fasting Status"^^xsd:string ;
	bd:rule ""^^xsd:string ;
	bd:ordinal "24"^^xsd:positiveInteger ;
	bd:name "EXFAST"^^xsd:string ;
	bd:description "Indicator used to identify fasting status. Examples: \"Y\", \"N\"."^^xsd:string ;
	bd:format ""^^xsd:string ;
	bd:ctAndFormat "(NY)"^^xsd:string ;
	bd:compliance <http://www.assero.co.uk/CSN#da9f1092-7a20-4c97-9144-8bac2e72d1ea> ;
.
<http://www.cdisc.org/EX/V1#IG_DVEXADJ>
	rdf:type bd:SdtmDomainVariable ;
	isoC:label "Reason for Dose Adjustment"^^xsd:string ;
	bd:rule ""^^xsd:string ;
	bd:ordinal "25"^^xsd:positiveInteger ;
	bd:name "EXADJ"^^xsd:string ;
	bd:description "Describes reason or explanation of why a dose is adjusted."^^xsd:string ;
	bd:format ""^^xsd:string ;
	bd:ctAndFormat ""^^xsd:string ;
	bd:compliance <http://www.assero.co.uk/CSN#da9f1092-7a20-4c97-9144-8bac2e72d1ea> ;
.
<http://www.cdisc.org/EX/V1#IG_DVTAETORD>
	rdf:type bd:SdtmDomainVariable ;
	isoC:label "Planned Order of Element within Arm"^^xsd:string ;
	bd:rule ""^^xsd:string ;
	bd:ordinal "26"^^xsd:positiveInteger ;
	bd:name "TAETORD"^^xsd:string ;
	bd:description "Number that gives the planned order of the Element within the Arm."^^xsd:string ;
	bd:format ""^^xsd:string ;
	bd:ctAndFormat ""^^xsd:string ;
	bd:compliance <http://www.assero.co.uk/CSN#da9f1092-7a20-4c97-9144-8bac2e72d1ea> ;
.
<http://www.cdisc.org/EX/V1#IG_DVEPOCH>
	rdf:type bd:SdtmDomainVariable ;
	isoC:label "Epoch"^^xsd:string ;
	bd:rule ""^^xsd:string ;
	bd:ordinal "27"^^xsd:positiveInteger ;
	bd:name "EPOCH"^^xsd:string ;
	bd:description "Trial Epoch of the Exposure record. Examples: \"RUN-IN\", \"TREATMENT\"."^^xsd:string ;
	bd:format ""^^xsd:string ;
	bd:ctAndFormat "(EPOCH)"^^xsd:string ;
	bd:compliance <http://www.assero.co.uk/CSN#da9f1092-7a20-4c97-9144-8bac2e72d1ea> ;
.
<http://www.cdisc.org/EX/V1#IG_DVEXSTDTC>
	rdf:type bd:SdtmDomainVariable ;
	isoC:label "Start Date/Time of Treatment"^^xsd:string ;
	bd:rule ""^^xsd:string ;
	bd:ordinal "28"^^xsd:positiveInteger ;
	bd:name "EXSTDTC"^^xsd:string ;
	bd:description "The date/time when administration of the treatment indicated by EXTRT and EXDOSE began."^^xsd:string ;
	bd:format ""^^xsd:string ;
	bd:ctAndFormat "ISO 8601"^^xsd:string ;
	bd:compliance <http://www.assero.co.uk/CSN#fc544083-2437-4ec0-97f4-767598bee682> ;
.
<http://www.cdisc.org/EX/V1#IG_DVEXENDTC>
	rdf:type bd:SdtmDomainVariable ;
	isoC:label "End Date/Time of Treatment"^^xsd:string ;
	bd:rule ""^^xsd:string ;
	bd:ordinal "29"^^xsd:positiveInteger ;
	bd:name "EXENDTC"^^xsd:string ;
	bd:description "The date/time when administration of the treatment indicated by EXTRT and EXDOSE ended. For administrations considered given at a point in time (e.g., oral tablet, pre-filled syringe injection), where only an administration date/time is collected, EXSTDTC should be copied to EXENDTC as the standard representation."^^xsd:string ;
	bd:format ""^^xsd:string ;
	bd:ctAndFormat "ISO 8601"^^xsd:string ;
	bd:compliance <http://www.assero.co.uk/CSN#fc544083-2437-4ec0-97f4-767598bee682> ;
.
<http://www.cdisc.org/EX/V1#IG_DVEXSTDY>
	rdf:type bd:SdtmDomainVariable ;
	isoC:label "Study Day of Start of Treatment"^^xsd:string ;
	bd:rule ""^^xsd:string ;
	bd:ordinal "30"^^xsd:positiveInteger ;
	bd:name "EXSTDY"^^xsd:string ;
	bd:description "Study day of EXSTDTC relative to DM.RFSTDTC."^^xsd:string ;
	bd:format ""^^xsd:string ;
	bd:ctAndFormat ""^^xsd:string ;
	bd:compliance <http://www.assero.co.uk/CSN#da9f1092-7a20-4c97-9144-8bac2e72d1ea> ;
.
<http://www.cdisc.org/EX/V1#IG_DVEXENDY>
	rdf:type bd:SdtmDomainVariable ;
	isoC:label "Study Day of End of Treatment"^^xsd:string ;
	bd:rule ""^^xsd:string ;
	bd:ordinal "31"^^xsd:positiveInteger ;
	bd:name "EXENDY"^^xsd:string ;
	bd:description "Study day of EXENDTC relative to DM.RFSTDTC."^^xsd:string ;
	bd:format ""^^xsd:string ;
	bd:ctAndFormat ""^^xsd:string ;
	bd:compliance <http://www.assero.co.uk/CSN#da9f1092-7a20-4c97-9144-8bac2e72d1ea> ;
.
<http://www.cdisc.org/EX/V1#IG_DVEXDUR>
	rdf:type bd:SdtmDomainVariable ;
	isoC:label "Duration of Treatment"^^xsd:string ;
	bd:rule ""^^xsd:string ;
	bd:ordinal "32"^^xsd:positiveInteger ;
	bd:name "EXDUR"^^xsd:string ;
	bd:description "Collected duration of administration. Used only if collected on the CRF and not derived from start and end date/times."^^xsd:string ;
	bd:format ""^^xsd:string ;
	bd:ctAndFormat "ISO 8601"^^xsd:string ;
	bd:compliance <http://www.assero.co.uk/CSN#da9f1092-7a20-4c97-9144-8bac2e72d1ea> ;
.
<http://www.cdisc.org/EX/V1#IG_DVEXTPT>
	rdf:type bd:SdtmDomainVariable ;
	isoC:label "Planned Time Point Name"^^xsd:string ;
	bd:rule ""^^xsd:string ;
	bd:ordinal "33"^^xsd:positiveInteger ;
	bd:name "EXTPT"^^xsd:string ;
	bd:description "1. Text Description of time when administration should occur. 2. This may be represented as an elapsed time relative to a fixed reference point, such as time of last dose. See EXTPTNUM and EXTPTREF."^^xsd:string ;
	bd:format ""^^xsd:string ;
	bd:ctAndFormat ""^^xsd:string ;
	bd:compliance <http://www.assero.co.uk/CSN#da9f1092-7a20-4c97-9144-8bac2e72d1ea> ;
.
<http://www.cdisc.org/EX/V1#IG_DVEXTPTNUM>
	rdf:type bd:SdtmDomainVariable ;
	isoC:label "Planned Time Point Number"^^xsd:string ;
	bd:rule ""^^xsd:string ;
	bd:ordinal "34"^^xsd:positiveInteger ;
	bd:name "EXTPTNUM"^^xsd:string ;
	bd:description "Numerical version of EXTPT to aid in sorting."^^xsd:string ;
	bd:format ""^^xsd:string ;
	bd:ctAndFormat ""^^xsd:string ;
	bd:compliance <http://www.assero.co.uk/CSN#da9f1092-7a20-4c97-9144-8bac2e72d1ea> ;
.
<http://www.cdisc.org/EX/V1#IG_DVEXELTM>
	rdf:type bd:SdtmDomainVariable ;
	isoC:label "Planned Elapsed Time from Time Point Ref"^^xsd:string ;
	bd:rule ""^^xsd:string ;
	bd:ordinal "35"^^xsd:positiveInteger ;
	bd:name "EXELTM"^^xsd:string ;
	bd:description "Planned elapsed time relative to the planned fixed reference (EXTPTREF). This variable is useful where there are repetitive measures. Not a clock time."^^xsd:string ;
	bd:format ""^^xsd:string ;
	bd:ctAndFormat "ISO 8601"^^xsd:string ;
	bd:compliance <http://www.assero.co.uk/CSN#da9f1092-7a20-4c97-9144-8bac2e72d1ea> ;
.
<http://www.cdisc.org/EX/V1#IG_DVEXTPTREF>
	rdf:type bd:SdtmDomainVariable ;
	isoC:label "Time Point Reference"^^xsd:string ;
	bd:rule ""^^xsd:string ;
	bd:ordinal "36"^^xsd:positiveInteger ;
	bd:name "EXTPTREF"^^xsd:string ;
	bd:description "Name of the fixed reference point referred to by EXELTM, EXTPTNUM, and EXTPT. Examples: PREVIOUS DOSE, PREVIOUS MEAL."^^xsd:string ;
	bd:format ""^^xsd:string ;
	bd:ctAndFormat ""^^xsd:string ;
	bd:compliance <http://www.assero.co.uk/CSN#da9f1092-7a20-4c97-9144-8bac2e72d1ea> ;
.
<http://www.cdisc.org/EX/V1#IG_DVEXRFTDTC>
	rdf:type bd:SdtmDomainVariable ;
	isoC:label "Date/Time of Reference Time Point"^^xsd:string ;
	bd:rule ""^^xsd:string ;
	bd:ordinal "37"^^xsd:positiveInteger ;
	bd:name "EXRFTDTC"^^xsd:string ;
	bd:description "Date/time for a fixed reference time point defined by EXTPTREF."^^xsd:string ;
	bd:format ""^^xsd:string ;
	bd:ctAndFormat "ISO 8601"^^xsd:string ;
	bd:compliance <http://www.assero.co.uk/CSN#da9f1092-7a20-4c97-9144-8bac2e72d1ea> ;
.
<http://www.cdisc.org/EC/V1#IG>
	rdf:type bd:SdtmDomain ;
	isoC:label "Exposure as Collected"^^xsd:string ;
	isoT:hasState <http://www.cdisc.org/EC/V1#IG_RS> ;
	isoT:hasIdentifier <http://www.cdisc.org/EC/V1#IG_SI> ;
	isoT:origin ""^^xsd:string ;
	isoT:changeDescription ""^^xsd:string ;
	isoT:creationDate "2020-01-01T00:00:00+00:00"^^xsd:dateTime ;
	isoT:lastChangeDate "2020-01-01T00:00:00+00:00"^^xsd:dateTime ;
	isoT:explanatoryComment ""^^xsd:string ;
	bd:rule ""^^xsd:string ;
	bd:ordinal "1"^^xsd:positiveInteger ;
	bd:includesColumn <http://www.cdisc.org/EC/V1#IG_DVSTUDYID> ;
	bd:includesColumn <http://www.cdisc.org/EC/V1#IG_DVDOMAIN> ;
	bd:includesColumn <http://www.cdisc.org/EC/V1#IG_DVUSUBJID> ;
	bd:includesColumn <http://www.cdisc.org/EC/V1#IG_DVECSEQ> ;
	bd:includesColumn <http://www.cdisc.org/EC/V1#IG_DVECGRPID> ;
	bd:includesColumn <http://www.cdisc.org/EC/V1#IG_DVECREFID> ;
	bd:includesColumn <http://www.cdisc.org/EC/V1#IG_DVECSPID> ;
	bd:includesColumn <http://www.cdisc.org/EC/V1#IG_DVECLNKID> ;
	bd:includesColumn <http://www.cdisc.org/EC/V1#IG_DVECLNKGRP> ;
	bd:includesColumn <http://www.cdisc.org/EC/V1#IG_DVECTRT> ;
	bd:includesColumn <http://www.cdisc.org/EC/V1#IG_DVECMOOD> ;
	bd:includesColumn <http://www.cdisc.org/EC/V1#IG_DVECCAT> ;
	bd:includesColumn <http://www.cdisc.org/EC/V1#IG_DVECSCAT> ;
	bd:includesColumn <http://www.cdisc.org/EC/V1#IG_DVECPRESP> ;
	bd:includesColumn <http://www.cdisc.org/EC/V1#IG_DVECOCCUR> ;
	bd:includesColumn <http://www.cdisc.org/EC/V1#IG_DVECDOSE> ;
	bd:includesColumn <http://www.cdisc.org/EC/V1#IG_DVECDOSTXT> ;
	bd:includesColumn <http://www.cdisc.org/EC/V1#IG_DVECDOSU> ;
	bd:includesColumn <http://www.cdisc.org/EC/V1#IG_DVECDOSFRM> ;
	bd:includesColumn <http://www.cdisc.org/EC/V1#IG_DVECDOSFRQ> ;
	bd:includesColumn <http://www.cdisc.org/EC/V1#IG_DVECDOSTOT> ;
	bd:includesColumn <http://www.cdisc.org/EC/V1#IG_DVECDOSRGM> ;
	bd:includesColumn <http://www.cdisc.org/EC/V1#IG_DVECROUTE> ;
	bd:includesColumn <http://www.cdisc.org/EC/V1#IG_DVECLOT> ;
	bd:includesColumn <http://www.cdisc.org/EC/V1#IG_DVECLOC> ;
	bd:includesColumn <http://www.cdisc.org/EC/V1#IG_DVECLAT> ;
	bd:includesColumn <http://www.cdisc.org/EC/V1#IG_DVECDIR> ;
	bd:includesColumn <http://www.cdisc.org/EC/V1#IG_DVECPORTOT> ;
	bd:includesColumn <http://www.cdisc.org/EC/V1#IG_DVECFAST> ;
	bd:includesColumn <http://www.cdisc.org/EC/V1#IG_DVECPSTRG> ;
	bd:includesColumn <http://www.cdisc.org/EC/V1#IG_DVECPSTRGU> ;
	bd:includesColumn <http://www.cdisc.org/EC/V1#IG_DVECADJ> ;
	bd:includesColumn <http://www.cdisc.org/EC/V1#IG_DVTAETORD> ;
	bd:includesColumn <http://www.cdisc.org/EC/V1#IG_DVEPOCH> ;
	bd:includesColumn <http://www.cdisc.org/EC/V1#IG_DVECSTDTC> ;
	bd:includesColumn <http://www.cdisc.org/EC/V1#IG_DVECENDTC> ;
	bd:includesColumn <http://www.cdisc.org/EC/V1#IG_DVECSTDY> ;
	bd:includesColumn <http://www.cdisc.org/EC/V1#IG_DVECENDY> ;
	bd:includesColumn <http://www.cdisc.org/EC/V1#IG_DVECDUR> ;
	bd:includesColumn <http://www.cdisc.org/EC/V1#IG_DVECTPT> ;
	bd:includesColumn <http://www.cdisc.org/EC/V1#IG_DVECTPTNUM> ;
	bd:includesColumn <http://www.cdisc.org/EC/V1#IG_DVECELTM> ;
	bd:includesColumn <http://www.cdisc.org/EC/V1#IG_DVECTPTREF> ;
	bd:includesColumn <http://www.cdisc.org/EC/V1#IG_DVECRFTDTC> ;
	bd:prefix ""^^xsd:string ;
	bd:structure ""^^xsd:string ;
.
<http://www.cdisc.org/EC/V1#IG_RS>
	rdf:type isoR:RegistrationState ;
	isoR:registrationStatus "Standard"^^xsd:string ;
	isoR:administrativeNote ""^^xsd:string ;
	isoR:effectiveDate "2016-01-01T00:00:00+00:00"^^xsd:dateTime ;
	isoR:untilDate "2016-01-01T00:00:00+00:00"^^xsd:dateTime ;
	isoR:unresolvedIssue ""^^xsd:string ;
	isoR:administrativeStatus ""^^xsd:string ;
	isoR:previousState "Standard"^^xsd:string ;
	isoR:multipleEdit "false"^^xsd:boolean ;
	isoR:byAuthority <http://www.assero.co.uk/RA#DUNS084433759> ;
.
<http://www.cdisc.org/EC/V1#IG_SI>
	rdf:type isoI:ScopedIdentifier ;
	isoI:identifier "EC"^^xsd:string ;
	isoI:versionLabel "1.1.1"^^xsd:string ;
	isoI:version "1"^^xsd:positiveInteger ;
	isoI:semanticVersion "1.1.1"^^xsd:string ;
	isoI:hasScope <http://www.assero.co.uk/NS#CDISC> ;
.
<http://www.cdisc.org/EC/V1#IG_DVSTUDYID>
	rdf:type bd:SdtmDomainVariable ;
	isoC:label "Study Identifier"^^xsd:string ;
	bd:rule ""^^xsd:string ;
	bd:ordinal "1"^^xsd:positiveInteger ;
	bd:name "STUDYID"^^xsd:string ;
	bd:description "Unique identifier for a study."^^xsd:string ;
	bd:format ""^^xsd:string ;
	bd:ctAndFormat ""^^xsd:string ;
	bd:compliance <http://www.assero.co.uk/CSN#8f112ba7-caa3-4f34-a9fc-8bc808b13955> ;
.
<http://www.cdisc.org/EC/V1#IG_DVDOMAIN>
	rdf:type bd:SdtmDomainVariable ;
	isoC:label "Domain Abbreviation"^^xsd:string ;
	bd:rule ""^^xsd:string ;
	bd:ordinal "2"^^xsd:positiveInteger ;
	bd:name "DOMAIN"^^xsd:string ;
	bd:description "Two-character abbreviation for the domain."^^xsd:string ;
	bd:format ""^^xsd:string ;
	bd:ctAndFormat "EC"^^xsd:string ;
	bd:compliance <http://www.assero.co.uk/CSN#8f112ba7-caa3-4f34-a9fc-8bc808b13955> ;
.
<http://www.cdisc.org/EC/V1#IG_DVUSUBJID>
	rdf:type bd:SdtmDomainVariable ;
	isoC:label "Unique Subject Identifier"^^xsd:string ;
	bd:rule ""^^xsd:string ;
	bd:ordinal "3"^^xsd:positiveInteger ;
	bd:name "USUBJID"^^xsd:string ;
	bd:description "Identifier used to uniquely identify a subject across all studies for all applications or submissions involving the product."^^xsd:string ;
	bd:format ""^^xsd:string ;
	bd:ctAndFormat ""^^xsd:string ;
	bd:compliance <http://www.assero.co.uk/CSN#8f112ba7-caa3-4f34-a9fc-8bc808b13955> ;
.
<http://www.cdisc.org/EC/V1#IG_DVECSEQ>
	rdf:type bd:SdtmDomainVariable ;
	isoC:label "Sequence Number"^^xsd:string ;
	bd:rule ""^^xsd:string ;
	bd:ordinal "4"^^xsd:positiveInteger ;
	bd:name "ECSEQ"^^xsd:string ;
	bd:description "Sequence Number given to ensure uniqueness of subject records within a domain. May be any valid number."^^xsd:string ;
	bd:format ""^^xsd:string ;
	bd:ctAndFormat ""^^xsd:string ;
	bd:compliance <http://www.assero.co.uk/CSN#8f112ba7-caa3-4f34-a9fc-8bc808b13955> ;
.
<http://www.cdisc.org/EC/V1#IG_DVECGRPID>
	rdf:type bd:SdtmDomainVariable ;
	isoC:label "Group ID"^^xsd:string ;
	bd:rule ""^^xsd:string ;
	bd:ordinal "5"^^xsd:positiveInteger ;
	bd:name "ECGRPID"^^xsd:string ;
	bd:description "Used to tie together a block of related records in a single domain for a subject."^^xsd:string ;
	bd:format ""^^xsd:string ;
	bd:ctAndFormat ""^^xsd:string ;
	bd:compliance <http://www.assero.co.uk/CSN#da9f1092-7a20-4c97-9144-8bac2e72d1ea> ;
.
<http://www.cdisc.org/EC/V1#IG_DVECREFID>
	rdf:type bd:SdtmDomainVariable ;
	isoC:label "Reference ID"^^xsd:string ;
	bd:rule ""^^xsd:string ;
	bd:ordinal "6"^^xsd:positiveInteger ;
	bd:name "ECREFID"^^xsd:string ;
	bd:description "Internal or external identifier (e.g., kit number, bottle label, vial identifier)."^^xsd:string ;
	bd:format ""^^xsd:string ;
	bd:ctAndFormat ""^^xsd:string ;
	bd:compliance <http://www.assero.co.uk/CSN#da9f1092-7a20-4c97-9144-8bac2e72d1ea> ;
.
<http://www.cdisc.org/EC/V1#IG_DVECSPID>
	rdf:type bd:SdtmDomainVariable ;
	isoC:label "Sponsor-Defined Identifier"^^xsd:string ;
	bd:rule ""^^xsd:string ;
	bd:ordinal "7"^^xsd:positiveInteger ;
	bd:name "ECSPID"^^xsd:string ;
	bd:description "Sponsor-defined reference number. Perhaps pre-printed on the CRF as an explicit line identifier or defined in the sponsor's operational database. Example: Line number on a CRF Page."^^xsd:string ;
	bd:format ""^^xsd:string ;
	bd:ctAndFormat ""^^xsd:string ;
	bd:compliance <http://www.assero.co.uk/CSN#da9f1092-7a20-4c97-9144-8bac2e72d1ea> ;
.
<http://www.cdisc.org/EC/V1#IG_DVECLNKID>
	rdf:type bd:SdtmDomainVariable ;
	isoC:label "Link ID"^^xsd:string ;
	bd:rule ""^^xsd:string ;
	bd:ordinal "8"^^xsd:positiveInteger ;
	bd:name "ECLNKID"^^xsd:string ;
	bd:description "Identifier used to link related records across domains."^^xsd:string ;
	bd:format ""^^xsd:string ;
	bd:ctAndFormat ""^^xsd:string ;
	bd:compliance <http://www.assero.co.uk/CSN#da9f1092-7a20-4c97-9144-8bac2e72d1ea> ;
.
<http://www.cdisc.org/EC/V1#IG_DVECLNKGRP>
	rdf:type bd:SdtmDomainVariable ;
	isoC:label "Link Group ID"^^xsd:string ;
	bd:rule ""^^xsd:string ;
	bd:ordinal "9"^^xsd:positiveInteger ;
	bd:name "ECLNKGRP"^^xsd:string ;
	bd:description "Identifier used to link related, grouped records across domains."^^xsd:string ;
	bd:format ""^^xsd:string ;
	bd:ctAndFormat ""^^xsd:string ;
	bd:compliance <http://www.assero.co.uk/CSN#da9f1092-7a20-4c97-9144-8bac2e72d1ea> ;
.
<http://www.cdisc.org/EC/V1#IG_DVECTRT>
	rdf:type bd:SdtmDomainVariable ;
	isoC:label "Name of Treatment"^^xsd:string ;
	bd:rule ""^^xsd:string ;
	bd:ordinal "10"^^xsd:positiveInteger ;
	bd:name "ECTRT"^^xsd:string ;
	bd:description "Name of the intervention treatment known to the subject and/or administrator."^^xsd:string ;
	bd:format ""^^xsd:string ;
	bd:ctAndFormat ""^^xsd:string ;
	bd:compliance <http://www.assero.co.uk/CSN#8f112ba7-caa3-4f34-a9fc-8bc808b13955> ;
.
<http://www.cdisc.org/EC/V1#IG_DVECMOOD>
	rdf:type bd:SdtmDomainVariable ;
	isoC:label "Mood"^^xsd:string ;
	bd:rule ""^^xsd:string ;
	bd:ordinal "11"^^xsd:positiveInteger ;
	bd:name "ECMOOD"^^xsd:string ;
	bd:description "Mode or condition of the record specifying whether the intervention (activity) is intended to happen or has happened. Values align with BRIDG pillars (e.g., scheduled context, performed context) and HL7 activity moods (e.g., intent, event). Examples: \"SCHEDULED\", \"PERFORMED\"."^^xsd:string ;
	bd:format ""^^xsd:string ;
	bd:ctAndFormat "(BRDGMOOD)"^^xsd:string ;
	bd:compliance <http://www.assero.co.uk/CSN#da9f1092-7a20-4c97-9144-8bac2e72d1ea> ;
.
<http://www.cdisc.org/EC/V1#IG_DVECCAT>
	rdf:type bd:SdtmDomainVariable ;
	isoC:label "Category of Treatment"^^xsd:string ;
	bd:rule ""^^xsd:string ;
	bd:ordinal "12"^^xsd:positiveInteger ;
	bd:name "ECCAT"^^xsd:string ;
	bd:description "Used to define a category of related ECTRT values."^^xsd:string ;
	bd:format ""^^xsd:string ;
	bd:ctAndFormat ""^^xsd:string ;
	bd:compliance <http://www.assero.co.uk/CSN#da9f1092-7a20-4c97-9144-8bac2e72d1ea> ;
.
<http://www.cdisc.org/EC/V1#IG_DVECSCAT>
	rdf:type bd:SdtmDomainVariable ;
	isoC:label "Subcategory of Treatment"^^xsd:string ;
	bd:rule ""^^xsd:string ;
	bd:ordinal "13"^^xsd:positiveInteger ;
	bd:name "ECSCAT"^^xsd:string ;
	bd:description "A further categorization of ECCAT values."^^xsd:string ;
	bd:format ""^^xsd:string ;
	bd:ctAndFormat ""^^xsd:string ;
	bd:compliance <http://www.assero.co.uk/CSN#da9f1092-7a20-4c97-9144-8bac2e72d1ea> ;
.
<http://www.cdisc.org/EC/V1#IG_DVECPRESP>
	rdf:type bd:SdtmDomainVariable ;
	isoC:label "Pre-Specified"^^xsd:string ;
	bd:rule ""^^xsd:string ;
	bd:ordinal "14"^^xsd:positiveInteger ;
	bd:name "ECPRESP"^^xsd:string ;
	bd:description "Used when a specific intervention is pre-specified. Values should be \"Y\" or null."^^xsd:string ;
	bd:format ""^^xsd:string ;
	bd:ctAndFormat "(NY)"^^xsd:string ;
	bd:compliance <http://www.assero.co.uk/CSN#da9f1092-7a20-4c97-9144-8bac2e72d1ea> ;
.
<http://www.cdisc.org/EC/V1#IG_DVECOCCUR>
	rdf:type bd:SdtmDomainVariable ;
	isoC:label "Occurrence"^^xsd:string ;
	bd:rule ""^^xsd:string ;
	bd:ordinal "15"^^xsd:positiveInteger ;
	bd:name "ECOCCUR"^^xsd:string ;
	bd:description "Used to indicate whether a treatment occurred when information about the occurrence is solicited. ECOCCUR = \"N\" when a treatment was not taken, not given, or missed."^^xsd:string ;
	bd:format ""^^xsd:string ;
	bd:ctAndFormat "(NY)"^^xsd:string ;
	bd:compliance <http://www.assero.co.uk/CSN#da9f1092-7a20-4c97-9144-8bac2e72d1ea> ;
.
<http://www.cdisc.org/EC/V1#IG_DVECDOSE>
	rdf:type bd:SdtmDomainVariable ;
	isoC:label "Dose"^^xsd:string ;
	bd:rule ""^^xsd:string ;
	bd:ordinal "16"^^xsd:positiveInteger ;
	bd:name "ECDOSE"^^xsd:string ;
	bd:description "Amount of ECTRT when numeric. Not populated when ECDOSTXT is populated."^^xsd:string ;
	bd:format ""^^xsd:string ;
	bd:ctAndFormat ""^^xsd:string ;
	bd:compliance <http://www.assero.co.uk/CSN#fc544083-2437-4ec0-97f4-767598bee682> ;
.
<http://www.cdisc.org/EC/V1#IG_DVECDOSTXT>
	rdf:type bd:SdtmDomainVariable ;
	isoC:label "Dose Description"^^xsd:string ;
	bd:rule ""^^xsd:string ;
	bd:ordinal "17"^^xsd:positiveInteger ;
	bd:name "ECDOSTXT"^^xsd:string ;
	bd:description "Amount of ECTRT when non-numeric. Dosing amounts or a range of dosing information collected in text form. Example: \"200-400\". Not populated when ECDOSE is populated."^^xsd:string ;
	bd:format ""^^xsd:string ;
	bd:ctAndFormat ""^^xsd:string ;
	bd:compliance <http://www.assero.co.uk/CSN#da9f1092-7a20-4c97-9144-8bac2e72d1ea> ;
.
<http://www.cdisc.org/EC/V1#IG_DVECDOSU>
	rdf:type bd:SdtmDomainVariable ;
	isoC:label "Dose Units"^^xsd:string ;
	bd:rule ""^^xsd:string ;
	bd:ordinal "18"^^xsd:positiveInteger ;
	bd:name "ECDOSU"^^xsd:string ;
	bd:description "Units for ECDOSE, ECDOSTOT, or ECDOSTXT."^^xsd:string ;
	bd:format ""^^xsd:string ;
	bd:ctAndFormat "(UNIT)"^^xsd:string ;
	bd:compliance <http://www.assero.co.uk/CSN#fc544083-2437-4ec0-97f4-767598bee682> ;
.
<http://www.cdisc.org/EC/V1#IG_DVECDOSFRM>
	rdf:type bd:SdtmDomainVariable ;
	isoC:label "Dose Form"^^xsd:string ;
	bd:rule ""^^xsd:string ;
	bd:ordinal "19"^^xsd:positiveInteger ;
	bd:name "ECDOSFRM"^^xsd:string ;
	bd:description "Dose form for ECTRT. Examples: \"TABLET\", \"LOTION\"."^^xsd:string ;
	bd:format ""^^xsd:string ;
	bd:ctAndFormat "(FRM)"^^xsd:string ;
	bd:compliance <http://www.assero.co.uk/CSN#fc544083-2437-4ec0-97f4-767598bee682> ;
.
<http://www.cdisc.org/EC/V1#IG_DVECDOSFRQ>
	rdf:type bd:SdtmDomainVariable ;
	isoC:label "Dosing Frequency per Interval"^^xsd:string ;
	bd:rule ""^^xsd:string ;
	bd:ordinal "20"^^xsd:positiveInteger ;
	bd:name "ECDOSFRQ"^^xsd:string ;
	bd:description "Usually expressed as the number of repeated administrations of ECDOSE within a specific time period. Examples: \"Q2H\", \"QD\", \"BID\"."^^xsd:string ;
	bd:format ""^^xsd:string ;
	bd:ctAndFormat "(FREQ)"^^xsd:string ;
	bd:compliance <http://www.assero.co.uk/CSN#da9f1092-7a20-4c97-9144-8bac2e72d1ea> ;
.
<http://www.cdisc.org/EC/V1#IG_DVECDOSTOT>
	rdf:type bd:SdtmDomainVariable ;
	isoC:label "Total Daily Dose"^^xsd:string ;
	bd:rule ""^^xsd:string ;
	bd:ordinal "21"^^xsd:positiveInteger ;
	bd:name "ECDOSTOT"^^xsd:string ;
	bd:description "Total daily dose of ECTRT using the units in ECDOSU. Used when dosing is collected as Total Daily Dose."^^xsd:string ;
	bd:format ""^^xsd:string ;
	bd:ctAndFormat ""^^xsd:string ;
	bd:compliance <http://www.assero.co.uk/CSN#da9f1092-7a20-4c97-9144-8bac2e72d1ea> ;
.
<http://www.cdisc.org/EC/V1#IG_DVECDOSRGM>
	rdf:type bd:SdtmDomainVariable ;
	isoC:label "Intended Dose Regimen"^^xsd:string ;
	bd:rule ""^^xsd:string ;
	bd:ordinal "22"^^xsd:positiveInteger ;
	bd:name "ECDOSRGM"^^xsd:string ;
	bd:description "Text description of the intended schedule or regimen for the Intervention. Example: \"TWO WEEKS ON\", \"TWO WEEKS OFF\"."^^xsd:string ;
	bd:format ""^^xsd:string ;
	bd:ctAndFormat ""^^xsd:string ;
	bd:compliance <http://www.assero.co.uk/CSN#da9f1092-7a20-4c97-9144-8bac2e72d1ea> ;
.
<http://www.cdisc.org/EC/V1#IG_DVECROUTE>
	rdf:type bd:SdtmDomainVariable ;
	isoC:label "Route of Administration"^^xsd:string ;
	bd:rule ""^^xsd:string ;
	bd:ordinal "23"^^xsd:positiveInteger ;
	bd:name "ECROUTE"^^xsd:string ;
	bd:description "Route of administration for the intervention. Examples: \"ORAL\", \"INTRAVENOUS\"."^^xsd:string ;
	bd:format ""^^xsd:string ;
	bd:ctAndFormat "(ROUTE)"^^xsd:string ;
	bd:compliance <http://www.assero.co.uk/CSN#da9f1092-7a20-4c97-9144-8bac2e72d1ea> ;
.
<http://www.cdisc.org/EC/V1#IG_DVECLOT>
	rdf:type bd:SdtmDomainVariable ;
	isoC:label "Lot Number"^^xsd:string ;
	bd:rule ""^^xsd:string ;
	bd:ordinal "24"^^xsd:positiveInteger ;
	bd:name "ECLOT"^^xsd:string ;
	bd:description "Lot Number of the ECTRT product."^^xsd:string ;
	bd:format ""^^xsd:string ;
	bd:ctAndFormat ""^^xsd:string ;
	bd:compliance <http://www.assero.co.uk/CSN#da9f1092-7a20-4c97-9144-8bac2e72d1ea> ;
.
<http://www.cdisc.org/EC/V1#IG_DVECLOC>
	rdf:type bd:SdtmDomainVariable ;
	isoC:label "Location of Dose Administration"^^xsd:string ;
	bd:rule ""^^xsd:string ;
	bd:ordinal "25"^^xsd:positiveInteger ;
	bd:name "ECLOC"^^xsd:string ;
	bd:description "Specifies location of administration. Example: \"ARM\", \"LIP\"."^^xsd:string ;
	bd:format ""^^xsd:string ;
	bd:ctAndFormat "(LOC)"^^xsd:string ;
	bd:compliance <http://www.assero.co.uk/CSN#da9f1092-7a20-4c97-9144-8bac2e72d1ea> ;
.
<http://www.cdisc.org/EC/V1#IG_DVECLAT>
	rdf:type bd:SdtmDomainVariable ;
	isoC:label "Laterality"^^xsd:string ;
	bd:rule ""^^xsd:string ;
	bd:ordinal "26"^^xsd:positiveInteger ;
	bd:name "ECLAT"^^xsd:string ;
	bd:description "Qualifier for anatomical location further detailing laterality of the intervention administration. Examples: \"LEFT\", \"RIGHT\"."^^xsd:string ;
	bd:format ""^^xsd:string ;
	bd:ctAndFormat "(LAT)"^^xsd:string ;
	bd:compliance <http://www.assero.co.uk/CSN#da9f1092-7a20-4c97-9144-8bac2e72d1ea> ;
.
<http://www.cdisc.org/EC/V1#IG_DVECDIR>
	rdf:type bd:SdtmDomainVariable ;
	isoC:label "Directionality"^^xsd:string ;
	bd:rule ""^^xsd:string ;
	bd:ordinal "27"^^xsd:positiveInteger ;
	bd:name "ECDIR"^^xsd:string ;
	bd:description "Qualifier for anatomical location further detailing directionality. Examples: \"ANTERIOR\", \"LOWER\", \"PROXIMAL\", \"UPPER\"."^^xsd:string ;
	bd:format ""^^xsd:string ;
	bd:ctAndFormat "(DIR)"^^xsd:string ;
	bd:compliance <http://www.assero.co.uk/CSN#da9f1092-7a20-4c97-9144-8bac2e72d1ea> ;
.
<http://www.cdisc.org/EC/V1#IG_DVECPORTOT>
	rdf:type bd:SdtmDomainVariable ;
	isoC:label "Portion or Totality"^^xsd:string ;
	bd:rule ""^^xsd:string ;
	bd:ordinal "28"^^xsd:positiveInteger ;
	bd:name "ECPORTOT"^^xsd:string ;
	bd:description "Qualifier for anatomical location further detailing distribution, which means arrangement of, apportioning of. Examples: \"ENTIRE\", \"SINGLE\", \"SEGMENT\"."^^xsd:string ;
	bd:format ""^^xsd:string ;
	bd:ctAndFormat "(PORTOT)"^^xsd:string ;
	bd:compliance <http://www.assero.co.uk/CSN#da9f1092-7a20-4c97-9144-8bac2e72d1ea> ;
.
<http://www.cdisc.org/EC/V1#IG_DVECFAST>
	rdf:type bd:SdtmDomainVariable ;
	isoC:label "Fasting Status"^^xsd:string ;
	bd:rule ""^^xsd:string ;
	bd:ordinal "29"^^xsd:positiveInteger ;
	bd:name "ECFAST"^^xsd:string ;
	bd:description "Indicator used to identify fasting status. Examples: \"Y\", \"N\"."^^xsd:string ;
	bd:format ""^^xsd:string ;
	bd:ctAndFormat "(NY)"^^xsd:string ;
	bd:compliance <http://www.assero.co.uk/CSN#da9f1092-7a20-4c97-9144-8bac2e72d1ea> ;
.
<http://www.cdisc.org/EC/V1#IG_DVECPSTRG>
	rdf:type bd:SdtmDomainVariable ;
	isoC:label "Pharmaceutical Strength"^^xsd:string ;
	bd:rule ""^^xsd:string ;
	bd:ordinal "30"^^xsd:positiveInteger ;
	bd:name "ECPSTRG"^^xsd:string ;
	bd:description "Amount of an active ingredient expressed quantitatively per dosage unit, per unit of volume, or per unit of weight, according to the pharmaceutical dose form."^^xsd:string ;
	bd:format ""^^xsd:string ;
	bd:ctAndFormat ""^^xsd:string ;
	bd:compliance <http://www.assero.co.uk/CSN#da9f1092-7a20-4c97-9144-8bac2e72d1ea> ;
.
<http://www.cdisc.org/EC/V1#IG_DVECPSTRGU>
	rdf:type bd:SdtmDomainVariable ;
	isoC:label "Pharmaceutical Strength Units"^^xsd:string ;
	bd:rule ""^^xsd:string ;
	bd:ordinal "31"^^xsd:positiveInteger ;
	bd:name "ECPSTRGU"^^xsd:string ;
	bd:description "Unit for ECPSTRG. Examples: \"mg/TABLET\", \"mg/mL\"."^^xsd:string ;
	bd:format ""^^xsd:string ;
	bd:ctAndFormat ""^^xsd:string ;
	bd:compliance <http://www.assero.co.uk/CSN#da9f1092-7a20-4c97-9144-8bac2e72d1ea> ;
.
<http://www.cdisc.org/EC/V1#IG_DVECADJ>
	rdf:type bd:SdtmDomainVariable ;
	isoC:label "Reason for Dose Adjustment"^^xsd:string ;
	bd:rule ""^^xsd:string ;
	bd:ordinal "32"^^xsd:positiveInteger ;
	bd:name "ECADJ"^^xsd:string ;
	bd:description "Describes reason or explanation of why a dose is adjusted."^^xsd:string ;
	bd:format ""^^xsd:string ;
	bd:ctAndFormat ""^^xsd:string ;
	bd:compliance <http://www.assero.co.uk/CSN#da9f1092-7a20-4c97-9144-8bac2e72d1ea> ;
.
<http://www.cdisc.org/EC/V1#IG_DVTAETORD>
	rdf:type bd:SdtmDomainVariable ;
	isoC:label "Planned Order of Element within Arm"^^xsd:string ;
	bd:rule ""^^xsd:string ;
	bd:ordinal "33"^^xsd:positiveInteger ;
	bd:name "TAETORD"^^xsd:string ;
	bd:description "Number that gives the planned order of the Element within the Arm."^^xsd:string ;
	bd:format ""^^xsd:string ;
	bd:ctAndFormat ""^^xsd:string ;
	bd:compliance <http://www.assero.co.uk/CSN#da9f1092-7a20-4c97-9144-8bac2e72d1ea> ;
.
<http://www.cdisc.org/EC/V1#IG_DVEPOCH>
	rdf:type bd:SdtmDomainVariable ;
	isoC:label "Epoch"^^xsd:string ;
	bd:rule ""^^xsd:string ;
	bd:ordinal "34"^^xsd:positiveInteger ;
	bd:name "EPOCH"^^xsd:string ;
	bd:description "Trial Epoch of the exposure as collected record. Examples: \"RUN-IN\", \"TREATMENT\"."^^xsd:string ;
	bd:format ""^^xsd:string ;
	bd:ctAndFormat "(EPOCH)"^^xsd:string ;
	bd:compliance <http://www.assero.co.uk/CSN#da9f1092-7a20-4c97-9144-8bac2e72d1ea> ;
.
<http://www.cdisc.org/EC/V1#IG_DVECSTDTC>
	rdf:type bd:SdtmDomainVariable ;
	isoC:label "Start Date/Time of Treatment"^^xsd:string ;
	bd:rule ""^^xsd:string ;
	bd:ordinal "35"^^xsd:positiveInteger ;
	bd:name "ECSTDTC"^^xsd:string ;
	bd:description "The date/time when administration of the treatment indicated by ECTRT and ECDOSE began."^^xsd:string ;
	bd:format ""^^xsd:string ;
	bd:ctAndFormat "ISO 8601"^^xsd:string ;
	bd:compliance <http://www.assero.co.uk/CSN#fc544083-2437-4ec0-97f4-767598bee682> ;
.
<http://www.cdisc.org/EC/V1#IG_DVECENDTC>
	rdf:type bd:SdtmDomainVariable ;
	isoC:label "End Date/Time of Treatment"^^xsd:string ;
	bd:rule ""^^xsd:string ;
	bd:ordinal "36"^^xsd:positiveInteger ;
	bd:name "ECENDTC"^^xsd:string ;
	bd:description "The date/time when administration of the treatment indicated by ECTRT and ECDOSE ended. For administrations considered given at a point in time (e.g., oral tablet, pre-filled syringe injection), where only an administration date/time is collected, ECSTDTC should be copied to ECENDTC as the standard representation."^^xsd:string ;
	bd:format ""^^xsd:string ;
	bd:ctAndFormat "ISO 8601"^^xsd:string ;
	bd:compliance <http://www.assero.co.uk/CSN#fc544083-2437-4ec0-97f4-767598bee682> ;
.
<http://www.cdisc.org/EC/V1#IG_DVECSTDY>
	rdf:type bd:SdtmDomainVariable ;
	isoC:label "Study Day of Start of Treatment"^^xsd:string ;
	bd:rule ""^^xsd:string ;
	bd:ordinal "37"^^xsd:positiveInteger ;
	bd:name "ECSTDY"^^xsd:string ;
	bd:description "Study day of ECSTDTC relative to the sponsor-defined DM.RFSTDTC."^^xsd:string ;
	bd:format ""^^xsd:string ;
	bd:ctAndFormat ""^^xsd:string ;
	bd:compliance <http://www.assero.co.uk/CSN#da9f1092-7a20-4c97-9144-8bac2e72d1ea> ;
.
<http://www.cdisc.org/EC/V1#IG_DVECENDY>
	rdf:type bd:SdtmDomainVariable ;
	isoC:label "Study Day of End of Treatment"^^xsd:string ;
	bd:rule ""^^xsd:string ;
	bd:ordinal "38"^^xsd:positiveInteger ;
	bd:name "ECENDY"^^xsd:string ;
	bd:description "Study day of ECENDTC relative to the sponsor-defined DM.RFSTDTC."^^xsd:string ;
	bd:format ""^^xsd:string ;
	bd:ctAndFormat ""^^xsd:string ;
	bd:compliance <http://www.assero.co.uk/CSN#da9f1092-7a20-4c97-9144-8bac2e72d1ea> ;
.
<http://www.cdisc.org/EC/V1#IG_DVECDUR>
	rdf:type bd:SdtmDomainVariable ;
	isoC:label "Duration of Treatment"^^xsd:string ;
	bd:rule ""^^xsd:string ;
	bd:ordinal "39"^^xsd:positiveInteger ;
	bd:name "ECDUR"^^xsd:string ;
	bd:description "Collected duration of administration. Used only if collected on the CRF and not derived from start and end date/times."^^xsd:string ;
	bd:format ""^^xsd:string ;
	bd:ctAndFormat "ISO 8601"^^xsd:string ;
	bd:compliance <http://www.assero.co.uk/CSN#da9f1092-7a20-4c97-9144-8bac2e72d1ea> ;
.
<http://www.cdisc.org/EC/V1#IG_DVECTPT>
	rdf:type bd:SdtmDomainVariable ;
	isoC:label "Planned Time Point Name"^^xsd:string ;
	bd:rule ""^^xsd:string ;
	bd:ordinal "40"^^xsd:positiveInteger ;
	bd:name "ECTPT"^^xsd:string ;
	bd:description "Text Description of time when administration should occur. This may be represented as an elapsed time relative to a fixed reference point, such as time of last dose. See ECTPTNUM and ECTPTREF."^^xsd:string ;
	bd:format ""^^xsd:string ;
	bd:ctAndFormat ""^^xsd:string ;
	bd:compliance <http://www.assero.co.uk/CSN#da9f1092-7a20-4c97-9144-8bac2e72d1ea> ;
.
<http://www.cdisc.org/EC/V1#IG_DVECTPTNUM>
	rdf:type bd:SdtmDomainVariable ;
	isoC:label "Planned Time Point Number"^^xsd:string ;
	bd:rule ""^^xsd:string ;
	bd:ordinal "41"^^xsd:positiveInteger ;
	bd:name "ECTPTNUM"^^xsd:string ;
	bd:description "Numerical version of ECTPT to aid in sorting."^^xsd:string ;
	bd:format ""^^xsd:string ;
	bd:ctAndFormat ""^^xsd:string ;
	bd:compliance <http://www.assero.co.uk/CSN#da9f1092-7a20-4c97-9144-8bac2e72d1ea> ;
.
<http://www.cdisc.org/EC/V1#IG_DVECELTM>
	rdf:type bd:SdtmDomainVariable ;
	isoC:label "Planned Elapsed Time from Time Point Ref"^^xsd:string ;
	bd:rule ""^^xsd:string ;
	bd:ordinal "42"^^xsd:positiveInteger ;
	bd:name "ECELTM"^^xsd:string ;
	bd:description "Planned elapsed time relative to the planned fixed reference (ECTPTREF). This variable is useful where there are repetitive measures. Not a clock time."^^xsd:string ;
	bd:format ""^^xsd:string ;
	bd:ctAndFormat "ISO 8601"^^xsd:string ;
	bd:compliance <http://www.assero.co.uk/CSN#da9f1092-7a20-4c97-9144-8bac2e72d1ea> ;
.
<http://www.cdisc.org/EC/V1#IG_DVECTPTREF>
	rdf:type bd:SdtmDomainVariable ;
	isoC:label "Time Point Reference"^^xsd:string ;
	bd:rule ""^^xsd:string ;
	bd:ordinal "43"^^xsd:positiveInteger ;
	bd:name "ECTPTREF"^^xsd:string ;
	bd:description "Name of the fixed reference point referred to by ECELTM, ECTPTNUM, and ECTPT. Examples: PREVIOUS DOSE, PREVIOUS MEAL."^^xsd:string ;
	bd:format ""^^xsd:string ;
	bd:ctAndFormat ""^^xsd:string ;
	bd:compliance <http://www.assero.co.uk/CSN#da9f1092-7a20-4c97-9144-8bac2e72d1ea> ;
.
<http://www.cdisc.org/EC/V1#IG_DVECRFTDTC>
	rdf:type bd:SdtmDomainVariable ;
	isoC:label "Date/Time of Reference Time Point"^^xsd:string ;
	bd:rule ""^^xsd:string ;
	bd:ordinal "44"^^xsd:positiveInteger ;
	bd:name "ECRFTDTC"^^xsd:string ;
	bd:description "Date/time for a fixed reference time point defined by ECTPTREF."^^xsd:string ;
	bd:format ""^^xsd:string ;
	bd:ctAndFormat "ISO 8601"^^xsd:string ;
	bd:compliance <http://www.assero.co.uk/CSN#da9f1092-7a20-4c97-9144-8bac2e72d1ea> ;
.
<http://www.cdisc.org/ML/V1#IG>
	rdf:type bd:SdtmDomain ;
	isoC:label "Meal Data"^^xsd:string ;
	isoT:hasState <http://www.cdisc.org/ML/V1#IG_RS> ;
	isoT:hasIdentifier <http://www.cdisc.org/ML/V1#IG_SI> ;
	isoT:origin ""^^xsd:string ;
	isoT:changeDescription ""^^xsd:string ;
	isoT:creationDate "2020-01-01T00:00:00+00:00"^^xsd:dateTime ;
	isoT:lastChangeDate "2020-01-01T00:00:00+00:00"^^xsd:dateTime ;
	isoT:explanatoryComment ""^^xsd:string ;
	bd:rule ""^^xsd:string ;
	bd:ordinal "1"^^xsd:positiveInteger ;
	bd:includesColumn <http://www.cdisc.org/ML/V1#IG_DVSTUDYID> ;
	bd:includesColumn <http://www.cdisc.org/ML/V1#IG_DVDOMAIN> ;
	bd:includesColumn <http://www.cdisc.org/ML/V1#IG_DVUSUBJID> ;
	bd:includesColumn <http://www.cdisc.org/ML/V1#IG_DVMLSEQ> ;
	bd:includesColumn <http://www.cdisc.org/ML/V1#IG_DVMLGRPID> ;
	bd:includesColumn <http://www.cdisc.org/ML/V1#IG_DVMLSPID> ;
	bd:includesColumn <http://www.cdisc.org/ML/V1#IG_DVMLTRT> ;
	bd:includesColumn <http://www.cdisc.org/ML/V1#IG_DVMLCAT> ;
	bd:includesColumn <http://www.cdisc.org/ML/V1#IG_DVMLSCAT> ;
	bd:includesColumn <http://www.cdisc.org/ML/V1#IG_DVMLPRESP> ;
	bd:includesColumn <http://www.cdisc.org/ML/V1#IG_DVMLOCCUR> ;
	bd:includesColumn <http://www.cdisc.org/ML/V1#IG_DVMLSTAT> ;
	bd:includesColumn <http://www.cdisc.org/ML/V1#IG_DVMLREASND> ;
	bd:includesColumn <http://www.cdisc.org/ML/V1#IG_DVMLDOSE> ;
	bd:includesColumn <http://www.cdisc.org/ML/V1#IG_DVMLDOSTXT> ;
	bd:includesColumn <http://www.cdisc.org/ML/V1#IG_DVMLDOSU> ;
	bd:includesColumn <http://www.cdisc.org/ML/V1#IG_DVMLDOSFRM> ;
	bd:includesColumn <http://www.cdisc.org/ML/V1#IG_DVVISITNUM> ;
	bd:includesColumn <http://www.cdisc.org/ML/V1#IG_DVVISIT> ;
	bd:includesColumn <http://www.cdisc.org/ML/V1#IG_DVVISITDY> ;
	bd:includesColumn <http://www.cdisc.org/ML/V1#IG_DVTAETORD> ;
	bd:includesColumn <http://www.cdisc.org/ML/V1#IG_DVEPOCH> ;
	bd:includesColumn <http://www.cdisc.org/ML/V1#IG_DVMLDTC> ;
	bd:includesColumn <http://www.cdisc.org/ML/V1#IG_DVMLSTDTC> ;
	bd:includesColumn <http://www.cdisc.org/ML/V1#IG_DVMLENDTC> ;
	bd:includesColumn <http://www.cdisc.org/ML/V1#IG_DVMLDY> ;
	bd:includesColumn <http://www.cdisc.org/ML/V1#IG_DVMLSTDY> ;
	bd:includesColumn <http://www.cdisc.org/ML/V1#IG_DVMLENDY> ;
	bd:includesColumn <http://www.cdisc.org/ML/V1#IG_DVMLDUR> ;
	bd:includesColumn <http://www.cdisc.org/ML/V1#IG_DVMLTPT> ;
	bd:includesColumn <http://www.cdisc.org/ML/V1#IG_DVMLTPTNUM> ;
	bd:includesColumn <http://www.cdisc.org/ML/V1#IG_DVMLELTM> ;
	bd:includesColumn <http://www.cdisc.org/ML/V1#IG_DVMLTPTREF> ;
	bd:includesColumn <http://www.cdisc.org/ML/V1#IG_DVMLRFTDTC> ;
	bd:includesColumn <http://www.cdisc.org/ML/V1#IG_DVMIDS> ;
	bd:includesColumn <http://www.cdisc.org/ML/V1#IG_DVRELMIDS> ;
	bd:includesColumn <http://www.cdisc.org/ML/V1#IG_DVMIDSDTC> ;
	bd:prefix ""^^xsd:string ;
	bd:structure ""^^xsd:string ;
.
<http://www.cdisc.org/ML/V1#IG_RS>
	rdf:type isoR:RegistrationState ;
	isoR:registrationStatus "Standard"^^xsd:string ;
	isoR:administrativeNote ""^^xsd:string ;
	isoR:effectiveDate "2016-01-01T00:00:00+00:00"^^xsd:dateTime ;
	isoR:untilDate "2016-01-01T00:00:00+00:00"^^xsd:dateTime ;
	isoR:unresolvedIssue ""^^xsd:string ;
	isoR:administrativeStatus ""^^xsd:string ;
	isoR:previousState "Standard"^^xsd:string ;
	isoR:multipleEdit "false"^^xsd:boolean ;
	isoR:byAuthority <http://www.assero.co.uk/RA#DUNS084433759> ;
.
<http://www.cdisc.org/ML/V1#IG_SI>
	rdf:type isoI:ScopedIdentifier ;
	isoI:identifier "ML"^^xsd:string ;
	isoI:versionLabel "1.1.1"^^xsd:string ;
	isoI:version "1"^^xsd:positiveInteger ;
	isoI:semanticVersion "1.1.1"^^xsd:string ;
	isoI:hasScope <http://www.assero.co.uk/NS#CDISC> ;
.
<http://www.cdisc.org/ML/V1#IG_DVSTUDYID>
	rdf:type bd:SdtmDomainVariable ;
	isoC:label "Study Identifier"^^xsd:string ;
	bd:rule ""^^xsd:string ;
	bd:ordinal "1"^^xsd:positiveInteger ;
	bd:name "STUDYID"^^xsd:string ;
	bd:description "Unique identifier for a study."^^xsd:string ;
	bd:format ""^^xsd:string ;
	bd:ctAndFormat ""^^xsd:string ;
	bd:compliance <http://www.assero.co.uk/CSN#8f112ba7-caa3-4f34-a9fc-8bc808b13955> ;
.
<http://www.cdisc.org/ML/V1#IG_DVDOMAIN>
	rdf:type bd:SdtmDomainVariable ;
	isoC:label "Domain Abbreviation"^^xsd:string ;
	bd:rule ""^^xsd:string ;
	bd:ordinal "2"^^xsd:positiveInteger ;
	bd:name "DOMAIN"^^xsd:string ;
	bd:description "Two-character abbreviation for the domain."^^xsd:string ;
	bd:format ""^^xsd:string ;
	bd:ctAndFormat "ML"^^xsd:string ;
	bd:compliance <http://www.assero.co.uk/CSN#8f112ba7-caa3-4f34-a9fc-8bc808b13955> ;
.
<http://www.cdisc.org/ML/V1#IG_DVUSUBJID>
	rdf:type bd:SdtmDomainVariable ;
	isoC:label "Unique Subject Identifier"^^xsd:string ;
	bd:rule ""^^xsd:string ;
	bd:ordinal "3"^^xsd:positiveInteger ;
	bd:name "USUBJID"^^xsd:string ;
	bd:description "Identifier used to uniquely identify a subject across all studies for all applications or submissions involving the product."^^xsd:string ;
	bd:format ""^^xsd:string ;
	bd:ctAndFormat ""^^xsd:string ;
	bd:compliance <http://www.assero.co.uk/CSN#8f112ba7-caa3-4f34-a9fc-8bc808b13955> ;
.
<http://www.cdisc.org/ML/V1#IG_DVMLSEQ>
	rdf:type bd:SdtmDomainVariable ;
	isoC:label "Sequence Number"^^xsd:string ;
	bd:rule ""^^xsd:string ;
	bd:ordinal "4"^^xsd:positiveInteger ;
	bd:name "MLSEQ"^^xsd:string ;
	bd:description "Sequence Number given to ensure uniqueness of subject records within a domain. May be any valid number."^^xsd:string ;
	bd:format ""^^xsd:string ;
	bd:ctAndFormat ""^^xsd:string ;
	bd:compliance <http://www.assero.co.uk/CSN#8f112ba7-caa3-4f34-a9fc-8bc808b13955> ;
.
<http://www.cdisc.org/ML/V1#IG_DVMLGRPID>
	rdf:type bd:SdtmDomainVariable ;
	isoC:label "Group ID"^^xsd:string ;
	bd:rule ""^^xsd:string ;
	bd:ordinal "5"^^xsd:positiveInteger ;
	bd:name "MLGRPID"^^xsd:string ;
	bd:description "Used to tie together a block of related records in a single domain for a subject."^^xsd:string ;
	bd:format ""^^xsd:string ;
	bd:ctAndFormat ""^^xsd:string ;
	bd:compliance <http://www.assero.co.uk/CSN#da9f1092-7a20-4c97-9144-8bac2e72d1ea> ;
.
<http://www.cdisc.org/ML/V1#IG_DVMLSPID>
	rdf:type bd:SdtmDomainVariable ;
	isoC:label "Sponsor-Defined Identifier"^^xsd:string ;
	bd:rule ""^^xsd:string ;
	bd:ordinal "6"^^xsd:positiveInteger ;
	bd:name "MLSPID"^^xsd:string ;
	bd:description "Sponsor-defined reference number. Examples: a number pre-printed on the CRF as an explicit line identifier or record identifier defined in the sponsor's operational database."^^xsd:string ;
	bd:format ""^^xsd:string ;
	bd:ctAndFormat ""^^xsd:string ;
	bd:compliance <http://www.assero.co.uk/CSN#da9f1092-7a20-4c97-9144-8bac2e72d1ea> ;
.
<http://www.cdisc.org/ML/V1#IG_DVMLTRT>
	rdf:type bd:SdtmDomainVariable ;
	isoC:label "Name of Meal"^^xsd:string ;
	bd:rule ""^^xsd:string ;
	bd:ordinal "7"^^xsd:positiveInteger ;
	bd:name "MLTRT"^^xsd:string ;
	bd:description "Verbatim food product name that is either pre-printed or collected on a CRF."^^xsd:string ;
	bd:format ""^^xsd:string ;
	bd:ctAndFormat ""^^xsd:string ;
	bd:compliance <http://www.assero.co.uk/CSN#8f112ba7-caa3-4f34-a9fc-8bc808b13955> ;
.
<http://www.cdisc.org/ML/V1#IG_DVMLCAT>
	rdf:type bd:SdtmDomainVariable ;
	isoC:label "Category for Meal"^^xsd:string ;
	bd:rule ""^^xsd:string ;
	bd:ordinal "8"^^xsd:positiveInteger ;
	bd:name "MLCAT"^^xsd:string ;
	bd:description "Used to define a category of MLTRT values."^^xsd:string ;
	bd:format ""^^xsd:string ;
	bd:ctAndFormat ""^^xsd:string ;
	bd:compliance <http://www.assero.co.uk/CSN#da9f1092-7a20-4c97-9144-8bac2e72d1ea> ;
.
<http://www.cdisc.org/ML/V1#IG_DVMLSCAT>
	rdf:type bd:SdtmDomainVariable ;
	isoC:label "Subcategory for Meal"^^xsd:string ;
	bd:rule ""^^xsd:string ;
	bd:ordinal "9"^^xsd:positiveInteger ;
	bd:name "MLSCAT"^^xsd:string ;
	bd:description "Used to define a further categorization of MLCAT values."^^xsd:string ;
	bd:format ""^^xsd:string ;
	bd:ctAndFormat ""^^xsd:string ;
	bd:compliance <http://www.assero.co.uk/CSN#da9f1092-7a20-4c97-9144-8bac2e72d1ea> ;
.
<http://www.cdisc.org/ML/V1#IG_DVMLPRESP>
	rdf:type bd:SdtmDomainVariable ;
	isoC:label "ML Pre-specified"^^xsd:string ;
	bd:rule ""^^xsd:string ;
	bd:ordinal "10"^^xsd:positiveInteger ;
	bd:name "MLPRESP"^^xsd:string ;
	bd:description "Used when a specific meal is pre-specified on a CRF. Values should be \"Y\" or null."^^xsd:string ;
	bd:format ""^^xsd:string ;
	bd:ctAndFormat "(NY)"^^xsd:string ;
	bd:compliance <http://www.assero.co.uk/CSN#da9f1092-7a20-4c97-9144-8bac2e72d1ea> ;
.
<http://www.cdisc.org/ML/V1#IG_DVMLOCCUR>
	rdf:type bd:SdtmDomainVariable ;
	isoC:label "ML Occurrence"^^xsd:string ;
	bd:rule ""^^xsd:string ;
	bd:ordinal "11"^^xsd:positiveInteger ;
	bd:name "MLOCCUR"^^xsd:string ;
	bd:description "Used to record whether a pre-specified meal occurred when information about the occurrence of a specific meal is solicited."^^xsd:string ;
	bd:format ""^^xsd:string ;
	bd:ctAndFormat "(NY)"^^xsd:string ;
	bd:compliance <http://www.assero.co.uk/CSN#da9f1092-7a20-4c97-9144-8bac2e72d1ea> ;
.
<http://www.cdisc.org/ML/V1#IG_DVMLSTAT>
	rdf:type bd:SdtmDomainVariable ;
	isoC:label "Completion Status"^^xsd:string ;
	bd:rule ""^^xsd:string ;
	bd:ordinal "12"^^xsd:positiveInteger ;
	bd:name "MLSTAT"^^xsd:string ;
	bd:description "Used to indicate when a question about the occurrence of a pre-specified meal was not answered. Should be null or have a value of \"NOT DONE\"."^^xsd:string ;
	bd:format ""^^xsd:string ;
	bd:ctAndFormat "(ND)"^^xsd:string ;
	bd:compliance <http://www.assero.co.uk/CSN#da9f1092-7a20-4c97-9144-8bac2e72d1ea> ;
.
<http://www.cdisc.org/ML/V1#IG_DVMLREASND>
	rdf:type bd:SdtmDomainVariable ;
	isoC:label "Reason Meal Not Collected"^^xsd:string ;
	bd:rule ""^^xsd:string ;
	bd:ordinal "13"^^xsd:positiveInteger ;
	bd:name "MLREASND"^^xsd:string ;
	bd:description "Describes the reason a response to a question about the occurrence of a meal was not collected. Used in conjunction with MLSTAT when value is \"NOT DONE\"."^^xsd:string ;
	bd:format ""^^xsd:string ;
	bd:ctAndFormat ""^^xsd:string ;
	bd:compliance <http://www.assero.co.uk/CSN#da9f1092-7a20-4c97-9144-8bac2e72d1ea> ;
.
<http://www.cdisc.org/ML/V1#IG_DVMLDOSE>
	rdf:type bd:SdtmDomainVariable ;
	isoC:label "Dose"^^xsd:string ;
	bd:rule ""^^xsd:string ;
	bd:ordinal "14"^^xsd:positiveInteger ;
	bd:name "MLDOSE"^^xsd:string ;
	bd:description "Amount of MLTRT consumed. Not populated when MLDOSTXT is populated."^^xsd:string ;
	bd:format ""^^xsd:string ;
	bd:ctAndFormat ""^^xsd:string ;
	bd:compliance <http://www.assero.co.uk/CSN#da9f1092-7a20-4c97-9144-8bac2e72d1ea> ;
.
<http://www.cdisc.org/ML/V1#IG_DVMLDOSTXT>
	rdf:type bd:SdtmDomainVariable ;
	isoC:label "Dose Description"^^xsd:string ;
	bd:rule ""^^xsd:string ;
	bd:ordinal "15"^^xsd:positiveInteger ;
	bd:name "MLDOSTXT"^^xsd:string ;
	bd:description "Amount description of MLTRT consumed, collected in text form. Not populated when MLDOSE is populated. Examples: \"<1 per day\", \"200-400\"."^^xsd:string ;
	bd:format ""^^xsd:string ;
	bd:ctAndFormat ""^^xsd:string ;
	bd:compliance <http://www.assero.co.uk/CSN#da9f1092-7a20-4c97-9144-8bac2e72d1ea> ;
.
<http://www.cdisc.org/ML/V1#IG_DVMLDOSU>
	rdf:type bd:SdtmDomainVariable ;
	isoC:label "Dose Units"^^xsd:string ;
	bd:rule ""^^xsd:string ;
	bd:ordinal "16"^^xsd:positiveInteger ;
	bd:name "MLDOSU"^^xsd:string ;
	bd:description "Units for MLDOSE, MLDOSTOT, or MLDOSTXT."^^xsd:string ;
	bd:format ""^^xsd:string ;
	bd:ctAndFormat "(UNIT)"^^xsd:string ;
	bd:compliance <http://www.assero.co.uk/CSN#da9f1092-7a20-4c97-9144-8bac2e72d1ea> ;
.
<http://www.cdisc.org/ML/V1#IG_DVMLDOSFRM>
	rdf:type bd:SdtmDomainVariable ;
	isoC:label "Dose Form"^^xsd:string ;
	bd:rule ""^^xsd:string ;
	bd:ordinal "17"^^xsd:positiveInteger ;
	bd:name "MLDOSFRM"^^xsd:string ;
	bd:description "Dosage form for MLTRT. Example: \"BAR, CHEWABLE\"."^^xsd:string ;
	bd:format ""^^xsd:string ;
	bd:ctAndFormat "(FRM)"^^xsd:string ;
	bd:compliance <http://www.assero.co.uk/CSN#da9f1092-7a20-4c97-9144-8bac2e72d1ea> ;
.
<http://www.cdisc.org/ML/V1#IG_DVVISITNUM>
	rdf:type bd:SdtmDomainVariable ;
	isoC:label "Visit Number"^^xsd:string ;
	bd:rule ""^^xsd:string ;
	bd:ordinal "18"^^xsd:positiveInteger ;
	bd:name "VISITNUM"^^xsd:string ;
	bd:description "Clinical encounter number. Numeric version of VISIT, used for sorting."^^xsd:string ;
	bd:format ""^^xsd:string ;
	bd:ctAndFormat ""^^xsd:string ;
	bd:compliance <http://www.assero.co.uk/CSN#da9f1092-7a20-4c97-9144-8bac2e72d1ea> ;
.
<http://www.cdisc.org/ML/V1#IG_DVVISIT>
	rdf:type bd:SdtmDomainVariable ;
	isoC:label "Visit Name"^^xsd:string ;
	bd:rule ""^^xsd:string ;
	bd:ordinal "19"^^xsd:positiveInteger ;
	bd:name "VISIT"^^xsd:string ;
	bd:description "Protocol-defined description of a clinical encounter."^^xsd:string ;
	bd:format ""^^xsd:string ;
	bd:ctAndFormat ""^^xsd:string ;
	bd:compliance <http://www.assero.co.uk/CSN#da9f1092-7a20-4c97-9144-8bac2e72d1ea> ;
.
<http://www.cdisc.org/ML/V1#IG_DVVISITDY>
	rdf:type bd:SdtmDomainVariable ;
	isoC:label "Planned Study Day of Visit"^^xsd:string ;
	bd:rule ""^^xsd:string ;
	bd:ordinal "20"^^xsd:positiveInteger ;
	bd:name "VISITDY"^^xsd:string ;
	bd:description "Planned study day of VISIT. Should be an integer."^^xsd:string ;
	bd:format ""^^xsd:string ;
	bd:ctAndFormat ""^^xsd:string ;
	bd:compliance <http://www.assero.co.uk/CSN#da9f1092-7a20-4c97-9144-8bac2e72d1ea> ;
.
<http://www.cdisc.org/ML/V1#IG_DVTAETORD>
	rdf:type bd:SdtmDomainVariable ;
	isoC:label "Planned Order of Element within Arm"^^xsd:string ;
	bd:rule ""^^xsd:string ;
	bd:ordinal "21"^^xsd:positiveInteger ;
	bd:name "TAETORD"^^xsd:string ;
	bd:description "Number that gives the planned order of the Element within the Arm for the Element in which the meal started."^^xsd:string ;
	bd:format ""^^xsd:string ;
	bd:ctAndFormat ""^^xsd:string ;
	bd:compliance <http://www.assero.co.uk/CSN#da9f1092-7a20-4c97-9144-8bac2e72d1ea> ;
.
<http://www.cdisc.org/ML/V1#IG_DVEPOCH>
	rdf:type bd:SdtmDomainVariable ;
	isoC:label "Epoch"^^xsd:string ;
	bd:rule ""^^xsd:string ;
	bd:ordinal "22"^^xsd:positiveInteger ;
	bd:name "EPOCH"^^xsd:string ;
	bd:description "Epoch associated with the start date/time of the meal."^^xsd:string ;
	bd:format ""^^xsd:string ;
	bd:ctAndFormat "(EPOCH)"^^xsd:string ;
	bd:compliance <http://www.assero.co.uk/CSN#da9f1092-7a20-4c97-9144-8bac2e72d1ea> ;
.
<http://www.cdisc.org/ML/V1#IG_DVMLDTC>
	rdf:type bd:SdtmDomainVariable ;
	isoC:label "Date/Time of Collection"^^xsd:string ;
	bd:rule ""^^xsd:string ;
	bd:ordinal "23"^^xsd:positiveInteger ;
	bd:name "MLDTC"^^xsd:string ;
	bd:description "Collection date and time of the meal represented in ISO 8601 character format."^^xsd:string ;
	bd:format ""^^xsd:string ;
	bd:ctAndFormat "ISO 8601"^^xsd:string ;
	bd:compliance <http://www.assero.co.uk/CSN#da9f1092-7a20-4c97-9144-8bac2e72d1ea> ;
.
<http://www.cdisc.org/ML/V1#IG_DVMLSTDTC>
	rdf:type bd:SdtmDomainVariable ;
	isoC:label "Start Date/Time of Meal"^^xsd:string ;
	bd:rule ""^^xsd:string ;
	bd:ordinal "24"^^xsd:positiveInteger ;
	bd:name "MLSTDTC"^^xsd:string ;
	bd:description "Start date/time of the meal represented in ISO 8601 character format."^^xsd:string ;
	bd:format ""^^xsd:string ;
	bd:ctAndFormat "ISO 8601"^^xsd:string ;
	bd:compliance <http://www.assero.co.uk/CSN#da9f1092-7a20-4c97-9144-8bac2e72d1ea> ;
.
<http://www.cdisc.org/ML/V1#IG_DVMLENDTC>
	rdf:type bd:SdtmDomainVariable ;
	isoC:label "End Date/Time of Meal"^^xsd:string ;
	bd:rule ""^^xsd:string ;
	bd:ordinal "25"^^xsd:positiveInteger ;
	bd:name "MLENDTC"^^xsd:string ;
	bd:description "End date/time of the meal represented in ISO 8601 character format."^^xsd:string ;
	bd:format ""^^xsd:string ;
	bd:ctAndFormat "ISO 8601"^^xsd:string ;
	bd:compliance <http://www.assero.co.uk/CSN#da9f1092-7a20-4c97-9144-8bac2e72d1ea> ;
.
<http://www.cdisc.org/ML/V1#IG_DVMLDY>
	rdf:type bd:SdtmDomainVariable ;
	isoC:label "Study Day of Visit/Collection/Exam"^^xsd:string ;
	bd:rule ""^^xsd:string ;
	bd:ordinal "26"^^xsd:positiveInteger ;
	bd:name "MLDY"^^xsd:string ;
	bd:description "Actual study day of the visit/collection expressed in integer days relative to the sponsor-defined RFSTDTC in Demographics."^^xsd:string ;
	bd:format ""^^xsd:string ;
	bd:ctAndFormat ""^^xsd:string ;
	bd:compliance <http://www.assero.co.uk/CSN#da9f1092-7a20-4c97-9144-8bac2e72d1ea> ;
.
<http://www.cdisc.org/ML/V1#IG_DVMLSTDY>
	rdf:type bd:SdtmDomainVariable ;
	isoC:label "Study Day of Start of Meal"^^xsd:string ;
	bd:rule ""^^xsd:string ;
	bd:ordinal "27"^^xsd:positiveInteger ;
	bd:name "MLSTDY"^^xsd:string ;
	bd:description "Actual study day of start of the meal expressed in integer days relative to sponsor-defined RFSTDTC in Demographics."^^xsd:string ;
	bd:format ""^^xsd:string ;
	bd:ctAndFormat ""^^xsd:string ;
	bd:compliance <http://www.assero.co.uk/CSN#da9f1092-7a20-4c97-9144-8bac2e72d1ea> ;
.
<http://www.cdisc.org/ML/V1#IG_DVMLENDY>
	rdf:type bd:SdtmDomainVariable ;
	isoC:label "Study Day of End of Meal"^^xsd:string ;
	bd:rule ""^^xsd:string ;
	bd:ordinal "28"^^xsd:positiveInteger ;
	bd:name "MLENDY"^^xsd:string ;
	bd:description "Actual study day of end of the meal expressed in integer days relative to the sponsor-defined RFSTDTC in Demographics."^^xsd:string ;
	bd:format ""^^xsd:string ;
	bd:ctAndFormat ""^^xsd:string ;
	bd:compliance <http://www.assero.co.uk/CSN#da9f1092-7a20-4c97-9144-8bac2e72d1ea> ;
.
<http://www.cdisc.org/ML/V1#IG_DVMLDUR>
	rdf:type bd:SdtmDomainVariable ;
	isoC:label "Duration of Meal"^^xsd:string ;
	bd:rule ""^^xsd:string ;
	bd:ordinal "29"^^xsd:positiveInteger ;
	bd:name "MLDUR"^^xsd:string ;
	bd:description "Collected duration of the meal represented in ISO 8601 character format. Used only if collected on the CRF and not derived."^^xsd:string ;
	bd:format ""^^xsd:string ;
	bd:ctAndFormat "ISO 8601"^^xsd:string ;
	bd:compliance <http://www.assero.co.uk/CSN#da9f1092-7a20-4c97-9144-8bac2e72d1ea> ;
.
<http://www.cdisc.org/ML/V1#IG_DVMLTPT>
	rdf:type bd:SdtmDomainVariable ;
	isoC:label "Planned Time Point Name"^^xsd:string ;
	bd:rule ""^^xsd:string ;
	bd:ordinal "30"^^xsd:positiveInteger ;
	bd:name "MLTPT"^^xsd:string ;
	bd:description "Text description of time when a measurement or observation should be taken as defined in the protocol. This may be represented as an elapsed time relative to a fixed reference point. See MLTPTNUM and MLTPTREF."^^xsd:string ;
	bd:format ""^^xsd:string ;
	bd:ctAndFormat ""^^xsd:string ;
	bd:compliance <http://www.assero.co.uk/CSN#da9f1092-7a20-4c97-9144-8bac2e72d1ea> ;
.
<http://www.cdisc.org/ML/V1#IG_DVMLTPTNUM>
	rdf:type bd:SdtmDomainVariable ;
	isoC:label "Planned Time Point Number"^^xsd:string ;
	bd:rule ""^^xsd:string ;
	bd:ordinal "31"^^xsd:positiveInteger ;
	bd:name "MLTPTNUM"^^xsd:string ;
	bd:description "Numeric version of planned time point used in sorting."^^xsd:string ;
	bd:format ""^^xsd:string ;
	bd:ctAndFormat ""^^xsd:string ;
	bd:compliance <http://www.assero.co.uk/CSN#da9f1092-7a20-4c97-9144-8bac2e72d1ea> ;
.
<http://www.cdisc.org/ML/V1#IG_DVMLELTM>
	rdf:type bd:SdtmDomainVariable ;
	isoC:label "Planned Elapsed Time from Time Point Ref"^^xsd:string ;
	bd:rule ""^^xsd:string ;
	bd:ordinal "32"^^xsd:positiveInteger ;
	bd:name "MLELTM"^^xsd:string ;
	bd:description "Planned Elapsed time (in ISO 8601) relative to the planned fixed reference (MLTPTREF). This variable is useful when there are repetitive measures. Not a clock time or a date/time variable. Represented as an ISO 8601 duration."^^xsd:string ;
	bd:format ""^^xsd:string ;
	bd:ctAndFormat "ISO 8601"^^xsd:string ;
	bd:compliance <http://www.assero.co.uk/CSN#da9f1092-7a20-4c97-9144-8bac2e72d1ea> ;
.
<http://www.cdisc.org/ML/V1#IG_DVMLTPTREF>
	rdf:type bd:SdtmDomainVariable ;
	isoC:label "Time Point Reference"^^xsd:string ;
	bd:rule ""^^xsd:string ;
	bd:ordinal "33"^^xsd:positiveInteger ;
	bd:name "MLTPTREF"^^xsd:string ;
	bd:description "Description of the fixed reference point referred to by MLELTM, MLTPTNUM, and MLTPT."^^xsd:string ;
	bd:format ""^^xsd:string ;
	bd:ctAndFormat ""^^xsd:string ;
	bd:compliance <http://www.assero.co.uk/CSN#da9f1092-7a20-4c97-9144-8bac2e72d1ea> ;
.
<http://www.cdisc.org/ML/V1#IG_DVMLRFTDTC>
	rdf:type bd:SdtmDomainVariable ;
	isoC:label "Date/Time of Reference Time Point"^^xsd:string ;
	bd:rule ""^^xsd:string ;
	bd:ordinal "34"^^xsd:positiveInteger ;
	bd:name "MLRFTDTC"^^xsd:string ;
	bd:description "Date/time for a fixed reference time point defined by MLTPTREF in ISO 8601 character format."^^xsd:string ;
	bd:format ""^^xsd:string ;
	bd:ctAndFormat "ISO 8601"^^xsd:string ;
	bd:compliance <http://www.assero.co.uk/CSN#da9f1092-7a20-4c97-9144-8bac2e72d1ea> ;
.
<http://www.cdisc.org/ML/V1#IG_DVMIDS>
	rdf:type bd:SdtmDomainVariable ;
	isoC:label "Disease Milestone Instance Name"^^xsd:string ;
	bd:rule ""^^xsd:string ;
	bd:ordinal "35"^^xsd:positiveInteger ;
	bd:name "MIDS"^^xsd:string ;
	bd:description "The name of a specific instance of a Disease Milestone Type (MIDSTYPE) described in the Trial Disease Milestones dataset. This should be unique within a subject. Used only in conjunction with RELMIDS and MIDSDTC."^^xsd:string ;
	bd:format ""^^xsd:string ;
	bd:ctAndFormat ""^^xsd:string ;
	bd:compliance <http://www.assero.co.uk/CSN#da9f1092-7a20-4c97-9144-8bac2e72d1ea> ;
.
<http://www.cdisc.org/ML/V1#IG_DVRELMIDS>
	rdf:type bd:SdtmDomainVariable ;
	isoC:label "Temporal Relation to Milestone Instance"^^xsd:string ;
	bd:rule ""^^xsd:string ;
	bd:ordinal "36"^^xsd:positiveInteger ;
	bd:name "RELMIDS"^^xsd:string ;
	bd:description "The temporal relationship of the observation to the Disease Milestone Instance Name in MIDS. Examples: \"IMMEDIATELY BEFORE\", \"AT TIME OF\", \"AFTER\"."^^xsd:string ;
	bd:format ""^^xsd:string ;
	bd:ctAndFormat ""^^xsd:string ;
	bd:compliance <http://www.assero.co.uk/CSN#da9f1092-7a20-4c97-9144-8bac2e72d1ea> ;
.
<http://www.cdisc.org/ML/V1#IG_DVMIDSDTC>
	rdf:type bd:SdtmDomainVariable ;
	isoC:label "Disease Milestone Instance Date/Time"^^xsd:string ;
	bd:rule ""^^xsd:string ;
	bd:ordinal "37"^^xsd:positiveInteger ;
	bd:name "MIDSDTC"^^xsd:string ;
	bd:description "The start date/time of the Disease Milestone Instance Name in MIDS, in ISO 8601 format."^^xsd:string ;
	bd:format ""^^xsd:string ;
	bd:ctAndFormat "ISO 8601"^^xsd:string ;
	bd:compliance <http://www.assero.co.uk/CSN#da9f1092-7a20-4c97-9144-8bac2e72d1ea> ;
.
<http://www.cdisc.org/PR/V1#IG>
	rdf:type bd:SdtmDomain ;
	isoC:label "Procedures"^^xsd:string ;
	isoT:hasState <http://www.cdisc.org/PR/V1#IG_RS> ;
	isoT:hasIdentifier <http://www.cdisc.org/PR/V1#IG_SI> ;
	isoT:origin ""^^xsd:string ;
	isoT:changeDescription ""^^xsd:string ;
	isoT:creationDate "2020-01-01T00:00:00+00:00"^^xsd:dateTime ;
	isoT:lastChangeDate "2020-01-01T00:00:00+00:00"^^xsd:dateTime ;
	isoT:explanatoryComment ""^^xsd:string ;
	bd:rule ""^^xsd:string ;
	bd:ordinal "1"^^xsd:positiveInteger ;
	bd:includesColumn <http://www.cdisc.org/PR/V1#IG_DVSTUDYID> ;
	bd:includesColumn <http://www.cdisc.org/PR/V1#IG_DVDOMAIN> ;
	bd:includesColumn <http://www.cdisc.org/PR/V1#IG_DVUSUBJID> ;
	bd:includesColumn <http://www.cdisc.org/PR/V1#IG_DVPRSEQ> ;
	bd:includesColumn <http://www.cdisc.org/PR/V1#IG_DVPRGRPID> ;
	bd:includesColumn <http://www.cdisc.org/PR/V1#IG_DVPRSPID> ;
	bd:includesColumn <http://www.cdisc.org/PR/V1#IG_DVPRLNKID> ;
	bd:includesColumn <http://www.cdisc.org/PR/V1#IG_DVPRLNKGRP> ;
	bd:includesColumn <http://www.cdisc.org/PR/V1#IG_DVPRTRT> ;
	bd:includesColumn <http://www.cdisc.org/PR/V1#IG_DVPRDECOD> ;
	bd:includesColumn <http://www.cdisc.org/PR/V1#IG_DVPRCAT> ;
	bd:includesColumn <http://www.cdisc.org/PR/V1#IG_DVPRSCAT> ;
	bd:includesColumn <http://www.cdisc.org/PR/V1#IG_DVPRPRESP> ;
	bd:includesColumn <http://www.cdisc.org/PR/V1#IG_DVPROCCUR> ;
	bd:includesColumn <http://www.cdisc.org/PR/V1#IG_DVPRINDC> ;
	bd:includesColumn <http://www.cdisc.org/PR/V1#IG_DVPRDOSE> ;
	bd:includesColumn <http://www.cdisc.org/PR/V1#IG_DVPRDOSTXT> ;
	bd:includesColumn <http://www.cdisc.org/PR/V1#IG_DVPRDOSU> ;
	bd:includesColumn <http://www.cdisc.org/PR/V1#IG_DVPRDOSFRM> ;
	bd:includesColumn <http://www.cdisc.org/PR/V1#IG_DVPRDOSFRQ> ;
	bd:includesColumn <http://www.cdisc.org/PR/V1#IG_DVPRDOSRGM> ;
	bd:includesColumn <http://www.cdisc.org/PR/V1#IG_DVPRROUTE> ;
	bd:includesColumn <http://www.cdisc.org/PR/V1#IG_DVPRLOC> ;
	bd:includesColumn <http://www.cdisc.org/PR/V1#IG_DVPRLAT> ;
	bd:includesColumn <http://www.cdisc.org/PR/V1#IG_DVPRDIR> ;
	bd:includesColumn <http://www.cdisc.org/PR/V1#IG_DVPRPORTOT> ;
	bd:includesColumn <http://www.cdisc.org/PR/V1#IG_DVVISITNUM> ;
	bd:includesColumn <http://www.cdisc.org/PR/V1#IG_DVVISIT> ;
	bd:includesColumn <http://www.cdisc.org/PR/V1#IG_DVVISITDY> ;
	bd:includesColumn <http://www.cdisc.org/PR/V1#IG_DVTAETORD> ;
	bd:includesColumn <http://www.cdisc.org/PR/V1#IG_DVEPOCH> ;
	bd:includesColumn <http://www.cdisc.org/PR/V1#IG_DVPRSTDTC> ;
	bd:includesColumn <http://www.cdisc.org/PR/V1#IG_DVPRENDTC> ;
	bd:includesColumn <http://www.cdisc.org/PR/V1#IG_DVPRSTDY> ;
	bd:includesColumn <http://www.cdisc.org/PR/V1#IG_DVPRENDY> ;
	bd:includesColumn <http://www.cdisc.org/PR/V1#IG_DVPRDUR> ;
	bd:includesColumn <http://www.cdisc.org/PR/V1#IG_DVPRTPT> ;
	bd:includesColumn <http://www.cdisc.org/PR/V1#IG_DVPRTPTNUM> ;
	bd:includesColumn <http://www.cdisc.org/PR/V1#IG_DVPRELTM> ;
	bd:includesColumn <http://www.cdisc.org/PR/V1#IG_DVPRTPTREF> ;
	bd:includesColumn <http://www.cdisc.org/PR/V1#IG_DVPRRFTDTC> ;
	bd:includesColumn <http://www.cdisc.org/PR/V1#IG_DVPRSTRTPT> ;
	bd:includesColumn <http://www.cdisc.org/PR/V1#IG_DVPRSTTPT> ;
	bd:includesColumn <http://www.cdisc.org/PR/V1#IG_DVPRENRTPT> ;
	bd:includesColumn <http://www.cdisc.org/PR/V1#IG_DVPRENTPT> ;
	bd:prefix ""^^xsd:string ;
	bd:structure ""^^xsd:string ;
.
<http://www.cdisc.org/PR/V1#IG_RS>
	rdf:type isoR:RegistrationState ;
	isoR:registrationStatus "Standard"^^xsd:string ;
	isoR:administrativeNote ""^^xsd:string ;
	isoR:effectiveDate "2016-01-01T00:00:00+00:00"^^xsd:dateTime ;
	isoR:untilDate "2016-01-01T00:00:00+00:00"^^xsd:dateTime ;
	isoR:unresolvedIssue ""^^xsd:string ;
	isoR:administrativeStatus ""^^xsd:string ;
	isoR:previousState "Standard"^^xsd:string ;
	isoR:multipleEdit "false"^^xsd:boolean ;
	isoR:byAuthority <http://www.assero.co.uk/RA#DUNS084433759> ;
.
<http://www.cdisc.org/PR/V1#IG_SI>
	rdf:type isoI:ScopedIdentifier ;
	isoI:identifier "PR"^^xsd:string ;
	isoI:versionLabel "1.1.1"^^xsd:string ;
	isoI:version "1"^^xsd:positiveInteger ;
	isoI:semanticVersion "1.1.1"^^xsd:string ;
	isoI:hasScope <http://www.assero.co.uk/NS#CDISC> ;
.
<http://www.cdisc.org/PR/V1#IG_DVSTUDYID>
	rdf:type bd:SdtmDomainVariable ;
	isoC:label "Study Identifier"^^xsd:string ;
	bd:rule ""^^xsd:string ;
	bd:ordinal "1"^^xsd:positiveInteger ;
	bd:name "STUDYID"^^xsd:string ;
	bd:description "Unique identifier for a study."^^xsd:string ;
	bd:format ""^^xsd:string ;
	bd:ctAndFormat ""^^xsd:string ;
	bd:compliance <http://www.assero.co.uk/CSN#8f112ba7-caa3-4f34-a9fc-8bc808b13955> ;
.
<http://www.cdisc.org/PR/V1#IG_DVDOMAIN>
	rdf:type bd:SdtmDomainVariable ;
	isoC:label "Domain Abbreviation"^^xsd:string ;
	bd:rule ""^^xsd:string ;
	bd:ordinal "2"^^xsd:positiveInteger ;
	bd:name "DOMAIN"^^xsd:string ;
	bd:description "Two-character abbreviation for the domain."^^xsd:string ;
	bd:format ""^^xsd:string ;
	bd:ctAndFormat "PR"^^xsd:string ;
	bd:compliance <http://www.assero.co.uk/CSN#8f112ba7-caa3-4f34-a9fc-8bc808b13955> ;
.
<http://www.cdisc.org/PR/V1#IG_DVUSUBJID>
	rdf:type bd:SdtmDomainVariable ;
	isoC:label "Unique Subject Identifier"^^xsd:string ;
	bd:rule ""^^xsd:string ;
	bd:ordinal "3"^^xsd:positiveInteger ;
	bd:name "USUBJID"^^xsd:string ;
	bd:description "Identifier used to uniquely identify a subject across all studies for all applications or submissions involving the product."^^xsd:string ;
	bd:format ""^^xsd:string ;
	bd:ctAndFormat ""^^xsd:string ;
	bd:compliance <http://www.assero.co.uk/CSN#8f112ba7-caa3-4f34-a9fc-8bc808b13955> ;
.
<http://www.cdisc.org/PR/V1#IG_DVPRSEQ>
	rdf:type bd:SdtmDomainVariable ;
	isoC:label "Sequence Number"^^xsd:string ;
	bd:rule ""^^xsd:string ;
	bd:ordinal "4"^^xsd:positiveInteger ;
	bd:name "PRSEQ"^^xsd:string ;
	bd:description "Sequence Number to ensure uniqueness of records within a dataset for a subject. Should be assigned to be in a consistent chronological order."^^xsd:string ;
	bd:format ""^^xsd:string ;
	bd:ctAndFormat ""^^xsd:string ;
	bd:compliance <http://www.assero.co.uk/CSN#8f112ba7-caa3-4f34-a9fc-8bc808b13955> ;
.
<http://www.cdisc.org/PR/V1#IG_DVPRGRPID>
	rdf:type bd:SdtmDomainVariable ;
	isoC:label "Group ID"^^xsd:string ;
	bd:rule ""^^xsd:string ;
	bd:ordinal "5"^^xsd:positiveInteger ;
	bd:name "PRGRPID"^^xsd:string ;
	bd:description "Used to link together a block of related records within a subject in a domain."^^xsd:string ;
	bd:format ""^^xsd:string ;
	bd:ctAndFormat ""^^xsd:string ;
	bd:compliance <http://www.assero.co.uk/CSN#da9f1092-7a20-4c97-9144-8bac2e72d1ea> ;
.
<http://www.cdisc.org/PR/V1#IG_DVPRSPID>
	rdf:type bd:SdtmDomainVariable ;
	isoC:label "Sponsor-Defined Identifier"^^xsd:string ;
	bd:rule ""^^xsd:string ;
	bd:ordinal "6"^^xsd:positiveInteger ;
	bd:name "PRSPID"^^xsd:string ;
	bd:description "Sponsor-defined identifier. Example: pre-printed line identifier on a CRF or record identifier defined in the sponsor's operational database."^^xsd:string ;
	bd:format ""^^xsd:string ;
	bd:ctAndFormat ""^^xsd:string ;
	bd:compliance <http://www.assero.co.uk/CSN#da9f1092-7a20-4c97-9144-8bac2e72d1ea> ;
.
<http://www.cdisc.org/PR/V1#IG_DVPRLNKID>
	rdf:type bd:SdtmDomainVariable ;
	isoC:label "Link ID"^^xsd:string ;
	bd:rule ""^^xsd:string ;
	bd:ordinal "7"^^xsd:positiveInteger ;
	bd:name "PRLNKID"^^xsd:string ;
	bd:description "Used to facilitate identification of relationships between records."^^xsd:string ;
	bd:format ""^^xsd:string ;
	bd:ctAndFormat ""^^xsd:string ;
	bd:compliance <http://www.assero.co.uk/CSN#da9f1092-7a20-4c97-9144-8bac2e72d1ea> ;
.
<http://www.cdisc.org/PR/V1#IG_DVPRLNKGRP>
	rdf:type bd:SdtmDomainVariable ;
	isoC:label "Link Group ID"^^xsd:string ;
	bd:rule ""^^xsd:string ;
	bd:ordinal "8"^^xsd:positiveInteger ;
