Code,Codelist Code,Codelist Extensible (Yes/No),Codelist Name,CDISC Submission Value,CDISC Synonym(s),CDISC Definition,NCI Preferred Term
C74457,C74457,false,Race,RACE,Race,Terminology codelist used to identify the race of an individual within the Clinical Data Interchange Standards Consortium Study Data Tabulation Model.,CDISC SDTM Race Terminology
C41260,C74457,"","",ASIAN,"","A person having origins in any of the original peoples of the Far East, Southeast Asia, or the Indian subcontinent including, for example, Cambodia, China, India, Japan, Korea, Malaysia, Pakistan, the Philippine Islands, Thailand, and Vietnam. (FDA)",Asian
C41261,C74457,"","",WHITE,"","Denotes a person with European, Middle Eastern, or North African ancestral origin who identifies, or is identified, as White. (FDA)",White
C16352,C74457,"","",BLACK OR AFRICAN AMERICAN,"",A person having origins in any of the black racial groups of Africa. Terms such as 'Haitian' or 'Negro' can be used in addition to 'Black or African American.' (FDA),Black or African American
C41219,C74457,"","",NATIVE HAWAIIAN OR OTHER PACIFIC ISLANDER,"","Denotes a person having origins in any of the original peoples of Hawaii, Guam, Samoa, or other Pacific Islands. The term covers particularly people who identify themselves as part-Hawaiian, Native Hawaiian, Guamanian or Chamorro, Carolinian, Samoan, Chuu. (FDA)",Native Hawaiian or Other Pacific Islander
C41259,C74457,"","",AMERICAN INDIAN OR ALASKA NATIVE,"","A person having origins in any of the original peoples of North and South America (including Central America), and who maintains tribal affiliation or community attachment. (FDA)",American Indian or Alaska Native
