---
:id: aHR0cDovL3d3dy5zLWN1YmVkLmRrL0FBQS9WMSNTUEQ=
:uri: http://www.s-cubed.dk/AAA/V1#SPD
:rdf_type: http://www.assero.co.uk/Tabulation#SdtmSponsorDomain
:label: SDTM Sponsor Domain
:has_state:
  :id: aHR0cDovL3d3dy5zLWN1YmVkLmRrL0FBQS9WMSNTUERfUlM=
  :uri: http://www.s-cubed.dk/AAA/V1#SPD_RS
  :rdf_type: http://www.assero.co.uk/ISO11179Registration#RegistrationState
  :registration_status: Standard
  :administrative_note: ''
  :effective_date: '2016-01-01T00:00:00+00:00'
  :until_date: '2016-01-01T00:00:00+00:00'
  :unresolved_issue: ''
  :administrative_status: ''
  :previous_state: Qualified
  :multiple_edit: false
  :by_authority:
    :id: aHR0cDovL3d3dy5hc3Nlcm8uY28udWsvUkEjRFVOUzEyMzQ1Njc4OQ==
    :uri: http://www.assero.co.uk/RA#DUNS123456789
    :rdf_type: http://www.assero.co.uk/ISO11179Registration#RegistrationAuthority
    :organization_identifier: '123456789'
    :international_code_designator: DUNS
    :owner: true
    :ra_namespace:
      :id: aHR0cDovL3d3dy5hc3Nlcm8uY28udWsvTlMjU0NVQkVE
      :uri: http://www.assero.co.uk/NS#SCUBED
      :rdf_type: http://www.assero.co.uk/ISO11179Identification#Namespace
      :short_name: S-cubed
      :name: S-cubed Aps
      :authority: www.s-cubed.dk
:has_identifier:
  :id: aHR0cDovL3d3dy5zLWN1YmVkLmRrL0FBQS9WMSNTUERfU0k=
  :uri: http://www.s-cubed.dk/AAA/V1#SPD_SI
  :rdf_type: http://www.assero.co.uk/ISO11179Identification#ScopedIdentifier
  :identifier: AAA
  :version_label: ''
  :version: 1
  :semantic_version: 0.1.0
  :has_scope:
    :id: aHR0cDovL3d3dy5hc3Nlcm8uY28udWsvTlMjU0NVQkVE
    :uri: http://www.assero.co.uk/NS#SCUBED
    :rdf_type: http://www.assero.co.uk/ISO11179Identification#Namespace
    :short_name: S-cubed
    :name: S-cubed Aps
    :authority: www.s-cubed.dk
:has_previous_version: 
:origin: ''
:change_description: ''
:creation_date: '2020-12-15T08:19:09+01:00'
:last_change_date: '2020-12-15T08:19:09+01:00'
:explanatory_comment: ''
:rule: ''
:ordinal: 1
:includes_column:
- :id: aHR0cDovL3d3dy5zLWN1YmVkLmRrL0FBQS9WMSNTUERfQUVTTUlF
  :uri: http://www.s-cubed.dk/AAA/V1#SPD_AESMIE
  :rdf_type: http://www.assero.co.uk/Tabulation#SdtmSponsorDomainVariable
  :label: Other Medically Important Serious Event
  :rule: ''
  :ordinal: 31
  :name: AESMIE
  :description: Do additional categories for seriousness apply?
  :format: ''
  :ct_and_format: "(NY)"
  :compliance:
    :id: aHR0cDovL3d3dy5hc3Nlcm8uY28udWsvQ1NOI2Y3ZDlkNGUxLWEwMGEtNDg3ZS04OWRiLWViZWNlOTEwYmEwZA==
    :uri: http://www.assero.co.uk/CSN#f7d9d4e1-a00a-487e-89db-ebece910ba0d
    :rdf_type: http://www.assero.co.uk/ISO11179Concepts#ConceptSystemNode
    :pref_label: Permissible
    :description: 'A variable that should be used in a domain as appropriate when
      collected or derived. Except where restricted by specific domain assumptions,
      any SDTM Timing and Identifier variables, and any Qualifier variables from the
      same general observation class are permissible for use in a domain based on
      that general observation class. The Sponsor can decide whether a Permissible
      variable should be included as a column when all values for that variable '
    :narrower: []
  :ct_reference:
  - :id: aHR0cDovL3d3dy5jZGlzYy5vcmcvU0RUTV9JR19BRS9WMSNJR0RfQUVTTUlFX1RNQzE=
    :uri: http://www.cdisc.org/SDTM_IG_AE/V1#IGD_AESMIE_TMC1
    :rdf_type: http://www.assero.co.uk/BusinessOperational#TMcReference
    :label: NY
    :enabled: true
    :optional: false
    :ordinal: 1
    :reference: http://www.cdisc.org/C66742/V4#C66742
    :context: http://www.cdisc.org/CT/V13#TH
  :based_on_class_variable: 
  :is_a: 
  :comment: ''
  :used: true
  :notes: ''
  :method: ''
  :typed_as: 
  :based_on_ig_variable: http://www.cdisc.org/SDTM_IG_AE/V1#IGD_AESMIE
  :classified_as: 
- :id: aHR0cDovL3d3dy5zLWN1YmVkLmRrL0FBQS9WMSNTUERfQUVTRVI=
  :uri: http://www.s-cubed.dk/AAA/V1#SPD_AESER
  :rdf_type: http://www.assero.co.uk/Tabulation#SdtmSponsorDomainVariable
  :label: Serious Event
  :rule: ''
  :ordinal: 17
  :name: AESER
  :description: Is this a serious event?
  :format: ''
  :ct_and_format: "(NY)"
  :compliance:
    :id: aHR0cDovL3d3dy5hc3Nlcm8uY28udWsvQ1NOIzA0NmY2YzI0LTllYWYtNGY2MC04MzkwLWYzNjMyOGM4MmVjNA==
    :uri: http://www.assero.co.uk/CSN#046f6c24-9eaf-4f60-8390-f36328c82ec4
    :rdf_type: http://www.assero.co.uk/ISO11179Concepts#ConceptSystemNode
    :pref_label: Expected
    :description: Any variable necessary to make a record useful in the context of
      a specific domain. Expected variables may contain some null values, but in most
      cases will not contain null values for every record. When no data has been collected
      for an expected variable, however, a null column must still be included in the
      dataset, and a comment must be included in the define.xml to state that data
      was not collected.
    :narrower: []
  :ct_reference:
  - :id: aHR0cDovL3d3dy5jZGlzYy5vcmcvU0RUTV9JR19BRS9WMSNJR0RfQUVTRVJfVE1DMQ==
    :uri: http://www.cdisc.org/SDTM_IG_AE/V1#IGD_AESER_TMC1
    :rdf_type: http://www.assero.co.uk/BusinessOperational#TMcReference
    :label: NY
    :enabled: true
    :optional: false
    :ordinal: 1
    :reference: http://www.cdisc.org/C66742/V4#C66742
    :context: http://www.cdisc.org/CT/V13#TH
  :based_on_class_variable: 
  :is_a: 
  :comment: ''
  :used: true
  :notes: ''
  :method: ''
  :typed_as: 
  :based_on_ig_variable: http://www.cdisc.org/SDTM_IG_AE/V1#IGD_AESER
  :classified_as: 
- :id: aHR0cDovL3d3dy5zLWN1YmVkLmRrL0FBQS9WMSNTUERfQUVHUlBJRA==
  :uri: http://www.s-cubed.dk/AAA/V1#SPD_AEGRPID
  :rdf_type: http://www.assero.co.uk/Tabulation#SdtmSponsorDomainVariable
  :label: Group ID
  :rule: ''
  :ordinal: 5
  :name: AEGRPID
  :description: Used to tie together a block of related records in a single domain
    for a subject.
  :format: ''
  :ct_and_format: ''
  :compliance:
    :id: aHR0cDovL3d3dy5hc3Nlcm8uY28udWsvQ1NOI2Y3ZDlkNGUxLWEwMGEtNDg3ZS04OWRiLWViZWNlOTEwYmEwZA==
    :uri: http://www.assero.co.uk/CSN#f7d9d4e1-a00a-487e-89db-ebece910ba0d
    :rdf_type: http://www.assero.co.uk/ISO11179Concepts#ConceptSystemNode
    :pref_label: Permissible
    :description: 'A variable that should be used in a domain as appropriate when
      collected or derived. Except where restricted by specific domain assumptions,
      any SDTM Timing and Identifier variables, and any Qualifier variables from the
      same general observation class are permissible for use in a domain based on
      that general observation class. The Sponsor can decide whether a Permissible
      variable should be included as a column when all values for that variable '
    :narrower: []
  :ct_reference: []
  :based_on_class_variable: 
  :is_a: 
  :comment: ''
  :used: true
  :notes: ''
  :method: ''
  :typed_as: 
  :based_on_ig_variable: http://www.cdisc.org/SDTM_IG_AE/V1#IGD_AEGRPID
  :classified_as: 
- :id: aHR0cDovL3d3dy5zLWN1YmVkLmRrL0FBQS9WMSNTUERfQUVDQVQ=
  :uri: http://www.s-cubed.dk/AAA/V1#SPD_AECAT
  :rdf_type: http://www.assero.co.uk/Tabulation#SdtmSponsorDomainVariable
  :label: Category for Adverse Event
  :rule: ''
  :ordinal: 11
  :name: AECAT
  :description: 'Used to define a category of related records. Example: BLEEDING,
    NEUROPSYCHIATRIC.'
  :format: ''
  :ct_and_format: ''
  :compliance:
    :id: aHR0cDovL3d3dy5hc3Nlcm8uY28udWsvQ1NOI2Y3ZDlkNGUxLWEwMGEtNDg3ZS04OWRiLWViZWNlOTEwYmEwZA==
    :uri: http://www.assero.co.uk/CSN#f7d9d4e1-a00a-487e-89db-ebece910ba0d
    :rdf_type: http://www.assero.co.uk/ISO11179Concepts#ConceptSystemNode
    :pref_label: Permissible
    :description: 'A variable that should be used in a domain as appropriate when
      collected or derived. Except where restricted by specific domain assumptions,
      any SDTM Timing and Identifier variables, and any Qualifier variables from the
      same general observation class are permissible for use in a domain based on
      that general observation class. The Sponsor can decide whether a Permissible
      variable should be included as a column when all values for that variable '
    :narrower: []
  :ct_reference: []
  :based_on_class_variable: 
  :is_a: 
  :comment: ''
  :used: true
  :notes: ''
  :method: ''
  :typed_as: 
  :based_on_ig_variable: http://www.cdisc.org/SDTM_IG_AE/V1#IGD_AECAT
  :classified_as: 
- :id: aHR0cDovL3d3dy5zLWN1YmVkLmRrL0FBQS9WMSNTUERfQUVTRVY=
  :uri: http://www.s-cubed.dk/AAA/V1#SPD_AESEV
  :rdf_type: http://www.assero.co.uk/Tabulation#SdtmSponsorDomainVariable
  :label: Severity/Intensity
  :rule: ''
  :ordinal: 16
  :name: AESEV
  :description: 'The severity or intensity of the event. Examples: MILD, MODERATE,
    SEVERE.'
  :format: ''
  :ct_and_format: "(AESEV)"
  :compliance:
    :id: aHR0cDovL3d3dy5hc3Nlcm8uY28udWsvQ1NOI2Y3ZDlkNGUxLWEwMGEtNDg3ZS04OWRiLWViZWNlOTEwYmEwZA==
    :uri: http://www.assero.co.uk/CSN#f7d9d4e1-a00a-487e-89db-ebece910ba0d
    :rdf_type: http://www.assero.co.uk/ISO11179Concepts#ConceptSystemNode
    :pref_label: Permissible
    :description: 'A variable that should be used in a domain as appropriate when
      collected or derived. Except where restricted by specific domain assumptions,
      any SDTM Timing and Identifier variables, and any Qualifier variables from the
      same general observation class are permissible for use in a domain based on
      that general observation class. The Sponsor can decide whether a Permissible
      variable should be included as a column when all values for that variable '
    :narrower: []
  :ct_reference:
  - :id: aHR0cDovL3d3dy5jZGlzYy5vcmcvU0RUTV9JR19BRS9WMSNJR0RfQUVTRVZfVE1DMQ==
    :uri: http://www.cdisc.org/SDTM_IG_AE/V1#IGD_AESEV_TMC1
    :rdf_type: http://www.assero.co.uk/BusinessOperational#TMcReference
    :label: AESEV
    :enabled: true
    :optional: false
    :ordinal: 1
    :reference: http://www.cdisc.org/C66769/V4#C66769
    :context: http://www.cdisc.org/CT/V13#TH
  :based_on_class_variable: 
  :is_a: 
  :comment: ''
  :used: true
  :notes: ''
  :method: ''
  :typed_as: 
  :based_on_ig_variable: http://www.cdisc.org/SDTM_IG_AE/V1#IGD_AESEV
  :classified_as: 
- :id: aHR0cDovL3d3dy5zLWN1YmVkLmRrL0FBQS9WMSNTUERfQUVTQ09ORw==
  :uri: http://www.s-cubed.dk/AAA/V1#SPD_AESCONG
  :rdf_type: http://www.assero.co.uk/Tabulation#SdtmSponsorDomainVariable
  :label: Congenital Anomaly or Birth Defect
  :rule: ''
  :ordinal: 25
  :name: AESCONG
  :description: Was the serious event associated with congenital anomaly or birth
    defect?
  :format: ''
  :ct_and_format: "(NY)"
  :compliance:
    :id: aHR0cDovL3d3dy5hc3Nlcm8uY28udWsvQ1NOI2Y3ZDlkNGUxLWEwMGEtNDg3ZS04OWRiLWViZWNlOTEwYmEwZA==
    :uri: http://www.assero.co.uk/CSN#f7d9d4e1-a00a-487e-89db-ebece910ba0d
    :rdf_type: http://www.assero.co.uk/ISO11179Concepts#ConceptSystemNode
    :pref_label: Permissible
    :description: 'A variable that should be used in a domain as appropriate when
      collected or derived. Except where restricted by specific domain assumptions,
      any SDTM Timing and Identifier variables, and any Qualifier variables from the
      same general observation class are permissible for use in a domain based on
      that general observation class. The Sponsor can decide whether a Permissible
      variable should be included as a column when all values for that variable '
    :narrower: []
  :ct_reference:
  - :id: aHR0cDovL3d3dy5jZGlzYy5vcmcvU0RUTV9JR19BRS9WMSNJR0RfQUVTQ09OR19UTUMx
    :uri: http://www.cdisc.org/SDTM_IG_AE/V1#IGD_AESCONG_TMC1
    :rdf_type: http://www.assero.co.uk/BusinessOperational#TMcReference
    :label: NY
    :enabled: true
    :optional: false
    :ordinal: 1
    :reference: http://www.cdisc.org/C66742/V4#C66742
    :context: http://www.cdisc.org/CT/V13#TH
  :based_on_class_variable: 
  :is_a: 
  :comment: ''
  :used: true
  :notes: ''
  :method: ''
  :typed_as: 
  :based_on_ig_variable: http://www.cdisc.org/SDTM_IG_AE/V1#IGD_AESCONG
  :classified_as: 
- :id: aHR0cDovL3d3dy5zLWN1YmVkLmRrL0FBQS9WMSNTUERfRE9NQUlO
  :uri: http://www.s-cubed.dk/AAA/V1#SPD_DOMAIN
  :rdf_type: http://www.assero.co.uk/Tabulation#SdtmSponsorDomainVariable
  :label: Domain Abbreviation
  :rule: ''
  :ordinal: 2
  :name: DOMAIN
  :description: Two-character abbreviation for the domain.
  :format: ''
  :ct_and_format: ''
  :compliance:
    :id: aHR0cDovL3d3dy5hc3Nlcm8uY28udWsvQ1NOIzUyMDcwMDg0LWNkZDMtNGJhOC04Mzc3LWY2NzBlNGIwMjc2Yw==
    :uri: http://www.assero.co.uk/CSN#52070084-cdd3-4ba8-8377-f670e4b0276c
    :rdf_type: http://www.assero.co.uk/ISO11179Concepts#ConceptSystemNode
    :pref_label: Required
    :description: Any variable that is basic to the identification of a data record
      (i.e., essential key variables and a topic variable) or is necessary to make
      the record meaningful. Required variables must always be included in the dataset
      and cannot be null for any record
    :narrower: []
  :ct_reference: []
  :based_on_class_variable: 
  :is_a: 
  :comment: ''
  :used: true
  :notes: ''
  :method: ''
  :typed_as: 
  :based_on_ig_variable: http://www.cdisc.org/SDTM_IG_AE/V1#IGD_DOMAIN
  :classified_as: 
- :id: aHR0cDovL3d3dy5zLWN1YmVkLmRrL0FBQS9WMSNTUERfQUVTVERUQw==
  :uri: http://www.s-cubed.dk/AAA/V1#SPD_AESTDTC
  :rdf_type: http://www.assero.co.uk/Tabulation#SdtmSponsorDomainVariable
  :label: Start Date/Time of Adverse Event
  :rule: ''
  :ordinal: 34
  :name: AESTDTC
  :description: ''
  :format: ISO 8601
  :ct_and_format: ISO 8601
  :compliance:
    :id: aHR0cDovL3d3dy5hc3Nlcm8uY28udWsvQ1NOIzA0NmY2YzI0LTllYWYtNGY2MC04MzkwLWYzNjMyOGM4MmVjNA==
    :uri: http://www.assero.co.uk/CSN#046f6c24-9eaf-4f60-8390-f36328c82ec4
    :rdf_type: http://www.assero.co.uk/ISO11179Concepts#ConceptSystemNode
    :pref_label: Expected
    :description: Any variable necessary to make a record useful in the context of
      a specific domain. Expected variables may contain some null values, but in most
      cases will not contain null values for every record. When no data has been collected
      for an expected variable, however, a null column must still be included in the
      dataset, and a comment must be included in the define.xml to state that data
      was not collected.
    :narrower: []
  :ct_reference: []
  :based_on_class_variable: 
  :is_a: 
  :comment: ''
  :used: true
  :notes: ''
  :method: ''
  :typed_as: 
  :based_on_ig_variable: http://www.cdisc.org/SDTM_IG_AE/V1#IGD_AESTDTC
  :classified_as: 
- :id: aHR0cDovL3d3dy5zLWN1YmVkLmRrL0FBQS9WMSNTUERfQUVFTlJG
  :uri: http://www.s-cubed.dk/AAA/V1#SPD_AEENRF
  :rdf_type: http://www.assero.co.uk/Tabulation#SdtmSponsorDomainVariable
  :label: End Relative to Reference Period
  :rule: ''
  :ordinal: 39
  :name: AEENRF
  :description: Describes the end of the event relative to the sponsor-defined reference
    period. The sponsor-defined reference period is a continuous period of time defined
    by a discrete starting point (RFSTDTC) and a discrete ending point (RFENDTC) of
    the trial.
  :format: ''
  :ct_and_format: "(STENRF)"
  :compliance:
    :id: aHR0cDovL3d3dy5hc3Nlcm8uY28udWsvQ1NOI2Y3ZDlkNGUxLWEwMGEtNDg3ZS04OWRiLWViZWNlOTEwYmEwZA==
    :uri: http://www.assero.co.uk/CSN#f7d9d4e1-a00a-487e-89db-ebece910ba0d
    :rdf_type: http://www.assero.co.uk/ISO11179Concepts#ConceptSystemNode
    :pref_label: Permissible
    :description: 'A variable that should be used in a domain as appropriate when
      collected or derived. Except where restricted by specific domain assumptions,
      any SDTM Timing and Identifier variables, and any Qualifier variables from the
      same general observation class are permissible for use in a domain based on
      that general observation class. The Sponsor can decide whether a Permissible
      variable should be included as a column when all values for that variable '
    :narrower: []
  :ct_reference:
  - :id: aHR0cDovL3d3dy5jZGlzYy5vcmcvU0RUTV9JR19BRS9WMSNJR0RfQUVFTlJGX1RNQzE=
    :uri: http://www.cdisc.org/SDTM_IG_AE/V1#IGD_AEENRF_TMC1
    :rdf_type: http://www.assero.co.uk/BusinessOperational#TMcReference
    :label: STENRF
    :enabled: true
    :optional: false
    :ordinal: 1
    :reference: http://www.cdisc.org/C66728/V4#C66728
    :context: http://www.cdisc.org/CT/V13#TH
  :based_on_class_variable: 
  :is_a: 
  :comment: ''
  :used: true
  :notes: ''
  :method: ''
  :typed_as: 
  :based_on_ig_variable: http://www.cdisc.org/SDTM_IG_AE/V1#IGD_AEENRF
  :classified_as: 
- :id: aHR0cDovL3d3dy5zLWN1YmVkLmRrL0FBQS9WMSNTUERfQUVTT0Q=
  :uri: http://www.s-cubed.dk/AAA/V1#SPD_AESOD
  :rdf_type: http://www.assero.co.uk/Tabulation#SdtmSponsorDomainVariable
  :label: Occurred with Overdose
  :rule: ''
  :ordinal: 30
  :name: AESOD
  :description: Did the serious event occur with an overdose?
  :format: ''
  :ct_and_format: "(NY)"
  :compliance:
    :id: aHR0cDovL3d3dy5hc3Nlcm8uY28udWsvQ1NOI2Y3ZDlkNGUxLWEwMGEtNDg3ZS04OWRiLWViZWNlOTEwYmEwZA==
    :uri: http://www.assero.co.uk/CSN#f7d9d4e1-a00a-487e-89db-ebece910ba0d
    :rdf_type: http://www.assero.co.uk/ISO11179Concepts#ConceptSystemNode
    :pref_label: Permissible
    :description: 'A variable that should be used in a domain as appropriate when
      collected or derived. Except where restricted by specific domain assumptions,
      any SDTM Timing and Identifier variables, and any Qualifier variables from the
      same general observation class are permissible for use in a domain based on
      that general observation class. The Sponsor can decide whether a Permissible
      variable should be included as a column when all values for that variable '
    :narrower: []
  :ct_reference:
  - :id: aHR0cDovL3d3dy5jZGlzYy5vcmcvU0RUTV9JR19BRS9WMSNJR0RfQUVTT0RfVE1DMQ==
    :uri: http://www.cdisc.org/SDTM_IG_AE/V1#IGD_AESOD_TMC1
    :rdf_type: http://www.assero.co.uk/BusinessOperational#TMcReference
    :label: NY
    :enabled: true
    :optional: false
    :ordinal: 1
    :reference: http://www.cdisc.org/C66742/V4#C66742
    :context: http://www.cdisc.org/CT/V13#TH
  :based_on_class_variable: 
  :is_a: 
  :comment: ''
  :used: true
  :notes: ''
  :method: ''
  :typed_as: 
  :based_on_ig_variable: http://www.cdisc.org/SDTM_IG_AE/V1#IGD_AESOD
  :classified_as: 
- :id: aHR0cDovL3d3dy5zLWN1YmVkLmRrL0FBQS9WMSNTUERfQUVDT05UUlQ=
  :uri: http://www.s-cubed.dk/AAA/V1#SPD_AECONTRT
  :rdf_type: http://www.assero.co.uk/Tabulation#SdtmSponsorDomainVariable
  :label: Concomitant or Additional Trtmnt Given
  :rule: ''
  :ordinal: 32
  :name: AECONTRT
  :description: Was another treatment given because of the occurrence of the event?
  :format: ''
  :ct_and_format: "(NY)"
  :compliance:
    :id: aHR0cDovL3d3dy5hc3Nlcm8uY28udWsvQ1NOI2Y3ZDlkNGUxLWEwMGEtNDg3ZS04OWRiLWViZWNlOTEwYmEwZA==
    :uri: http://www.assero.co.uk/CSN#f7d9d4e1-a00a-487e-89db-ebece910ba0d
    :rdf_type: http://www.assero.co.uk/ISO11179Concepts#ConceptSystemNode
    :pref_label: Permissible
    :description: 'A variable that should be used in a domain as appropriate when
      collected or derived. Except where restricted by specific domain assumptions,
      any SDTM Timing and Identifier variables, and any Qualifier variables from the
      same general observation class are permissible for use in a domain based on
      that general observation class. The Sponsor can decide whether a Permissible
      variable should be included as a column when all values for that variable '
    :narrower: []
  :ct_reference:
  - :id: aHR0cDovL3d3dy5jZGlzYy5vcmcvU0RUTV9JR19BRS9WMSNJR0RfQUVDT05UUlRfVE1DMQ==
    :uri: http://www.cdisc.org/SDTM_IG_AE/V1#IGD_AECONTRT_TMC1
    :rdf_type: http://www.assero.co.uk/BusinessOperational#TMcReference
    :label: NY
    :enabled: true
    :optional: false
    :ordinal: 1
    :reference: http://www.cdisc.org/C66742/V4#C66742
    :context: http://www.cdisc.org/CT/V13#TH
  :based_on_class_variable: 
  :is_a: 
  :comment: ''
  :used: true
  :notes: ''
  :method: ''
  :typed_as: 
  :based_on_ig_variable: http://www.cdisc.org/SDTM_IG_AE/V1#IGD_AECONTRT
  :classified_as: 
- :id: aHR0cDovL3d3dy5zLWN1YmVkLmRrL0FBQS9WMSNTUERfQUVSRUZJRA==
  :uri: http://www.s-cubed.dk/AAA/V1#SPD_AEREFID
  :rdf_type: http://www.assero.co.uk/Tabulation#SdtmSponsorDomainVariable
  :label: Reference ID
  :rule: ''
  :ordinal: 6
  :name: AEREFID
  :description: Internal or external identifier such as a serial number on an SAE
    reporting form
  :format: ''
  :ct_and_format: ''
  :compliance:
    :id: aHR0cDovL3d3dy5hc3Nlcm8uY28udWsvQ1NOI2Y3ZDlkNGUxLWEwMGEtNDg3ZS04OWRiLWViZWNlOTEwYmEwZA==
    :uri: http://www.assero.co.uk/CSN#f7d9d4e1-a00a-487e-89db-ebece910ba0d
    :rdf_type: http://www.assero.co.uk/ISO11179Concepts#ConceptSystemNode
    :pref_label: Permissible
    :description: 'A variable that should be used in a domain as appropriate when
      collected or derived. Except where restricted by specific domain assumptions,
      any SDTM Timing and Identifier variables, and any Qualifier variables from the
      same general observation class are permissible for use in a domain based on
      that general observation class. The Sponsor can decide whether a Permissible
      variable should be included as a column when all values for that variable '
    :narrower: []
  :ct_reference: []
  :based_on_class_variable: 
  :is_a: 
  :comment: ''
  :used: true
  :notes: ''
  :method: ''
  :typed_as: 
  :based_on_ig_variable: http://www.cdisc.org/SDTM_IG_AE/V1#IGD_AEREFID
  :classified_as: 
- :id: aHR0cDovL3d3dy5zLWN1YmVkLmRrL0FBQS9WMSNTUERfQUVSRUw=
  :uri: http://www.s-cubed.dk/AAA/V1#SPD_AEREL
  :rdf_type: http://www.assero.co.uk/Tabulation#SdtmSponsorDomainVariable
  :label: Causality
  :rule: ''
  :ordinal: 20
  :name: AEREL
  :description: Records the investigator's opinion as to the causality of the event
    to the treatment. ICH E2A and E2B examples include NOT RELATED, UNLIKELY RELATED,
    POSSIBLY RELATED, RELATED. Controlled Terminology may be defined in the future.
    Check with regulatory authority for population of this variable
  :format: ''
  :ct_and_format: ''
  :compliance:
    :id: aHR0cDovL3d3dy5hc3Nlcm8uY28udWsvQ1NOIzA0NmY2YzI0LTllYWYtNGY2MC04MzkwLWYzNjMyOGM4MmVjNA==
    :uri: http://www.assero.co.uk/CSN#046f6c24-9eaf-4f60-8390-f36328c82ec4
    :rdf_type: http://www.assero.co.uk/ISO11179Concepts#ConceptSystemNode
    :pref_label: Expected
    :description: Any variable necessary to make a record useful in the context of
      a specific domain. Expected variables may contain some null values, but in most
      cases will not contain null values for every record. When no data has been collected
      for an expected variable, however, a null column must still be included in the
      dataset, and a comment must be included in the define.xml to state that data
      was not collected.
    :narrower: []
  :ct_reference: []
  :based_on_class_variable: 
  :is_a: 
  :comment: ''
  :used: true
  :notes: ''
  :method: ''
  :typed_as: 
  :based_on_ig_variable: http://www.cdisc.org/SDTM_IG_AE/V1#IGD_AEREL
  :classified_as: 
- :id: aHR0cDovL3d3dy5zLWN1YmVkLmRrL0FBQS9WMSNTUERfQUVTRElTQUI=
  :uri: http://www.s-cubed.dk/AAA/V1#SPD_AESDISAB
  :rdf_type: http://www.assero.co.uk/Tabulation#SdtmSponsorDomainVariable
  :label: Persist or Signif Disability/Incapacity
  :rule: ''
  :ordinal: 26
  :name: AESDISAB
  :description: Did the serious event result in persistent or significant disability/incapacity?
  :format: ''
  :ct_and_format: "(NY)"
  :compliance:
    :id: aHR0cDovL3d3dy5hc3Nlcm8uY28udWsvQ1NOI2Y3ZDlkNGUxLWEwMGEtNDg3ZS04OWRiLWViZWNlOTEwYmEwZA==
    :uri: http://www.assero.co.uk/CSN#f7d9d4e1-a00a-487e-89db-ebece910ba0d
    :rdf_type: http://www.assero.co.uk/ISO11179Concepts#ConceptSystemNode
    :pref_label: Permissible
    :description: 'A variable that should be used in a domain as appropriate when
      collected or derived. Except where restricted by specific domain assumptions,
      any SDTM Timing and Identifier variables, and any Qualifier variables from the
      same general observation class are permissible for use in a domain based on
      that general observation class. The Sponsor can decide whether a Permissible
      variable should be included as a column when all values for that variable '
    :narrower: []
  :ct_reference:
  - :id: aHR0cDovL3d3dy5jZGlzYy5vcmcvU0RUTV9JR19BRS9WMSNJR0RfQUVTRElTQUJfVE1DMQ==
    :uri: http://www.cdisc.org/SDTM_IG_AE/V1#IGD_AESDISAB_TMC1
    :rdf_type: http://www.assero.co.uk/BusinessOperational#TMcReference
    :label: NY
    :enabled: true
    :optional: false
    :ordinal: 1
    :reference: http://www.cdisc.org/C66742/V4#C66742
    :context: http://www.cdisc.org/CT/V13#TH
  :based_on_class_variable: 
  :is_a: 
  :comment: ''
  :used: true
  :notes: ''
  :method: ''
  :typed_as: 
  :based_on_ig_variable: http://www.cdisc.org/SDTM_IG_AE/V1#IGD_AESDISAB
  :classified_as: 
- :id: aHR0cDovL3d3dy5zLWN1YmVkLmRrL0FBQS9WMSNTUERfQUVTQ0FU
  :uri: http://www.s-cubed.dk/AAA/V1#SPD_AESCAT
  :rdf_type: http://www.assero.co.uk/Tabulation#SdtmSponsorDomainVariable
  :label: Subcategory for Adverse Event
  :rule: ''
  :ordinal: 12
  :name: AESCAT
  :description: 'A further categorization of adverse event. Example: NEUROLOGIC.'
  :format: ''
  :ct_and_format: ''
  :compliance:
    :id: aHR0cDovL3d3dy5hc3Nlcm8uY28udWsvQ1NOI2Y3ZDlkNGUxLWEwMGEtNDg3ZS04OWRiLWViZWNlOTEwYmEwZA==
    :uri: http://www.assero.co.uk/CSN#f7d9d4e1-a00a-487e-89db-ebece910ba0d
    :rdf_type: http://www.assero.co.uk/ISO11179Concepts#ConceptSystemNode
    :pref_label: Permissible
    :description: 'A variable that should be used in a domain as appropriate when
      collected or derived. Except where restricted by specific domain assumptions,
      any SDTM Timing and Identifier variables, and any Qualifier variables from the
      same general observation class are permissible for use in a domain based on
      that general observation class. The Sponsor can decide whether a Permissible
      variable should be included as a column when all values for that variable '
    :narrower: []
  :ct_reference: []
  :based_on_class_variable: 
  :is_a: 
  :comment: ''
  :used: true
  :notes: ''
  :method: ''
  :typed_as: 
  :based_on_ig_variable: http://www.cdisc.org/SDTM_IG_AE/V1#IGD_AESCAT
  :classified_as: 
- :id: aHR0cDovL3d3dy5zLWN1YmVkLmRrL0FBQS9WMSNTUERfQUVPVVQ=
  :uri: http://www.s-cubed.dk/AAA/V1#SPD_AEOUT
  :rdf_type: http://www.assero.co.uk/Tabulation#SdtmSponsorDomainVariable
  :label: Outcome of Adverse Event
  :rule: ''
  :ordinal: 23
  :name: AEOUT
  :description: Description of the outcome of an event.
  :format: ''
  :ct_and_format: "(OUT)"
  :compliance:
    :id: aHR0cDovL3d3dy5hc3Nlcm8uY28udWsvQ1NOI2Y3ZDlkNGUxLWEwMGEtNDg3ZS04OWRiLWViZWNlOTEwYmEwZA==
    :uri: http://www.assero.co.uk/CSN#f7d9d4e1-a00a-487e-89db-ebece910ba0d
    :rdf_type: http://www.assero.co.uk/ISO11179Concepts#ConceptSystemNode
    :pref_label: Permissible
    :description: 'A variable that should be used in a domain as appropriate when
      collected or derived. Except where restricted by specific domain assumptions,
      any SDTM Timing and Identifier variables, and any Qualifier variables from the
      same general observation class are permissible for use in a domain based on
      that general observation class. The Sponsor can decide whether a Permissible
      variable should be included as a column when all values for that variable '
    :narrower: []
  :ct_reference:
  - :id: aHR0cDovL3d3dy5jZGlzYy5vcmcvU0RUTV9JR19BRS9WMSNJR0RfQUVPVVRfVE1DMQ==
    :uri: http://www.cdisc.org/SDTM_IG_AE/V1#IGD_AEOUT_TMC1
    :rdf_type: http://www.assero.co.uk/BusinessOperational#TMcReference
    :label: OUT
    :enabled: true
    :optional: false
    :ordinal: 1
    :reference: http://www.cdisc.org/C66768/V4#C66768
    :context: http://www.cdisc.org/CT/V13#TH
  :based_on_class_variable: 
  :is_a: 
  :comment: ''
  :used: true
  :notes: ''
  :method: ''
  :typed_as: 
  :based_on_ig_variable: http://www.cdisc.org/SDTM_IG_AE/V1#IGD_AEOUT
  :classified_as: 
- :id: aHR0cDovL3d3dy5zLWN1YmVkLmRrL0FBQS9WMSNTUERfQUVTVERZ
  :uri: http://www.s-cubed.dk/AAA/V1#SPD_AESTDY
  :rdf_type: http://www.assero.co.uk/Tabulation#SdtmSponsorDomainVariable
  :label: Study Day of Start of Adverse Event
  :rule: ''
  :ordinal: 36
  :name: AESTDY
  :description: Study day of start of adverse event relative to the sponsor-defined
    RFSTDTC.
  :format: ''
  :ct_and_format: ''
  :compliance:
    :id: aHR0cDovL3d3dy5hc3Nlcm8uY28udWsvQ1NOI2Y3ZDlkNGUxLWEwMGEtNDg3ZS04OWRiLWViZWNlOTEwYmEwZA==
    :uri: http://www.assero.co.uk/CSN#f7d9d4e1-a00a-487e-89db-ebece910ba0d
    :rdf_type: http://www.assero.co.uk/ISO11179Concepts#ConceptSystemNode
    :pref_label: Permissible
    :description: 'A variable that should be used in a domain as appropriate when
      collected or derived. Except where restricted by specific domain assumptions,
      any SDTM Timing and Identifier variables, and any Qualifier variables from the
      same general observation class are permissible for use in a domain based on
      that general observation class. The Sponsor can decide whether a Permissible
      variable should be included as a column when all values for that variable '
    :narrower: []
  :ct_reference: []
  :based_on_class_variable: 
  :is_a: 
  :comment: ''
  :used: true
  :notes: ''
  :method: ''
  :typed_as: 
  :based_on_ig_variable: http://www.cdisc.org/SDTM_IG_AE/V1#IGD_AESTDY
  :classified_as: 
- :id: aHR0cDovL3d3dy5zLWN1YmVkLmRrL0FBQS9WMSNTUERfQUVTUElE
  :uri: http://www.s-cubed.dk/AAA/V1#SPD_AESPID
  :rdf_type: http://www.assero.co.uk/Tabulation#SdtmSponsorDomainVariable
  :label: Sponsor-Defined Identifier
  :rule: ''
  :ordinal: 7
  :name: AESPID
  :description: 'Sponsor-defined identifier. It may be pre-printed on the CRF as an
    explicit line identifier or defined in the sponsor''s operational database. Example:
    Line number on an Adverse Events page.'
  :format: ''
  :ct_and_format: ''
  :compliance:
    :id: aHR0cDovL3d3dy5hc3Nlcm8uY28udWsvQ1NOI2Y3ZDlkNGUxLWEwMGEtNDg3ZS04OWRiLWViZWNlOTEwYmEwZA==
    :uri: http://www.assero.co.uk/CSN#f7d9d4e1-a00a-487e-89db-ebece910ba0d
    :rdf_type: http://www.assero.co.uk/ISO11179Concepts#ConceptSystemNode
    :pref_label: Permissible
    :description: 'A variable that should be used in a domain as appropriate when
      collected or derived. Except where restricted by specific domain assumptions,
      any SDTM Timing and Identifier variables, and any Qualifier variables from the
      same general observation class are permissible for use in a domain based on
      that general observation class. The Sponsor can decide whether a Permissible
      variable should be included as a column when all values for that variable '
    :narrower: []
  :ct_reference: []
  :based_on_class_variable: 
  :is_a: 
  :comment: ''
  :used: true
  :notes: ''
  :method: ''
  :typed_as: 
  :based_on_ig_variable: http://www.cdisc.org/SDTM_IG_AE/V1#IGD_AESPID
  :classified_as: 
- :id: aHR0cDovL3d3dy5zLWN1YmVkLmRrL0FBQS9WMSNTUERfQUVFTlJUUFQ=
  :uri: http://www.s-cubed.dk/AAA/V1#SPD_AEENRTPT
  :rdf_type: http://www.assero.co.uk/Tabulation#SdtmSponsorDomainVariable
  :label: End Relative to Reference Time Point
  :rule: ''
  :ordinal: 40
  :name: AEENRTPT
  :description: Identifies the end of the event as being before or after the reference
    time point defined by variable AEENTPT.
  :format: BEFORE, AFTER, COINCIDENT, ONGOING, U
  :ct_and_format: BEFORE, AFTER, COINCIDENT, ONGOING, U
  :compliance:
    :id: aHR0cDovL3d3dy5hc3Nlcm8uY28udWsvQ1NOI2Y3ZDlkNGUxLWEwMGEtNDg3ZS04OWRiLWViZWNlOTEwYmEwZA==
    :uri: http://www.assero.co.uk/CSN#f7d9d4e1-a00a-487e-89db-ebece910ba0d
    :rdf_type: http://www.assero.co.uk/ISO11179Concepts#ConceptSystemNode
    :pref_label: Permissible
    :description: 'A variable that should be used in a domain as appropriate when
      collected or derived. Except where restricted by specific domain assumptions,
      any SDTM Timing and Identifier variables, and any Qualifier variables from the
      same general observation class are permissible for use in a domain based on
      that general observation class. The Sponsor can decide whether a Permissible
      variable should be included as a column when all values for that variable '
    :narrower: []
  :ct_reference: []
  :based_on_class_variable: 
  :is_a: 
  :comment: ''
  :used: true
  :notes: ''
  :method: ''
  :typed_as: 
  :based_on_ig_variable: http://www.cdisc.org/SDTM_IG_AE/V1#IGD_AEENRTPT
  :classified_as: 
- :id: aHR0cDovL3d3dy5zLWN1YmVkLmRrL0FBQS9WMSNTUERfQUVQUkVTUA==
  :uri: http://www.s-cubed.dk/AAA/V1#SPD_AEPRESP
  :rdf_type: http://www.assero.co.uk/Tabulation#SdtmSponsorDomainVariable
  :label: Pre-Specified Adverse Event
  :rule: ''
  :ordinal: 13
  :name: AEPRESP
  :description: A value of 'Y' indicates that this adverse event was pre-specified
    on the CRF. Values are null for spontaneously reported events (i.e., those collected
    as free-text verbatim terms)
  :format: ''
  :ct_and_format: "(NY)"
  :compliance:
    :id: aHR0cDovL3d3dy5hc3Nlcm8uY28udWsvQ1NOI2Y3ZDlkNGUxLWEwMGEtNDg3ZS04OWRiLWViZWNlOTEwYmEwZA==
    :uri: http://www.assero.co.uk/CSN#f7d9d4e1-a00a-487e-89db-ebece910ba0d
    :rdf_type: http://www.assero.co.uk/ISO11179Concepts#ConceptSystemNode
    :pref_label: Permissible
    :description: 'A variable that should be used in a domain as appropriate when
      collected or derived. Except where restricted by specific domain assumptions,
      any SDTM Timing and Identifier variables, and any Qualifier variables from the
      same general observation class are permissible for use in a domain based on
      that general observation class. The Sponsor can decide whether a Permissible
      variable should be included as a column when all values for that variable '
    :narrower: []
  :ct_reference:
  - :id: aHR0cDovL3d3dy5jZGlzYy5vcmcvU0RUTV9JR19BRS9WMSNJR0RfQUVQUkVTUF9UTUMx
    :uri: http://www.cdisc.org/SDTM_IG_AE/V1#IGD_AEPRESP_TMC1
    :rdf_type: http://www.assero.co.uk/BusinessOperational#TMcReference
    :label: NY
    :enabled: true
    :optional: false
    :ordinal: 1
    :reference: http://www.cdisc.org/C66742/V4#C66742
    :context: http://www.cdisc.org/CT/V13#TH
  :based_on_class_variable: 
  :is_a: 
  :comment: ''
  :used: true
  :notes: ''
  :method: ''
  :typed_as: 
  :based_on_ig_variable: http://www.cdisc.org/SDTM_IG_AE/V1#IGD_AEPRESP
  :classified_as: 
- :id: aHR0cDovL3d3dy5zLWN1YmVkLmRrL0FBQS9WMSNTUERfQUVTSE9TUA==
  :uri: http://www.s-cubed.dk/AAA/V1#SPD_AESHOSP
  :rdf_type: http://www.assero.co.uk/Tabulation#SdtmSponsorDomainVariable
  :label: Requires or Prolongs Hospitalization
  :rule: ''
  :ordinal: 28
  :name: AESHOSP
  :description: Did the serious event require or prolong hospitalization?
  :format: ''
  :ct_and_format: "(NY)"
  :compliance:
    :id: aHR0cDovL3d3dy5hc3Nlcm8uY28udWsvQ1NOI2Y3ZDlkNGUxLWEwMGEtNDg3ZS04OWRiLWViZWNlOTEwYmEwZA==
    :uri: http://www.assero.co.uk/CSN#f7d9d4e1-a00a-487e-89db-ebece910ba0d
    :rdf_type: http://www.assero.co.uk/ISO11179Concepts#ConceptSystemNode
    :pref_label: Permissible
    :description: 'A variable that should be used in a domain as appropriate when
      collected or derived. Except where restricted by specific domain assumptions,
      any SDTM Timing and Identifier variables, and any Qualifier variables from the
      same general observation class are permissible for use in a domain based on
      that general observation class. The Sponsor can decide whether a Permissible
      variable should be included as a column when all values for that variable '
    :narrower: []
  :ct_reference:
  - :id: aHR0cDovL3d3dy5jZGlzYy5vcmcvU0RUTV9JR19BRS9WMSNJR0RfQUVTSE9TUF9UTUMx
    :uri: http://www.cdisc.org/SDTM_IG_AE/V1#IGD_AESHOSP_TMC1
    :rdf_type: http://www.assero.co.uk/BusinessOperational#TMcReference
    :label: NY
    :enabled: true
    :optional: false
    :ordinal: 1
    :reference: http://www.cdisc.org/C66742/V4#C66742
    :context: http://www.cdisc.org/CT/V13#TH
  :based_on_class_variable: 
  :is_a: 
  :comment: ''
  :used: true
  :notes: ''
  :method: ''
  :typed_as: 
  :based_on_ig_variable: http://www.cdisc.org/SDTM_IG_AE/V1#IGD_AESHOSP
  :classified_as: 
- :id: aHR0cDovL3d3dy5zLWN1YmVkLmRrL0FBQS9WMSNTUERfQUVURVJN
  :uri: http://www.s-cubed.dk/AAA/V1#SPD_AETERM
  :rdf_type: http://www.assero.co.uk/Tabulation#SdtmSponsorDomainVariable
  :label: Reported Term for the Adverse Event
  :rule: ''
  :ordinal: 8
  :name: AETERM
  :description: Verbatim name of the event.
  :format: ''
  :ct_and_format: ''
  :compliance:
    :id: aHR0cDovL3d3dy5hc3Nlcm8uY28udWsvQ1NOIzUyMDcwMDg0LWNkZDMtNGJhOC04Mzc3LWY2NzBlNGIwMjc2Yw==
    :uri: http://www.assero.co.uk/CSN#52070084-cdd3-4ba8-8377-f670e4b0276c
    :rdf_type: http://www.assero.co.uk/ISO11179Concepts#ConceptSystemNode
    :pref_label: Required
    :description: Any variable that is basic to the identification of a data record
      (i.e., essential key variables and a topic variable) or is necessary to make
      the record meaningful. Required variables must always be included in the dataset
      and cannot be null for any record
    :narrower: []
  :ct_reference: []
  :based_on_class_variable: 
  :is_a: 
  :comment: ''
  :used: true
  :notes: ''
  :method: ''
  :typed_as: 
  :based_on_ig_variable: http://www.cdisc.org/SDTM_IG_AE/V1#IGD_AETERM
  :classified_as: 
- :id: aHR0cDovL3d3dy5zLWN1YmVkLmRrL0FBQS9WMSNTUERfQUVMT0M=
  :uri: http://www.s-cubed.dk/AAA/V1#SPD_AELOC
  :rdf_type: http://www.assero.co.uk/Tabulation#SdtmSponsorDomainVariable
  :label: Location of Event
  :rule: ''
  :ordinal: 15
  :name: AELOC
  :description: Describes anatomical location relevant for the event (e.g., LEFT ARM
    for skin rash).
  :format: ''
  :ct_and_format: "(LOC)"
  :compliance:
    :id: aHR0cDovL3d3dy5hc3Nlcm8uY28udWsvQ1NOI2Y3ZDlkNGUxLWEwMGEtNDg3ZS04OWRiLWViZWNlOTEwYmEwZA==
    :uri: http://www.assero.co.uk/CSN#f7d9d4e1-a00a-487e-89db-ebece910ba0d
    :rdf_type: http://www.assero.co.uk/ISO11179Concepts#ConceptSystemNode
    :pref_label: Permissible
    :description: 'A variable that should be used in a domain as appropriate when
      collected or derived. Except where restricted by specific domain assumptions,
      any SDTM Timing and Identifier variables, and any Qualifier variables from the
      same general observation class are permissible for use in a domain based on
      that general observation class. The Sponsor can decide whether a Permissible
      variable should be included as a column when all values for that variable '
    :narrower: []
  :ct_reference:
  - :id: aHR0cDovL3d3dy5jZGlzYy5vcmcvU0RUTV9JR19BRS9WMSNJR0RfQUVMT0NfVE1DMQ==
    :uri: http://www.cdisc.org/SDTM_IG_AE/V1#IGD_AELOC_TMC1
    :rdf_type: http://www.assero.co.uk/BusinessOperational#TMcReference
    :label: LOC
    :enabled: true
    :optional: false
    :ordinal: 1
    :reference: http://www.cdisc.org/C74456/V8#C74456
    :context: http://www.cdisc.org/CT/V13#TH
  :based_on_class_variable: 
  :is_a: 
  :comment: ''
  :used: true
  :notes: ''
  :method: ''
  :typed_as: 
  :based_on_ig_variable: http://www.cdisc.org/SDTM_IG_AE/V1#IGD_AELOC
  :classified_as: 
- :id: aHR0cDovL3d3dy5zLWN1YmVkLmRrL0FBQS9WMSNTUERfQUVQQVRU
  :uri: http://www.s-cubed.dk/AAA/V1#SPD_AEPATT
  :rdf_type: http://www.assero.co.uk/Tabulation#SdtmSponsorDomainVariable
  :label: Pattern of Adverse Event
  :rule: ''
  :ordinal: 22
  :name: AEPATT
  :description: 'Used to indicate the pattern of the event over time. Examples: INTERMITTENT,
    CONTINUOUS, SINGLE EVENT.'
  :format: ''
  :ct_and_format: ''
  :compliance:
    :id: aHR0cDovL3d3dy5hc3Nlcm8uY28udWsvQ1NOI2Y3ZDlkNGUxLWEwMGEtNDg3ZS04OWRiLWViZWNlOTEwYmEwZA==
    :uri: http://www.assero.co.uk/CSN#f7d9d4e1-a00a-487e-89db-ebece910ba0d
    :rdf_type: http://www.assero.co.uk/ISO11179Concepts#ConceptSystemNode
    :pref_label: Permissible
    :description: 'A variable that should be used in a domain as appropriate when
      collected or derived. Except where restricted by specific domain assumptions,
      any SDTM Timing and Identifier variables, and any Qualifier variables from the
      same general observation class are permissible for use in a domain based on
      that general observation class. The Sponsor can decide whether a Permissible
      variable should be included as a column when all values for that variable '
    :narrower: []
  :ct_reference: []
  :based_on_class_variable: 
  :is_a: 
  :comment: ''
  :used: true
  :notes: ''
  :method: ''
  :typed_as: 
  :based_on_ig_variable: http://www.cdisc.org/SDTM_IG_AE/V1#IGD_AEPATT
  :classified_as: 
- :id: aHR0cDovL3d3dy5zLWN1YmVkLmRrL0FBQS9WMSNTUERfQUVTTElGRQ==
  :uri: http://www.s-cubed.dk/AAA/V1#SPD_AESLIFE
  :rdf_type: http://www.assero.co.uk/Tabulation#SdtmSponsorDomainVariable
  :label: Is Life Threatening
  :rule: ''
  :ordinal: 29
  :name: AESLIFE
  :description: Was the serious event life threatening?
  :format: ''
  :ct_and_format: "(NY)"
  :compliance:
    :id: aHR0cDovL3d3dy5hc3Nlcm8uY28udWsvQ1NOI2Y3ZDlkNGUxLWEwMGEtNDg3ZS04OWRiLWViZWNlOTEwYmEwZA==
    :uri: http://www.assero.co.uk/CSN#f7d9d4e1-a00a-487e-89db-ebece910ba0d
    :rdf_type: http://www.assero.co.uk/ISO11179Concepts#ConceptSystemNode
    :pref_label: Permissible
    :description: 'A variable that should be used in a domain as appropriate when
      collected or derived. Except where restricted by specific domain assumptions,
      any SDTM Timing and Identifier variables, and any Qualifier variables from the
      same general observation class are permissible for use in a domain based on
      that general observation class. The Sponsor can decide whether a Permissible
      variable should be included as a column when all values for that variable '
    :narrower: []
  :ct_reference:
  - :id: aHR0cDovL3d3dy5jZGlzYy5vcmcvU0RUTV9JR19BRS9WMSNJR0RfQUVTTElGRV9UTUMx
    :uri: http://www.cdisc.org/SDTM_IG_AE/V1#IGD_AESLIFE_TMC1
    :rdf_type: http://www.assero.co.uk/BusinessOperational#TMcReference
    :label: NY
    :enabled: true
    :optional: false
    :ordinal: 1
    :reference: http://www.cdisc.org/C66742/V4#C66742
    :context: http://www.cdisc.org/CT/V13#TH
  :based_on_class_variable: 
  :is_a: 
  :comment: ''
  :used: true
  :notes: ''
  :method: ''
  :typed_as: 
  :based_on_ig_variable: http://www.cdisc.org/SDTM_IG_AE/V1#IGD_AESLIFE
  :classified_as: 
- :id: aHR0cDovL3d3dy5zLWN1YmVkLmRrL0FBQS9WMSNTUERfQUVEVVI=
  :uri: http://www.s-cubed.dk/AAA/V1#SPD_AEDUR
  :rdf_type: http://www.assero.co.uk/Tabulation#SdtmSponsorDomainVariable
  :label: Duration of Adverse Event
  :rule: ''
  :ordinal: 38
  :name: AEDUR
  :description: 'Collected duration and unit of an adverse event. Used only if collected
    on the CRF and not derived from start and end date/times. Example: P1DT2H (for
    1 day, 2 hours).'
  :format: ISO 8601
  :ct_and_format: ISO 8601
  :compliance:
    :id: aHR0cDovL3d3dy5hc3Nlcm8uY28udWsvQ1NOI2Y3ZDlkNGUxLWEwMGEtNDg3ZS04OWRiLWViZWNlOTEwYmEwZA==
    :uri: http://www.assero.co.uk/CSN#f7d9d4e1-a00a-487e-89db-ebece910ba0d
    :rdf_type: http://www.assero.co.uk/ISO11179Concepts#ConceptSystemNode
    :pref_label: Permissible
    :description: 'A variable that should be used in a domain as appropriate when
      collected or derived. Except where restricted by specific domain assumptions,
      any SDTM Timing and Identifier variables, and any Qualifier variables from the
      same general observation class are permissible for use in a domain based on
      that general observation class. The Sponsor can decide whether a Permissible
      variable should be included as a column when all values for that variable '
    :narrower: []
  :ct_reference: []
  :based_on_class_variable: 
  :is_a: 
  :comment: ''
  :used: true
  :notes: ''
  :method: ''
  :typed_as: 
  :based_on_ig_variable: http://www.cdisc.org/SDTM_IG_AE/V1#IGD_AEDUR
  :classified_as: 
- :id: aHR0cDovL3d3dy5zLWN1YmVkLmRrL0FBQS9WMSNTUERfQUVERUNPRA==
  :uri: http://www.s-cubed.dk/AAA/V1#SPD_AEDECOD
  :rdf_type: http://www.assero.co.uk/Tabulation#SdtmSponsorDomainVariable
  :label: Dictionary-Derived Term
  :rule: ''
  :ordinal: 10
  :name: AEDECOD
  :description: Dictionary-derived text description of AETERM or AEMODIFY. Equivalent
    to the Preferred Term (PT in MedDRA). The sponsor is expected to provide the dictionary
    name and version used to map the terms utilizing the define.xml external codelist
    attributes
  :format: ''
  :ct_and_format: ''
  :compliance:
    :id: aHR0cDovL3d3dy5hc3Nlcm8uY28udWsvQ1NOIzUyMDcwMDg0LWNkZDMtNGJhOC04Mzc3LWY2NzBlNGIwMjc2Yw==
    :uri: http://www.assero.co.uk/CSN#52070084-cdd3-4ba8-8377-f670e4b0276c
    :rdf_type: http://www.assero.co.uk/ISO11179Concepts#ConceptSystemNode
    :pref_label: Required
    :description: Any variable that is basic to the identification of a data record
      (i.e., essential key variables and a topic variable) or is necessary to make
      the record meaningful. Required variables must always be included in the dataset
      and cannot be null for any record
    :narrower: []
  :ct_reference: []
  :based_on_class_variable: 
  :is_a: 
  :comment: ''
  :used: true
  :notes: ''
  :method: ''
  :typed_as: 
  :based_on_ig_variable: http://www.cdisc.org/SDTM_IG_AE/V1#IGD_AEDECOD
  :classified_as: 
- :id: aHR0cDovL3d3dy5zLWN1YmVkLmRrL0FBQS9WMSNTUERfQUVNT0RJRlk=
  :uri: http://www.s-cubed.dk/AAA/V1#SPD_AEMODIFY
  :rdf_type: http://www.assero.co.uk/Tabulation#SdtmSponsorDomainVariable
  :label: Modified Reported Term
  :rule: ''
  :ordinal: 9
  :name: AEMODIFY
  :description: If AETERM is modified to facilitate coding, then AEMODIFY will contain
    the modified text.
  :format: ''
  :ct_and_format: ''
  :compliance:
    :id: aHR0cDovL3d3dy5hc3Nlcm8uY28udWsvQ1NOI2Y3ZDlkNGUxLWEwMGEtNDg3ZS04OWRiLWViZWNlOTEwYmEwZA==
    :uri: http://www.assero.co.uk/CSN#f7d9d4e1-a00a-487e-89db-ebece910ba0d
    :rdf_type: http://www.assero.co.uk/ISO11179Concepts#ConceptSystemNode
    :pref_label: Permissible
    :description: 'A variable that should be used in a domain as appropriate when
      collected or derived. Except where restricted by specific domain assumptions,
      any SDTM Timing and Identifier variables, and any Qualifier variables from the
      same general observation class are permissible for use in a domain based on
      that general observation class. The Sponsor can decide whether a Permissible
      variable should be included as a column when all values for that variable '
    :narrower: []
  :ct_reference: []
  :based_on_class_variable: 
  :is_a: 
  :comment: ''
  :used: true
  :notes: ''
  :method: ''
  :typed_as: 
  :based_on_ig_variable: http://www.cdisc.org/SDTM_IG_AE/V1#IGD_AEMODIFY
  :classified_as: 
- :id: aHR0cDovL3d3dy5zLWN1YmVkLmRrL0FBQS9WMSNTUERfQUVTRVE=
  :uri: http://www.s-cubed.dk/AAA/V1#SPD_AESEQ
  :rdf_type: http://www.assero.co.uk/Tabulation#SdtmSponsorDomainVariable
  :label: Sequence Number
  :rule: ''
  :ordinal: 4
  :name: AESEQ
  :description: Sequence Number given to ensure uniqueness of subject records within
    a domain. May be any valid number.
  :format: ''
  :ct_and_format: ''
  :compliance:
    :id: aHR0cDovL3d3dy5hc3Nlcm8uY28udWsvQ1NOIzUyMDcwMDg0LWNkZDMtNGJhOC04Mzc3LWY2NzBlNGIwMjc2Yw==
    :uri: http://www.assero.co.uk/CSN#52070084-cdd3-4ba8-8377-f670e4b0276c
    :rdf_type: http://www.assero.co.uk/ISO11179Concepts#ConceptSystemNode
    :pref_label: Required
    :description: Any variable that is basic to the identification of a data record
      (i.e., essential key variables and a topic variable) or is necessary to make
      the record meaningful. Required variables must always be included in the dataset
      and cannot be null for any record
    :narrower: []
  :ct_reference: []
  :based_on_class_variable: 
  :is_a: 
  :comment: ''
  :used: true
  :notes: ''
  :method: ''
  :typed_as: 
  :based_on_ig_variable: http://www.cdisc.org/SDTM_IG_AE/V1#IGD_AESEQ
  :classified_as: 
- :id: aHR0cDovL3d3dy5zLWN1YmVkLmRrL0FBQS9WMSNTUERfQUVSRUxOU1Q=
  :uri: http://www.s-cubed.dk/AAA/V1#SPD_AERELNST
  :rdf_type: http://www.assero.co.uk/Tabulation#SdtmSponsorDomainVariable
  :label: Relationship to Non-Study Treatment
  :rule: ''
  :ordinal: 21
  :name: AERELNST
  :description: 'Records the investigator''s opinion as to whether the event may have
    been due to a treatment other than study drug. May be reported as free text. Example:
    ''MORE LIKELY RELATED TO ASPIRIN USE.''.'
  :format: ''
  :ct_and_format: ''
  :compliance:
    :id: aHR0cDovL3d3dy5hc3Nlcm8uY28udWsvQ1NOI2Y3ZDlkNGUxLWEwMGEtNDg3ZS04OWRiLWViZWNlOTEwYmEwZA==
    :uri: http://www.assero.co.uk/CSN#f7d9d4e1-a00a-487e-89db-ebece910ba0d
    :rdf_type: http://www.assero.co.uk/ISO11179Concepts#ConceptSystemNode
    :pref_label: Permissible
    :description: 'A variable that should be used in a domain as appropriate when
      collected or derived. Except where restricted by specific domain assumptions,
      any SDTM Timing and Identifier variables, and any Qualifier variables from the
      same general observation class are permissible for use in a domain based on
      that general observation class. The Sponsor can decide whether a Permissible
      variable should be included as a column when all values for that variable '
    :narrower: []
  :ct_reference: []
  :based_on_class_variable: 
  :is_a: 
  :comment: ''
  :used: true
  :notes: ''
  :method: ''
  :typed_as: 
  :based_on_ig_variable: http://www.cdisc.org/SDTM_IG_AE/V1#IGD_AERELNST
  :classified_as: 
- :id: aHR0cDovL3d3dy5zLWN1YmVkLmRrL0FBQS9WMSNTUERfQUVTRFRI
  :uri: http://www.s-cubed.dk/AAA/V1#SPD_AESDTH
  :rdf_type: http://www.assero.co.uk/Tabulation#SdtmSponsorDomainVariable
  :label: Results in Death
  :rule: ''
  :ordinal: 27
  :name: AESDTH
  :description: Did the serious event result in death?
  :format: ''
  :ct_and_format: "(NY)"
  :compliance:
    :id: aHR0cDovL3d3dy5hc3Nlcm8uY28udWsvQ1NOI2Y3ZDlkNGUxLWEwMGEtNDg3ZS04OWRiLWViZWNlOTEwYmEwZA==
    :uri: http://www.assero.co.uk/CSN#f7d9d4e1-a00a-487e-89db-ebece910ba0d
    :rdf_type: http://www.assero.co.uk/ISO11179Concepts#ConceptSystemNode
    :pref_label: Permissible
    :description: 'A variable that should be used in a domain as appropriate when
      collected or derived. Except where restricted by specific domain assumptions,
      any SDTM Timing and Identifier variables, and any Qualifier variables from the
      same general observation class are permissible for use in a domain based on
      that general observation class. The Sponsor can decide whether a Permissible
      variable should be included as a column when all values for that variable '
    :narrower: []
  :ct_reference:
  - :id: aHR0cDovL3d3dy5jZGlzYy5vcmcvU0RUTV9JR19BRS9WMSNJR0RfQUVTRFRIX1RNQzE=
    :uri: http://www.cdisc.org/SDTM_IG_AE/V1#IGD_AESDTH_TMC1
    :rdf_type: http://www.assero.co.uk/BusinessOperational#TMcReference
    :label: NY
    :enabled: true
    :optional: false
    :ordinal: 1
    :reference: http://www.cdisc.org/C66742/V4#C66742
    :context: http://www.cdisc.org/CT/V13#TH
  :based_on_class_variable: 
  :is_a: 
  :comment: ''
  :used: true
  :notes: ''
  :method: ''
  :typed_as: 
  :based_on_ig_variable: http://www.cdisc.org/SDTM_IG_AE/V1#IGD_AESDTH
  :classified_as: 
- :id: aHR0cDovL3d3dy5zLWN1YmVkLmRrL0FBQS9WMSNTUERfQUVCT0RTWVM=
  :uri: http://www.s-cubed.dk/AAA/V1#SPD_AEBODSYS
  :rdf_type: http://www.assero.co.uk/Tabulation#SdtmSponsorDomainVariable
  :label: Body System or Organ Class
  :rule: ''
  :ordinal: 14
  :name: AEBODSYS
  :description: Dictionary derived. Body system or organ class used by the sponsor
    from the coding dictionary (e.g., MedDRA). When using a multi-axial dictionary
    such as MedDRA, this should contain the SOC used for the sponsor's analyses and
    summary tables which may not necessarily be the primary SOC.
  :format: ''
  :ct_and_format: ''
  :compliance:
    :id: aHR0cDovL3d3dy5hc3Nlcm8uY28udWsvQ1NOIzA0NmY2YzI0LTllYWYtNGY2MC04MzkwLWYzNjMyOGM4MmVjNA==
    :uri: http://www.assero.co.uk/CSN#046f6c24-9eaf-4f60-8390-f36328c82ec4
    :rdf_type: http://www.assero.co.uk/ISO11179Concepts#ConceptSystemNode
    :pref_label: Expected
    :description: Any variable necessary to make a record useful in the context of
      a specific domain. Expected variables may contain some null values, but in most
      cases will not contain null values for every record. When no data has been collected
      for an expected variable, however, a null column must still be included in the
      dataset, and a comment must be included in the define.xml to state that data
      was not collected.
    :narrower: []
  :ct_reference: []
  :based_on_class_variable: 
  :is_a: 
  :comment: ''
  :used: true
  :notes: ''
  :method: ''
  :typed_as: 
  :based_on_ig_variable: http://www.cdisc.org/SDTM_IG_AE/V1#IGD_AEBODSYS
  :classified_as: 
- :id: aHR0cDovL3d3dy5zLWN1YmVkLmRrL0FBQS9WMSNTUERfQUVBQ05PVEg=
  :uri: http://www.s-cubed.dk/AAA/V1#SPD_AEACNOTH
  :rdf_type: http://www.assero.co.uk/Tabulation#SdtmSponsorDomainVariable
  :label: Other Action Taken
  :rule: ''
  :ordinal: 19
  :name: AEACNOTH
  :description: 'Describes other actions taken as a result of the event that are unrelated
    to dose adjustments of study treatment. Usually reported as free text. Example:
    ''TREATMENT UNBLINDED. PRIMARY CARE PHYSICIAN NOTIFIED.'''
  :format: ''
  :ct_and_format: ''
  :compliance:
    :id: aHR0cDovL3d3dy5hc3Nlcm8uY28udWsvQ1NOI2Y3ZDlkNGUxLWEwMGEtNDg3ZS04OWRiLWViZWNlOTEwYmEwZA==
    :uri: http://www.assero.co.uk/CSN#f7d9d4e1-a00a-487e-89db-ebece910ba0d
    :rdf_type: http://www.assero.co.uk/ISO11179Concepts#ConceptSystemNode
    :pref_label: Permissible
    :description: 'A variable that should be used in a domain as appropriate when
      collected or derived. Except where restricted by specific domain assumptions,
      any SDTM Timing and Identifier variables, and any Qualifier variables from the
      same general observation class are permissible for use in a domain based on
      that general observation class. The Sponsor can decide whether a Permissible
      variable should be included as a column when all values for that variable '
    :narrower: []
  :ct_reference: []
  :based_on_class_variable: 
  :is_a: 
  :comment: ''
  :used: true
  :notes: ''
  :method: ''
  :typed_as: 
  :based_on_ig_variable: http://www.cdisc.org/SDTM_IG_AE/V1#IGD_AEACNOTH
  :classified_as: 
- :id: aHR0cDovL3d3dy5zLWN1YmVkLmRrL0FBQS9WMSNTUERfQUVUT1hHUg==
  :uri: http://www.s-cubed.dk/AAA/V1#SPD_AETOXGR
  :rdf_type: http://www.assero.co.uk/Tabulation#SdtmSponsorDomainVariable
  :label: Standard Toxicity Grade
  :rule: ''
  :ordinal: 33
  :name: AETOXGR
  :description: Toxicity grade according to a standard toxicity scale such as Common
    Terminology Criteria for Adverse Events v3.0 (CTCAE). Sponsor should specify name
    of the scale and version used in the metadata (see 6.2.1.1, Assumption 6c). If
    value is from a numeric scale, represent only the number (e.g., '2' and not 'Grade
    2').
  :format: ''
  :ct_and_format: ''
  :compliance:
    :id: aHR0cDovL3d3dy5hc3Nlcm8uY28udWsvQ1NOI2Y3ZDlkNGUxLWEwMGEtNDg3ZS04OWRiLWViZWNlOTEwYmEwZA==
    :uri: http://www.assero.co.uk/CSN#f7d9d4e1-a00a-487e-89db-ebece910ba0d
    :rdf_type: http://www.assero.co.uk/ISO11179Concepts#ConceptSystemNode
    :pref_label: Permissible
    :description: 'A variable that should be used in a domain as appropriate when
      collected or derived. Except where restricted by specific domain assumptions,
      any SDTM Timing and Identifier variables, and any Qualifier variables from the
      same general observation class are permissible for use in a domain based on
      that general observation class. The Sponsor can decide whether a Permissible
      variable should be included as a column when all values for that variable '
    :narrower: []
  :ct_reference: []
  :based_on_class_variable: 
  :is_a: 
  :comment: ''
  :used: true
  :notes: ''
  :method: ''
  :typed_as: 
  :based_on_ig_variable: http://www.cdisc.org/SDTM_IG_AE/V1#IGD_AETOXGR
  :classified_as: 
- :id: aHR0cDovL3d3dy5zLWN1YmVkLmRrL0FBQS9WMSNTUERfQUVFTkRZ
  :uri: http://www.s-cubed.dk/AAA/V1#SPD_AEENDY
  :rdf_type: http://www.assero.co.uk/Tabulation#SdtmSponsorDomainVariable
  :label: Study Day of End of Adverse Event
  :rule: ''
  :ordinal: 37
  :name: AEENDY
  :description: Study day of end of event relative to the sponsor-defined RFSTDTC.
  :format: ''
  :ct_and_format: ''
  :compliance:
    :id: aHR0cDovL3d3dy5hc3Nlcm8uY28udWsvQ1NOI2Y3ZDlkNGUxLWEwMGEtNDg3ZS04OWRiLWViZWNlOTEwYmEwZA==
    :uri: http://www.assero.co.uk/CSN#f7d9d4e1-a00a-487e-89db-ebece910ba0d
    :rdf_type: http://www.assero.co.uk/ISO11179Concepts#ConceptSystemNode
    :pref_label: Permissible
    :description: 'A variable that should be used in a domain as appropriate when
      collected or derived. Except where restricted by specific domain assumptions,
      any SDTM Timing and Identifier variables, and any Qualifier variables from the
      same general observation class are permissible for use in a domain based on
      that general observation class. The Sponsor can decide whether a Permissible
      variable should be included as a column when all values for that variable '
    :narrower: []
  :ct_reference: []
  :based_on_class_variable: 
  :is_a: 
  :comment: ''
  :used: true
  :notes: ''
  :method: ''
  :typed_as: 
  :based_on_ig_variable: http://www.cdisc.org/SDTM_IG_AE/V1#IGD_AEENDY
  :classified_as: 
- :id: aHR0cDovL3d3dy5zLWN1YmVkLmRrL0FBQS9WMSNTUERfVVNVQkpJRA==
  :uri: http://www.s-cubed.dk/AAA/V1#SPD_USUBJID
  :rdf_type: http://www.assero.co.uk/Tabulation#SdtmSponsorDomainVariable
  :label: Unique Subject Identifier
  :rule: ''
  :ordinal: 3
  :name: USUBJID
  :description: Identifier used to uniquely identify a subject across all studies
    for all applications or submissions involving the product.
  :format: ''
  :ct_and_format: ''
  :compliance:
    :id: aHR0cDovL3d3dy5hc3Nlcm8uY28udWsvQ1NOIzUyMDcwMDg0LWNkZDMtNGJhOC04Mzc3LWY2NzBlNGIwMjc2Yw==
    :uri: http://www.assero.co.uk/CSN#52070084-cdd3-4ba8-8377-f670e4b0276c
    :rdf_type: http://www.assero.co.uk/ISO11179Concepts#ConceptSystemNode
    :pref_label: Required
    :description: Any variable that is basic to the identification of a data record
      (i.e., essential key variables and a topic variable) or is necessary to make
      the record meaningful. Required variables must always be included in the dataset
      and cannot be null for any record
    :narrower: []
  :ct_reference: []
  :based_on_class_variable: 
  :is_a: 
  :comment: ''
  :used: true
  :notes: ''
  :method: ''
  :typed_as: 
  :based_on_ig_variable: http://www.cdisc.org/SDTM_IG_AE/V1#IGD_USUBJID
  :classified_as: 
- :id: aHR0cDovL3d3dy5zLWN1YmVkLmRrL0FBQS9WMSNTUERfQUVFTkRUQw==
  :uri: http://www.s-cubed.dk/AAA/V1#SPD_AEENDTC
  :rdf_type: http://www.assero.co.uk/Tabulation#SdtmSponsorDomainVariable
  :label: End Date/Time of Adverse Event
  :rule: ''
  :ordinal: 35
  :name: AEENDTC
  :description: ''
  :format: ISO 8601
  :ct_and_format: ISO 8601
  :compliance:
    :id: aHR0cDovL3d3dy5hc3Nlcm8uY28udWsvQ1NOIzA0NmY2YzI0LTllYWYtNGY2MC04MzkwLWYzNjMyOGM4MmVjNA==
    :uri: http://www.assero.co.uk/CSN#046f6c24-9eaf-4f60-8390-f36328c82ec4
    :rdf_type: http://www.assero.co.uk/ISO11179Concepts#ConceptSystemNode
    :pref_label: Expected
    :description: Any variable necessary to make a record useful in the context of
      a specific domain. Expected variables may contain some null values, but in most
      cases will not contain null values for every record. When no data has been collected
      for an expected variable, however, a null column must still be included in the
      dataset, and a comment must be included in the define.xml to state that data
      was not collected.
    :narrower: []
  :ct_reference: []
  :based_on_class_variable: 
  :is_a: 
  :comment: ''
  :used: true
  :notes: ''
  :method: ''
  :typed_as: 
  :based_on_ig_variable: http://www.cdisc.org/SDTM_IG_AE/V1#IGD_AEENDTC
  :classified_as: 
- :id: aHR0cDovL3d3dy5zLWN1YmVkLmRrL0FBQS9WMSNTUERfQUVBQ04=
  :uri: http://www.s-cubed.dk/AAA/V1#SPD_AEACN
  :rdf_type: http://www.assero.co.uk/Tabulation#SdtmSponsorDomainVariable
  :label: Action Taken with Study Treatment
  :rule: ''
  :ordinal: 18
  :name: AEACN
  :description: 'Describes changes to the study treatment as a result of the event.
    AEACN is specifically for the relationship to study treatment. AEACNOTH is for
    actions unrelated to dose adjustments of study treatment. Examples of AEACN values
    include ICH E2B values: DRUG WITHDRAWN, DOSE REDUCED, DOSE INCREASED, DOSE NOT
    CHANGED, UNKNOWN or NOT APPLICABLE'
  :format: ''
  :ct_and_format: "(ACN)"
  :compliance:
    :id: aHR0cDovL3d3dy5hc3Nlcm8uY28udWsvQ1NOIzA0NmY2YzI0LTllYWYtNGY2MC04MzkwLWYzNjMyOGM4MmVjNA==
    :uri: http://www.assero.co.uk/CSN#046f6c24-9eaf-4f60-8390-f36328c82ec4
    :rdf_type: http://www.assero.co.uk/ISO11179Concepts#ConceptSystemNode
    :pref_label: Expected
    :description: Any variable necessary to make a record useful in the context of
      a specific domain. Expected variables may contain some null values, but in most
      cases will not contain null values for every record. When no data has been collected
      for an expected variable, however, a null column must still be included in the
      dataset, and a comment must be included in the define.xml to state that data
      was not collected.
    :narrower: []
  :ct_reference:
  - :id: aHR0cDovL3d3dy5jZGlzYy5vcmcvU0RUTV9JR19BRS9WMSNJR0RfQUVBQ05fVE1DMQ==
    :uri: http://www.cdisc.org/SDTM_IG_AE/V1#IGD_AEACN_TMC1
    :rdf_type: http://www.assero.co.uk/BusinessOperational#TMcReference
    :label: ACN
    :enabled: true
    :optional: false
    :ordinal: 1
    :reference: http://www.cdisc.org/C66767/V4#C66767
    :context: http://www.cdisc.org/CT/V13#TH
  :based_on_class_variable: 
  :is_a: 
  :comment: ''
  :used: true
  :notes: ''
  :method: ''
  :typed_as: 
  :based_on_ig_variable: http://www.cdisc.org/SDTM_IG_AE/V1#IGD_AEACN
  :classified_as: 
- :id: aHR0cDovL3d3dy5zLWN1YmVkLmRrL0FBQS9WMSNTUERfQUVFTlRQVA==
  :uri: http://www.s-cubed.dk/AAA/V1#SPD_AEENTPT
  :rdf_type: http://www.assero.co.uk/Tabulation#SdtmSponsorDomainVariable
  :label: End Reference Time Point
  :rule: ''
  :ordinal: 41
  :name: AEENTPT
  :description: 'Description of date/time in ISO 8601 character format of the reference
    point referred to by AEENRTPT. Examples: ''2003-12-25'' or ''VISIT 2''.'
  :format: ''
  :ct_and_format: ''
  :compliance:
    :id: aHR0cDovL3d3dy5hc3Nlcm8uY28udWsvQ1NOI2Y3ZDlkNGUxLWEwMGEtNDg3ZS04OWRiLWViZWNlOTEwYmEwZA==
    :uri: http://www.assero.co.uk/CSN#f7d9d4e1-a00a-487e-89db-ebece910ba0d
    :rdf_type: http://www.assero.co.uk/ISO11179Concepts#ConceptSystemNode
    :pref_label: Permissible
    :description: 'A variable that should be used in a domain as appropriate when
      collected or derived. Except where restricted by specific domain assumptions,
      any SDTM Timing and Identifier variables, and any Qualifier variables from the
      same general observation class are permissible for use in a domain based on
      that general observation class. The Sponsor can decide whether a Permissible
      variable should be included as a column when all values for that variable '
    :narrower: []
  :ct_reference: []
  :based_on_class_variable: 
  :is_a: 
  :comment: ''
  :used: true
  :notes: ''
  :method: ''
  :typed_as: 
  :based_on_ig_variable: http://www.cdisc.org/SDTM_IG_AE/V1#IGD_AEENTPT
  :classified_as: 
- :id: aHR0cDovL3d3dy5zLWN1YmVkLmRrL0FBQS9WMSNTUERfU1RVRFlJRA==
  :uri: http://www.s-cubed.dk/AAA/V1#SPD_STUDYID
  :rdf_type: http://www.assero.co.uk/Tabulation#SdtmSponsorDomainVariable
  :label: Study Identifier
  :rule: ''
  :ordinal: 1
  :name: STUDYID
  :description: Unique identifier for a study.
  :format: ''
  :ct_and_format: ''
  :compliance:
    :id: aHR0cDovL3d3dy5hc3Nlcm8uY28udWsvQ1NOIzUyMDcwMDg0LWNkZDMtNGJhOC04Mzc3LWY2NzBlNGIwMjc2Yw==
    :uri: http://www.assero.co.uk/CSN#52070084-cdd3-4ba8-8377-f670e4b0276c
    :rdf_type: http://www.assero.co.uk/ISO11179Concepts#ConceptSystemNode
    :pref_label: Required
    :description: Any variable that is basic to the identification of a data record
      (i.e., essential key variables and a topic variable) or is necessary to make
      the record meaningful. Required variables must always be included in the dataset
      and cannot be null for any record
    :narrower: []
  :ct_reference: []
  :based_on_class_variable: 
  :is_a: 
  :comment: ''
  :used: true
  :notes: ''
  :method: ''
  :typed_as: 
  :based_on_ig_variable: http://www.cdisc.org/SDTM_IG_AE/V1#IGD_STUDYID
  :classified_as: 
- :id: aHR0cDovL3d3dy5zLWN1YmVkLmRrL0FBQS9WMSNTUERfQUVTQ0FO
  :uri: http://www.s-cubed.dk/AAA/V1#SPD_AESCAN
  :rdf_type: http://www.assero.co.uk/Tabulation#SdtmSponsorDomainVariable
  :label: Involves Cancer
  :rule: ''
  :ordinal: 24
  :name: AESCAN
  :description: Was the serious event associated with the development of cancer?
  :format: ''
  :ct_and_format: "(NY)"
  :compliance:
    :id: aHR0cDovL3d3dy5hc3Nlcm8uY28udWsvQ1NOI2Y3ZDlkNGUxLWEwMGEtNDg3ZS04OWRiLWViZWNlOTEwYmEwZA==
    :uri: http://www.assero.co.uk/CSN#f7d9d4e1-a00a-487e-89db-ebece910ba0d
    :rdf_type: http://www.assero.co.uk/ISO11179Concepts#ConceptSystemNode
    :pref_label: Permissible
    :description: 'A variable that should be used in a domain as appropriate when
      collected or derived. Except where restricted by specific domain assumptions,
      any SDTM Timing and Identifier variables, and any Qualifier variables from the
      same general observation class are permissible for use in a domain based on
      that general observation class. The Sponsor can decide whether a Permissible
      variable should be included as a column when all values for that variable '
    :narrower: []
  :ct_reference:
  - :id: aHR0cDovL3d3dy5jZGlzYy5vcmcvU0RUTV9JR19BRS9WMSNJR0RfQUVTQ0FOX1RNQzE=
    :uri: http://www.cdisc.org/SDTM_IG_AE/V1#IGD_AESCAN_TMC1
    :rdf_type: http://www.assero.co.uk/BusinessOperational#TMcReference
    :label: NY
    :enabled: true
    :optional: false
    :ordinal: 1
    :reference: http://www.cdisc.org/C66742/V4#C66742
    :context: http://www.cdisc.org/CT/V13#TH
  :based_on_class_variable: 
  :is_a: 
  :comment: ''
  :used: true
  :notes: ''
  :method: ''
  :typed_as: 
  :based_on_ig_variable: http://www.cdisc.org/SDTM_IG_AE/V1#IGD_AESCAN
  :classified_as: 
- :id: aHR0cDovL3d3dy5hc3Nlcm8uY28udWsvU0RWIzE3NjBjYmIxLWEzNzAtNDFmNi1hM2IzLTQ5M2MxZDljMjIzOA==
  :uri: http://www.assero.co.uk/SDV#1760cbb1-a370-41f6-a3b3-493c1d9c2238
  :rdf_type: http://www.assero.co.uk/Tabulation#SdtmSponsorDomainVariable
  :label: ''
  :rule: ''
  :ordinal: 42
  :name: AEXXX042
  :description: ''
  :format: ''
  :ct_and_format: ''
  :compliance:
    :id: aHR0cDovL3d3dy5hc3Nlcm8uY28udWsvQ1NOI2Y3ZDlkNGUxLWEwMGEtNDg3ZS04OWRiLWViZWNlOTEwYmEwZA==
    :uri: http://www.assero.co.uk/CSN#f7d9d4e1-a00a-487e-89db-ebece910ba0d
    :rdf_type: http://www.assero.co.uk/ISO11179Concepts#ConceptSystemNode
    :pref_label: Permissible
    :description: 'A variable that should be used in a domain as appropriate when
      collected or derived. Except where restricted by specific domain assumptions,
      any SDTM Timing and Identifier variables, and any Qualifier variables from the
      same general observation class are permissible for use in a domain based on
      that general observation class. The Sponsor can decide whether a Permissible
      variable should be included as a column when all values for that variable '
    :narrower: []
  :ct_reference: []
  :based_on_class_variable: 
  :is_a: 
  :comment: ''
  :used: true
  :notes: ''
  :method: ''
  :typed_as:
    :id: aHR0cDovL3d3dy5hc3Nlcm8uY28udWsvQ1NOI2QyZjJiYmViLThmNzktNGZiMS1iMTkwLWRkODY0ZDI5ZjA4MA==
    :uri: http://www.assero.co.uk/CSN#d2f2bbeb-8f79-4fb1-b190-dd864d29f080
    :rdf_type: http://www.assero.co.uk/ISO11179Concepts#ConceptSystemNode
    :pref_label: Character
    :description: Character datatype
    :narrower: []
  :based_on_ig_variable: 
  :classified_as:
    :id: aHR0cDovL3d3dy5hc3Nlcm8uY28udWsvQ1NOIzg2Y2Q2MWU2LWQ0OGMtNGU0Mi1iOTk0LWJlZTM1ZTIzNTFmZQ==
    :uri: http://www.assero.co.uk/CSN#86cd61e6-d48c-4e42-b994-bee35e2351fe
    :rdf_type: http://www.assero.co.uk/ISO11179Concepts#ConceptSystemNode
    :pref_label: None
    :description: No role assigned
    :narrower: []
- :id: aHR0cDovL3d3dy5hc3Nlcm8uY28udWsvU0RWIzQ2NDZiNDdhLTRhZTQtNGYyMS1iNWUyLTU2NTgxNWM4Y2RlZA==
  :uri: http://www.assero.co.uk/SDV#4646b47a-4ae4-4f21-b5e2-565815c8cded
  :rdf_type: http://www.assero.co.uk/Tabulation#SdtmSponsorDomainVariable
  :label: ''
  :rule: ''
  :ordinal: 43
  :name: AEXXX043
  :description: ''
  :format: ''
  :ct_and_format: ''
  :compliance:
    :id: aHR0cDovL3d3dy5hc3Nlcm8uY28udWsvQ1NOI2Y3ZDlkNGUxLWEwMGEtNDg3ZS04OWRiLWViZWNlOTEwYmEwZA==
    :uri: http://www.assero.co.uk/CSN#f7d9d4e1-a00a-487e-89db-ebece910ba0d
    :rdf_type: http://www.assero.co.uk/ISO11179Concepts#ConceptSystemNode
    :pref_label: Permissible
    :description: 'A variable that should be used in a domain as appropriate when
      collected or derived. Except where restricted by specific domain assumptions,
      any SDTM Timing and Identifier variables, and any Qualifier variables from the
      same general observation class are permissible for use in a domain based on
      that general observation class. The Sponsor can decide whether a Permissible
      variable should be included as a column when all values for that variable '
    :narrower: []
  :ct_reference: []
  :based_on_class_variable: 
  :is_a: 
  :comment: ''
  :used: true
  :notes: ''
  :method: ''
  :typed_as:
    :id: aHR0cDovL3d3dy5hc3Nlcm8uY28udWsvQ1NOI2QyZjJiYmViLThmNzktNGZiMS1iMTkwLWRkODY0ZDI5ZjA4MA==
    :uri: http://www.assero.co.uk/CSN#d2f2bbeb-8f79-4fb1-b190-dd864d29f080
    :rdf_type: http://www.assero.co.uk/ISO11179Concepts#ConceptSystemNode
    :pref_label: Character
    :description: Character datatype
    :narrower: []
  :based_on_ig_variable: 
  :classified_as:
    :id: aHR0cDovL3d3dy5hc3Nlcm8uY28udWsvQ1NOIzg2Y2Q2MWU2LWQ0OGMtNGU0Mi1iOTk0LWJlZTM1ZTIzNTFmZQ==
    :uri: http://www.assero.co.uk/CSN#86cd61e6-d48c-4e42-b994-bee35e2351fe
    :rdf_type: http://www.assero.co.uk/ISO11179Concepts#ConceptSystemNode
    :pref_label: None
    :description: No role assigned
    :narrower: []
:prefix: AE
:structure: One record per adverse event per subject
:based_on_class:
  :id: aHR0cDovL3d3dy5jZGlzYy5vcmcvU0RUTV9NT0RFTF9FVkVOVFMvVjEjQ0w=
  :uri: http://www.cdisc.org/SDTM_MODEL_EVENTS/V1#CL
  :rdf_type: http://www.assero.co.uk/Tabulation#SdtmClass
  :label: SDTM MODEL EVENTS
  :has_state:
    :id: aHR0cDovL3d3dy5jZGlzYy5vcmcvU0RUTV9NT0RFTF9FVkVOVFMvVjEjQ0xfUlM=
    :uri: http://www.cdisc.org/SDTM_MODEL_EVENTS/V1#CL_RS
    :rdf_type: http://www.assero.co.uk/ISO11179Registration#RegistrationState
    :registration_status: Standard
    :administrative_note: ''
    :effective_date: '2016-01-01T00:00:00+00:00'
    :until_date: '2016-01-01T00:00:00+00:00'
    :unresolved_issue: ''
    :administrative_status: ''
    :previous_state: Standard
    :multiple_edit: false
    :by_authority:
      :id: aHR0cDovL3d3dy5hc3Nlcm8uY28udWsvUkEjRFVOUzA4NDQzMzc1OQ==
      :uri: http://www.assero.co.uk/RA#DUNS084433759
      :rdf_type: http://www.assero.co.uk/ISO11179Registration#RegistrationAuthority
      :organization_identifier: '084433759'
      :international_code_designator: DUNS
      :owner: false
      :ra_namespace:
        :id: aHR0cDovL3d3dy5hc3Nlcm8uY28udWsvTlMjQ0RJU0M=
        :uri: http://www.assero.co.uk/NS#CDISC
        :rdf_type: http://www.assero.co.uk/ISO11179Identification#Namespace
        :short_name: CDISC
        :name: Clinical Data Interchange Standards Consortium
        :authority: www.cdisc.org
  :has_identifier:
    :id: aHR0cDovL3d3dy5jZGlzYy5vcmcvU0RUTV9NT0RFTF9FVkVOVFMvVjEjQ0xfU0k=
    :uri: http://www.cdisc.org/SDTM_MODEL_EVENTS/V1#CL_SI
    :rdf_type: http://www.assero.co.uk/ISO11179Identification#ScopedIdentifier
    :identifier: SDTM MODEL EVENTS
    :version_label: 2008-11-12 Release
    :version: 1
    :semantic_version: 1.2.0
    :has_scope:
      :id: aHR0cDovL3d3dy5hc3Nlcm8uY28udWsvTlMjQ0RJU0M=
      :uri: http://www.assero.co.uk/NS#CDISC
      :rdf_type: http://www.assero.co.uk/ISO11179Identification#Namespace
      :short_name: CDISC
      :name: Clinical Data Interchange Standards Consortium
      :authority: www.cdisc.org
  :has_previous_version: 
  :origin: ''
  :change_description: ''
  :creation_date: '2008-11-12T00:00:00+00:00'
  :last_change_date: '2008-11-12T00:00:00+00:00'
  :explanatory_comment: ''
  :rule: ''
  :ordinal: 1
  :includes_column:
  - :id: aHR0cDovL3d3dy5jZGlzYy5vcmcvU0RUTV9NT0RFTF9FVkVOVFMvVjEjQ0xfLS1TRFRI
    :uri: http://www.cdisc.org/SDTM_MODEL_EVENTS/V1#CL_--SDTH
    :rdf_type: http://www.assero.co.uk/Tabulation#SdtmClassVariable
    :label: Results in Death
    :rule: ''
    :ordinal: 54
    :name: "--SDTH"
    :prefixed: true
    :description: Did the event result in death? Valid values are 'Y' and 'N'.
    :typed_as:
      :id: aHR0cDovL3d3dy5hc3Nlcm8uY28udWsvQ1NOI2QyZjJiYmViLThmNzktNGZiMS1iMTkwLWRkODY0ZDI5ZjA4MA==
      :uri: http://www.assero.co.uk/CSN#d2f2bbeb-8f79-4fb1-b190-dd864d29f080
      :rdf_type: http://www.assero.co.uk/ISO11179Concepts#ConceptSystemNode
      :pref_label: Character
      :description: Character datatype
      :narrower: []
    :classified_as:
      :id: aHR0cDovL3d3dy5hc3Nlcm8uY28udWsvQ1NOIzRiYjc1NzhjLTY3MDUtNGQyZS05M2Q2LWI1Njk2MGQ5ZTIxZQ==
      :uri: http://www.assero.co.uk/CSN#4bb7578c-6705-4d2e-93d6-b56960d9e21e
      :rdf_type: http://www.assero.co.uk/ISO11179Concepts#ConceptSystemNode
      :pref_label: Record
      :description: Qualifiers used to define additional attributes of the observation
        record as a whole (rather than describing a particular variable within a record).
        Examples include --REASND, AESLIFE, and all other SAE flag variables in the
        AE domain; AGE, SEX, and RACE in the DM domain; and --BLFL, --POS, --LOC,
        --SPEC, and --NAM in a Findings domain.
      :narrower: []
    :is_a: 
  - :id: aHR0cDovL3d3dy5jZGlzYy5vcmcvU0RUTV9NT0RFTF9BTEwvVjEjQ0xfVklTSVREWQ==
    :uri: http://www.cdisc.org/SDTM_MODEL_ALL/V1#CL_VISITDY
    :rdf_type: http://www.assero.co.uk/Tabulation#SdtmClassVariable
    :label: Planned Study Day of Visit
    :rule: ''
    :ordinal: 10
    :name: VISITDY
    :prefixed: false
    :description: Planned study day of the visit based upon RFSTDTC in Demographics.
    :typed_as:
      :id: aHR0cDovL3d3dy5hc3Nlcm8uY28udWsvQ1NOIzE3OGY4ZGJlLWMzYmEtNGRjMC04YTJhLTE4MDgxNjQ0YjRjNg==
      :uri: http://www.assero.co.uk/CSN#178f8dbe-c3ba-4dc0-8a2a-18081644b4c6
      :rdf_type: http://www.assero.co.uk/ISO11179Concepts#ConceptSystemNode
      :pref_label: Numeric
      :description: Numeric datatype
      :narrower: []
    :classified_as:
      :id: aHR0cDovL3d3dy5hc3Nlcm8uY28udWsvQ1NOIzJjM2ZmMzg2LWEwNjItNDdmNS1iNTk0LWVlZjdlYWQwMjI0Mw==
      :uri: http://www.assero.co.uk/CSN#2c3ff386-a062-47f5-b594-eef7ead02243
      :rdf_type: http://www.assero.co.uk/ISO11179Concepts#ConceptSystemNode
      :pref_label: Timing
      :description: Variables which describe the timing of an observation (such as
        start date and end date).
      :narrower: []
    :is_a: 
  - :id: aHR0cDovL3d3dy5jZGlzYy5vcmcvU0RUTV9NT0RFTF9BTEwvVjEjQ0xfVVNVQkpJRA==
    :uri: http://www.cdisc.org/SDTM_MODEL_ALL/V1#CL_USUBJID
    :rdf_type: http://www.assero.co.uk/Tabulation#SdtmClassVariable
    :label: Unique Subject Identifier
    :rule: ''
    :ordinal: 3
    :name: USUBJID
    :prefixed: false
    :description: Identifier used to uniquely identify a subject across all studies
      for all applications or submissions involving the product.
    :typed_as:
      :id: aHR0cDovL3d3dy5hc3Nlcm8uY28udWsvQ1NOI2QyZjJiYmViLThmNzktNGZiMS1iMTkwLWRkODY0ZDI5ZjA4MA==
      :uri: http://www.assero.co.uk/CSN#d2f2bbeb-8f79-4fb1-b190-dd864d29f080
      :rdf_type: http://www.assero.co.uk/ISO11179Concepts#ConceptSystemNode
      :pref_label: Character
      :description: Character datatype
      :narrower: []
    :classified_as:
      :id: aHR0cDovL3d3dy5hc3Nlcm8uY28udWsvQ1NOI2Q0NmJiMzM3LTkyY2QtNDI1MC1iNTBjLTliZTUwNzlkNmFiMw==
      :uri: http://www.assero.co.uk/CSN#d46bb337-92cd-4250-b50c-9be5079d6ab3
      :rdf_type: http://www.assero.co.uk/ISO11179Concepts#ConceptSystemNode
      :pref_label: Identifier
      :description: Variables, such as those that identify the study, the subject
        (individual human or animal or group of individuals) involved in the study,
        the domain, and the sequence number of the record.
      :narrower: []
    :is_a: 
  - :id: aHR0cDovL3d3dy5jZGlzYy5vcmcvU0RUTV9NT0RFTF9BTEwvVjEjQ0xfLS1TRVE=
    :uri: http://www.cdisc.org/SDTM_MODEL_ALL/V1#CL_--SEQ
    :rdf_type: http://www.assero.co.uk/Tabulation#SdtmClassVariable
    :label: Sequence Number
    :rule: ''
    :ordinal: 4
    :name: "--SEQ"
    :prefixed: true
    :description: Sequence number to ensure uniqueness of records within a dataset
      for a subject (or within a parameter, in the case of the Trial Summary domain).
      May be any valid number (including decimals) and does not have to start at 1.
      Should be assigned to be in a consistent chronological order.
    :typed_as:
      :id: aHR0cDovL3d3dy5hc3Nlcm8uY28udWsvQ1NOIzE3OGY4ZGJlLWMzYmEtNGRjMC04YTJhLTE4MDgxNjQ0YjRjNg==
      :uri: http://www.assero.co.uk/CSN#178f8dbe-c3ba-4dc0-8a2a-18081644b4c6
      :rdf_type: http://www.assero.co.uk/ISO11179Concepts#ConceptSystemNode
      :pref_label: Numeric
      :description: Numeric datatype
      :narrower: []
    :classified_as:
      :id: aHR0cDovL3d3dy5hc3Nlcm8uY28udWsvQ1NOI2Q0NmJiMzM3LTkyY2QtNDI1MC1iNTBjLTliZTUwNzlkNmFiMw==
      :uri: http://www.assero.co.uk/CSN#d46bb337-92cd-4250-b50c-9be5079d6ab3
      :rdf_type: http://www.assero.co.uk/ISO11179Concepts#ConceptSystemNode
      :pref_label: Identifier
      :description: Variables, such as those that identify the study, the subject
        (individual human or animal or group of individuals) involved in the study,
        the domain, and the sequence number of the record.
      :narrower: []
    :is_a: 
  - :id: aHR0cDovL3d3dy5jZGlzYy5vcmcvU0RUTV9NT0RFTF9BTEwvVjEjQ0xfU1RVRFlJRA==
    :uri: http://www.cdisc.org/SDTM_MODEL_ALL/V1#CL_STUDYID
    :rdf_type: http://www.assero.co.uk/Tabulation#SdtmClassVariable
    :label: Study Identifier
    :rule: ''
    :ordinal: 1
    :name: STUDYID
    :prefixed: false
    :description: Unique identifier for a study.
    :typed_as:
      :id: aHR0cDovL3d3dy5hc3Nlcm8uY28udWsvQ1NOI2QyZjJiYmViLThmNzktNGZiMS1iMTkwLWRkODY0ZDI5ZjA4MA==
      :uri: http://www.assero.co.uk/CSN#d2f2bbeb-8f79-4fb1-b190-dd864d29f080
      :rdf_type: http://www.assero.co.uk/ISO11179Concepts#ConceptSystemNode
      :pref_label: Character
      :description: Character datatype
      :narrower: []
    :classified_as:
      :id: aHR0cDovL3d3dy5hc3Nlcm8uY28udWsvQ1NOI2Q0NmJiMzM3LTkyY2QtNDI1MC1iNTBjLTliZTUwNzlkNmFiMw==
      :uri: http://www.assero.co.uk/CSN#d46bb337-92cd-4250-b50c-9be5079d6ab3
      :rdf_type: http://www.assero.co.uk/ISO11179Concepts#ConceptSystemNode
      :pref_label: Identifier
      :description: Variables, such as those that identify the study, the subject
        (individual human or animal or group of individuals) involved in the study,
        the domain, and the sequence number of the record.
      :narrower: []
    :is_a: 
  - :id: aHR0cDovL3d3dy5jZGlzYy5vcmcvU0RUTV9NT0RFTF9BTEwvVjEjQ0xfVEFFVE9SRA==
    :uri: http://www.cdisc.org/SDTM_MODEL_ALL/V1#CL_TAETORD
    :rdf_type: http://www.assero.co.uk/Tabulation#SdtmClassVariable
    :label: Planned Order of Elements within Arm
    :rule: ''
    :ordinal: 11
    :name: TAETORD
    :prefixed: false
    :description: Number that gives the order of the Element within the Arm.
    :typed_as:
      :id: aHR0cDovL3d3dy5hc3Nlcm8uY28udWsvQ1NOIzE3OGY4ZGJlLWMzYmEtNGRjMC04YTJhLTE4MDgxNjQ0YjRjNg==
      :uri: http://www.assero.co.uk/CSN#178f8dbe-c3ba-4dc0-8a2a-18081644b4c6
      :rdf_type: http://www.assero.co.uk/ISO11179Concepts#ConceptSystemNode
      :pref_label: Numeric
      :description: Numeric datatype
      :narrower: []
    :classified_as:
      :id: aHR0cDovL3d3dy5hc3Nlcm8uY28udWsvQ1NOIzJjM2ZmMzg2LWEwNjItNDdmNS1iNTk0LWVlZjdlYWQwMjI0Mw==
      :uri: http://www.assero.co.uk/CSN#2c3ff386-a062-47f5-b594-eef7ead02243
      :rdf_type: http://www.assero.co.uk/ISO11179Concepts#ConceptSystemNode
      :pref_label: Timing
      :description: Variables which describe the timing of an observation (such as
        start date and end date).
      :narrower: []
    :is_a: 
  - :id: aHR0cDovL3d3dy5jZGlzYy5vcmcvU0RUTV9NT0RFTF9BTEwvVjEjQ0xfLS1TVFJG
    :uri: http://www.cdisc.org/SDTM_MODEL_ALL/V1#CL_--STRF
    :rdf_type: http://www.assero.co.uk/Tabulation#SdtmClassVariable
    :label: Start Relative to Reference Period
    :rule: ''
    :ordinal: 25
    :name: "--STRF"
    :prefixed: true
    :description: Identifies the start of the observation as being before, during,
      or after the sponsor-defined reference period. The sponsor-defined reference
      period is a continuous period of time defined by a discrete starting point and
      a discrete ending point represented by RFSTDTC and RFENDTC in Demographics.
    :typed_as:
      :id: aHR0cDovL3d3dy5hc3Nlcm8uY28udWsvQ1NOI2QyZjJiYmViLThmNzktNGZiMS1iMTkwLWRkODY0ZDI5ZjA4MA==
      :uri: http://www.assero.co.uk/CSN#d2f2bbeb-8f79-4fb1-b190-dd864d29f080
      :rdf_type: http://www.assero.co.uk/ISO11179Concepts#ConceptSystemNode
      :pref_label: Character
      :description: Character datatype
      :narrower: []
    :classified_as:
      :id: aHR0cDovL3d3dy5hc3Nlcm8uY28udWsvQ1NOIzJjM2ZmMzg2LWEwNjItNDdmNS1iNTk0LWVlZjdlYWQwMjI0Mw==
      :uri: http://www.assero.co.uk/CSN#2c3ff386-a062-47f5-b594-eef7ead02243
      :rdf_type: http://www.assero.co.uk/ISO11179Concepts#ConceptSystemNode
      :pref_label: Timing
      :description: Variables which describe the timing of an observation (such as
        start date and end date).
      :narrower: []
    :is_a: 
  - :id: aHR0cDovL3d3dy5jZGlzYy5vcmcvU0RUTV9NT0RFTF9BTEwvVjEjQ0xfLS1FTlJUUFQ=
    :uri: http://www.cdisc.org/SDTM_MODEL_ALL/V1#CL_--ENRTPT
    :rdf_type: http://www.assero.co.uk/Tabulation#SdtmClassVariable
    :label: End Relative to Reference Time Point
    :rule: ''
    :ordinal: 30
    :name: "--ENRTPT"
    :prefixed: true
    :description: Identifies the end of the observation as being before or after the
      sponsor-defined reference time point defined by variable --ENTPT.
    :typed_as:
      :id: aHR0cDovL3d3dy5hc3Nlcm8uY28udWsvQ1NOI2QyZjJiYmViLThmNzktNGZiMS1iMTkwLWRkODY0ZDI5ZjA4MA==
      :uri: http://www.assero.co.uk/CSN#d2f2bbeb-8f79-4fb1-b190-dd864d29f080
      :rdf_type: http://www.assero.co.uk/ISO11179Concepts#ConceptSystemNode
      :pref_label: Character
      :description: Character datatype
      :narrower: []
    :classified_as:
      :id: aHR0cDovL3d3dy5hc3Nlcm8uY28udWsvQ1NOIzJjM2ZmMzg2LWEwNjItNDdmNS1iNTk0LWVlZjdlYWQwMjI0Mw==
      :uri: http://www.assero.co.uk/CSN#2c3ff386-a062-47f5-b594-eef7ead02243
      :rdf_type: http://www.assero.co.uk/ISO11179Concepts#ConceptSystemNode
      :pref_label: Timing
      :description: Variables which describe the timing of an observation (such as
        start date and end date).
      :narrower: []
    :is_a: 
  - :id: aHR0cDovL3d3dy5jZGlzYy5vcmcvU0RUTV9NT0RFTF9BTEwvVjEjQ0xfLS1TVFJUUFQ=
    :uri: http://www.cdisc.org/SDTM_MODEL_ALL/V1#CL_--STRTPT
    :rdf_type: http://www.assero.co.uk/Tabulation#SdtmClassVariable
    :label: Start Relative to Reference Time Point
    :rule: ''
    :ordinal: 28
    :name: "--STRTPT"
    :prefixed: true
    :description: Identifies the start of the observation as being before or after
      the sponsor-defined reference time point defined by variable --STTPT.
    :typed_as:
      :id: aHR0cDovL3d3dy5hc3Nlcm8uY28udWsvQ1NOI2QyZjJiYmViLThmNzktNGZiMS1iMTkwLWRkODY0ZDI5ZjA4MA==
      :uri: http://www.assero.co.uk/CSN#d2f2bbeb-8f79-4fb1-b190-dd864d29f080
      :rdf_type: http://www.assero.co.uk/ISO11179Concepts#ConceptSystemNode
      :pref_label: Character
      :description: Character datatype
      :narrower: []
    :classified_as:
      :id: aHR0cDovL3d3dy5hc3Nlcm8uY28udWsvQ1NOIzJjM2ZmMzg2LWEwNjItNDdmNS1iNTk0LWVlZjdlYWQwMjI0Mw==
      :uri: http://www.assero.co.uk/CSN#2c3ff386-a062-47f5-b594-eef7ead02243
      :rdf_type: http://www.assero.co.uk/ISO11179Concepts#ConceptSystemNode
      :pref_label: Timing
      :description: Variables which describe the timing of an observation (such as
        start date and end date).
      :narrower: []
    :is_a: 
  - :id: aHR0cDovL3d3dy5jZGlzYy5vcmcvU0RUTV9NT0RFTF9BTEwvVjEjQ0xfLS1UUFROVU0=
    :uri: http://www.cdisc.org/SDTM_MODEL_ALL/V1#CL_--TPTNUM
    :rdf_type: http://www.assero.co.uk/Tabulation#SdtmClassVariable
    :label: Planned Time Point Number
    :rule: ''
    :ordinal: 21
    :name: "--TPTNUM"
    :prefixed: true
    :description: Numeric version of planned time point used in sorting.
    :typed_as:
      :id: aHR0cDovL3d3dy5hc3Nlcm8uY28udWsvQ1NOIzE3OGY4ZGJlLWMzYmEtNGRjMC04YTJhLTE4MDgxNjQ0YjRjNg==
      :uri: http://www.assero.co.uk/CSN#178f8dbe-c3ba-4dc0-8a2a-18081644b4c6
      :rdf_type: http://www.assero.co.uk/ISO11179Concepts#ConceptSystemNode
      :pref_label: Numeric
      :description: Numeric datatype
      :narrower: []
    :classified_as:
      :id: aHR0cDovL3d3dy5hc3Nlcm8uY28udWsvQ1NOIzJjM2ZmMzg2LWEwNjItNDdmNS1iNTk0LWVlZjdlYWQwMjI0Mw==
      :uri: http://www.assero.co.uk/CSN#2c3ff386-a062-47f5-b594-eef7ead02243
      :rdf_type: http://www.assero.co.uk/ISO11179Concepts#ConceptSystemNode
      :pref_label: Timing
      :description: Variables which describe the timing of an observation (such as
        start date and end date).
      :narrower: []
    :is_a: 
  - :id: aHR0cDovL3d3dy5jZGlzYy5vcmcvU0RUTV9NT0RFTF9BTEwvVjEjQ0xfLS1TUElE
    :uri: http://www.cdisc.org/SDTM_MODEL_ALL/V1#CL_--SPID
    :rdf_type: http://www.assero.co.uk/Tabulation#SdtmClassVariable
    :label: Sponsor ID
    :rule: ''
    :ordinal: 7
    :name: "--SPID"
    :prefixed: true
    :description: 'Sponsor-defined identifier. Example: pre-printed line identifier
      on a Concomitant Medications page.'
    :typed_as:
      :id: aHR0cDovL3d3dy5hc3Nlcm8uY28udWsvQ1NOI2QyZjJiYmViLThmNzktNGZiMS1iMTkwLWRkODY0ZDI5ZjA4MA==
      :uri: http://www.assero.co.uk/CSN#d2f2bbeb-8f79-4fb1-b190-dd864d29f080
      :rdf_type: http://www.assero.co.uk/ISO11179Concepts#ConceptSystemNode
      :pref_label: Character
      :description: Character datatype
      :narrower: []
    :classified_as:
      :id: aHR0cDovL3d3dy5hc3Nlcm8uY28udWsvQ1NOI2Q0NmJiMzM3LTkyY2QtNDI1MC1iNTBjLTliZTUwNzlkNmFiMw==
      :uri: http://www.assero.co.uk/CSN#d46bb337-92cd-4250-b50c-9be5079d6ab3
      :rdf_type: http://www.assero.co.uk/ISO11179Concepts#ConceptSystemNode
      :pref_label: Identifier
      :description: Variables, such as those that identify the study, the subject
        (individual human or animal or group of individuals) involved in the study,
        the domain, and the sequence number of the record.
      :narrower: []
    :is_a: 
  - :id: aHR0cDovL3d3dy5jZGlzYy5vcmcvU0RUTV9NT0RFTF9BTEwvVjEjQ0xfLS1UUFQ=
    :uri: http://www.cdisc.org/SDTM_MODEL_ALL/V1#CL_--TPT
    :rdf_type: http://www.assero.co.uk/Tabulation#SdtmClassVariable
    :label: Planned Time Point Name
    :rule: ''
    :ordinal: 20
    :name: "--TPT"
    :prefixed: true
    :description: Text description of time when a measurement or observation should
      be taken as defined in the protocol. This may be represented as an elapsed time
      relative to a fixed reference point, such as time of last dose. See --TPTNUM
      and --TPTREF.
    :typed_as:
      :id: aHR0cDovL3d3dy5hc3Nlcm8uY28udWsvQ1NOI2QyZjJiYmViLThmNzktNGZiMS1iMTkwLWRkODY0ZDI5ZjA4MA==
      :uri: http://www.assero.co.uk/CSN#d2f2bbeb-8f79-4fb1-b190-dd864d29f080
      :rdf_type: http://www.assero.co.uk/ISO11179Concepts#ConceptSystemNode
      :pref_label: Character
      :description: Character datatype
      :narrower: []
    :classified_as:
      :id: aHR0cDovL3d3dy5hc3Nlcm8uY28udWsvQ1NOIzJjM2ZmMzg2LWEwNjItNDdmNS1iNTk0LWVlZjdlYWQwMjI0Mw==
      :uri: http://www.assero.co.uk/CSN#2c3ff386-a062-47f5-b594-eef7ead02243
      :rdf_type: http://www.assero.co.uk/ISO11179Concepts#ConceptSystemNode
      :pref_label: Timing
      :description: Variables which describe the timing of an observation (such as
        start date and end date).
      :narrower: []
    :is_a: 
  - :id: aHR0cDovL3d3dy5jZGlzYy5vcmcvU0RUTV9NT0RFTF9BTEwvVjEjQ0xfVklTSVQ=
    :uri: http://www.cdisc.org/SDTM_MODEL_ALL/V1#CL_VISIT
    :rdf_type: http://www.assero.co.uk/Tabulation#SdtmClassVariable
    :label: Visit Name
    :rule: ''
    :ordinal: 9
    :name: VISIT
    :prefixed: false
    :description: 1. Protocol-defined description of clinical encounter. 2. May be
      used in addition to VISITNUM and/or VISITDY.
    :typed_as:
      :id: aHR0cDovL3d3dy5hc3Nlcm8uY28udWsvQ1NOI2QyZjJiYmViLThmNzktNGZiMS1iMTkwLWRkODY0ZDI5ZjA4MA==
      :uri: http://www.assero.co.uk/CSN#d2f2bbeb-8f79-4fb1-b190-dd864d29f080
      :rdf_type: http://www.assero.co.uk/ISO11179Concepts#ConceptSystemNode
      :pref_label: Character
      :description: Character datatype
      :narrower: []
    :classified_as:
      :id: aHR0cDovL3d3dy5hc3Nlcm8uY28udWsvQ1NOIzJjM2ZmMzg2LWEwNjItNDdmNS1iNTk0LWVlZjdlYWQwMjI0Mw==
      :uri: http://www.assero.co.uk/CSN#2c3ff386-a062-47f5-b594-eef7ead02243
      :rdf_type: http://www.assero.co.uk/ISO11179Concepts#ConceptSystemNode
      :pref_label: Timing
      :description: Variables which describe the timing of an observation (such as
        start date and end date).
      :narrower: []
    :is_a: 
  - :id: aHR0cDovL3d3dy5jZGlzYy5vcmcvU0RUTV9NT0RFTF9FVkVOVFMvVjEjQ0xfLS1CT0RTWVM=
    :uri: http://www.cdisc.org/SDTM_MODEL_EVENTS/V1#CL_--BODSYS
    :rdf_type: http://www.assero.co.uk/Tabulation#SdtmClassVariable
    :label: Body System or Organ Class
    :rule: ''
    :ordinal: 41
    :name: "--BODSYS"
    :prefixed: true
    :description: 'Body System or Organ Class that is involved for a finding from
      the standard hierarchy for dictionary-coded results. Example: MedDRA SOC.'
    :typed_as:
      :id: aHR0cDovL3d3dy5hc3Nlcm8uY28udWsvQ1NOI2QyZjJiYmViLThmNzktNGZiMS1iMTkwLWRkODY0ZDI5ZjA4MA==
      :uri: http://www.assero.co.uk/CSN#d2f2bbeb-8f79-4fb1-b190-dd864d29f080
      :rdf_type: http://www.assero.co.uk/ISO11179Concepts#ConceptSystemNode
      :pref_label: Character
      :description: Character datatype
      :narrower: []
    :classified_as:
      :id: aHR0cDovL3d3dy5hc3Nlcm8uY28udWsvQ1NOIzRiYjc1NzhjLTY3MDUtNGQyZS05M2Q2LWI1Njk2MGQ5ZTIxZQ==
      :uri: http://www.assero.co.uk/CSN#4bb7578c-6705-4d2e-93d6-b56960d9e21e
      :rdf_type: http://www.assero.co.uk/ISO11179Concepts#ConceptSystemNode
      :pref_label: Record
      :description: Qualifiers used to define additional attributes of the observation
        record as a whole (rather than describing a particular variable within a record).
        Examples include --REASND, AESLIFE, and all other SAE flag variables in the
        AE domain; AGE, SEX, and RACE in the DM domain; and --BLFL, --POS, --LOC,
        --SPEC, and --NAM in a Findings domain.
      :narrower: []
    :is_a: 
  - :id: aHR0cDovL3d3dy5jZGlzYy5vcmcvU0RUTV9NT0RFTF9BTEwvVjEjQ0xfRE9NQUlO
    :uri: http://www.cdisc.org/SDTM_MODEL_ALL/V1#CL_DOMAIN
    :rdf_type: http://www.assero.co.uk/Tabulation#SdtmClassVariable
    :label: Domain Abbreviation
    :rule: ''
    :ordinal: 2
    :name: DOMAIN
    :prefixed: false
    :description: Two-character abbreviation for the domain.
    :typed_as:
      :id: aHR0cDovL3d3dy5hc3Nlcm8uY28udWsvQ1NOI2QyZjJiYmViLThmNzktNGZiMS1iMTkwLWRkODY0ZDI5ZjA4MA==
      :uri: http://www.assero.co.uk/CSN#d2f2bbeb-8f79-4fb1-b190-dd864d29f080
      :rdf_type: http://www.assero.co.uk/ISO11179Concepts#ConceptSystemNode
      :pref_label: Character
      :description: Character datatype
      :narrower: []
    :classified_as:
      :id: aHR0cDovL3d3dy5hc3Nlcm8uY28udWsvQ1NOI2Q0NmJiMzM3LTkyY2QtNDI1MC1iNTBjLTliZTUwNzlkNmFiMw==
      :uri: http://www.assero.co.uk/CSN#d46bb337-92cd-4250-b50c-9be5079d6ab3
      :rdf_type: http://www.assero.co.uk/ISO11179Concepts#ConceptSystemNode
      :pref_label: Identifier
      :description: Variables, such as those that identify the study, the subject
        (individual human or animal or group of individuals) involved in the study,
        the domain, and the sequence number of the record.
      :narrower: []
    :is_a: 
  - :id: aHR0cDovL3d3dy5jZGlzYy5vcmcvU0RUTV9NT0RFTF9BTEwvVjEjQ0xfVklTSVROVU0=
    :uri: http://www.cdisc.org/SDTM_MODEL_ALL/V1#CL_VISITNUM
    :rdf_type: http://www.assero.co.uk/Tabulation#SdtmClassVariable
    :label: Visit Number
    :rule: ''
    :ordinal: 8
    :name: VISITNUM
    :prefixed: false
    :description: Clinical encounter number. Numeric version of VISIT, used for sorting.
    :typed_as:
      :id: aHR0cDovL3d3dy5hc3Nlcm8uY28udWsvQ1NOIzE3OGY4ZGJlLWMzYmEtNGRjMC04YTJhLTE4MDgxNjQ0YjRjNg==
      :uri: http://www.assero.co.uk/CSN#178f8dbe-c3ba-4dc0-8a2a-18081644b4c6
      :rdf_type: http://www.assero.co.uk/ISO11179Concepts#ConceptSystemNode
      :pref_label: Numeric
      :description: Numeric datatype
      :narrower: []
    :classified_as:
      :id: aHR0cDovL3d3dy5hc3Nlcm8uY28udWsvQ1NOIzJjM2ZmMzg2LWEwNjItNDdmNS1iNTk0LWVlZjdlYWQwMjI0Mw==
      :uri: http://www.assero.co.uk/CSN#2c3ff386-a062-47f5-b594-eef7ead02243
      :rdf_type: http://www.assero.co.uk/ISO11179Concepts#ConceptSystemNode
      :pref_label: Timing
      :description: Variables which describe the timing of an observation (such as
        start date and end date).
      :narrower: []
    :is_a: 
  - :id: aHR0cDovL3d3dy5jZGlzYy5vcmcvU0RUTV9NT0RFTF9BTEwvVjEjQ0xfLS1HUlBJRA==
    :uri: http://www.cdisc.org/SDTM_MODEL_ALL/V1#CL_--GRPID
    :rdf_type: http://www.assero.co.uk/Tabulation#SdtmClassVariable
    :label: Group ID
    :rule: ''
    :ordinal: 5
    :name: "--GRPID"
    :prefixed: true
    :description: Optional group identifier, used to link together a block of related
      records within a subject in a domain. Also used to link together a block of
      related records in the Trial Summary dataset (Section 3.4).
    :typed_as:
      :id: aHR0cDovL3d3dy5hc3Nlcm8uY28udWsvQ1NOI2QyZjJiYmViLThmNzktNGZiMS1iMTkwLWRkODY0ZDI5ZjA4MA==
      :uri: http://www.assero.co.uk/CSN#d2f2bbeb-8f79-4fb1-b190-dd864d29f080
      :rdf_type: http://www.assero.co.uk/ISO11179Concepts#ConceptSystemNode
      :pref_label: Character
      :description: Character datatype
      :narrower: []
    :classified_as:
      :id: aHR0cDovL3d3dy5hc3Nlcm8uY28udWsvQ1NOI2Q0NmJiMzM3LTkyY2QtNDI1MC1iNTBjLTliZTUwNzlkNmFiMw==
      :uri: http://www.assero.co.uk/CSN#d46bb337-92cd-4250-b50c-9be5079d6ab3
      :rdf_type: http://www.assero.co.uk/ISO11179Concepts#ConceptSystemNode
      :pref_label: Identifier
      :description: Variables, such as those that identify the study, the subject
        (individual human or animal or group of individuals) involved in the study,
        the domain, and the sequence number of the record.
      :narrower: []
    :is_a: 
  - :id: aHR0cDovL3d3dy5jZGlzYy5vcmcvU0RUTV9NT0RFTF9BTEwvVjEjQ0xfLS1SRlREVEM=
    :uri: http://www.cdisc.org/SDTM_MODEL_ALL/V1#CL_--RFTDTC
    :rdf_type: http://www.assero.co.uk/Tabulation#SdtmClassVariable
    :label: Date/Time of Reference Time Point
    :rule: ''
    :ordinal: 24
    :name: "--RFTDTC"
    :prefixed: true
    :description: Date/time for a fixed reference time point defined by --TPTREF in
      ISO 8601 character format.
    :typed_as:
      :id: aHR0cDovL3d3dy5hc3Nlcm8uY28udWsvQ1NOI2QyZjJiYmViLThmNzktNGZiMS1iMTkwLWRkODY0ZDI5ZjA4MA==
      :uri: http://www.assero.co.uk/CSN#d2f2bbeb-8f79-4fb1-b190-dd864d29f080
      :rdf_type: http://www.assero.co.uk/ISO11179Concepts#ConceptSystemNode
      :pref_label: Character
      :description: Character datatype
      :narrower: []
    :classified_as:
      :id: aHR0cDovL3d3dy5hc3Nlcm8uY28udWsvQ1NOIzJjM2ZmMzg2LWEwNjItNDdmNS1iNTk0LWVlZjdlYWQwMjI0Mw==
      :uri: http://www.assero.co.uk/CSN#2c3ff386-a062-47f5-b594-eef7ead02243
      :rdf_type: http://www.assero.co.uk/ISO11179Concepts#ConceptSystemNode
      :pref_label: Timing
      :description: Variables which describe the timing of an observation (such as
        start date and end date).
      :narrower: []
    :is_a: 
  - :id: aHR0cDovL3d3dy5jZGlzYy5vcmcvU0RUTV9NT0RFTF9BTEwvVjEjQ0xfLS1UUFRSRUY=
    :uri: http://www.cdisc.org/SDTM_MODEL_ALL/V1#CL_--TPTREF
    :rdf_type: http://www.assero.co.uk/Tabulation#SdtmClassVariable
    :label: Time Point Reference
    :rule: ''
    :ordinal: 23
    :name: "--TPTREF"
    :prefixed: true
    :description: 'Description of the fixed reference point referred to by --ELTM,
      --TPTNUM, and --TPT. Examples: PREVIOUS DOSE, PREVIOUS MEAL.'
    :typed_as:
      :id: aHR0cDovL3d3dy5hc3Nlcm8uY28udWsvQ1NOI2QyZjJiYmViLThmNzktNGZiMS1iMTkwLWRkODY0ZDI5ZjA4MA==
      :uri: http://www.assero.co.uk/CSN#d2f2bbeb-8f79-4fb1-b190-dd864d29f080
      :rdf_type: http://www.assero.co.uk/ISO11179Concepts#ConceptSystemNode
      :pref_label: Character
      :description: Character datatype
      :narrower: []
    :classified_as:
      :id: aHR0cDovL3d3dy5hc3Nlcm8uY28udWsvQ1NOIzJjM2ZmMzg2LWEwNjItNDdmNS1iNTk0LWVlZjdlYWQwMjI0Mw==
      :uri: http://www.assero.co.uk/CSN#2c3ff386-a062-47f5-b594-eef7ead02243
      :rdf_type: http://www.assero.co.uk/ISO11179Concepts#ConceptSystemNode
      :pref_label: Timing
      :description: Variables which describe the timing of an observation (such as
        start date and end date).
      :narrower: []
    :is_a: 
  - :id: aHR0cDovL3d3dy5jZGlzYy5vcmcvU0RUTV9NT0RFTF9FVkVOVFMvVjEjQ0xfLS1DQVQ=
    :uri: http://www.cdisc.org/SDTM_MODEL_EVENTS/V1#CL_--CAT
    :rdf_type: http://www.assero.co.uk/Tabulation#SdtmClassVariable
    :label: Category
    :rule: ''
    :ordinal: 35
    :name: "--CAT"
    :prefixed: true
    :description: 'Used to define a category of topic-variable values. Examples: HEMATOLOGY,
      URINALYSIS, CHEMISTRY, HAMILTON DEPRESSION SCALE, SF36.'
    :typed_as:
      :id: aHR0cDovL3d3dy5hc3Nlcm8uY28udWsvQ1NOI2QyZjJiYmViLThmNzktNGZiMS1iMTkwLWRkODY0ZDI5ZjA4MA==
      :uri: http://www.assero.co.uk/CSN#d2f2bbeb-8f79-4fb1-b190-dd864d29f080
      :rdf_type: http://www.assero.co.uk/ISO11179Concepts#ConceptSystemNode
      :pref_label: Character
      :description: Character datatype
      :narrower: []
    :classified_as:
      :id: aHR0cDovL3d3dy5hc3Nlcm8uY28udWsvQ1NOIzlmYjI5ZjhiLTUwNWEtNGM0Zi1iNTUwLTE3NWZiZmVjOTMyZA==
      :uri: http://www.assero.co.uk/CSN#9fb29f8b-505a-4c4f-b550-175fbfec932d
      :rdf_type: http://www.assero.co.uk/ISO11179Concepts#ConceptSystemNode
      :pref_label: Grouping
      :description: Qualifiers used to group together a collection of observations
        within the same domain. Examples include --CAT and --SCAT.
      :narrower: []
    :is_a: http://www.s-cubed.dk/CAR#a3c686e711e4720f99b4562bb3dbaae7ab658cf2
  - :id: aHR0cDovL3d3dy5jZGlzYy5vcmcvU0RUTV9NT0RFTF9BTEwvVjEjQ0xfLS1FTlJG
    :uri: http://www.cdisc.org/SDTM_MODEL_ALL/V1#CL_--ENRF
    :rdf_type: http://www.assero.co.uk/Tabulation#SdtmClassVariable
    :label: End Relative to Reference Period
    :rule: ''
    :ordinal: 26
    :name: "--ENRF"
    :prefixed: true
    :description: Identifies the end of the observation as being before, during or
      after the sponsor-defined reference period. The sponsor-defined reference period
      is a continuous period of time defined by a discrete starting point and a discrete
      ending point represented by RFSTDTC and RFENDTC in Demographics.
    :typed_as:
      :id: aHR0cDovL3d3dy5hc3Nlcm8uY28udWsvQ1NOI2QyZjJiYmViLThmNzktNGZiMS1iMTkwLWRkODY0ZDI5ZjA4MA==
      :uri: http://www.assero.co.uk/CSN#d2f2bbeb-8f79-4fb1-b190-dd864d29f080
      :rdf_type: http://www.assero.co.uk/ISO11179Concepts#ConceptSystemNode
      :pref_label: Character
      :description: Character datatype
      :narrower: []
    :classified_as:
      :id: aHR0cDovL3d3dy5hc3Nlcm8uY28udWsvQ1NOIzJjM2ZmMzg2LWEwNjItNDdmNS1iNTk0LWVlZjdlYWQwMjI0Mw==
      :uri: http://www.assero.co.uk/CSN#2c3ff386-a062-47f5-b594-eef7ead02243
      :rdf_type: http://www.assero.co.uk/ISO11179Concepts#ConceptSystemNode
      :pref_label: Timing
      :description: Variables which describe the timing of an observation (such as
        start date and end date).
      :narrower: []
    :is_a: 
  - :id: aHR0cDovL3d3dy5jZGlzYy5vcmcvU0RUTV9NT0RFTF9BTEwvVjEjQ0xfLS1TVFRQVA==
    :uri: http://www.cdisc.org/SDTM_MODEL_ALL/V1#CL_--STTPT
    :rdf_type: http://www.assero.co.uk/Tabulation#SdtmClassVariable
    :label: Start Reference Time Point
    :rule: ''
    :ordinal: 29
    :name: "--STTPT"
    :prefixed: true
    :description: 'Description or date/time in ISO 8601 character format of the sponsor-defined
      reference point referred to by --STRTPT. Examples: ''2003-12-15'' or ''VISIT
      1''.'
    :typed_as:
      :id: aHR0cDovL3d3dy5hc3Nlcm8uY28udWsvQ1NOI2QyZjJiYmViLThmNzktNGZiMS1iMTkwLWRkODY0ZDI5ZjA4MA==
      :uri: http://www.assero.co.uk/CSN#d2f2bbeb-8f79-4fb1-b190-dd864d29f080
      :rdf_type: http://www.assero.co.uk/ISO11179Concepts#ConceptSystemNode
      :pref_label: Character
      :description: Character datatype
      :narrower: []
    :classified_as:
      :id: aHR0cDovL3d3dy5hc3Nlcm8uY28udWsvQ1NOIzJjM2ZmMzg2LWEwNjItNDdmNS1iNTk0LWVlZjdlYWQwMjI0Mw==
      :uri: http://www.assero.co.uk/CSN#2c3ff386-a062-47f5-b594-eef7ead02243
      :rdf_type: http://www.assero.co.uk/ISO11179Concepts#ConceptSystemNode
      :pref_label: Timing
      :description: Variables which describe the timing of an observation (such as
        start date and end date).
      :narrower: []
    :is_a: 
  - :id: aHR0cDovL3d3dy5jZGlzYy5vcmcvU0RUTV9NT0RFTF9BTEwvVjEjQ0xfLS1TVERUQw==
    :uri: http://www.cdisc.org/SDTM_MODEL_ALL/V1#CL_--STDTC
    :rdf_type: http://www.assero.co.uk/Tabulation#SdtmClassVariable
    :label: Start Date/Time of Observation
    :rule: ''
    :ordinal: 14
    :name: "--STDTC"
    :prefixed: true
    :description: Start date/time of an observation represented in IS0 8601 character
      format.
    :typed_as:
      :id: aHR0cDovL3d3dy5hc3Nlcm8uY28udWsvQ1NOI2QyZjJiYmViLThmNzktNGZiMS1iMTkwLWRkODY0ZDI5ZjA4MA==
      :uri: http://www.assero.co.uk/CSN#d2f2bbeb-8f79-4fb1-b190-dd864d29f080
      :rdf_type: http://www.assero.co.uk/ISO11179Concepts#ConceptSystemNode
      :pref_label: Character
      :description: Character datatype
      :narrower: []
    :classified_as:
      :id: aHR0cDovL3d3dy5hc3Nlcm8uY28udWsvQ1NOIzJjM2ZmMzg2LWEwNjItNDdmNS1iNTk0LWVlZjdlYWQwMjI0Mw==
      :uri: http://www.assero.co.uk/CSN#2c3ff386-a062-47f5-b594-eef7ead02243
      :rdf_type: http://www.assero.co.uk/ISO11179Concepts#ConceptSystemNode
      :pref_label: Timing
      :description: Variables which describe the timing of an observation (such as
        start date and end date).
      :narrower: []
    :is_a: http://www.s-cubed.dk/CAR#83c87956785cde43c109e30fcbd95cca63a18d38
  - :id: aHR0cDovL3d3dy5jZGlzYy5vcmcvU0RUTV9NT0RFTF9BTEwvVjEjQ0xfLS1FTlRQVA==
    :uri: http://www.cdisc.org/SDTM_MODEL_ALL/V1#CL_--ENTPT
    :rdf_type: http://www.assero.co.uk/Tabulation#SdtmClassVariable
    :label: End Reference Time Point
    :rule: ''
    :ordinal: 31
    :name: "--ENTPT"
    :prefixed: true
    :description: 'Description or date/time in ISO 8601 character format of the sponsor-defined
      reference point referred to by --ENRTPT. Examples: ''2003-12-25'' or ''VISIT
      2''.'
    :typed_as:
      :id: aHR0cDovL3d3dy5hc3Nlcm8uY28udWsvQ1NOI2QyZjJiYmViLThmNzktNGZiMS1iMTkwLWRkODY0ZDI5ZjA4MA==
      :uri: http://www.assero.co.uk/CSN#d2f2bbeb-8f79-4fb1-b190-dd864d29f080
      :rdf_type: http://www.assero.co.uk/ISO11179Concepts#ConceptSystemNode
      :pref_label: Character
      :description: Character datatype
      :narrower: []
    :classified_as:
      :id: aHR0cDovL3d3dy5hc3Nlcm8uY28udWsvQ1NOIzJjM2ZmMzg2LWEwNjItNDdmNS1iNTk0LWVlZjdlYWQwMjI0Mw==
      :uri: http://www.assero.co.uk/CSN#2c3ff386-a062-47f5-b594-eef7ead02243
      :rdf_type: http://www.assero.co.uk/ISO11179Concepts#ConceptSystemNode
      :pref_label: Timing
      :description: Variables which describe the timing of an observation (such as
        start date and end date).
      :narrower: []
    :is_a: 
  - :id: aHR0cDovL3d3dy5jZGlzYy5vcmcvU0RUTV9NT0RFTF9BTEwvVjEjQ0xfLS1TVERZ
    :uri: http://www.cdisc.org/SDTM_MODEL_ALL/V1#CL_--STDY
    :rdf_type: http://www.assero.co.uk/Tabulation#SdtmClassVariable
    :label: Study Day of Start of Observation
    :rule: ''
    :ordinal: 17
    :name: "--STDY"
    :prefixed: true
    :description: Actual study day of start of observation expressed in integer days
      relative to the sponsor-defined RFSTDTC in Demographics.
    :typed_as:
      :id: aHR0cDovL3d3dy5hc3Nlcm8uY28udWsvQ1NOIzE3OGY4ZGJlLWMzYmEtNGRjMC04YTJhLTE4MDgxNjQ0YjRjNg==
      :uri: http://www.assero.co.uk/CSN#178f8dbe-c3ba-4dc0-8a2a-18081644b4c6
      :rdf_type: http://www.assero.co.uk/ISO11179Concepts#ConceptSystemNode
      :pref_label: Numeric
      :description: Numeric datatype
      :narrower: []
    :classified_as:
      :id: aHR0cDovL3d3dy5hc3Nlcm8uY28udWsvQ1NOIzJjM2ZmMzg2LWEwNjItNDdmNS1iNTk0LWVlZjdlYWQwMjI0Mw==
      :uri: http://www.assero.co.uk/CSN#2c3ff386-a062-47f5-b594-eef7ead02243
      :rdf_type: http://www.assero.co.uk/ISO11179Concepts#ConceptSystemNode
      :pref_label: Timing
      :description: Variables which describe the timing of an observation (such as
        start date and end date).
      :narrower: []
    :is_a: 
  - :id: aHR0cDovL3d3dy5jZGlzYy5vcmcvU0RUTV9NT0RFTF9FVkVOVFMvVjEjQ0xfLS1ERUNPRA==
    :uri: http://www.cdisc.org/SDTM_MODEL_EVENTS/V1#CL_--DECOD
    :rdf_type: http://www.assero.co.uk/Tabulation#SdtmClassVariable
    :label: Dictionary-Derived Term
    :rule: ''
    :ordinal: 34
    :name: "--DECOD"
    :prefixed: true
    :description: Standardized or dictionary-derived name of the topic variable, --TRT,
      or the modified topic variable (--MODIFY), if applicable. Equivalent to the
      generic drug name in WHO Drug, or a term in SNOMED, ICD9, or other published
      or sponsor-defined dictionaries.
    :typed_as:
      :id: aHR0cDovL3d3dy5hc3Nlcm8uY28udWsvQ1NOI2QyZjJiYmViLThmNzktNGZiMS1iMTkwLWRkODY0ZDI5ZjA4MA==
      :uri: http://www.assero.co.uk/CSN#d2f2bbeb-8f79-4fb1-b190-dd864d29f080
      :rdf_type: http://www.assero.co.uk/ISO11179Concepts#ConceptSystemNode
      :pref_label: Character
      :description: Character datatype
      :narrower: []
    :classified_as:
      :id: aHR0cDovL3d3dy5hc3Nlcm8uY28udWsvQ1NOIzg2Y2Q2MWU2LWQ0OGMtNGU0Mi1iOTk0LWJlZTM1ZTIzNTFmZQ==
      :uri: http://www.assero.co.uk/CSN#86cd61e6-d48c-4e42-b994-bee35e2351fe
      :rdf_type: http://www.assero.co.uk/ISO11179Concepts#ConceptSystemNode
      :pref_label: None
      :description: No role assigned
      :narrower: []
    :is_a: 
  - :id: aHR0cDovL3d3dy5jZGlzYy5vcmcvU0RUTV9NT0RFTF9BTEwvVjEjQ0xfLS1SRUZJRA==
    :uri: http://www.cdisc.org/SDTM_MODEL_ALL/V1#CL_--REFID
    :rdf_type: http://www.assero.co.uk/Tabulation#SdtmClassVariable
    :label: Reference ID
    :rule: ''
    :ordinal: 6
    :name: "--REFID"
    :prefixed: true
    :description: Optional internal or external identifier such as lab specimen ID,
      or UUID for an ECG waveform or a medical image.
    :typed_as:
      :id: aHR0cDovL3d3dy5hc3Nlcm8uY28udWsvQ1NOI2QyZjJiYmViLThmNzktNGZiMS1iMTkwLWRkODY0ZDI5ZjA4MA==
      :uri: http://www.assero.co.uk/CSN#d2f2bbeb-8f79-4fb1-b190-dd864d29f080
      :rdf_type: http://www.assero.co.uk/ISO11179Concepts#ConceptSystemNode
      :pref_label: Character
      :description: Character datatype
      :narrower: []
    :classified_as:
      :id: aHR0cDovL3d3dy5hc3Nlcm8uY28udWsvQ1NOI2Q0NmJiMzM3LTkyY2QtNDI1MC1iNTBjLTliZTUwNzlkNmFiMw==
      :uri: http://www.assero.co.uk/CSN#d46bb337-92cd-4250-b50c-9be5079d6ab3
      :rdf_type: http://www.assero.co.uk/ISO11179Concepts#ConceptSystemNode
      :pref_label: Identifier
      :description: Variables, such as those that identify the study, the subject
        (individual human or animal or group of individuals) involved in the study,
        the domain, and the sequence number of the record.
      :narrower: []
    :is_a: 
  - :id: aHR0cDovL3d3dy5jZGlzYy5vcmcvU0RUTV9NT0RFTF9BTEwvVjEjQ0xfLS1EVEM=
    :uri: http://www.cdisc.org/SDTM_MODEL_ALL/V1#CL_--DTC
    :rdf_type: http://www.assero.co.uk/Tabulation#SdtmClassVariable
    :label: Date/Time of Collection
    :rule: ''
    :ordinal: 13
    :name: "--DTC"
    :prefixed: true
    :description: Collection date and time of an observation represented in IS0 8601
      character format.
    :typed_as:
      :id: aHR0cDovL3d3dy5hc3Nlcm8uY28udWsvQ1NOI2QyZjJiYmViLThmNzktNGZiMS1iMTkwLWRkODY0ZDI5ZjA4MA==
      :uri: http://www.assero.co.uk/CSN#d2f2bbeb-8f79-4fb1-b190-dd864d29f080
      :rdf_type: http://www.assero.co.uk/ISO11179Concepts#ConceptSystemNode
      :pref_label: Character
      :description: Character datatype
      :narrower: []
    :classified_as:
      :id: aHR0cDovL3d3dy5hc3Nlcm8uY28udWsvQ1NOIzJjM2ZmMzg2LWEwNjItNDdmNS1iNTk0LWVlZjdlYWQwMjI0Mw==
      :uri: http://www.assero.co.uk/CSN#2c3ff386-a062-47f5-b594-eef7ead02243
      :rdf_type: http://www.assero.co.uk/ISO11179Concepts#ConceptSystemNode
      :pref_label: Timing
      :description: Variables which describe the timing of an observation (such as
        start date and end date).
      :narrower: []
    :is_a: http://www.s-cubed.dk/CAR#232daabe4ca2dfdb32645c572b1d34ddb4fe9995
  - :id: aHR0cDovL3d3dy5jZGlzYy5vcmcvU0RUTV9NT0RFTF9BTEwvVjEjQ0xfLS1FTFRN
    :uri: http://www.cdisc.org/SDTM_MODEL_ALL/V1#CL_--ELTM
    :rdf_type: http://www.assero.co.uk/Tabulation#SdtmClassVariable
    :label: Planned Elapsed Time from Time Point Ref
    :rule: ''
    :ordinal: 22
    :name: "--ELTM"
    :prefixed: true
    :description: Planned Elapsed time in ISO 8601 character format relative to a
      planned fixed reference (--TPTREF) such as 'Previous Dose' or 'Previous Meal'.
      This variable is useful where there are repetitive measures. Not a clock time
      or a date/time variable, but an interval, represented as ISO duration.
    :typed_as:
      :id: aHR0cDovL3d3dy5hc3Nlcm8uY28udWsvQ1NOI2QyZjJiYmViLThmNzktNGZiMS1iMTkwLWRkODY0ZDI5ZjA4MA==
      :uri: http://www.assero.co.uk/CSN#d2f2bbeb-8f79-4fb1-b190-dd864d29f080
      :rdf_type: http://www.assero.co.uk/ISO11179Concepts#ConceptSystemNode
      :pref_label: Character
      :description: Character datatype
      :narrower: []
    :classified_as:
      :id: aHR0cDovL3d3dy5hc3Nlcm8uY28udWsvQ1NOIzJjM2ZmMzg2LWEwNjItNDdmNS1iNTk0LWVlZjdlYWQwMjI0Mw==
      :uri: http://www.assero.co.uk/CSN#2c3ff386-a062-47f5-b594-eef7ead02243
      :rdf_type: http://www.assero.co.uk/ISO11179Concepts#ConceptSystemNode
      :pref_label: Timing
      :description: Variables which describe the timing of an observation (such as
        start date and end date).
      :narrower: []
    :is_a: 
  - :id: aHR0cDovL3d3dy5jZGlzYy5vcmcvU0RUTV9NT0RFTF9FVkVOVFMvVjEjQ0xfLS1TTUlF
    :uri: http://www.cdisc.org/SDTM_MODEL_EVENTS/V1#CL_--SMIE
    :rdf_type: http://www.assero.co.uk/Tabulation#SdtmClassVariable
    :label: Other Medically Important Serious Event
    :rule: ''
    :ordinal: 58
    :name: "--SMIE"
    :prefixed: true
    :description: Do additional categories for seriousness apply? Valid values are
      'Y' and 'N'.
    :typed_as:
      :id: aHR0cDovL3d3dy5hc3Nlcm8uY28udWsvQ1NOI2QyZjJiYmViLThmNzktNGZiMS1iMTkwLWRkODY0ZDI5ZjA4MA==
      :uri: http://www.assero.co.uk/CSN#d2f2bbeb-8f79-4fb1-b190-dd864d29f080
      :rdf_type: http://www.assero.co.uk/ISO11179Concepts#ConceptSystemNode
      :pref_label: Character
      :description: Character datatype
      :narrower: []
    :classified_as:
      :id: aHR0cDovL3d3dy5hc3Nlcm8uY28udWsvQ1NOIzRiYjc1NzhjLTY3MDUtNGQyZS05M2Q2LWI1Njk2MGQ5ZTIxZQ==
      :uri: http://www.assero.co.uk/CSN#4bb7578c-6705-4d2e-93d6-b56960d9e21e
      :rdf_type: http://www.assero.co.uk/ISO11179Concepts#ConceptSystemNode
      :pref_label: Record
      :description: Qualifiers used to define additional attributes of the observation
        record as a whole (rather than describing a particular variable within a record).
        Examples include --REASND, AESLIFE, and all other SAE flag variables in the
        AE domain; AGE, SEX, and RACE in the DM domain; and --BLFL, --POS, --LOC,
        --SPEC, and --NAM in a Findings domain.
      :narrower: []
    :is_a: 
  - :id: aHR0cDovL3d3dy5jZGlzYy5vcmcvU0RUTV9NT0RFTF9BTEwvVjEjQ0xfLS1EWQ==
    :uri: http://www.cdisc.org/SDTM_MODEL_ALL/V1#CL_--DY
    :rdf_type: http://www.assero.co.uk/Tabulation#SdtmClassVariable
    :label: Study Day of Visit/Collection/Exam
    :rule: ''
    :ordinal: 16
    :name: "--DY"
    :prefixed: true
    :description: Actual study day of visit/collection/exam expressed in integer days
      relative to the sponsor-defined RFSTDTC in Demographics.
    :typed_as:
      :id: aHR0cDovL3d3dy5hc3Nlcm8uY28udWsvQ1NOIzE3OGY4ZGJlLWMzYmEtNGRjMC04YTJhLTE4MDgxNjQ0YjRjNg==
      :uri: http://www.assero.co.uk/CSN#178f8dbe-c3ba-4dc0-8a2a-18081644b4c6
      :rdf_type: http://www.assero.co.uk/ISO11179Concepts#ConceptSystemNode
      :pref_label: Numeric
      :description: Numeric datatype
      :narrower: []
    :classified_as:
      :id: aHR0cDovL3d3dy5hc3Nlcm8uY28udWsvQ1NOIzJjM2ZmMzg2LWEwNjItNDdmNS1iNTk0LWVlZjdlYWQwMjI0Mw==
      :uri: http://www.assero.co.uk/CSN#2c3ff386-a062-47f5-b594-eef7ead02243
      :rdf_type: http://www.assero.co.uk/ISO11179Concepts#ConceptSystemNode
      :pref_label: Timing
      :description: Variables which describe the timing of an observation (such as
        start date and end date).
      :narrower: []
    :is_a: 
  - :id: aHR0cDovL3d3dy5jZGlzYy5vcmcvU0RUTV9NT0RFTF9FVkVOVFMvVjEjQ0xfLS1TTElGRQ==
    :uri: http://www.cdisc.org/SDTM_MODEL_EVENTS/V1#CL_--SLIFE
    :rdf_type: http://www.assero.co.uk/Tabulation#SdtmClassVariable
    :label: Is Life Threatening
    :rule: ''
    :ordinal: 56
    :name: "--SLIFE"
    :prefixed: true
    :description: Was the event life threatening? Valid values are 'Y' and 'N'.
    :typed_as:
      :id: aHR0cDovL3d3dy5hc3Nlcm8uY28udWsvQ1NOI2QyZjJiYmViLThmNzktNGZiMS1iMTkwLWRkODY0ZDI5ZjA4MA==
      :uri: http://www.assero.co.uk/CSN#d2f2bbeb-8f79-4fb1-b190-dd864d29f080
      :rdf_type: http://www.assero.co.uk/ISO11179Concepts#ConceptSystemNode
      :pref_label: Character
      :description: Character datatype
      :narrower: []
    :classified_as:
      :id: aHR0cDovL3d3dy5hc3Nlcm8uY28udWsvQ1NOIzRiYjc1NzhjLTY3MDUtNGQyZS05M2Q2LWI1Njk2MGQ5ZTIxZQ==
      :uri: http://www.assero.co.uk/CSN#4bb7578c-6705-4d2e-93d6-b56960d9e21e
      :rdf_type: http://www.assero.co.uk/ISO11179Concepts#ConceptSystemNode
      :pref_label: Record
      :description: Qualifiers used to define additional attributes of the observation
        record as a whole (rather than describing a particular variable within a record).
        Examples include --REASND, AESLIFE, and all other SAE flag variables in the
        AE domain; AGE, SEX, and RACE in the DM domain; and --BLFL, --POS, --LOC,
        --SPEC, and --NAM in a Findings domain.
      :narrower: []
    :is_a: 
  - :id: aHR0cDovL3d3dy5jZGlzYy5vcmcvU0RUTV9NT0RFTF9FVkVOVFMvVjEjQ0xfLS1SRUFTTkQ=
    :uri: http://www.cdisc.org/SDTM_MODEL_EVENTS/V1#CL_--REASND
    :rdf_type: http://www.assero.co.uk/Tabulation#SdtmClassVariable
    :label: Reason Not Done
    :rule: ''
    :ordinal: 40
    :name: "--REASND"
    :prefixed: true
    :description: Reason not done. Used in conjunction with --STAT when value is NOT
      DONE.
    :typed_as:
      :id: aHR0cDovL3d3dy5hc3Nlcm8uY28udWsvQ1NOI2QyZjJiYmViLThmNzktNGZiMS1iMTkwLWRkODY0ZDI5ZjA4MA==
      :uri: http://www.assero.co.uk/CSN#d2f2bbeb-8f79-4fb1-b190-dd864d29f080
      :rdf_type: http://www.assero.co.uk/ISO11179Concepts#ConceptSystemNode
      :pref_label: Character
      :description: Character datatype
      :narrower: []
    :classified_as:
      :id: aHR0cDovL3d3dy5hc3Nlcm8uY28udWsvQ1NOIzRiYjc1NzhjLTY3MDUtNGQyZS05M2Q2LWI1Njk2MGQ5ZTIxZQ==
      :uri: http://www.assero.co.uk/CSN#4bb7578c-6705-4d2e-93d6-b56960d9e21e
      :rdf_type: http://www.assero.co.uk/ISO11179Concepts#ConceptSystemNode
      :pref_label: Record
      :description: Qualifiers used to define additional attributes of the observation
        record as a whole (rather than describing a particular variable within a record).
        Examples include --REASND, AESLIFE, and all other SAE flag variables in the
        AE domain; AGE, SEX, and RACE in the DM domain; and --BLFL, --POS, --LOC,
        --SPEC, and --NAM in a Findings domain.
      :narrower: []
    :is_a: 
  - :id: aHR0cDovL3d3dy5jZGlzYy5vcmcvU0RUTV9NT0RFTF9FVkVOVFMvVjEjQ0xfLS1UT1hHUg==
    :uri: http://www.cdisc.org/SDTM_MODEL_EVENTS/V1#CL_--TOXGR
    :rdf_type: http://www.assero.co.uk/Tabulation#SdtmClassVariable
    :label: Toxicity Grade
    :rule: ''
    :ordinal: 61
    :name: "--TOXGR"
    :prefixed: true
    :description: Records toxicity grade using a standard toxicity scale (such as
      the NCI CTCAE). Sponsor should specify which scale and version is used in the
      Sponsor Comments column of the Define.xml document.
    :typed_as:
      :id: aHR0cDovL3d3dy5hc3Nlcm8uY28udWsvQ1NOI2QyZjJiYmViLThmNzktNGZiMS1iMTkwLWRkODY0ZDI5ZjA4MA==
      :uri: http://www.assero.co.uk/CSN#d2f2bbeb-8f79-4fb1-b190-dd864d29f080
      :rdf_type: http://www.assero.co.uk/ISO11179Concepts#ConceptSystemNode
      :pref_label: Character
      :description: Character datatype
      :narrower: []
    :classified_as:
      :id: aHR0cDovL3d3dy5hc3Nlcm8uY28udWsvQ1NOIzRiYjc1NzhjLTY3MDUtNGQyZS05M2Q2LWI1Njk2MGQ5ZTIxZQ==
      :uri: http://www.assero.co.uk/CSN#4bb7578c-6705-4d2e-93d6-b56960d9e21e
      :rdf_type: http://www.assero.co.uk/ISO11179Concepts#ConceptSystemNode
      :pref_label: Record
      :description: Qualifiers used to define additional attributes of the observation
        record as a whole (rather than describing a particular variable within a record).
        Examples include --REASND, AESLIFE, and all other SAE flag variables in the
        AE domain; AGE, SEX, and RACE in the DM domain; and --BLFL, --POS, --LOC,
        --SPEC, and --NAM in a Findings domain.
      :narrower: []
    :is_a: 
  - :id: aHR0cDovL3d3dy5jZGlzYy5vcmcvU0RUTV9NT0RFTF9BTEwvVjEjQ0xfRVBPQ0g=
    :uri: http://www.cdisc.org/SDTM_MODEL_ALL/V1#CL_EPOCH
    :rdf_type: http://www.assero.co.uk/Tabulation#SdtmClassVariable
    :label: Epoch
    :rule: ''
    :ordinal: 12
    :name: EPOCH
    :prefixed: false
    :description: Epoch associated with the Element in the planned sequence of Elements
      for the ARM to which the subject was assigned
    :typed_as:
      :id: aHR0cDovL3d3dy5hc3Nlcm8uY28udWsvQ1NOI2QyZjJiYmViLThmNzktNGZiMS1iMTkwLWRkODY0ZDI5ZjA4MA==
      :uri: http://www.assero.co.uk/CSN#d2f2bbeb-8f79-4fb1-b190-dd864d29f080
      :rdf_type: http://www.assero.co.uk/ISO11179Concepts#ConceptSystemNode
      :pref_label: Character
      :description: Character datatype
      :narrower: []
    :classified_as:
      :id: aHR0cDovL3d3dy5hc3Nlcm8uY28udWsvQ1NOIzJjM2ZmMzg2LWEwNjItNDdmNS1iNTk0LWVlZjdlYWQwMjI0Mw==
      :uri: http://www.assero.co.uk/CSN#2c3ff386-a062-47f5-b594-eef7ead02243
      :rdf_type: http://www.assero.co.uk/ISO11179Concepts#ConceptSystemNode
      :pref_label: Timing
      :description: Variables which describe the timing of an observation (such as
        start date and end date).
      :narrower: []
    :is_a: 
  - :id: aHR0cDovL3d3dy5jZGlzYy5vcmcvU0RUTV9NT0RFTF9BTEwvVjEjQ0xfLS1FTkRUQw==
    :uri: http://www.cdisc.org/SDTM_MODEL_ALL/V1#CL_--ENDTC
    :rdf_type: http://www.assero.co.uk/Tabulation#SdtmClassVariable
    :label: End Date/Time of Observation
    :rule: ''
    :ordinal: 15
    :name: "--ENDTC"
    :prefixed: true
    :description: End date/time of the observation represented in IS0 8601 character
      format.
    :typed_as:
      :id: aHR0cDovL3d3dy5hc3Nlcm8uY28udWsvQ1NOI2QyZjJiYmViLThmNzktNGZiMS1iMTkwLWRkODY0ZDI5ZjA4MA==
      :uri: http://www.assero.co.uk/CSN#d2f2bbeb-8f79-4fb1-b190-dd864d29f080
      :rdf_type: http://www.assero.co.uk/ISO11179Concepts#ConceptSystemNode
      :pref_label: Character
      :description: Character datatype
      :narrower: []
    :classified_as:
      :id: aHR0cDovL3d3dy5hc3Nlcm8uY28udWsvQ1NOIzJjM2ZmMzg2LWEwNjItNDdmNS1iNTk0LWVlZjdlYWQwMjI0Mw==
      :uri: http://www.assero.co.uk/CSN#2c3ff386-a062-47f5-b594-eef7ead02243
      :rdf_type: http://www.assero.co.uk/ISO11179Concepts#ConceptSystemNode
      :pref_label: Timing
      :description: Variables which describe the timing of an observation (such as
        start date and end date).
      :narrower: []
    :is_a: http://www.s-cubed.dk/CAR#71c54c70967ea84127e4bd588bd627ec0e581dfb
  - :id: aHR0cDovL3d3dy5jZGlzYy5vcmcvU0RUTV9NT0RFTF9BTEwvVjEjQ0xfLS1FTkRZ
    :uri: http://www.cdisc.org/SDTM_MODEL_ALL/V1#CL_--ENDY
    :rdf_type: http://www.assero.co.uk/Tabulation#SdtmClassVariable
    :label: Study Day of End of Observation
    :rule: ''
    :ordinal: 18
    :name: "--ENDY"
    :prefixed: true
    :description: Actual study day of end of observation expressed in integer days
      relative to the sponsor-defined RFSTDTC in Demographics.
    :typed_as:
      :id: aHR0cDovL3d3dy5hc3Nlcm8uY28udWsvQ1NOIzE3OGY4ZGJlLWMzYmEtNGRjMC04YTJhLTE4MDgxNjQ0YjRjNg==
      :uri: http://www.assero.co.uk/CSN#178f8dbe-c3ba-4dc0-8a2a-18081644b4c6
      :rdf_type: http://www.assero.co.uk/ISO11179Concepts#ConceptSystemNode
      :pref_label: Numeric
      :description: Numeric datatype
      :narrower: []
    :classified_as:
      :id: aHR0cDovL3d3dy5hc3Nlcm8uY28udWsvQ1NOIzJjM2ZmMzg2LWEwNjItNDdmNS1iNTk0LWVlZjdlYWQwMjI0Mw==
      :uri: http://www.assero.co.uk/CSN#2c3ff386-a062-47f5-b594-eef7ead02243
      :rdf_type: http://www.assero.co.uk/ISO11179Concepts#ConceptSystemNode
      :pref_label: Timing
      :description: Variables which describe the timing of an observation (such as
        start date and end date).
      :narrower: []
    :is_a: 
  - :id: aHR0cDovL3d3dy5jZGlzYy5vcmcvU0RUTV9NT0RFTF9FVkVOVFMvVjEjQ0xfLS1PVVQ=
    :uri: http://www.cdisc.org/SDTM_MODEL_EVENTS/V1#CL_--OUT
    :rdf_type: http://www.assero.co.uk/Tabulation#SdtmClassVariable
    :label: Outcome of Event
    :rule: ''
    :ordinal: 50
    :name: "--OUT"
    :prefixed: true
    :description: 'Description of the outcome of an event. Examples: RECOVERED/RESOLVED,
      FATAL.'
    :typed_as:
      :id: aHR0cDovL3d3dy5hc3Nlcm8uY28udWsvQ1NOI2QyZjJiYmViLThmNzktNGZiMS1iMTkwLWRkODY0ZDI5ZjA4MA==
      :uri: http://www.assero.co.uk/CSN#d2f2bbeb-8f79-4fb1-b190-dd864d29f080
      :rdf_type: http://www.assero.co.uk/ISO11179Concepts#ConceptSystemNode
      :pref_label: Character
      :description: Character datatype
      :narrower: []
    :classified_as:
      :id: aHR0cDovL3d3dy5hc3Nlcm8uY28udWsvQ1NOIzRiYjc1NzhjLTY3MDUtNGQyZS05M2Q2LWI1Njk2MGQ5ZTIxZQ==
      :uri: http://www.assero.co.uk/CSN#4bb7578c-6705-4d2e-93d6-b56960d9e21e
      :rdf_type: http://www.assero.co.uk/ISO11179Concepts#ConceptSystemNode
      :pref_label: Record
      :description: Qualifiers used to define additional attributes of the observation
        record as a whole (rather than describing a particular variable within a record).
        Examples include --REASND, AESLIFE, and all other SAE flag variables in the
        AE domain; AGE, SEX, and RACE in the DM domain; and --BLFL, --POS, --LOC,
        --SPEC, and --NAM in a Findings domain.
      :narrower: []
    :is_a: http://www.s-cubed.dk/CAR#73a0f131076b513c16bfe3f4cff9ab8b765c9f23
  - :id: aHR0cDovL3d3dy5jZGlzYy5vcmcvU0RUTV9NT0RFTF9FVkVOVFMvVjEjQ0xfLS1TVEFU
    :uri: http://www.cdisc.org/SDTM_MODEL_EVENTS/V1#CL_--STAT
    :rdf_type: http://www.assero.co.uk/Tabulation#SdtmClassVariable
    :label: Completion Status
    :rule: ''
    :ordinal: 39
    :name: "--STAT"
    :prefixed: true
    :description: Used to indicate when a question about the occurrence of a pre-specified
      event was not answered. Should be null or have a value of NOT DONE.
    :typed_as:
      :id: aHR0cDovL3d3dy5hc3Nlcm8uY28udWsvQ1NOI2QyZjJiYmViLThmNzktNGZiMS1iMTkwLWRkODY0ZDI5ZjA4MA==
      :uri: http://www.assero.co.uk/CSN#d2f2bbeb-8f79-4fb1-b190-dd864d29f080
      :rdf_type: http://www.assero.co.uk/ISO11179Concepts#ConceptSystemNode
      :pref_label: Character
      :description: Character datatype
      :narrower: []
    :classified_as:
      :id: aHR0cDovL3d3dy5hc3Nlcm8uY28udWsvQ1NOIzRiYjc1NzhjLTY3MDUtNGQyZS05M2Q2LWI1Njk2MGQ5ZTIxZQ==
      :uri: http://www.assero.co.uk/CSN#4bb7578c-6705-4d2e-93d6-b56960d9e21e
      :rdf_type: http://www.assero.co.uk/ISO11179Concepts#ConceptSystemNode
      :pref_label: Record
      :description: Qualifiers used to define additional attributes of the observation
        record as a whole (rather than describing a particular variable within a record).
        Examples include --REASND, AESLIFE, and all other SAE flag variables in the
        AE domain; AGE, SEX, and RACE in the DM domain; and --BLFL, --POS, --LOC,
        --SPEC, and --NAM in a Findings domain.
      :narrower: []
    :is_a: http://www.s-cubed.dk/CAR#bae7d5be70820ed56467bd9a63744e23b47bd711
  - :id: aHR0cDovL3d3dy5jZGlzYy5vcmcvU0RUTV9NT0RFTF9BTEwvVjEjQ0xfLS1EVVI=
    :uri: http://www.cdisc.org/SDTM_MODEL_ALL/V1#CL_--DUR
    :rdf_type: http://www.assero.co.uk/Tabulation#SdtmClassVariable
    :label: Duration
    :rule: ''
    :ordinal: 19
    :name: "--DUR"
    :prefixed: true
    :description: Collected duration of an event, intervention, or finding represented
      in ISO 8601 character format. Used only if collected on the CRF and not derived.
    :typed_as:
      :id: aHR0cDovL3d3dy5hc3Nlcm8uY28udWsvQ1NOI2QyZjJiYmViLThmNzktNGZiMS1iMTkwLWRkODY0ZDI5ZjA4MA==
      :uri: http://www.assero.co.uk/CSN#d2f2bbeb-8f79-4fb1-b190-dd864d29f080
      :rdf_type: http://www.assero.co.uk/ISO11179Concepts#ConceptSystemNode
      :pref_label: Character
      :description: Character datatype
      :narrower: []
    :classified_as:
      :id: aHR0cDovL3d3dy5hc3Nlcm8uY28udWsvQ1NOIzJjM2ZmMzg2LWEwNjItNDdmNS1iNTk0LWVlZjdlYWQwMjI0Mw==
      :uri: http://www.assero.co.uk/CSN#2c3ff386-a062-47f5-b594-eef7ead02243
      :rdf_type: http://www.assero.co.uk/ISO11179Concepts#ConceptSystemNode
      :pref_label: Timing
      :description: Variables which describe the timing of an observation (such as
        start date and end date).
      :narrower: []
    :is_a: 
  - :id: aHR0cDovL3d3dy5jZGlzYy5vcmcvU0RUTV9NT0RFTF9FVkVOVFMvVjEjQ0xfLS1QUkVTUA==
    :uri: http://www.cdisc.org/SDTM_MODEL_EVENTS/V1#CL_--PRESP
    :rdf_type: http://www.assero.co.uk/Tabulation#SdtmClassVariable
    :label: Pre-specified
    :rule: ''
    :ordinal: 37
    :name: "--PRESP"
    :prefixed: true
    :description: Used when a specific intervention is pre-specified on a CRF. Values
      should be 'Y' or null.
    :typed_as:
      :id: aHR0cDovL3d3dy5hc3Nlcm8uY28udWsvQ1NOI2QyZjJiYmViLThmNzktNGZiMS1iMTkwLWRkODY0ZDI5ZjA4MA==
      :uri: http://www.assero.co.uk/CSN#d2f2bbeb-8f79-4fb1-b190-dd864d29f080
      :rdf_type: http://www.assero.co.uk/ISO11179Concepts#ConceptSystemNode
      :pref_label: Character
      :description: Character datatype
      :narrower: []
    :classified_as:
      :id: aHR0cDovL3d3dy5hc3Nlcm8uY28udWsvQ1NOIzRiYjc1NzhjLTY3MDUtNGQyZS05M2Q2LWI1Njk2MGQ5ZTIxZQ==
      :uri: http://www.assero.co.uk/CSN#4bb7578c-6705-4d2e-93d6-b56960d9e21e
      :rdf_type: http://www.assero.co.uk/ISO11179Concepts#ConceptSystemNode
      :pref_label: Record
      :description: Qualifiers used to define additional attributes of the observation
        record as a whole (rather than describing a particular variable within a record).
        Examples include --REASND, AESLIFE, and all other SAE flag variables in the
        AE domain; AGE, SEX, and RACE in the DM domain; and --BLFL, --POS, --LOC,
        --SPEC, and --NAM in a Findings domain.
      :narrower: []
    :is_a: 
  - :id: aHR0cDovL3d3dy5jZGlzYy5vcmcvU0RUTV9NT0RFTF9FVkVOVFMvVjEjQ0xfLS1MT0M=
    :uri: http://www.cdisc.org/SDTM_MODEL_EVENTS/V1#CL_--LOC
    :rdf_type: http://www.assero.co.uk/Tabulation#SdtmClassVariable
    :label: Location of Event
    :rule: ''
    :ordinal: 42
    :name: "--LOC"
    :prefixed: true
    :description: 'Anatomical location of an intervention, such as an injection site.
      Example: RIGHT ARM for an injection.'
    :typed_as:
      :id: aHR0cDovL3d3dy5hc3Nlcm8uY28udWsvQ1NOI2QyZjJiYmViLThmNzktNGZiMS1iMTkwLWRkODY0ZDI5ZjA4MA==
      :uri: http://www.assero.co.uk/CSN#d2f2bbeb-8f79-4fb1-b190-dd864d29f080
      :rdf_type: http://www.assero.co.uk/ISO11179Concepts#ConceptSystemNode
      :pref_label: Character
      :description: Character datatype
      :narrower: []
    :classified_as:
      :id: aHR0cDovL3d3dy5hc3Nlcm8uY28udWsvQ1NOIzRiYjc1NzhjLTY3MDUtNGQyZS05M2Q2LWI1Njk2MGQ5ZTIxZQ==
      :uri: http://www.assero.co.uk/CSN#4bb7578c-6705-4d2e-93d6-b56960d9e21e
      :rdf_type: http://www.assero.co.uk/ISO11179Concepts#ConceptSystemNode
      :pref_label: Record
      :description: Qualifiers used to define additional attributes of the observation
        record as a whole (rather than describing a particular variable within a record).
        Examples include --REASND, AESLIFE, and all other SAE flag variables in the
        AE domain; AGE, SEX, and RACE in the DM domain; and --BLFL, --POS, --LOC,
        --SPEC, and --NAM in a Findings domain.
      :narrower: []
    :is_a: http://www.s-cubed.dk/CAR#d219c68101f532de10add2cf42fb9dbeca73d3be
  - :id: aHR0cDovL3d3dy5jZGlzYy5vcmcvU0RUTV9NT0RFTF9FVkVOVFMvVjEjQ0xfLS1QQVRU
    :uri: http://www.cdisc.org/SDTM_MODEL_EVENTS/V1#CL_--PATT
    :rdf_type: http://www.assero.co.uk/Tabulation#SdtmClassVariable
    :label: Pattern of Event
    :rule: ''
    :ordinal: 49
    :name: "--PATT"
    :prefixed: true
    :description: 'Used to indicate the pattern of the event over time. Examples:
      INTERMITTENT, CONTINUOUS, SINGLE EVENT.'
    :typed_as:
      :id: aHR0cDovL3d3dy5hc3Nlcm8uY28udWsvQ1NOI2QyZjJiYmViLThmNzktNGZiMS1iMTkwLWRkODY0ZDI5ZjA4MA==
      :uri: http://www.assero.co.uk/CSN#d2f2bbeb-8f79-4fb1-b190-dd864d29f080
      :rdf_type: http://www.assero.co.uk/ISO11179Concepts#ConceptSystemNode
      :pref_label: Character
      :description: Character datatype
      :narrower: []
    :classified_as:
      :id: aHR0cDovL3d3dy5hc3Nlcm8uY28udWsvQ1NOIzRiYjc1NzhjLTY3MDUtNGQyZS05M2Q2LWI1Njk2MGQ5ZTIxZQ==
      :uri: http://www.assero.co.uk/CSN#4bb7578c-6705-4d2e-93d6-b56960d9e21e
      :rdf_type: http://www.assero.co.uk/ISO11179Concepts#ConceptSystemNode
      :pref_label: Record
      :description: Qualifiers used to define additional attributes of the observation
        record as a whole (rather than describing a particular variable within a record).
        Examples include --REASND, AESLIFE, and all other SAE flag variables in the
        AE domain; AGE, SEX, and RACE in the DM domain; and --BLFL, --POS, --LOC,
        --SPEC, and --NAM in a Findings domain.
      :narrower: []
    :is_a: http://www.s-cubed.dk/CAR#1fff6a31661b491fc40cc9c1ad7fe5e479cb7500
  - :id: aHR0cDovL3d3dy5jZGlzYy5vcmcvU0RUTV9NT0RFTF9BTEwvVjEjQ0xfLS1FVkxJTlQ=
    :uri: http://www.cdisc.org/SDTM_MODEL_ALL/V1#CL_--EVLINT
    :rdf_type: http://www.assero.co.uk/Tabulation#SdtmClassVariable
    :label: Evaluation Interval
    :rule: ''
    :ordinal: 27
    :name: "--EVLINT"
    :prefixed: true
    :description: 'Evaluation interval associated with an observation such as a finding
      --TESTCD, represented in ISO 8601 character format. Example: -P2M to represent
      a period of the past 2 months as the evaluation interval for a question from
      a questionnaire such as SF-36.'
    :typed_as:
      :id: aHR0cDovL3d3dy5hc3Nlcm8uY28udWsvQ1NOI2QyZjJiYmViLThmNzktNGZiMS1iMTkwLWRkODY0ZDI5ZjA4MA==
      :uri: http://www.assero.co.uk/CSN#d2f2bbeb-8f79-4fb1-b190-dd864d29f080
      :rdf_type: http://www.assero.co.uk/ISO11179Concepts#ConceptSystemNode
      :pref_label: Character
      :description: Character datatype
      :narrower: []
    :classified_as:
      :id: aHR0cDovL3d3dy5hc3Nlcm8uY28udWsvQ1NOIzJjM2ZmMzg2LWEwNjItNDdmNS1iNTk0LWVlZjdlYWQwMjI0Mw==
      :uri: http://www.assero.co.uk/CSN#2c3ff386-a062-47f5-b594-eef7ead02243
      :rdf_type: http://www.assero.co.uk/ISO11179Concepts#ConceptSystemNode
      :pref_label: Timing
      :description: Variables which describe the timing of an observation (such as
        start date and end date).
      :narrower: []
    :is_a: 
  - :id: aHR0cDovL3d3dy5jZGlzYy5vcmcvU0RUTV9NT0RFTF9FVkVOVFMvVjEjQ0xfLS1TQ09ORw==
    :uri: http://www.cdisc.org/SDTM_MODEL_EVENTS/V1#CL_--SCONG
    :rdf_type: http://www.assero.co.uk/Tabulation#SdtmClassVariable
    :label: Congenital Anomaly or Birth Defect
    :rule: ''
    :ordinal: 52
    :name: "--SCONG"
    :prefixed: true
    :description: Was the event associated with congenital anomaly or birth defect?
      Valid values are 'Y' and 'N'.
    :typed_as:
      :id: aHR0cDovL3d3dy5hc3Nlcm8uY28udWsvQ1NOI2QyZjJiYmViLThmNzktNGZiMS1iMTkwLWRkODY0ZDI5ZjA4MA==
      :uri: http://www.assero.co.uk/CSN#d2f2bbeb-8f79-4fb1-b190-dd864d29f080
      :rdf_type: http://www.assero.co.uk/ISO11179Concepts#ConceptSystemNode
      :pref_label: Character
      :description: Character datatype
      :narrower: []
    :classified_as:
      :id: aHR0cDovL3d3dy5hc3Nlcm8uY28udWsvQ1NOIzRiYjc1NzhjLTY3MDUtNGQyZS05M2Q2LWI1Njk2MGQ5ZTIxZQ==
      :uri: http://www.assero.co.uk/CSN#4bb7578c-6705-4d2e-93d6-b56960d9e21e
      :rdf_type: http://www.assero.co.uk/ISO11179Concepts#ConceptSystemNode
      :pref_label: Record
      :description: Qualifiers used to define additional attributes of the observation
        record as a whole (rather than describing a particular variable within a record).
        Examples include --REASND, AESLIFE, and all other SAE flag variables in the
        AE domain; AGE, SEX, and RACE in the DM domain; and --BLFL, --POS, --LOC,
        --SPEC, and --NAM in a Findings domain.
      :narrower: []
    :is_a: 
  - :id: aHR0cDovL3d3dy5jZGlzYy5vcmcvU0RUTV9NT0RFTF9FVkVOVFMvVjEjQ0xfLS1TRVY=
    :uri: http://www.cdisc.org/SDTM_MODEL_EVENTS/V1#CL_--SEV
    :rdf_type: http://www.assero.co.uk/Tabulation#SdtmClassVariable
    :label: Severity/Intensity
    :rule: ''
    :ordinal: 43
    :name: "--SEV"
    :prefixed: true
    :description: 'Describes the severity or intensity of a particular finding. Examples:
      MILD, MODERATE, SEVERE.'
    :typed_as:
      :id: aHR0cDovL3d3dy5hc3Nlcm8uY28udWsvQ1NOI2QyZjJiYmViLThmNzktNGZiMS1iMTkwLWRkODY0ZDI5ZjA4MA==
      :uri: http://www.assero.co.uk/CSN#d2f2bbeb-8f79-4fb1-b190-dd864d29f080
      :rdf_type: http://www.assero.co.uk/ISO11179Concepts#ConceptSystemNode
      :pref_label: Character
      :description: Character datatype
      :narrower: []
    :classified_as:
      :id: aHR0cDovL3d3dy5hc3Nlcm8uY28udWsvQ1NOIzRiYjc1NzhjLTY3MDUtNGQyZS05M2Q2LWI1Njk2MGQ5ZTIxZQ==
      :uri: http://www.assero.co.uk/CSN#4bb7578c-6705-4d2e-93d6-b56960d9e21e
      :rdf_type: http://www.assero.co.uk/ISO11179Concepts#ConceptSystemNode
      :pref_label: Record
      :description: Qualifiers used to define additional attributes of the observation
        record as a whole (rather than describing a particular variable within a record).
        Examples include --REASND, AESLIFE, and all other SAE flag variables in the
        AE domain; AGE, SEX, and RACE in the DM domain; and --BLFL, --POS, --LOC,
        --SPEC, and --NAM in a Findings domain.
      :narrower: []
    :is_a: http://www.s-cubed.dk/CAR#de314fa0c9d9e359b633f2fdab4659c886fe5986
  - :id: aHR0cDovL3d3dy5jZGlzYy5vcmcvU0RUTV9NT0RFTF9FVkVOVFMvVjEjQ0xfLS1URVJN
    :uri: http://www.cdisc.org/SDTM_MODEL_EVENTS/V1#CL_--TERM
    :rdf_type: http://www.assero.co.uk/Tabulation#SdtmClassVariable
    :label: Reported Term
    :rule: ''
    :ordinal: 32
    :name: "--TERM"
    :prefixed: true
    :description: Topic variable for an event observation, which is the verbatim or
      pre-specified name of the event.
    :typed_as:
      :id: aHR0cDovL3d3dy5hc3Nlcm8uY28udWsvQ1NOI2QyZjJiYmViLThmNzktNGZiMS1iMTkwLWRkODY0ZDI5ZjA4MA==
      :uri: http://www.assero.co.uk/CSN#d2f2bbeb-8f79-4fb1-b190-dd864d29f080
      :rdf_type: http://www.assero.co.uk/ISO11179Concepts#ConceptSystemNode
      :pref_label: Character
      :description: Character datatype
      :narrower: []
    :classified_as:
      :id: aHR0cDovL3d3dy5hc3Nlcm8uY28udWsvQ1NOIzY5MmNhZmJmLTY1OGEtNDNmMC05N2EyLWYwNDBlY2IxYTIwZA==
      :uri: http://www.assero.co.uk/CSN#692cafbf-658a-43f0-97a2-f040ecb1a20d
      :rdf_type: http://www.assero.co.uk/ISO11179Concepts#ConceptSystemNode
      :pref_label: Topic
      :description: Variables which specify the focus of the observation (such as
        the name of a lab test).
      :narrower: []
    :is_a: http://www.s-cubed.dk/CAR#2a4eb8036d87ab68656ba5b80bbf77123f088904
  - :id: aHR0cDovL3d3dy5jZGlzYy5vcmcvU0RUTV9NT0RFTF9FVkVOVFMvVjEjQ0xfLS1BQ05PVEg=
    :uri: http://www.cdisc.org/SDTM_MODEL_EVENTS/V1#CL_--ACNOTH
    :rdf_type: http://www.assero.co.uk/Tabulation#SdtmClassVariable
    :label: Other Action Taken
    :rule: ''
    :ordinal: 46
    :name: "--ACNOTH"
    :prefixed: true
    :description: Describes other actions taken as a result of the event that are
      unrelated to dose adjustments of study treatment.
    :typed_as:
      :id: aHR0cDovL3d3dy5hc3Nlcm8uY28udWsvQ1NOI2QyZjJiYmViLThmNzktNGZiMS1iMTkwLWRkODY0ZDI5ZjA4MA==
      :uri: http://www.assero.co.uk/CSN#d2f2bbeb-8f79-4fb1-b190-dd864d29f080
      :rdf_type: http://www.assero.co.uk/ISO11179Concepts#ConceptSystemNode
      :pref_label: Character
      :description: Character datatype
      :narrower: []
    :classified_as:
      :id: aHR0cDovL3d3dy5hc3Nlcm8uY28udWsvQ1NOIzRiYjc1NzhjLTY3MDUtNGQyZS05M2Q2LWI1Njk2MGQ5ZTIxZQ==
      :uri: http://www.assero.co.uk/CSN#4bb7578c-6705-4d2e-93d6-b56960d9e21e
      :rdf_type: http://www.assero.co.uk/ISO11179Concepts#ConceptSystemNode
      :pref_label: Record
      :description: Qualifiers used to define additional attributes of the observation
        record as a whole (rather than describing a particular variable within a record).
        Examples include --REASND, AESLIFE, and all other SAE flag variables in the
        AE domain; AGE, SEX, and RACE in the DM domain; and --BLFL, --POS, --LOC,
        --SPEC, and --NAM in a Findings domain.
      :narrower: []
    :is_a: http://www.s-cubed.dk/CAR#1baf5ac06f7430ac72727c2dfb3f152e07d9d5da
  - :id: aHR0cDovL3d3dy5jZGlzYy5vcmcvU0RUTV9NT0RFTF9FVkVOVFMvVjEjQ0xfLS1SRUxOU1Q=
    :uri: http://www.cdisc.org/SDTM_MODEL_EVENTS/V1#CL_--RELNST
    :rdf_type: http://www.assero.co.uk/Tabulation#SdtmClassVariable
    :label: Relationship to Non-Study Treatment
    :rule: ''
    :ordinal: 48
    :name: "--RELNST"
    :prefixed: true
    :description: 'An opinion as to whether the event may have been due to a treatment
      other than study drug. Example: ''MORE LIKELY RELATED TO ASPIRIN USE.'''
    :typed_as:
      :id: aHR0cDovL3d3dy5hc3Nlcm8uY28udWsvQ1NOI2QyZjJiYmViLThmNzktNGZiMS1iMTkwLWRkODY0ZDI5ZjA4MA==
      :uri: http://www.assero.co.uk/CSN#d2f2bbeb-8f79-4fb1-b190-dd864d29f080
      :rdf_type: http://www.assero.co.uk/ISO11179Concepts#ConceptSystemNode
      :pref_label: Character
      :description: Character datatype
      :narrower: []
    :classified_as:
      :id: aHR0cDovL3d3dy5hc3Nlcm8uY28udWsvQ1NOIzRiYjc1NzhjLTY3MDUtNGQyZS05M2Q2LWI1Njk2MGQ5ZTIxZQ==
      :uri: http://www.assero.co.uk/CSN#4bb7578c-6705-4d2e-93d6-b56960d9e21e
      :rdf_type: http://www.assero.co.uk/ISO11179Concepts#ConceptSystemNode
      :pref_label: Record
      :description: Qualifiers used to define additional attributes of the observation
        record as a whole (rather than describing a particular variable within a record).
        Examples include --REASND, AESLIFE, and all other SAE flag variables in the
        AE domain; AGE, SEX, and RACE in the DM domain; and --BLFL, --POS, --LOC,
        --SPEC, and --NAM in a Findings domain.
      :narrower: []
    :is_a: 
  - :id: aHR0cDovL3d3dy5jZGlzYy5vcmcvU0RUTV9NT0RFTF9FVkVOVFMvVjEjQ0xfLS1TRVI=
    :uri: http://www.cdisc.org/SDTM_MODEL_EVENTS/V1#CL_--SER
    :rdf_type: http://www.assero.co.uk/Tabulation#SdtmClassVariable
    :label: Serious Event
    :rule: ''
    :ordinal: 44
    :name: "--SER"
    :prefixed: true
    :description: Is this is a serious event? Valid values are 'Y' and 'N'.
    :typed_as:
      :id: aHR0cDovL3d3dy5hc3Nlcm8uY28udWsvQ1NOI2QyZjJiYmViLThmNzktNGZiMS1iMTkwLWRkODY0ZDI5ZjA4MA==
      :uri: http://www.assero.co.uk/CSN#d2f2bbeb-8f79-4fb1-b190-dd864d29f080
      :rdf_type: http://www.assero.co.uk/ISO11179Concepts#ConceptSystemNode
      :pref_label: Character
      :description: Character datatype
      :narrower: []
    :classified_as:
      :id: aHR0cDovL3d3dy5hc3Nlcm8uY28udWsvQ1NOIzRiYjc1NzhjLTY3MDUtNGQyZS05M2Q2LWI1Njk2MGQ5ZTIxZQ==
      :uri: http://www.assero.co.uk/CSN#4bb7578c-6705-4d2e-93d6-b56960d9e21e
      :rdf_type: http://www.assero.co.uk/ISO11179Concepts#ConceptSystemNode
      :pref_label: Record
      :description: Qualifiers used to define additional attributes of the observation
        record as a whole (rather than describing a particular variable within a record).
        Examples include --REASND, AESLIFE, and all other SAE flag variables in the
        AE domain; AGE, SEX, and RACE in the DM domain; and --BLFL, --POS, --LOC,
        --SPEC, and --NAM in a Findings domain.
      :narrower: []
    :is_a: http://www.s-cubed.dk/CAR#bc7845e67c63c354e69a957bab304d72da2f9fb7
  - :id: aHR0cDovL3d3dy5jZGlzYy5vcmcvU0RUTV9NT0RFTF9FVkVOVFMvVjEjQ0xfLS1TQ0FU
    :uri: http://www.cdisc.org/SDTM_MODEL_EVENTS/V1#CL_--SCAT
    :rdf_type: http://www.assero.co.uk/Tabulation#SdtmClassVariable
    :label: Subcategory
    :rule: ''
    :ordinal: 36
    :name: "--SCAT"
    :prefixed: true
    :description: Used to define a further categorization of --CAT values.
    :typed_as:
      :id: aHR0cDovL3d3dy5hc3Nlcm8uY28udWsvQ1NOI2QyZjJiYmViLThmNzktNGZiMS1iMTkwLWRkODY0ZDI5ZjA4MA==
      :uri: http://www.assero.co.uk/CSN#d2f2bbeb-8f79-4fb1-b190-dd864d29f080
      :rdf_type: http://www.assero.co.uk/ISO11179Concepts#ConceptSystemNode
      :pref_label: Character
      :description: Character datatype
      :narrower: []
    :classified_as:
      :id: aHR0cDovL3d3dy5hc3Nlcm8uY28udWsvQ1NOIzlmYjI5ZjhiLTUwNWEtNGM0Zi1iNTUwLTE3NWZiZmVjOTMyZA==
      :uri: http://www.assero.co.uk/CSN#9fb29f8b-505a-4c4f-b550-175fbfec932d
      :rdf_type: http://www.assero.co.uk/ISO11179Concepts#ConceptSystemNode
      :pref_label: Grouping
      :description: Qualifiers used to group together a collection of observations
        within the same domain. Examples include --CAT and --SCAT.
      :narrower: []
    :is_a: http://www.s-cubed.dk/CAR#479a67983e739413da55faf0dc509f83fd5dea64
  - :id: aHR0cDovL3d3dy5jZGlzYy5vcmcvU0RUTV9NT0RFTF9FVkVOVFMvVjEjQ0xfLS1SRUw=
    :uri: http://www.cdisc.org/SDTM_MODEL_EVENTS/V1#CL_--REL
    :rdf_type: http://www.assero.co.uk/Tabulation#SdtmClassVariable
    :label: Causality
    :rule: ''
    :ordinal: 47
    :name: "--REL"
    :prefixed: true
    :description: Records the investigator's opinion as to the causality of the event
      to the treatment. ICH E2A and E2B examples include NOT RELATED, UNLIKELY RELATED,
      POSSIBLY RELATED, RELATED.
    :typed_as:
      :id: aHR0cDovL3d3dy5hc3Nlcm8uY28udWsvQ1NOI2QyZjJiYmViLThmNzktNGZiMS1iMTkwLWRkODY0ZDI5ZjA4MA==
      :uri: http://www.assero.co.uk/CSN#d2f2bbeb-8f79-4fb1-b190-dd864d29f080
      :rdf_type: http://www.assero.co.uk/ISO11179Concepts#ConceptSystemNode
      :pref_label: Character
      :description: Character datatype
      :narrower: []
    :classified_as:
      :id: aHR0cDovL3d3dy5hc3Nlcm8uY28udWsvQ1NOIzRiYjc1NzhjLTY3MDUtNGQyZS05M2Q2LWI1Njk2MGQ5ZTIxZQ==
      :uri: http://www.assero.co.uk/CSN#4bb7578c-6705-4d2e-93d6-b56960d9e21e
      :rdf_type: http://www.assero.co.uk/ISO11179Concepts#ConceptSystemNode
      :pref_label: Record
      :description: Qualifiers used to define additional attributes of the observation
        record as a whole (rather than describing a particular variable within a record).
        Examples include --REASND, AESLIFE, and all other SAE flag variables in the
        AE domain; AGE, SEX, and RACE in the DM domain; and --BLFL, --POS, --LOC,
        --SPEC, and --NAM in a Findings domain.
      :narrower: []
    :is_a: 
  - :id: aHR0cDovL3d3dy5jZGlzYy5vcmcvU0RUTV9NT0RFTF9FVkVOVFMvVjEjQ0xfLS1PQ0NVUg==
    :uri: http://www.cdisc.org/SDTM_MODEL_EVENTS/V1#CL_--OCCUR
    :rdf_type: http://www.assero.co.uk/Tabulation#SdtmClassVariable
    :label: Occurrence
    :rule: ''
    :ordinal: 38
    :name: "--OCCUR"
    :prefixed: true
    :description: Used to record whether a pre-specified event occurred when information
      about the occurrence of a specific event is solicited.
    :typed_as:
      :id: aHR0cDovL3d3dy5hc3Nlcm8uY28udWsvQ1NOI2QyZjJiYmViLThmNzktNGZiMS1iMTkwLWRkODY0ZDI5ZjA4MA==
      :uri: http://www.assero.co.uk/CSN#d2f2bbeb-8f79-4fb1-b190-dd864d29f080
      :rdf_type: http://www.assero.co.uk/ISO11179Concepts#ConceptSystemNode
      :pref_label: Character
      :description: Character datatype
      :narrower: []
    :classified_as:
      :id: aHR0cDovL3d3dy5hc3Nlcm8uY28udWsvQ1NOIzRiYjc1NzhjLTY3MDUtNGQyZS05M2Q2LWI1Njk2MGQ5ZTIxZQ==
      :uri: http://www.assero.co.uk/CSN#4bb7578c-6705-4d2e-93d6-b56960d9e21e
      :rdf_type: http://www.assero.co.uk/ISO11179Concepts#ConceptSystemNode
      :pref_label: Record
      :description: Qualifiers used to define additional attributes of the observation
        record as a whole (rather than describing a particular variable within a record).
        Examples include --REASND, AESLIFE, and all other SAE flag variables in the
        AE domain; AGE, SEX, and RACE in the DM domain; and --BLFL, --POS, --LOC,
        --SPEC, and --NAM in a Findings domain.
      :narrower: []
    :is_a: 
  - :id: aHR0cDovL3d3dy5jZGlzYy5vcmcvU0RUTV9NT0RFTF9FVkVOVFMvVjEjQ0xfLS1BQ04=
    :uri: http://www.cdisc.org/SDTM_MODEL_EVENTS/V1#CL_--ACN
    :rdf_type: http://www.assero.co.uk/Tabulation#SdtmClassVariable
    :label: Action Taken with Study Treatment
    :rule: ''
    :ordinal: 45
    :name: "--ACN"
    :prefixed: true
    :description: 'Describes changes made to the study treatment as a result of the
      event. Examples: DOSE INCREASED, DOSE NOT CHANGED.'
    :typed_as:
      :id: aHR0cDovL3d3dy5hc3Nlcm8uY28udWsvQ1NOI2QyZjJiYmViLThmNzktNGZiMS1iMTkwLWRkODY0ZDI5ZjA4MA==
      :uri: http://www.assero.co.uk/CSN#d2f2bbeb-8f79-4fb1-b190-dd864d29f080
      :rdf_type: http://www.assero.co.uk/ISO11179Concepts#ConceptSystemNode
      :pref_label: Character
      :description: Character datatype
      :narrower: []
    :classified_as:
      :id: aHR0cDovL3d3dy5hc3Nlcm8uY28udWsvQ1NOIzRiYjc1NzhjLTY3MDUtNGQyZS05M2Q2LWI1Njk2MGQ5ZTIxZQ==
      :uri: http://www.assero.co.uk/CSN#4bb7578c-6705-4d2e-93d6-b56960d9e21e
      :rdf_type: http://www.assero.co.uk/ISO11179Concepts#ConceptSystemNode
      :pref_label: Record
      :description: Qualifiers used to define additional attributes of the observation
        record as a whole (rather than describing a particular variable within a record).
        Examples include --REASND, AESLIFE, and all other SAE flag variables in the
        AE domain; AGE, SEX, and RACE in the DM domain; and --BLFL, --POS, --LOC,
        --SPEC, and --NAM in a Findings domain.
      :narrower: []
    :is_a: http://www.s-cubed.dk/CAR#485290959383eee39c093e50e84fdc851ac37a32
  - :id: aHR0cDovL3d3dy5jZGlzYy5vcmcvU0RUTV9NT0RFTF9FVkVOVFMvVjEjQ0xfLS1NT0RJRlk=
    :uri: http://www.cdisc.org/SDTM_MODEL_EVENTS/V1#CL_--MODIFY
    :rdf_type: http://www.assero.co.uk/Tabulation#SdtmClassVariable
    :label: Modified Reported Term
    :rule: ''
    :ordinal: 33
    :name: "--MODIFY"
    :prefixed: true
    :description: If the value for --TRT is modified for coding purposes, then the
      modified text is placed here.
    :typed_as:
      :id: aHR0cDovL3d3dy5hc3Nlcm8uY28udWsvQ1NOI2QyZjJiYmViLThmNzktNGZiMS1iMTkwLWRkODY0ZDI5ZjA4MA==
      :uri: http://www.assero.co.uk/CSN#d2f2bbeb-8f79-4fb1-b190-dd864d29f080
      :rdf_type: http://www.assero.co.uk/ISO11179Concepts#ConceptSystemNode
      :pref_label: Character
      :description: Character datatype
      :narrower: []
    :classified_as:
      :id: aHR0cDovL3d3dy5hc3Nlcm8uY28udWsvQ1NOIzg2Y2Q2MWU2LWQ0OGMtNGU0Mi1iOTk0LWJlZTM1ZTIzNTFmZQ==
      :uri: http://www.assero.co.uk/CSN#86cd61e6-d48c-4e42-b994-bee35e2351fe
      :rdf_type: http://www.assero.co.uk/ISO11179Concepts#ConceptSystemNode
      :pref_label: None
      :description: No role assigned
      :narrower: []
    :is_a: 
  - :id: aHR0cDovL3d3dy5jZGlzYy5vcmcvU0RUTV9NT0RFTF9FVkVOVFMvVjEjQ0xfLS1DT05UUlQ=
    :uri: http://www.cdisc.org/SDTM_MODEL_EVENTS/V1#CL_--CONTRT
    :rdf_type: http://www.assero.co.uk/Tabulation#SdtmClassVariable
    :label: Concomitant or Additional Trtmnt Given
    :rule: ''
    :ordinal: 59
    :name: "--CONTRT"
    :prefixed: true
    :description: Was another treatment given because of the occurrence of the event?
      Valid values are 'Y' and 'N'.
    :typed_as:
      :id: aHR0cDovL3d3dy5hc3Nlcm8uY28udWsvQ1NOI2QyZjJiYmViLThmNzktNGZiMS1iMTkwLWRkODY0ZDI5ZjA4MA==
      :uri: http://www.assero.co.uk/CSN#d2f2bbeb-8f79-4fb1-b190-dd864d29f080
      :rdf_type: http://www.assero.co.uk/ISO11179Concepts#ConceptSystemNode
      :pref_label: Character
      :description: Character datatype
      :narrower: []
    :classified_as:
      :id: aHR0cDovL3d3dy5hc3Nlcm8uY28udWsvQ1NOIzRiYjc1NzhjLTY3MDUtNGQyZS05M2Q2LWI1Njk2MGQ5ZTIxZQ==
      :uri: http://www.assero.co.uk/CSN#4bb7578c-6705-4d2e-93d6-b56960d9e21e
      :rdf_type: http://www.assero.co.uk/ISO11179Concepts#ConceptSystemNode
      :pref_label: Record
      :description: Qualifiers used to define additional attributes of the observation
        record as a whole (rather than describing a particular variable within a record).
        Examples include --REASND, AESLIFE, and all other SAE flag variables in the
        AE domain; AGE, SEX, and RACE in the DM domain; and --BLFL, --POS, --LOC,
        --SPEC, and --NAM in a Findings domain.
      :narrower: []
    :is_a: 
  - :id: aHR0cDovL3d3dy5jZGlzYy5vcmcvU0RUTV9NT0RFTF9FVkVOVFMvVjEjQ0xfLS1TSE9TUA==
    :uri: http://www.cdisc.org/SDTM_MODEL_EVENTS/V1#CL_--SHOSP
    :rdf_type: http://www.assero.co.uk/Tabulation#SdtmClassVariable
    :label: Requires or Prolongs Hospitalization
    :rule: ''
    :ordinal: 55
    :name: "--SHOSP"
    :prefixed: true
    :description: Did the event require or prolong hospitalization? Valid values are
      'Y' and 'N'.
    :typed_as:
      :id: aHR0cDovL3d3dy5hc3Nlcm8uY28udWsvQ1NOI2QyZjJiYmViLThmNzktNGZiMS1iMTkwLWRkODY0ZDI5ZjA4MA==
      :uri: http://www.assero.co.uk/CSN#d2f2bbeb-8f79-4fb1-b190-dd864d29f080
      :rdf_type: http://www.assero.co.uk/ISO11179Concepts#ConceptSystemNode
      :pref_label: Character
      :description: Character datatype
      :narrower: []
    :classified_as:
      :id: aHR0cDovL3d3dy5hc3Nlcm8uY28udWsvQ1NOIzRiYjc1NzhjLTY3MDUtNGQyZS05M2Q2LWI1Njk2MGQ5ZTIxZQ==
      :uri: http://www.assero.co.uk/CSN#4bb7578c-6705-4d2e-93d6-b56960d9e21e
      :rdf_type: http://www.assero.co.uk/ISO11179Concepts#ConceptSystemNode
      :pref_label: Record
      :description: Qualifiers used to define additional attributes of the observation
        record as a whole (rather than describing a particular variable within a record).
        Examples include --REASND, AESLIFE, and all other SAE flag variables in the
        AE domain; AGE, SEX, and RACE in the DM domain; and --BLFL, --POS, --LOC,
        --SPEC, and --NAM in a Findings domain.
      :narrower: []
    :is_a: http://www.s-cubed.dk/CAR#3239c890f4b1b44ea81233e5766557a1008c0b6b
  - :id: aHR0cDovL3d3dy5jZGlzYy5vcmcvU0RUTV9NT0RFTF9FVkVOVFMvVjEjQ0xfLS1TT0Q=
    :uri: http://www.cdisc.org/SDTM_MODEL_EVENTS/V1#CL_--SOD
    :rdf_type: http://www.assero.co.uk/Tabulation#SdtmClassVariable
    :label: Occurred with Overdose
    :rule: ''
    :ordinal: 57
    :name: "--SOD"
    :prefixed: true
    :description: Did the event occur with an overdose? Valid values are 'Y' and 'N'.
    :typed_as:
      :id: aHR0cDovL3d3dy5hc3Nlcm8uY28udWsvQ1NOI2QyZjJiYmViLThmNzktNGZiMS1iMTkwLWRkODY0ZDI5ZjA4MA==
      :uri: http://www.assero.co.uk/CSN#d2f2bbeb-8f79-4fb1-b190-dd864d29f080
      :rdf_type: http://www.assero.co.uk/ISO11179Concepts#ConceptSystemNode
      :pref_label: Character
      :description: Character datatype
      :narrower: []
    :classified_as:
      :id: aHR0cDovL3d3dy5hc3Nlcm8uY28udWsvQ1NOIzRiYjc1NzhjLTY3MDUtNGQyZS05M2Q2LWI1Njk2MGQ5ZTIxZQ==
      :uri: http://www.assero.co.uk/CSN#4bb7578c-6705-4d2e-93d6-b56960d9e21e
      :rdf_type: http://www.assero.co.uk/ISO11179Concepts#ConceptSystemNode
      :pref_label: Record
      :description: Qualifiers used to define additional attributes of the observation
        record as a whole (rather than describing a particular variable within a record).
        Examples include --REASND, AESLIFE, and all other SAE flag variables in the
        AE domain; AGE, SEX, and RACE in the DM domain; and --BLFL, --POS, --LOC,
        --SPEC, and --NAM in a Findings domain.
      :narrower: []
    :is_a: 
  - :id: aHR0cDovL3d3dy5jZGlzYy5vcmcvU0RUTV9NT0RFTF9FVkVOVFMvVjEjQ0xfLS1TQ0FO
    :uri: http://www.cdisc.org/SDTM_MODEL_EVENTS/V1#CL_--SCAN
    :rdf_type: http://www.assero.co.uk/Tabulation#SdtmClassVariable
    :label: Involves Cancer
    :rule: ''
    :ordinal: 51
    :name: "--SCAN"
    :prefixed: true
    :description: Was the event associated with the development of cancer? Valid values
      are 'Y' and 'N'.
    :typed_as:
      :id: aHR0cDovL3d3dy5hc3Nlcm8uY28udWsvQ1NOI2QyZjJiYmViLThmNzktNGZiMS1iMTkwLWRkODY0ZDI5ZjA4MA==
      :uri: http://www.assero.co.uk/CSN#d2f2bbeb-8f79-4fb1-b190-dd864d29f080
      :rdf_type: http://www.assero.co.uk/ISO11179Concepts#ConceptSystemNode
      :pref_label: Character
      :description: Character datatype
      :narrower: []
    :classified_as:
      :id: aHR0cDovL3d3dy5hc3Nlcm8uY28udWsvQ1NOIzRiYjc1NzhjLTY3MDUtNGQyZS05M2Q2LWI1Njk2MGQ5ZTIxZQ==
      :uri: http://www.assero.co.uk/CSN#4bb7578c-6705-4d2e-93d6-b56960d9e21e
      :rdf_type: http://www.assero.co.uk/ISO11179Concepts#ConceptSystemNode
      :pref_label: Record
      :description: Qualifiers used to define additional attributes of the observation
        record as a whole (rather than describing a particular variable within a record).
        Examples include --REASND, AESLIFE, and all other SAE flag variables in the
        AE domain; AGE, SEX, and RACE in the DM domain; and --BLFL, --POS, --LOC,
        --SPEC, and --NAM in a Findings domain.
      :narrower: []
    :is_a: 
  - :id: aHR0cDovL3d3dy5jZGlzYy5vcmcvU0RUTV9NT0RFTF9FVkVOVFMvVjEjQ0xfLS1TRElTQUI=
    :uri: http://www.cdisc.org/SDTM_MODEL_EVENTS/V1#CL_--SDISAB
    :rdf_type: http://www.assero.co.uk/Tabulation#SdtmClassVariable
    :label: Persist or Signif Disability/Incapacity
    :rule: ''
    :ordinal: 53
    :name: "--SDISAB"
    :prefixed: true
    :description: Did the event result in persistent or significant disability/incapacity?
      Valid values are 'Y' and 'N'.
    :typed_as:
      :id: aHR0cDovL3d3dy5hc3Nlcm8uY28udWsvQ1NOI2QyZjJiYmViLThmNzktNGZiMS1iMTkwLWRkODY0ZDI5ZjA4MA==
      :uri: http://www.assero.co.uk/CSN#d2f2bbeb-8f79-4fb1-b190-dd864d29f080
      :rdf_type: http://www.assero.co.uk/ISO11179Concepts#ConceptSystemNode
      :pref_label: Character
      :description: Character datatype
      :narrower: []
    :classified_as:
      :id: aHR0cDovL3d3dy5hc3Nlcm8uY28udWsvQ1NOIzRiYjc1NzhjLTY3MDUtNGQyZS05M2Q2LWI1Njk2MGQ5ZTIxZQ==
      :uri: http://www.assero.co.uk/CSN#4bb7578c-6705-4d2e-93d6-b56960d9e21e
      :rdf_type: http://www.assero.co.uk/ISO11179Concepts#ConceptSystemNode
      :pref_label: Record
      :description: Qualifiers used to define additional attributes of the observation
        record as a whole (rather than describing a particular variable within a record).
        Examples include --REASND, AESLIFE, and all other SAE flag variables in the
        AE domain; AGE, SEX, and RACE in the DM domain; and --BLFL, --POS, --LOC,
        --SPEC, and --NAM in a Findings domain.
      :narrower: []
    :is_a: 
  - :id: aHR0cDovL3d3dy5jZGlzYy5vcmcvU0RUTV9NT0RFTF9FVkVOVFMvVjEjQ0xfLS1UT1g=
    :uri: http://www.cdisc.org/SDTM_MODEL_EVENTS/V1#CL_--TOX
    :rdf_type: http://www.assero.co.uk/Tabulation#SdtmClassVariable
    :label: Toxicity
    :rule: ''
    :ordinal: 60
    :name: "--TOX"
    :prefixed: true
    :description: 'Description of toxicity quantified by --TOXGR such as NCI CTCAE
      Short Name. Examples: HYPERCALCEMIA, HYPOCALCEMIA. Sponsor should specify which
      scale and version is used in the Sponsor Comments column of the Define.xml document.'
    :typed_as:
      :id: aHR0cDovL3d3dy5hc3Nlcm8uY28udWsvQ1NOI2QyZjJiYmViLThmNzktNGZiMS1iMTkwLWRkODY0ZDI5ZjA4MA==
      :uri: http://www.assero.co.uk/CSN#d2f2bbeb-8f79-4fb1-b190-dd864d29f080
      :rdf_type: http://www.assero.co.uk/ISO11179Concepts#ConceptSystemNode
      :pref_label: Character
      :description: Character datatype
      :narrower: []
    :classified_as:
      :id: aHR0cDovL3d3dy5hc3Nlcm8uY28udWsvQ1NOIzg2Y2Q2MWU2LWQ0OGMtNGU0Mi1iOTk0LWJlZTM1ZTIzNTFmZQ==
      :uri: http://www.assero.co.uk/CSN#86cd61e6-d48c-4e42-b994-bee35e2351fe
      :rdf_type: http://www.assero.co.uk/ISO11179Concepts#ConceptSystemNode
      :pref_label: None
      :description: No role assigned
      :narrower: []
    :is_a: 
