---
:status: :updated
:results:
  :Last Change Date:
    :status: :updated
    :previous: 2008-11-12 00:00:00.000000000 +00:00
    :current: 2012-07-16 00:00:00.000000000 +01:00
    :difference: |
      <div class="diff">
        <ul>
          <li class="del"><del>20<strong>08-11-12</strong> 00:00:00 +0<strong>0</strong>00</del></li>
          <li class="ins"><ins>20<strong>12-07-16</strong> 00:00:00 +0<strong>1</strong>00</ins></li>
        </ul>
      </div>
  :Explanatory Comment:
    :status: :no_change
    :previous: ''
    :current: ''
    :difference: <div class="diff"></div>
  :Creation Date:
    :status: :updated
    :previous: 2008-11-12 00:00:00.000000000 +00:00
    :current: 2012-07-16 00:00:00.000000000 +01:00
    :difference: |
      <div class="diff">
        <ul>
          <li class="del"><del>20<strong>08-11-12</strong> 00:00:00 +0<strong>0</strong>00</del></li>
          <li class="ins"><ins>20<strong>12-07-16</strong> 00:00:00 +0<strong>1</strong>00</ins></li>
        </ul>
      </div>
  :Change Description:
    :status: :no_change
    :previous: ''
    :current: ''
    :difference: <div class="diff"></div>
  :origin:
    :status: :no_change
    :previous: ''
    :current: ''
    :difference: <div class="diff"></div>
  :Ordinal:
    :status: :no_change
    :previous: 1
    :current: 1
    :difference: <div class="diff"></div>
  :Rule:
    :status: :no_change
    :previous: ''
    :current: ''
    :difference: <div class="diff"></div>
:children:
  http://www.assero.co.uk/MDRSdtmM/CDISC/V2#M-CDISC_SDTMMODEL_TAETORD:
    :status: :updated
    :datatype: Num
    :classification: Timing
    :sub_classification: ''
    :ordinal: 14
    :name: TAETORD
    :prefixed: false
    :description: "<html>Number that gives the planned order of the Element within
      the Arm (see Trial Arms, <u>Section 3.2.2 </u>).</html>"
    :rule: ''
  http://www.assero.co.uk/MDRSdtmM/CDISC/V2#M-CDISC_SDTMMODEL_xxDY:
    :status: :updated
    :datatype: Num
    :classification: Timing
    :sub_classification: ''
    :ordinal: 19
    :name: "--DY"
    :prefixed: true
    :description: Actual study day of visit/collection/exam expressed in integer days
      relative to the sponsor-defined RFSTDTC in Demographics.
    :rule: ''
  http://www.assero.co.uk/MDRSdtmM/CDISC/V2#M-CDISC_SDTMMODEL_xxORNRLO:
    :status: :no_change
    :datatype: Char
    :classification: Qualifier
    :sub_classification: Variable Qualifier
    :ordinal: 10
    :name: "--ORNRLO"
    :prefixed: true
    :description: Lower end of normal range or reference range for results stored
      in --ORRES.
    :rule: ''
  http://www.assero.co.uk/MDRSdtmM/CDISC/V2#M-CDISC_SDTMMODEL_xxSPID:
    :status: :updated
    :datatype: Char
    :classification: Identifier
    :sub_classification: ''
    :ordinal: 8
    :name: "--SPID"
    :prefixed: true
    :description: 'Sponsor-defined identifier. Example: pre-printed line identifier
      on a Concomitant Medications page.'
    :rule: ''
  http://www.assero.co.uk/MDRSdtmM/CDISC/V2#M-CDISC_SDTMMODEL_RELTYPE:
    :status: :no_change
    :datatype: Char
    :classification: Qualifier
    :sub_classification: Record Qualifier
    :ordinal: 4
    :name: RELTYPE
    :prefixed: false
    :description: Identifies the hierarchical level of the records in the relationship.
      Values should be either ONE or MANY. However, values are only necessary when
      identifying a relationship between datasets.
    :rule: ''
  http://www.assero.co.uk/MDRSdtmM/CDISC/V2#M-CDISC_SDTMMODEL_xxANTREG:
    :status: :created
    :datatype: Char
    :classification: Qualifier
    :sub_classification: Variable Qualifier
    :ordinal: 26
    :name: "--ANTREG"
    :prefixed: true
    :description: 'Defines the specific anatomical or biological region of a tissue,
      organ specimen or the region from which the specimen is obtained, as defined
      in the protocol, such as a section or part of what is described in the --SPEC
      variable. Examples: CORTEX, MEDULLA, MUCOSA'
    :rule: ''
  http://www.assero.co.uk/MDRSdtmM/CDISC/V2#M-CDISC_SDTMMODEL_xxSTNRHI:
    :status: :no_change
    :datatype: Num
    :classification: Qualifier
    :sub_classification: Variable Qualifier
    :ordinal: 16
    :name: "--STNRHI"
    :prefixed: true
    :description: Upper end of normal range or reference range for standardized results
      (e.g., --STRESC, --STRESN) represented in standardized units (--STRESU).
    :rule: ''
  http://www.assero.co.uk/MDRSdtmM/CDISC/V2#M-CDISC_SDTMMODEL_xxSOC:
    :status: :created
    :datatype: Char
    :classification: Qualifier
    :sub_classification: Variable Qualifier
    :ordinal: 19
    :name: "--SOC"
    :prefixed: true
    :description: MedDRA primary System Organ Class associated with the event.
    :rule: ''
  http://www.assero.co.uk/MDRSdtmM/CDISC/V2#M-CDISC_SDTMMODEL_xxEVLINT:
    :status: :updated
    :datatype: Char
    :classification: Timing
    :sub_classification: ''
    :ordinal: 30
    :name: "--EVLINT"
    :prefixed: true
    :description: 'Duration of  interval associated with an observation such as a
      finding --TESTCD, represented in ISO 8601 character format. Example: -P2M to
      represent a period of the past 2 months as the evaluation interval for a question
      from a questionnaire such as SF-36.'
    :rule: ''
  http://www.assero.co.uk/MDRSdtmM/CDISC/V2#M-CDISC_SDTMMODEL_SETCD:
    :status: :created
    :datatype: Char
    :classification: Qualifier
    :sub_classification: Record Qualifier
    :ordinal: 25
    :name: SETCD
    :prefixed: false
    :description: Short name of a specific Trial Set (see Table 3.2.4), as defined
      by the sponsor. Maximum of 8 characters. This represents the code for the Trial
      Set for which parameters are being submitted.
    :rule: ''
  http://www.assero.co.uk/MDRSdtmM/CDISC/V2#M-CDISC_SDTMMODEL_xxTPTREF:
    :status: :updated
    :datatype: Char
    :classification: Timing
    :sub_classification: ''
    :ordinal: 26
    :name: "--TPTREF"
    :prefixed: true
    :description: 'Description of the fixed reference point referred to by --ELTM,
      --TPTNUM, and --TPT. Examples: PREVIOUS DOSE, PREVIOUS MEAL.'
    :rule: ''
  http://www.assero.co.uk/MDRSdtmM/CDISC/V2#M-CDISC_SDTMMODEL_xxFAST:
    :status: :updated
    :datatype: Char
    :classification: Qualifier
    :sub_classification: Record Qualifier
    :ordinal: 37
    :name: "--FAST"
    :prefixed: true
    :description: Indicator used to identify fasting status. Valid values include
      Y, N, U or null if not relevant.
    :rule: ''
  http://www.assero.co.uk/MDRSdtmM/CDISC/V2#M-CDISC_SDTMMODEL_xxCAT:
    :status: :updated
    :datatype: Char
    :classification: Qualifier
    :sub_classification: Grouping Qualifier
    :ordinal: 4
    :name: "--CAT"
    :prefixed: true
    :description: Used to define a category of topic-variable values.
    :rule: ''
  http://www.assero.co.uk/MDRSdtmM/CDISC/V2#M-CDISC_SDTMMODEL_xxSTTPT:
    :status: :updated
    :datatype: Char
    :classification: Timing
    :sub_classification: ''
    :ordinal: 32
    :name: "--STTPT"
    :prefixed: true
    :description: 'Description or date/time in ISO 8601 or other character format
      of the sponsor-defined reference point referred to by --STRTPT. Examples: "2003-12-15"
      or "VISIT 1".'
    :rule: ''
  http://www.assero.co.uk/MDRSdtmM/CDISC/V2#M-CDISC_SDTMMODEL_xxDUR:
    :status: :updated
    :datatype: Char
    :classification: Timing
    :sub_classification: ''
    :ordinal: 22
    :name: "--DUR"
    :prefixed: true
    :description: Collected duration of an event, intervention, or finding represented
      in ISO 8601 character format. Used only if collected on the CRF and not derived.
    :rule: ''
  http://www.assero.co.uk/MDRSdtmM/CDISC/V2#M-CDISC_SDTMMODEL_xxENRL:
    :status: :no_change
    :datatype: Char
    :classification: Rule
    :sub_classification: ''
    :ordinal: 4
    :name: "--ENRL"
    :prefixed: true
    :description: Expresses rule for ending the Element. Either TEENRL or TEDUR must
      be present for each Element.
    :rule: ''
  http://www.assero.co.uk/MDRSdtmM/CDISC/V2#M-CDISC_SDTMMODEL_DOMAIN:
    :status: :updated
    :datatype: Char
    :classification: Identifier
    :sub_classification: ''
    :ordinal: 2
    :name: DOMAIN
    :prefixed: false
    :description: Two-character abbreviation for the domain most relevant to the observation.
      The Domain abbreviation is also used as a prefix for variables to ensure uniqueness
      when datasets are merged.
    :rule: ''
  http://www.assero.co.uk/MDRSdtmM/CDISC/V2#M-CDISC_SDTMMODEL_xxLNKGRP:
    :status: :created
    :datatype: Char
    :classification: Identifier
    :sub_classification: ''
    :ordinal: 10
    :name: "--LNKGRP"
    :prefixed: true
    :description: 'A grouping identifier used to identify a group of assessment results
      in one domain that are evaluated, as a group, and contribute to a (summary)
      result in another domain. This will usually be a many-to-one relationship. For
      example: Multiple tumor measurements/assessments will contribute to a single
      response to therapy determination record.'
    :rule: ''
  http://www.assero.co.uk/MDRSdtmM/CDISC/V2#M-CDISC_SDTMMODEL_xxSMIE:
    :status: :updated
    :datatype: Char
    :classification: Qualifier
    :sub_classification: Record Qualifier
    :ordinal: 37
    :name: "--SMIE"
    :prefixed: true
    :description: Do additional categories for seriousness apply? Valid values are
      "Y" and "N".
    :rule: ''
  http://www.assero.co.uk/MDRSdtmM/CDISC/V2#M-CDISC_SDTMMODEL_ELEMENT:
    :status: :updated
    :datatype: Char
    :classification: Qualifier
    :sub_classification: Record Qualifier
    :ordinal: 35
    :name: ELEMENT
    :prefixed: false
    :description: The name of the Element. If ETCD has a value of “UNPLAN” then ELEMENT
      should be Null.
    :rule: ''
  http://www.assero.co.uk/MDRSdtmM/CDISC/V2#M-CDISC_SDTMMODEL_IDVAR:
    :status: :updated
    :datatype: Char
    :classification: Qualifier
    :sub_classification: Record Qualifier
    :ordinal: 29
    :name: IDVAR
    :prefixed: false
    :description: Identifying variable in the parent dataset that identifies the record(s)
      to which the comment applies. Examples AESEQ or CMGRPID. Used only when individual
      comments are related to domain records. Null for comments collected on separate
      CRFs.
    :rule: ''
  http://www.assero.co.uk/MDRSdtmM/CDISC/V2#M-CDISC_SDTMMODEL_xxSTRF:
    :status: :updated
    :datatype: Char
    :classification: Timing
    :sub_classification: ''
    :ordinal: 28
    :name: "--STRF"
    :prefixed: true
    :description: Identifies the start of the observation as being before, during,
      or after the sponsor-defined reference period. The sponsor-defined reference
      period is a continuous period of time defined by a discrete starting point and
      a discrete ending point represented by RFSTDTC and RFENDTC in Demographics.
    :rule: ''
  http://www.assero.co.uk/MDRSdtmM/CDISC/V2#M-CDISC_SDTMMODEL_VISITDY:
    :status: :updated
    :datatype: Num
    :classification: Timing
    :sub_classification: ''
    :ordinal: 13
    :name: VISITDY
    :prefixed: false
    :description: Planned study day of VISIT. Should be an integer.
    :rule: ''
  http://www.assero.co.uk/MDRSdtmM/CDISC/V2#M-CDISC_SDTMMODEL_DTHDTC:
    :status: :created
    :datatype: Char
    :classification: Qualifier
    :sub_classification: Record Qualifier
    :ordinal: 8
    :name: DTHDTC
    :prefixed: false
    :description: Date/time of death for any subject who died, in ISO 8601 format.
      Should represent the date/time that is captured in the clinical-trial database.
    :rule: ''
  http://www.assero.co.uk/MDRSdtmM/CDISC/V2#M-CDISC_SDTMMODEL_xxOCCUR:
    :status: :updated
    :datatype: Char
    :classification: Qualifier
    :sub_classification: Record Qualifier
    :ordinal: 7
    :name: "--OCCUR"
    :prefixed: true
    :description: Used to record whether a pre-specified intervention occurred when
      information about the occurrence of a specific intervention is solicited.
    :rule: ''
  http://www.assero.co.uk/MDRSdtmM/CDISC/V2#M-CDISC_SDTMMODEL_xxINDC:
    :status: :no_change
    :datatype: Char
    :classification: Qualifier
    :sub_classification: Record Qualifier
    :ordinal: 10
    :name: "--INDC"
    :prefixed: true
    :description: Denotes the indication for the intervention (e.g., why the therapy
      was taken or administered).
    :rule: ''
  http://www.assero.co.uk/MDRSdtmM/CDISC/V2#M-CDISC_SDTMMODEL_RFSTDTC:
    :status: :no_change
    :datatype: Char
    :classification: Qualifier
    :sub_classification: Record Qualifier
    :ordinal: 2
    :name: RFSTDTC
    :prefixed: false
    :description: Reference Start Date/time for the subject in ISO 8601 character
      format. Usually equivalent to date/time when subject was first exposed to study
      treatment. Required for all randomized subjects; will be null for all subjects
      who did not meet the milestone the date requires, such as screen failures or
      unassigned subjects.
    :rule: ''
  http://www.assero.co.uk/MDRSdtmM/CDISC/V2#M-CDISC_SDTMMODEL_IDVARVAL:
    :status: :updated
    :datatype: Char
    :classification: Qualifier
    :sub_classification: Record Qualifier
    :ordinal: 30
    :name: IDVARVAL
    :prefixed: false
    :description: Value of identifying variable of the parent record(s). Null for
      comments collected on separate CRFs.
    :rule: ''
  http://www.assero.co.uk/MDRSdtmM/CDISC/V2#M-CDISC_SDTMMODEL_xxENDY:
    :status: :updated
    :datatype: Num
    :classification: Timing
    :sub_classification: ''
    :ordinal: 21
    :name: "--ENDY"
    :prefixed: true
    :description: Actual study day of end of observation expressed in integer days
      relative to the sponsor-defined RFSTDTC in Demographics.
    :rule: ''
  http://www.assero.co.uk/MDRSdtmM/CDISC/V2#M-CDISC_SDTMMODEL_xxACPTFL:
    :status: :created
    :datatype: Char
    :classification: Qualifier
    :sub_classification: Record Qualifier
    :ordinal: 41
    :name: "--ACPTFL"
    :prefixed: true
    :description: In cases where more than one assessor provides an evaluation of
      a result or response, this flag identifies the record that is considered, by
      an independent assessor, to be the accepted evaluation. Expected to be Y or
      null.
    :rule: ''
  http://www.assero.co.uk/MDRSdtmM/CDISC/V2#M-CDISC_SDTMMODEL_xxEVAL:
    :status: :updated
    :datatype: Char
    :classification: Qualifier
    :sub_classification: Record Qualifier
    :ordinal: 39
    :name: "--EVAL"
    :prefixed: true
    :description: 'Role of the person who provided the evaluation. Used only for results
      that are subjective (e.g., assigned by a person or a group). Examples: ADJUDICATION
      COMMITTEE, INDEPENDENT ASSESSOR, RADIOLOGIST.'
    :rule: ''
  http://www.assero.co.uk/MDRSdtmM/CDISC/V2#M-CDISC_SDTMMODEL_xxDETECT:
    :status: :created
    :datatype: Num
    :classification: Timing
    :sub_classification: ''
    :ordinal: 35
    :name: "--DETECT"
    :prefixed: true
    :description: The number of days from the start of dosing to the earliest detection
      of a condition or pathogen.
    :rule: ''
  http://www.assero.co.uk/MDRSdtmM/CDISC/V2#M-CDISC_SDTMMODEL_xxSTRTPT:
    :status: :updated
    :datatype: Char
    :classification: Timing
    :sub_classification: ''
    :ordinal: 31
    :name: "--STRTPT"
    :prefixed: true
    :description: Identifies the start of the observation as being before or after
      the sponsor-defined reference time point defined by variable --STTPT.
    :rule: ''
  http://www.assero.co.uk/MDRSdtmM/CDISC/V2#M-CDISC_SDTMMODEL_xxTEST:
    :status: :no_change
    :datatype: Char
    :classification: Qualifier
    :sub_classification: Synonym Qualifier
    :ordinal: 2
    :name: "--TEST"
    :prefixed: true
    :description: 'Long name For --TESTCD. Examples: Platelet, Systolic Blood Pressure,
      Summary (Min) RR Duration, Eye Examination.'
    :rule: ''
  http://www.assero.co.uk/MDRSdtmM/CDISC/V2#M-CDISC_SDTMMODEL_IECAT:
    :status: :updated
    :datatype: Char
    :classification: Qualifier
    :sub_classification: Grouping Qualifier
    :ordinal: 15
    :name: IECAT
    :prefixed: false
    :description: 'Used for categorization of the Inclusion/Exclusion Criterion: INCLUSION,
      EXCLUSION.'
    :rule: ''
  http://www.assero.co.uk/MDRSdtmM/CDISC/V2#M-CDISC_SDTMMODEL_xxSOCCD:
    :status: :created
    :datatype: Num
    :classification: Qualifier
    :sub_classification: Variable Qualifier
    :ordinal: 20
    :name: "--SOCCD"
    :prefixed: true
    :description: MedDRA primary System Organ Class code.
    :rule: ''
  http://www.assero.co.uk/MDRSdtmM/CDISC/V2#M-CDISC_SDTMMODEL_VISIT:
    :status: :updated
    :datatype: Char
    :classification: Timing
    :sub_classification: ''
    :ordinal: 12
    :name: VISIT
    :prefixed: false
    :description: Protocol-defined description of a clinical encounter.
    :rule: ''
  http://www.assero.co.uk/MDRSdtmM/CDISC/V2#M-CDISC_SDTMMODEL_xxREASEX:
    :status: :created
    :datatype: Char
    :classification: Qualifier
    :sub_classification: Record Qualifier
    :ordinal: 48
    :name: "--REASEX"
    :prefixed: true
    :description: Reason excluded from statistics. Used in conjunction with --EXCLFL
      when its value is Y. Not to be used with human clinical trials
    :rule: ''
  http://www.assero.co.uk/MDRSdtmM/CDISC/V2#M-CDISC_SDTMMODEL_xxORNRHI:
    :status: :no_change
    :datatype: Char
    :classification: Qualifier
    :sub_classification: Variable Qualifier
    :ordinal: 11
    :name: "--ORNRHI"
    :prefixed: true
    :description: Upper end of normal range or reference range for results stored
      in --ORRES.
    :rule: ''
  http://www.assero.co.uk/MDRSdtmM/CDISC/V2#M-CDISC_SDTMMODEL_xxENRF:
    :status: :updated
    :datatype: Char
    :classification: Timing
    :sub_classification: ''
    :ordinal: 29
    :name: "--ENRF"
    :prefixed: true
    :description: Identifies the end of the observation as being before, during or
      after the sponsor-defined reference period. The sponsor-defined reference period
      is a continuous period of time defined by a discrete starting point and a discrete
      ending point represented by RFSTDTC and RFENDTC in Demographics.
    :rule: ''
  http://www.assero.co.uk/MDRSdtmM/CDISC/V2#M-CDISC_SDTMMODEL_xxTPTNUM:
    :status: :updated
    :datatype: Num
    :classification: Timing
    :sub_classification: ''
    :ordinal: 24
    :name: "--TPTNUM"
    :prefixed: true
    :description: Numeric version of planned time point used in sorting.
    :rule: ''
  http://www.assero.co.uk/MDRSdtmM/CDISC/V2#M-CDISC_SDTMMODEL_xxSTNRC:
    :status: :no_change
    :datatype: Char
    :classification: Qualifier
    :sub_classification: Variable Qualifier
    :ordinal: 17
    :name: "--STNRC"
    :prefixed: true
    :description: 'Normal range or reference range for results stored in --STRESC
      that are character in ordinal or categorical scale. Example: Negative to Trace.'
    :rule: ''
  http://www.assero.co.uk/MDRSdtmM/CDISC/V2#M-CDISC_SDTMMODEL_xxDTC:
    :status: :updated
    :datatype: Char
    :classification: Timing
    :sub_classification: ''
    :ordinal: 16
    :name: "--DTC"
    :prefixed: true
    :description: Collection date and time of an observation represented in IS0 8601
      character format.
    :rule: ''
  http://www.assero.co.uk/MDRSdtmM/CDISC/V2#M-CDISC_SDTMMODEL_xxSCAT:
    :status: :no_change
    :datatype: Char
    :classification: Qualifier
    :sub_classification: Grouping Qualifier
    :ordinal: 5
    :name: "--SCAT"
    :prefixed: true
    :description: Used to define a further categorization of --CAT values.
    :rule: ''
  http://www.assero.co.uk/MDRSdtmM/CDISC/V2#M-CDISC_SDTMMODEL_xxSTDTC:
    :status: :updated
    :datatype: Char
    :classification: Timing
    :sub_classification: ''
    :ordinal: 17
    :name: "--STDTC"
    :prefixed: true
    :description: Start date/time of an observation represented in IS0 8601 character
      format.
    :rule: ''
  http://www.assero.co.uk/MDRSdtmM/CDISC/V2#M-CDISC_SDTMMODEL_EPOCH:
    :status: :updated
    :datatype: Char
    :classification: Timing
    :sub_classification: ''
    :ordinal: 15
    :name: EPOCH
    :prefixed: false
    :description: Epoch associated with the start date/time of the observation, or
      the date/time of collection if start date/time is not collected. (See Section
      3.2.2).
    :rule: ''
  http://www.assero.co.uk/MDRSdtmM/CDISC/V2#M-CDISC_SDTMMODEL_xxSTRESN:
    :status: :no_change
    :datatype: Num
    :classification: Qualifier
    :sub_classification: Result Qualifier
    :ordinal: 13
    :name: "--STRESN"
    :prefixed: true
    :description: Used for continuous or numeric results or findings in standard format;
      copied in numeric format from --STRESC. --STRESN should store all numeric test
      results or findings.
    :rule: ''
  http://www.assero.co.uk/MDRSdtmM/CDISC/V2#M-CDISC_SDTMMODEL_xxLEAD:
    :status: :created
    :datatype: Char
    :classification: Qualifier
    :sub_classification: Record Qualifier
    :ordinal: 34
    :name: "--LEAD"
    :prefixed: true
    :description: 'Lead or leads identified to capture the measurement for a test
      from an instrument. Examples: LEAD I, LEAD V2, LEAD CM5.'
    :rule: ''
  http://www.assero.co.uk/MDRSdtmM/CDISC/V2#M-CDISC_SDTMMODEL_xxLLTCD:
    :status: :created
    :datatype: Num
    :classification: Qualifier
    :sub_classification: Variable Qualifier
    :ordinal: 4
    :name: "--LLTCD"
    :prefixed: true
    :description: MedDRA Lowest Level Term code.
    :rule: ''
  http://www.assero.co.uk/MDRSdtmM/CDISC/V2#M-CDISC_SDTMMODEL_xxSEQ:
    :status: :updated
    :datatype: Num
    :classification: Identifier
    :sub_classification: ''
    :ordinal: 5
    :name: "--SEQ"
    :prefixed: true
    :description: Sequence number to ensure uniqueness of records within a dataset
      for a subject (or within a parameter, in the case of the Trial Summary domain).
      May be any valid number (including decimals) and does not have to start at 1.
    :rule: ''
  http://www.assero.co.uk/MDRSdtmM/CDISC/V2#M-CDISC_SDTMMODEL_xxVERS:
    :status: :updated
    :datatype: Char
    :classification: Qualifier
    :sub_classification: Record Qualifier
    :ordinal: 18
    :name: "--VERS"
    :prefixed: true
    :description: The number of this version of the Inclusion/Exclusion criteria.
      May be omitted if there is only one version.
    :rule: ''
  http://www.assero.co.uk/MDRSdtmM/CDISC/V2#M-CDISC_SDTMMODEL_xxMETHOD:
    :status: :updated
    :datatype: Char
    :classification: Qualifier
    :sub_classification: Record Qualifier
    :ordinal: 33
    :name: "--METHOD"
    :prefixed: true
    :description: 'Method of the test or examination. Examples: EIA (Enzyme Immunoassay),
      ELECTROPHORESIS, DIPSTICK.'
    :rule: ''
  http://www.assero.co.uk/MDRSdtmM/CDISC/V2#M-CDISC_SDTMMODEL_xxENTPT:
    :status: :updated
    :datatype: Char
    :classification: Timing
    :sub_classification: ''
    :ordinal: 34
    :name: "--ENTPT"
    :prefixed: true
    :description: 'Description or date/time in ISO 8601 or other character format
      of the sponsor-defined reference point referred to by --ENRTPT. Examples: "2003-12-25"
      or "VISIT 2".'
    :rule: ''
  http://www.assero.co.uk/MDRSdtmM/CDISC/V2#M-CDISC_SDTMMODEL_xxSPEC:
    :status: :no_change
    :datatype: Char
    :classification: Qualifier
    :sub_classification: Record Qualifier
    :ordinal: 25
    :name: "--SPEC"
    :prefixed: true
    :description: 'Defines the type of specimen used for a measurement. Examples:
      SERUM, PLASMA, URINE.'
    :rule: ''
  http://www.assero.co.uk/MDRSdtmM/CDISC/V2#M-CDISC_SDTMMODEL_xxNRIND:
    :status: :no_change
    :datatype: Char
    :classification: Qualifier
    :sub_classification: Variable Qualifier
    :ordinal: 18
    :name: "--NRIND"
    :prefixed: true
    :description: 'Used to indicate the value is outside the normal range or reference
      range. May be defined by --ORNRLO and --ORNRHI or other objective criteria.
      Examples: Y, N; HIGH, LOW; NORMAL; ABNORMAL.'
    :rule: ''
  http://www.assero.co.uk/MDRSdtmM/CDISC/V2#M-CDISC_SDTMMODEL_xxCSTATE:
    :status: :created
    :datatype: Char
    :classification: Qualifier
    :sub_classification: Record Qualifier
    :ordinal: 35
    :name: "--CSTATE"
    :prefixed: true
    :description: 'The consciousness state of the subject at the time of measurement.
      Examples: CONSCIOUS, SEMI-CONSCIOUS, UNCONSCIOUS'
    :rule: ''
  http://www.assero.co.uk/MDRSdtmM/CDISC/V2#M-CDISC_SDTMMODEL_xxRFTDTC:
    :status: :updated
    :datatype: Char
    :classification: Timing
    :sub_classification: ''
    :ordinal: 27
    :name: "--RFTDTC"
    :prefixed: true
    :description: Date/time for a fixed reference time point defined by --TPTREF in
      ISO 8601 character format.
    :rule: ''
  http://www.assero.co.uk/MDRSdtmM/CDISC/V2#M-CDISC_SDTMMODEL_xxBDSYCD:
    :status: :created
    :datatype: Num
    :classification: Qualifier
    :sub_classification: Variable Qualifier
    :ordinal: 18
    :name: "--BDSYCD"
    :prefixed: true
    :description: MedDRA System Organ Class code corresponding to --BODSYS assigned
      for analysis.
    :rule: ''
  http://www.assero.co.uk/MDRSdtmM/CDISC/V2#M-CDISC_SDTMMODEL_INVNAM:
    :status: :updated
    :datatype: Char
    :classification: Qualifier
    :sub_classification: Record Qualifier
    :ordinal: 12
    :name: INVNAM
    :prefixed: false
    :description: Name of the investigator for a site.
    :rule: ''
  http://www.assero.co.uk/MDRSdtmM/CDISC/V2#M-CDISC_SDTMMODEL_SEX:
    :status: :updated
    :datatype: Char
    :classification: Qualifier
    :sub_classification: Record Qualifier
    :ordinal: 16
    :name: SEX
    :prefixed: false
    :description: Sex of the subject.
    :rule: ''
  http://www.assero.co.uk/MDRSdtmM/CDISC/V2#M-CDISC_SDTMMODEL_xxACNOTH:
    :status: :updated
    :datatype: Char
    :classification: Qualifier
    :sub_classification: Record Qualifier
    :ordinal: 25
    :name: "--ACNOTH"
    :prefixed: true
    :description: Describes other actions taken as a result of the event that are
      unrelated to dose adjustments of study treatment.
    :rule: ''
  http://www.assero.co.uk/MDRSdtmM/CDISC/V2#M-CDISC_SDTMMODEL_xxSTRL:
    :status: :no_change
    :datatype: Char
    :classification: Rule
    :sub_classification: ''
    :ordinal: 3
    :name: "--STRL"
    :prefixed: true
    :description: Expresses rule for beginning the Element.
    :rule: ''
  http://www.assero.co.uk/MDRSdtmM/CDISC/V2#M-CDISC_SDTMMODEL_xxLOC:
    :status: :updated
    :datatype: Char
    :classification: Qualifier
    :sub_classification: Record Qualifier
    :ordinal: 22
    :name: "--LOC"
    :prefixed: true
    :description: 'Anatomical location of an intervention, such as an injection site.
      Example: ARM for an injection.'
    :rule: ''
  http://www.assero.co.uk/MDRSdtmM/CDISC/V2#M-CDISC_SDTMMODEL_xxDRVFL:
    :status: :updated
    :datatype: Char
    :classification: Qualifier
    :sub_classification: Record Qualifier
    :ordinal: 38
    :name: "--DRVFL"
    :prefixed: true
    :description: Used to indicate a derived record (e.g., a record that represents
      the average of other records such as a computed baseline). Should be Y or null.
    :rule: ''
  http://www.assero.co.uk/MDRSdtmM/CDISC/V2#M-CDISC_SDTMMODEL_ETHNIC:
    :status: :updated
    :datatype: Char
    :classification: Qualifier
    :sub_classification: Record Qualifier
    :ordinal: 18
    :name: ETHNIC
    :prefixed: false
    :description: The ethnicity of the subject. Sponsors should refer to “Collection
      of Race and Ethnicity Data in Clinical Trials” (FDA, September 2005) for guidance
      regarding the collection of ethnicity (http://www.fda.gov/cder/guidance/5656fnl.htm).
    :rule: ''
  http://www.assero.co.uk/MDRSdtmM/CDISC/V2#M-CDISC_SDTMMODEL_QORIG:
    :status: :updated
    :datatype: Char
    :classification: Qualifier
    :sub_classification: Record Qualifier
    :ordinal: 9
    :name: QORIG
    :prefixed: false
    :description: Since QVAL can represent a mixture of collected (on a CRF), derived,
      or assigned items, QORIG is used to indicate the origin of this data. Examples
      include CRF, ASSIGNED, or DERIVED.
    :rule: ''
  http://www.assero.co.uk/MDRSdtmM/CDISC/V2#M-CDISC_SDTMMODEL_xxLNKID:
    :status: :created
    :datatype: Char
    :classification: Identifier
    :sub_classification: ''
    :ordinal: 9
    :name: "--LNKID"
    :prefixed: true
    :description: 'Identifier used to link a feature (such as a tumor) initially recorded
      as a result in one findings domain to assessments of that feature in another
      findings domain. This may be a one-to-one or a one-to-many relationship. For
      Example: A single tumor may have multiple measurements/assessment performed
      at each study visit.'
    :rule: ''
  http://www.assero.co.uk/MDRSdtmM/CDISC/V2#M-CDISC_SDTMMODEL_RFPENDTC:
    :status: :created
    :datatype: Char
    :classification: Qualifier
    :sub_classification: Record Qualifier
    :ordinal: 7
    :name: RFPENDTC
    :prefixed: false
    :description: Date/time when subject ended participation or follow-up in a trial,
      in ISO 8601 character format. Should correspond to the last known date of contact.
    :rule: ''
  http://www.assero.co.uk/MDRSdtmM/CDISC/V2#M-CDISC_SDTMMODEL_xxTPT:
    :status: :updated
    :datatype: Char
    :classification: Timing
    :sub_classification: ''
    :ordinal: 23
    :name: "--TPT"
    :prefixed: true
    :description: Text description of time when a measurement or observation should
      be taken as defined in the protocol. This may be represented as an elapsed time
      relative to a fixed reference point, such as time of last dose. See --TPTNUM
      and --TPTREF.
    :rule: ''
  http://www.assero.co.uk/MDRSdtmM/CDISC/V2#M-CDISC_SDTMMODEL_xxSER:
    :status: :updated
    :datatype: Char
    :classification: Qualifier
    :sub_classification: Record Qualifier
    :ordinal: 23
    :name: "--SER"
    :prefixed: true
    :description: Is this is a serious event? Valid values are "Y" and "N".
    :rule: ''
  http://www.assero.co.uk/MDRSdtmM/CDISC/V2#M-CDISC_SDTMMODEL_xxSTAT:
    :status: :updated
    :datatype: Char
    :classification: Qualifier
    :sub_classification: Record Qualifier
    :ordinal: 8
    :name: "--STAT"
    :prefixed: true
    :description: Used to indicate when a question about the occurrence of a pre-specified
      intervention was not answered. Should be null or have a value of NOT DONE.
    :rule: ''
  http://www.assero.co.uk/MDRSdtmM/CDISC/V2#M-CDISC_SDTMMODEL_xxSPCUFL:
    :status: :created
    :datatype: Char
    :classification: Qualifier
    :sub_classification: Record Qualifier
    :ordinal: 28
    :name: "--SPCUFL"
    :prefixed: true
    :description: Describes the usability of the specimen for the test. The value
      will be N if the specimen is not usable, and null if the specimen is usable.
    :rule: ''
  http://www.assero.co.uk/MDRSdtmM/CDISC/V2#M-CDISC_SDTMMODEL_xxSEV:
    :status: :updated
    :datatype: Char
    :classification: Qualifier
    :sub_classification: Record Qualifier
    :ordinal: 22
    :name: "--SEV"
    :prefixed: true
    :description: 'The severity or intensity of the event. Examples: MILD, MODERATE,
      SEVERE.'
    :rule: ''
  http://www.assero.co.uk/MDRSdtmM/CDISC/V2#M-CDISC_SDTMMODEL_xxRESCAT:
    :status: :no_change
    :datatype: Char
    :classification: Qualifier
    :sub_classification: Variable Qualifier
    :ordinal: 19
    :name: "--RESCAT"
    :prefixed: true
    :description: 'Used to categorize the result of a finding. Example: MALIGNANT
      or BENIGN for tumor findings.'
    :rule: ''
  http://www.assero.co.uk/MDRSdtmM/CDISC/V2#M-CDISC_SDTMMODEL_xxMODIFY:
    :status: :no_change
    :datatype: Char
    :classification: Qualifier
    :sub_classification: Synonym Qualifier
    :ordinal: 2
    :name: "--MODIFY"
    :prefixed: true
    :description: If the value for --TRT is modified for coding purposes, then the
      modified text is placed here.
    :rule: ''
  http://www.assero.co.uk/MDRSdtmM/CDISC/V2#M-CDISC_SDTMMODEL_xxRL:
    :status: :updated
    :datatype: Char
    :classification: Rule
    :sub_classification: ''
    :ordinal: 17
    :name: "--RL"
    :prefixed: true
    :description: Rule that expresses the inclusion/exclusion criterion.
    :rule: ''
  http://www.assero.co.uk/MDRSdtmM/CDISC/V2#M-CDISC_SDTMMODEL_xxTESTCD:
    :status: :no_change
    :datatype: Char
    :classification: Topic
    :sub_classification: ''
    :ordinal: 1
    :name: "--TESTCD"
    :prefixed: true
    :description: 'Short character value for --TEST used as a column name when converting
      a dataset from a vertical format to a horizontal format. The short value can
      be up to 8 characters. Examples: PLAT, SYSBP, RRMIN, EYEEXAM.'
    :rule: ''
  http://www.assero.co.uk/MDRSdtmM/CDISC/V2#M-CDISC_SDTMMODEL_xxPOS:
    :status: :no_change
    :datatype: Char
    :classification: Qualifier
    :sub_classification: Record Qualifier
    :ordinal: 6
    :name: "--POS"
    :prefixed: true
    :description: 'Position of the subject during a measurement or examination. Examples:
      SUPINE, STANDING, SITTING.'
    :rule: ''
  http://www.assero.co.uk/MDRSdtmM/CDISC/V2#M-CDISC_SDTMMODEL_xxBODSYS:
    :status: :updated
    :datatype: Char
    :classification: Qualifier
    :sub_classification: Record Qualifier
    :ordinal: 17
    :name: "--BODSYS"
    :prefixed: true
    :description: 'Body system or system organ class assigned for analysis from a
      standard hierarchy (e.g. MedDRA) associated with an event. Example: GASTROINTESTINAL
      DISORDERS.'
    :rule: ''
  http://www.assero.co.uk/MDRSdtmM/CDISC/V2#M-CDISC_SDTMMODEL_xxDOSE:
    :status: :no_change
    :datatype: Num
    :classification: Qualifier
    :sub_classification: Record Qualifier
    :ordinal: 13
    :name: "--DOSE"
    :prefixed: true
    :description: Amount of --TRT given. Not populated when --DOSTXT is populated.
    :rule: ''
  http://www.assero.co.uk/MDRSdtmM/CDISC/V2#M-CDISC_SDTMMODEL_POOLID:
    :status: :created
    :datatype: Char
    :classification: Identifier
    :sub_classification: ''
    :ordinal: 4
    :name: POOLID
    :prefixed: false
    :description: An identifier used to identify a result from a group of subjects
      that is not assignable to a specific subject.
    :rule: ''
  http://www.assero.co.uk/MDRSdtmM/CDISC/V2#M-CDISC_SDTMMODEL_QLABEL:
    :status: :updated
    :datatype: Char
    :classification: Qualifier
    :sub_classification: Record Qualifier
    :ordinal: 7
    :name: QLABEL
    :prefixed: false
    :description: This is the long name or label associated with QNAM. The value in
      QLABEL cannot be longer than 40 characters. This will often be the column label
      in the sponsor’s original dataset.
    :rule: ''
  http://www.assero.co.uk/MDRSdtmM/CDISC/V2#M-CDISC_SDTMMODEL_RELID:
    :status: :no_change
    :datatype: Char
    :classification: Qualifier
    :sub_classification: Record Qualifier
    :ordinal: 5
    :name: RELID
    :prefixed: false
    :description: Unique value within USUBJID that identifies the relationship. All
      records for the same USUBJID that have the same RELID are considered “related/associated.”
      RELID can be any value the sponsor chooses, and is only meaningful within the
      RELREC dataset to identify the related/associated Domain records.
    :rule: ''
  http://www.assero.co.uk/MDRSdtmM/CDISC/V2#M-CDISC_SDTMMODEL_BRTHDTC:
    :status: :updated
    :datatype: Char
    :classification: Qualifier
    :sub_classification: Record Qualifier
    :ordinal: 13
    :name: BRTHDTC
    :prefixed: false
    :description: Date/time of birth of the subject in ISO 8601 character format.
    :rule: ''
  http://www.assero.co.uk/MDRSdtmM/CDISC/V2#M-CDISC_SDTMMODEL_xxLAT:
    :status: :created
    :datatype: Char
    :classification: Qualifier
    :sub_classification: Variable Qualifier
    :ordinal: 30
    :name: "--LAT"
    :prefixed: true
    :description: 'Qualifier for anatomical location or specimen further detailing
      laterality. Examples: RIGHT, LEFT, BILATERAL'
    :rule: ''
  http://www.assero.co.uk/MDRSdtmM/CDISC/V2#M-CDISC_SDTMMODEL_xxREL:
    :status: :updated
    :datatype: Char
    :classification: Qualifier
    :sub_classification: Record Qualifier
    :ordinal: 26
    :name: "--REL"
    :prefixed: true
    :description: Records the investigator's opinion as to the causality of the event
      to the treatment. ICH E2A and E2B examples include NOT RELATED, UNLIKELY RELATED,
      POSSIBLY RELATED, RELATED.
    :rule: ''
  http://www.assero.co.uk/MDRSdtmM/CDISC/V2#M-CDISC_SDTMMODEL_xxDOSFRQ:
    :status: :no_change
    :datatype: Char
    :classification: Qualifier
    :sub_classification: Variable Qualifier
    :ordinal: 17
    :name: "--DOSFRQ"
    :prefixed: true
    :description: 'Usually expressed as the number of doses given per a specific interval.
      Examples: QD, BID, TID, QID.'
    :rule: ''
  http://www.assero.co.uk/MDRSdtmM/CDISC/V2#M-CDISC_SDTMMODEL_xxTRTV:
    :status: :no_change
    :datatype: Char
    :classification: Qualifier
    :sub_classification: Record Qualifier
    :ordinal: 23
    :name: "--TRTV"
    :prefixed: true
    :description: 'Vehicle for administration of treatment, such as a liquid in which
      the treatment drug is dissolved. Example: SALINE.'
    :rule: ''
  http://www.assero.co.uk/MDRSdtmM/CDISC/V2#M-CDISC_SDTMMODEL_USUBJID:
    :status: :no_change
    :datatype: Char
    :classification: Identifier
    :sub_classification: ''
    :ordinal: 3
    :name: USUBJID
    :prefixed: false
    :description: Identifier used to uniquely identify a subject across all studies
      for all applications or submissions involving the product.
    :rule: ''
  http://www.assero.co.uk/MDRSdtmM/CDISC/V2#M-CDISC_SDTMMODEL_DTHFL:
    :status: :created
    :datatype: Char
    :classification: Qualifier
    :sub_classification: Record Qualifier
    :ordinal: 9
    :name: DTHFL
    :prefixed: false
    :description: A value of ‘Y’ indicates the subject died. Should be Y or null.
      Should be populated even when the death date is unknown.
    :rule: ''
  http://www.assero.co.uk/MDRSdtmM/CDISC/V2#M-CDISC_SDTMMODEL_xxCLASCD:
    :status: :no_change
    :datatype: Char
    :classification: Qualifier
    :sub_classification: Variable Qualifier
    :ordinal: 12
    :name: "--CLASCD"
    :prefixed: true
    :description: Used to represent code for --CLAS.
    :rule: ''
  http://www.assero.co.uk/MDRSdtmM/CDISC/V2#M-CDISC_SDTMMODEL_IESCAT:
    :status: :updated
    :datatype: Char
    :classification: Qualifier
    :sub_classification: Grouping Qualifier
    :ordinal: 16
    :name: IESCAT
    :prefixed: false
    :description: 'A further categorization of the exception criterion. Can be used
      to distinguish criteria for a sub-study or for to categorize as a major or minor
      exceptions. Examples: MAJOR, MINOR.'
    :rule: ''
  http://www.assero.co.uk/MDRSdtmM/CDISC/V2#M-CDISC_SDTMMODEL_xxUPDES:
    :status: :updated
    :datatype: Char
    :classification: Qualifier
    :sub_classification: Record Qualifier
    :ordinal: 36
    :name: "--UPDES"
    :prefixed: true
    :description: Description of what happened to the subject during an unplanned
      Element. Used only if ETCD has the value of “UNPLAN”.
    :rule: ''
  http://www.assero.co.uk/MDRSdtmM/CDISC/V2#M-CDISC_SDTMMODEL_xxLLT:
    :status: :created
    :datatype: Char
    :classification: Qualifier
    :sub_classification: Variable Qualifier
    :ordinal: 3
    :name: "--LLT"
    :prefixed: true
    :description: MedDRA Lowest Level Term.
    :rule: ''
  http://www.assero.co.uk/MDRSdtmM/CDISC/V2#M-CDISC_SDTMMODEL_xxDIR:
    :status: :created
    :datatype: Char
    :classification: Qualifier
    :sub_classification: Variable Qualifier
    :ordinal: 31
    :name: "--DIR"
    :prefixed: true
    :description: 'Qualifier for anatomical location or specimen further detailing
      directionality. Examples: ANTERIOR, LOWER, PROXIMAL'
    :rule: ''
  http://www.assero.co.uk/MDRSdtmM/CDISC/V2#M-CDISC_SDTMMODEL_xxSTRESU:
    :status: :no_change
    :datatype: Char
    :classification: Qualifier
    :sub_classification: Variable Qualifier
    :ordinal: 14
    :name: "--STRESU"
    :prefixed: true
    :description: 'Standardized units used for --STRESC and --STRESN. Example: mol/L.'
    :rule: ''
  http://www.assero.co.uk/MDRSdtmM/CDISC/V2#M-CDISC_SDTMMODEL_ACTARM:
    :status: :created
    :datatype: Char
    :classification: Qualifier
    :sub_classification: Record Qualifier
    :ordinal: 24
    :name: ACTARM
    :prefixed: false
    :description: Description of the actual Arm in which the subject participated
      during the trial.
    :rule: ''
  http://www.assero.co.uk/MDRSdtmM/CDISC/V2#M-CDISC_SDTMMODEL_xxPARMCD:
    :status: :updated
    :datatype: Char
    :classification: Topic
    :sub_classification: ''
    :ordinal: 19
    :name: "--PARMCD"
    :prefixed: true
    :description: 'TSPARMCD (the companion to TSPARM) is limited to 8 characters and
      does not have special character restrictions. These values should be short for
      ease of use in programming, but it is not expected that TSPARMCD will need to
      serve as variable names. Examples: AGEMIN, AGEMAX'
    :rule: ''
  http://www.assero.co.uk/MDRSdtmM/CDISC/V2#M-CDISC_SDTMMODEL_xxXFN:
    :status: :no_change
    :datatype: Char
    :classification: Qualifier
    :sub_classification: Record Qualifier
    :ordinal: 22
    :name: "--XFN"
    :prefixed: true
    :description: Filename for an external file, such as one for an ECG waveform or
      a medical image.
    :rule: ''
  http://www.assero.co.uk/MDRSdtmM/CDISC/V2#M-CDISC_SDTMMODEL_xxLOINC:
    :status: :no_change
    :datatype: Char
    :classification: Qualifier
    :sub_classification: Synonym Qualifier
    :ordinal: 24
    :name: "--LOINC"
    :prefixed: true
    :description: Logical Observation Identifiers Names and Codes (LOINC) code for
      the topic variable such as a lab test.
    :rule: ''
  http://www.assero.co.uk/MDRSdtmM/CDISC/V2#M-CDISC_SDTMMODEL_RACE:
    :status: :updated
    :datatype: Char
    :classification: Qualifier
    :sub_classification: Record Qualifier
    :ordinal: 17
    :name: RACE
    :prefixed: false
    :description: Race of the subject. Sponsors should refer to “Collection of Race
      and Ethnicity Data in Clinical Trials” (FDA, September 2005) for guidance regarding
      the collection of race (http://www.fda.gov/cder/guidance/5656fnl.htm)
    :rule: ''
  http://www.assero.co.uk/MDRSdtmM/CDISC/V2#M-CDISC_SDTMMODEL_xxNAM:
    :status: :no_change
    :datatype: Char
    :classification: Qualifier
    :sub_classification: Record Qualifier
    :ordinal: 23
    :name: "--NAM"
    :prefixed: true
    :description: Name or identifier of the vendor (e.g., laboratory) that provided
      the test results.
    :rule: ''
  http://www.assero.co.uk/MDRSdtmM/CDISC/V2#M-CDISC_SDTMMODEL_RFENDTC:
    :status: :no_change
    :datatype: Char
    :classification: Qualifier
    :sub_classification: Record Qualifier
    :ordinal: 3
    :name: RFENDTC
    :prefixed: false
    :description: Reference End Date/time for the subject in ISO 8601 character format.
      Usually equivalent to the date/time when subject was determined to have ended
      the trial, and often equivalent to date/time of last exposure to study treatment.
      Required for all randomized subjects; null for screen failures or unassigned
      subjects.
    :rule: ''
  http://www.assero.co.uk/MDRSdtmM/CDISC/V2#M-CDISC_SDTMMODEL_xxDOSU:
    :status: :no_change
    :datatype: Char
    :classification: Qualifier
    :sub_classification: Variable Qualifier
    :ordinal: 15
    :name: "--DOSU"
    :prefixed: true
    :description: 'Units for --DOSE, --DOSTOT, or --DOSTXT (Examples: ng, mg, mg/kg).'
    :rule: ''
  http://www.assero.co.uk/MDRSdtmM/CDISC/V2#M-CDISC_SDTMMODEL_xxTERM:
    :status: :no_change
    :datatype: Char
    :classification: Topic
    :sub_classification: ''
    :ordinal: 1
    :name: "--TERM"
    :prefixed: true
    :description: Topic variable for an event observation, which is the verbatim or
      pre-specified name of the event.
    :rule: ''
  http://www.assero.co.uk/MDRSdtmM/CDISC/V2#M-CDISC_SDTMMODEL_xxOBJ:
    :status: :updated
    :datatype: Char
    :classification: Qualifier
    :sub_classification: Record Qualifier
    :ordinal: 1
    :name: "--OBJ"
    :prefixed: true
    :description: 'Used in domains modeled as Findings About Events or Findings About
      Interventions. Describes the event or intervention whose property is being measured
      in --TESTCD/--TEST. Example: an event of vomiting which has findings, where
      --OBJ = "VOMIT" and the volume of VOMIT is being measured where --TESTCD = "VOLUME".'
    :rule: ''
  http://www.assero.co.uk/MDRSdtmM/CDISC/V2#M-CDISC_SDTMMODEL_xxLLOQ:
    :status: :updated
    :datatype: Num
    :classification: Qualifier
    :sub_classification: Variable Qualifier
    :ordinal: 46
    :name: "--LLOQ"
    :prefixed: true
    :description: Indicates the lower limit of quantitation for an assay. Units will
      be those used for --STRESU.
    :rule: ''
  http://www.assero.co.uk/MDRSdtmM/CDISC/V2#M-CDISC_SDTMMODEL_xxPATT:
    :status: :updated
    :datatype: Char
    :classification: Qualifier
    :sub_classification: Record Qualifier
    :ordinal: 28
    :name: "--PATT"
    :prefixed: true
    :description: 'Used to indicate the pattern of the event over time. Examples:
      INTERMITTENT, CONTINUOUS, SINGLE EVENT.'
    :rule: ''
  http://www.assero.co.uk/MDRSdtmM/CDISC/V2#M-CDISC_SDTMMODEL_xxVALNF:
    :status: :created
    :datatype: Char
    :classification: Qualifier
    :sub_classification: Result Qualifier
    :ordinal: 22
    :name: "--VALNF"
    :prefixed: true
    :description: Null flavor for the value of TSVAL describing the reason the value
      is null, to be populated if and only if TSVAL is null.
    :rule: ''
  http://www.assero.co.uk/MDRSdtmM/CDISC/V2#M-CDISC_SDTMMODEL_xxDTHREL:
    :status: :updated
    :datatype: Char
    :classification: Qualifier
    :sub_classification: Record Qualifier
    :ordinal: 45
    :name: "--DTHREL"
    :prefixed: true
    :description: Describes the relationship of a particular finding to the death
      of a subject.
    :rule: ''
  http://www.assero.co.uk/MDRSdtmM/CDISC/V2#M-CDISC_SDTMMODEL_STUDYID:
    :status: :no_change
    :datatype: Char
    :classification: Identifier
    :sub_classification: ''
    :ordinal: 1
    :name: STUDYID
    :prefixed: false
    :description: Unique identifier for a study.
    :rule: ''
  http://www.assero.co.uk/MDRSdtmM/CDISC/V2#M-CDISC_SDTMMODEL_xxREFID:
    :status: :updated
    :datatype: Char
    :classification: Identifier
    :sub_classification: ''
    :ordinal: 7
    :name: "--REFID"
    :prefixed: true
    :description: Optional internal or external identifier such as lab specimen ID,
      or UUID for an ECG waveform or a medical image.
    :rule: ''
  http://www.assero.co.uk/MDRSdtmM/CDISC/V2#M-CDISC_SDTMMODEL_xxORRES:
    :status: :no_change
    :datatype: Char
    :classification: Qualifier
    :sub_classification: Result Qualifier
    :ordinal: 8
    :name: "--ORRES"
    :prefixed: true
    :description: 'Result of the measurement or finding as originally received or
      collected. Examples: 120, <1, POS.'
    :rule: ''
  http://www.assero.co.uk/MDRSdtmM/CDISC/V2#M-CDISC_SDTMMODEL_xxENRTPT:
    :status: :updated
    :datatype: Char
    :classification: Timing
    :sub_classification: ''
    :ordinal: 33
    :name: "--ENRTPT"
    :prefixed: true
    :description: Identifies the end of the observation as being before or after the
      sponsor-defined reference time point defined by variable --ENTPT.
    :rule: ''
  http://www.assero.co.uk/MDRSdtmM/CDISC/V2#M-CDISC_SDTMMODEL_IETESTCD:
    :status: :updated
    :datatype: Char
    :classification: Topic
    :sub_classification: ''
    :ordinal: 13
    :name: IETESTCD
    :prefixed: false
    :description: Short name IETEST. It can be used as a column name when converting
      a dataset from a vertical to a horizontal format. The value in IETESTCD cannot
      be longer than 8 characters, nor can it start with a number (e.g., “1TEST”).
      IETESTCD cannot contain characters other than letters, numbers, or underscores.
      The name “IE” prefix is used to ensure consistency with the IE domain
    :rule: ''
  http://www.assero.co.uk/MDRSdtmM/CDISC/V2#M-CDISC_SDTMMODEL_xxHLTCD:
    :status: :created
    :datatype: Num
    :classification: Qualifier
    :sub_classification: Variable Qualifier
    :ordinal: 8
    :name: "--HLTCD"
    :prefixed: true
    :description: MedDRA High Level Term code from the primary path.
    :rule: ''
  http://www.assero.co.uk/MDRSdtmM/CDISC/V2#M-CDISC_SDTMMODEL_VISITNUM:
    :status: :updated
    :datatype: Num
    :classification: Timing
    :sub_classification: ''
    :ordinal: 11
    :name: VISITNUM
    :prefixed: false
    :description: Clinical encounter number. Numeric version of VISIT, used for sorting.
    :rule: ''
  http://www.assero.co.uk/MDRSdtmM/CDISC/V2#M-CDISC_SDTMMODEL_xxTOX:
    :status: :updated
    :datatype: Char
    :classification: Qualifier
    :sub_classification: Variable Qualifier
    :ordinal: 39
    :name: "--TOX"
    :prefixed: true
    :description: 'Description of toxicity quantified by --TOXGR such as NCI CTCAE
      Short Name. Examples: HYPERCALCEMIA, HYPOCALCEMIA. Sponsor should specify which
      scale and version is used in the Sponsor Comments column of the Define.xml document.'
    :rule: ''
  http://www.assero.co.uk/MDRSdtmM/CDISC/V2#M-CDISC_SDTMMODEL_RDOMAIN:
    :status: :updated
    :datatype: Char
    :classification: Qualifier
    :sub_classification: Record Qualifier
    :ordinal: 27
    :name: RDOMAIN
    :prefixed: false
    :description: Domain Abbreviation of the parent record(s). Null for records collected
      on general comments or additional information CRF page.
    :rule: ''
  http://www.assero.co.uk/MDRSdtmM/CDISC/V2#M-CDISC_SDTMMODEL_ETCD:
    :status: :updated
    :datatype: Char
    :classification: Topic
    :sub_classification: ''
    :ordinal: 34
    :name: ETCD
    :prefixed: false
    :description: ETCD (the companion to ELEMENT) is limited to 8 characters and does
      not have special character restrictions. These values should be short for ease
      of use in programming, but it is not expected that ETCD will need to serve as
      a variable name.
    :rule: ''
  http://www.assero.co.uk/MDRSdtmM/CDISC/V2#M-CDISC_SDTMMODEL_RFICDTC:
    :status: :created
    :datatype: Char
    :classification: Qualifier
    :sub_classification: Record Qualifier
    :ordinal: 6
    :name: RFICDTC
    :prefixed: false
    :description: Date/time of informed consent in ISO 8601 character format.
    :rule: ''
  http://www.assero.co.uk/MDRSdtmM/CDISC/V2#M-CDISC_SDTMMODEL_xxSCONG:
    :status: :updated
    :datatype: Char
    :classification: Qualifier
    :sub_classification: Record Qualifier
    :ordinal: 31
    :name: "--SCONG"
    :prefixed: true
    :description: Was the event associated with congenital anomaly or birth defect?
      Valid values are "Y" and "N".
    :rule: ''
  http://www.assero.co.uk/MDRSdtmM/CDISC/V2#M-CDISC_SDTMMODEL_COUNTRY:
    :status: :updated
    :datatype: Char
    :classification: Qualifier
    :sub_classification: Record Qualifier
    :ordinal: 26
    :name: COUNTRY
    :prefixed: false
    :description: Country of the investigational site at which the subject participated
      in the trial in ISO 3166 three-character format.
    :rule: ''
  http://www.assero.co.uk/MDRSdtmM/CDISC/V2#M-CDISC_SDTMMODEL_xxVALCD:
    :status: :created
    :datatype: Char
    :classification: Qualifier
    :sub_classification: Result Qualifier
    :ordinal: 23
    :name: "--VALCD"
    :prefixed: true
    :description: Code of the term in TSVAL from Reference Terminology cited in TSVCDREF.
    :rule: ''
  http://www.assero.co.uk/MDRSdtmM/CDISC/V2#M-CDISC_SDTMMODEL_xxVAMTU:
    :status: :no_change
    :datatype: Char
    :classification: Qualifier
    :sub_classification: Variable Qualifier
    :ordinal: 25
    :name: "--VAMTU"
    :prefixed: true
    :description: 'Units for the treatment vehicle. Examples: mL, mg.'
    :rule: ''
  http://www.assero.co.uk/MDRSdtmM/CDISC/V2#M-CDISC_SDTMMODEL_xxVAL:
    :status: :updated
    :datatype: Char
    :classification: Topic
    :sub_classification: ''
    :ordinal: 32
    :name: "--VAL"
    :prefixed: true
    :description: The text of the comment. Text over 200 characters can be added to
      additional columns COVAL1-COVALn.
    :rule: ''
  http://www.assero.co.uk/MDRSdtmM/CDISC/V2#M-CDISC_SDTMMODEL_xxSTDY:
    :status: :updated
    :datatype: Num
    :classification: Timing
    :sub_classification: ''
    :ordinal: 20
    :name: "--STDY"
    :prefixed: true
    :description: Actual study day of start of observation expressed in integer days
      relative to the sponsor-defined RFSTDTC in Demographics.
    :rule: ''
  http://www.assero.co.uk/MDRSdtmM/CDISC/V2#M-CDISC_SDTMMODEL_xxDECOD:
    :status: :no_change
    :datatype: Char
    :classification: Qualifier
    :sub_classification: Synonym Qualifier
    :ordinal: 3
    :name: "--DECOD"
    :prefixed: true
    :description: Standardized or dictionary-derived name of the topic variable, --TRT,
      or the modified topic variable (--MODIFY), if applicable. Equivalent to the
      generic drug name in WHO Drug, or a term in SNOMED, ICD9, or other published
      or sponsor-defined dictionaries.
    :rule: ''
  http://www.assero.co.uk/MDRSdtmM/CDISC/V2#M-CDISC_SDTMMODEL_xxDOSTXT:
    :status: :no_change
    :datatype: Char
    :classification: Qualifier
    :sub_classification: Record Qualifier
    :ordinal: 14
    :name: "--DOSTXT"
    :prefixed: true
    :description: 'Dosing information collected in text form. Examples: <1 per day,
      200-400. Not populated when --DOSE is populated.'
    :rule: ''
  http://www.assero.co.uk/MDRSdtmM/CDISC/V2#M-CDISC_SDTMMODEL_xxBRANCH:
    :status: :no_change
    :datatype: Char
    :classification: Rule
    :sub_classification: ''
    :ordinal: 7
    :name: "--BRANCH"
    :prefixed: true
    :description: 'Condition subjects meet, at a “branch” in the Trial Design at the
      end of this Element, to be included in this Arm. Example: Randomization to DRUG
      X.'
    :rule: ''
  http://www.assero.co.uk/MDRSdtmM/CDISC/V2#M-CDISC_SDTMMODEL_ARMCD:
    :status: :updated
    :datatype: Char
    :classification: Qualifier
    :sub_classification: Record Qualifier
    :ordinal: 21
    :name: ARMCD
    :prefixed: false
    :description: ARMCD is limited to 20 characters and does not have special character
      restrictions.
    :rule: ''
  http://www.assero.co.uk/MDRSdtmM/CDISC/V2#M-CDISC_SDTMMODEL_SUBJID:
    :status: :no_change
    :datatype: Char
    :classification: Topic
    :sub_classification: ''
    :ordinal: 1
    :name: SUBJID
    :prefixed: false
    :description: Subject identifier, which must be unique within the study. Often
      the ID of the subject as recorded on a CRF.
    :rule: ''
  http://www.assero.co.uk/MDRSdtmM/CDISC/V2#M-CDISC_SDTMMODEL_xxTRT:
    :status: :no_change
    :datatype: Char
    :classification: Topic
    :sub_classification: ''
    :ordinal: 1
    :name: "--TRT"
    :prefixed: true
    :description: The topic for the intervention observation, usually the verbatim
      name of the treatment, drug, medicine, or therapy given during the dosing interval
      for the observation.
    :rule: ''
  http://www.assero.co.uk/MDRSdtmM/CDISC/V2#M-CDISC_SDTMMODEL_INVID:
    :status: :updated
    :datatype: Char
    :classification: Qualifier
    :sub_classification: Record Qualifier
    :ordinal: 11
    :name: INVID
    :prefixed: false
    :description: An identifier to describe the Investigator for the study. May be
      used in addition to the SITEID. Not needed if SITEID is equivalent to INVID.
    :rule: ''
  http://www.assero.co.uk/MDRSdtmM/CDISC/V2#M-CDISC_SDTMMODEL_xxDOSFRM:
    :status: :no_change
    :datatype: Char
    :classification: Qualifier
    :sub_classification: Variable Qualifier
    :ordinal: 16
    :name: "--DOSFRM"
    :prefixed: true
    :description: 'Dose form for the treatment. Examples: TABLET, CAPSULE.'
    :rule: ''
  http://www.assero.co.uk/MDRSdtmM/CDISC/V2#M-CDISC_SDTMMODEL_AGEU:
    :status: :updated
    :datatype: Char
    :classification: Qualifier
    :sub_classification: Record Qualifier
    :ordinal: 15
    :name: AGEU
    :prefixed: false
    :description: Units associated with AGE.
    :rule: ''
  http://www.assero.co.uk/MDRSdtmM/CDISC/V2#M-CDISC_SDTMMODEL_xxEXCLFL:
    :status: :created
    :datatype: Char
    :classification: Qualifier
    :sub_classification: Record Qualifier
    :ordinal: 47
    :name: "--EXCLFL"
    :prefixed: true
    :description: Indicates whether the values in the result variables for this record
      should be excluded from summary statistical calculations such as Mean, Standard
      Deviation, and Count (and others). Expected to be Y or null.  --EXCLFL should
      not be used when --STAT is NOT DONE.  Not to be used with human clinical trials.
    :rule: ''
  http://www.assero.co.uk/MDRSdtmM/CDISC/V2#M-CDISC_SDTMMODEL_xxBLFL:
    :status: :updated
    :datatype: Char
    :classification: Qualifier
    :sub_classification: Record Qualifier
    :ordinal: 36
    :name: "--BLFL"
    :prefixed: true
    :description: Indicator used to identify a baseline value. Should be Y or null.
    :rule: ''
  http://www.assero.co.uk/MDRSdtmM/CDISC/V2#M-CDISC_SDTMMODEL_QNAM:
    :status: :updated
    :datatype: Char
    :classification: Qualifier
    :sub_classification: Record Qualifier
    :ordinal: 6
    :name: QNAM
    :prefixed: false
    :description: The short name of the Qualifier variable, which is used as a column
      name in a domain view with data from the parent domain. The value in QNAM cannot
      be longer than 8 characters, nor can it start with a number (e.g., “1TEST”).
      QNAM cannot contain characters other than letters, numbers, or underscores.
      This will often be the column name in the sponsor’s operational dataset.
    :rule: ''
  http://www.assero.co.uk/MDRSdtmM/CDISC/V2#M-CDISC_SDTMMODEL_xxADJ:
    :status: :no_change
    :datatype: Char
    :classification: Qualifier
    :sub_classification: Record Qualifier
    :ordinal: 26
    :name: "--ADJ"
    :prefixed: true
    :description: Describes reason or explanation of why a dose is adjusted. Examples
      ADVERSE EVENT, INSUFFICIENT RESPONSE, NON-MEDICAL REASON.
    :rule: ''
  http://www.assero.co.uk/MDRSdtmM/CDISC/V2#M-CDISC_SDTMMODEL_xxPRESP:
    :status: :updated
    :datatype: Char
    :classification: Qualifier
    :sub_classification: Variable Qualifier
    :ordinal: 6
    :name: "--PRESP"
    :prefixed: true
    :description: Used when a specific intervention is pre-specified on a CRF. Values
      should be "Y" or null
    :rule: ''
  http://www.assero.co.uk/MDRSdtmM/CDISC/V2#M-CDISC_SDTMMODEL_xxHLGTCD:
    :status: :created
    :datatype: Num
    :classification: Qualifier
    :sub_classification: Variable Qualifier
    :ordinal: 10
    :name: "--HLGTCD"
    :prefixed: true
    :description: MedDRA High Level Group Term code from the primary path.
    :rule: ''
  http://www.assero.co.uk/MDRSdtmM/CDISC/V2#M-CDISC_SDTMMODEL_xxGRPID:
    :status: :updated
    :datatype: Char
    :classification: Identifier
    :sub_classification: ''
    :ordinal: 6
    :name: "--GRPID"
    :prefixed: true
    :description: Optional group identifier, used to link together a block of related
      records within a subject in a domain. Also used to link together a block of
      related records in the Trial Summary dataset (Section 3.4).
    :rule: ''
  http://www.assero.co.uk/MDRSdtmM/CDISC/V2#M-CDISC_SDTMMODEL_xxEVALID:
    :status: :created
    :datatype: Char
    :classification: Qualifier
    :sub_classification: Variable Qualifier
    :ordinal: 40
    :name: "--EVALID"
    :prefixed: true
    :description: 'Used to distinguish multiple evaluators with the same role recorded
      in --EVAL. Examples: RADIOLOGIST1 or RADIOLOGIST2'
    :rule: ''
  http://www.assero.co.uk/MDRSdtmM/CDISC/V2#M-CDISC_SDTMMODEL_ARM:
    :status: :updated
    :datatype: Char
    :classification: Qualifier
    :sub_classification: Record Qualifier
    :ordinal: 22
    :name: ARM
    :prefixed: false
    :description: Name of the Arm to which the subject was assigned.
    :rule: ''
  http://www.assero.co.uk/MDRSdtmM/CDISC/V2#M-CDISC_SDTMMODEL_xxTRANS:
    :status: :no_change
    :datatype: Char
    :classification: Rule
    :sub_classification: ''
    :ordinal: 8
    :name: "--TRANS"
    :prefixed: true
    :description: If the trial design allows a subject to transition to an Element
      other than the next Element in sequence, then the conditions for transitioning
      to those other Elements, and the alternative Element sequences, are specified
      in this rule (e.g., Responders go to washout).
    :rule: ''
  http://www.assero.co.uk/MDRSdtmM/CDISC/V2#M-CDISC_SDTMMODEL_xxTOXGR:
    :status: :updated
    :datatype: Char
    :classification: Qualifier
    :sub_classification: Record Qualifier
    :ordinal: 40
    :name: "--TOXGR"
    :prefixed: true
    :description: Records toxicity grade using a standard toxicity scale (such as
      the NCI CTCAE). Sponsor should specify which scale and version is used in the
      Sponsor Comments column of the Define.xml document.
    :rule: ''
  http://www.assero.co.uk/MDRSdtmM/CDISC/V2#M-CDISC_SDTMMODEL_xxROUTE:
    :status: :no_change
    :datatype: Char
    :classification: Qualifier
    :sub_classification: Variable Qualifier
    :ordinal: 20
    :name: "--ROUTE"
    :prefixed: true
    :description: 'Route of administration for the intervention. Examples: ORAL, INTRAVENOUS.'
    :rule: ''
  http://www.assero.co.uk/MDRSdtmM/CDISC/V2#M-CDISC_SDTMMODEL_xxSLIFE:
    :status: :updated
    :datatype: Char
    :classification: Qualifier
    :sub_classification: Record Qualifier
    :ordinal: 35
    :name: "--SLIFE"
    :prefixed: true
    :description: Was the event life threatening? Valid values are "Y" and "N".
    :rule: ''
  http://www.assero.co.uk/MDRSdtmM/CDISC/V2#M-CDISC_SDTMMODEL_xxORRESU:
    :status: :no_change
    :datatype: Char
    :classification: Qualifier
    :sub_classification: Variable Qualifier
    :ordinal: 9
    :name: "--ORRESU"
    :prefixed: true
    :description: 'Unit for --ORRES. Examples: IN, LB, kg/L.'
    :rule: ''
  http://www.assero.co.uk/MDRSdtmM/CDISC/V2#M-CDISC_SDTMMODEL_xxRELNST:
    :status: :updated
    :datatype: Char
    :classification: Qualifier
    :sub_classification: Record Qualifier
    :ordinal: 27
    :name: "--RELNST"
    :prefixed: true
    :description: 'An opinion as to whether the event may have been due to a treatment
      other than study drug. Example: "MORE LIKELY RELATED TO ASPIRIN USE."'
    :rule: ''
  http://www.assero.co.uk/MDRSdtmM/CDISC/V2#M-CDISC_SDTMMODEL_xxELTM:
    :status: :updated
    :datatype: Char
    :classification: Timing
    :sub_classification: ''
    :ordinal: 25
    :name: "--ELTM"
    :prefixed: true
    :description: Planned Elapsed time in ISO 8601 character format relative to a
      planned fixed reference (--TPTREF) such as "Previous Dose" or "Previous Meal".
      This variable is useful where there are repetitive measures. Not a clock time
      or a date/time variable, but an interval, represented as ISO duration.
    :rule: ''
  http://www.assero.co.uk/MDRSdtmM/CDISC/V2#M-CDISC_SDTMMODEL_xxACN:
    :status: :updated
    :datatype: Char
    :classification: Qualifier
    :sub_classification: Record Qualifier
    :ordinal: 24
    :name: "--ACN"
    :prefixed: true
    :description: 'Describes changes made to the study treatment as a result of the
      event. Examples: DOSE INCREASED, DOSE NOT CHANGED.'
    :rule: ''
  http://www.assero.co.uk/MDRSdtmM/CDISC/V2#M-CDISC_SDTMMODEL_xxPORTOT:
    :status: :created
    :datatype: Char
    :classification: Qualifier
    :sub_classification: Variable Qualifier
    :ordinal: 32
    :name: "--PORTOT"
    :prefixed: true
    :description: 'Qualifier for anatomical location or specimen further detailing
      the distribution, which means arrangement of, apportioning of. . Examples: ENTIRE,
      SINGLE, SEGMENT, MANY.'
    :rule: ''
  http://www.assero.co.uk/MDRSdtmM/CDISC/V2#M-CDISC_SDTMMODEL_xxPTCD:
    :status: :created
    :datatype: Num
    :classification: Qualifier
    :sub_classification: Variable Qualifier
    :ordinal: 6
    :name: "--PTCD"
    :prefixed: true
    :description: MedDRA Preferred Term code.
    :rule: ''
  http://www.assero.co.uk/MDRSdtmM/CDISC/V2#M-CDISC_SDTMMODEL_xxDOSRGM:
    :status: :no_change
    :datatype: Char
    :classification: Qualifier
    :sub_classification: Variable Qualifier
    :ordinal: 19
    :name: "--DOSRGM"
    :prefixed: true
    :description: 'Text description of the (intended) schedule or regimen for the
      Intervention. Examples: TWO WEEKS ON, TWO WEEKS OFF.'
    :rule: ''
  http://www.assero.co.uk/MDRSdtmM/CDISC/V2#M-CDISC_SDTMMODEL_IETEST:
    :status: :updated
    :datatype: Char
    :classification: Qualifier
    :sub_classification: Synonym Qualifier
    :ordinal: 14
    :name: IETEST
    :prefixed: false
    :description: Full text of the inclusion or exclusion criterion. The prefix “IE”
      is used to ensure consistency with the IE domain.
    :rule: ''
  http://www.assero.co.uk/MDRSdtmM/CDISC/V2#M-CDISC_SDTMMODEL_xxHLT:
    :status: :created
    :datatype: Char
    :classification: Qualifier
    :sub_classification: Variable Qualifier
    :ordinal: 7
    :name: "--HLT"
    :prefixed: true
    :description: MedDRA High Level Term from the primary path.
    :rule: ''
  http://www.assero.co.uk/MDRSdtmM/CDISC/V2#M-CDISC_SDTMMODEL_QVAL:
    :status: :updated
    :datatype: Char
    :classification: Qualifier
    :sub_classification: Record Qualifier
    :ordinal: 8
    :name: QVAL
    :prefixed: false
    :description: Result of, response to, or value associated with QNAM. A value for
      this column is required; no records can be in SUPP-- with a null value for QVAL
    :rule: ''
  http://www.assero.co.uk/MDRSdtmM/CDISC/V2#M-CDISC_SDTMMODEL_ACTARMCD:
    :status: :created
    :datatype: Char
    :classification: Qualifier
    :sub_classification: Record Qualifier
    :ordinal: 23
    :name: ACTARMCD
    :prefixed: false
    :description: Short name for the actual Arm in which the subject participated
      during the trial, limited to 20 characters.
    :rule: ''
  http://www.assero.co.uk/MDRSdtmM/CDISC/V2#M-CDISC_SDTMMODEL_SITEID:
    :status: :updated
    :datatype: Char
    :classification: Qualifier
    :sub_classification: Record Qualifier
    :ordinal: 10
    :name: SITEID
    :prefixed: false
    :description: Unique identifier for a site within a study.
    :rule: ''
  http://www.assero.co.uk/MDRSdtmM/CDISC/V2#M-CDISC_SDTMMODEL_RFXENDTC:
    :status: :created
    :datatype: Char
    :classification: Qualifier
    :sub_classification: Record Qualifier
    :ordinal: 5
    :name: RFXENDTC
    :prefixed: false
    :description: Last date/time of exposure to any protocol-specified treatment or
      therapy for the subject in ISO 8601 character format.
    :rule: ''
  http://www.assero.co.uk/MDRSdtmM/CDISC/V2#M-CDISC_SDTMMODEL_xxVCDVER:
    :status: :created
    :datatype: Char
    :classification: Qualifier
    :sub_classification: Result Qualifier
    :ordinal: 25
    :name: "--VCDVER"
    :prefixed: true
    :description: The version number of the Reference Terminology cited in TSVCDREF,
      if applicable.
    :rule: ''
  http://www.assero.co.uk/MDRSdtmM/CDISC/V2#M-CDISC_SDTMMODEL_xxENDTC:
    :status: :updated
    :datatype: Char
    :classification: Timing
    :sub_classification: ''
    :ordinal: 18
    :name: "--ENDTC"
    :prefixed: true
    :description: End date/time of the observation represented in IS0 8601 character
      format.
    :rule: ''
  http://www.assero.co.uk/MDRSdtmM/CDISC/V2#M-CDISC_SDTMMODEL_xxHLGT:
    :status: :created
    :datatype: Char
    :classification: Qualifier
    :sub_classification: Variable Qualifier
    :ordinal: 9
    :name: "--HLGT"
    :prefixed: true
    :description: MedDRA High Level Group Term from the primary path.
    :rule: ''
  http://www.assero.co.uk/MDRSdtmM/CDISC/V2#M-CDISC_SDTMMODEL_xxPARM:
    :status: :updated
    :datatype: Char
    :classification: Qualifier
    :sub_classification: Synonym Qualifier
    :ordinal: 20
    :name: "--PARM"
    :prefixed: true
    :description: Term for the Trial Summary Parameter. The value in TSPARM cannot
      be longer than 40 characters. Examples Planned Minimum Age of Subjects, Planned
      Maximum Age of Subjects
    :rule: ''
  http://www.assero.co.uk/MDRSdtmM/CDISC/V2#M-CDISC_SDTMMODEL_xxREASND:
    :status: :no_change
    :datatype: Char
    :classification: Qualifier
    :sub_classification: Record Qualifier
    :ordinal: 9
    :name: "--REASND"
    :prefixed: true
    :description: Reason not done. Used in conjunction with --STAT when value is NOT
      DONE.
    :rule: ''
  http://www.assero.co.uk/MDRSdtmM/CDISC/V2#M-CDISC_SDTMMODEL_xxSCAN:
    :status: :updated
    :datatype: Char
    :classification: Qualifier
    :sub_classification: Record Qualifier
    :ordinal: 30
    :name: "--SCAN"
    :prefixed: true
    :description: Was the event associated with the development of cancer? Valid values
      are "Y" and "N".
    :rule: ''
  http://www.assero.co.uk/MDRSdtmM/CDISC/V2#M-CDISC_SDTMMODEL_xxSTNRLO:
    :status: :no_change
    :datatype: Num
    :classification: Qualifier
    :sub_classification: Variable Qualifier
    :ordinal: 15
    :name: "--STNRLO"
    :prefixed: true
    :description: Lower end of normal range or reference range for standardized results
      (e.g., --STRESC, --STRESN) represented in standardized units (--STRESU).
    :rule: ''
  http://www.assero.co.uk/MDRSdtmM/CDISC/V2#M-CDISC_SDTMMODEL_xxSOD:
    :status: :updated
    :datatype: Char
    :classification: Qualifier
    :sub_classification: Record Qualifier
    :ordinal: 36
    :name: "--SOD"
    :prefixed: true
    :description: Did the event occur with an overdose? Valid values are "Y" and "N".
    :rule: ''
  http://www.assero.co.uk/MDRSdtmM/CDISC/V2#M-CDISC_SDTMMODEL_xxSHOSP:
    :status: :updated
    :datatype: Char
    :classification: Qualifier
    :sub_classification: Record Qualifier
    :ordinal: 34
    :name: "--SHOSP"
    :prefixed: true
    :description: Did the event require or prolong hospitalization? Valid values are
      "Y" and "N".
    :rule: ''
  http://www.assero.co.uk/MDRSdtmM/CDISC/V2#M-CDISC_SDTMMODEL_xxREF:
    :status: :updated
    :datatype: Char
    :classification: Qualifier
    :sub_classification: Record Qualifier
    :ordinal: 31
    :name: "--REF"
    :prefixed: true
    :description: Sponsor-defined reference associated with the comment. May be the
      CRF page number (e.g. 650), or a module name (e.g. DEMOG), or a combination
      of information that identifies the reference (e.g. 650-VITALS-VISIT 2).
    :rule: ''
  http://www.assero.co.uk/MDRSdtmM/CDISC/V2#M-CDISC_SDTMMODEL_AGE:
    :status: :updated
    :datatype: Num
    :classification: Qualifier
    :sub_classification: Record Qualifier
    :ordinal: 14
    :name: AGE
    :prefixed: false
    :description: Age expressed in AGEU
    :rule: ''
  http://www.assero.co.uk/MDRSdtmM/CDISC/V2#M-CDISC_SDTMMODEL_xxLOT:
    :status: :no_change
    :datatype: Char
    :classification: Qualifier
    :sub_classification: Record Qualifier
    :ordinal: 21
    :name: "--LOT"
    :prefixed: true
    :description: Lot number for the intervention described in --TRT.
    :rule: ''
  http://www.assero.co.uk/MDRSdtmM/CDISC/V2#M-CDISC_SDTMMODEL_QEVAL:
    :status: :updated
    :datatype: Char
    :classification: Qualifier
    :sub_classification: Record Qualifier
    :ordinal: 10
    :name: QEVAL
    :prefixed: false
    :description: Used only for results that are subjective (e.g., assigned by a person
      or a group). Should be null for records that contain objectively collected or
      derived data. Some examples include ADJUDICATION COMMITTEE, STATISTICIAN, DATABASE
      ADMINISTRATOR, CLINICAL COORDINATOR, etc.
    :rule: ''
  http://www.assero.co.uk/MDRSdtmM/CDISC/V2#M-CDISC_SDTMMODEL_xxVAMT:
    :status: :no_change
    :datatype: Num
    :classification: Qualifier
    :sub_classification: Record Qualifier
    :ordinal: 24
    :name: "--VAMT"
    :prefixed: true
    :description: Amount of the treatment vehicle administered or given.
    :rule: ''
  http://www.assero.co.uk/MDRSdtmM/CDISC/V2#M-CDISC_SDTMMODEL_SPECIES:
    :status: :created
    :datatype: Char
    :classification: Qualifier
    :sub_classification: Record Qualifier
    :ordinal: 19
    :name: SPECIES
    :prefixed: false
    :description: Used to identify the common species name of the subject (i.e., test
      system) under study (e.g., MOUSE, RAT, DOG, MONKEY).
    :rule: ''
  http://www.assero.co.uk/MDRSdtmM/CDISC/V2#M-CDISC_SDTMMODEL_xxSDTH:
    :status: :updated
    :datatype: Char
    :classification: Qualifier
    :sub_classification: Record Qualifier
    :ordinal: 33
    :name: "--SDTH"
    :prefixed: true
    :description: Did the event result in death? Valid values are "Y" and "N".
    :rule: ''
  http://www.assero.co.uk/MDRSdtmM/CDISC/V2#M-CDISC_SDTMMODEL_xxCLAS:
    :status: :no_change
    :datatype: Char
    :classification: Qualifier
    :sub_classification: Variable Qualifier
    :ordinal: 11
    :name: "--CLAS"
    :prefixed: true
    :description: Class for a medication or treatment, often obtained from a coding
      dictionary.
    :rule: ''
  http://www.assero.co.uk/MDRSdtmM/CDISC/V2#M-CDISC_SDTMMODEL_SET:
    :status: :created
    :datatype: Char
    :classification: Qualifier
    :sub_classification: Record Qualifier
    :ordinal: 12
    :name: SET
    :prefixed: false
    :description: Long description of a specific Trial Set, as defined by the sponsor.
    :rule: ''
  http://www.assero.co.uk/MDRSdtmM/CDISC/V2#M-CDISC_SDTMMODEL_xxCONTRT:
    :status: :updated
    :datatype: Char
    :classification: Qualifier
    :sub_classification: Record Qualifier
    :ordinal: 38
    :name: "--CONTRT"
    :prefixed: true
    :description: Was another treatment given because of the occurrence of the event?
      Valid values are "Y" and "N".
    :rule: ''
  http://www.assero.co.uk/MDRSdtmM/CDISC/V2#M-CDISC_SDTMMODEL_xxSPCCND:
    :status: :updated
    :datatype: Char
    :classification: Qualifier
    :sub_classification: Record Qualifier
    :ordinal: 27
    :name: "--SPCCND"
    :prefixed: true
    :description: 'Defines the condition of the specimen. Example: CLOUDY.'
    :rule: ''
  http://www.assero.co.uk/MDRSdtmM/CDISC/V2#M-CDISC_SDTMMODEL_xxSTRESC:
    :status: :updated
    :datatype: Char
    :classification: Qualifier
    :sub_classification: Result Qualifier
    :ordinal: 12
    :name: "--STRESC"
    :prefixed: true
    :description: Contains the result value for all findings, copied or derived from
      --ORRES in a standard format or in standard units. --STRESC should store all
      results or findings in character format; if results are numeric, they should
      also be stored in numeric format in --STRESN. For example, if various tests
      have results "NONE", "NEG", and "NEGATIVE" in --ORRES and these results effectively
      have the same meaning, they could be represented in standard format in --STRESC
      as "NEGATIVE".
    :rule: ''
  http://www.assero.co.uk/MDRSdtmM/CDISC/V2#M-CDISC_SDTMMODEL_RFXSTDTC:
    :status: :created
    :datatype: Char
    :classification: Qualifier
    :sub_classification: Record Qualifier
    :ordinal: 4
    :name: RFXSTDTC
    :prefixed: false
    :description: First date/time of exposure to any protocol-specified treatment
      or therapy for the subject in ISO 8601 character format.
    :rule: ''
  http://www.assero.co.uk/MDRSdtmM/CDISC/V2#M-CDISC_SDTMMODEL_xxOUT:
    :status: :updated
    :datatype: Char
    :classification: Qualifier
    :sub_classification: Record Qualifier
    :ordinal: 29
    :name: "--OUT"
    :prefixed: true
    :description: 'Description of the outcome of an event. Examples: RECOVERED/RESOLVED,
      FATAL.'
    :rule: ''
  http://www.assero.co.uk/MDRSdtmM/CDISC/V2#M-CDISC_SDTMMODEL_xxSDISAB:
    :status: :updated
    :datatype: Char
    :classification: Qualifier
    :sub_classification: Record Qualifier
    :ordinal: 32
    :name: "--SDISAB"
    :prefixed: true
    :description: Did the event result in persistent or significant disability/incapacity?
      Valid values are "Y" and "N".
    :rule: ''
  http://www.assero.co.uk/MDRSdtmM/CDISC/V2#M-CDISC_SDTMMODEL_xxVCDREF:
    :status: :created
    :datatype: Char
    :classification: Qualifier
    :sub_classification: Result Qualifier
    :ordinal: 24
    :name: "--VCDREF"
    :prefixed: true
    :description: The name of the Reference Terminology from which TSVALCD is taken.
      For example; CDISC, SNOMED, ISO 8601.
    :rule: ''
  http://www.assero.co.uk/MDRSdtmM/CDISC/V2#M-CDISC_SDTMMODEL_STRAIN:
    :status: :created
    :datatype: Char
    :classification: Qualifier
    :sub_classification: Record Qualifier
    :ordinal: 20
    :name: STRAIN
    :prefixed: false
    :description: Used to identify the vendor-supplied strain/substrain designation
      for the subject (i.e., test system) under study. When applicable, it combines
      the root strain, substrain, and associated genetic modifications, as supplied
      by the vendor (e.g., C57BL/6, A/J, B6.129-Pparg<tm2Rev>/J, FISCHER 344, SPRAGUE
      DAWLEY IGS, WISTAR Kyoto, BEAGLE, CYNOMOLGUS, CHIMPANZEE).
    :rule: ''
  http://www.assero.co.uk/MDRSdtmM/CDISC/V2#M-CDISC_SDTMMODEL_xxDOSTOT:
    :status: :no_change
    :datatype: Num
    :classification: Qualifier
    :sub_classification: Record Qualifier
    :ordinal: 18
    :name: "--DOSTOT"
    :prefixed: true
    :description: Total daily dose of --TRT using the units in --DOSU. Used when dosing
      is collected as Total Daily Dose.
    :rule: ''
