<html><head></head><body><div style="vertical-align:middle; text-align:center"><img height="75" src="http://localhost:3000/images/acme.jpg"></div><h3 class="text-center col-md-12">ACME Test</h3><br><br><br><br><br><br><br><br><br><br><div class="text-center col-md-12"><h1>CDISC Terminology Change Report<h1><h3></h3></div><br><br><br><br><br><div class="text-center col-md-12"><p>Run at: 2021-Apr-22, 12:27:31</p></div><div class="text-center col-md-12"><p>Run by: wicked@example.com</p></div><div style='page-break-after:always;'></div><h3>Conventions</h3><p>In the following table for a code list entry:<ul><li><p>C = Code List was created in the CDISC Terminology</p></li><li><p>U = Code List was updated in some way</p></li><li><p>'-' = There was no change to the Code List</p></li><li><p>X = The Code List was deleted from the CDISC Terminology</p></li></ul></p><h3>Changes</h3><table class="table table-striped table-bordered table-condensed"><thead><th>Identifier</th><th>Label</th><th>Submission Value</th><th>2007-04-20</th><th>2007-04-26</th><th>2007-05-31</th><th>2007-06-05</th><th>2008-01-15</th><th>2008-01-25</th><th>2008-08-26</th><th>2008-09-22</th><th>2008-09-24</th><th>2008-09-30</th></tr></thead><tbody><tr><td>C20587</td><td>Age Group</td><td>AGESPAN</td><td>X</td><td>&nbsp;</td><td>&nbsp;</td><td>&nbsp;</td><td>&nbsp;</td><td>&nbsp;</td><td>&nbsp;</td><td>&nbsp;</td><td>&nbsp;</td><td>&nbsp;</td></tr><tr><td>C16960</td><td>Patient Ethnic Group</td><td>Patient</td><td>X</td><td>&nbsp;</td><td>&nbsp;</td><td>&nbsp;</td><td>&nbsp;</td><td>&nbsp;</td><td>&nbsp;</td><td>&nbsp;</td><td>&nbsp;</td><td>&nbsp;</td></tr><tr><td>C25464</td><td>Country</td><td>COUNTRY</td><td>X</td><td>&nbsp;</td><td>&nbsp;</td><td>&nbsp;</td><td>&nbsp;</td><td>&nbsp;</td><td>&nbsp;</td><td>&nbsp;</td><td>&nbsp;</td><td>&nbsp;</td></tr><tr><td>C50400</td><td>Age Unit</td><td>AGEU</td><td>X</td><td>&nbsp;</td><td>&nbsp;</td><td>&nbsp;</td><td>&nbsp;</td><td>&nbsp;</td><td>&nbsp;</td><td>&nbsp;</td><td>&nbsp;</td><td>&nbsp;</td></tr><tr><td>C42636</td><td>Pharmaceutical Dosage Form</td><td>FRM</td><td>X</td><td>&nbsp;</td><td>&nbsp;</td><td>&nbsp;</td><td>&nbsp;</td><td>&nbsp;</td><td>&nbsp;</td><td>&nbsp;</td><td>&nbsp;</td><td>&nbsp;</td></tr></tbody></table><div style='page-break-after:always;'></div><table class="table table-striped table-bordered table-condensed"><thead><th>Identifier</th><th>Label</th><th>Submission Value</th><th>2007-04-20</th><th>2007-04-26</th><th>2007-05-31</th><th>2007-06-05</th><th>2008-01-15</th><th>2008-01-25</th><th>2008-08-26</th><th>2008-09-22</th><th>2008-09-24</th><th>2008-09-30</th></tr></thead><tbody><tr><td>C49650</td><td>Diagnosis Group</td><td>TDIGRP</td><td>X</td><td>&nbsp;</td><td>&nbsp;</td><td>&nbsp;</td><td>&nbsp;</td><td>&nbsp;</td><td>&nbsp;</td><td>&nbsp;</td><td>&nbsp;</td><td>&nbsp;</td></tr><tr><td>C49480</td><td>Category for Inclusion and or Exclusion</td><td>IECAT</td><td>X</td><td>&nbsp;</td><td>&nbsp;</td><td>&nbsp;</td><td>&nbsp;</td><td>&nbsp;</td><td>&nbsp;</td><td>&nbsp;</td><td>&nbsp;</td><td>&nbsp;</td></tr><tr><td>C49627</td><td>Reason for Non-Completion</td><td>NCOMPLT</td><td>X</td><td>&nbsp;</td><td>&nbsp;</td><td>&nbsp;</td><td>&nbsp;</td><td>&nbsp;</td><td>&nbsp;</td><td>&nbsp;</td><td>&nbsp;</td><td>&nbsp;</td></tr><tr><td>C50399</td><td>Dictionary Name</td><td>DICTNAM</td><td>X</td><td>&nbsp;</td><td>&nbsp;</td><td>&nbsp;</td><td>&nbsp;</td><td>&nbsp;</td><td>&nbsp;</td><td>&nbsp;</td><td>&nbsp;</td><td>&nbsp;</td></tr><tr><td>C64388</td><td>CDISC System Organ Class</td><td>SOC</td><td>X</td><td>&nbsp;</td><td>&nbsp;</td><td>&nbsp;</td><td>&nbsp;</td><td>&nbsp;</td><td>&nbsp;</td><td>&nbsp;</td><td>&nbsp;</td><td>&nbsp;</td></tr><tr><td>C49638</td><td>Relation to Reference Period</td><td>STENRF</td><td>X</td><td>&nbsp;</td><td>&nbsp;</td><td>&nbsp;</td><td>&nbsp;</td><td>&nbsp;</td><td>&nbsp;</td><td>&nbsp;</td><td>&nbsp;</td><td>&nbsp;</td></tr><tr><td>C49499</td><td>Action Taken with Study Treatment</td><td>ACN</td><td>X</td><td>&nbsp;</td><td>&nbsp;</td><td>&nbsp;</td><td>&nbsp;</td><td>&nbsp;</td><td>&nbsp;</td><td>&nbsp;</td><td>&nbsp;</td><td>&nbsp;</td></tr><tr><td>C49484</td><td>Not Done</td><td>ND</td><td>X</td><td>&nbsp;</td><td>&nbsp;</td><td>&nbsp;</td><td>&nbsp;</td><td>&nbsp;</td><td>&nbsp;</td><td>&nbsp;</td><td>&nbsp;</td><td>&nbsp;</td></tr></tbody></table><div style='page-break-after:always;'></div><table class="table table-striped table-bordered table-condensed"><thead><th>Identifier</th><th>Label</th><th>Submission Value</th><th>2007-04-20</th><th>2007-04-26</th><th>2007-05-31</th><th>2007-06-05</th><th>2008-01-15</th><th>2008-01-25</th><th>2008-08-26</th><th>2008-09-22</th><th>2008-09-24</th><th>2008-09-30</th></tr></thead><tbody><tr><td>C49704</td><td>Common Terminology Criteria for Adverse Events</td><td>TOXGR</td><td>X</td><td>&nbsp;</td><td>&nbsp;</td><td>&nbsp;</td><td>&nbsp;</td><td>&nbsp;</td><td>&nbsp;</td><td>&nbsp;</td><td>&nbsp;</td><td>&nbsp;</td></tr><tr><td>C38114</td><td>Route of Administration</td><td>ROUTE</td><td>X</td><td>&nbsp;</td><td>&nbsp;</td><td>&nbsp;</td><td>&nbsp;</td><td>&nbsp;</td><td>&nbsp;</td><td>&nbsp;</td><td>&nbsp;</td><td>&nbsp;</td></tr><tr><td>C16564</td><td>Patient Ethnic Group</td><td>ETHNIC</td><td>X</td><td>&nbsp;</td><td>&nbsp;</td><td>&nbsp;</td><td>&nbsp;</td><td>&nbsp;</td><td>&nbsp;</td><td>&nbsp;</td><td>&nbsp;</td><td>&nbsp;</td></tr><tr><td>C49489</td><td>Adverse Event Outcome</td><td>OUT</td><td>X</td><td>&nbsp;</td><td>&nbsp;</td><td>&nbsp;</td><td>&nbsp;</td><td>&nbsp;</td><td>&nbsp;</td><td>&nbsp;</td><td>&nbsp;</td><td>&nbsp;</td></tr><tr><td>C49647</td><td>Control Type</td><td>TCNTRL</td><td>U</td><td>X</td><td>&nbsp;</td><td>&nbsp;</td><td>&nbsp;</td><td>&nbsp;</td><td>&nbsp;</td><td>&nbsp;</td><td>&nbsp;</td><td>&nbsp;</td></tr><tr><td>C49705</td><td>Severity/Intensity Scale for Adverse Events</td><td>AESEV</td><td>X</td><td>&nbsp;</td><td>&nbsp;</td><td>&nbsp;</td><td>&nbsp;</td><td>&nbsp;</td><td>&nbsp;</td><td>&nbsp;</td><td>&nbsp;</td><td>&nbsp;</td></tr><tr><td>C49691</td><td>Trial Summary Parameter</td><td>TSPARM</td><td>X</td><td>&nbsp;</td><td>&nbsp;</td><td>&nbsp;</td><td>&nbsp;</td><td>&nbsp;</td><td>&nbsp;</td><td>&nbsp;</td><td>&nbsp;</td><td>&nbsp;</td></tr><tr><td>C25681</td><td>Size</td><td>SIZE</td><td>X</td><td>&nbsp;</td><td>&nbsp;</td><td>&nbsp;</td><td>&nbsp;</td><td>&nbsp;</td><td>&nbsp;</td><td>&nbsp;</td><td>&nbsp;</td><td>&nbsp;</td></tr></tbody></table><div style='page-break-after:always;'></div><table class="table table-striped table-bordered table-condensed"><thead><th>Identifier</th><th>Label</th><th>Submission Value</th><th>2007-04-20</th><th>2007-04-26</th><th>2007-05-31</th><th>2007-06-05</th><th>2008-01-15</th><th>2008-01-25</th><th>2008-08-26</th><th>2008-09-22</th><th>2008-09-24</th><th>2008-09-30</th></tr></thead><tbody><tr><td>C49672</td><td>Vital Signs</td><td>VSTEST</td><td>X</td><td>&nbsp;</td><td>&nbsp;</td><td>&nbsp;</td><td>&nbsp;</td><td>&nbsp;</td><td>&nbsp;</td><td>&nbsp;</td><td>&nbsp;</td><td>&nbsp;</td></tr><tr><td>C48281</td><td>Trial Phase</td><td>TPHASE</td><td>X</td><td>&nbsp;</td><td>&nbsp;</td><td>&nbsp;</td><td>&nbsp;</td><td>&nbsp;</td><td>&nbsp;</td><td>&nbsp;</td><td>&nbsp;</td><td>&nbsp;</td></tr><tr><td>C49696</td><td>Sex of Study Group</td><td>SEXPOP</td><td>X</td><td>&nbsp;</td><td>&nbsp;</td><td>&nbsp;</td><td>&nbsp;</td><td>&nbsp;</td><td>&nbsp;</td><td>&nbsp;</td><td>&nbsp;</td><td>&nbsp;</td></tr><tr><td>C49652</td><td>Trial Indication Type</td><td>TINDTP</td><td>X</td><td>&nbsp;</td><td>&nbsp;</td><td>&nbsp;</td><td>&nbsp;</td><td>&nbsp;</td><td>&nbsp;</td><td>&nbsp;</td><td>&nbsp;</td><td>&nbsp;</td></tr><tr><td>C28421</td><td>Sex</td><td>SEX</td><td>X</td><td>&nbsp;</td><td>&nbsp;</td><td>&nbsp;</td><td>&nbsp;</td><td>&nbsp;</td><td>&nbsp;</td><td>&nbsp;</td><td>&nbsp;</td><td>&nbsp;</td></tr><tr><td>C49558</td><td>Submission Domain Abbreviation</td><td>DOMAIN</td><td>X</td><td>&nbsp;</td><td>&nbsp;</td><td>&nbsp;</td><td>&nbsp;</td><td>&nbsp;</td><td>&nbsp;</td><td>&nbsp;</td><td>&nbsp;</td><td>&nbsp;</td></tr><tr><td>C49658</td><td>Trial Blinding Schema</td><td>[TBLIND]</td><td>X</td><td>&nbsp;</td><td>&nbsp;</td><td>&nbsp;</td><td>&nbsp;</td><td>&nbsp;</td><td>&nbsp;</td><td>&nbsp;</td><td>&nbsp;</td><td>&nbsp;</td></tr><tr><td>C49486</td><td>Yes, No, Unknown, or Not Applicable Response</td><td>NY</td><td>X</td><td>&nbsp;</td><td>&nbsp;</td><td>&nbsp;</td><td>&nbsp;</td><td>&nbsp;</td><td>&nbsp;</td><td>&nbsp;</td><td>&nbsp;</td><td>&nbsp;</td></tr></tbody></table><div style='page-break-after:always;'></div><table class="table table-striped table-bordered table-condensed"><thead><th>Identifier</th><th>Label</th><th>Submission Value</th><th>2007-04-20</th><th>2007-04-26</th><th>2007-05-31</th><th>2007-06-05</th><th>2008-01-15</th><th>2008-01-25</th><th>2008-08-26</th><th>2008-09-22</th><th>2008-09-24</th><th>2008-09-30</th></tr></thead><tbody><tr><td>C65047</td><td>CDISC SDTM Laboratory Test Terminology</td><td>LABTEST</td><td>U</td><td>-</td><td>U</td><td>-</td><td>-</td><td>-</td><td>U</td><td>-</td><td>-</td><td>-</td></tr><tr><td>C49675</td><td>Units for Vital Signs Results</td><td>VSRESU</td><td>X</td><td>&nbsp;</td><td>&nbsp;</td><td>&nbsp;</td><td>&nbsp;</td><td>&nbsp;</td><td>&nbsp;</td><td>&nbsp;</td><td>&nbsp;</td><td>&nbsp;</td></tr><tr><td>C49660</td><td>Trial Type</td><td>TTYPE</td><td>X</td><td>&nbsp;</td><td>&nbsp;</td><td>&nbsp;</td><td>&nbsp;</td><td>&nbsp;</td><td>&nbsp;</td><td>&nbsp;</td><td>&nbsp;</td><td>&nbsp;</td></tr><tr><td>C66769</td><td>Severity/Intensity Scale for Adverse Events</td><td>AESEV</td><td>C</td><td>-</td><td>U</td><td>-</td><td>-</td><td>-</td><td>-</td><td>-</td><td>-</td><td>-</td></tr><tr><td>C66790</td><td>Patient Ethnic Group</td><td>ETHNIC</td><td>C</td><td>-</td><td>U</td><td>-</td><td>-</td><td>-</td><td>-</td><td>-</td><td>-</td><td>-</td></tr><tr><td>C66738</td><td>Trial Summary Parameter Test Code</td><td>TSPARMCD</td><td>C</td><td>-</td><td>U</td><td>U</td><td>-</td><td>-</td><td>-</td><td>-</td><td>-</td><td>-</td></tr><tr><td>C66733</td><td>Size</td><td>SIZE</td><td>C</td><td>-</td><td>U</td><td>-</td><td>-</td><td>-</td><td>-</td><td>-</td><td>-</td><td>-</td></tr><tr><td>C67154</td><td>Laboratory Test Name</td><td>LBTEST</td><td>C</td><td>-</td><td>U</td><td>-</td><td>-</td><td>-</td><td>U</td><td>-</td><td>-</td><td>-</td></tr></tbody></table><div style='page-break-after:always;'></div><table class="table table-striped table-bordered table-condensed"><thead><th>Identifier</th><th>Label</th><th>Submission Value</th><th>2007-04-20</th><th>2007-04-26</th><th>2007-05-31</th><th>2007-06-05</th><th>2008-01-15</th><th>2008-01-25</th><th>2008-08-26</th><th>2008-09-22</th><th>2008-09-24</th><th>2008-09-30</th></tr></thead><tbody><tr><td>C66786</td><td>Country</td><td>COUNTRY</td><td>C</td><td>-</td><td>U</td><td>-</td><td>-</td><td>-</td><td>-</td><td>-</td><td>-</td><td>-</td></tr><tr><td>C66781</td><td>Age Unit</td><td>AGEU</td><td>C</td><td>-</td><td>U</td><td>-</td><td>-</td><td>-</td><td>-</td><td>-</td><td>-</td><td>-</td></tr><tr><td>C66729</td><td>Route of Administration</td><td>ROUTE</td><td>C</td><td>-</td><td>U</td><td>-</td><td>-</td><td>-</td><td>-</td><td>-</td><td>-</td><td>-</td></tr><tr><td>C66789</td><td>Not Done</td><td>ND</td><td>C</td><td>-</td><td>U</td><td>-</td><td>-</td><td>-</td><td>-</td><td>-</td><td>-</td><td>-</td></tr><tr><td>C66737</td><td>Trial Phase</td><td>TPHASE</td><td>C</td><td>U</td><td>U</td><td>-</td><td>-</td><td>-</td><td>U</td><td>U</td><td>-</td><td>-</td></tr><tr><td>C66732</td><td>Sex of Participants</td><td>SEXPOP</td><td>C</td><td>-</td><td>U</td><td>-</td><td>-</td><td>-</td><td>-</td><td>-</td><td>-</td><td>-</td></tr><tr><td>C66780</td><td>Age Span</td><td>AGESPAN</td><td>C</td><td>-</td><td>U</td><td>-</td><td>-</td><td>-</td><td>-</td><td>-</td><td>-</td><td>-</td></tr><tr><td>C66728</td><td>Relation to Reference Period</td><td>STENRF</td><td>C</td><td>-</td><td>U</td><td>-</td><td>-</td><td>-</td><td>-</td><td>-</td><td>-</td><td>-</td></tr></tbody></table><div style='page-break-after:always;'></div><table class="table table-striped table-bordered table-condensed"><thead><th>Identifier</th><th>Label</th><th>Submission Value</th><th>2007-04-20</th><th>2007-04-26</th><th>2007-05-31</th><th>2007-06-05</th><th>2008-01-15</th><th>2008-01-25</th><th>2008-08-26</th><th>2008-09-22</th><th>2008-09-24</th><th>2008-09-30</th></tr></thead><tbody><tr><td>C66770</td><td>Units for Vital Signs Results</td><td>VSRESU</td><td>C</td><td>-</td><td>U</td><td>-</td><td>-</td><td>-</td><td>-</td><td>-</td><td>-</td><td>-</td></tr><tr><td>C67152</td><td>Trial Summary Parameter Test Name</td><td>TSPARM</td><td>C</td><td>-</td><td>U</td><td>-</td><td>-</td><td>-</td><td>-</td><td>-</td><td>-</td><td>-</td></tr><tr><td>C66783</td><td>CDISC System Organ Class</td><td>SOC</td><td>C</td><td>-</td><td>U</td><td>-</td><td>-</td><td>-</td><td>-</td><td>-</td><td>-</td><td>-</td></tr><tr><td>C66797</td><td>Category for Inclusion/Exclusion</td><td>IECAT</td><td>C</td><td>-</td><td>U</td><td>-</td><td>-</td><td>-</td><td>-</td><td>-</td><td>-</td><td>-</td></tr><tr><td>C66768</td><td>Outcome of Event</td><td>OUT</td><td>C</td><td>-</td><td>U</td><td>-</td><td>-</td><td>-</td><td>-</td><td>-</td><td>-</td><td>-</td></tr><tr><td>C66767</td><td>Action Taken with Study Treatment</td><td>ACN</td><td>C</td><td>-</td><td>U</td><td>-</td><td>-</td><td>-</td><td>-</td><td>-</td><td>-</td><td>-</td></tr><tr><td>C66741</td><td>Vital Signs Test Code</td><td>VSTESTCD</td><td>C</td><td>-</td><td>U</td><td>-</td><td>-</td><td>-</td><td>-</td><td>-</td><td>-</td><td>-</td></tr><tr><td>C66788</td><td>Dictionary Name</td><td>DICTNAM</td><td>C</td><td>-</td><td>U</td><td>-</td><td>-</td><td>-</td><td>-</td><td>-</td><td>-</td><td>-</td></tr></tbody></table><div style='page-break-after:always;'></div><table class="table table-striped table-bordered table-condensed"><thead><th>Identifier</th><th>Label</th><th>Submission Value</th><th>2007-04-20</th><th>2007-04-26</th><th>2007-05-31</th><th>2007-06-05</th><th>2008-01-15</th><th>2008-01-25</th><th>2008-08-26</th><th>2008-09-22</th><th>2008-09-24</th><th>2008-09-30</th></tr></thead><tbody><tr><td>C66736</td><td>Trial Indication Type</td><td>TINDTP</td><td>C</td><td>-</td><td>U</td><td>-</td><td>-</td><td>-</td><td>-</td><td>-</td><td>-</td><td>-</td></tr><tr><td>C66787</td><td>Diagnosis Group</td><td>TDIGRP</td><td>C</td><td>-</td><td>U</td><td>-</td><td>-</td><td>-</td><td>-</td><td>-</td><td>-</td><td>-</td></tr><tr><td>C67153</td><td>Vital Signs Test Name</td><td>VSTEST</td><td>C</td><td>-</td><td>U</td><td>-</td><td>-</td><td>-</td><td>-</td><td>-</td><td>-</td><td>-</td></tr><tr><td>C66727</td><td>Completion/Reason for Non-Completion</td><td>NCOMPLT</td><td>C</td><td>-</td><td>U</td><td>-</td><td>-</td><td>-</td><td>U</td><td>U</td><td>-</td><td>-</td></tr><tr><td>C66784</td><td>Common Terminology Criteria for Adverse Events</td><td>TOXGR</td><td>C</td><td>-</td><td>U</td><td>-</td><td>-</td><td>-</td><td>-</td><td>-</td><td>-</td><td>-</td></tr><tr><td>C66734</td><td>Domain Abbreviation</td><td>DOMAIN</td><td>C</td><td>-</td><td>U</td><td>-</td><td>-</td><td>-</td><td>-</td><td>-</td><td>-</td><td>-</td></tr><tr><td>C66726</td><td>Pharmaceutical Dosage Form</td><td>FRM</td><td>C</td><td>-</td><td>U</td><td>-</td><td>-</td><td>-</td><td>U</td><td>-</td><td>-</td><td>-</td></tr><tr><td>C66731</td><td>Sex</td><td>SEX</td><td>C</td><td>-</td><td>U</td><td>-</td><td>-</td><td>-</td><td>-</td><td>-</td><td>-</td><td>-</td></tr></tbody></table><div style='page-break-after:always;'></div><table class="table table-striped table-bordered table-condensed"><thead><th>Identifier</th><th>Label</th><th>Submission Value</th><th>2007-04-20</th><th>2007-04-26</th><th>2007-05-31</th><th>2007-06-05</th><th>2008-01-15</th><th>2008-01-25</th><th>2008-08-26</th><th>2008-09-22</th><th>2008-09-24</th><th>2008-09-30</th></tr></thead><tbody><tr><td>C66735</td><td>Trial Blinding Schema</td><td>TBLIND</td><td>C</td><td>-</td><td>U</td><td>-</td><td>-</td><td>-</td><td>-</td><td>-</td><td>-</td><td>-</td></tr><tr><td>C66742</td><td>No Yes Response</td><td>NY</td><td>C</td><td>-</td><td>U</td><td>-</td><td>-</td><td>-</td><td>-</td><td>-</td><td>-</td><td>-</td></tr><tr><td>C66739</td><td>Trial Type</td><td>TTYPE</td><td>C</td><td>-</td><td>U</td><td>-</td><td>-</td><td>-</td><td>-</td><td>-</td><td>-</td><td>-</td></tr><tr><td>C66785</td><td>Control Type</td><td>TCNTRL</td><td>&nbsp;</td><td>C</td><td>U</td><td>-</td><td>-</td><td>-</td><td>-</td><td>-</td><td>-</td><td>-</td></tr><tr><td>C71153</td><td>ECG Test Code</td><td>EGTESTCD</td><td>&nbsp;</td><td>&nbsp;</td><td>&nbsp;</td><td>&nbsp;</td><td>C</td><td>-</td><td>U</td><td>U</td><td>-</td><td>-</td></tr><tr><td>C71620</td><td>Unit</td><td>UNIT</td><td>&nbsp;</td><td>&nbsp;</td><td>&nbsp;</td><td>&nbsp;</td><td>C</td><td>-</td><td>-</td><td>U</td><td>-</td><td>U</td></tr><tr><td>C71150</td><td>ECG Result</td><td>EGSTRESC</td><td>&nbsp;</td><td>&nbsp;</td><td>&nbsp;</td><td>&nbsp;</td><td>C</td><td>-</td><td>-</td><td>-</td><td>-</td><td>-</td></tr><tr><td>C71152</td><td>ECG Test Name</td><td>EGTEST</td><td>&nbsp;</td><td>&nbsp;</td><td>&nbsp;</td><td>&nbsp;</td><td>C</td><td>-</td><td>U</td><td>U</td><td>-</td><td>-</td></tr></tbody></table><div style='page-break-after:always;'></div><table class="table table-striped table-bordered table-condensed"><thead><th>Identifier</th><th>Label</th><th>Submission Value</th><th>2007-04-20</th><th>2007-04-26</th><th>2007-05-31</th><th>2007-06-05</th><th>2008-01-15</th><th>2008-01-25</th><th>2008-08-26</th><th>2008-09-22</th><th>2008-09-24</th><th>2008-09-30</th></tr></thead><tbody><tr><td>C71151</td><td>ECG Test Method</td><td>EGMETHOD</td><td>&nbsp;</td><td>&nbsp;</td><td>&nbsp;</td><td>&nbsp;</td><td>C</td><td>-</td><td>-</td><td>-</td><td>-</td><td>-</td></tr><tr><td>C71148</td><td>Position</td><td>POSITION</td><td>&nbsp;</td><td>&nbsp;</td><td>&nbsp;</td><td>&nbsp;</td><td>C</td><td>U</td><td>-</td><td>-</td><td>-</td><td>-</td></tr><tr><td>C71113</td><td>Frequency</td><td>FREQ</td><td>&nbsp;</td><td>&nbsp;</td><td>&nbsp;</td><td>&nbsp;</td><td>C</td><td>-</td><td>-</td><td>-</td><td>-</td><td>-</td></tr><tr><td>C74561</td><td>Skin Type</td><td>SKINTYP</td><td>&nbsp;</td><td>&nbsp;</td><td>&nbsp;</td><td>&nbsp;</td><td>&nbsp;</td><td>&nbsp;</td><td>C</td><td>-</td><td>-</td><td>-</td></tr><tr><td>C74560</td><td>Skin Classification</td><td>SKINCLAS</td><td>&nbsp;</td><td>&nbsp;</td><td>&nbsp;</td><td>&nbsp;</td><td>&nbsp;</td><td>&nbsp;</td><td>C</td><td>-</td><td>X</td><td>&nbsp;</td></tr><tr><td>C74558</td><td>Category for Disposition Event</td><td>DSCAT</td><td>&nbsp;</td><td>&nbsp;</td><td>&nbsp;</td><td>&nbsp;</td><td>&nbsp;</td><td>&nbsp;</td><td>C</td><td>U</td><td>-</td><td>-</td></tr><tr><td>C74456</td><td>Anatomical Location</td><td>LOC</td><td>&nbsp;</td><td>&nbsp;</td><td>&nbsp;</td><td>&nbsp;</td><td>&nbsp;</td><td>&nbsp;</td><td>C</td><td>-</td><td>-</td><td>-</td></tr><tr><td>C74559</td><td>Subject Characteristic Code</td><td>SCCD</td><td>&nbsp;</td><td>&nbsp;</td><td>&nbsp;</td><td>&nbsp;</td><td>&nbsp;</td><td>&nbsp;</td><td>C</td><td>-</td><td>U</td><td>-</td></tr></tbody></table><div style='page-break-after:always;'></div><table class="table table-striped table-bordered table-condensed"><thead><th>Identifier</th><th>Label</th><th>Submission Value</th><th>2007-04-20</th><th>2007-04-26</th><th>2007-05-31</th><th>2007-06-05</th><th>2008-01-15</th><th>2008-01-25</th><th>2008-08-26</th><th>2008-09-22</th><th>2008-09-24</th><th>2008-09-30</th></tr></thead><tbody><tr><td>C25188</td><td>Marital Status</td><td>MARISTAT</td><td>&nbsp;</td><td>&nbsp;</td><td>&nbsp;</td><td>&nbsp;</td><td>&nbsp;</td><td>&nbsp;</td><td>&nbsp;</td><td>C</td><td>X</td><td>&nbsp;</td></tr><tr><td>C76348</td><td>Marital Status</td><td>MARISTAT</td><td>&nbsp;</td><td>&nbsp;</td><td>&nbsp;</td><td>&nbsp;</td><td>&nbsp;</td><td>&nbsp;</td><td>&nbsp;</td><td>&nbsp;</td><td>C</td><td>-</td></tr><tr><td>C74457</td><td>Race</td><td>RACE</td><td>&nbsp;</td><td>&nbsp;</td><td>&nbsp;</td><td>&nbsp;</td><td>&nbsp;</td><td>&nbsp;</td><td>&nbsp;</td><td>&nbsp;</td><td>C</td><td>-</td></tr><tr><td>C76351</td><td>Skin Classification</td><td>SKINCLAS</td><td>&nbsp;</td><td>&nbsp;</td><td>&nbsp;</td><td>&nbsp;</td><td>&nbsp;</td><td>&nbsp;</td><td>&nbsp;</td><td>&nbsp;</td><td>C</td><td>-</td></tr></body></html>