---
:created:
- :identifier: :C78732
  :id: aHR0cDovL3d3dy5jZGlzYy5vcmcvQzc4NzMyL1YxNCNDNzg3MzI=
  :last_id: ''
  :label: Drug Accountability Test Code
  :notation: DATESTCD
- :identifier: :C78731
  :id: aHR0cDovL3d3dy5jZGlzYy5vcmcvQzc4NzMxL1YxNCNDNzg3MzE=
  :last_id: ''
  :label: Drug Accountability Test Name
  :notation: DATEST
- :identifier: :C78735
  :id: aHR0cDovL3d3dy5jZGlzYy5vcmcvQzc4NzM1L1YxNiNDNzg3MzU=
  :last_id: ''
  :label: Evaluator
  :notation: EVAL
- :identifier: :C78738
  :id: aHR0cDovL3d3dy5jZGlzYy5vcmcvQzc4NzM4L1YxNCNDNzg3Mzg=
  :last_id: ''
  :label: Never/Current/Former Classification
  :notation: NCF
- :identifier: :C78736
  :id: aHR0cDovL3d3dy5jZGlzYy5vcmcvQzc4NzM2L1YxNCNDNzg3MzY=
  :last_id: ''
  :label: Reference Range Indicator
  :notation: NRIND
- :identifier: :C78737
  :id: aHR0cDovL3d3dy5jZGlzYy5vcmcvQzc4NzM3L1YxNCNDNzg3Mzc=
  :last_id: ''
  :label: Relationship Type
  :notation: RELTYPE
- :identifier: :C78733
  :id: aHR0cDovL3d3dy5jZGlzYy5vcmcvQzc4NzMzL1YxNCNDNzg3MzM=
  :last_id: ''
  :label: Specimen Condition
  :notation: SPECCOND
- :identifier: :C78734
  :id: aHR0cDovL3d3dy5jZGlzYy5vcmcvQzc4NzM0L1YxNCNDNzg3MzQ=
  :last_id: ''
  :label: Specimen Type
  :notation: SPECTYPE
:updated:
- :identifier: :C66781
  :id: aHR0cDovL3d3dy5jZGlzYy5vcmcvQzY2NzgxL1YxMyNDNjY3ODE=
  :last_id: aHR0cDovL3d3dy5jZGlzYy5vcmcvQzY2NzgxL1YxNiNDNjY3ODE=
  :label: Age Unit
  :notation: AGEU
- :identifier: :C74456
  :id: aHR0cDovL3d3dy5jZGlzYy5vcmcvQzc0NDU2L1Y4I0M3NDQ1Ng==
  :last_id: aHR0cDovL3d3dy5jZGlzYy5vcmcvQzc0NDU2L1YxNiNDNzQ0NTY=
  :label: Anatomical Location
  :notation: LOC
- :identifier: :C66783
  :id: aHR0cDovL3d3dy5jZGlzYy5vcmcvQzY2NzgzL1Y0I0M2Njc4Mw==
  :last_id: aHR0cDovL3d3dy5jZGlzYy5vcmcvQzY2NzgzL1YxNiNDNjY3ODM=
  :label: CDISC System Organ Class
  :notation: SOC
- :identifier: :C66797
  :id: aHR0cDovL3d3dy5jZGlzYy5vcmcvQzY2Nzk3L1YxMyNDNjY3OTc=
  :last_id: aHR0cDovL3d3dy5jZGlzYy5vcmcvQzY2Nzk3L1YxNiNDNjY3OTc=
  :label: Category for Inclusion/Exclusion
  :notation: IECAT
- :identifier: :C66784
  :id: aHR0cDovL3d3dy5jZGlzYy5vcmcvQzY2Nzg0L1YxMyNDNjY3ODQ=
  :last_id: aHR0cDovL3d3dy5jZGlzYy5vcmcvQzY2Nzg0L1YxNiNDNjY3ODQ=
  :label: Common Terminology Criteria for Adverse Events
  :notation: TOXGR
- :identifier: :C66727
  :id: aHR0cDovL3d3dy5jZGlzYy5vcmcvQzY2NzI3L1Y5I0M2NjcyNw==
  :last_id: aHR0cDovL3d3dy5jZGlzYy5vcmcvQzY2NzI3L1YxNiNDNjY3Mjc=
  :label: Completion/Reason for Non-Completion
  :notation: NCOMPLT
- :identifier: :C66786
  :id: aHR0cDovL3d3dy5jZGlzYy5vcmcvQzY2Nzg2L1Y0I0M2Njc4Ng==
  :last_id: aHR0cDovL3d3dy5jZGlzYy5vcmcvQzY2Nzg2L1YxNiNDNjY3ODY=
  :label: Country
  :notation: COUNTRY
- :identifier: :C66787
  :id: aHR0cDovL3d3dy5jZGlzYy5vcmcvQzY2Nzg3L1Y0I0M2Njc4Nw==
  :last_id: aHR0cDovL3d3dy5jZGlzYy5vcmcvQzY2Nzg3L1YxNiNDNjY3ODc=
  :label: Diagnosis Group
  :notation: TDIGRP
- :identifier: :C66788
  :id: aHR0cDovL3d3dy5jZGlzYy5vcmcvQzY2Nzg4L1Y0I0M2Njc4OA==
  :last_id: aHR0cDovL3d3dy5jZGlzYy5vcmcvQzY2Nzg4L1YxNiNDNjY3ODg=
  :label: Dictionary Name
  :notation: DICTNAM
- :identifier: :C66734
  :id: aHR0cDovL3d3dy5jZGlzYy5vcmcvQzY2NzM0L1Y0I0M2NjczNA==
  :last_id: aHR0cDovL3d3dy5jZGlzYy5vcmcvQzY2NzM0L1YxNiNDNjY3MzQ=
  :label: Domain Abbreviation
  :notation: DOMAIN
- :identifier: :C71150
  :id: aHR0cDovL3d3dy5jZGlzYy5vcmcvQzcxMTUwL1Y2I0M3MTE1MA==
  :last_id: aHR0cDovL3d3dy5jZGlzYy5vcmcvQzcxMTUwL1YxNiNDNzExNTA=
  :label: ECG Result
  :notation: EGSTRESC
- :identifier: :C65047
  :id: aHR0cDovL3d3dy5jZGlzYy5vcmcvQzY1MDQ3L1Y4I0M2NTA0Nw==
  :last_id: aHR0cDovL3d3dy5jZGlzYy5vcmcvQzY1MDQ3L1YxNiNDNjUwNDc=
  :label: Laboratory Test Code
  :notation: LBTESTCD
- :identifier: :C67154
  :id: aHR0cDovL3d3dy5jZGlzYy5vcmcvQzY3MTU0L1Y4I0M2NzE1NA==
  :last_id: aHR0cDovL3d3dy5jZGlzYy5vcmcvQzY3MTU0L1YxNiNDNjcxNTQ=
  :label: Laboratory Test Name
  :notation: LBTEST
- :identifier: :C76348
  :id: aHR0cDovL3d3dy5jZGlzYy5vcmcvQzc2MzQ4L1YxMCNDNzYzNDg=
  :last_id: aHR0cDovL3d3dy5jZGlzYy5vcmcvQzc2MzQ4L1YxNiNDNzYzNDg=
  :label: Marital Status
  :notation: MARISTAT
- :identifier: :C66790
  :id: aHR0cDovL3d3dy5jZGlzYy5vcmcvQzY2NzkwL1YxMyNDNjY3OTA=
  :last_id: aHR0cDovL3d3dy5jZGlzYy5vcmcvQzY2NzkwL1YxNiNDNjY3OTA=
  :label: Patient Ethnic Group
  :notation: ETHNIC
- :identifier: :C66726
  :id: aHR0cDovL3d3dy5jZGlzYy5vcmcvQzY2NzI2L1YxMyNDNjY3MjY=
  :last_id: aHR0cDovL3d3dy5jZGlzYy5vcmcvQzY2NzI2L1YxNiNDNjY3MjY=
  :label: Pharmaceutical Dosage Form
  :notation: FRM
- :identifier: :C66731
  :id: aHR0cDovL3d3dy5jZGlzYy5vcmcvQzY2NzMxL1Y0I0M2NjczMQ==
  :last_id: aHR0cDovL3d3dy5jZGlzYy5vcmcvQzY2NzMxL1YxNiNDNjY3MzE=
  :label: Sex
  :notation: SEX
- :identifier: :C66732
  :id: aHR0cDovL3d3dy5jZGlzYy5vcmcvQzY2NzMyL1Y0I0M2NjczMg==
  :last_id: aHR0cDovL3d3dy5jZGlzYy5vcmcvQzY2NzMyL1YxNiNDNjY3MzI=
  :label: Sex of Participants
  :notation: SEXPOP
- :identifier: :C76351
  :id: aHR0cDovL3d3dy5jZGlzYy5vcmcvQzc2MzUxL1YxMCNDNzYzNTE=
  :last_id: aHR0cDovL3d3dy5jZGlzYy5vcmcvQzc2MzUxL1YxNiNDNzYzNTE=
  :label: Skin Classification
  :notation: SKINCLAS
- :identifier: :C66736
  :id: aHR0cDovL3d3dy5jZGlzYy5vcmcvQzY2NzM2L1Y0I0M2NjczNg==
  :last_id: aHR0cDovL3d3dy5jZGlzYy5vcmcvQzY2NzM2L1YxNiNDNjY3MzY=
  :label: Trial Indication Type
  :notation: TINDTP
- :identifier: :C66737
  :id: aHR0cDovL3d3dy5jZGlzYy5vcmcvQzY2NzM3L1Y5I0M2NjczNw==
  :last_id: aHR0cDovL3d3dy5jZGlzYy5vcmcvQzY2NzM3L1YxNiNDNjY3Mzc=
  :label: Trial Phase
  :notation: TPHASE
- :identifier: :C66738
  :id: aHR0cDovL3d3dy5jZGlzYy5vcmcvQzY2NzM4L1Y1I0M2NjczOA==
  :last_id: aHR0cDovL3d3dy5jZGlzYy5vcmcvQzY2NzM4L1YxNiNDNjY3Mzg=
  :label: Trial Summary Parameter Test Code
  :notation: TSPARMCD
- :identifier: :C67152
  :id: aHR0cDovL3d3dy5jZGlzYy5vcmcvQzY3MTUyL1Y0I0M2NzE1Mg==
  :last_id: aHR0cDovL3d3dy5jZGlzYy5vcmcvQzY3MTUyL1YxNiNDNjcxNTI=
  :label: Trial Summary Parameter Test Name
  :notation: TSPARM
- :identifier: :C66739
  :id: aHR0cDovL3d3dy5jZGlzYy5vcmcvQzY2NzM5L1Y0I0M2NjczOQ==
  :last_id: aHR0cDovL3d3dy5jZGlzYy5vcmcvQzY2NzM5L1YxNiNDNjY3Mzk=
  :label: Trial Type
  :notation: TTYPE
- :identifier: :C71620
  :id: aHR0cDovL3d3dy5jZGlzYy5vcmcvQzcxNjIwL1YxMSNDNzE2MjA=
  :last_id: aHR0cDovL3d3dy5jZGlzYy5vcmcvQzcxNjIwL1YxNiNDNzE2MjA=
  :label: Unit
  :notation: UNIT
- :identifier: :C66770
  :id: aHR0cDovL3d3dy5jZGlzYy5vcmcvQzY2NzcwL1Y0I0M2Njc3MA==
  :last_id: aHR0cDovL3d3dy5jZGlzYy5vcmcvQzY2NzcwL1YxNiNDNjY3NzA=
  :label: Units for Vital Signs Results
  :notation: VSRESU
- :identifier: :C66741
  :id: aHR0cDovL3d3dy5jZGlzYy5vcmcvQzY2NzQxL1Y0I0M2Njc0MQ==
  :last_id: aHR0cDovL3d3dy5jZGlzYy5vcmcvQzY2NzQxL1YxNiNDNjY3NDE=
  :label: Vital Signs Test Code
  :notation: VSTESTCD
- :identifier: :C67153
  :id: aHR0cDovL3d3dy5jZGlzYy5vcmcvQzY3MTUzL1Y0I0M2NzE1Mw==
  :last_id: aHR0cDovL3d3dy5jZGlzYy5vcmcvQzY3MTUzL1YxNiNDNjcxNTM=
  :label: Vital Signs Test Name
  :notation: VSTEST
:deleted: []
