---
:created:
- :identifier: :C163385
  :id: aHR0cDovL3d3dy5jZGlzYy5vcmcvQzE2MzM4NS9WNjEjQzE2MzM4NQ==
  :last_id: ''
  :label: Asthma Daytime Symptom Diary v1.0 Questionnaire Test Code
  :notation: ADSD01TC
- :identifier: :C163384
  :id: aHR0cDovL3d3dy5jZGlzYy5vcmcvQzE2MzM4NC9WNjEjQzE2MzM4NA==
  :last_id: ''
  :label: Asthma Daytime Symptom Diary v1.0 Questionnaire Test Name
  :notation: ADSD01TN
- :identifier: :C163387
  :id: aHR0cDovL3d3dy5jZGlzYy5vcmcvQzE2MzM4Ny9WNjEjQzE2MzM4Nw==
  :last_id: ''
  :label: Asthma Nighttime Symptom Diary v1.0 Questionnaire Test Code
  :notation: ANSD01TC
- :identifier: :C163386
  :id: aHR0cDovL3d3dy5jZGlzYy5vcmcvQzE2MzM4Ni9WNjEjQzE2MzM4Ng==
  :last_id: ''
  :label: Asthma Nighttime Symptom Diary v1.0 Questionnaire Test Name
  :notation: ANSD01TN
- :identifier: :C163395
  :id: aHR0cDovL3d3dy5jZGlzYy5vcmcvQzE2MzM5NS9WNjEjQzE2MzM5NQ==
  :last_id: ''
  :label: Diabetes Distress Scale for Parents of Teens with Type 1 Diabetes Questionnaire
    Test Code
  :notation: DDS02TC
- :identifier: :C163394
  :id: aHR0cDovL3d3dy5jZGlzYy5vcmcvQzE2MzM5NC9WNjEjQzE2MzM5NA==
  :last_id: ''
  :label: Diabetes Distress Scale for Parents of Teens with Type 1 Diabetes Questionnaire
    Test Name
  :notation: DDS02TN
- :identifier: :C163397
  :id: aHR0cDovL3d3dy5jZGlzYy5vcmcvQzE2MzM5Ny9WNjEjQzE2MzM5Nw==
  :last_id: ''
  :label: Diabetes Distress Scale for Partners of Adults with Type 1 Diabetes Questionnaire
    Test Code
  :notation: DDS03TC
- :identifier: :C163396
  :id: aHR0cDovL3d3dy5jZGlzYy5vcmcvQzE2MzM5Ni9WNjEjQzE2MzM5Ng==
  :last_id: ''
  :label: Diabetes Distress Scale for Partners of Adults with Type 1 Diabetes Questionnaire
    Test Name
  :notation: DDS03TN
- :identifier: :C163389
  :id: aHR0cDovL3d3dy5jZGlzYy5vcmcvQzE2MzM4OS9WNjEjQzE2MzM4OQ==
  :last_id: ''
  :label: Generalized Anxiety Disorder - 7 Version 2 Questionnaire Test Code
  :notation: GAD02TC
- :identifier: :C163388
  :id: aHR0cDovL3d3dy5jZGlzYy5vcmcvQzE2MzM4OC9WNjEjQzE2MzM4OA==
  :last_id: ''
  :label: Generalized Anxiety Disorder - 7 Version 2 Questionnaire Test Name
  :notation: GAD02TN
- :identifier: :C163393
  :id: aHR0cDovL3d3dy5jZGlzYy5vcmcvQzE2MzM5My9WNjEjQzE2MzM5Mw==
  :last_id: ''
  :label: Hypoglycemic Confidence Scale Questionnaire Test Code
  :notation: HCS01TC
- :identifier: :C163392
  :id: aHR0cDovL3d3dy5jZGlzYy5vcmcvQzE2MzM5Mi9WNjEjQzE2MzM5Mg==
  :last_id: ''
  :label: Hypoglycemic Confidence Scale Questionnaire Test Name
  :notation: HCS01TN
- :identifier: :C163029
  :id: aHR0cDovL3d3dy5jZGlzYy5vcmcvQzE2MzAyOS9WNjEjQzE2MzAyOQ==
  :last_id: ''
  :label: Irradiation Field Orientation/Sequence Response
  :notation: IRORSEQR
- :identifier: :C163030
  :id: aHR0cDovL3d3dy5jZGlzYy5vcmcvQzE2MzAzMC9WNjEjQzE2MzAzMA==
  :last_id: ''
  :label: SEND Microbiology Test Code
  :notation: SMBTSTCD
- :identifier: :C163031
  :id: aHR0cDovL3d3dy5jZGlzYy5vcmcvQzE2MzAzMS9WNjEjQzE2MzAzMQ==
  :last_id: ''
  :label: SEND Microbiology Test Name
  :notation: SMBTST
- :identifier: :C163026
  :id: aHR0cDovL3d3dy5jZGlzYy5vcmcvQzE2MzAyNi9WNjEjQzE2MzAyNg==
  :last_id: ''
  :label: Study Monitoring Attribute Terminology
  :notation: Study Monitoring Attribute Terminology
- :identifier: :C163391
  :id: aHR0cDovL3d3dy5jZGlzYy5vcmcvQzE2MzM5MS9WNjEjQzE2MzM5MQ==
  :last_id: ''
  :label: 'The Glucose Monitoring System Satisfaction Survey Version: Type 1 Diabetes
    Questionnaire Test Code'
  :notation: GMSS01TC
- :identifier: :C163390
  :id: aHR0cDovL3d3dy5jZGlzYy5vcmcvQzE2MzM5MC9WNjEjQzE2MzM5MA==
  :last_id: ''
  :label: 'The Glucose Monitoring System Satisfaction Survey Version: Type 1 Diabetes
    Questionnaire Test Name'
  :notation: GMSS01TN
- :identifier: :C163027
  :id: aHR0cDovL3d3dy5jZGlzYy5vcmcvQzE2MzAyNy9WNjEjQzE2MzAyNw==
  :last_id: ''
  :label: Type 1 Diabetes Findings About Test Code
  :notation: D1FATSCD
- :identifier: :C163028
  :id: aHR0cDovL3d3dy5jZGlzYy5vcmcvQzE2MzAyOC9WNjEjQzE2MzAyOA==
  :last_id: ''
  :label: Type 1 Diabetes Findings About Test Name
  :notation: D1FATS
:updated:
- :identifier: :C158118
  :id: aHR0cDovL3d3dy5jZGlzYy5vcmcvQzE1ODExOC9WNTkjQzE1ODExOA==
  :last_id: aHR0cDovL3d3dy5jZGlzYy5vcmcvQzE1ODExOC9WNjEjQzE1ODExOA==
  :label: Age Estimation Method Response
  :notation: AGESMETH
- :identifier: :C74456
  :id: aHR0cDovL3d3dy5jZGlzYy5vcmcvQzc0NDU2L1Y2MCNDNzQ0NTY=
  :last_id: aHR0cDovL3d3dy5jZGlzYy5vcmcvQzc0NDU2L1Y2MSNDNzQ0NTY=
  :label: Anatomical Location
  :notation: LOC
- :identifier: :C89963
  :id: aHR0cDovL3d3dy5jZGlzYy5vcmcvQzg5OTYzL1Y0OSNDODk5NjM=
  :last_id: aHR0cDovL3d3dy5jZGlzYy5vcmcvQzg5OTYzL1Y2MSNDODk5NjM=
  :label: Category for Clinical Observation
  :notation: CLCAT
- :identifier: :C100129
  :id: aHR0cDovL3d3dy5jZGlzYy5vcmcvQzEwMDEyOS9WNjAjQzEwMDEyOQ==
  :last_id: aHR0cDovL3d3dy5jZGlzYy5vcmcvQzEwMDEyOS9WNjEjQzEwMDEyOQ==
  :label: Category of Questionnaire
  :notation: QSCAT
- :identifier: :C158116
  :id: aHR0cDovL3d3dy5jZGlzYy5vcmcvQzE1ODExNi9WNjAjQzE1ODExNg==
  :last_id: aHR0cDovL3d3dy5jZGlzYy5vcmcvQzE1ODExNi9WNjEjQzE1ODExNg==
  :label: Challenge Agent Parameter Code
  :notation: ACPARMCD
- :identifier: :C158117
  :id: aHR0cDovL3d3dy5jZGlzYy5vcmcvQzE1ODExNy9WNjAjQzE1ODExNw==
  :last_id: aHR0cDovL3d3dy5jZGlzYy5vcmcvQzE1ODExNy9WNjEjQzE1ODExNw==
  :label: Challenge Agent Parameter Long Name
  :notation: ACPARM
- :identifier: :C160930
  :id: aHR0cDovL3d3dy5jZGlzYy5vcmcvQzE2MDkzMC9WNjAjQzE2MDkzMA==
  :last_id: aHR0cDovL3d3dy5jZGlzYy5vcmcvQzE2MDkzMC9WNjEjQzE2MDkzMA==
  :label: Chemical Challenge Agent Name Response
  :notation: CHAGNAMR
- :identifier: :C142191
  :id: aHR0cDovL3d3dy5jZGlzYy5vcmcvQzE0MjE5MS9WNTQjQzE0MjE5MQ==
  :last_id: aHR0cDovL3d3dy5jZGlzYy5vcmcvQzE0MjE5MS9WNjEjQzE0MjE5MQ==
  :label: Clinical Study Attribute Terminology
  :notation: Clinical Study Attribute Terminology
- :identifier: :C139020
  :id: aHR0cDovL3d3dy5jZGlzYy5vcmcvQzEzOTAyMC9WNTMjQzEzOTAyMA==
  :last_id: aHR0cDovL3d3dy5jZGlzYy5vcmcvQzEzOTAyMC9WNjEjQzEzOTAyMA==
  :label: Clinical Trial Attribute Terminology
  :notation: Clinical Trial Attribute Terminology
- :identifier: :C106483
  :id: aHR0cDovL3d3dy5jZGlzYy5vcmcvQzEwNjQ4My9WNTkjQzEwNjQ4Mw==
  :last_id: aHR0cDovL3d3dy5jZGlzYy5vcmcvQzEwNjQ4My9WNjEjQzEwNjQ4Mw==
  :label: Device-In-Use Test Code
  :notation: DUTESTCD
- :identifier: :C106482
  :id: aHR0cDovL3d3dy5jZGlzYy5vcmcvQzEwNjQ4Mi9WNTkjQzEwNjQ4Mg==
  :last_id: aHR0cDovL3d3dy5jZGlzYy5vcmcvQzEwNjQ4Mi9WNjEjQzEwNjQ4Mg==
  :label: Device-In-Use Test Name
  :notation: DUTEST
- :identifier: :C66788
  :id: aHR0cDovL3d3dy5jZGlzYy5vcmcvQzY2Nzg4L1YyOCNDNjY3ODg=
  :last_id: aHR0cDovL3d3dy5jZGlzYy5vcmcvQzY2Nzg4L1Y2MSNDNjY3ODg=
  :label: Dictionary Name
  :notation: DICTNAM
- :identifier: :C99074
  :id: aHR0cDovL3d3dy5jZGlzYy5vcmcvQzk5MDc0L1Y2MCNDOTkwNzQ=
  :last_id: aHR0cDovL3d3dy5jZGlzYy5vcmcvQzk5MDc0L1Y2MSNDOTkwNzQ=
  :label: Directionality
  :notation: DIR
- :identifier: :C71150
  :id: aHR0cDovL3d3dy5jZGlzYy5vcmcvQzcxMTUwL1Y2MCNDNzExNTA=
  :last_id: aHR0cDovL3d3dy5jZGlzYy5vcmcvQzcxMTUwL1Y2MSNDNzExNTA=
  :label: ECG Result
  :notation: EGSTRESC
- :identifier: :C161617
  :id: aHR0cDovL3d3dy5jZGlzYy5vcmcvQzE2MTYxNy9WNjAjQzE2MTYxNw==
  :last_id: aHR0cDovL3d3dy5jZGlzYy5vcmcvQzE2MTYxNy9WNjEjQzE2MTYxNw==
  :label: European Organisation for the Research and Treatment of Cancer Quality of
    Life Questionnaire - Paliative Care Version 1.0 Questionnaire Test Code
  :notation: EOR02TC
- :identifier: :C161616
  :id: aHR0cDovL3d3dy5jZGlzYy5vcmcvQzE2MTYxNi9WNjAjQzE2MTYxNg==
  :last_id: aHR0cDovL3d3dy5jZGlzYy5vcmcvQzE2MTYxNi9WNjEjQzE2MTYxNg==
  :label: European Organisation for the Research and Treatment of Cancer Quality of
    Life Questionnaire - Paliative Care Version 1.0 Questionnaire Test Name
  :notation: EOR02TN
- :identifier: :C71113
  :id: aHR0cDovL3d3dy5jZGlzYy5vcmcvQzcxMTEzL1Y2MCNDNzExMTM=
  :last_id: aHR0cDovL3d3dy5jZGlzYy5vcmcvQzcxMTEzL1Y2MSNDNzExMTM=
  :label: Frequency
  :notation: FREQ
- :identifier: :C150774
  :id: aHR0cDovL3d3dy5jZGlzYy5vcmcvQzE1MDc3NC9WNTYjQzE1MDc3NA==
  :last_id: aHR0cDovL3d3dy5jZGlzYy5vcmcvQzE1MDc3NC9WNjEjQzE1MDc3NA==
  :label: Functional Assessment of Cancer Therapy-Colorectal Version 4 Questionnaire
    Test Code
  :notation: FAC008TC
- :identifier: :C150773
  :id: aHR0cDovL3d3dy5jZGlzYy5vcmcvQzE1MDc3My9WNTYjQzE1MDc3Mw==
  :last_id: aHR0cDovL3d3dy5jZGlzYy5vcmcvQzE1MDc3My9WNjEjQzE1MDc3Mw==
  :label: Functional Assessment of Cancer Therapy-Colorectal Version 4 Questionnaire
    Test Name
  :notation: FAC008TN
- :identifier: :C147544
  :id: aHR0cDovL3d3dy5jZGlzYy5vcmcvQzE0NzU0NC9WNTYjQzE0NzU0NA==
  :last_id: aHR0cDovL3d3dy5jZGlzYy5vcmcvQzE0NzU0NC9WNjEjQzE0NzU0NA==
  :label: Functional Assessment of Chronic Illness Therapy-Fatigue 13-Item Scale Version
    4 Questionnaire Test Code
  :notation: FAC070TC
- :identifier: :C147543
  :id: aHR0cDovL3d3dy5jZGlzYy5vcmcvQzE0NzU0My9WNTYjQzE0NzU0Mw==
  :last_id: aHR0cDovL3d3dy5jZGlzYy5vcmcvQzE0NzU0My9WNjEjQzE0NzU0Mw==
  :label: Functional Assessment of Chronic Illness Therapy-Fatigue 13-Item Scale Version
    4 Questionnaire Test Name
  :notation: FAC070TN
- :identifier: :C106663
  :id: aHR0cDovL3d3dy5jZGlzYy5vcmcvQzEwNjY2My9WNDcjQzEwNjY2Mw==
  :last_id: aHR0cDovL3d3dy5jZGlzYy5vcmcvQzEwNjY2My9WNjEjQzEwNjY2Mw==
  :label: Geriatric Depression Scale Questionnaire Test Code
  :notation: GDS01TC
- :identifier: :C106662
  :id: aHR0cDovL3d3dy5jZGlzYy5vcmcvQzEwNjY2Mi9WNDcjQzEwNjY2Mg==
  :last_id: aHR0cDovL3d3dy5jZGlzYy5vcmcvQzEwNjY2Mi9WNjEjQzEwNjY2Mg==
  :label: Geriatric Depression Scale Questionnaire Test Name
  :notation: GDS01TN
- :identifier: :C106665
  :id: aHR0cDovL3d3dy5jZGlzYy5vcmcvQzEwNjY2NS9WNDcjQzEwNjY2NQ==
  :last_id: aHR0cDovL3d3dy5jZGlzYy5vcmcvQzEwNjY2NS9WNjEjQzEwNjY2NQ==
  :label: Geriatric Depression Scale Short Form Questionnaire Test Code
  :notation: GDS02TC
- :identifier: :C106664
  :id: aHR0cDovL3d3dy5jZGlzYy5vcmcvQzEwNjY2NC9WNDcjQzEwNjY2NA==
  :last_id: aHR0cDovL3d3dy5jZGlzYy5vcmcvQzEwNjY2NC9WNjEjQzEwNjY2NA==
  :label: Geriatric Depression Scale Short Form Questionnaire Test Name
  :notation: GDS02TN
- :identifier: :C120522
  :id: aHR0cDovL3d3dy5jZGlzYy5vcmcvQzEyMDUyMi9WNjAjQzEyMDUyMg==
  :last_id: aHR0cDovL3d3dy5jZGlzYy5vcmcvQzEyMDUyMi9WNjEjQzEyMDUyMg==
  :label: Holter ECG Results
  :notation: HESTRESC
- :identifier: :C65047
  :id: aHR0cDovL3d3dy5jZGlzYy5vcmcvQzY1MDQ3L1Y2MCNDNjUwNDc=
  :last_id: aHR0cDovL3d3dy5jZGlzYy5vcmcvQzY1MDQ3L1Y2MSNDNjUwNDc=
  :label: Laboratory Test Code
  :notation: LBTESTCD
- :identifier: :C67154
  :id: aHR0cDovL3d3dy5jZGlzYy5vcmcvQzY3MTU0L1Y2MCNDNjcxNTQ=
  :last_id: aHR0cDovL3d3dy5jZGlzYy5vcmcvQzY3MTU0L1Y2MSNDNjcxNTQ=
  :label: Laboratory Test Name
  :notation: LBTEST
- :identifier: :C102580
  :id: aHR0cDovL3d3dy5jZGlzYy5vcmcvQzEwMjU4MC9WNTYjQzEwMjU4MA==
  :last_id: aHR0cDovL3d3dy5jZGlzYy5vcmcvQzEwMjU4MC9WNjEjQzEwMjU4MA==
  :label: Laboratory Test Standard Character Result
  :notation: LBSTRESC
- :identifier: :C96777
  :id: aHR0cDovL3d3dy5jZGlzYy5vcmcvQzk2Nzc3L1Y1NyNDOTY3Nzc=
  :last_id: aHR0cDovL3d3dy5jZGlzYy5vcmcvQzk2Nzc3L1Y2MSNDOTY3Nzc=
  :label: Medical Evaluator
  :notation: MEDEVAL
- :identifier: :C85492
  :id: aHR0cDovL3d3dy5jZGlzYy5vcmcvQzg1NDkyL1Y2MCNDODU0OTI=
  :last_id: aHR0cDovL3d3dy5jZGlzYy5vcmcvQzg1NDkyL1Y2MSNDODU0OTI=
  :label: Method
  :notation: METHOD
- :identifier: :C120527
  :id: aHR0cDovL3d3dy5jZGlzYy5vcmcvQzEyMDUyNy9WNjAjQzEyMDUyNw==
  :last_id: aHR0cDovL3d3dy5jZGlzYy5vcmcvQzEyMDUyNy9WNjEjQzEyMDUyNw==
  :label: Microbiology Test Code
  :notation: MBTESTCD
- :identifier: :C120528
  :id: aHR0cDovL3d3dy5jZGlzYy5vcmcvQzEyMDUyOC9WNjAjQzEyMDUyOA==
  :last_id: aHR0cDovL3d3dy5jZGlzYy5vcmcvQzEyMDUyOC9WNjEjQzEyMDUyOA==
  :label: Microbiology Test Name
  :notation: MBTEST
- :identifier: :C88025
  :id: aHR0cDovL3d3dy5jZGlzYy5vcmcvQzg4MDI1L1Y2MCNDODgwMjU=
  :last_id: aHR0cDovL3d3dy5jZGlzYy5vcmcvQzg4MDI1L1Y2MSNDODgwMjU=
  :label: Neoplasm Type
  :notation: NEOPLASM
- :identifier: :C120531
  :id: aHR0cDovL3d3dy5jZGlzYy5vcmcvQzEyMDUzMS9WNjAjQzEyMDUzMQ==
  :last_id: aHR0cDovL3d3dy5jZGlzYy5vcmcvQzEyMDUzMS9WNjEjQzEyMDUzMQ==
  :label: Non-Neoplastic Finding Type
  :notation: NONNEO
- :identifier: :C96785
  :id: aHR0cDovL3d3dy5jZGlzYy5vcmcvQzk2Nzg1L1Y2MCNDOTY3ODU=
  :last_id: aHR0cDovL3d3dy5jZGlzYy5vcmcvQzk2Nzg1L1Y2MSNDOTY3ODU=
  :label: Oncology Response Assessment Result
  :notation: ONCRSR
- :identifier: :C85494
  :id: aHR0cDovL3d3dy5jZGlzYy5vcmcvQzg1NDk0L1Y2MCNDODU0OTQ=
  :last_id: aHR0cDovL3d3dy5jZGlzYy5vcmcvQzg1NDk0L1Y2MSNDODU0OTQ=
  :label: PK Units of Measure
  :notation: PKUNIT
- :identifier: :C147068
  :id: aHR0cDovL3d3dy5jZGlzYy5vcmcvQzE0NzA2OC9WNTUjQzE0NzA2OA==
  :last_id: aHR0cDovL3d3dy5jZGlzYy5vcmcvQzE0NzA2OC9WNjEjQzE0NzA2OA==
  :label: Subject Allocation Response
  :notation: Subject Allocation Response
- :identifier: :C66726
  :id: aHR0cDovL3d3dy5jZGlzYy5vcmcvQzY2NzI2L1Y2MCNDNjY3MjY=
  :last_id: aHR0cDovL3d3dy5jZGlzYy5vcmcvQzY2NzI2L1Y2MSNDNjY3MjY=
  :label: Pharmaceutical Dosage Form
  :notation: FRM
- :identifier: :C132310
  :id: aHR0cDovL3d3dy5jZGlzYy5vcmcvQzEzMjMxMC9WNjAjQzEzMjMxMA==
  :last_id: aHR0cDovL3d3dy5jZGlzYy5vcmcvQzEzMjMxMC9WNjEjQzEzMjMxMA==
  :label: Protocol Entity Terminology
  :notation: Protocol Entity Terminology
- :identifier: :C147069
  :id: aHR0cDovL3d3dy5jZGlzYy5vcmcvQzE0NzA2OS9WNTYjQzE0NzA2OQ==
  :last_id: aHR0cDovL3d3dy5jZGlzYy5vcmcvQzE0NzA2OS9WNjEjQzE0NzA2OQ==
  :label: Randomization Type Response
  :notation: Randomization Type Response
- :identifier: :C106479
  :id: aHR0cDovL3d3dy5jZGlzYy5vcmcvQzEwNjQ3OS9WNTkjQzEwNjQ3OQ==
  :last_id: aHR0cDovL3d3dy5jZGlzYy5vcmcvQzEwNjQ3OS9WNjEjQzEwNjQ3OQ==
  :label: Reproductive System Findings Test Code
  :notation: RPTESTCD
- :identifier: :C106478
  :id: aHR0cDovL3d3dy5jZGlzYy5vcmcvQzEwNjQ3OC9WNTkjQzEwNjQ3OA==
  :last_id: aHR0cDovL3d3dy5jZGlzYy5vcmcvQzEwNjQ3OC9WNjEjQzEwNjQ3OA==
  :label: Reproductive System Findings Test Name
  :notation: RPTEST
- :identifier: :C111106
  :id: aHR0cDovL3d3dy5jZGlzYy5vcmcvQzExMTEwNi9WNjAjQzExMTEwNg==
  :last_id: aHR0cDovL3d3dy5jZGlzYy5vcmcvQzExMTEwNi9WNjEjQzExMTEwNg==
  :label: Respiratory Test Code
  :notation: RETESTCD
- :identifier: :C111107
  :id: aHR0cDovL3d3dy5jZGlzYy5vcmcvQzExMTEwNy9WNjAjQzExMTEwNw==
  :last_id: aHR0cDovL3d3dy5jZGlzYy5vcmcvQzExMTEwNy9WNjEjQzExMTEwNw==
  :label: Respiratory Test Name
  :notation: RETEST
- :identifier: :C66734
  :id: aHR0cDovL3d3dy5jZGlzYy5vcmcvQzY2NzM0L1Y2MCNDNjY3MzQ=
  :last_id: aHR0cDovL3d3dy5jZGlzYy5vcmcvQzY2NzM0L1Y2MSNDNjY3MzQ=
  :label: SDTM Domain Abbreviation
  :notation: DOMAIN
- :identifier: :C111113
  :id: aHR0cDovL3d3dy5jZGlzYy5vcmcvQzExMTExMy9WNTcjQzExMTExMw==
  :last_id: aHR0cDovL3d3dy5jZGlzYy5vcmcvQzExMTExMy9WNjEjQzExMTExMw==
  :label: SEND Domain Abbreviation
  :notation: SDOMAIN
- :identifier: :C120534
  :id: aHR0cDovL3d3dy5jZGlzYy5vcmcvQzEyMDUzNC9WNTkjQzEyMDUzNA==
  :last_id: aHR0cDovL3d3dy5jZGlzYy5vcmcvQzEyMDUzNC9WNjEjQzEyMDUzNA==
  :label: SEND Respiratory Test Code
  :notation: SRETSTCD
- :identifier: :C120535
  :id: aHR0cDovL3d3dy5jZGlzYy5vcmcvQzEyMDUzNS9WNTkjQzEyMDUzNQ==
  :last_id: aHR0cDovL3d3dy5jZGlzYy5vcmcvQzEyMDUzNS9WNjEjQzEyMDUzNQ==
  :label: SEND Respiratory Test Name
  :notation: SRETST
- :identifier: :C77530
  :id: aHR0cDovL3d3dy5jZGlzYy5vcmcvQzc3NTMwL1Y2MCNDNzc1MzA=
  :last_id: aHR0cDovL3d3dy5jZGlzYy5vcmcvQzc3NTMwL1Y2MSNDNzc1MzA=
  :label: Strain/Substrain
  :notation: STRAIN
- :identifier: :C147066
  :id: aHR0cDovL3d3dy5jZGlzYy5vcmcvQzE0NzA2Ni9WNTYjQzE0NzA2Ng==
  :last_id: aHR0cDovL3d3dy5jZGlzYy5vcmcvQzE0NzA2Ni9WNjEjQzE0NzA2Ng==
  :label: Study Design Attribute Terminology
  :notation: Study Design Attribute Terminology
- :identifier: :C147067
  :id: aHR0cDovL3d3dy5jZGlzYy5vcmcvQzE0NzA2Ny9WNTUjQzE0NzA2Nw==
  :last_id: aHR0cDovL3d3dy5jZGlzYy5vcmcvQzE0NzA2Ny9WNjEjQzE0NzA2Nw==
  :label: Study Purpose Response
  :notation: Study Purpose Response
- :identifier: :C124307
  :id: aHR0cDovL3d3dy5jZGlzYy5vcmcvQzEyNDMwNy9WNDYjQzEyNDMwNw==
  :last_id: aHR0cDovL3d3dy5jZGlzYy5vcmcvQzEyNDMwNy9WNjEjQzEyNDMwNw==
  :label: Treatment Intent
  :notation: TRTINTNT
- :identifier: :C66738
  :id: aHR0cDovL3d3dy5jZGlzYy5vcmcvQzY2NzM4L1Y2MCNDNjY3Mzg=
  :last_id: aHR0cDovL3d3dy5jZGlzYy5vcmcvQzY2NzM4L1Y2MSNDNjY3Mzg=
  :label: Trial Summary Parameter Test Code
  :notation: TSPARMCD
- :identifier: :C67152
  :id: aHR0cDovL3d3dy5jZGlzYy5vcmcvQzY3MTUyL1Y2MCNDNjcxNTI=
  :last_id: aHR0cDovL3d3dy5jZGlzYy5vcmcvQzY3MTUyL1Y2MSNDNjcxNTI=
  :label: Trial Summary Parameter Test Name
  :notation: TSPARM
- :identifier: :C123650
  :id: aHR0cDovL3d3dy5jZGlzYy5vcmcvQzEyMzY1MC9WNjAjQzEyMzY1MA==
  :last_id: aHR0cDovL3d3dy5jZGlzYy5vcmcvQzEyMzY1MC9WNjEjQzEyMzY1MA==
  :label: Tumor or Lesion Identification Test Results
  :notation: TUIDRS
- :identifier: :C71620
  :id: aHR0cDovL3d3dy5jZGlzYy5vcmcvQzcxNjIwL1Y2MCNDNzE2MjA=
  :last_id: aHR0cDovL3d3dy5jZGlzYy5vcmcvQzcxNjIwL1Y2MSNDNzE2MjA=
  :label: Unit
  :notation: UNIT
- :identifier: :C66741
  :id: aHR0cDovL3d3dy5jZGlzYy5vcmcvQzY2NzQxL1Y1OSNDNjY3NDE=
  :last_id: aHR0cDovL3d3dy5jZGlzYy5vcmcvQzY2NzQxL1Y2MSNDNjY3NDE=
  :label: Vital Signs Test Code
  :notation: VSTESTCD
- :identifier: :C67153
  :id: aHR0cDovL3d3dy5jZGlzYy5vcmcvQzY3MTUzL1Y1OSNDNjcxNTM=
  :last_id: aHR0cDovL3d3dy5jZGlzYy5vcmcvQzY3MTUzL1Y2MSNDNjcxNTM=
  :label: Vital Signs Test Name
  :notation: VSTEST
:deleted: []
