---
:created:
- :identifier: :C158118
  :id: aHR0cDovL3d3dy5jZGlzYy5vcmcvQzE1ODExOC9WNTkjQzE1ODExOA==
  :last_id: ''
  :label: Age Estimation Method Response
  :notation: AGESMETH
- :identifier: :C161623
  :id: aHR0cDovL3d3dy5jZGlzYy5vcmcvQzE2MTYyMy9WNjAjQzE2MTYyMw==
  :last_id: ''
  :label: Alert Verbal Painful Unresponsive Scale Clinical Classification Test Code
  :notation: AVPU01TC
- :identifier: :C161622
  :id: aHR0cDovL3d3dy5jZGlzYy5vcmcvQzE2MTYyMi9WNjAjQzE2MTYyMg==
  :last_id: ''
  :label: Alert Verbal Painful Unresponsive Scale Clinical Classification Test Name
  :notation: AVPU01TN
- :identifier: :C158119
  :id: aHR0cDovL3d3dy5jZGlzYy5vcmcvQzE1ODExOS9WNTkjQzE1ODExOQ==
  :last_id: ''
  :label: Biological Challenge Agent Category Response
  :notation: BACAT
- :identifier: :C160927
  :id: aHR0cDovL3d3dy5jZGlzYy5vcmcvQzE2MDkyNy9WNjAjQzE2MDkyNw==
  :last_id: ''
  :label: Body Irradiation Model Response
  :notation: BIRRMRS
- :identifier: :C161625
  :id: aHR0cDovL3d3dy5jZGlzYy5vcmcvQzE2MTYyNS9WNjAjQzE2MTYyNQ==
  :last_id: ''
  :label: Brief Psychiatric Rating Scale 1988 Version Clinical Classification Test
    Code
  :notation: BPR02TC
- :identifier: :C161624
  :id: aHR0cDovL3d3dy5jZGlzYy5vcmcvQzE2MTYyNC9WNjAjQzE2MTYyNA==
  :last_id: ''
  :label: Brief Psychiatric Rating Scale 1988 Version Clinical Classification Test
    Name
  :notation: BPR02TN
- :identifier: :C160925
  :id: aHR0cDovL3d3dy5jZGlzYy5vcmcvQzE2MDkyNS9WNjAjQzE2MDkyNQ==
  :last_id: ''
  :label: CDISC Therapeutic Area User Guide Response
  :notation: CTAUGRS
- :identifier: :C158120
  :id: aHR0cDovL3d3dy5jZGlzYy5vcmcvQzE1ODEyMC9WNTkjQzE1ODEyMA==
  :last_id: ''
  :label: Challenge Agent Category Response
  :notation: CAGTCAT
- :identifier: :C158116
  :id: aHR0cDovL3d3dy5jZGlzYy5vcmcvQzE1ODExNi9WNjAjQzE1ODExNg==
  :last_id: ''
  :label: Challenge Agent Parameter Code
  :notation: ACPARMCD
- :identifier: :C158117
  :id: aHR0cDovL3d3dy5jZGlzYy5vcmcvQzE1ODExNy9WNjAjQzE1ODExNw==
  :last_id: ''
  :label: Challenge Agent Parameter Long Name
  :notation: ACPARM
- :identifier: :C160930
  :id: aHR0cDovL3d3dy5jZGlzYy5vcmcvQzE2MDkzMC9WNjAjQzE2MDkzMA==
  :last_id: ''
  :label: Chemical Challenge Agent Name Response
  :notation: CHAGNAMR
- :identifier: :C161621
  :id: aHR0cDovL3d3dy5jZGlzYy5vcmcvQzE2MTYyMS9WNjAjQzE2MTYyMQ==
  :last_id: ''
  :label: Diabetes Distress Scale for Adults with Type 1 Diabetes Questionnaire Test
    Code
  :notation: DDS01TC
- :identifier: :C161620
  :id: aHR0cDovL3d3dy5jZGlzYy5vcmcvQzE2MTYyMC9WNjAjQzE2MTYyMA==
  :last_id: ''
  :label: Diabetes Distress Scale for Adults with Type 1 Diabetes Questionnaire Test
    Name
  :notation: DDS01TN
- :identifier: :C161627
  :id: aHR0cDovL3d3dy5jZGlzYy5vcmcvQzE2MTYyNy9WNjAjQzE2MTYyNw==
  :last_id: ''
  :label: Emory Treatment Resistance Interview for PTSD Clinical Classification Test
    Code
  :notation: ETRP01TC
- :identifier: :C161626
  :id: aHR0cDovL3d3dy5jZGlzYy5vcmcvQzE2MTYyNi9WNjAjQzE2MTYyNg==
  :last_id: ''
  :label: Emory Treatment Resistance Interview for PTSD Clinical Classification Test
    Name
  :notation: ETRP01TN
- :identifier: :C161619
  :id: aHR0cDovL3d3dy5jZGlzYy5vcmcvQzE2MTYxOS9WNjAjQzE2MTYxOQ==
  :last_id: ''
  :label: European Organisation for the Research and Treatment of Cancer Quality of
    Life Questionnaire - Core 30 Version 3.0 Questionnaire Test Code
  :notation: EOR01TC
- :identifier: :C161618
  :id: aHR0cDovL3d3dy5jZGlzYy5vcmcvQzE2MTYxOC9WNjAjQzE2MTYxOA==
  :last_id: ''
  :label: European Organisation for the Research and Treatment of Cancer Quality of
    Life Questionnaire - Core 30 Version 3.0 Questionnaire Test Name
  :notation: EOR01TN
- :identifier: :C161617
  :id: aHR0cDovL3d3dy5jZGlzYy5vcmcvQzE2MTYxNy9WNjAjQzE2MTYxNw==
  :last_id: ''
  :label: European Organisation for the Research and Treatment of Cancer Quality of
    Life Questionnaire - Paliative Care Version 1.0 Questionnaire Test Code
  :notation: EOR02TC
- :identifier: :C161616
  :id: aHR0cDovL3d3dy5jZGlzYy5vcmcvQzE2MTYxNi9WNjAjQzE2MTYxNg==
  :last_id: ''
  :label: European Organisation for the Research and Treatment of Cancer Quality of
    Life Questionnaire - Paliative Care Version 1.0 Questionnaire Test Name
  :notation: EOR02TN
- :identifier: :C160929
  :id: aHR0cDovL3d3dy5jZGlzYy5vcmcvQzE2MDkyOS9WNjAjQzE2MDkyOQ==
  :last_id: ''
  :label: Expected Onset of Rad/Nuc Targeted Injury Response
  :notation: EORNTI
- :identifier: :C160926
  :id: aHR0cDovL3d3dy5jZGlzYy5vcmcvQzE2MDkyNi9WNjAjQzE2MDkyNg==
  :last_id: ''
  :label: FDA Technical Specification Response
  :notation: FDATSRS
- :identifier: :C160931
  :id: aHR0cDovL3d3dy5jZGlzYy5vcmcvQzE2MDkzMS9WNjAjQzE2MDkzMQ==
  :last_id: ''
  :label: Genus and Species Response
  :notation: GENUSSPC
- :identifier: :C158114
  :id: aHR0cDovL3d3dy5jZGlzYy5vcmcvQzE1ODExNC9WNTkjQzE1ODExNA==
  :last_id: ''
  :label: Geriatric Depression Scale Short Form Questionnaire Parameter Code
  :notation: GDS02PC
- :identifier: :C158115
  :id: aHR0cDovL3d3dy5jZGlzYy5vcmcvQzE1ODExNS9WNTkjQzE1ODExNQ==
  :last_id: ''
  :label: Geriatric Depression Scale Short Form Questionnaire Parameter Name
  :notation: GDS02PN
- :identifier: :C160922
  :id: aHR0cDovL3d3dy5jZGlzYy5vcmcvQzE2MDkyMi9WNjAjQzE2MDkyMg==
  :last_id: ''
  :label: Laboratory Analytical Method Calculation Formula
  :notation: LBANMET
- :identifier: :C157727
  :id: aHR0cDovL3d3dy5jZGlzYy5vcmcvQzE1NzcyNy9WNTkjQzE1NzcyNw==
  :last_id: ''
  :label: Patient Health Questionnaire - 2 Item Questionnaire Test Code
  :notation: PHQ04TC
- :identifier: :C157726
  :id: aHR0cDovL3d3dy5jZGlzYy5vcmcvQzE1NzcyNi9WNTkjQzE1NzcyNg==
  :last_id: ''
  :label: Patient Health Questionnaire - 2 Item Questionnaire Test Name
  :notation: PHQ04TN
- :identifier: :C158113
  :id: aHR0cDovL3d3dy5jZGlzYy5vcmcvQzE1ODExMy9WNTkjQzE1ODExMw==
  :last_id: ''
  :label: QRS Method
  :notation: QRSMTHOD
- :identifier: :C158121
  :id: aHR0cDovL3d3dy5jZGlzYy5vcmcvQzE1ODEyMS9WNjAjQzE1ODEyMQ==
  :last_id: ''
  :label: Rad/Nuc Agent Ionizing Radiation Type Response
  :notation: RNAIOTYP
- :identifier: :C158122
  :id: aHR0cDovL3d3dy5jZGlzYy5vcmcvQzE1ODEyMi9WNTkjQzE1ODEyMg==
  :last_id: ''
  :label: Rad/Nuc Agent Source Response
  :notation: RNASRC
- :identifier: :C160928
  :id: aHR0cDovL3d3dy5jZGlzYy5vcmcvQzE2MDkyOC9WNjAjQzE2MDkyOA==
  :last_id: ''
  :label: Rad/Nuc Targeted Injury Model Response
  :notation: RNTIMRS
- :identifier: :C158123
  :id: aHR0cDovL3d3dy5jZGlzYy5vcmcvQzE1ODEyMy9WNTkjQzE1ODEyMw==
  :last_id: ''
  :label: Restraint Mode Response
  :notation: RSTMODRS
- :identifier: :C160924
  :id: aHR0cDovL3d3dy5jZGlzYy5vcmcvQzE2MDkyNC9WNjAjQzE2MDkyNA==
  :last_id: ''
  :label: SDTM IG Version Response
  :notation: SDTMIGRS
- :identifier: :C160923
  :id: aHR0cDovL3d3dy5jZGlzYy5vcmcvQzE2MDkyMy9WNjAjQzE2MDkyMw==
  :last_id: ''
  :label: SDTM Version Response
  :notation: SDTMVRS
- :identifier: :C120536
  :id: aHR0cDovL3d3dy5jZGlzYy5vcmcvQzEyMDUzNi9WNjAjQzEyMDUzNg==
  :last_id: ''
  :label: SEND Vital Signs Test Code
  :notation: SVSTSTCD
- :identifier: :C120537
  :id: aHR0cDovL3d3dy5jZGlzYy5vcmcvQzEyMDUzNy9WNjAjQzEyMDUzNw==
  :last_id: ''
  :label: SEND Vital Signs Test Name
  :notation: SVSTST
- :identifier: :C158124
  :id: aHR0cDovL3d3dy5jZGlzYy5vcmcvQzE1ODEyNC9WNTkjQzE1ODEyNA==
  :last_id: ''
  :label: Sexual Maturity Status Response
  :notation: SEXMAT
- :identifier: :C160921
  :id: aHR0cDovL3d3dy5jZGlzYy5vcmcvQzE2MDkyMS9WNjAjQzE2MDkyMQ==
  :last_id: ''
  :label: Study Population Attribute Terminology
  :notation: Study Population Attribute Terminology
- :identifier: :C158125
  :id: aHR0cDovL3d3dy5jZGlzYy5vcmcvQzE1ODEyNS9WNTkjQzE1ODEyNQ==
  :last_id: ''
  :label: Study Report Status Response
  :notation: STRPSTAT
:updated:
- :identifier: :C101805
  :id: aHR0cDovL3d3dy5jZGlzYy5vcmcvQzEwMTgwNS9WNDcjQzEwMTgwNQ==
  :last_id: aHR0cDovL3d3dy5jZGlzYy5vcmcvQzEwMTgwNS9WNjAjQzEwMTgwNQ==
  :label: Abnormal Involuntary Movement Scale Questionnaire Test Code
  :notation: AIMS01TC
- :identifier: :C101806
  :id: aHR0cDovL3d3dy5jZGlzYy5vcmcvQzEwMTgwNi9WNDcjQzEwMTgwNg==
  :last_id: aHR0cDovL3d3dy5jZGlzYy5vcmcvQzEwMTgwNi9WNjAjQzEwMTgwNg==
  :label: Abnormal Involuntary Movement Scale Questionnaire Test Name
  :notation: AIMS01TN
- :identifier: :C74456
  :id: aHR0cDovL3d3dy5jZGlzYy5vcmcvQzc0NDU2L1Y1OCNDNzQ0NTY=
  :last_id: aHR0cDovL3d3dy5jZGlzYy5vcmcvQzc0NDU2L1Y2MCNDNzQ0NTY=
  :label: Anatomical Location
  :notation: LOC
- :identifier: :C142179
  :id: aHR0cDovL3d3dy5jZGlzYy5vcmcvQzE0MjE3OS9WNTQjQzE0MjE3OQ==
  :last_id: aHR0cDovL3d3dy5jZGlzYy5vcmcvQzE0MjE3OS9WNjAjQzE0MjE3OQ==
  :label: Arm Null Reason
  :notation: ARMNULRS
- :identifier: :C106655
  :id: aHR0cDovL3d3dy5jZGlzYy5vcmcvQzEwNjY1NS9WNDcjQzEwNjY1NQ==
  :last_id: aHR0cDovL3d3dy5jZGlzYy5vcmcvQzEwNjY1NS9WNjAjQzEwNjY1NQ==
  :label: Baseline Dyspnea Index Questionnaire Test Code
  :notation: BDI01TC
- :identifier: :C106654
  :id: aHR0cDovL3d3dy5jZGlzYy5vcmcvQzEwNjY1NC9WNDcjQzEwNjY1NA==
  :last_id: aHR0cDovL3d3dy5jZGlzYy5vcmcvQzEwNjY1NC9WNjAjQzEwNjY1NA==
  :label: Baseline Dyspnea Index Questionnaire Test Name
  :notation: BDI01TN
- :identifier: :C150812
  :id: aHR0cDovL3d3dy5jZGlzYy5vcmcvQzE1MDgxMi9WNTYjQzE1MDgxMg==
  :last_id: aHR0cDovL3d3dy5jZGlzYy5vcmcvQzE1MDgxMi9WNjAjQzE1MDgxMg==
  :label: CDAD Findings About Test Code
  :notation: CDFATSCD
- :identifier: :C150813
  :id: aHR0cDovL3d3dy5jZGlzYy5vcmcvQzE1MDgxMy9WNTYjQzE1MDgxMw==
  :last_id: aHR0cDovL3d3dy5jZGlzYy5vcmcvQzE1MDgxMy9WNjAjQzE1MDgxMw==
  :label: CDAD Findings About Test Name
  :notation: CDFATS
- :identifier: :C118971
  :id: aHR0cDovL3d3dy5jZGlzYy5vcmcvQzExODk3MS9WNTgjQzExODk3MQ==
  :last_id: aHR0cDovL3d3dy5jZGlzYy5vcmcvQzExODk3MS9WNjAjQzExODk3MQ==
  :label: Category of Clinical Classification
  :notation: CCCAT
- :identifier: :C115304
  :id: aHR0cDovL3d3dy5jZGlzYy5vcmcvQzExNTMwNC9WNTYjQzExNTMwNA==
  :last_id: aHR0cDovL3d3dy5jZGlzYy5vcmcvQzExNTMwNC9WNjAjQzExNTMwNA==
  :label: Category of Functional Test
  :notation: FTCAT
- :identifier: :C124298
  :id: aHR0cDovL3d3dy5jZGlzYy5vcmcvQzEyNDI5OC9WNTgjQzEyNDI5OA==
  :last_id: aHR0cDovL3d3dy5jZGlzYy5vcmcvQzEyNDI5OC9WNjAjQzEyNDI5OA==
  :label: Category of Oncology Response Assessment
  :notation: ONCRSCAT
- :identifier: :C100129
  :id: aHR0cDovL3d3dy5jZGlzYy5vcmcvQzEwMDEyOS9WNTcjQzEwMDEyOQ==
  :last_id: aHR0cDovL3d3dy5jZGlzYy5vcmcvQzEwMDEyOS9WNjAjQzEwMDEyOQ==
  :label: Category of Questionnaire
  :notation: QSCAT
- :identifier: :C66727
  :id: aHR0cDovL3d3dy5jZGlzYy5vcmcvQzY2NzI3L1Y1OCNDNjY3Mjc=
  :last_id: aHR0cDovL3d3dy5jZGlzYy5vcmcvQzY2NzI3L1Y2MCNDNjY3Mjc=
  :label: Completion/Reason for Non-Completion
  :notation: NCOMPLT
- :identifier: :C78419
  :id: aHR0cDovL3d3dy5jZGlzYy5vcmcvQzc4NDE5L1Y1NiNDNzg0MTk=
  :last_id: aHR0cDovL3d3dy5jZGlzYy5vcmcvQzc4NDE5L1Y2MCNDNzg0MTk=
  :label: Concomitant Medication Dosing Frequency per Interval
  :notation: CMDOSFRQ
- :identifier: :C66786
  :id: aHR0cDovL3d3dy5jZGlzYy5vcmcvQzY2Nzg2L1Y1MSNDNjY3ODY=
  :last_id: aHR0cDovL3d3dy5jZGlzYy5vcmcvQzY2Nzg2L1Y2MCNDNjY3ODY=
  :label: Country
  :notation: COUNTRY
- :identifier: :C119070
  :id: aHR0cDovL3d3dy5jZGlzYy5vcmcvQzExOTA3MC9WNDcjQzExOTA3MA==
  :last_id: aHR0cDovL3d3dy5jZGlzYy5vcmcvQzExOTA3MC9WNjAjQzExOTA3MA==
  :label: Dermatology Life Quality Index Questionnaire Test Code
  :notation: DLQI1TC
- :identifier: :C119069
  :id: aHR0cDovL3d3dy5jZGlzYy5vcmcvQzExOTA2OS9WNDcjQzExOTA2OQ==
  :last_id: aHR0cDovL3d3dy5jZGlzYy5vcmcvQzExOTA2OS9WNjAjQzExOTA2OQ==
  :label: Dermatology Life Quality Index Questionnaire Test Name
  :notation: DLQI1TN
- :identifier: :C111111
  :id: aHR0cDovL3d3dy5jZGlzYy5vcmcvQzExMTExMS9WNTgjQzExMTExMQ==
  :last_id: aHR0cDovL3d3dy5jZGlzYy5vcmcvQzExMTExMS9WNjAjQzExMTExMQ==
  :label: Device Properties Test Code
  :notation: DOTESTCD
- :identifier: :C111112
  :id: aHR0cDovL3d3dy5jZGlzYy5vcmcvQzExMTExMi9WNTgjQzExMTExMg==
  :last_id: aHR0cDovL3d3dy5jZGlzYy5vcmcvQzExMTExMi9WNjAjQzExMTExMg==
  :label: Device Properties Test Name
  :notation: DOTEST
- :identifier: :C106483
  :id: aHR0cDovL3d3dy5jZGlzYy5vcmcvQzEwNjQ4My9WNTgjQzEwNjQ4Mw==
  :last_id: aHR0cDovL3d3dy5jZGlzYy5vcmcvQzEwNjQ4My9WNTkjQzEwNjQ4Mw==
  :label: Device-In-Use Test Code
  :notation: DUTESTCD
- :identifier: :C106482
  :id: aHR0cDovL3d3dy5jZGlzYy5vcmcvQzEwNjQ4Mi9WNTgjQzEwNjQ4Mg==
  :last_id: aHR0cDovL3d3dy5jZGlzYy5vcmcvQzEwNjQ4Mi9WNTkjQzEwNjQ4Mg==
  :label: Device-In-Use Test Name
  :notation: DUTEST
- :identifier: :C99074
  :id: aHR0cDovL3d3dy5jZGlzYy5vcmcvQzk5MDc0L1Y1NSNDOTkwNzQ=
  :last_id: aHR0cDovL3d3dy5jZGlzYy5vcmcvQzk5MDc0L1Y2MCNDOTkwNzQ=
  :label: Directionality
  :notation: DIR
- :identifier: :C112437
  :id: aHR0cDovL3d3dy5jZGlzYy5vcmcvQzExMjQzNy9WNDcjQzExMjQzNw==
  :last_id: aHR0cDovL3d3dy5jZGlzYy5vcmcvQzExMjQzNy9WNjAjQzExMjQzNw==
  :label: Disease Steps Questionnaire Test Code
  :notation: DS01TC
- :identifier: :C112436
  :id: aHR0cDovL3d3dy5jZGlzYy5vcmcvQzExMjQzNi9WNDcjQzExMjQzNg==
  :last_id: aHR0cDovL3d3dy5jZGlzYy5vcmcvQzExMjQzNi9WNjAjQzExMjQzNg==
  :label: Disease Steps Questionnaire Test Name
  :notation: DS01TN
- :identifier: :C71150
  :id: aHR0cDovL3d3dy5jZGlzYy5vcmcvQzcxMTUwL1Y1NCNDNzExNTA=
  :last_id: aHR0cDovL3d3dy5jZGlzYy5vcmcvQzcxMTUwL1Y2MCNDNzExNTA=
  :label: ECG Result
  :notation: EGSTRESC
- :identifier: :C71153
  :id: aHR0cDovL3d3dy5jZGlzYy5vcmcvQzcxMTUzL1Y1MyNDNzExNTM=
  :last_id: aHR0cDovL3d3dy5jZGlzYy5vcmcvQzcxMTUzL1Y2MCNDNzExNTM=
  :label: ECG Test Code
  :notation: EGTESTCD
- :identifier: :C71151
  :id: aHR0cDovL3d3dy5jZGlzYy5vcmcvQzcxMTUxL1Y1NyNDNzExNTE=
  :last_id: aHR0cDovL3d3dy5jZGlzYy5vcmcvQzcxMTUxL1Y1OSNDNzExNTE=
  :label: ECG Test Method
  :notation: EGMETHOD
- :identifier: :C71152
  :id: aHR0cDovL3d3dy5jZGlzYy5vcmcvQzcxMTUyL1Y1MyNDNzExNTI=
  :last_id: aHR0cDovL3d3dy5jZGlzYy5vcmcvQzcxMTUyL1Y2MCNDNzExNTI=
  :label: ECG Test Name
  :notation: EGTEST
- :identifier: :C101815
  :id: aHR0cDovL3d3dy5jZGlzYy5vcmcvQzEwMTgxNS9WNDcjQzEwMTgxNQ==
  :last_id: aHR0cDovL3d3dy5jZGlzYy5vcmcvQzEwMTgxNS9WNjAjQzEwMTgxNQ==
  :label: Eastern Cooperative Oncology Group Performance Status Questionnaire Test
    Code
  :notation: ECOG1TC
- :identifier: :C101816
  :id: aHR0cDovL3d3dy5jZGlzYy5vcmcvQzEwMTgxNi9WNDcjQzEwMTgxNg==
  :last_id: aHR0cDovL3d3dy5jZGlzYy5vcmcvQzEwMTgxNi9WNjAjQzEwMTgxNg==
  :label: Eastern Cooperative Oncology Group Performance Status Questionnaire Test
    Name
  :notation: ECOG1TN
- :identifier: :C103463
  :id: aHR0cDovL3d3dy5jZGlzYy5vcmcvQzEwMzQ2My9WNDcjQzEwMzQ2Mw==
  :last_id: aHR0cDovL3d3dy5jZGlzYy5vcmcvQzEwMzQ2My9WNTkjQzEwMzQ2Mw==
  :label: Epworth Sleepiness Scale Questionnaire Test Code
  :notation: ESS01TC
- :identifier: :C103462
  :id: aHR0cDovL3d3dy5jZGlzYy5vcmcvQzEwMzQ2Mi9WNDcjQzEwMzQ2Mg==
  :last_id: aHR0cDovL3d3dy5jZGlzYy5vcmcvQzEwMzQ2Mi9WNTkjQzEwMzQ2Mg==
  :label: Epworth Sleepiness Scale Questionnaire Test Name
  :notation: ESS01TN
- :identifier: :C128690
  :id: aHR0cDovL3d3dy5jZGlzYy5vcmcvQzEyODY5MC9WNTgjQzEyODY5MA==
  :last_id: aHR0cDovL3d3dy5jZGlzYy5vcmcvQzEyODY5MC9WNTkjQzEyODY5MA==
  :label: Ethnicity As Collected
  :notation: ETHNICC
- :identifier: :C78745
  :id: aHR0cDovL3d3dy5jZGlzYy5vcmcvQzc4NzQ1L1Y1NiNDNzg3NDU=
  :last_id: aHR0cDovL3d3dy5jZGlzYy5vcmcvQzc4NzQ1L1Y2MCNDNzg3NDU=
  :label: Exposure Dosing Frequency per Interval
  :notation: EXDOSFRQ
- :identifier: :C124310
  :id: aHR0cDovL3d3dy5jZGlzYy5vcmcvQzEyNDMxMC9WNTMjQzEyNDMxMA==
  :last_id: aHR0cDovL3d3dy5jZGlzYy5vcmcvQzEyNDMxMC9WNjAjQzEyNDMxMA==
  :label: Fetal Pathology Findings Result
  :notation: FXFINDRS
- :identifier: :C71113
  :id: aHR0cDovL3d3dy5jZGlzYy5vcmcvQzcxMTEzL1Y1OCNDNzExMTM=
  :last_id: aHR0cDovL3d3dy5jZGlzYy5vcmcvQzcxMTEzL1Y2MCNDNzExMTM=
  :label: Frequency
  :notation: FREQ
- :identifier: :C120522
  :id: aHR0cDovL3d3dy5jZGlzYy5vcmcvQzEyMDUyMi9WNTQjQzEyMDUyMg==
  :last_id: aHR0cDovL3d3dy5jZGlzYy5vcmcvQzEyMDUyMi9WNjAjQzEyMDUyMg==
  :label: Holter ECG Results
  :notation: HESTRESC
- :identifier: :C120525
  :id: aHR0cDovL3d3dy5jZGlzYy5vcmcvQzEyMDUyNS9WNTYjQzEyMDUyNQ==
  :last_id: aHR0cDovL3d3dy5jZGlzYy5vcmcvQzEyMDUyNS9WNjAjQzEyMDUyNQ==
  :label: Immunogenicity Specimen Assessments Test Code
  :notation: ISTESTCD
- :identifier: :C120526
  :id: aHR0cDovL3d3dy5jZGlzYy5vcmcvQzEyMDUyNi9WNTYjQzEyMDUyNg==
  :last_id: aHR0cDovL3d3dy5jZGlzYy5vcmcvQzEyMDUyNi9WNjAjQzEyMDUyNg==
  :label: Immunogenicity Specimen Assessments Test Name
  :notation: ISTEST
- :identifier: :C65047
  :id: aHR0cDovL3d3dy5jZGlzYy5vcmcvQzY1MDQ3L1Y1OCNDNjUwNDc=
  :last_id: aHR0cDovL3d3dy5jZGlzYy5vcmcvQzY1MDQ3L1Y2MCNDNjUwNDc=
  :label: Laboratory Test Code
  :notation: LBTESTCD
- :identifier: :C67154
  :id: aHR0cDovL3d3dy5jZGlzYy5vcmcvQzY3MTU0L1Y1OCNDNjcxNTQ=
  :last_id: aHR0cDovL3d3dy5jZGlzYy5vcmcvQzY3MTU0L1Y2MCNDNjcxNTQ=
  :label: Laboratory Test Name
  :notation: LBTEST
- :identifier: :C89972
  :id: aHR0cDovL3d3dy5jZGlzYy5vcmcvQzg5OTcyL1Y0NyNDODk5NzI=
  :last_id: aHR0cDovL3d3dy5jZGlzYy5vcmcvQzg5OTcyL1Y2MCNDODk5NzI=
  :label: Macroscopic Findings Test Code
  :notation: MATESTCD
- :identifier: :C89971
  :id: aHR0cDovL3d3dy5jZGlzYy5vcmcvQzg5OTcxL1Y0NyNDODk5NzE=
  :last_id: aHR0cDovL3d3dy5jZGlzYy5vcmcvQzg5OTcxL1Y2MCNDODk5NzE=
  :label: Macroscopic Findings Test Name
  :notation: MATEST
- :identifier: :C85492
  :id: aHR0cDovL3d3dy5jZGlzYy5vcmcvQzg1NDkyL1Y1OCNDODU0OTI=
  :last_id: aHR0cDovL3d3dy5jZGlzYy5vcmcvQzg1NDkyL1Y2MCNDODU0OTI=
  :label: Method
  :notation: METHOD
- :identifier: :C128688
  :id: aHR0cDovL3d3dy5jZGlzYy5vcmcvQzEyODY4OC9WNTgjQzEyODY4OA==
  :last_id: aHR0cDovL3d3dy5jZGlzYy5vcmcvQzEyODY4OC9WNTkjQzEyODY4OA==
  :label: Microbiology Susceptibility Test Code
  :notation: MSTESTCD
- :identifier: :C128687
  :id: aHR0cDovL3d3dy5jZGlzYy5vcmcvQzEyODY4Ny9WNTgjQzEyODY4Nw==
  :last_id: aHR0cDovL3d3dy5jZGlzYy5vcmcvQzEyODY4Ny9WNTkjQzEyODY4Nw==
  :label: Microbiology Susceptibility Test Name
  :notation: MSTEST
- :identifier: :C120527
  :id: aHR0cDovL3d3dy5jZGlzYy5vcmcvQzEyMDUyNy9WNTgjQzEyMDUyNw==
  :last_id: aHR0cDovL3d3dy5jZGlzYy5vcmcvQzEyMDUyNy9WNjAjQzEyMDUyNw==
  :label: Microbiology Test Code
  :notation: MBTESTCD
- :identifier: :C120528
  :id: aHR0cDovL3d3dy5jZGlzYy5vcmcvQzEyMDUyOC9WNTgjQzEyMDUyOA==
  :last_id: aHR0cDovL3d3dy5jZGlzYy5vcmcvQzEyMDUyOC9WNjAjQzEyMDUyOA==
  :label: Microbiology Test Name
  :notation: MBTEST
- :identifier: :C85491
  :id: aHR0cDovL3d3dy5jZGlzYy5vcmcvQzg1NDkxL1Y1NiNDODU0OTE=
  :last_id: aHR0cDovL3d3dy5jZGlzYy5vcmcvQzg1NDkxL1Y2MCNDODU0OTE=
  :label: Microorganism
  :notation: MICROORG
- :identifier: :C125922
  :id: aHR0cDovL3d3dy5jZGlzYy5vcmcvQzEyNTkyMi9WNTcjQzEyNTkyMg==
  :last_id: aHR0cDovL3d3dy5jZGlzYy5vcmcvQzEyNTkyMi9WNTkjQzEyNTkyMg==
  :label: Microscopic Findings Test Details
  :notation: MIFTSDTL
- :identifier: :C127265
  :id: aHR0cDovL3d3dy5jZGlzYy5vcmcvQzEyNzI2NS9WNTgjQzEyNzI2NQ==
  :last_id: aHR0cDovL3d3dy5jZGlzYy5vcmcvQzEyNzI2NS9WNTkjQzEyNzI2NQ==
  :label: Mode of Disease Transmission
  :notation: MODTRN
- :identifier: :C127269
  :id: aHR0cDovL3d3dy5jZGlzYy5vcmcvQzEyNzI2OS9WNTgjQzEyNzI2OQ==
  :last_id: aHR0cDovL3d3dy5jZGlzYy5vcmcvQzEyNzI2OS9WNTkjQzEyNzI2OQ==
  :label: Musculoskeletal System Finding Test Code
  :notation: MUSCTSCD
- :identifier: :C127270
  :id: aHR0cDovL3d3dy5jZGlzYy5vcmcvQzEyNzI3MC9WNTgjQzEyNzI3MA==
  :last_id: aHR0cDovL3d3dy5jZGlzYy5vcmcvQzEyNzI3MC9WNTkjQzEyNzI3MA==
  :label: Musculoskeletal System Finding Test Name
  :notation: MUSCTS
- :identifier: :C88025
  :id: aHR0cDovL3d3dy5jZGlzYy5vcmcvQzg4MDI1L1Y1OCNDODgwMjU=
  :last_id: aHR0cDovL3d3dy5jZGlzYy5vcmcvQzg4MDI1L1Y2MCNDODgwMjU=
  :label: Neoplasm Type
  :notation: NEOPLASM
- :identifier: :C116104
  :id: aHR0cDovL3d3dy5jZGlzYy5vcmcvQzExNjEwNC9WNTgjQzExNjEwNA==
  :last_id: aHR0cDovL3d3dy5jZGlzYy5vcmcvQzExNjEwNC9WNTkjQzExNjEwNA==
  :label: Nervous System Findings Test Code
  :notation: NVTESTCD
- :identifier: :C116103
  :id: aHR0cDovL3d3dy5jZGlzYy5vcmcvQzExNjEwMy9WNTgjQzExNjEwMw==
  :last_id: aHR0cDovL3d3dy5jZGlzYy5vcmcvQzExNjEwMy9WNTkjQzExNjEwMw==
  :label: Nervous System Findings Test Name
  :notation: NVTEST
- :identifier: :C120531
  :id: aHR0cDovL3d3dy5jZGlzYy5vcmcvQzEyMDUzMS9WNTcjQzEyMDUzMQ==
  :last_id: aHR0cDovL3d3dy5jZGlzYy5vcmcvQzEyMDUzMS9WNjAjQzEyMDUzMQ==
  :label: Non-Neoplastic Finding Type
  :notation: NONNEO
- :identifier: :C96785
  :id: aHR0cDovL3d3dy5jZGlzYy5vcmcvQzk2Nzg1L1Y1NiNDOTY3ODU=
  :last_id: aHR0cDovL3d3dy5jZGlzYy5vcmcvQzk2Nzg1L1Y2MCNDOTY3ODU=
  :label: Oncology Response Assessment Result
  :notation: ONCRSR
- :identifier: :C117743
  :id: aHR0cDovL3d3dy5jZGlzYy5vcmcvQzExNzc0My9WNTUjQzExNzc0Mw==
  :last_id: aHR0cDovL3d3dy5jZGlzYy5vcmcvQzExNzc0My9WNTkjQzExNzc0Mw==
  :label: Ophthalmic Exam Test Code
  :notation: OETESTCD
- :identifier: :C117742
  :id: aHR0cDovL3d3dy5jZGlzYy5vcmcvQzExNzc0Mi9WNTUjQzExNzc0Mg==
  :last_id: aHR0cDovL3d3dy5jZGlzYy5vcmcvQzExNzc0Mi9WNTkjQzExNzc0Mg==
  :label: Ophthalmic Exam Test Name
  :notation: OETEST
- :identifier: :C85493
  :id: aHR0cDovL3d3dy5jZGlzYy5vcmcvQzg1NDkzL1Y1OCNDODU0OTM=
  :last_id: aHR0cDovL3d3dy5jZGlzYy5vcmcvQzg1NDkzL1Y2MCNDODU0OTM=
  :label: PK Parameters
  :notation: PKPARM
- :identifier: :C85839
  :id: aHR0cDovL3d3dy5jZGlzYy5vcmcvQzg1ODM5L1Y1OCNDODU4Mzk=
  :last_id: aHR0cDovL3d3dy5jZGlzYy5vcmcvQzg1ODM5L1Y2MCNDODU4Mzk=
  :label: PK Parameters Code
  :notation: PKPARMCD
- :identifier: :C85494
  :id: aHR0cDovL3d3dy5jZGlzYy5vcmcvQzg1NDk0L1Y1NSNDODU0OTQ=
  :last_id: aHR0cDovL3d3dy5jZGlzYy5vcmcvQzg1NDk0L1Y2MCNDODU0OTQ=
  :label: PK Units of Measure
  :notation: PKUNIT
- :identifier: :C66726
  :id: aHR0cDovL3d3dy5jZGlzYy5vcmcvQzY2NzI2L1Y1OCNDNjY3MjY=
  :last_id: aHR0cDovL3d3dy5jZGlzYy5vcmcvQzY2NzI2L1Y2MCNDNjY3MjY=
  :label: Pharmaceutical Dosage Form
  :notation: FRM
- :identifier: :C101858
  :id: aHR0cDovL3d3dy5jZGlzYy5vcmcvQzEwMTg1OC9WNTgjQzEwMTg1OA==
  :last_id: aHR0cDovL3d3dy5jZGlzYy5vcmcvQzEwMTg1OC9WNTkjQzEwMTg1OA==
  :label: Procedure
  :notation: PROCEDUR
- :identifier: :C132310
  :id: aHR0cDovL3d3dy5jZGlzYy5vcmcvQzEzMjMxMC9WNTcjQzEzMjMxMA==
  :last_id: aHR0cDovL3d3dy5jZGlzYy5vcmcvQzEzMjMxMC9WNjAjQzEzMjMxMA==
  :label: Protocol Entity Terminology
  :notation: Protocol Entity Terminology
- :identifier: :C114118
  :id: aHR0cDovL3d3dy5jZGlzYy5vcmcvQzExNDExOC9WNTUjQzExNDExOA==
  :last_id: aHR0cDovL3d3dy5jZGlzYy5vcmcvQzExNDExOC9WNjAjQzExNDExOA==
  :label: Protocol Milestone
  :notation: PROTMLST
- :identifier: :C128689
  :id: aHR0cDovL3d3dy5jZGlzYy5vcmcvQzEyODY4OS9WNTgjQzEyODY4OQ==
  :last_id: aHR0cDovL3d3dy5jZGlzYy5vcmcvQzEyODY4OS9WNjAjQzEyODY4OQ==
  :label: Race As Collected
  :notation: RACEC
- :identifier: :C100130
  :id: aHR0cDovL3d3dy5jZGlzYy5vcmcvQzEwMDEzMC9WNTcjQzEwMDEzMA==
  :last_id: aHR0cDovL3d3dy5jZGlzYy5vcmcvQzEwMDEzMC9WNjAjQzEwMDEzMA==
  :label: Relationship to Subject
  :notation: RELSUB
- :identifier: :C106479
  :id: aHR0cDovL3d3dy5jZGlzYy5vcmcvQzEwNjQ3OS9WNTgjQzEwNjQ3OQ==
  :last_id: aHR0cDovL3d3dy5jZGlzYy5vcmcvQzEwNjQ3OS9WNTkjQzEwNjQ3OQ==
  :label: Reproductive System Findings Test Code
  :notation: RPTESTCD
- :identifier: :C106478
  :id: aHR0cDovL3d3dy5jZGlzYy5vcmcvQzEwNjQ3OC9WNTgjQzEwNjQ3OA==
  :last_id: aHR0cDovL3d3dy5jZGlzYy5vcmcvQzEwNjQ3OC9WNTkjQzEwNjQ3OA==
  :label: Reproductive System Findings Test Name
  :notation: RPTEST
- :identifier: :C111106
  :id: aHR0cDovL3d3dy5jZGlzYy5vcmcvQzExMTEwNi9WNTgjQzExMTEwNg==
  :last_id: aHR0cDovL3d3dy5jZGlzYy5vcmcvQzExMTEwNi9WNjAjQzExMTEwNg==
  :label: Respiratory Test Code
  :notation: RETESTCD
- :identifier: :C111107
  :id: aHR0cDovL3d3dy5jZGlzYy5vcmcvQzExMTEwNy9WNTgjQzExMTEwNw==
  :last_id: aHR0cDovL3d3dy5jZGlzYy5vcmcvQzExMTEwNy9WNjAjQzExMTEwNw==
  :label: Respiratory Test Name
  :notation: RETEST
- :identifier: :C66734
  :id: aHR0cDovL3d3dy5jZGlzYy5vcmcvQzY2NzM0L1Y1OCNDNjY3MzQ=
  :last_id: aHR0cDovL3d3dy5jZGlzYy5vcmcvQzY2NzM0L1Y2MCNDNjY3MzQ=
  :label: SDTM Domain Abbreviation
  :notation: DOMAIN
- :identifier: :C120534
  :id: aHR0cDovL3d3dy5jZGlzYy5vcmcvQzEyMDUzNC9WNTIjQzEyMDUzNA==
  :last_id: aHR0cDovL3d3dy5jZGlzYy5vcmcvQzEyMDUzNC9WNTkjQzEyMDUzNA==
  :label: SEND Respiratory Test Code
  :notation: SRETSTCD
- :identifier: :C120535
  :id: aHR0cDovL3d3dy5jZGlzYy5vcmcvQzEyMDUzNS9WNTIjQzEyMDUzNQ==
  :last_id: aHR0cDovL3d3dy5jZGlzYy5vcmcvQzEyMDUzNS9WNTkjQzEyMDUzNQ==
  :label: SEND Respiratory Test Name
  :notation: SRETST
- :identifier: :C90003
  :id: aHR0cDovL3d3dy5jZGlzYy5vcmcvQzkwMDAzL1Y0NyNDOTAwMDM=
  :last_id: aHR0cDovL3d3dy5jZGlzYy5vcmcvQzkwMDAzL1Y2MCNDOTAwMDM=
  :label: SEND Study Type
  :notation: SSTYP
- :identifier: :C89981
  :id: aHR0cDovL3d3dy5jZGlzYy5vcmcvQzg5OTgxL1YzNiNDODk5ODE=
  :last_id: aHR0cDovL3d3dy5jZGlzYy5vcmcvQzg5OTgxL1Y1OSNDODk5ODE=
  :label: SEND Subject Characteristics Test Code
  :notation: SBCCDSND
- :identifier: :C89980
  :id: aHR0cDovL3d3dy5jZGlzYy5vcmcvQzg5OTgwL1YzNiNDODk5ODA=
  :last_id: aHR0cDovL3d3dy5jZGlzYy5vcmcvQzg5OTgwL1Y1OSNDODk5ODA=
  :label: SEND Subject Characteristics Test Name
  :notation: SBCSND
- :identifier: :C90009
  :id: aHR0cDovL3d3dy5jZGlzYy5vcmcvQzkwMDA5L1Y1NyNDOTAwMDk=
  :last_id: aHR0cDovL3d3dy5jZGlzYy5vcmcvQzkwMDA5L1Y2MCNDOTAwMDk=
  :label: SEND Trial Summary Parameter Test Code
  :notation: STSPRMCD
- :identifier: :C90007
  :id: aHR0cDovL3d3dy5jZGlzYy5vcmcvQzkwMDA3L1Y1NyNDOTAwMDc=
  :last_id: aHR0cDovL3d3dy5jZGlzYy5vcmcvQzkwMDA3L1Y2MCNDOTAwMDc=
  :label: SEND Trial Summary Parameter Test Name
  :notation: STSPRM
- :identifier: :C77808
  :id: aHR0cDovL3d3dy5jZGlzYy5vcmcvQzc3ODA4L1Y0NyNDNzc4MDg=
  :last_id: aHR0cDovL3d3dy5jZGlzYy5vcmcvQzc3ODA4L1Y2MCNDNzc4MDg=
  :label: Species
  :notation: SPECIES
- :identifier: :C77529
  :id: aHR0cDovL3d3dy5jZGlzYy5vcmcvQzc3NTI5L1Y1OCNDNzc1Mjk=
  :last_id: aHR0cDovL3d3dy5jZGlzYy5vcmcvQzc3NTI5L1Y2MCNDNzc1Mjk=
  :label: Specimen
  :notation: SPEC
- :identifier: :C78733
  :id: aHR0cDovL3d3dy5jZGlzYy5vcmcvQzc4NzMzL1Y1NiNDNzg3MzM=
  :last_id: aHR0cDovL3d3dy5jZGlzYy5vcmcvQzc4NzMzL1Y1OSNDNzg3MzM=
  :label: Specimen Condition
  :notation: SPECCOND
- :identifier: :C78734
  :id: aHR0cDovL3d3dy5jZGlzYy5vcmcvQzc4NzM0L1Y1OCNDNzg3MzQ=
  :last_id: aHR0cDovL3d3dy5jZGlzYy5vcmcvQzc4NzM0L1Y2MCNDNzg3MzQ=
  :label: Specimen Type
  :notation: SPECTYPE
- :identifier: :C77530
  :id: aHR0cDovL3d3dy5jZGlzYy5vcmcvQzc3NTMwL1Y0OSNDNzc1MzA=
  :last_id: aHR0cDovL3d3dy5jZGlzYy5vcmcvQzc3NTMwL1Y2MCNDNzc1MzA=
  :label: Strain/Substrain
  :notation: STRAIN
- :identifier: :C74559
  :id: aHR0cDovL3d3dy5jZGlzYy5vcmcvQzc0NTU5L1Y1OCNDNzQ1NTk=
  :last_id: aHR0cDovL3d3dy5jZGlzYy5vcmcvQzc0NTU5L1Y1OSNDNzQ1NTk=
  :label: Subject Characteristic Test Code
  :notation: SCTESTCD
- :identifier: :C103330
  :id: aHR0cDovL3d3dy5jZGlzYy5vcmcvQzEwMzMzMC9WNTgjQzEwMzMzMA==
  :last_id: aHR0cDovL3d3dy5jZGlzYy5vcmcvQzEwMzMzMC9WNTkjQzEwMzMzMA==
  :label: Subject Characteristic Test Name
  :notation: SCTEST
- :identifier: :C106657
  :id: aHR0cDovL3d3dy5jZGlzYy5vcmcvQzEwNjY1Ny9WNDcjQzEwNjY1Nw==
  :last_id: aHR0cDovL3d3dy5jZGlzYy5vcmcvQzEwNjY1Ny9WNjAjQzEwNjY1Nw==
  :label: Transition Dyspnea Index Questionnaire Test Code
  :notation: TDI01TC
- :identifier: :C106656
  :id: aHR0cDovL3d3dy5jZGlzYy5vcmcvQzEwNjY1Ni9WNDcjQzEwNjY1Ng==
  :last_id: aHR0cDovL3d3dy5jZGlzYy5vcmcvQzEwNjY1Ni9WNjAjQzEwNjY1Ng==
  :label: Transition Dyspnea Index Questionnaire Test Name
  :notation: TDI01TN
- :identifier: :C66738
  :id: aHR0cDovL3d3dy5jZGlzYy5vcmcvQzY2NzM4L1Y1OCNDNjY3Mzg=
  :last_id: aHR0cDovL3d3dy5jZGlzYy5vcmcvQzY2NzM4L1Y2MCNDNjY3Mzg=
  :label: Trial Summary Parameter Test Code
  :notation: TSPARMCD
- :identifier: :C67152
  :id: aHR0cDovL3d3dy5jZGlzYy5vcmcvQzY3MTUyL1Y1OCNDNjcxNTI=
  :last_id: aHR0cDovL3d3dy5jZGlzYy5vcmcvQzY3MTUyL1Y2MCNDNjcxNTI=
  :label: Trial Summary Parameter Test Name
  :notation: TSPARM
- :identifier: :C66739
  :id: aHR0cDovL3d3dy5jZGlzYy5vcmcvQzY2NzM5L1Y1MyNDNjY3Mzk=
  :last_id: aHR0cDovL3d3dy5jZGlzYy5vcmcvQzY2NzM5L1Y2MCNDNjY3Mzk=
  :label: Trial Type Response
  :notation: TTYPE
- :identifier: :C96784
  :id: aHR0cDovL3d3dy5jZGlzYy5vcmcvQzk2Nzg0L1Y1NyNDOTY3ODQ=
  :last_id: aHR0cDovL3d3dy5jZGlzYy5vcmcvQzk2Nzg0L1Y2MCNDOTY3ODQ=
  :label: Tumor or Lesion Identification Test Code
  :notation: TUTESTCD
- :identifier: :C96783
  :id: aHR0cDovL3d3dy5jZGlzYy5vcmcvQzk2NzgzL1Y1NyNDOTY3ODM=
  :last_id: aHR0cDovL3d3dy5jZGlzYy5vcmcvQzk2NzgzL1Y2MCNDOTY3ODM=
  :label: Tumor or Lesion Identification Test Name
  :notation: TUTEST
- :identifier: :C123650
  :id: aHR0cDovL3d3dy5jZGlzYy5vcmcvQzEyMzY1MC9WNTYjQzEyMzY1MA==
  :last_id: aHR0cDovL3d3dy5jZGlzYy5vcmcvQzEyMzY1MC9WNjAjQzEyMzY1MA==
  :label: Tumor or Lesion Identification Test Results
  :notation: TUIDRS
- :identifier: :C124309
  :id: aHR0cDovL3d3dy5jZGlzYy5vcmcvQzEyNDMwOS9WNTgjQzEyNDMwOQ==
  :last_id: aHR0cDovL3d3dy5jZGlzYy5vcmcvQzEyNDMwOS9WNjAjQzEyNDMwOQ==
  :label: Tumor or Lesion Properties Test Result
  :notation: TRPROPRS
- :identifier: :C71620
  :id: aHR0cDovL3d3dy5jZGlzYy5vcmcvQzcxNjIwL1Y1OCNDNzE2MjA=
  :last_id: aHR0cDovL3d3dy5jZGlzYy5vcmcvQzcxNjIwL1Y2MCNDNzE2MjA=
  :label: Unit
  :notation: UNIT
- :identifier: :C66770
  :id: aHR0cDovL3d3dy5jZGlzYy5vcmcvQzY2NzcwL1Y1OCNDNjY3NzA=
  :last_id: aHR0cDovL3d3dy5jZGlzYy5vcmcvQzY2NzcwL1Y1OSNDNjY3NzA=
  :label: Units for Vital Signs Results
  :notation: VSRESU
- :identifier: :C66741
  :id: aHR0cDovL3d3dy5jZGlzYy5vcmcvQzY2NzQxL1Y1OCNDNjY3NDE=
  :last_id: aHR0cDovL3d3dy5jZGlzYy5vcmcvQzY2NzQxL1Y1OSNDNjY3NDE=
  :label: Vital Signs Test Code
  :notation: VSTESTCD
- :identifier: :C67153
  :id: aHR0cDovL3d3dy5jZGlzYy5vcmcvQzY3MTUzL1Y1OCNDNjcxNTM=
  :last_id: aHR0cDovL3d3dy5jZGlzYy5vcmcvQzY3MTUzL1Y1OSNDNjcxNTM=
  :label: Vital Signs Test Name
  :notation: VSTEST
:deleted:
- :identifier: :C135684
  :id: aHR0cDovL3d3dy5jZGlzYy5vcmcvQzEzNTY4NC9WNTIjQzEzNTY4NA==
  :last_id: ''
  :label: Clinical Global Impression Questionnaire Test Code
  :notation: CGGUY1TC
- :identifier: :C135683
  :id: aHR0cDovL3d3dy5jZGlzYy5vcmcvQzEzNTY4My9WNTIjQzEzNTY4Mw==
  :last_id: ''
  :label: Clinical Global Impression Questionnaire Test Name
  :notation: CGGUY1TN
- :identifier: :C66787
  :id: aHR0cDovL3d3dy5jZGlzYy5vcmcvQzY2Nzg3L1Y1MCNDNjY3ODc=
  :last_id: ''
  :label: Diagnosis Group Response
  :notation: TDIGRP
- :identifier: :C124662
  :id: aHR0cDovL3d3dy5jZGlzYy5vcmcvQzEyNDY2Mi9WNDcjQzEyNDY2Mg==
  :last_id: ''
  :label: Tanner Scale Boy Clinical Classification Test Code
  :notation: TANN02TC
- :identifier: :C124661
  :id: aHR0cDovL3d3dy5jZGlzYy5vcmcvQzEyNDY2MS9WNDcjQzEyNDY2MQ==
  :last_id: ''
  :label: Tanner Scale Boy Clinical Classification Test Name
  :notation: TANN02TN
- :identifier: :C124664
  :id: aHR0cDovL3d3dy5jZGlzYy5vcmcvQzEyNDY2NC9WNDcjQzEyNDY2NA==
  :last_id: ''
  :label: Tanner Scale Girl Clinical Classification Test Code
  :notation: TANN01TC
- :identifier: :C124663
  :id: aHR0cDovL3d3dy5jZGlzYy5vcmcvQzEyNDY2My9WNDcjQzEyNDY2Mw==
  :last_id: ''
  :label: Tanner Scale Girl Clinical Classification Test Name
  :notation: TANN01TN
:versions:
- '2018-12-21'
- '2019-06-28'
