---
:created:
- :identifier: :C124668
  :id: aHR0cDovL3d3dy5jZGlzYy5vcmcvQzEyNDY2OC9WNDYjQzEyNDY2OA==
  :last_id: ''
  :label: ASSIGN Cardiovascular Disease 10-Year Risk Score Clinical Classification
    Test Code
  :notation: ASSIGN CVD 10-YEAR RISK TESTCD
- :identifier: :C124667
  :id: aHR0cDovL3d3dy5jZGlzYy5vcmcvQzEyNDY2Ny9WNDYjQzEyNDY2Nw==
  :last_id: ''
  :label: ASSIGN Cardiovascular Disease 10-Year Risk Score Clinical Classification
    Test Name
  :notation: ASSIGN CVD 10-YEAR RISK TEST
- :identifier: :C120985
  :id: aHR0cDovL3d3dy5jZGlzYy5vcmcvQzEyMDk4NS9WNDYjQzEyMDk4NQ==
  :last_id: ''
  :label: Acute Physiology and Chronic Health Evaluation II Clinical Classification
    Test Code
  :notation: APACHE II TESTCD
- :identifier: :C120984
  :id: aHR0cDovL3d3dy5jZGlzYy5vcmcvQzEyMDk4NC9WNDYjQzEyMDk4NA==
  :last_id: ''
  :label: Acute Physiology and Chronic Health Evaluation II Clinical Classification
    Test Name
  :notation: APACHE II TEST
- :identifier: :C119062
  :id: aHR0cDovL3d3dy5jZGlzYy5vcmcvQzExOTA2Mi9WNDYjQzExOTA2Mg==
  :last_id: ''
  :label: Alcohol Use Disorder Identification Test-Consumption Questions Questionnaire
    Test Code
  :notation: AUDIT-C TESTCD
- :identifier: :C119061
  :id: aHR0cDovL3d3dy5jZGlzYy5vcmcvQzExOTA2MS9WNDYjQzExOTA2MQ==
  :last_id: ''
  :label: Alcohol Use Disorder Identification Test-Consumption Questions Questionnaire
    Test Name
  :notation: AUDIT-C TEST
- :identifier: :C119060
  :id: aHR0cDovL3d3dy5jZGlzYy5vcmcvQzExOTA2MC9WNDYjQzExOTA2MA==
  :last_id: ''
  :label: 'Alcohol Use Disorder Identification Test: Self-Report Version Questionnaire
    Test Code'
  :notation: AUDIT-SR TESTCD
- :identifier: :C119059
  :id: aHR0cDovL3d3dy5jZGlzYy5vcmcvQzExOTA1OS9WNDYjQzExOTA1OQ==
  :last_id: ''
  :label: 'Alcohol Use Disorder Identification Test: Self-Report Version Questionnaire
    Test Name'
  :notation: AUDIT-SR TEST
- :identifier: :C117745
  :id: aHR0cDovL3d3dy5jZGlzYy5vcmcvQzExNzc0NS9WNDAjQzExNzc0NQ==
  :last_id: ''
  :label: Analysis Purpose
  :notation: ANLPURP
- :identifier: :C117744
  :id: aHR0cDovL3d3dy5jZGlzYy5vcmcvQzExNzc0NC9WNDAjQzExNzc0NA==
  :last_id: ''
  :label: Analysis Reason
  :notation: ANLREAS
- :identifier: :C120521
  :id: aHR0cDovL3d3dy5jZGlzYy5vcmcvQzEyMDUyMS9WNDMjQzEyMDUyMQ==
  :last_id: ''
  :label: Anti-Viral Outcome of Treatment
  :notation: AVOUTTRT
- :identifier: :C124666
  :id: aHR0cDovL3d3dy5jZGlzYy5vcmcvQzEyNDY2Ni9WNDYjQzEyNDY2Ng==
  :last_id: ''
  :label: Atherosclerotic Cardiovascular Disease 10-Year Risk Estimator Clinical Classification
    Test Code
  :notation: ASCVD 10-YEAR RISK TESTCD
- :identifier: :C124665
  :id: aHR0cDovL3d3dy5jZGlzYy5vcmcvQzEyNDY2NS9WNDYjQzEyNDY2NQ==
  :last_id: ''
  :label: Atherosclerotic Cardiovascular Disease 10-Year Risk Estimator Clinical Classification
    Test Name
  :notation: ASCVD 10-YEAR RISK TEST
- :identifier: :C124300
  :id: aHR0cDovL3d3dy5jZGlzYy5vcmcvQzEyNDMwMC9WNDYjQzEyNDMwMA==
  :last_id: ''
  :label: Biospecimen Characteristics Test Code
  :notation: BSTESTCD
- :identifier: :C124299
  :id: aHR0cDovL3d3dy5jZGlzYy5vcmcvQzEyNDI5OS9WNDYjQzEyNDI5OQ==
  :last_id: ''
  :label: Biospecimen Characteristics Test Name
  :notation: BSTEST
- :identifier: :C124297
  :id: aHR0cDovL3d3dy5jZGlzYy5vcmcvQzEyNDI5Ny9WNDYjQzEyNDI5Nw==
  :last_id: ''
  :label: Biospecimen Events Dictionary Derived Term
  :notation: BEDECOD
- :identifier: :C120983
  :id: aHR0cDovL3d3dy5jZGlzYy5vcmcvQzEyMDk4My9WNDYjQzEyMDk4Mw==
  :last_id: ''
  :label: Brief Assessment of Cognition in Schizophrenia Functional Test Test Code
  :notation: BACS TESTCD
- :identifier: :C120982
  :id: aHR0cDovL3d3dy5jZGlzYy5vcmcvQzEyMDk4Mi9WNDYjQzEyMDk4Mg==
  :last_id: ''
  :label: Brief Assessment of Cognition in Schizophrenia Functional Test Test Name
  :notation: BACS TEST
- :identifier: :C124678
  :id: aHR0cDovL3d3dy5jZGlzYy5vcmcvQzEyNDY3OC9WNDYjQzEyNDY3OA==
  :last_id: ''
  :label: CDC Classification System for HIV-Infected Adults and Adolescents Clinical
    Classification Test Code
  :notation: CDC HIV CLASSIFICATION FOR ADULTS AND ADOLESCENTS TESTCD
- :identifier: :C124677
  :id: aHR0cDovL3d3dy5jZGlzYy5vcmcvQzEyNDY3Ny9WNDYjQzEyNDY3Nw==
  :last_id: ''
  :label: CDC Classification System for HIV-Infected Adults and Adolescents Clinical
    Classification Test Name
  :notation: CDC HIV CLASSIFICATION FOR ADULTS AND ADOLESCENTS TEST
- :identifier: :C122007
  :id: aHR0cDovL3d3dy5jZGlzYy5vcmcvQzEyMjAwNy9WNDYjQzEyMjAwNw==
  :last_id: ''
  :label: COPD Findings About Test Code
  :notation: CPFATSCD
- :identifier: :C122006
  :id: aHR0cDovL3d3dy5jZGlzYy5vcmcvQzEyMjAwNi9WNDYjQzEyMjAwNg==
  :last_id: ''
  :label: COPD Findings About Test Name
  :notation: CPFATS
- :identifier: :C119016
  :id: aHR0cDovL3d3dy5jZGlzYy5vcmcvQzExOTAxNi9WNDUjQzExOTAxNg==
  :last_id: ''
  :label: Cardiovascular Findings About Results
  :notation: CVFARS
- :identifier: :C119015
  :id: aHR0cDovL3d3dy5jZGlzYy5vcmcvQzExOTAxNS9WNDUjQzExOTAxNQ==
  :last_id: ''
  :label: Cardiovascular Findings About Test Code
  :notation: CVFATSCD
- :identifier: :C119014
  :id: aHR0cDovL3d3dy5jZGlzYy5vcmcvQzExOTAxNC9WNDUjQzExOTAxNA==
  :last_id: ''
  :label: Cardiovascular Findings About Test Name
  :notation: CVFATS
- :identifier: :C118971
  :id: aHR0cDovL3d3dy5jZGlzYy5vcmcvQzExODk3MS9WNDYjQzExODk3MQ==
  :last_id: ''
  :label: Category of Clinical Classification
  :notation: CCCAT
- :identifier: :C124298
  :id: aHR0cDovL3d3dy5jZGlzYy5vcmcvQzEyNDI5OC9WNDYjQzEyNDI5OA==
  :last_id: ''
  :label: Category of Oncology Response Assessment
  :notation: ONCRSCAT
- :identifier: :C120989
  :id: aHR0cDovL3d3dy5jZGlzYy5vcmcvQzEyMDk4OS9WNDYjQzEyMDk4OQ==
  :last_id: ''
  :label: Child-Pugh Clinical Classification Test Code
  :notation: CHILD-PUGH CLASSIFICATION TESTCD
- :identifier: :C120988
  :id: aHR0cDovL3d3dy5jZGlzYy5vcmcvQzEyMDk4OC9WNDYjQzEyMDk4OA==
  :last_id: ''
  :label: Child-Pugh Clinical Classification Test Name
  :notation: CHILD-PUGH CLASSIFICATION TEST
- :identifier: :C120979
  :id: aHR0cDovL3d3dy5jZGlzYy5vcmcvQzEyMDk3OS9WNDYjQzEyMDk3OQ==
  :last_id: ''
  :label: Chronic Respiratory Questionnaire Self-Administered Standardized Format
    First Administration Version Test Code
  :notation: CRQ-SAS FIRST ADMINISTRATION VERSION TESTCD
- :identifier: :C120978
  :id: aHR0cDovL3d3dy5jZGlzYy5vcmcvQzEyMDk3OC9WNDYjQzEyMDk3OA==
  :last_id: ''
  :label: Chronic Respiratory Questionnaire Self-Administered Standardized Format
    First Administration Version Test Name
  :notation: CRQ-SAS FIRST ADMINISTRATION VERSION TEST
- :identifier: :C120981
  :id: aHR0cDovL3d3dy5jZGlzYy5vcmcvQzEyMDk4MS9WNDYjQzEyMDk4MQ==
  :last_id: ''
  :label: Chronic Respiratory Questionnaire Self-Administered Standardized Format
    Follow-Up Administration Version Test Code
  :notation: CRQ-SAS FOLLOW-UP ADMINISTRATION VERSION TESTCD
- :identifier: :C120980
  :id: aHR0cDovL3d3dy5jZGlzYy5vcmcvQzEyMDk4MC9WNDYjQzEyMDk4MA==
  :last_id: ''
  :label: Chronic Respiratory Questionnaire Self-Administered Standardized Format
    Follow-Up Administration Version Test Name
  :notation: CRQ-SAS FOLLOW-UP ADMINISTRATION VERSION TEST
- :identifier: :C120529
  :id: aHR0cDovL3d3dy5jZGlzYy5vcmcvQzEyMDUyOS9WNDMjQzEyMDUyOQ==
  :last_id: ''
  :label: Chronicity
  :notation: CHRNCTY
- :identifier: :C119066
  :id: aHR0cDovL3d3dy5jZGlzYy5vcmcvQzExOTA2Ni9WNDYjQzExOTA2Ng==
  :last_id: ''
  :label: Clinical COPD Questionnaire 1 Week Version Test Code
  :notation: CCQ 1 WEEK VERSION TESTCD
- :identifier: :C119065
  :id: aHR0cDovL3d3dy5jZGlzYy5vcmcvQzExOTA2NS9WNDYjQzExOTA2NQ==
  :last_id: ''
  :label: Clinical COPD Questionnaire 1 Week Version Test Name
  :notation: CCQ 1 WEEK VERSION TEST
- :identifier: :C119064
  :id: aHR0cDovL3d3dy5jZGlzYy5vcmcvQzExOTA2NC9WNDYjQzExOTA2NA==
  :last_id: ''
  :label: Clinical COPD Questionnaire 24 Hour Version Test Code
  :notation: CCQ 24 HOUR VERSION TESTCD
- :identifier: :C119063
  :id: aHR0cDovL3d3dy5jZGlzYy5vcmcvQzExOTA2My9WNDYjQzExOTA2Mw==
  :last_id: ''
  :label: Clinical COPD Questionnaire 24 Hour Version Test Name
  :notation: CCQ 24 HOUR VERSION TEST
- :identifier: :C117989
  :id: aHR0cDovL3d3dy5jZGlzYy5vcmcvQzExNzk4OS9WNDYjQzExNzk4OQ==
  :last_id: ''
  :label: Columbia-Suicide Severity Rating Scale Lifetime/Recent Version Questionnaire
    Test Code
  :notation: C-SSRS LIFETIME/RECENT VERSION TESTCD
- :identifier: :C117988
  :id: aHR0cDovL3d3dy5jZGlzYy5vcmcvQzExNzk4OC9WNDYjQzExNzk4OA==
  :last_id: ''
  :label: Columbia-Suicide Severity Rating Scale Lifetime/Recent Version Questionnaire
    Test Name
  :notation: C-SSRS LIFETIME/RECENT VERSION TEST
- :identifier: :C119076
  :id: aHR0cDovL3d3dy5jZGlzYy5vcmcvQzExOTA3Ni9WNDYjQzExOTA3Ng==
  :last_id: ''
  :label: Coronary Artery Dissection NHLBI Grade Clinical Classification Test Code
  :notation: NHLBI CAD GRADE TESTCD
- :identifier: :C119075
  :id: aHR0cDovL3d3dy5jZGlzYy5vcmcvQzExOTA3NS9WNDYjQzExOTA3NQ==
  :last_id: ''
  :label: Coronary Artery Dissection NHLBI Grade Clinical Classification Test Name
  :notation: NHLBI CAD GRADE TEST
- :identifier: :C119018
  :id: aHR0cDovL3d3dy5jZGlzYy5vcmcvQzExOTAxOC9WNDIjQzExOTAxOA==
  :last_id: ''
  :label: Coronary Artery Dissection NHLBI Grade Responses
  :notation: CADGRS
- :identifier: :C119074
  :id: aHR0cDovL3d3dy5jZGlzYy5vcmcvQzExOTA3NC9WNDYjQzExOTA3NA==
  :last_id: ''
  :label: Coronary Thrombus TIMI Grade Clinical Classification Test Code
  :notation: TIMI THROMBUS GRADE TESTCD
- :identifier: :C119073
  :id: aHR0cDovL3d3dy5jZGlzYy5vcmcvQzExOTA3My9WNDYjQzExOTA3Mw==
  :last_id: ''
  :label: Coronary Thrombus TIMI Grade Clinical Classification Test Name
  :notation: TIMI THROMBUS GRADE TEST
- :identifier: :C119017
  :id: aHR0cDovL3d3dy5jZGlzYy5vcmcvQzExOTAxNy9WNDIjQzExOTAxNw==
  :last_id: ''
  :label: Coronary Thrombus TIMI Grade Responses
  :notation: CTTIMIRS
- :identifier: :C117987
  :id: aHR0cDovL3d3dy5jZGlzYy5vcmcvQzExNzk4Ny9WNDYjQzExNzk4Nw==
  :last_id: ''
  :label: Craig Handicap Assessment and Reporting Technique - Short Form Interview
    Version Questionnaire Test Code
  :notation: CHART-SF INTERVIEW VERSION TESTCD
- :identifier: :C117986
  :id: aHR0cDovL3d3dy5jZGlzYy5vcmcvQzExNzk4Ni9WNDYjQzExNzk4Ng==
  :last_id: ''
  :label: Craig Handicap Assessment and Reporting Technique - Short Form Interview
    Version Questionnaire Test Name
  :notation: CHART-SF INTERVIEW VERSION TEST
- :identifier: :C119068
  :id: aHR0cDovL3d3dy5jZGlzYy5vcmcvQzExOTA2OC9WNDYjQzExOTA2OA==
  :last_id: ''
  :label: Craig Handicap Assessment and Reporting Technique - Short Form Paper Version
    Questionnaire Test Code
  :notation: CHART-SF PAPER VERSION TESTCD
- :identifier: :C119067
  :id: aHR0cDovL3d3dy5jZGlzYy5vcmcvQzExOTA2Ny9WNDYjQzExOTA2Nw==
  :last_id: ''
  :label: Craig Handicap Assessment and Reporting Technique - Short Form Paper Version
    Questionnaire Test Name
  :notation: CHART-SF PAPER VERSION TEST
- :identifier: :C119070
  :id: aHR0cDovL3d3dy5jZGlzYy5vcmcvQzExOTA3MC9WNDYjQzExOTA3MA==
  :last_id: ''
  :label: Dermatology Life Quality Index Questionnaire Test Code
  :notation: DLQI TESTCD
- :identifier: :C119069
  :id: aHR0cDovL3d3dy5jZGlzYy5vcmcvQzExOTA2OS9WNDYjQzExOTA2OQ==
  :last_id: ''
  :label: Dermatology Life Quality Index Questionnaire Test Name
  :notation: DLQI TEST
- :identifier: :C120530
  :id: aHR0cDovL3d3dy5jZGlzYy5vcmcvQzEyMDUzMC9WNDMjQzEyMDUzMA==
  :last_id: ''
  :label: Distribution
  :notation: DSTRBN
- :identifier: :C123653
  :id: aHR0cDovL3d3dy5jZGlzYy5vcmcvQzEyMzY1My9WNDYjQzEyMzY1Mw==
  :last_id: ''
  :label: Exacerbations of Chronic Pulmonary Disease Tool Patient-Reported Outcome
    Test Code
  :notation: EXACT TESTCD
- :identifier: :C123652
  :id: aHR0cDovL3d3dy5jZGlzYy5vcmcvQzEyMzY1Mi9WNDYjQzEyMzY1Mg==
  :last_id: ''
  :label: Exacerbations of Chronic Pulmonary Disease Tool Patient-Reported Outcome
    Test Name
  :notation: EXACT TEST
- :identifier: :C117991
  :id: aHR0cDovL3d3dy5jZGlzYy5vcmcvQzExNzk5MS9WNDYjQzExNzk5MQ==
  :last_id: ''
  :label: Extrapyramidal Symptom Rating Scale-Abbreviated Clinical Classification
    Test Code
  :notation: ESRSA TESTCD
- :identifier: :C117990
  :id: aHR0cDovL3d3dy5jZGlzYy5vcmcvQzExNzk5MC9WNDYjQzExNzk5MA==
  :last_id: ''
  :label: Extrapyramidal Symptom Rating Scale-Abbreviated Clinical Classification
    Test Name
  :notation: ESRSA TEST
- :identifier: :C124311
  :id: aHR0cDovL3d3dy5jZGlzYy5vcmcvQzEyNDMxMS9WNDYjQzEyNDMxMQ==
  :last_id: ''
  :label: Fetal Measurement Test Code
  :notation: FMTESTCD
- :identifier: :C124312
  :id: aHR0cDovL3d3dy5jZGlzYy5vcmcvQzEyNDMxMi9WNDYjQzEyNDMxMg==
  :last_id: ''
  :label: Fetal Measurement Test Name
  :notation: FMTEST
- :identifier: :C124310
  :id: aHR0cDovL3d3dy5jZGlzYy5vcmcvQzEyNDMxMC9WNDYjQzEyNDMxMA==
  :last_id: ''
  :label: Fetal Pathology Findings Result
  :notation: FXFINDRS
- :identifier: :C124313
  :id: aHR0cDovL3d3dy5jZGlzYy5vcmcvQzEyNDMxMy9WNDYjQzEyNDMxMw==
  :last_id: ''
  :label: Fetal Pathology Findings Result Category
  :notation: FXRESCAT
- :identifier: :C124314
  :id: aHR0cDovL3d3dy5jZGlzYy5vcmcvQzEyNDMxNC9WNDYjQzEyNDMxNA==
  :last_id: ''
  :label: Fetal Pathology Findings Test Code
  :notation: FXTESTCD
- :identifier: :C124315
  :id: aHR0cDovL3d3dy5jZGlzYy5vcmcvQzEyNDMxNS9WNDYjQzEyNDMxNQ==
  :last_id: ''
  :label: Fetal Pathology Findings Test Name
  :notation: FXTEST
- :identifier: :C124670
  :id: aHR0cDovL3d3dy5jZGlzYy5vcmcvQzEyNDY3MC9WNDYjQzEyNDY3MA==
  :last_id: ''
  :label: Framingham Heart Study Cardiovascular Disease 10-Year Risk Score Clinical
    Classification Test Code
  :notation: FHS CVD 10-YEAR RISK TESTCD
- :identifier: :C124669
  :id: aHR0cDovL3d3dy5jZGlzYy5vcmcvQzEyNDY2OS9WNDYjQzEyNDY2OQ==
  :last_id: ''
  :label: Framingham Heart Study Cardiovascular Disease 10-Year Risk Score Clinical
    Classification Test Name
  :notation: FHS CVD 10-YEAR RISK TEST
- :identifier: :C124682
  :id: aHR0cDovL3d3dy5jZGlzYy5vcmcvQzEyNDY4Mi9WNDYjQzEyNDY4Mg==
  :last_id: ''
  :label: Glasgow Coma Scale NINDS Version Clinical Classification Test Code
  :notation: GCS NINDS VERSION TESTCD
- :identifier: :C124681
  :id: aHR0cDovL3d3dy5jZGlzYy5vcmcvQzEyNDY4MS9WNDYjQzEyNDY4MQ==
  :last_id: ''
  :label: Glasgow Coma Scale NINDS Version Clinical Classification Test Name
  :notation: GCS NINDS VERSION TEST
- :identifier: :C117737
  :id: aHR0cDovL3d3dy5jZGlzYy5vcmcvQzExNzczNy9WNDAjQzExNzczNw==
  :last_id: ''
  :label: Graft Type
  :notation: GRAFTTYP
- :identifier: :C120522
  :id: aHR0cDovL3d3dy5jZGlzYy5vcmcvQzEyMDUyMi9WNDQjQzEyMDUyMg==
  :last_id: ''
  :label: Holter ECG Results
  :notation: HESTRESC
- :identifier: :C120523
  :id: aHR0cDovL3d3dy5jZGlzYy5vcmcvQzEyMDUyMy9WNDUjQzEyMDUyMw==
  :last_id: ''
  :label: Holter ECG Test Code
  :notation: HETESTCD
- :identifier: :C120524
  :id: aHR0cDovL3d3dy5jZGlzYy5vcmcvQzEyMDUyNC9WNDUjQzEyMDUyNA==
  :last_id: ''
  :label: Holter ECG Test Name
  :notation: HETEST
- :identifier: :C120525
  :id: aHR0cDovL3d3dy5jZGlzYy5vcmcvQzEyMDUyNS9WNDMjQzEyMDUyNQ==
  :last_id: ''
  :label: Immunogenicity Specimen Assessments Test Code
  :notation: ISTESTCD
- :identifier: :C120526
  :id: aHR0cDovL3d3dy5jZGlzYy5vcmcvQzEyMDUyNi9WNDMjQzEyMDUyNg==
  :last_id: ''
  :label: Immunogenicity Specimen Assessments Test Name
  :notation: ISTEST
- :identifier: :C124317
  :id: aHR0cDovL3d3dy5jZGlzYy5vcmcvQzEyNDMxNy9WNDYjQzEyNDMxNw==
  :last_id: ''
  :label: Implantation Findings Result
  :notation: ICFINDRS
- :identifier: :C124316
  :id: aHR0cDovL3d3dy5jZGlzYy5vcmcvQzEyNDMxNi9WNDYjQzEyNDMxNg==
  :last_id: ''
  :label: Implantation Findings Result Category
  :notation: ICRESCAT
- :identifier: :C124318
  :id: aHR0cDovL3d3dy5jZGlzYy5vcmcvQzEyNDMxOC9WNDYjQzEyNDMxOA==
  :last_id: ''
  :label: Implantation Findings Test Code
  :notation: ICTESTCD
- :identifier: :C124319
  :id: aHR0cDovL3d3dy5jZGlzYy5vcmcvQzEyNDMxOS9WNDYjQzEyNDMxOQ==
  :last_id: ''
  :label: Implantation Findings Test Name
  :notation: ICTEST
- :identifier: :C124684
  :id: aHR0cDovL3d3dy5jZGlzYy5vcmcvQzEyNDY4NC9WNDYjQzEyNDY4NA==
  :last_id: ''
  :label: JFK Coma Recovery Scale-Revised Clinical Classification Test Code
  :notation: CRS-R TESTCD
- :identifier: :C124683
  :id: aHR0cDovL3d3dy5jZGlzYy5vcmcvQzEyNDY4My9WNDYjQzEyNDY4Mw==
  :last_id: ''
  :label: JFK Coma Recovery Scale-Revised Clinical Classification Test Name
  :notation: CRS-R TEST
- :identifier: :C124301
  :id: aHR0cDovL3d3dy5jZGlzYy5vcmcvQzEyNDMwMS9WNDYjQzEyNDMwMQ==
  :last_id: ''
  :label: Medical History Event Date Type
  :notation: MHEDTTYP
- :identifier: :C120527
  :id: aHR0cDovL3d3dy5jZGlzYy5vcmcvQzEyMDUyNy9WNDMjQzEyMDUyNw==
  :last_id: ''
  :label: Microbiology Test Code
  :notation: MBTESTCD
- :identifier: :C120528
  :id: aHR0cDovL3d3dy5jZGlzYy5vcmcvQzEyMDUyOC9WNDMjQzEyMDUyOA==
  :last_id: ''
  :label: Microbiology Test Name
  :notation: MBTEST
- :identifier: :C120991
  :id: aHR0cDovL3d3dy5jZGlzYy5vcmcvQzEyMDk5MS9WNDYjQzEyMDk5MQ==
  :last_id: ''
  :label: Model for End Stage Liver Disease Clinical Classification Test Code
  :notation: MELD TESTCD
- :identifier: :C120990
  :id: aHR0cDovL3d3dy5jZGlzYy5vcmcvQzEyMDk5MC9WNDYjQzEyMDk5MA==
  :last_id: ''
  :label: Model for End Stage Liver Disease Clinical Classification Test Name
  :notation: MELD TEST
- :identifier: :C117741
  :id: aHR0cDovL3d3dy5jZGlzYy5vcmcvQzExNzc0MS9WNDEjQzExNzc0MQ==
  :last_id: ''
  :label: Multiple Sclerosis Findings About Test Code
  :notation: MSFATSCD
- :identifier: :C117740
  :id: aHR0cDovL3d3dy5jZGlzYy5vcmcvQzExNzc0MC9WNDEjQzExNzc0MA==
  :last_id: ''
  :label: Multiple Sclerosis Findings About Test Name
  :notation: MSFATS
- :identifier: :C120993
  :id: aHR0cDovL3d3dy5jZGlzYy5vcmcvQzEyMDk5My9WNDYjQzEyMDk5Mw==
  :last_id: ''
  :label: Negative Symptom Assessment-16 Clinical Classification Test Code
  :notation: NSA-16 TESTCD
- :identifier: :C120992
  :id: aHR0cDovL3d3dy5jZGlzYy5vcmcvQzEyMDk5Mi9WNDYjQzEyMDk5Mg==
  :last_id: ''
  :label: Negative Symptom Assessment-16 Clinical Classification Test Name
  :notation: NSA-16 TEST
- :identifier: :C120531
  :id: aHR0cDovL3d3dy5jZGlzYy5vcmcvQzEyMDUzMS9WNDUjQzEyMDUzMQ==
  :last_id: ''
  :label: Non-Neoplastic Finding Type
  :notation: NONNEO
- :identifier: :C124320
  :id: aHR0cDovL3d3dy5jZGlzYy5vcmcvQzEyNDMyMC9WNDYjQzEyNDMyMA==
  :last_id: ''
  :label: Nonclinical DART Sex
  :notation: NCDSEX
- :identifier: :C124321
  :id: aHR0cDovL3d3dy5jZGlzYy5vcmcvQzEyNDMyMS9WNDYjQzEyNDMyMQ==
  :last_id: ''
  :label: Nonclinical DART Trial Phases
  :notation: NCDPHASE
- :identifier: :C117743
  :id: aHR0cDovL3d3dy5jZGlzYy5vcmcvQzExNzc0My9WNDQjQzExNzc0Mw==
  :last_id: ''
  :label: Ophthalmic Exam Test Code
  :notation: OETESTCD
- :identifier: :C117742
  :id: aHR0cDovL3d3dy5jZGlzYy5vcmcvQzExNzc0Mi9WNDQjQzExNzc0Mg==
  :last_id: ''
  :label: Ophthalmic Exam Test Name
  :notation: OETEST
- :identifier: :C119013
  :id: aHR0cDovL3d3dy5jZGlzYy5vcmcvQzExOTAxMy9WNDIjQzExOTAxMw==
  :last_id: ''
  :label: Ophthalmic Focus of Study Specific Interest
  :notation: OEFOCUS
- :identifier: :C124686
  :id: aHR0cDovL3d3dy5jZGlzYy5vcmcvQzEyNDY4Ni9WNDYjQzEyNDY4Ng==
  :last_id: ''
  :label: Positive and Negative Syndrome Scale Clinical Classification Test Code
  :notation: PANSS TESTCD
- :identifier: :C124685
  :id: aHR0cDovL3d3dy5jZGlzYy5vcmcvQzEyNDY4NS9WNDYjQzEyNDY4NQ==
  :last_id: ''
  :label: Positive and Negative Syndrome Scale Clinical Classification Test Name
  :notation: PANSS TEST
- :identifier: :C124323
  :id: aHR0cDovL3d3dy5jZGlzYy5vcmcvQzEyNDMyMy9WNDYjQzEyNDMyMw==
  :last_id: ''
  :label: Pregnancy Findings Result
  :notation: PYFINDRS
- :identifier: :C124322
  :id: aHR0cDovL3d3dy5jZGlzYy5vcmcvQzEyNDMyMi9WNDYjQzEyNDMyMg==
  :last_id: ''
  :label: Pregnancy Findings Result Category
  :notation: PYRESCAT
- :identifier: :C124324
  :id: aHR0cDovL3d3dy5jZGlzYy5vcmcvQzEyNDMyNC9WNDYjQzEyNDMyNA==
  :last_id: ''
  :label: Pregnancy Findings Test Code
  :notation: PYTESTCD
- :identifier: :C124325
  :id: aHR0cDovL3d3dy5jZGlzYy5vcmcvQzEyNDMyNS9WNDYjQzEyNDMyNQ==
  :last_id: ''
  :label: Pregnancy Findings Test Name
  :notation: PYTEST
- :identifier: :C123655
  :id: aHR0cDovL3d3dy5jZGlzYy5vcmcvQzEyMzY1NS9WNDYjQzEyMzY1NQ==
  :last_id: ''
  :label: Rey Auditory Verbal Learning Functional Test Test Code
  :notation: AVLT-REY TESTCD
- :identifier: :C123654
  :id: aHR0cDovL3d3dy5jZGlzYy5vcmcvQzEyMzY1NC9WNDYjQzEyMzY1NA==
  :last_id: ''
  :label: Rey Auditory Verbal Learning Functional Test Test Name
  :notation: AVLT-REY TEST
- :identifier: :C124672
  :id: aHR0cDovL3d3dy5jZGlzYy5vcmcvQzEyNDY3Mi9WNDYjQzEyNDY3Mg==
  :last_id: ''
  :label: Reynolds Cardiovascular Disease 10-Year Risk Score Clinical Classification
    Test Code
  :notation: REYNOLDS CVD 10-YEAR RISK TESTCD
- :identifier: :C124671
  :id: aHR0cDovL3d3dy5jZGlzYy5vcmcvQzEyNDY3MS9WNDYjQzEyNDY3MQ==
  :last_id: ''
  :label: Reynolds Cardiovascular Disease 10-Year Risk Score Clinical Classification
    Test Name
  :notation: REYNOLDS CVD 10-YEAR RISK TEST
- :identifier: :C119072
  :id: aHR0cDovL3d3dy5jZGlzYy5vcmcvQzExOTA3Mi9WNDYjQzExOTA3Mg==
  :last_id: ''
  :label: Rivermead Post Concussion Symptoms Questionnaire Test Code
  :notation: RPQ TESTCD
- :identifier: :C119071
  :id: aHR0cDovL3d3dy5jZGlzYy5vcmcvQzExOTA3MS9WNDYjQzExOTA3MQ==
  :last_id: ''
  :label: Rivermead Post Concussion Symptoms Questionnaire Test Name
  :notation: RPQ TEST
- :identifier: :C120532
  :id: aHR0cDovL3d3dy5jZGlzYy5vcmcvQzEyMDUzMi9WNDUjQzEyMDUzMg==
  :last_id: ''
  :label: SEND Cardiovascular Test Code
  :notation: SCVTSTCD
- :identifier: :C120533
  :id: aHR0cDovL3d3dy5jZGlzYy5vcmcvQzEyMDUzMy9WNDUjQzEyMDUzMw==
  :last_id: ''
  :label: SEND Cardiovascular Test Name
  :notation: SCVTST
- :identifier: :C120534
  :id: aHR0cDovL3d3dy5jZGlzYy5vcmcvQzEyMDUzNC9WNDQjQzEyMDUzNA==
  :last_id: ''
  :label: SEND Respiratory Test Code
  :notation: SRETSTCD
- :identifier: :C120535
  :id: aHR0cDovL3d3dy5jZGlzYy5vcmcvQzEyMDUzNS9WNDQjQzEyMDUzNQ==
  :last_id: ''
  :label: SEND Respiratory Test Name
  :notation: SRETST
- :identifier: :C124302
  :id: aHR0cDovL3d3dy5jZGlzYy5vcmcvQzEyNDMwMi9WNDYjQzEyNDMwMg==
  :last_id: ''
  :label: Schizophrenia Findings About Test Code
  :notation: SZFATSCD
- :identifier: :C124303
  :id: aHR0cDovL3d3dy5jZGlzYy5vcmcvQzEyNDMwMy9WNDYjQzEyNDMwMw==
  :last_id: ''
  :label: Schizophrenia Findings About Test Name
  :notation: SZFATS
- :identifier: :C119080
  :id: aHR0cDovL3d3dy5jZGlzYy5vcmcvQzExOTA4MC9WNDYjQzExOTA4MA==
  :last_id: ''
  :label: Stent Thrombosis Coronary ARC Grade Clinical Classification Test Code
  :notation: ARC STC GRADE TESTCD
- :identifier: :C119079
  :id: aHR0cDovL3d3dy5jZGlzYy5vcmcvQzExOTA3OS9WNDYjQzExOTA3OQ==
  :last_id: ''
  :label: Stent Thrombosis Coronary ARC Grade Clinical Classification Test Name
  :notation: ARC STC GRADE TEST
- :identifier: :C119020
  :id: aHR0cDovL3d3dy5jZGlzYy5vcmcvQzExOTAyMC9WNDIjQzExOTAyMA==
  :last_id: ''
  :label: Stent Thrombosis, Coronary ARC Grade Responses
  :notation: STCARCRS
- :identifier: :C119019
  :id: aHR0cDovL3d3dy5jZGlzYy5vcmcvQzExOTAxOS9WNDIjQzExOTAxOQ==
  :last_id: ''
  :label: Stent Thrombosis, Coronary, ARC Timing Responses
  :notation: STCTIMRS
- :identifier: :C124304
  :id: aHR0cDovL3d3dy5jZGlzYy5vcmcvQzEyNDMwNC9WNDYjQzEyNDMwNA==
  :last_id: ''
  :label: Subject Status Response
  :notation: SSTATRS
- :identifier: :C124305
  :id: aHR0cDovL3d3dy5jZGlzYy5vcmcvQzEyNDMwNS9WNDYjQzEyNDMwNQ==
  :last_id: ''
  :label: Subject Status Test Code
  :notation: SSTESTCD
- :identifier: :C124306
  :id: aHR0cDovL3d3dy5jZGlzYy5vcmcvQzEyNDMwNi9WNDYjQzEyNDMwNg==
  :last_id: ''
  :label: Subject Status Test Name
  :notation: SSTEST
- :identifier: :C124296
  :id: aHR0cDovL3d3dy5jZGlzYy5vcmcvQzEyNDI5Ni9WNDYjQzEyNDI5Ng==
  :last_id: ''
  :label: Subject Trial Status
  :notation: SBJTSTAT
- :identifier: :C124662
  :id: aHR0cDovL3d3dy5jZGlzYy5vcmcvQzEyNDY2Mi9WNDYjQzEyNDY2Mg==
  :last_id: ''
  :label: Tanner Scale Boy Clinical Classification Test Code
  :notation: TANNER SCALE BOY TESTCD
- :identifier: :C124661
  :id: aHR0cDovL3d3dy5jZGlzYy5vcmcvQzEyNDY2MS9WNDYjQzEyNDY2MQ==
  :last_id: ''
  :label: Tanner Scale Boy Clinical Classification Test Name
  :notation: TANNER SCALE BOY TEST
- :identifier: :C124664
  :id: aHR0cDovL3d3dy5jZGlzYy5vcmcvQzEyNDY2NC9WNDYjQzEyNDY2NA==
  :last_id: ''
  :label: Tanner Scale Girl Clinical Classification Test Code
  :notation: TANNER SCALE GIRL TESTCD
- :identifier: :C124663
  :id: aHR0cDovL3d3dy5jZGlzYy5vcmcvQzEyNDY2My9WNDYjQzEyNDY2Mw==
  :last_id: ''
  :label: Tanner Scale Girl Clinical Classification Test Name
  :notation: TANNER SCALE GIRL TEST
- :identifier: :C120987
  :id: aHR0cDovL3d3dy5jZGlzYy5vcmcvQzEyMDk4Ny9WNDYjQzEyMDk4Nw==
  :last_id: ''
  :label: The Body-Mass Index, Airflow Obstruction, Dyspnea, and Exercise Capacity
    Index Clinical Classification Test Code
  :notation: BODE INDEX TESTCD
- :identifier: :C120986
  :id: aHR0cDovL3d3dy5jZGlzYy5vcmcvQzEyMDk4Ni9WNDYjQzEyMDk4Ng==
  :last_id: ''
  :label: The Body-Mass Index, Airflow Obstruction, Dyspnea, and Exercise Capacity
    Index Clinical Classification Test Name
  :notation: BODE INDEX TEST
- :identifier: :C124688
  :id: aHR0cDovL3d3dy5jZGlzYy5vcmcvQzEyNDY4OC9WNDYjQzEyNDY4OA==
  :last_id: ''
  :label: Trail Making Functional Test Test Code
  :notation: TMT TESTCD
- :identifier: :C124687
  :id: aHR0cDovL3d3dy5jZGlzYy5vcmcvQzEyNDY4Ny9WNDYjQzEyNDY4Nw==
  :last_id: ''
  :label: Trail Making Functional Test Test Name
  :notation: TMT TEST
- :identifier: :C124307
  :id: aHR0cDovL3d3dy5jZGlzYy5vcmcvQzEyNDMwNy9WNDYjQzEyNDMwNw==
  :last_id: ''
  :label: Treatment Intent
  :notation: TRTINTNT
- :identifier: :C124308
  :id: aHR0cDovL3d3dy5jZGlzYy5vcmcvQzEyNDMwOC9WNDYjQzEyNDMwOA==
  :last_id: ''
  :label: Treatment Setting
  :notation: TRTSET
- :identifier: :C123650
  :id: aHR0cDovL3d3dy5jZGlzYy5vcmcvQzEyMzY1MC9WNDYjQzEyMzY1MA==
  :last_id: ''
  :label: Tumor and Lesion Identification Test Results
  :notation: TUIDRS
- :identifier: :C124309
  :id: aHR0cDovL3d3dy5jZGlzYy5vcmcvQzEyNDMwOS9WNDYjQzEyNDMwOQ==
  :last_id: ''
  :label: Tumor or Lesion Properties Test Result
  :notation: TRPROPRS
- :identifier: :C124674
  :id: aHR0cDovL3d3dy5jZGlzYy5vcmcvQzEyNDY3NC9WNDYjQzEyNDY3NA==
  :last_id: ''
  :label: WHO Clinical Staging of HIV/AIDS for Adults and Adolescents Clinical Classification
    Test Code
  :notation: WHO HIV STAGING FOR ADULTS AND ADOLESCENTS TESTCD
- :identifier: :C124673
  :id: aHR0cDovL3d3dy5jZGlzYy5vcmcvQzEyNDY3My9WNDYjQzEyNDY3Mw==
  :last_id: ''
  :label: WHO Clinical Staging of HIV/AIDS for Adults and Adolescents Clinical Classification
    Test Name
  :notation: WHO HIV STAGING FOR ADULTS AND ADOLESCENTS TEST
- :identifier: :C124676
  :id: aHR0cDovL3d3dy5jZGlzYy5vcmcvQzEyNDY3Ni9WNDYjQzEyNDY3Ng==
  :last_id: ''
  :label: WHO Clinical Staging of HIV/AIDS for Children Clinical Classification Test
    Code
  :notation: WHO HIV STAGING FOR CHILDREN TESTCD
- :identifier: :C124675
  :id: aHR0cDovL3d3dy5jZGlzYy5vcmcvQzEyNDY3NS9WNDYjQzEyNDY3NQ==
  :last_id: ''
  :label: WHO Clinical Staging of HIV/AIDS for Children Clinical Classification Test
    Name
  :notation: WHO HIV STAGING FOR CHILDREN TEST
- :identifier: :C117746
  :id: aHR0cDovL3d3dy5jZGlzYy5vcmcvQzExNzc0Ni9WNDAjQzExNzc0Ng==
  :last_id: ''
  :label: West Haven Hepatic Encephalopathy Grade
  :notation: HEPENCGR
- :identifier: :C124680
  :id: aHR0cDovL3d3dy5jZGlzYy5vcmcvQzEyNDY4MC9WNDYjQzEyNDY4MA==
  :last_id: ''
  :label: West Haven Hepatic Encephalopathy Grade Clinical Classification Test Code
  :notation: WEST HAVEN HEPATIC ENCEPHALOPATHY GRADE TESTCD
- :identifier: :C124679
  :id: aHR0cDovL3d3dy5jZGlzYy5vcmcvQzEyNDY3OS9WNDYjQzEyNDY3OQ==
  :last_id: ''
  :label: West Haven Hepatic Encephalopathy Grade Clinical Classification Test Name
  :notation: WEST HAVEN HEPATIC ENCEPHALOPATHY GRADE TEST
:updated:
- :identifier: :C115388
  :id: aHR0cDovL3d3dy5jZGlzYy5vcmcvQzExNTM4OC9WMzkjQzExNTM4OA==
  :last_id: aHR0cDovL3d3dy5jZGlzYy5vcmcvQzExNTM4OC9WNDYjQzExNTM4OA==
  :label: FT-6 Minute Walk Functional Test Test Code
  :notation: 6MWT TESTCD
- :identifier: :C115387
  :id: aHR0cDovL3d3dy5jZGlzYy5vcmcvQzExNTM4Ny9WMzkjQzExNTM4Nw==
  :last_id: aHR0cDovL3d3dy5jZGlzYy5vcmcvQzExNTM4Ny9WNDYjQzExNTM4Nw==
  :label: FT-6 Minute Walk Functional Test Test Name
  :notation: 6MWT TEST
- :identifier: :C101807
  :id: aHR0cDovL3d3dy5jZGlzYy5vcmcvQzEwMTgwNy9WMzkjQzEwMTgwNw==
  :last_id: aHR0cDovL3d3dy5jZGlzYy5vcmcvQzEwMTgwNy9WNDYjQzEwMTgwNw==
  :label: QS-ADNI AVLT Test Code
  :notation: AVLT TESTCD
- :identifier: :C101808
  :id: aHR0cDovL3d3dy5jZGlzYy5vcmcvQzEwMTgwOC9WMzkjQzEwMTgwOA==
  :last_id: aHR0cDovL3d3dy5jZGlzYy5vcmcvQzEwMTgwOC9WNDYjQzEwMTgwOA==
  :label: QS-ADNI AVLT Test Name
  :notation: AVLT TEST
- :identifier: :C101805
  :id: aHR0cDovL3d3dy5jZGlzYy5vcmcvQzEwMTgwNS9WMzkjQzEwMTgwNQ==
  :last_id: aHR0cDovL3d3dy5jZGlzYy5vcmcvQzEwMTgwNS9WNDYjQzEwMTgwNQ==
  :label: QS-Abnormal Involuntary Movement Scale Test Code
  :notation: AIMS TESTCD
- :identifier: :C101806
  :id: aHR0cDovL3d3dy5jZGlzYy5vcmcvQzEwMTgwNi9WMzkjQzEwMTgwNg==
  :last_id: aHR0cDovL3d3dy5jZGlzYy5vcmcvQzEwMTgwNi9WNDYjQzEwMTgwNg==
  :label: QS-Abnormal Involuntary Movement Scale Test Name
  :notation: AIMS TEST
- :identifier: :C112435
  :id: aHR0cDovL3d3dy5jZGlzYy5vcmcvQzExMjQzNS9WMzkjQzExMjQzNQ==
  :last_id: aHR0cDovL3d3dy5jZGlzYy5vcmcvQzExMjQzNS9WNDYjQzExMjQzNQ==
  :label: QS-Airway Questionnaire 20 Test Code
  :notation: AQ20 TESTCD
- :identifier: :C112434
  :id: aHR0cDovL3d3dy5jZGlzYy5vcmcvQzExMjQzNC9WMzkjQzExMjQzNA==
  :last_id: aHR0cDovL3d3dy5jZGlzYy5vcmcvQzExMjQzNC9WNDYjQzExMjQzNA==
  :label: QS-Airway Questionnaire 20 Test Name
  :notation: AQ20 TEST
- :identifier: :C100132
  :id: aHR0cDovL3d3dy5jZGlzYy5vcmcvQzEwMDEzMi9WMzkjQzEwMDEzMg==
  :last_id: aHR0cDovL3d3dy5jZGlzYy5vcmcvQzEwMDEzMi9WNDYjQzEwMDEzMg==
  :label: QS-Alzheimer's Disease Assessment Scale - Cognitive CDISC Version Test Code
  :notation: ADAS-Cog CDISC Version TESTCD
- :identifier: :C100131
  :id: aHR0cDovL3d3dy5jZGlzYy5vcmcvQzEwMDEzMS9WMzkjQzEwMDEzMQ==
  :last_id: aHR0cDovL3d3dy5jZGlzYy5vcmcvQzEwMDEzMS9WNDYjQzEwMDEzMQ==
  :label: QS-Alzheimer's Disease Assessment Scale - Cognitive CDISC Version Test Name
  :notation: ADAS-Cog CDISC Version TEST
- :identifier: :C106651
  :id: aHR0cDovL3d3dy5jZGlzYy5vcmcvQzEwNjY1MS9WMzkjQzEwNjY1MQ==
  :last_id: aHR0cDovL3d3dy5jZGlzYy5vcmcvQzEwNjY1MS9WNDYjQzEwNjY1MQ==
  :label: QS-Alzheimer's Disease Cooperative Study-Activities of Daily Living Inventory
    MCI Version Questionnaire Test Code
  :notation: ADCS-ADL MCI TESTCD
- :identifier: :C106650
  :id: aHR0cDovL3d3dy5jZGlzYy5vcmcvQzEwNjY1MC9WMzkjQzEwNjY1MA==
  :last_id: aHR0cDovL3d3dy5jZGlzYy5vcmcvQzEwNjY1MC9WNDYjQzEwNjY1MA==
  :label: QS-Alzheimer's Disease Cooperative Study-Activities of Daily Living Inventory
    MCI Version Questionnaire Test Name
  :notation: ADCS-ADL MCI TEST
- :identifier: :C105140
  :id: aHR0cDovL3d3dy5jZGlzYy5vcmcvQzEwNTE0MC9WMzkjQzEwNTE0MA==
  :last_id: aHR0cDovL3d3dy5jZGlzYy5vcmcvQzEwNTE0MC9WNDYjQzEwNTE0MA==
  :label: QS-Alzheimer's Disease Cooperative Study-Activities of Daily Living Inventory
    Questionnaire Test Code
  :notation: ADCS-ADL TESTCD
- :identifier: :C105139
  :id: aHR0cDovL3d3dy5jZGlzYy5vcmcvQzEwNTEzOS9WMzkjQzEwNTEzOQ==
  :last_id: aHR0cDovL3d3dy5jZGlzYy5vcmcvQzEwNTEzOS9WNDYjQzEwNTEzOQ==
  :label: QS-Alzheimer's Disease Cooperative Study-Activities of Daily Living Inventory
    Questionnaire Test Name
  :notation: ADCS-ADL TEST
- :identifier: :C106653
  :id: aHR0cDovL3d3dy5jZGlzYy5vcmcvQzEwNjY1My9WMzkjQzEwNjY1Mw==
  :last_id: aHR0cDovL3d3dy5jZGlzYy5vcmcvQzEwNjY1My9WNDYjQzEwNjY1Mw==
  :label: QS-Alzheimer's Disease Cooperative Study-Activities of Daily Living Inventory
    Severe Dementia Version Questionnaire Test Code
  :notation: ADCS-ADL Severe Dementia TESTCD
- :identifier: :C106652
  :id: aHR0cDovL3d3dy5jZGlzYy5vcmcvQzEwNjY1Mi9WMzkjQzEwNjY1Mg==
  :last_id: aHR0cDovL3d3dy5jZGlzYy5vcmcvQzEwNjY1Mi9WNDYjQzEwNjY1Mg==
  :label: QS-Alzheimer's Disease Cooperative Study-Activities of Daily Living Inventory
    Severe Dementia Version Questionnaire Test Name
  :notation: ADCS-ADL Severe Dementia TEST
- :identifier: :C103459
  :id: aHR0cDovL3d3dy5jZGlzYy5vcmcvQzEwMzQ1OS9WMzkjQzEwMzQ1OQ==
  :last_id: aHR0cDovL3d3dy5jZGlzYy5vcmcvQzEwMzQ1OS9WNDYjQzEwMzQ1OQ==
  :label: QS-Alzheimer's Disease Cooperative Study-Clinical Global Impression of Change
    Questionnaire Test Code
  :notation: ADCS-CGIC TESTCD
- :identifier: :C103458
  :id: aHR0cDovL3d3dy5jZGlzYy5vcmcvQzEwMzQ1OC9WMzkjQzEwMzQ1OA==
  :last_id: aHR0cDovL3d3dy5jZGlzYy5vcmcvQzEwMzQ1OC9WNDYjQzEwMzQ1OA==
  :label: QS-Alzheimer's Disease Cooperative Study-Clinical Global Impression of Change
    Questionnaire Test Name
  :notation: ADCS-CGIC TEST
- :identifier: :C74456
  :id: aHR0cDovL3d3dy5jZGlzYy5vcmcvQzc0NDU2L1YzOSNDNzQ0NTY=
  :last_id: aHR0cDovL3d3dy5jZGlzYy5vcmcvQzc0NDU2L1Y0NiNDNzQ0NTY=
  :label: Anatomical Location
  :notation: LOC
- :identifier: :C101809
  :id: aHR0cDovL3d3dy5jZGlzYy5vcmcvQzEwMTgwOS9WMzkjQzEwMTgwOQ==
  :last_id: aHR0cDovL3d3dy5jZGlzYy5vcmcvQzEwMTgwOS9WNDYjQzEwMTgwOQ==
  :label: QS-Barnes Akathisia Rating Scale Test Code
  :notation: BARS TESTCD
- :identifier: :C101810
  :id: aHR0cDovL3d3dy5jZGlzYy5vcmcvQzEwMTgxMC9WMzkjQzEwMTgxMA==
  :last_id: aHR0cDovL3d3dy5jZGlzYy5vcmcvQzEwMTgxMC9WNDYjQzEwMTgxMA==
  :label: QS-Barnes Akathisia Rating Scale Test Name
  :notation: BARS TEST
- :identifier: :C106655
  :id: aHR0cDovL3d3dy5jZGlzYy5vcmcvQzEwNjY1NS9WMzkjQzEwNjY1NQ==
  :last_id: aHR0cDovL3d3dy5jZGlzYy5vcmcvQzEwNjY1NS9WNDYjQzEwNjY1NQ==
  :label: QS-Baseline Dyspnea Index Questionnaire Test Code
  :notation: BDI TESTCD
- :identifier: :C106654
  :id: aHR0cDovL3d3dy5jZGlzYy5vcmcvQzEwNjY1NC9WMzkjQzEwNjY1NA==
  :last_id: aHR0cDovL3d3dy5jZGlzYy5vcmcvQzEwNjY1NC9WNDYjQzEwNjY1NA==
  :label: QS-Baseline Dyspnea Index Questionnaire Test Name
  :notation: BDI TEST
- :identifier: :C113852
  :id: aHR0cDovL3d3dy5jZGlzYy5vcmcvQzExMzg1Mi9WMzkjQzExMzg1Mg==
  :last_id: aHR0cDovL3d3dy5jZGlzYy5vcmcvQzExMzg1Mi9WNDYjQzExMzg1Mg==
  :label: QS-Bladder Control Scale Test Code
  :notation: BLCS TESTCD
- :identifier: :C113851
  :id: aHR0cDovL3d3dy5jZGlzYy5vcmcvQzExMzg1MS9WMzkjQzExMzg1MQ==
  :last_id: aHR0cDovL3d3dy5jZGlzYy5vcmcvQzExMzg1MS9WNDYjQzExMzg1MQ==
  :label: QS-Bladder Control Scale Test Name
  :notation: BLCS TEST
- :identifier: :C88026
  :id: aHR0cDovL3d3dy5jZGlzYy5vcmcvQzg4MDI2L1YzOSNDODgwMjY=
  :last_id: aHR0cDovL3d3dy5jZGlzYy5vcmcvQzg4MDI2L1Y0MyNDODgwMjY=
  :label: Body System
  :notation: BODSYS
- :identifier: :C89960
  :id: aHR0cDovL3d3dy5jZGlzYy5vcmcvQzg5OTYwL1YyNiNDODk5NjA=
  :last_id: aHR0cDovL3d3dy5jZGlzYy5vcmcvQzg5OTYwL1Y0NiNDODk5NjA=
  :label: Body Weight Gain Test Code
  :notation: BGTESTCD
- :identifier: :C89959
  :id: aHR0cDovL3d3dy5jZGlzYy5vcmcvQzg5OTU5L1YyNiNDODk5NTk=
  :last_id: aHR0cDovL3d3dy5jZGlzYy5vcmcvQzg5OTU5L1Y0NiNDODk5NTk=
  :label: Body Weight Gain Test Name
  :notation: BGTEST
- :identifier: :C89962
  :id: aHR0cDovL3d3dy5jZGlzYy5vcmcvQzg5OTYyL1YyNiNDODk5NjI=
  :last_id: aHR0cDovL3d3dy5jZGlzYy5vcmcvQzg5OTYyL1Y0NiNDODk5NjI=
  :label: Body Weight Test Code
  :notation: BWTESTCD
- :identifier: :C89961
  :id: aHR0cDovL3d3dy5jZGlzYy5vcmcvQzg5OTYxL1YyNiNDODk5NjE=
  :last_id: aHR0cDovL3d3dy5jZGlzYy5vcmcvQzg5OTYxL1Y0NiNDODk5NjE=
  :label: Body Weight Test Name
  :notation: BWTEST
- :identifier: :C113846
  :id: aHR0cDovL3d3dy5jZGlzYy5vcmcvQzExMzg0Ni9WMzkjQzExMzg0Ng==
  :last_id: aHR0cDovL3d3dy5jZGlzYy5vcmcvQzExMzg0Ni9WNDYjQzExMzg0Ng==
  :label: QS-Borg CR-10 Scale Test Code
  :notation: Borg CR-10 Scale TESTCD
- :identifier: :C113845
  :id: aHR0cDovL3d3dy5jZGlzYy5vcmcvQzExMzg0NS9WMzkjQzExMzg0NQ==
  :last_id: aHR0cDovL3d3dy5jZGlzYy5vcmcvQzExMzg0NS9WNDYjQzExMzg0NQ==
  :label: QS-Borg CR-10 Scale Test Name
  :notation: Borg CR-10 Scale TEST
- :identifier: :C113854
  :id: aHR0cDovL3d3dy5jZGlzYy5vcmcvQzExMzg1NC9WMzkjQzExMzg1NA==
  :last_id: aHR0cDovL3d3dy5jZGlzYy5vcmcvQzExMzg1NC9WNDYjQzExMzg1NA==
  :label: QS-Bowel Control Scale Test Code
  :notation: BWCS TESTCD
- :identifier: :C113853
  :id: aHR0cDovL3d3dy5jZGlzYy5vcmcvQzExMzg1My9WMzkjQzExMzg1Mw==
  :last_id: aHR0cDovL3d3dy5jZGlzYy5vcmcvQzExMzg1My9WNDYjQzExMzg1Mw==
  :label: QS-Bowel Control Scale Test Name
  :notation: BWCS TEST
- :identifier: :C100164
  :id: aHR0cDovL3d3dy5jZGlzYy5vcmcvQzEwMDE2NC9WMzkjQzEwMDE2NA==
  :last_id: aHR0cDovL3d3dy5jZGlzYy5vcmcvQzEwMDE2NC9WNDYjQzEwMDE2NA==
  :label: QS-Brief Pain Inventory Short Form Test Code
  :notation: BPI Short Form TESTCD
- :identifier: :C100163
  :id: aHR0cDovL3d3dy5jZGlzYy5vcmcvQzEwMDE2My9WMzkjQzEwMDE2Mw==
  :last_id: aHR0cDovL3d3dy5jZGlzYy5vcmcvQzEwMDE2My9WNDYjQzEwMDE2Mw==
  :label: QS-Brief Pain Inventory Short Form Test Name
  :notation: BPI Short Form TEST
- :identifier: :C100162
  :id: aHR0cDovL3d3dy5jZGlzYy5vcmcvQzEwMDE2Mi9WMzkjQzEwMDE2Mg==
  :last_id: aHR0cDovL3d3dy5jZGlzYy5vcmcvQzEwMDE2Mi9WNDYjQzEwMDE2Mg==
  :label: QS-Brief Pain Inventory Test Code
  :notation: BPI TESTCD
- :identifier: :C100161
  :id: aHR0cDovL3d3dy5jZGlzYy5vcmcvQzEwMDE2MS9WMzkjQzEwMDE2MQ==
  :last_id: aHR0cDovL3d3dy5jZGlzYy5vcmcvQzEwMDE2MS9WNDYjQzEwMDE2MQ==
  :label: QS-Brief Pain Inventory Test Name
  :notation: BPI TEST
- :identifier: :C100134
  :id: aHR0cDovL3d3dy5jZGlzYy5vcmcvQzEwMDEzNC9WMzkjQzEwMDEzNA==
  :last_id: aHR0cDovL3d3dy5jZGlzYy5vcmcvQzEwMDEzNC9WNDYjQzEwMDEzNA==
  :label: QS-Brief Psychiatric Rating Scale-A Test Code
  :notation: BPRS-A TESTCD
- :identifier: :C100133
  :id: aHR0cDovL3d3dy5jZGlzYy5vcmcvQzEwMDEzMy9WMzkjQzEwMDEzMw==
  :last_id: aHR0cDovL3d3dy5jZGlzYy5vcmcvQzEwMDEzMy9WNDYjQzEwMDEzMw==
  :label: QS-Brief Psychiatric Rating Scale-A Test Name
  :notation: BPRS-A TEST
- :identifier: :C101859
  :id: aHR0cDovL3d3dy5jZGlzYy5vcmcvQzEwMTg1OS9WMzkjQzEwMTg1OQ==
  :last_id: aHR0cDovL3d3dy5jZGlzYy5vcmcvQzEwMTg1OS9WNDIjQzEwMTg1OQ==
  :label: Cardiac Procedure Indication
  :notation: CVPRCIND
- :identifier: :C101847
  :id: aHR0cDovL3d3dy5jZGlzYy5vcmcvQzEwMTg0Ny9WMzcjQzEwMTg0Nw==
  :last_id: aHR0cDovL3d3dy5jZGlzYy5vcmcvQzEwMTg0Ny9WNDUjQzEwMTg0Nw==
  :label: Cardiovascular Test Code
  :notation: CVEXAMCD
- :identifier: :C101846
  :id: aHR0cDovL3d3dy5jZGlzYy5vcmcvQzEwMTg0Ni9WMzcjQzEwMTg0Ng==
  :last_id: aHR0cDovL3d3dy5jZGlzYy5vcmcvQzEwMTg0Ni9WNDUjQzEwMTg0Ng==
  :label: Cardiovascular Test Name
  :notation: CVEXAM
- :identifier: :C74558
  :id: aHR0cDovL3d3dy5jZGlzYy5vcmcvQzc0NTU4L1Y4I0M3NDU1OA==
  :last_id: aHR0cDovL3d3dy5jZGlzYy5vcmcvQzc0NTU4L1Y0MiNDNzQ1NTg=
  :label: Category for Disposition Event
  :notation: DSCAT
- :identifier: :C111109
  :id: aHR0cDovL3d3dy5jZGlzYy5vcmcvQzExMTEwOS9WMzkjQzExMTEwOQ==
  :last_id: aHR0cDovL3d3dy5jZGlzYy5vcmcvQzExMTEwOS9WNDYjQzExMTEwOQ==
  :label: Device Events Category
  :notation: DECAT
- :identifier: :C115304
  :id: aHR0cDovL3d3dy5jZGlzYy5vcmcvQzExNTMwNC9WMzkjQzExNTMwNA==
  :last_id: aHR0cDovL3d3dy5jZGlzYy5vcmcvQzExNTMwNC9WNDYjQzExNTMwNA==
  :label: Category of Functional Test
  :notation: FTCAT
- :identifier: :C100129
  :id: aHR0cDovL3d3dy5jZGlzYy5vcmcvQzEwMDEyOS9WMzkjQzEwMDEyOQ==
  :last_id: aHR0cDovL3d3dy5jZGlzYy5vcmcvQzEwMDEyOS9WNDYjQzEwMDEyOQ==
  :label: Category of Questionnaire
  :notation: QSCAT
- :identifier: :C101811
  :id: aHR0cDovL3d3dy5jZGlzYy5vcmcvQzEwMTgxMS9WMzkjQzEwMTgxMQ==
  :last_id: aHR0cDovL3d3dy5jZGlzYy5vcmcvQzEwMTgxMS9WNDYjQzEwMTgxMQ==
  :label: QS-Clinical Dementia Rating Test Code
  :notation: CDR TESTCD
- :identifier: :C101812
  :id: aHR0cDovL3d3dy5jZGlzYy5vcmcvQzEwMTgxMi9WMzkjQzEwMTgxMg==
  :last_id: aHR0cDovL3d3dy5jZGlzYy5vcmcvQzEwMTgxMi9WNDYjQzEwMTgxMg==
  :label: QS-Clinical Dementia Rating Test Name
  :notation: CDR TEST
- :identifier: :C100150
  :id: aHR0cDovL3d3dy5jZGlzYy5vcmcvQzEwMDE1MC9WMzkjQzEwMDE1MA==
  :last_id: aHR0cDovL3d3dy5jZGlzYy5vcmcvQzEwMDE1MC9WNDYjQzEwMDE1MA==
  :label: QS-Clinical Global Impression Test Code
  :notation: CGI TESTCD
- :identifier: :C100149
  :id: aHR0cDovL3d3dy5jZGlzYy5vcmcvQzEwMDE0OS9WMzkjQzEwMDE0OQ==
  :last_id: aHR0cDovL3d3dy5jZGlzYy5vcmcvQzEwMDE0OS9WNDYjQzEwMDE0OQ==
  :label: QS-Clinical Global Impression Test Name
  :notation: CGI TEST
- :identifier: :C101813
  :id: aHR0cDovL3d3dy5jZGlzYy5vcmcvQzEwMTgxMy9WMzkjQzEwMTgxMw==
  :last_id: aHR0cDovL3d3dy5jZGlzYy5vcmcvQzEwMTgxMy9WNDYjQzEwMTgxMw==
  :label: QS-Clinical Opiate Withdrawal Scale Test Code
  :notation: COWS TESTCD
- :identifier: :C101814
  :id: aHR0cDovL3d3dy5jZGlzYy5vcmcvQzEwMTgxNC9WMzkjQzEwMTgxNA==
  :last_id: aHR0cDovL3d3dy5jZGlzYy5vcmcvQzEwMTgxNC9WNDYjQzEwMTgxNA==
  :label: QS-Clinical Opiate Withdrawal Scale Test Name
  :notation: COWS TEST
- :identifier: :C106659
  :id: aHR0cDovL3d3dy5jZGlzYy5vcmcvQzEwNjY1OS9WMzkjQzEwNjY1OQ==
  :last_id: aHR0cDovL3d3dy5jZGlzYy5vcmcvQzEwNjY1OS9WNDYjQzEwNjY1OQ==
  :label: QS-Columbia-Suicide Severity Rating Scale Already Enrolled Subjects Questionnaire
    Test Code
  :notation: C-SSRS Already Enrolled Subjects TESTCD
- :identifier: :C106658
  :id: aHR0cDovL3d3dy5jZGlzYy5vcmcvQzEwNjY1OC9WMzkjQzEwNjY1OA==
  :last_id: aHR0cDovL3d3dy5jZGlzYy5vcmcvQzEwNjY1OC9WNDYjQzEwNjY1OA==
  :label: QS-Columbia-Suicide Severity Rating Scale Already Enrolled Subjects Questionnaire
    Test Name
  :notation: C-SSRS Already Enrolled Subjects TEST
- :identifier: :C100168
  :id: aHR0cDovL3d3dy5jZGlzYy5vcmcvQzEwMDE2OC9WMzkjQzEwMDE2OA==
  :last_id: aHR0cDovL3d3dy5jZGlzYy5vcmcvQzEwMDE2OC9WNDYjQzEwMDE2OA==
  :label: QS-Columbia-Suicidality Severity Rating Scale Baseline Test Code
  :notation: C-SSRS Baseline TESTCD
- :identifier: :C100167
  :id: aHR0cDovL3d3dy5jZGlzYy5vcmcvQzEwMDE2Ny9WMzkjQzEwMDE2Nw==
  :last_id: aHR0cDovL3d3dy5jZGlzYy5vcmcvQzEwMDE2Ny9WNDYjQzEwMDE2Nw==
  :label: QS-Columbia-Suicidality Severity Rating Scale Baseline Test Name
  :notation: C-SSRS Baseline TEST
- :identifier: :C105132
  :id: aHR0cDovL3d3dy5jZGlzYy5vcmcvQzEwNTEzMi9WMzkjQzEwNTEzMg==
  :last_id: aHR0cDovL3d3dy5jZGlzYy5vcmcvQzEwNTEzMi9WNDYjQzEwNTEzMg==
  :label: QS-Columbia-Suicidality Severity Rating Scale Baseline/Screening Version
    Phase 1 Study Questionnaire Test Code
  :notation: C-SSRS Baseline/Screening Version Phase 1 Study TESTCD
- :identifier: :C105131
  :id: aHR0cDovL3d3dy5jZGlzYy5vcmcvQzEwNTEzMS9WMzkjQzEwNTEzMQ==
  :last_id: aHR0cDovL3d3dy5jZGlzYy5vcmcvQzEwNTEzMS9WNDYjQzEwNTEzMQ==
  :label: QS-Columbia-Suicidality Severity Rating Scale Baseline/Screening Version
    Phase 1 Study Questionnaire Test Name
  :notation: C-SSRS Baseline/Screening Version Phase 1 Study TEST
- :identifier: :C106661
  :id: aHR0cDovL3d3dy5jZGlzYy5vcmcvQzEwNjY2MS9WMzkjQzEwNjY2MQ==
  :last_id: aHR0cDovL3d3dy5jZGlzYy5vcmcvQzEwNjY2MS9WNDYjQzEwNjY2MQ==
  :label: QS-Columbia-Suicide Severity Rating Scale Baseline/Screening Version Questionnaire
    Test Code
  :notation: C-SSRS Baseline/Screening Version TESTCD
- :identifier: :C106660
  :id: aHR0cDovL3d3dy5jZGlzYy5vcmcvQzEwNjY2MC9WMzkjQzEwNjY2MA==
  :last_id: aHR0cDovL3d3dy5jZGlzYy5vcmcvQzEwNjY2MC9WNDYjQzEwNjY2MA==
  :label: QS-Columbia-Suicide Severity Rating Scale Baseline/Screening Version Questionnaire
    Test Name
  :notation: C-SSRS Baseline/Screening Version TEST
- :identifier: :C111336
  :id: aHR0cDovL3d3dy5jZGlzYy5vcmcvQzExMTMzNi9WMzkjQzExMTMzNg==
  :last_id: aHR0cDovL3d3dy5jZGlzYy5vcmcvQzExMTMzNi9WNDYjQzExMTMzNg==
  :label: QS-Columbia-Suicide Severity Rating Scale Children's Baseline Questionnaire
    Test Code
  :notation: C-SSRS Children's Baseline TESTCD
- :identifier: :C111335
  :id: aHR0cDovL3d3dy5jZGlzYy5vcmcvQzExMTMzNS9WMzkjQzExMTMzNQ==
  :last_id: aHR0cDovL3d3dy5jZGlzYy5vcmcvQzExMTMzNS9WNDYjQzExMTMzNQ==
  :label: QS-Columbia-Suicide Severity Rating Scale Children's Baseline Questionnaire
    Test Name
  :notation: C-SSRS Children's Baseline TEST
- :identifier: :C111338
  :id: aHR0cDovL3d3dy5jZGlzYy5vcmcvQzExMTMzOC9WMzkjQzExMTMzOA==
  :last_id: aHR0cDovL3d3dy5jZGlzYy5vcmcvQzExMTMzOC9WNDYjQzExMTMzOA==
  :label: QS-Columbia-Suicide Severity Rating Scale Children's Baseline/Screening
    Questionnaire Test Code
  :notation: C-SSRS Children's Baseline/Screening TESTCD
- :identifier: :C111337
  :id: aHR0cDovL3d3dy5jZGlzYy5vcmcvQzExMTMzNy9WMzkjQzExMTMzNw==
  :last_id: aHR0cDovL3d3dy5jZGlzYy5vcmcvQzExMTMzNy9WNDYjQzExMTMzNw==
  :label: QS-Columbia-Suicide Severity Rating Scale Children's Baseline/Screening
    Questionnaire Test Name
  :notation: C-SSRS Children's Baseline/Screening TEST
- :identifier: :C111340
  :id: aHR0cDovL3d3dy5jZGlzYy5vcmcvQzExMTM0MC9WMzkjQzExMTM0MA==
  :last_id: aHR0cDovL3d3dy5jZGlzYy5vcmcvQzExMTM0MC9WNDYjQzExMTM0MA==
  :label: QS-Columbia-Suicide Severity Rating Scale Children's Since Last Visit Questionnaire
    Test Code
  :notation: C-SSRS Children's Since Last Visit TESTCD
- :identifier: :C111339
  :id: aHR0cDovL3d3dy5jZGlzYy5vcmcvQzExMTMzOS9WMzkjQzExMTMzOQ==
  :last_id: aHR0cDovL3d3dy5jZGlzYy5vcmcvQzExMTMzOS9WNDYjQzExMTMzOQ==
  :label: QS-Columbia-Suicide Severity Rating Scale Children's Since Last Visit Questionnaire
    Test Name
  :notation: C-SSRS Children's Since Last Visit TEST
- :identifier: :C113848
  :id: aHR0cDovL3d3dy5jZGlzYy5vcmcvQzExMzg0OC9WMzkjQzExMzg0OA==
  :last_id: aHR0cDovL3d3dy5jZGlzYy5vcmcvQzExMzg0OC9WNDYjQzExMzg0OA==
  :label: QS-Columbia-Suicide Severity Rating Scale Pediatric/Cognitively Impaired
    Lifetime/Recent Test Code
  :notation: C-SSRS PEDIATRIC/COGNITIVELY IMPAIRED LIFETIME/RECENT TESTCD
- :identifier: :C113847
  :id: aHR0cDovL3d3dy5jZGlzYy5vcmcvQzExMzg0Ny9WMzkjQzExMzg0Nw==
  :last_id: aHR0cDovL3d3dy5jZGlzYy5vcmcvQzExMzg0Ny9WNDYjQzExMzg0Nw==
  :label: QS-Columbia-Suicide Severity Rating Scale Pediatric/Cognitively Impaired
    Lifetime/Recent Test Name
  :notation: C-SSRS PEDIATRIC/COGNITIVELY IMPAIRED LIFETIME/RECENT TEST
- :identifier: :C111342
  :id: aHR0cDovL3d3dy5jZGlzYy5vcmcvQzExMTM0Mi9WMzkjQzExMTM0Mg==
  :last_id: aHR0cDovL3d3dy5jZGlzYy5vcmcvQzExMTM0Mi9WNDYjQzExMTM0Mg==
  :label: QS-Columbia-Suicide Severity Rating Scale Screening Questionnaire Test Code
  :notation: C-SSRS Screening TESTCD
- :identifier: :C111341
  :id: aHR0cDovL3d3dy5jZGlzYy5vcmcvQzExMTM0MS9WMzkjQzExMTM0MQ==
  :last_id: aHR0cDovL3d3dy5jZGlzYy5vcmcvQzExMTM0MS9WNDYjQzExMTM0MQ==
  :label: QS-Columbia-Suicide Severity Rating Scale Screening Questionnaire Test Name
  :notation: C-SSRS Screening TEST
- :identifier: :C103461
  :id: aHR0cDovL3d3dy5jZGlzYy5vcmcvQzEwMzQ2MS9WMzkjQzEwMzQ2MQ==
  :last_id: aHR0cDovL3d3dy5jZGlzYy5vcmcvQzEwMzQ2MS9WNDYjQzEwMzQ2MQ==
  :label: QS-Columbia-Suicidality Severity Rating Scale Since Last Visit Questionnaire
    Test Code
  :notation: C-SSRS Since Last Visit TESTCD
- :identifier: :C103460
  :id: aHR0cDovL3d3dy5jZGlzYy5vcmcvQzEwMzQ2MC9WMzkjQzEwMzQ2MA==
  :last_id: aHR0cDovL3d3dy5jZGlzYy5vcmcvQzEwMzQ2MC9WNDYjQzEwMzQ2MA==
  :label: QS-Columbia-Suicidality Severity Rating Scale Since Last Visit Questionnaire
    Test Name
  :notation: C-SSRS Since Last Visit TEST
- :identifier: :C66727
  :id: aHR0cDovL3d3dy5jZGlzYy5vcmcvQzY2NzI3L1YzOCNDNjY3Mjc=
  :last_id: aHR0cDovL3d3dy5jZGlzYy5vcmcvQzY2NzI3L1Y0NSNDNjY3Mjc=
  :label: Completion/Reason for Non-Completion
  :notation: NCOMPLT
- :identifier: :C78417
  :id: aHR0cDovL3d3dy5jZGlzYy5vcmcvQzc4NDE3L1YzOCNDNzg0MTc=
  :last_id: aHR0cDovL3d3dy5jZGlzYy5vcmcvQzc4NDE3L1Y0MCNDNzg0MTc=
  :label: Concomitant Medication Dose Units
  :notation: CMDOSU
- :identifier: :C78419
  :id: aHR0cDovL3d3dy5jZGlzYy5vcmcvQzc4NDE5L1YzOCNDNzg0MTk=
  :last_id: aHR0cDovL3d3dy5jZGlzYy5vcmcvQzc4NDE5L1Y0MyNDNzg0MTk=
  :label: Concomitant Medication Dosing Frequency per Interval
  :notation: CMDOSFRQ
- :identifier: :C66785
  :id: aHR0cDovL3d3dy5jZGlzYy5vcmcvQzY2Nzg1L1YyOCNDNjY3ODU=
  :last_id: aHR0cDovL3d3dy5jZGlzYy5vcmcvQzY2Nzg1L1Y0MyNDNjY3ODU=
  :label: Control Type
  :notation: TCNTRL
- :identifier: :C101860
  :id: aHR0cDovL3d3dy5jZGlzYy5vcmcvQzEwMTg2MC9WMzMjQzEwMTg2MA==
  :last_id: aHR0cDovL3d3dy5jZGlzYy5vcmcvQzEwMTg2MC9WNDIjQzEwMTg2MA==
  :label: Coronary Artery Dominance
  :notation: CARTDOM
- :identifier: :C101850
  :id: aHR0cDovL3d3dy5jZGlzYy5vcmcvQzEwMTg1MC9WMzYjQzEwMTg1MA==
  :last_id: aHR0cDovL3d3dy5jZGlzYy5vcmcvQzEwMTg1MC9WNDIjQzEwMTg1MA==
  :label: Coronary Vessel Disease Extent
  :notation: CVSLDEXT
- :identifier: :C66786
  :id: aHR0cDovL3d3dy5jZGlzYy5vcmcvQzY2Nzg2L1YzOCNDNjY3ODY=
  :last_id: aHR0cDovL3d3dy5jZGlzYy5vcmcvQzY2Nzg2L1Y0NSNDNjY3ODY=
  :label: Country
  :notation: COUNTRY
- :identifier: :C100158
  :id: aHR0cDovL3d3dy5jZGlzYy5vcmcvQzEwMDE1OC9WMzkjQzEwMDE1OA==
  :last_id: aHR0cDovL3d3dy5jZGlzYy5vcmcvQzEwMDE1OC9WNDYjQzEwMDE1OA==
  :label: QS-Current Opioid Misuse Measure Test Code
  :notation: COMM TESTCD
- :identifier: :C100157
  :id: aHR0cDovL3d3dy5jZGlzYy5vcmcvQzEwMDE1Ny9WMzkjQzEwMDE1Nw==
  :last_id: aHR0cDovL3d3dy5jZGlzYy5vcmcvQzEwMDE1Ny9WNDYjQzEwMDE1Nw==
  :label: QS-Current Opioid Misuse Measure Test Name
  :notation: COMM TEST
- :identifier: :C116108
  :id: aHR0cDovL3d3dy5jZGlzYy5vcmcvQzExNjEwOC9WMzkjQzExNjEwOA==
  :last_id: aHR0cDovL3d3dy5jZGlzYy5vcmcvQzExNjEwOC9WNDYjQzExNjEwOA==
  :label: Death Details Test Code
  :notation: DDTESTCD
- :identifier: :C116107
  :id: aHR0cDovL3d3dy5jZGlzYy5vcmcvQzExNjEwNy9WMzkjQzExNjEwNw==
  :last_id: aHR0cDovL3d3dy5jZGlzYy5vcmcvQzExNjEwNy9WNDYjQzExNjEwNw==
  :label: Death Details Test Name
  :notation: DDTEST
- :identifier: :C106480
  :id: aHR0cDovL3d3dy5jZGlzYy5vcmcvQzEwNjQ4MC9WMzcjQzEwNjQ4MA==
  :last_id: aHR0cDovL3d3dy5jZGlzYy5vcmcvQzEwNjQ4MC9WNDQjQzEwNjQ4MA==
  :label: Device Identifier Long Name
  :notation: DIPARM
- :identifier: :C106481
  :id: aHR0cDovL3d3dy5jZGlzYy5vcmcvQzEwNjQ4MS9WMzcjQzEwNjQ4MQ==
  :last_id: aHR0cDovL3d3dy5jZGlzYy5vcmcvQzEwNjQ4MS9WNDQjQzEwNjQ4MQ==
  :label: Device Identifier Short Name
  :notation: DIPARMCD
- :identifier: :C111111
  :id: aHR0cDovL3d3dy5jZGlzYy5vcmcvQzExMTExMS9WMzkjQzExMTExMQ==
  :last_id: aHR0cDovL3d3dy5jZGlzYy5vcmcvQzExMTExMS9WNDMjQzExMTExMQ==
  :label: Device Properties Test Code
  :notation: DOTESTCD
- :identifier: :C111112
  :id: aHR0cDovL3d3dy5jZGlzYy5vcmcvQzExMTExMi9WMzkjQzExMTExMg==
  :last_id: aHR0cDovL3d3dy5jZGlzYy5vcmcvQzExMTExMi9WNDMjQzExMTExMg==
  :label: Device Properties Test Name
  :notation: DOTEST
- :identifier: :C112037
  :id: aHR0cDovL3d3dy5jZGlzYy5vcmcvQzExMjAzNy9WMzgjQzExMjAzNw==
  :last_id: aHR0cDovL3d3dy5jZGlzYy5vcmcvQzExMjAzNy9WNDUjQzExMjAzNw==
  :label: Device Tracking and Disposition Event Dictionary Derived Term
  :notation: DTDECOD
- :identifier: :C106483
  :id: aHR0cDovL3d3dy5jZGlzYy5vcmcvQzEwNjQ4My9WMzkjQzEwNjQ4Mw==
  :last_id: aHR0cDovL3d3dy5jZGlzYy5vcmcvQzEwNjQ4My9WNDIjQzEwNjQ4Mw==
  :label: Device-In-Use Test Code
  :notation: DUTESTCD
- :identifier: :C106482
  :id: aHR0cDovL3d3dy5jZGlzYy5vcmcvQzEwNjQ4Mi9WMzkjQzEwNjQ4Mg==
  :last_id: aHR0cDovL3d3dy5jZGlzYy5vcmcvQzEwNjQ4Mi9WNDIjQzEwNjQ4Mg==
  :label: Device-In-Use Test Name
  :notation: DUTEST
- :identifier: :C99074
  :id: aHR0cDovL3d3dy5jZGlzYy5vcmcvQzk5MDc0L1YzMSNDOTkwNzQ=
  :last_id: aHR0cDovL3d3dy5jZGlzYy5vcmcvQzk5MDc0L1Y0MCNDOTkwNzQ=
  :label: Directionality
  :notation: DIR
- :identifier: :C105130
  :id: aHR0cDovL3d3dy5jZGlzYy5vcmcvQzEwNTEzMC9WMzkjQzEwNTEzMA==
  :last_id: aHR0cDovL3d3dy5jZGlzYy5vcmcvQzEwNTEzMC9WNDYjQzEwNTEzMA==
  :label: QS-Disability Assessment for Dementia Questionnaire Test Code
  :notation: DAD TESTCD
- :identifier: :C105129
  :id: aHR0cDovL3d3dy5jZGlzYy5vcmcvQzEwNTEyOS9WMzkjQzEwNTEyOQ==
  :last_id: aHR0cDovL3d3dy5jZGlzYy5vcmcvQzEwNTEyOS9WNDYjQzEwNTEyOQ==
  :label: QS-Disability Assessment for Dementia Questionnaire Test Name
  :notation: DAD TEST
- :identifier: :C115402
  :id: aHR0cDovL3d3dy5jZGlzYy5vcmcvQzExNTQwMi9WMzkjQzExNTQwMg==
  :last_id: aHR0cDovL3d3dy5jZGlzYy5vcmcvQzExNTQwMi9WNDYjQzExNTQwMg==
  :label: QS-Disability Rating Scale Questionnaire Test Code
  :notation: DRS TESTCD
- :identifier: :C115401
  :id: aHR0cDovL3d3dy5jZGlzYy5vcmcvQzExNTQwMS9WMzkjQzExNTQwMQ==
  :last_id: aHR0cDovL3d3dy5jZGlzYy5vcmcvQzExNTQwMS9WNDYjQzExNTQwMQ==
  :label: QS-Disability Rating Scale Questionnaire Test Name
  :notation: DRS TEST
- :identifier: :C101863
  :id: aHR0cDovL3d3dy5jZGlzYy5vcmcvQzEwMTg2My9WMzMjQzEwMTg2Mw==
  :last_id: aHR0cDovL3d3dy5jZGlzYy5vcmcvQzEwMTg2My9WNDIjQzEwMTg2Mw==
  :label: Discharge Disposition
  :notation: DISCHDX
- :identifier: :C112437
  :id: aHR0cDovL3d3dy5jZGlzYy5vcmcvQzExMjQzNy9WMzkjQzExMjQzNw==
  :last_id: aHR0cDovL3d3dy5jZGlzYy5vcmcvQzExMjQzNy9WNDYjQzExMjQzNw==
  :label: QS-Disease Steps Questionnaire Test Code
  :notation: Disease Steps TESTCD
- :identifier: :C112436
  :id: aHR0cDovL3d3dy5jZGlzYy5vcmcvQzExMjQzNi9WMzkjQzExMjQzNg==
  :last_id: aHR0cDovL3d3dy5jZGlzYy5vcmcvQzExMjQzNi9WNDYjQzExMjQzNg==
  :label: QS-Disease Steps Questionnaire Test Name
  :notation: Disease Steps TEST
- :identifier: :C78732
  :id: aHR0cDovL3d3dy5jZGlzYy5vcmcvQzc4NzMyL1YxNCNDNzg3MzI=
  :last_id: aHR0cDovL3d3dy5jZGlzYy5vcmcvQzc4NzMyL1Y0NCNDNzg3MzI=
  :label: Drug Accountability Test Code
  :notation: DATESTCD
- :identifier: :C78731
  :id: aHR0cDovL3d3dy5jZGlzYy5vcmcvQzc4NzMxL1YxNCNDNzg3MzE=
  :last_id: aHR0cDovL3d3dy5jZGlzYy5vcmcvQzc4NzMxL1Y0NCNDNzg3MzE=
  :label: Drug Accountability Test Name
  :notation: DATEST
- :identifier: :C90013
  :id: aHR0cDovL3d3dy5jZGlzYy5vcmcvQzkwMDEzL1YyNiNDOTAwMTM=
  :last_id: aHR0cDovL3d3dy5jZGlzYy5vcmcvQzkwMDEzL1Y0MCNDOTAwMTM=
  :label: ECG Lead
  :notation: EGLEAD
- :identifier: :C71150
  :id: aHR0cDovL3d3dy5jZGlzYy5vcmcvQzcxMTUwL1YzOSNDNzExNTA=
  :last_id: aHR0cDovL3d3dy5jZGlzYy5vcmcvQzcxMTUwL1Y0NCNDNzExNTA=
  :label: ECG Result
  :notation: EGSTRESC
- :identifier: :C71153
  :id: aHR0cDovL3d3dy5jZGlzYy5vcmcvQzcxMTUzL1YzOSNDNzExNTM=
  :last_id: aHR0cDovL3d3dy5jZGlzYy5vcmcvQzcxMTUzL1Y0NiNDNzExNTM=
  :label: ECG Test Code
  :notation: EGTESTCD
- :identifier: :C71151
  :id: aHR0cDovL3d3dy5jZGlzYy5vcmcvQzcxMTUxL1YzOSNDNzExNTE=
  :last_id: aHR0cDovL3d3dy5jZGlzYy5vcmcvQzcxMTUxL1Y0NSNDNzExNTE=
  :label: ECG Test Method
  :notation: EGMETHOD
- :identifier: :C71152
  :id: aHR0cDovL3d3dy5jZGlzYy5vcmcvQzcxMTUyL1YzOSNDNzExNTI=
  :last_id: aHR0cDovL3d3dy5jZGlzYy5vcmcvQzcxMTUyL1Y0NiNDNzExNTI=
  :label: ECG Test Name
  :notation: EGTEST
- :identifier: :C101815
  :id: aHR0cDovL3d3dy5jZGlzYy5vcmcvQzEwMTgxNS9WMzkjQzEwMTgxNQ==
  :last_id: aHR0cDovL3d3dy5jZGlzYy5vcmcvQzEwMTgxNS9WNDYjQzEwMTgxNQ==
  :label: QS-Eastern Cooperative Oncology Group Performance Status Test Code
  :notation: ECOG TESTCD
- :identifier: :C101816
  :id: aHR0cDovL3d3dy5jZGlzYy5vcmcvQzEwMTgxNi9WMzkjQzEwMTgxNg==
  :last_id: aHR0cDovL3d3dy5jZGlzYy5vcmcvQzEwMTgxNi9WNDYjQzEwMTgxNg==
  :label: QS-Eastern Cooperative Oncology Group Performance Status Test Name
  :notation: ECOG TEST
- :identifier: :C99079
  :id: aHR0cDovL3d3dy5jZGlzYy5vcmcvQzk5MDc5L1YzOCNDOTkwNzk=
  :last_id: aHR0cDovL3d3dy5jZGlzYy5vcmcvQzk5MDc5L1Y0NSNDOTkwNzk=
  :label: Epoch
  :notation: EPOCH
- :identifier: :C103463
  :id: aHR0cDovL3d3dy5jZGlzYy5vcmcvQzEwMzQ2My9WMzkjQzEwMzQ2Mw==
  :last_id: aHR0cDovL3d3dy5jZGlzYy5vcmcvQzEwMzQ2My9WNDYjQzEwMzQ2Mw==
  :label: QS-Epworth Sleepiness Scale Questionnaire Test Code
  :notation: ESS TESTCD
- :identifier: :C103462
  :id: aHR0cDovL3d3dy5jZGlzYy5vcmcvQzEwMzQ2Mi9WMzkjQzEwMzQ2Mg==
  :last_id: aHR0cDovL3d3dy5jZGlzYy5vcmcvQzEwMzQ2Mi9WNDYjQzEwMzQ2Mg==
  :label: QS-Epworth Sleepiness Scale Questionnaire Test Name
  :notation: ESS TEST
- :identifier: :C101817
  :id: aHR0cDovL3d3dy5jZGlzYy5vcmcvQzEwMTgxNy9WMzkjQzEwMTgxNw==
  :last_id: aHR0cDovL3d3dy5jZGlzYy5vcmcvQzEwMTgxNy9WNDYjQzEwMTgxNw==
  :label: QS-European Quality of Life Five Dimension Five Level Scale Test Code
  :notation: EQ-5D-5L TESTCD
- :identifier: :C101818
  :id: aHR0cDovL3d3dy5jZGlzYy5vcmcvQzEwMTgxOC9WMzkjQzEwMTgxOA==
  :last_id: aHR0cDovL3d3dy5jZGlzYy5vcmcvQzEwMTgxOC9WNDYjQzEwMTgxOA==
  :label: QS-European Quality of Life Five Dimension Five Level Scale Test Name
  :notation: EQ-5D-5L TEST
- :identifier: :C100136
  :id: aHR0cDovL3d3dy5jZGlzYy5vcmcvQzEwMDEzNi9WMzkjQzEwMDEzNg==
  :last_id: aHR0cDovL3d3dy5jZGlzYy5vcmcvQzEwMDEzNi9WNDYjQzEwMDEzNg==
  :label: QS-European Quality of Life Five Dimension Three Level Scale Test Code
  :notation: EQ-5D-3L TESTCD
- :identifier: :C100135
  :id: aHR0cDovL3d3dy5jZGlzYy5vcmcvQzEwMDEzNS9WMzkjQzEwMDEzNQ==
  :last_id: aHR0cDovL3d3dy5jZGlzYy5vcmcvQzEwMDEzNS9WNDYjQzEwMDEzNQ==
  :label: QS-European Quality of Life Five Dimension Three Level Scale Test Name
  :notation: EQ-5D-3L TEST
- :identifier: :C78735
  :id: aHR0cDovL3d3dy5jZGlzYy5vcmcvQzc4NzM1L1YzNSNDNzg3MzU=
  :last_id: aHR0cDovL3d3dy5jZGlzYy5vcmcvQzc4NzM1L1Y0MiNDNzg3MzU=
  :label: Evaluator
  :notation: EVAL
- :identifier: :C78745
  :id: aHR0cDovL3d3dy5jZGlzYy5vcmcvQzc4NzQ1L1YzOCNDNzg3NDU=
  :last_id: aHR0cDovL3d3dy5jZGlzYy5vcmcvQzc4NzQ1L1Y0MyNDNzg3NDU=
  :label: Exposure Dosing Frequency per Interval
  :notation: EXDOSFRQ
- :identifier: :C115404
  :id: aHR0cDovL3d3dy5jZGlzYy5vcmcvQzExNTQwNC9WMzkjQzExNTQwNA==
  :last_id: aHR0cDovL3d3dy5jZGlzYy5vcmcvQzExNTQwNC9WNDYjQzExNTQwNA==
  :label: QS-Extended Glasgow Outcome Scale Questionnaire Test Code
  :notation: GOSE TESTCD
- :identifier: :C115403
  :id: aHR0cDovL3d3dy5jZGlzYy5vcmcvQzExNTQwMy9WMzkjQzExNTQwMw==
  :last_id: aHR0cDovL3d3dy5jZGlzYy5vcmcvQzExNTQwMy9WNDYjQzExNTQwMw==
  :label: QS-Extended Glasgow Outcome Scale Questionnaire Test Name
  :notation: GOSE TEST
- :identifier: :C100154
  :id: aHR0cDovL3d3dy5jZGlzYy5vcmcvQzEwMDE1NC9WMzkjQzEwMDE1NA==
  :last_id: aHR0cDovL3d3dy5jZGlzYy5vcmcvQzEwMDE1NC9WNDYjQzEwMDE1NA==
  :label: QS-Faces Pain Scale - Revised Test Code
  :notation: FPSR TESTCD
- :identifier: :C100153
  :id: aHR0cDovL3d3dy5jZGlzYy5vcmcvQzEwMDE1My9WMzkjQzEwMDE1Mw==
  :last_id: aHR0cDovL3d3dy5jZGlzYy5vcmcvQzEwMDE1My9WNDYjQzEwMDE1Mw==
  :label: QS-Faces Pain Scale - Revised Test Name
  :notation: FPSR TEST
- :identifier: :C113850
  :id: aHR0cDovL3d3dy5jZGlzYy5vcmcvQzExMzg1MC9WMzkjQzExMzg1MA==
  :last_id: aHR0cDovL3d3dy5jZGlzYy5vcmcvQzExMzg1MC9WNDYjQzExMzg1MA==
  :label: QS-Fatigue Severity Scale Test Code
  :notation: FSS TESTCD
- :identifier: :C113849
  :id: aHR0cDovL3d3dy5jZGlzYy5vcmcvQzExMzg0OS9WMzkjQzExMzg0OQ==
  :last_id: aHR0cDovL3d3dy5jZGlzYy5vcmcvQzExMzg0OS9WNDYjQzExMzg0OQ==
  :label: QS-Fatigue Severity Scale Test Name
  :notation: FSS TEST
- :identifier: :C71113
  :id: aHR0cDovL3d3dy5jZGlzYy5vcmcvQzcxMTEzL1YzOSNDNzExMTM=
  :last_id: aHR0cDovL3d3dy5jZGlzYy5vcmcvQzcxMTEzL1Y0MyNDNzExMTM=
  :label: Frequency
  :notation: FREQ
- :identifier: :C111344
  :id: aHR0cDovL3d3dy5jZGlzYy5vcmcvQzExMTM0NC9WMzkjQzExMTM0NA==
  :last_id: aHR0cDovL3d3dy5jZGlzYy5vcmcvQzExMTM0NC9WNDYjQzExMTM0NA==
  :label: QS-Functional Activities Questionnaire Test Code
  :notation: FAQ TESTCD
- :identifier: :C111343
  :id: aHR0cDovL3d3dy5jZGlzYy5vcmcvQzExMTM0My9WMzkjQzExMTM0Mw==
  :last_id: aHR0cDovL3d3dy5jZGlzYy5vcmcvQzExMTM0My9WNDYjQzExMTM0Mw==
  :label: QS-Functional Activities Questionnaire Test Name
  :notation: FAQ TEST
- :identifier: :C111346
  :id: aHR0cDovL3d3dy5jZGlzYy5vcmcvQzExMTM0Ni9WMzkjQzExMTM0Ng==
  :last_id: aHR0cDovL3d3dy5jZGlzYy5vcmcvQzExMTM0Ni9WNDYjQzExMTM0Ng==
  :label: QS-Functional Activities Questionnaire-NACC Version Test Code
  :notation: FAQ-NACC Version TESTCD
- :identifier: :C111345
  :id: aHR0cDovL3d3dy5jZGlzYy5vcmcvQzExMTM0NS9WMzkjQzExMTM0NQ==
  :last_id: aHR0cDovL3d3dy5jZGlzYy5vcmcvQzExMTM0NS9WNDYjQzExMTM0NQ==
  :label: QS-Functional Activities Questionnaire-NACC Version Test Name
  :notation: FAQ-NACC Version TEST
- :identifier: :C112441
  :id: aHR0cDovL3d3dy5jZGlzYy5vcmcvQzExMjQ0MS9WMzkjQzExMjQ0MQ==
  :last_id: aHR0cDovL3d3dy5jZGlzYy5vcmcvQzExMjQ0MS9WNDYjQzExMjQ0MQ==
  :label: QS-Functional Assessment of Multiple Sclerosis Version 4 Questionnaire Test
    Code
  :notation: FAMS TESTCD
- :identifier: :C112440
  :id: aHR0cDovL3d3dy5jZGlzYy5vcmcvQzExMjQ0MC9WMzkjQzExMjQ0MA==
  :last_id: aHR0cDovL3d3dy5jZGlzYy5vcmcvQzExMjQ0MC9WNDYjQzExMjQ0MA==
  :label: QS-Functional Assessment of Multiple Sclerosis Version 4 Questionnaire Test
    Name
  :notation: FAMS TEST
- :identifier: :C105138
  :id: aHR0cDovL3d3dy5jZGlzYy5vcmcvQzEwNTEzOC9WMzkjQzEwNTEzOA==
  :last_id: aHR0cDovL3d3dy5jZGlzYy5vcmcvQzEwNTEzOC9WNDYjQzEwNTEzOA==
  :label: QS-General Clinical Global Impressions Questionnaire Test Code
  :notation: GCGI TESTCD
- :identifier: :C105137
  :id: aHR0cDovL3d3dy5jZGlzYy5vcmcvQzEwNTEzNy9WMzkjQzEwNTEzNw==
  :last_id: aHR0cDovL3d3dy5jZGlzYy5vcmcvQzEwNTEzNy9WNDYjQzEwNTEzNw==
  :label: QS-General Clinical Global Impressions Questionnaire Test Name
  :notation: GCGI TEST
- :identifier: :C103329
  :id: aHR0cDovL3d3dy5jZGlzYy5vcmcvQzEwMzMyOS9WMzMjQzEwMzMyOQ==
  :last_id: aHR0cDovL3d3dy5jZGlzYy5vcmcvQzEwMzMyOS9WNDUjQzEwMzMyOQ==
  :label: General Observation Class
  :notation: GNRLOBSC
- :identifier: :C103467
  :id: aHR0cDovL3d3dy5jZGlzYy5vcmcvQzEwMzQ2Ny9WMzkjQzEwMzQ2Nw==
  :last_id: aHR0cDovL3d3dy5jZGlzYy5vcmcvQzEwMzQ2Ny9WNDYjQzEwMzQ2Nw==
  :label: QS-Generalized Anxiety Disorder - 7 Questionnaire Test Code
  :notation: GAD-7 TESTCD
- :identifier: :C103466
  :id: aHR0cDovL3d3dy5jZGlzYy5vcmcvQzEwMzQ2Ni9WMzkjQzEwMzQ2Ng==
  :last_id: aHR0cDovL3d3dy5jZGlzYy5vcmcvQzEwMzQ2Ni9WNDYjQzEwMzQ2Ng==
  :label: QS-Generalized Anxiety Disorder - 7 Questionnaire Test Name
  :notation: GAD-7 TEST
- :identifier: :C111114
  :id: aHR0cDovL3d3dy5jZGlzYy5vcmcvQzExMTExNC9WMzkjQzExMTExNA==
  :last_id: aHR0cDovL3d3dy5jZGlzYy5vcmcvQzExMTExNC9WNDQjQzExMTExNA==
  :label: Genetic Sample Type
  :notation: GENSMP
- :identifier: :C106663
  :id: aHR0cDovL3d3dy5jZGlzYy5vcmcvQzEwNjY2My9WMzkjQzEwNjY2Mw==
  :last_id: aHR0cDovL3d3dy5jZGlzYy5vcmcvQzEwNjY2My9WNDYjQzEwNjY2Mw==
  :label: QS-Geriatric Depression Scale Questionnaire Test Code
  :notation: GDS TESTCD
- :identifier: :C106662
  :id: aHR0cDovL3d3dy5jZGlzYy5vcmcvQzEwNjY2Mi9WMzkjQzEwNjY2Mg==
  :last_id: aHR0cDovL3d3dy5jZGlzYy5vcmcvQzEwNjY2Mi9WNDYjQzEwNjY2Mg==
  :label: QS-Geriatric Depression Scale Questionnaire Test Name
  :notation: GDS TEST
- :identifier: :C106665
  :id: aHR0cDovL3d3dy5jZGlzYy5vcmcvQzEwNjY2NS9WMzkjQzEwNjY2NQ==
  :last_id: aHR0cDovL3d3dy5jZGlzYy5vcmcvQzEwNjY2NS9WNDYjQzEwNjY2NQ==
  :label: QS-Geriatric Depression Scale Short Form Questionnaire Test Code
  :notation: GDS SHORT FORM TESTCD
- :identifier: :C106664
  :id: aHR0cDovL3d3dy5jZGlzYy5vcmcvQzEwNjY2NC9WMzkjQzEwNjY2NA==
  :last_id: aHR0cDovL3d3dy5jZGlzYy5vcmcvQzEwNjY2NC9WNDYjQzEwNjY2NA==
  :label: QS-Geriatric Depression Scale Short Form Questionnaire Test Name
  :notation: GDS SHORT FORM TEST
- :identifier: :C101819
  :id: aHR0cDovL3d3dy5jZGlzYy5vcmcvQzEwMTgxOS9WMzkjQzEwMTgxOQ==
  :last_id: aHR0cDovL3d3dy5jZGlzYy5vcmcvQzEwMTgxOS9WNDYjQzEwMTgxOQ==
  :label: QS-Hamilton Anxiety Rating Scale Test Code
  :notation: HAMA TESTCD
- :identifier: :C101820
  :id: aHR0cDovL3d3dy5jZGlzYy5vcmcvQzEwMTgyMC9WMzkjQzEwMTgyMA==
  :last_id: aHR0cDovL3d3dy5jZGlzYy5vcmcvQzEwMTgyMC9WNDYjQzEwMTgyMA==
  :label: QS-Hamilton Anxiety Rating Scale Test Name
  :notation: HAMA TEST
- :identifier: :C100138
  :id: aHR0cDovL3d3dy5jZGlzYy5vcmcvQzEwMDEzOC9WMzkjQzEwMDEzOA==
  :last_id: aHR0cDovL3d3dy5jZGlzYy5vcmcvQzEwMDEzOC9WNDYjQzEwMDEzOA==
  :label: QS-Hamilton Depression Rating Scale - 17 Item Test Code
  :notation: HAMD 17 TESTCD
- :identifier: :C100137
  :id: aHR0cDovL3d3dy5jZGlzYy5vcmcvQzEwMDEzNy9WMzkjQzEwMDEzNw==
  :last_id: aHR0cDovL3d3dy5jZGlzYy5vcmcvQzEwMDEzNy9WNDYjQzEwMDEzNw==
  :label: QS-Hamilton Depression Rating Scale - 17 Item Test Name
  :notation: HAMD 17 TEST
- :identifier: :C101821
  :id: aHR0cDovL3d3dy5jZGlzYy5vcmcvQzEwMTgyMS9WMzkjQzEwMTgyMQ==
  :last_id: aHR0cDovL3d3dy5jZGlzYy5vcmcvQzEwMTgyMS9WNDYjQzEwMTgyMQ==
  :label: QS-Hamilton Depression Rating Scale 21-Item Test Code
  :notation: HAMD 21 TESTCD
- :identifier: :C101822
  :id: aHR0cDovL3d3dy5jZGlzYy5vcmcvQzEwMTgyMi9WMzkjQzEwMTgyMg==
  :last_id: aHR0cDovL3d3dy5jZGlzYy5vcmcvQzEwMTgyMi9WNDYjQzEwMTgyMg==
  :label: QS-Hamilton Depression Rating Scale 21-Item Test Name
  :notation: HAMD 21 TEST
- :identifier: :C115390
  :id: aHR0cDovL3d3dy5jZGlzYy5vcmcvQzExNTM5MC9WMzkjQzExNTM5MA==
  :last_id: aHR0cDovL3d3dy5jZGlzYy5vcmcvQzExNTM5MC9WNDYjQzExNTM5MA==
  :label: FT-Hauser Ambulation Index Functional Test Test Code
  :notation: HAI TESTCD
- :identifier: :C115389
  :id: aHR0cDovL3d3dy5jZGlzYy5vcmcvQzExNTM4OS9WMzkjQzExNTM4OQ==
  :last_id: aHR0cDovL3d3dy5jZGlzYy5vcmcvQzExNTM4OS9WNDYjQzExNTM4OQ==
  :label: FT-Hauser Ambulation Index Functional Test Test Name
  :notation: HAI TEST
- :identifier: :C106667
  :id: aHR0cDovL3d3dy5jZGlzYy5vcmcvQzEwNjY2Ny9WMzkjQzEwNjY2Nw==
  :last_id: aHR0cDovL3d3dy5jZGlzYy5vcmcvQzEwNjY2Ny9WNDYjQzEwNjY2Nw==
  :label: QS-Health Assessment Questionnaire Disability Index Test Code
  :notation: HAQ-DI TESTCD
- :identifier: :C106666
  :id: aHR0cDovL3d3dy5jZGlzYy5vcmcvQzEwNjY2Ni9WMzkjQzEwNjY2Ng==
  :last_id: aHR0cDovL3d3dy5jZGlzYy5vcmcvQzEwNjY2Ni9WNDYjQzEwNjY2Ng==
  :label: QS-Health Assessment Questionnaire Disability Index Test Name
  :notation: HAQ-DI TEST
- :identifier: :C103469
  :id: aHR0cDovL3d3dy5jZGlzYy5vcmcvQzEwMzQ2OS9WMzkjQzEwMzQ2OQ==
  :last_id: aHR0cDovL3d3dy5jZGlzYy5vcmcvQzEwMzQ2OS9WNDYjQzEwMzQ2OQ==
  :label: QS-Hospital Anxiety and Depression Scale Questionnaire Test Code
  :notation: HADS TESTCD
- :identifier: :C103468
  :id: aHR0cDovL3d3dy5jZGlzYy5vcmcvQzEwMzQ2OC9WMzkjQzEwMzQ2OA==
  :last_id: aHR0cDovL3d3dy5jZGlzYy5vcmcvQzEwMzQ2OC9WNDYjQzEwMzQ2OA==
  :label: QS-Hospital Anxiety and Depression Scale Questionnaire Test Name
  :notation: HADS TEST
- :identifier: :C113856
  :id: aHR0cDovL3d3dy5jZGlzYy5vcmcvQzExMzg1Ni9WMzkjQzExMzg1Ng==
  :last_id: aHR0cDovL3d3dy5jZGlzYy5vcmcvQzExMzg1Ni9WNDYjQzExMzg1Ng==
  :label: QS-Impact of Visual Impairment Scale Test Code
  :notation: IVIS TESTCD
- :identifier: :C113855
  :id: aHR0cDovL3d3dy5jZGlzYy5vcmcvQzExMzg1NS9WMzkjQzExMzg1NQ==
  :last_id: aHR0cDovL3d3dy5jZGlzYy5vcmcvQzExMzg1NS9WNDYjQzExMzg1NQ==
  :label: QS-Impact of Visual Impairment Scale Test Name
  :notation: IVIS TEST
- :identifier: :C103471
  :id: aHR0cDovL3d3dy5jZGlzYy5vcmcvQzEwMzQ3MS9WMzkjQzEwMzQ3MQ==
  :last_id: aHR0cDovL3d3dy5jZGlzYy5vcmcvQzEwMzQ3MS9WNDYjQzEwMzQ3MQ==
  :label: QS-International Index of Erectile Function Questionnaire Test Code
  :notation: IIEF TESTCD
- :identifier: :C103470
  :id: aHR0cDovL3d3dy5jZGlzYy5vcmcvQzEwMzQ3MC9WMzkjQzEwMzQ3MA==
  :last_id: aHR0cDovL3d3dy5jZGlzYy5vcmcvQzEwMzQ3MC9WNDYjQzEwMzQ3MA==
  :label: QS-International Index of Erectile Function Questionnaire Test Name
  :notation: IIEF TEST
- :identifier: :C100170
  :id: aHR0cDovL3d3dy5jZGlzYy5vcmcvQzEwMDE3MC9WMzkjQzEwMDE3MA==
  :last_id: aHR0cDovL3d3dy5jZGlzYy5vcmcvQzEwMDE3MC9WNDYjQzEwMDE3MA==
  :label: QS-Karnofsky Performance Status Scale Test Code
  :notation: KPS Scale TESTCD
- :identifier: :C100169
  :id: aHR0cDovL3d3dy5jZGlzYy5vcmcvQzEwMDE2OS9WMzkjQzEwMDE2OQ==
  :last_id: aHR0cDovL3d3dy5jZGlzYy5vcmcvQzEwMDE2OS9WNDYjQzEwMDE2OQ==
  :label: QS-Karnofsky Performance Status Scale Test Name
  :notation: KPS Scale TEST
- :identifier: :C101840
  :id: aHR0cDovL3d3dy5jZGlzYy5vcmcvQzEwMTg0MC9WMzMjQzEwMTg0MA==
  :last_id: aHR0cDovL3d3dy5jZGlzYy5vcmcvQzEwMTg0MC9WNDIjQzEwMTg0MA==
  :label: Killip Class Responses
  :notation: KILLIPC
- :identifier: :C112439
  :id: aHR0cDovL3d3dy5jZGlzYy5vcmcvQzExMjQzOS9WMzkjQzExMjQzOQ==
  :last_id: aHR0cDovL3d3dy5jZGlzYy5vcmcvQzExMjQzOS9WNDYjQzExMjQzOQ==
  :label: QS-Kurtzke Expanded Disability Status Scale Questionnaire Test Code
  :notation: EDSS TESTCD
- :identifier: :C112438
  :id: aHR0cDovL3d3dy5jZGlzYy5vcmcvQzExMjQzOC9WMzkjQzExMjQzOA==
  :last_id: aHR0cDovL3d3dy5jZGlzYy5vcmcvQzExMjQzOC9WNDYjQzExMjQzOA==
  :label: QS-Kurtzke Expanded Disability Status Scale Questionnaire Test Name
  :notation: EDSS TEST
- :identifier: :C112443
  :id: aHR0cDovL3d3dy5jZGlzYy5vcmcvQzExMjQ0My9WMzkjQzExMjQ0Mw==
  :last_id: aHR0cDovL3d3dy5jZGlzYy5vcmcvQzExMjQ0My9WNDYjQzExMjQ0Mw==
  :label: QS-Kurtzke Functional Systems Scores Questionnaire Test Code
  :notation: KFSS TESTCD
- :identifier: :C112442
  :id: aHR0cDovL3d3dy5jZGlzYy5vcmcvQzExMjQ0Mi9WMzkjQzExMjQ0Mg==
  :last_id: aHR0cDovL3d3dy5jZGlzYy5vcmcvQzExMjQ0Mi9WNDYjQzExMjQ0Mg==
  :label: QS-Kurtzke Functional Systems Scores Questionnaire Test Name
  :notation: KFSS TEST
- :identifier: :C65047
  :id: aHR0cDovL3d3dy5jZGlzYy5vcmcvQzY1MDQ3L1YzOSNDNjUwNDc=
  :last_id: aHR0cDovL3d3dy5jZGlzYy5vcmcvQzY1MDQ3L1Y0NiNDNjUwNDc=
  :label: Laboratory Test Code
  :notation: LBTESTCD
- :identifier: :C67154
  :id: aHR0cDovL3d3dy5jZGlzYy5vcmcvQzY3MTU0L1YzOSNDNjcxNTQ=
  :last_id: aHR0cDovL3d3dy5jZGlzYy5vcmcvQzY3MTU0L1Y0NiNDNjcxNTQ=
  :label: Laboratory Test Name
  :notation: LBTEST
- :identifier: :C115406
  :id: aHR0cDovL3d3dy5jZGlzYy5vcmcvQzExNTQwNi9WMzkjQzExNTQwNg==
  :last_id: aHR0cDovL3d3dy5jZGlzYy5vcmcvQzExNTQwNi9WNDYjQzExNTQwNg==
  :label: QS-Mayo-Portland Adaptability Inventory-4 Questionnaire Test Code
  :notation: MPAI-4 TESTCD
- :identifier: :C115405
  :id: aHR0cDovL3d3dy5jZGlzYy5vcmcvQzExNTQwNS9WMzkjQzExNTQwNQ==
  :last_id: aHR0cDovL3d3dy5jZGlzYy5vcmcvQzExNTQwNS9WNDYjQzExNTQwNQ==
  :label: QS-Mayo-Portland Adaptability Inventory-4 Questionnaire Test Name
  :notation: MPAI-4 TEST
- :identifier: :C85492
  :id: aHR0cDovL3d3dy5jZGlzYy5vcmcvQzg1NDkyL1YzOSNDODU0OTI=
  :last_id: aHR0cDovL3d3dy5jZGlzYy5vcmcvQzg1NDkyL1Y0NiNDODU0OTI=
  :label: Method
  :notation: METHOD
- :identifier: :C100152
  :id: aHR0cDovL3d3dy5jZGlzYy5vcmcvQzEwMDE1Mi9WMzkjQzEwMDE1Mg==
  :last_id: aHR0cDovL3d3dy5jZGlzYy5vcmcvQzEwMDE1Mi9WNDYjQzEwMDE1Mg==
  :label: QS-Michigan Neuropathy Screening Instrument Test Code
  :notation: MNSI TESTCD
- :identifier: :C100151
  :id: aHR0cDovL3d3dy5jZGlzYy5vcmcvQzEwMDE1MS9WMzkjQzEwMDE1MQ==
  :last_id: aHR0cDovL3d3dy5jZGlzYy5vcmcvQzEwMDE1MS9WNDYjQzEwMDE1MQ==
  :label: QS-Michigan Neuropathy Screening Instrument Test Name
  :notation: MNSI TEST
- :identifier: :C85491
  :id: aHR0cDovL3d3dy5jZGlzYy5vcmcvQzg1NDkxL1YzOSNDODU0OTE=
  :last_id: aHR0cDovL3d3dy5jZGlzYy5vcmcvQzg1NDkxL1Y0NiNDODU0OTE=
  :label: Microorganism
  :notation: MICROORG
- :identifier: :C89974
  :id: aHR0cDovL3d3dy5jZGlzYy5vcmcvQzg5OTc0L1YyNiNDODk5NzQ=
  :last_id: aHR0cDovL3d3dy5jZGlzYy5vcmcvQzg5OTc0L1Y0NSNDODk5NzQ=
  :label: Microscopic Findings Test Code
  :notation: MITESTCD
- :identifier: :C89973
  :id: aHR0cDovL3d3dy5jZGlzYy5vcmcvQzg5OTczL1YyNiNDODk5NzM=
  :last_id: aHR0cDovL3d3dy5jZGlzYy5vcmcvQzg5OTczL1Y0NSNDODk5NzM=
  :label: Microscopic Findings Test Name
  :notation: MITEST
- :identifier: :C113858
  :id: aHR0cDovL3d3dy5jZGlzYy5vcmcvQzExMzg1OC9WMzkjQzExMzg1OA==
  :last_id: aHR0cDovL3d3dy5jZGlzYy5vcmcvQzExMzg1OC9WNDYjQzExMzg1OA==
  :label: QS-Modified Fatigue Impact Scale Test Code
  :notation: MFIS TESTCD
- :identifier: :C113857
  :id: aHR0cDovL3d3dy5jZGlzYy5vcmcvQzExMzg1Ny9WMzkjQzExMzg1Nw==
  :last_id: aHR0cDovL3d3dy5jZGlzYy5vcmcvQzExMzg1Ny9WNDYjQzExMzg1Nw==
  :label: QS-Modified Fatigue Impact Scale Test Name
  :notation: MFIS TEST
- :identifier: :C112445
  :id: aHR0cDovL3d3dy5jZGlzYy5vcmcvQzExMjQ0NS9WMzkjQzExMjQ0NQ==
  :last_id: aHR0cDovL3d3dy5jZGlzYy5vcmcvQzExMjQ0NS9WNDYjQzExMjQ0NQ==
  :label: QS-Modified Hachinski Ischemic Scale-NACC Version Questionnaire Test Code
  :notation: MHIS-NACC TESTCD
- :identifier: :C112444
  :id: aHR0cDovL3d3dy5jZGlzYy5vcmcvQzExMjQ0NC9WMzkjQzExMjQ0NA==
  :last_id: aHR0cDovL3d3dy5jZGlzYy5vcmcvQzExMjQ0NC9WNDYjQzExMjQ0NA==
  :label: QS-Modified Hachinski Ischemic Scale-NACC Version Questionnaire Test Name
  :notation: MHIS-NACC TEST
- :identifier: :C106669
  :id: aHR0cDovL3d3dy5jZGlzYy5vcmcvQzEwNjY2OS9WMzkjQzEwNjY2OQ==
  :last_id: aHR0cDovL3d3dy5jZGlzYy5vcmcvQzEwNjY2OS9WNDYjQzEwNjY2OQ==
  :label: QS-Modified Medical Research Council Dyspnea Scale Questionnaire Test Code
  :notation: MMRC TESTCD
- :identifier: :C106668
  :id: aHR0cDovL3d3dy5jZGlzYy5vcmcvQzEwNjY2OC9WMzkjQzEwNjY2OA==
  :last_id: aHR0cDovL3d3dy5jZGlzYy5vcmcvQzEwNjY2OC9WNDYjQzEwNjY2OA==
  :label: QS-Modified Medical Research Council Dyspnea Scale Questionnaire Test Name
  :notation: MMRC TEST
- :identifier: :C111348
  :id: aHR0cDovL3d3dy5jZGlzYy5vcmcvQzExMTM0OC9WMzkjQzExMTM0OA==
  :last_id: aHR0cDovL3d3dy5jZGlzYy5vcmcvQzExMTM0OC9WNDYjQzExMTM0OA==
  :label: QS-Modified Rankin Scale Questionnaire Test Code
  :notation: MRS TESTCD
- :identifier: :C111347
  :id: aHR0cDovL3d3dy5jZGlzYy5vcmcvQzExMTM0Ny9WMzkjQzExMTM0Nw==
  :last_id: aHR0cDovL3d3dy5jZGlzYy5vcmcvQzExMTM0Ny9WNDYjQzExMTM0Nw==
  :label: QS-Modified Rankin Scale Questionnaire Test Name
  :notation: MRS TEST
- :identifier: :C114117
  :id: aHR0cDovL3d3dy5jZGlzYy5vcmcvQzExNDExNy9WMzkjQzExNDExNw==
  :last_id: aHR0cDovL3d3dy5jZGlzYy5vcmcvQzExNDExNy9WNDQjQzExNDExNw==
  :label: Morphology Test Code
  :notation: MOTESTCD
- :identifier: :C114116
  :id: aHR0cDovL3d3dy5jZGlzYy5vcmcvQzExNDExNi9WMzkjQzExNDExNg==
  :last_id: aHR0cDovL3d3dy5jZGlzYy5vcmcvQzExNDExNi9WNDQjQzExNDExNg==
  :label: Morphology Test Name
  :notation: MOTEST
- :identifier: :C100140
  :id: aHR0cDovL3d3dy5jZGlzYy5vcmcvQzEwMDE0MC9WMzkjQzEwMDE0MA==
  :last_id: aHR0cDovL3d3dy5jZGlzYy5vcmcvQzEwMDE0MC9WNDYjQzEwMDE0MA==
  :label: QS-Movement Disorder Society UPDRS Test Code
  :notation: MDS-UPDRS TESTCD
- :identifier: :C100139
  :id: aHR0cDovL3d3dy5jZGlzYy5vcmcvQzEwMDEzOS9WMzkjQzEwMDEzOQ==
  :last_id: aHR0cDovL3d3dy5jZGlzYy5vcmcvQzEwMDEzOS9WNDYjQzEwMDEzOQ==
  :label: QS-Movement Disorder Society UPDRS Test Name
  :notation: MDS-UPDRS TEST
- :identifier: :C113860
  :id: aHR0cDovL3d3dy5jZGlzYy5vcmcvQzExMzg2MC9WMzkjQzExMzg2MA==
  :last_id: aHR0cDovL3d3dy5jZGlzYy5vcmcvQzExMzg2MC9WNDYjQzExMzg2MA==
  :label: QS-Multiple Sclerosis Quality of Life-54 Instrument Test Code
  :notation: MSQOL-54 TESTCD
- :identifier: :C113859
  :id: aHR0cDovL3d3dy5jZGlzYy5vcmcvQzExMzg1OS9WMzkjQzExMzg1OQ==
  :last_id: aHR0cDovL3d3dy5jZGlzYy5vcmcvQzExMzg1OS9WNDYjQzExMzg1OQ==
  :label: QS-Multiple Sclerosis Quality of Life-54 Instrument Test Name
  :notation: MSQOL-54 TEST
- :identifier: :C112453
  :id: aHR0cDovL3d3dy5jZGlzYy5vcmcvQzExMjQ1My9WMzkjQzExMjQ1Mw==
  :last_id: aHR0cDovL3d3dy5jZGlzYy5vcmcvQzExMjQ1My9WNDYjQzExMjQ1Mw==
  :label: QS-National Eye Institute Visual Functioning Questionnaire - 25 Version
    2000 Interviewer-Administered Format Test Code
  :notation: VFQ25-Interviewer Administered TESTCD
- :identifier: :C112452
  :id: aHR0cDovL3d3dy5jZGlzYy5vcmcvQzExMjQ1Mi9WMzkjQzExMjQ1Mg==
  :last_id: aHR0cDovL3d3dy5jZGlzYy5vcmcvQzExMjQ1Mi9WNDYjQzExMjQ1Mg==
  :label: QS-National Eye Institute Visual Functioning Questionnaire - 25 Version
    2000 Interviewer-Administered Format Test Name
  :notation: VFQ25-Interviewer Administered TEST
- :identifier: :C112455
  :id: aHR0cDovL3d3dy5jZGlzYy5vcmcvQzExMjQ1NS9WMzkjQzExMjQ1NQ==
  :last_id: aHR0cDovL3d3dy5jZGlzYy5vcmcvQzExMjQ1NS9WNDYjQzExMjQ1NQ==
  :label: QS-National Eye Institute Visual Functioning Questionnaire - 25 Version
    2000 Self-Administered Format Test Code
  :notation: VFQ25-Self Administered TESTCD
- :identifier: :C112454
  :id: aHR0cDovL3d3dy5jZGlzYy5vcmcvQzExMjQ1NC9WMzkjQzExMjQ1NA==
  :last_id: aHR0cDovL3d3dy5jZGlzYy5vcmcvQzExMjQ1NC9WNDYjQzExMjQ1NA==
  :label: QS-National Eye Institute Visual Functioning Questionnaire - 25 Version
    2000 Self-Administered Format Test Name
  :notation: VFQ25-Self Administered TEST
- :identifier: :C88025
  :id: aHR0cDovL3d3dy5jZGlzYy5vcmcvQzg4MDI1L1YzOSNDODgwMjU=
  :last_id: aHR0cDovL3d3dy5jZGlzYy5vcmcvQzg4MDI1L1Y0NiNDODgwMjU=
  :label: Neoplasm Type
  :notation: NEOPLASM
- :identifier: :C116104
  :id: aHR0cDovL3d3dy5jZGlzYy5vcmcvQzExNjEwNC9WMzkjQzExNjEwNA==
  :last_id: aHR0cDovL3d3dy5jZGlzYy5vcmcvQzExNjEwNC9WNDAjQzExNjEwNA==
  :label: Nervous System Physiology Test Code
  :notation: NVTESTCD
- :identifier: :C116103
  :id: aHR0cDovL3d3dy5jZGlzYy5vcmcvQzExNjEwMy9WMzkjQzExNjEwMw==
  :last_id: aHR0cDovL3d3dy5jZGlzYy5vcmcvQzExNjEwMy9WNDAjQzExNjEwMw==
  :label: Nervous System Physiology Test Name
  :notation: NVTEST
- :identifier: :C103473
  :id: aHR0cDovL3d3dy5jZGlzYy5vcmcvQzEwMzQ3My9WMzkjQzEwMzQ3Mw==
  :last_id: aHR0cDovL3d3dy5jZGlzYy5vcmcvQzEwMzQ3My9WNDYjQzEwMzQ3Mw==
  :label: QS-Neuropathic Pain Scale Questionnaire Test Code
  :notation: NPS TESTCD
- :identifier: :C103472
  :id: aHR0cDovL3d3dy5jZGlzYy5vcmcvQzEwMzQ3Mi9WMzkjQzEwMzQ3Mg==
  :last_id: aHR0cDovL3d3dy5jZGlzYy5vcmcvQzEwMzQ3Mi9WNDYjQzEwMzQ3Mg==
  :label: QS-Neuropathic Pain Scale Questionnaire Test Name
  :notation: NPS TEST
- :identifier: :C100144
  :id: aHR0cDovL3d3dy5jZGlzYy5vcmcvQzEwMDE0NC9WMzkjQzEwMDE0NA==
  :last_id: aHR0cDovL3d3dy5jZGlzYy5vcmcvQzEwMDE0NC9WNDYjQzEwMDE0NA==
  :label: QS-Neuropsychiatric Inventory Test Code
  :notation: NPI TESTCD
- :identifier: :C100143
  :id: aHR0cDovL3d3dy5jZGlzYy5vcmcvQzEwMDE0My9WMzkjQzEwMDE0Mw==
  :last_id: aHR0cDovL3d3dy5jZGlzYy5vcmcvQzEwMDE0My9WNDYjQzEwMDE0Mw==
  :label: QS-Neuropsychiatric Inventory Test Name
  :notation: NPI TEST
- :identifier: :C115392
  :id: aHR0cDovL3d3dy5jZGlzYy5vcmcvQzExNTM5Mi9WMzkjQzExNTM5Mg==
  :last_id: aHR0cDovL3d3dy5jZGlzYy5vcmcvQzExNTM5Mi9WNDYjQzExNTM5Mg==
  :label: FT-Nine-Hole Peg Functional Test Test Code
  :notation: NHPT TESTCD
- :identifier: :C115391
  :id: aHR0cDovL3d3dy5jZGlzYy5vcmcvQzExNTM5MS9WMzkjQzExNTM5MQ==
  :last_id: aHR0cDovL3d3dy5jZGlzYy5vcmcvQzExNTM5MS9WNDYjQzExNTM5MQ==
  :label: FT-Nine-Hole Peg Functional Test Test Name
  :notation: NHPT TEST
- :identifier: :C101834
  :id: aHR0cDovL3d3dy5jZGlzYy5vcmcvQzEwMTgzNC9WMzYjQzEwMTgzNA==
  :last_id: aHR0cDovL3d3dy5jZGlzYy5vcmcvQzEwMTgzNC9WNDUjQzEwMTgzNA==
  :label: Normal Abnormal Response
  :notation: NORMABNM
- :identifier: :C96785
  :id: aHR0cDovL3d3dy5jZGlzYy5vcmcvQzk2Nzg1L1YzNiNDOTY3ODU=
  :last_id: aHR0cDovL3d3dy5jZGlzYy5vcmcvQzk2Nzg1L1Y0NiNDOTY3ODU=
  :label: Tumor Response Result
  :notation: RSSTRESC
- :identifier: :C96782
  :id: aHR0cDovL3d3dy5jZGlzYy5vcmcvQzk2NzgyL1YzNyNDOTY3ODI=
  :last_id: aHR0cDovL3d3dy5jZGlzYy5vcmcvQzk2NzgyL1Y0NiNDOTY3ODI=
  :label: Tumor Response Assessment Test Code
  :notation: RSTESTCD
- :identifier: :C96781
  :id: aHR0cDovL3d3dy5jZGlzYy5vcmcvQzk2NzgxL1YzNyNDOTY3ODE=
  :last_id: aHR0cDovL3d3dy5jZGlzYy5vcmcvQzk2NzgxL1Y0NiNDOTY3ODE=
  :label: Tumor Response Assessment Test Name
  :notation: RSTEST
- :identifier: :C89977
  :id: aHR0cDovL3d3dy5jZGlzYy5vcmcvQzg5OTc3L1YyNiNDODk5Nzc=
  :last_id: aHR0cDovL3d3dy5jZGlzYy5vcmcvQzg5OTc3L1Y0MCNDODk5Nzc=
  :label: Organ Measurement Test Code
  :notation: OMTESTCD
- :identifier: :C89976
  :id: aHR0cDovL3d3dy5jZGlzYy5vcmcvQzg5OTc2L1YyNiNDODk5NzY=
  :last_id: aHR0cDovL3d3dy5jZGlzYy5vcmcvQzg5OTc2L1Y0MCNDODk5NzY=
  :label: Organ Measurement Test Name
  :notation: OMTEST
- :identifier: :C85493
  :id: aHR0cDovL3d3dy5jZGlzYy5vcmcvQzg1NDkzL1YzOSNDODU0OTM=
  :last_id: aHR0cDovL3d3dy5jZGlzYy5vcmcvQzg1NDkzL1Y0NCNDODU0OTM=
  :label: PK Parameters
  :notation: PKPARM
- :identifier: :C85839
  :id: aHR0cDovL3d3dy5jZGlzYy5vcmcvQzg1ODM5L1YzOSNDODU4Mzk=
  :last_id: aHR0cDovL3d3dy5jZGlzYy5vcmcvQzg1ODM5L1Y0NCNDODU4Mzk=
  :label: PK Parameters Code
  :notation: PKPARMCD
- :identifier: :C85494
  :id: aHR0cDovL3d3dy5jZGlzYy5vcmcvQzg1NDk0L1YzOSNDODU0OTQ=
  :last_id: aHR0cDovL3d3dy5jZGlzYy5vcmcvQzg1NDk0L1Y0NiNDODU0OTQ=
  :label: PK Parameter Units of Measure
  :notation: PKUNIT
- :identifier: :C115394
  :id: aHR0cDovL3d3dy5jZGlzYy5vcmcvQzExNTM5NC9WMzkjQzExNTM5NA==
  :last_id: aHR0cDovL3d3dy5jZGlzYy5vcmcvQzExNTM5NC9WNDYjQzExNTM5NA==
  :label: FT-Paced Auditory Serial Addition Functional Test Test Code
  :notation: PASAT TESTCD
- :identifier: :C115393
  :id: aHR0cDovL3d3dy5jZGlzYy5vcmcvQzExNTM5My9WMzkjQzExNTM5Mw==
  :last_id: aHR0cDovL3d3dy5jZGlzYy5vcmcvQzExNTM5My9WNDYjQzExNTM5Mw==
  :label: FT-Paced Auditory Serial Addition Functional Test Test Name
  :notation: PASAT TEST
- :identifier: :C105134
  :id: aHR0cDovL3d3dy5jZGlzYy5vcmcvQzEwNTEzNC9WMzkjQzEwNTEzNA==
  :last_id: aHR0cDovL3d3dy5jZGlzYy5vcmcvQzEwNTEzNC9WNDYjQzEwNTEzNA==
  :label: QS-Pain Intensity Questionnaire Test Code
  :notation: PI TESTCD
- :identifier: :C105133
  :id: aHR0cDovL3d3dy5jZGlzYy5vcmcvQzEwNTEzMy9WMzkjQzEwNTEzMw==
  :last_id: aHR0cDovL3d3dy5jZGlzYy5vcmcvQzEwNTEzMy9WNDYjQzEwNTEzMw==
  :label: QS-Pain Intensity Questionnaire Test Name
  :notation: PI TEST
- :identifier: :C105136
  :id: aHR0cDovL3d3dy5jZGlzYy5vcmcvQzEwNTEzNi9WMzkjQzEwNTEzNg==
  :last_id: aHR0cDovL3d3dy5jZGlzYy5vcmcvQzEwNTEzNi9WNDYjQzEwNTEzNg==
  :label: QS-Pain Relief Questionnaire Test Code
  :notation: PR TESTCD
- :identifier: :C105135
  :id: aHR0cDovL3d3dy5jZGlzYy5vcmcvQzEwNTEzNS9WMzkjQzEwNTEzNQ==
  :last_id: aHR0cDovL3d3dy5jZGlzYy5vcmcvQzEwNTEzNS9WNDYjQzEwNTEzNQ==
  :label: QS-Pain Relief Questionnaire Test Name
  :notation: PR TEST
- :identifier: :C112447
  :id: aHR0cDovL3d3dy5jZGlzYy5vcmcvQzExMjQ0Ny9WMzkjQzExMjQ0Nw==
  :last_id: aHR0cDovL3d3dy5jZGlzYy5vcmcvQzExMjQ0Ny9WNDYjQzExMjQ0Nw==
  :label: QS-Patient Determined Disease Steps Questionnaire Test Code
  :notation: PDDS TESTCD
- :identifier: :C112446
  :id: aHR0cDovL3d3dy5jZGlzYy5vcmcvQzExMjQ0Ni9WMzkjQzExMjQ0Ng==
  :last_id: aHR0cDovL3d3dy5jZGlzYy5vcmcvQzExMjQ0Ni9WNDYjQzExMjQ0Ng==
  :label: QS-Patient Determined Disease Steps Questionnaire Test Name
  :notation: PDDS TEST
- :identifier: :C103483
  :id: aHR0cDovL3d3dy5jZGlzYy5vcmcvQzEwMzQ4My9WMzkjQzEwMzQ4Mw==
  :last_id: aHR0cDovL3d3dy5jZGlzYy5vcmcvQzEwMzQ4My9WNDYjQzEwMzQ4Mw==
  :label: QS-Patient Health Questionnaire - 15 Item Test Code
  :notation: PHQ-15 TESTCD
- :identifier: :C103482
  :id: aHR0cDovL3d3dy5jZGlzYy5vcmcvQzEwMzQ4Mi9WMzkjQzEwMzQ4Mg==
  :last_id: aHR0cDovL3d3dy5jZGlzYy5vcmcvQzEwMzQ4Mi9WNDYjQzEwMzQ4Mg==
  :label: QS-Patient Health Questionnaire - 15 Item Test Name
  :notation: PHQ-15 TEST
- :identifier: :C103481
  :id: aHR0cDovL3d3dy5jZGlzYy5vcmcvQzEwMzQ4MS9WMzkjQzEwMzQ4MQ==
  :last_id: aHR0cDovL3d3dy5jZGlzYy5vcmcvQzEwMzQ4MS9WNDYjQzEwMzQ4MQ==
  :label: QS-Patient Health Questionnaire - 9 Item Test Code
  :notation: PHQ-9 TESTCD
- :identifier: :C103480
  :id: aHR0cDovL3d3dy5jZGlzYy5vcmcvQzEwMzQ4MC9WMzkjQzEwMzQ4MA==
  :last_id: aHR0cDovL3d3dy5jZGlzYy5vcmcvQzEwMzQ4MC9WNDYjQzEwMzQ4MA==
  :label: QS-Patient Health Questionnaire - 9 Item Test Name
  :notation: PHQ-9 TEST
- :identifier: :C66726
  :id: aHR0cDovL3d3dy5jZGlzYy5vcmcvQzY2NzI2L1YzOCNDNjY3MjY=
  :last_id: aHR0cDovL3d3dy5jZGlzYy5vcmcvQzY2NzI2L1Y0NCNDNjY3MjY=
  :label: Pharmaceutical Dosage Form
  :notation: FRM
- :identifier: :C101858
  :id: aHR0cDovL3d3dy5jZGlzYy5vcmcvQzEwMTg1OC9WMzkjQzEwMTg1OA==
  :last_id: aHR0cDovL3d3dy5jZGlzYy5vcmcvQzEwMTg1OC9WNDYjQzEwMTg1OA==
  :label: Procedure
  :notation: PROCEDUR
- :identifier: :C113862
  :id: aHR0cDovL3d3dy5jZGlzYy5vcmcvQzExMzg2Mi9WMzkjQzExMzg2Mg==
  :last_id: aHR0cDovL3d3dy5jZGlzYy5vcmcvQzExMzg2Mi9WNDYjQzExMzg2Mg==
  :label: QS-RAND 36-Item Health Survey 1.0 Test Code
  :notation: RAND-36 V1.0 TESTCD
- :identifier: :C113861
  :id: aHR0cDovL3d3dy5jZGlzYy5vcmcvQzExMzg2MS9WMzkjQzExMzg2MQ==
  :last_id: aHR0cDovL3d3dy5jZGlzYy5vcmcvQzExMzg2MS9WNDYjQzExMzg2MQ==
  :label: QS-RAND 36-Item Health Survey 1.0 Test Name
  :notation: RAND-36 V1.0 TEST
- :identifier: :C101864
  :id: aHR0cDovL3d3dy5jZGlzYy5vcmcvQzEwMTg2NC9WMzMjQzEwMTg2NA==
  :last_id: aHR0cDovL3d3dy5jZGlzYy5vcmcvQzEwMTg2NC9WNDIjQzEwMTg2NA==
  :label: Reason CS/LV Lead Not Implanted
  :notation: CSLVLNIM
- :identifier: :C100130
  :id: aHR0cDovL3d3dy5jZGlzYy5vcmcvQzEwMDEzMC9WMzYjQzEwMDEzMA==
  :last_id: aHR0cDovL3d3dy5jZGlzYy5vcmcvQzEwMDEzMC9WNDMjQzEwMDEzMA==
  :label: Relationship to Subject
  :notation: RELSUB
- :identifier: :C106479
  :id: aHR0cDovL3d3dy5jZGlzYy5vcmcvQzEwNjQ3OS9WMzUjQzEwNjQ3OQ==
  :last_id: aHR0cDovL3d3dy5jZGlzYy5vcmcvQzEwNjQ3OS9WNDQjQzEwNjQ3OQ==
  :label: Reproductive System Findings Test Code
  :notation: RPTESTCD
- :identifier: :C106478
  :id: aHR0cDovL3d3dy5jZGlzYy5vcmcvQzEwNjQ3OC9WMzUjQzEwNjQ3OA==
  :last_id: aHR0cDovL3d3dy5jZGlzYy5vcmcvQzEwNjQ3OC9WNDQjQzEwNjQ3OA==
  :label: Reproductive System Findings Test Name
  :notation: RPTEST
- :identifier: :C111106
  :id: aHR0cDovL3d3dy5jZGlzYy5vcmcvQzExMTEwNi9WMzcjQzExMTEwNg==
  :last_id: aHR0cDovL3d3dy5jZGlzYy5vcmcvQzExMTEwNi9WNDYjQzExMTEwNg==
  :label: Respiratory Test Code
  :notation: RETESTCD
- :identifier: :C111107
  :id: aHR0cDovL3d3dy5jZGlzYy5vcmcvQzExMTEwNy9WMzcjQzExMTEwNw==
  :last_id: aHR0cDovL3d3dy5jZGlzYy5vcmcvQzExMTEwNy9WNDYjQzExMTEwNw==
  :label: Respiratory Test Name
  :notation: RETEST
- :identifier: :C103465
  :id: aHR0cDovL3d3dy5jZGlzYy5vcmcvQzEwMzQ2NS9WMzkjQzEwMzQ2NQ==
  :last_id: aHR0cDovL3d3dy5jZGlzYy5vcmcvQzEwMzQ2NS9WNDYjQzEwMzQ2NQ==
  :label: QS-Revised Fibromyalgia Impact Questionnaire Test Code
  :notation: FIQR TESTCD
- :identifier: :C103464
  :id: aHR0cDovL3d3dy5jZGlzYy5vcmcvQzEwMzQ2NC9WMzkjQzEwMzQ2NA==
  :last_id: aHR0cDovL3d3dy5jZGlzYy5vcmcvQzEwMzQ2NC9WNDYjQzEwMzQ2NA==
  :label: QS-Revised Fibromyalgia Impact Questionnaire Test Name
  :notation: FIQR TEST
- :identifier: :C100166
  :id: aHR0cDovL3d3dy5jZGlzYy5vcmcvQzEwMDE2Ni9WMzkjQzEwMDE2Ng==
  :last_id: aHR0cDovL3d3dy5jZGlzYy5vcmcvQzEwMDE2Ni9WNDYjQzEwMDE2Ng==
  :label: QS-Roland Morris Disability Questionnaire Test Code
  :notation: RDQ TESTCD
- :identifier: :C100165
  :id: aHR0cDovL3d3dy5jZGlzYy5vcmcvQzEwMDE2NS9WMzkjQzEwMDE2NQ==
  :last_id: aHR0cDovL3d3dy5jZGlzYy5vcmcvQzEwMDE2NS9WNDYjQzEwMDE2NQ==
  :label: QS-Roland Morris Disability Questionnaire Test Name
  :notation: RDQ TEST
- :identifier: :C66729
  :id: aHR0cDovL3d3dy5jZGlzYy5vcmcvQzY2NzI5L1YzNyNDNjY3Mjk=
  :last_id: aHR0cDovL3d3dy5jZGlzYy5vcmcvQzY2NzI5L1Y0MiNDNjY3Mjk=
  :label: Route of Administration
  :notation: ROUTE
- :identifier: :C66734
  :id: aHR0cDovL3d3dy5jZGlzYy5vcmcvQzY2NzM0L1YzOCNDNjY3MzQ=
  :last_id: aHR0cDovL3d3dy5jZGlzYy5vcmcvQzY2NzM0L1Y0MyNDNjY3MzQ=
  :label: SDTM Domain Abbreviation
  :notation: DOMAIN
- :identifier: :C116111
  :id: aHR0cDovL3d3dy5jZGlzYy5vcmcvQzExNjExMS9WMzkjQzExNjExMQ==
  :last_id: aHR0cDovL3d3dy5jZGlzYy5vcmcvQzExNjExMS9WNDYjQzExNjExMQ==
  :label: SDTM Species
  :notation: SPCIES
- :identifier: :C89982
  :id: aHR0cDovL3d3dy5jZGlzYy5vcmcvQzg5OTgyL1YyNiNDODk5ODI=
  :last_id: aHR0cDovL3d3dy5jZGlzYy5vcmcvQzg5OTgyL1Y0NiNDODk5ODI=
  :label: SEND Implementation Guide Version
  :notation: SNDIGVER
- :identifier: :C90009
  :id: aHR0cDovL3d3dy5jZGlzYy5vcmcvQzkwMDA5L1YzNyNDOTAwMDk=
  :last_id: aHR0cDovL3d3dy5jZGlzYy5vcmcvQzkwMDA5L1Y0NCNDOTAwMDk=
  :label: SEND Trial Summary Parameter Test Code
  :notation: STSPRMCD
- :identifier: :C90007
  :id: aHR0cDovL3d3dy5jZGlzYy5vcmcvQzkwMDA3L1YzNyNDOTAwMDc=
  :last_id: aHR0cDovL3d3dy5jZGlzYy5vcmcvQzkwMDA3L1Y0NCNDOTAwMDc=
  :label: SEND Trial Summary Parameter Test Name
  :notation: STSPRM
- :identifier: :C115408
  :id: aHR0cDovL3d3dy5jZGlzYy5vcmcvQzExNTQwOC9WMzkjQzExNTQwOA==
  :last_id: aHR0cDovL3d3dy5jZGlzYy5vcmcvQzExNTQwOC9WNDYjQzExNTQwOA==
  :label: QS-Satisfaction With Life Scale Questionnaire Test Code
  :notation: SWLS TESTCD
- :identifier: :C115407
  :id: aHR0cDovL3d3dy5jZGlzYy5vcmcvQzExNTQwNy9WMzkjQzExNTQwNw==
  :last_id: aHR0cDovL3d3dy5jZGlzYy5vcmcvQzExNTQwNy9WNDYjQzExNTQwNw==
  :label: QS-Satisfaction With Life Scale Questionnaire Test Name
  :notation: SWLS TEST
- :identifier: :C100160
  :id: aHR0cDovL3d3dy5jZGlzYy5vcmcvQzEwMDE2MC9WMzkjQzEwMDE2MA==
  :last_id: aHR0cDovL3d3dy5jZGlzYy5vcmcvQzEwMDE2MC9WNDYjQzEwMDE2MA==
  :label: QS-Screener and Opioid Assessment for Patients with Pain - Revised Test
    Code
  :notation: SOAPP-R TESTCD
- :identifier: :C100159
  :id: aHR0cDovL3d3dy5jZGlzYy5vcmcvQzEwMDE1OS9WMzkjQzEwMDE1OQ==
  :last_id: aHR0cDovL3d3dy5jZGlzYy5vcmcvQzEwMDE1OS9WNDYjQzEwMDE1OQ==
  :label: QS-Screener and Opioid Assessment for Patients with Pain - Revised Test
    Name
  :notation: SOAPP-R TEST
- :identifier: :C111350
  :id: aHR0cDovL3d3dy5jZGlzYy5vcmcvQzExMTM1MC9WMzkjQzExMTM1MA==
  :last_id: aHR0cDovL3d3dy5jZGlzYy5vcmcvQzExMTM1MC9WNDYjQzExMTM1MA==
  :label: QS-Sheehan Disability Scale Questionnaire Test Code
  :notation: SDS TESTCD
- :identifier: :C111349
  :id: aHR0cDovL3d3dy5jZGlzYy5vcmcvQzExMTM0OS9WMzkjQzExMTM0OQ==
  :last_id: aHR0cDovL3d3dy5jZGlzYy5vcmcvQzExMTM0OS9WNDYjQzExMTM0OQ==
  :label: QS-Sheehan Disability Scale Questionnaire Test Name
  :notation: SDS TEST
- :identifier: :C100156
  :id: aHR0cDovL3d3dy5jZGlzYy5vcmcvQzEwMDE1Ni9WMzkjQzEwMDE1Ng==
  :last_id: aHR0cDovL3d3dy5jZGlzYy5vcmcvQzEwMDE1Ni9WNDYjQzEwMDE1Ng==
  :label: QS-Short-Form McGill Pain Questionnaire-2 Test Code
  :notation: Short-Form MPQ-2 TESTCD
- :identifier: :C100155
  :id: aHR0cDovL3d3dy5jZGlzYy5vcmcvQzEwMDE1NS9WMzkjQzEwMDE1NQ==
  :last_id: aHR0cDovL3d3dy5jZGlzYy5vcmcvQzEwMDE1NS9WNDYjQzEwMDE1NQ==
  :label: QS-Short-Form McGill Pain Questionnaire-2 Test Name
  :notation: Short-Form MPQ-2 TEST
- :identifier: :C76351
  :id: aHR0cDovL3d3dy5jZGlzYy5vcmcvQzc2MzUxL1YzMyNDNzYzNTE=
  :last_id: aHR0cDovL3d3dy5jZGlzYy5vcmcvQzc2MzUxL1Y0NCNDNzYzNTE=
  :label: Skin Classification
  :notation: SKINCLAS
- :identifier: :C112024
  :id: aHR0cDovL3d3dy5jZGlzYy5vcmcvQzExMjAyNC9WMzcjQzExMjAyNA==
  :last_id: aHR0cDovL3d3dy5jZGlzYy5vcmcvQzExMjAyNC9WNDQjQzExMjAyNA==
  :label: Skin Response Test Code
  :notation: SRTESTCD
- :identifier: :C112023
  :id: aHR0cDovL3d3dy5jZGlzYy5vcmcvQzExMjAyMy9WMzcjQzExMjAyMw==
  :last_id: aHR0cDovL3d3dy5jZGlzYy5vcmcvQzExMjAyMy9WNDQjQzExMjAyMw==
  :label: Skin Response Test Name
  :notation: SRTEST
- :identifier: :C77808
  :id: aHR0cDovL3d3dy5jZGlzYy5vcmcvQzc3ODA4L1YzNyNDNzc4MDg=
  :last_id: aHR0cDovL3d3dy5jZGlzYy5vcmcvQzc3ODA4L1Y0MyNDNzc4MDg=
  :label: Species
  :notation: SPECIES
- :identifier: :C77529
  :id: aHR0cDovL3d3dy5jZGlzYy5vcmcvQzc3NTI5L1YzOSNDNzc1Mjk=
  :last_id: aHR0cDovL3d3dy5jZGlzYy5vcmcvQzc3NTI5L1Y0NiNDNzc1Mjk=
  :label: Specimen
  :notation: SPEC
- :identifier: :C78733
  :id: aHR0cDovL3d3dy5jZGlzYy5vcmcvQzc4NzMzL1YzOCNDNzg3MzM=
  :last_id: aHR0cDovL3d3dy5jZGlzYy5vcmcvQzc4NzMzL1Y0MyNDNzg3MzM=
  :label: Specimen Condition
  :notation: SPECCOND
- :identifier: :C78734
  :id: aHR0cDovL3d3dy5jZGlzYy5vcmcvQzc4NzM0L1YzOSNDNzg3MzQ=
  :last_id: aHR0cDovL3d3dy5jZGlzYy5vcmcvQzc4NzM0L1Y0NSNDNzg3MzQ=
  :label: Specimen Type
  :notation: SPECTYPE
- :identifier: :C112449
  :id: aHR0cDovL3d3dy5jZGlzYy5vcmcvQzExMjQ0OS9WMzkjQzExMjQ0OQ==
  :last_id: aHR0cDovL3d3dy5jZGlzYy5vcmcvQzExMjQ0OS9WNDYjQzExMjQ0OQ==
  :label: QS-St. George's Respiratory Questionnaire Past 3 Months Version Test Code
  :notation: SGRQ Past 3 Months Version TESTCD
- :identifier: :C112448
  :id: aHR0cDovL3d3dy5jZGlzYy5vcmcvQzExMjQ0OC9WMzkjQzExMjQ0OA==
  :last_id: aHR0cDovL3d3dy5jZGlzYy5vcmcvQzExMjQ0OC9WNDYjQzExMjQ0OA==
  :label: QS-St. George's Respiratory Questionnaire Past 3 Months Version Test Name
  :notation: SGRQ Past 3 Months Version TEST
- :identifier: :C112451
  :id: aHR0cDovL3d3dy5jZGlzYy5vcmcvQzExMjQ1MS9WMzkjQzExMjQ1MQ==
  :last_id: aHR0cDovL3d3dy5jZGlzYy5vcmcvQzExMjQ1MS9WNDYjQzExMjQ1MQ==
  :label: QS-St. George's Respiratory Questionnaire Past 4 Weeks Version Test Code
  :notation: SGRQ Past 4 Weeks Version TESTCD
- :identifier: :C112450
  :id: aHR0cDovL3d3dy5jZGlzYy5vcmcvQzExMjQ1MC9WMzkjQzExMjQ1MA==
  :last_id: aHR0cDovL3d3dy5jZGlzYy5vcmcvQzExMjQ1MC9WNDYjQzExMjQ1MA==
  :label: QS-St. George's Respiratory Questionnaire Past 4 Weeks Version Test Name
  :notation: SGRQ Past 4 Weeks Version TEST
- :identifier: :C106671
  :id: aHR0cDovL3d3dy5jZGlzYy5vcmcvQzEwNjY3MS9WMzkjQzEwNjY3MQ==
  :last_id: aHR0cDovL3d3dy5jZGlzYy5vcmcvQzEwNjY3MS9WNDYjQzEwNjY3MQ==
  :label: QS-St. George's Respiratory Questionnaire for COPD Patients Test Code
  :notation: SGRQ-C TESTCD
- :identifier: :C106670
  :id: aHR0cDovL3d3dy5jZGlzYy5vcmcvQzEwNjY3MC9WMzkjQzEwNjY3MA==
  :last_id: aHR0cDovL3d3dy5jZGlzYy5vcmcvQzEwNjY3MC9WNDYjQzEwNjY3MA==
  :label: QS-St. George's Respiratory Questionnaire for COPD Patients Test Name
  :notation: SGRQ-C TEST
- :identifier: :C89968
  :id: aHR0cDovL3d3dy5jZGlzYy5vcmcvQzg5OTY4L1YzNSNDODk5Njg=
  :last_id: aHR0cDovL3d3dy5jZGlzYy5vcmcvQzg5OTY4L1Y0NSNDODk5Njg=
  :label: Standardized Disposition Term
  :notation: DSDECOD
- :identifier: :C77530
  :id: aHR0cDovL3d3dy5jZGlzYy5vcmcvQzc3NTMwL1YzOCNDNzc1MzA=
  :last_id: aHR0cDovL3d3dy5jZGlzYy5vcmcvQzc3NTMwL1Y0NSNDNzc1MzA=
  :label: Strain/Substrain
  :notation: STRAIN
- :identifier: :C74559
  :id: aHR0cDovL3d3dy5jZGlzYy5vcmcvQzc0NTU5L1YzOCNDNzQ1NTk=
  :last_id: aHR0cDovL3d3dy5jZGlzYy5vcmcvQzc0NTU5L1Y0NiNDNzQ1NTk=
  :label: Subject Characteristic Test Code
  :notation: SCTESTCD
- :identifier: :C103330
  :id: aHR0cDovL3d3dy5jZGlzYy5vcmcvQzEwMzMzMC9WMzgjQzEwMzMzMA==
  :last_id: aHR0cDovL3d3dy5jZGlzYy5vcmcvQzEwMzMzMC9WNDYjQzEwMzMzMA==
  :label: Subject Characteristic Test Name
  :notation: SCTEST
- :identifier: :C101828
  :id: aHR0cDovL3d3dy5jZGlzYy5vcmcvQzEwMTgyOC9WMzkjQzEwMTgyOA==
  :last_id: aHR0cDovL3d3dy5jZGlzYy5vcmcvQzEwMTgyOC9WNDYjQzEwMTgyOA==
  :label: QS-Subjective Opiate Withdrawal Scale Test Code
  :notation: SOWS Subjective TESTCD
- :identifier: :C101829
  :id: aHR0cDovL3d3dy5jZGlzYy5vcmcvQzEwMTgyOS9WMzkjQzEwMTgyOQ==
  :last_id: aHR0cDovL3d3dy5jZGlzYy5vcmcvQzEwMTgyOS9WNDYjQzEwMTgyOQ==
  :label: QS-Subjective Opiate Withdrawal Scale Test Name
  :notation: SOWS Subjective TEST
- :identifier: :C115396
  :id: aHR0cDovL3d3dy5jZGlzYy5vcmcvQzExNTM5Ni9WMzkjQzExNTM5Ng==
  :last_id: aHR0cDovL3d3dy5jZGlzYy5vcmcvQzExNTM5Ni9WNDYjQzExNTM5Ng==
  :label: FT-Symbol Digit Modalities Functional Test Test Code
  :notation: SDMT TESTCD
- :identifier: :C115395
  :id: aHR0cDovL3d3dy5jZGlzYy5vcmcvQzExNTM5NS9WMzkjQzExNTM5NQ==
  :last_id: aHR0cDovL3d3dy5jZGlzYy5vcmcvQzExNTM5NS9WNDYjQzExNTM5NQ==
  :label: FT-Symbol Digit Modalities Functional Test Test Name
  :notation: SDMT TEST
- :identifier: :C103485
  :id: aHR0cDovL3d3dy5jZGlzYy5vcmcvQzEwMzQ4NS9WMzkjQzEwMzQ4NQ==
  :last_id: aHR0cDovL3d3dy5jZGlzYy5vcmcvQzEwMzQ4NS9WNDYjQzEwMzQ4NQ==
  :label: QS-Symptom Impact Questionnaire Test Code
  :notation: SIQR TESTCD
- :identifier: :C103484
  :id: aHR0cDovL3d3dy5jZGlzYy5vcmcvQzEwMzQ4NC9WMzkjQzEwMzQ4NA==
  :last_id: aHR0cDovL3d3dy5jZGlzYy5vcmcvQzEwMzQ4NC9WNDYjQzEwMzQ4NA==
  :label: QS-Symptom Impact Questionnaire Test Name
  :notation: SIQR TEST
- :identifier: :C101841
  :id: aHR0cDovL3d3dy5jZGlzYy5vcmcvQzEwMTg0MS9WMzkjQzEwMTg0MQ==
  :last_id: aHR0cDovL3d3dy5jZGlzYy5vcmcvQzEwMTg0MS9WNDIjQzEwMTg0MQ==
  :label: TIMI Flow Responses
  :notation: TIMIFLOW
- :identifier: :C103479
  :id: aHR0cDovL3d3dy5jZGlzYy5vcmcvQzEwMzQ3OS9WMzkjQzEwMzQ3OQ==
  :last_id: aHR0cDovL3d3dy5jZGlzYy5vcmcvQzEwMzQ3OS9WNDYjQzEwMzQ3OQ==
  :label: QS-The Oswestry Disability Index Version 2.1a Questionnaire Test Code
  :notation: ODI v2.1A TESTCD
- :identifier: :C103478
  :id: aHR0cDovL3d3dy5jZGlzYy5vcmcvQzEwMzQ3OC9WMzkjQzEwMzQ3OA==
  :last_id: aHR0cDovL3d3dy5jZGlzYy5vcmcvQzEwMzQ3OC9WNDYjQzEwMzQ3OA==
  :label: QS-The Oswestry Disability Index Version 2.1a Questionnaire Test Name
  :notation: ODI v2.1A TEST
- :identifier: :C103477
  :id: aHR0cDovL3d3dy5jZGlzYy5vcmcvQzEwMzQ3Ny9WMzkjQzEwMzQ3Nw==
  :last_id: aHR0cDovL3d3dy5jZGlzYy5vcmcvQzEwMzQ3Ny9WNDYjQzEwMzQ3Nw==
  :label: QS-The Overactive Bladder Questionnaire Short Form Test Code
  :notation: OAB-Q Short Form TESTCD
- :identifier: :C103476
  :id: aHR0cDovL3d3dy5jZGlzYy5vcmcvQzEwMzQ3Ni9WMzkjQzEwMzQ3Ng==
  :last_id: aHR0cDovL3d3dy5jZGlzYy5vcmcvQzEwMzQ3Ni9WNDYjQzEwMzQ3Ng==
  :label: QS-The Overactive Bladder Questionnaire Short Form Test Name
  :notation: OAB-Q Short Form TEST
- :identifier: :C103475
  :id: aHR0cDovL3d3dy5jZGlzYy5vcmcvQzEwMzQ3NS9WMzkjQzEwMzQ3NQ==
  :last_id: aHR0cDovL3d3dy5jZGlzYy5vcmcvQzEwMzQ3NS9WNDYjQzEwMzQ3NQ==
  :label: QS-The Overactive Bladder Questionnaire Test Code
  :notation: OAB-Q TESTCD
- :identifier: :C103474
  :id: aHR0cDovL3d3dy5jZGlzYy5vcmcvQzEwMzQ3NC9WMzkjQzEwMzQ3NA==
  :last_id: aHR0cDovL3d3dy5jZGlzYy5vcmcvQzEwMzQ3NC9WNDYjQzEwMzQ3NA==
  :label: QS-The Overactive Bladder Questionnaire Test Name
  :notation: OAB-Q TEST
- :identifier: :C115398
  :id: aHR0cDovL3d3dy5jZGlzYy5vcmcvQzExNTM5OC9WMzkjQzExNTM5OA==
  :last_id: aHR0cDovL3d3dy5jZGlzYy5vcmcvQzExNTM5OC9WNDYjQzExNTM5OA==
  :label: FT-Timed 25-Foot Walk Functional Test Test Code
  :notation: T25FW TESTCD
- :identifier: :C115397
  :id: aHR0cDovL3d3dy5jZGlzYy5vcmcvQzExNTM5Ny9WMzkjQzExNTM5Nw==
  :last_id: aHR0cDovL3d3dy5jZGlzYy5vcmcvQzExNTM5Ny9WNDYjQzExNTM5Nw==
  :label: FT-Timed 25-Foot Walk Functional Test Test Name
  :notation: T25FW TEST
- :identifier: :C115400
  :id: aHR0cDovL3d3dy5jZGlzYy5vcmcvQzExNTQwMC9WMzkjQzExNTQwMA==
  :last_id: aHR0cDovL3d3dy5jZGlzYy5vcmcvQzExNTQwMC9WNDYjQzExNTQwMA==
  :label: FT-Timed Up and Go Functional Test Test Code
  :notation: TUG TESTCD
- :identifier: :C115399
  :id: aHR0cDovL3d3dy5jZGlzYy5vcmcvQzExNTM5OS9WMzkjQzExNTM5OQ==
  :last_id: aHR0cDovL3d3dy5jZGlzYy5vcmcvQzExNTM5OS9WNDYjQzExNTM5OQ==
  :label: FT-Timed Up and Go Functional Test Test Name
  :notation: TUG TEST
- :identifier: :C106657
  :id: aHR0cDovL3d3dy5jZGlzYy5vcmcvQzEwNjY1Ny9WMzkjQzEwNjY1Nw==
  :last_id: aHR0cDovL3d3dy5jZGlzYy5vcmcvQzEwNjY1Ny9WNDYjQzEwNjY1Nw==
  :label: QS-Transition Dyspnea Index Questionnaire Test Code
  :notation: TDI TESTCD
- :identifier: :C106656
  :id: aHR0cDovL3d3dy5jZGlzYy5vcmcvQzEwNjY1Ni9WMzkjQzEwNjY1Ng==
  :last_id: aHR0cDovL3d3dy5jZGlzYy5vcmcvQzEwNjY1Ni9WNDYjQzEwNjY1Ng==
  :label: QS-Transition Dyspnea Index Questionnaire Test Name
  :notation: TDI TEST
- :identifier: :C66737
  :id: aHR0cDovL3d3dy5jZGlzYy5vcmcvQzY2NzM3L1YzOCNDNjY3Mzc=
  :last_id: aHR0cDovL3d3dy5jZGlzYy5vcmcvQzY2NzM3L1Y0MiNDNjY3Mzc=
  :label: Trial Phase
  :notation: TPHASE
- :identifier: :C66738
  :id: aHR0cDovL3d3dy5jZGlzYy5vcmcvQzY2NzM4L1YzOSNDNjY3Mzg=
  :last_id: aHR0cDovL3d3dy5jZGlzYy5vcmcvQzY2NzM4L1Y0NiNDNjY3Mzg=
  :label: Trial Summary Parameter Test Code
  :notation: TSPARMCD
- :identifier: :C67152
  :id: aHR0cDovL3d3dy5jZGlzYy5vcmcvQzY3MTUyL1YzOSNDNjcxNTI=
  :last_id: aHR0cDovL3d3dy5jZGlzYy5vcmcvQzY3MTUyL1Y0NiNDNjcxNTI=
  :label: Trial Summary Parameter Test Name
  :notation: TSPARM
- :identifier: :C66739
  :id: aHR0cDovL3d3dy5jZGlzYy5vcmcvQzY2NzM5L1YzMyNDNjY3Mzk=
  :last_id: aHR0cDovL3d3dy5jZGlzYy5vcmcvQzY2NzM5L1Y0MyNDNjY3Mzk=
  :label: Trial Type
  :notation: TTYPE
- :identifier: :C96784
  :id: aHR0cDovL3d3dy5jZGlzYy5vcmcvQzk2Nzg0L1YyNiNDOTY3ODQ=
  :last_id: aHR0cDovL3d3dy5jZGlzYy5vcmcvQzk2Nzg0L1Y0NSNDOTY3ODQ=
  :label: Tumor Identification Test Code
  :notation: TUTESTCD
- :identifier: :C96783
  :id: aHR0cDovL3d3dy5jZGlzYy5vcmcvQzk2NzgzL1YyNiNDOTY3ODM=
  :last_id: aHR0cDovL3d3dy5jZGlzYy5vcmcvQzk2NzgzL1Y0NSNDOTY3ODM=
  :label: Tumor Identification Test Name
  :notation: TUTEST
- :identifier: :C96779
  :id: aHR0cDovL3d3dy5jZGlzYy5vcmcvQzk2Nzc5L1YzNyNDOTY3Nzk=
  :last_id: aHR0cDovL3d3dy5jZGlzYy5vcmcvQzk2Nzc5L1Y0NiNDOTY3Nzk=
  :label: Oncology Tumor Properties Test Code
  :notation: TRTESTCD
- :identifier: :C96778
  :id: aHR0cDovL3d3dy5jZGlzYy5vcmcvQzk2Nzc4L1YzNyNDOTY3Nzg=
  :last_id: aHR0cDovL3d3dy5jZGlzYy5vcmcvQzk2Nzc4L1Y0NiNDOTY3Nzg=
  :label: Oncology Tumor Properties Test Name
  :notation: TRTEST
- :identifier: :C100148
  :id: aHR0cDovL3d3dy5jZGlzYy5vcmcvQzEwMDE0OC9WMzkjQzEwMDE0OA==
  :last_id: aHR0cDovL3d3dy5jZGlzYy5vcmcvQzEwMDE0OC9WNDYjQzEwMDE0OA==
  :label: QS-Unified Parkinson's Disease Rating Scale Test Code
  :notation: UPDRS TESTCD
- :identifier: :C100147
  :id: aHR0cDovL3d3dy5jZGlzYy5vcmcvQzEwMDE0Ny9WMzkjQzEwMDE0Nw==
  :last_id: aHR0cDovL3d3dy5jZGlzYy5vcmcvQzEwMDE0Ny9WNDYjQzEwMDE0Nw==
  :label: QS-Unified Parkinson's Disease Rating Scale Test Name
  :notation: UPDRS TEST
- :identifier: :C71620
  :id: aHR0cDovL3d3dy5jZGlzYy5vcmcvQzcxNjIwL1YzOSNDNzE2MjA=
  :last_id: aHR0cDovL3d3dy5jZGlzYy5vcmcvQzcxNjIwL1Y0NiNDNzE2MjA=
  :label: Unit
  :notation: UNIT
- :identifier: :C66770
  :id: aHR0cDovL3d3dy5jZGlzYy5vcmcvQzY2NzcwL1YzOSNDNjY3NzA=
  :last_id: aHR0cDovL3d3dy5jZGlzYy5vcmcvQzY2NzcwL1Y0NCNDNjY3NzA=
  :label: Units for Vital Signs Results
  :notation: VSRESU
- :identifier: :C103489
  :id: aHR0cDovL3d3dy5jZGlzYy5vcmcvQzEwMzQ4OS9WMzkjQzEwMzQ4OQ==
  :last_id: aHR0cDovL3d3dy5jZGlzYy5vcmcvQzEwMzQ4OS9WNDYjQzEwMzQ4OQ==
  :label: QS-Urgency Perception Scale Questionnaire Test Code
  :notation: UPS TESTCD
- :identifier: :C103488
  :id: aHR0cDovL3d3dy5jZGlzYy5vcmcvQzEwMzQ4OC9WMzkjQzEwMzQ4OA==
  :last_id: aHR0cDovL3d3dy5jZGlzYy5vcmcvQzEwMzQ4OC9WNDYjQzEwMzQ4OA==
  :label: QS-Urgency Perception Scale Questionnaire Test Name
  :notation: UPS TEST
- :identifier: :C116110
  :id: aHR0cDovL3d3dy5jZGlzYy5vcmcvQzExNjExMC9WMzkjQzExNjExMA==
  :last_id: aHR0cDovL3d3dy5jZGlzYy5vcmcvQzExNjExMC9WNDMjQzExNjExMA==
  :label: Viral Resistance Findings Test Code
  :notation: VRTESTCD
- :identifier: :C116109
  :id: aHR0cDovL3d3dy5jZGlzYy5vcmcvQzExNjEwOS9WMzkjQzExNjEwOQ==
  :last_id: aHR0cDovL3d3dy5jZGlzYy5vcmcvQzExNjEwOS9WNDMjQzExNjEwOQ==
  :label: Viral Resistance Findings Test Name
  :notation: VRTEST
- :identifier: :C66741
  :id: aHR0cDovL3d3dy5jZGlzYy5vcmcvQzY2NzQxL1YzNyNDNjY3NDE=
  :last_id: aHR0cDovL3d3dy5jZGlzYy5vcmcvQzY2NzQxL1Y0NiNDNjY3NDE=
  :label: Vital Signs Test Code
  :notation: VSTESTCD
- :identifier: :C67153
  :id: aHR0cDovL3d3dy5jZGlzYy5vcmcvQzY3MTUzL1YzNyNDNjcxNTM=
  :last_id: aHR0cDovL3d3dy5jZGlzYy5vcmcvQzY3MTUzL1Y0NiNDNjcxNTM=
  :label: Vital Signs Test Name
  :notation: VSTEST
- :identifier: :C100176
  :id: aHR0cDovL3d3dy5jZGlzYy5vcmcvQzEwMDE3Ni9WMzkjQzEwMDE3Ng==
  :last_id: aHR0cDovL3d3dy5jZGlzYy5vcmcvQzEwMDE3Ni9WNDYjQzEwMDE3Ng==
  :label: QS-Work Productivity and Activity Impairment Questionnaire - Specific Health
    Problem V2.0 Test Code
  :notation: WPAI-SHP TESTCD
- :identifier: :C100175
  :id: aHR0cDovL3d3dy5jZGlzYy5vcmcvQzEwMDE3NS9WMzkjQzEwMDE3NQ==
  :last_id: aHR0cDovL3d3dy5jZGlzYy5vcmcvQzEwMDE3NS9WNDYjQzEwMDE3NQ==
  :label: QS-Work Productivity and Activity Impairment Questionnaire - Specific Health
    Problem V2.0 Test Name
  :notation: WPAI-SHP TEST
:deleted:
- :identifier: :C66784
  :id: aHR0cDovL3d3dy5jZGlzYy5vcmcvQzY2Nzg0L1YzNCNDNjY3ODQ=
  :last_id: ''
  :label: Common Terminology Criteria for Adverse Events V3.0
  :notation: TOXGRV3
- :identifier: :C100146
  :id: aHR0cDovL3d3dy5jZGlzYy5vcmcvQzEwMDE0Ni9WMzkjQzEwMDE0Ng==
  :last_id: ''
  :label: QS-Parkinson's Disease Quality of Life Test Code
  :notation: PDQUALIF TESTCD
- :identifier: :C100145
  :id: aHR0cDovL3d3dy5jZGlzYy5vcmcvQzEwMDE0NS9WMzkjQzEwMDE0NQ==
  :last_id: ''
  :label: QS-Parkinson's Disease Quality of Life Test Name
  :notation: PDQUALIF TEST
- :identifier: :C103487
  :id: aHR0cDovL3d3dy5jZGlzYy5vcmcvQzEwMzQ4Ny9WMzkjQzEwMzQ4Nw==
  :last_id: ''
  :label: QS-Short Opiate Withdrawal Scale Questionnaire Test Code
  :notation: SOWS Short TESTCD
- :identifier: :C103486
  :id: aHR0cDovL3d3dy5jZGlzYy5vcmcvQzEwMzQ4Ni9WMzkjQzEwMzQ4Ng==
  :last_id: ''
  :label: QS-Short Opiate Withdrawal Scale Questionnaire Test Name
  :notation: SOWS Short TEST
- :identifier: :C101830
  :id: aHR0cDovL3d3dy5jZGlzYy5vcmcvQzEwMTgzMC9WMzkjQzEwMTgzMA==
  :last_id: ''
  :label: QS-Young Mania Rating Scale Test Code
  :notation: YMRS TESTCD
- :identifier: :C101831
  :id: aHR0cDovL3d3dy5jZGlzYy5vcmcvQzEwMTgzMS9WMzkjQzEwMTgzMQ==
  :last_id: ''
  :label: QS-Young Mania Rating Scale Test Name
  :notation: YMRS TEST
- :identifier: :C96780
  :id: aHR0cDovL3d3dy5jZGlzYy5vcmcvQzk2NzgwL1YzMyNDOTY3ODA=
  :last_id: ''
  :label: Tumor Identification Results
  :notation: TUMIDENT
:versions:
- '2014-06-27'
- '2015-12-18'
