<http://www.assero.co.uk/MDRSdtmUD/ACME/V1#D-ACME_QSDomain> 			<http://www.w3.org/1999/02/22-rdf-syntax-ns#type> 			<http://www.assero.co.uk/BusinessDomain#UserDomain> . 
<http://www.assero.co.uk/MDRSdtmUD/ACME/V1#D-ACME_QSDomain> 			<http://www.w3.org/2000/01/rdf-schema#label> 			"Questionnaires" . 
<http://www.assero.co.uk/MDRSdtmUD/ACME/V1#D-ACME_QSDomain> 			<http://www.assero.co.uk/ISO11179Types#lastChangeDate> 			"2017-05-03T21:39:03+01:00" . 
<http://www.assero.co.uk/MDRSdtmUD/ACME/V1#D-ACME_QSDomain> 			<http://www.assero.co.uk/ISO11179Types#explanatoryComment> 			"" . 
<http://www.assero.co.uk/MDRSdtmUD/ACME/V1#D-ACME_QSDomain> 			<http://www.assero.co.uk/ISO11179Types#creationDate> 			"2017-05-03T21:39:03+01:00" . 
<http://www.assero.co.uk/MDRSdtmUD/ACME/V1#D-ACME_QSDomain> 			<http://www.assero.co.uk/ISO11179Types#changeDescription> 			"" . 
<http://www.assero.co.uk/MDRSdtmUD/ACME/V1#D-ACME_QSDomain> 			<http://www.assero.co.uk/ISO11179Types#origin> 			"" . 
<http://www.assero.co.uk/MDRSdtmUD/ACME/V1#D-ACME_QSDomain> 			<http://www.assero.co.uk/ISO11179Identification#hasIdentifier> 			<http://www.assero.co.uk/MDRItems#SI-ACME_QSDomain-1> . 
<http://www.assero.co.uk/MDRSdtmUD/ACME/V1#D-ACME_QSDomain> 			<http://www.assero.co.uk/ISO11179Registration#hasState> 			<http://www.assero.co.uk/MDRItems#RS-ACME_QSDomain-1> . 
<http://www.assero.co.uk/MDRSdtmUD/ACME/V1#D-ACME_QSDomain> 			<http://www.assero.co.uk/BusinessDomain#ordinal> 			"1" . 
<http://www.assero.co.uk/MDRSdtmUD/ACME/V1#D-ACME_QSDomain> 			<http://www.assero.co.uk/BusinessDomain#notes> 			"" . 
<http://www.assero.co.uk/MDRSdtmUD/ACME/V1#D-ACME_QSDomain> 			<http://www.assero.co.uk/BusinessDomain#rule> 			"" . 
<http://www.assero.co.uk/MDRSdtmUD/ACME/V1#D-ACME_QSDomain> 			<http://www.assero.co.uk/BusinessDomain#includesColumn> 			<http://www.assero.co.uk/MDRSdtmUD/ACME/V1#D-ACME_QSDomain_V1> . 
<http://www.assero.co.uk/MDRSdtmUD/ACME/V1#D-ACME_QSDomain> 			<http://www.assero.co.uk/BusinessDomain#includesColumn> 			<http://www.assero.co.uk/MDRSdtmUD/ACME/V1#D-ACME_QSDomain_V2> . 
<http://www.assero.co.uk/MDRSdtmUD/ACME/V1#D-ACME_QSDomain> 			<http://www.assero.co.uk/BusinessDomain#includesColumn> 			<http://www.assero.co.uk/MDRSdtmUD/ACME/V1#D-ACME_QSDomain_V3> . 
<http://www.assero.co.uk/MDRSdtmUD/ACME/V1#D-ACME_QSDomain> 			<http://www.assero.co.uk/BusinessDomain#includesColumn> 			<http://www.assero.co.uk/MDRSdtmUD/ACME/V1#D-ACME_QSDomain_V4> . 
<http://www.assero.co.uk/MDRSdtmUD/ACME/V1#D-ACME_QSDomain> 			<http://www.assero.co.uk/BusinessDomain#includesColumn> 			<http://www.assero.co.uk/MDRSdtmUD/ACME/V1#D-ACME_QSDomain_V5> . 
<http://www.assero.co.uk/MDRSdtmUD/ACME/V1#D-ACME_QSDomain> 			<http://www.assero.co.uk/BusinessDomain#includesColumn> 			<http://www.assero.co.uk/MDRSdtmUD/ACME/V1#D-ACME_QSDomain_V6> . 
<http://www.assero.co.uk/MDRSdtmUD/ACME/V1#D-ACME_QSDomain> 			<http://www.assero.co.uk/BusinessDomain#includesColumn> 			<http://www.assero.co.uk/MDRSdtmUD/ACME/V1#D-ACME_QSDomain_V7> . 
<http://www.assero.co.uk/MDRSdtmUD/ACME/V1#D-ACME_QSDomain> 			<http://www.assero.co.uk/BusinessDomain#includesColumn> 			<http://www.assero.co.uk/MDRSdtmUD/ACME/V1#D-ACME_QSDomain_V8> . 
<http://www.assero.co.uk/MDRSdtmUD/ACME/V1#D-ACME_QSDomain> 			<http://www.assero.co.uk/BusinessDomain#includesColumn> 			<http://www.assero.co.uk/MDRSdtmUD/ACME/V1#D-ACME_QSDomain_V9> . 
<http://www.assero.co.uk/MDRSdtmUD/ACME/V1#D-ACME_QSDomain> 			<http://www.assero.co.uk/BusinessDomain#includesColumn> 			<http://www.assero.co.uk/MDRSdtmUD/ACME/V1#D-ACME_QSDomain_V10> . 
<http://www.assero.co.uk/MDRSdtmUD/ACME/V1#D-ACME_QSDomain> 			<http://www.assero.co.uk/BusinessDomain#includesColumn> 			<http://www.assero.co.uk/MDRSdtmUD/ACME/V1#D-ACME_QSDomain_V11> . 
<http://www.assero.co.uk/MDRSdtmUD/ACME/V1#D-ACME_QSDomain> 			<http://www.assero.co.uk/BusinessDomain#includesColumn> 			<http://www.assero.co.uk/MDRSdtmUD/ACME/V1#D-ACME_QSDomain_V12> . 
<http://www.assero.co.uk/MDRSdtmUD/ACME/V1#D-ACME_QSDomain> 			<http://www.assero.co.uk/BusinessDomain#includesColumn> 			<http://www.assero.co.uk/MDRSdtmUD/ACME/V1#D-ACME_QSDomain_V13> . 
<http://www.assero.co.uk/MDRSdtmUD/ACME/V1#D-ACME_QSDomain> 			<http://www.assero.co.uk/BusinessDomain#includesColumn> 			<http://www.assero.co.uk/MDRSdtmUD/ACME/V1#D-ACME_QSDomain_V14> . 
<http://www.assero.co.uk/MDRSdtmUD/ACME/V1#D-ACME_QSDomain> 			<http://www.assero.co.uk/BusinessDomain#includesColumn> 			<http://www.assero.co.uk/MDRSdtmUD/ACME/V1#D-ACME_QSDomain_V15> . 
<http://www.assero.co.uk/MDRSdtmUD/ACME/V1#D-ACME_QSDomain> 			<http://www.assero.co.uk/BusinessDomain#includesColumn> 			<http://www.assero.co.uk/MDRSdtmUD/ACME/V1#D-ACME_QSDomain_V16> . 
<http://www.assero.co.uk/MDRSdtmUD/ACME/V1#D-ACME_QSDomain> 			<http://www.assero.co.uk/BusinessDomain#includesColumn> 			<http://www.assero.co.uk/MDRSdtmUD/ACME/V1#D-ACME_QSDomain_V17> . 
<http://www.assero.co.uk/MDRSdtmUD/ACME/V1#D-ACME_QSDomain> 			<http://www.assero.co.uk/BusinessDomain#includesColumn> 			<http://www.assero.co.uk/MDRSdtmUD/ACME/V1#D-ACME_QSDomain_V18> . 
<http://www.assero.co.uk/MDRSdtmUD/ACME/V1#D-ACME_QSDomain> 			<http://www.assero.co.uk/BusinessDomain#includesColumn> 			<http://www.assero.co.uk/MDRSdtmUD/ACME/V1#D-ACME_QSDomain_V19> . 
<http://www.assero.co.uk/MDRSdtmUD/ACME/V1#D-ACME_QSDomain> 			<http://www.assero.co.uk/BusinessDomain#includesColumn> 			<http://www.assero.co.uk/MDRSdtmUD/ACME/V1#D-ACME_QSDomain_V20> . 
<http://www.assero.co.uk/MDRSdtmUD/ACME/V1#D-ACME_QSDomain> 			<http://www.assero.co.uk/BusinessDomain#includesColumn> 			<http://www.assero.co.uk/MDRSdtmUD/ACME/V1#D-ACME_QSDomain_V21> . 
<http://www.assero.co.uk/MDRSdtmUD/ACME/V1#D-ACME_QSDomain> 			<http://www.assero.co.uk/BusinessDomain#includesColumn> 			<http://www.assero.co.uk/MDRSdtmUD/ACME/V1#D-ACME_QSDomain_V22> . 
<http://www.assero.co.uk/MDRSdtmUD/ACME/V1#D-ACME_QSDomain> 			<http://www.assero.co.uk/BusinessDomain#includesColumn> 			<http://www.assero.co.uk/MDRSdtmUD/ACME/V1#D-ACME_QSDomain_V23> . 
<http://www.assero.co.uk/MDRSdtmUD/ACME/V1#D-ACME_QSDomain> 			<http://www.assero.co.uk/BusinessDomain#includesColumn> 			<http://www.assero.co.uk/MDRSdtmUD/ACME/V1#D-ACME_QSDomain_V24> . 
<http://www.assero.co.uk/MDRSdtmUD/ACME/V1#D-ACME_QSDomain> 			<http://www.assero.co.uk/BusinessDomain#includesColumn> 			<http://www.assero.co.uk/MDRSdtmUD/ACME/V1#D-ACME_QSDomain_V25> . 
<http://www.assero.co.uk/MDRSdtmUD/ACME/V1#D-ACME_QSDomain> 			<http://www.assero.co.uk/BusinessDomain#includesColumn> 			<http://www.assero.co.uk/MDRSdtmUD/ACME/V1#D-ACME_QSDomain_V26> . 
<http://www.assero.co.uk/MDRSdtmUD/ACME/V1#D-ACME_QSDomain> 			<http://www.assero.co.uk/BusinessDomain#includesColumn> 			<http://www.assero.co.uk/MDRSdtmUD/ACME/V1#D-ACME_QSDomain_V27> . 
<http://www.assero.co.uk/MDRSdtmUD/ACME/V1#D-ACME_QSDomain> 			<http://www.assero.co.uk/BusinessDomain#includesColumn> 			<http://www.assero.co.uk/MDRSdtmUD/ACME/V1#D-ACME_QSDomain_V28> . 
<http://www.assero.co.uk/MDRSdtmUD/ACME/V1#D-ACME_QSDomain> 			<http://www.assero.co.uk/BusinessDomain#includesColumn> 			<http://www.assero.co.uk/MDRSdtmUD/ACME/V1#D-ACME_QSDomain_V29> . 
<http://www.assero.co.uk/MDRSdtmUD/ACME/V1#D-ACME_QSDomain> 			<http://www.assero.co.uk/BusinessDomain#includesColumn> 			<http://www.assero.co.uk/MDRSdtmUD/ACME/V1#D-ACME_QSDomain_V30> . 
<http://www.assero.co.uk/MDRSdtmUD/ACME/V1#D-ACME_QSDomain> 			<http://www.assero.co.uk/BusinessDomain#includesColumn> 			<http://www.assero.co.uk/MDRSdtmUD/ACME/V1#D-ACME_QSDomain_V31> . 
<http://www.assero.co.uk/MDRSdtmUD/ACME/V1#D-ACME_QSDomain> 			<http://www.assero.co.uk/BusinessDomain#structure> 			"" . 
<http://www.assero.co.uk/MDRSdtmUD/ACME/V1#D-ACME_QSDomain> 			<http://www.assero.co.uk/BusinessDomain#prefix> 			"QS" . 
<http://www.assero.co.uk/MDRSdtmUD/ACME/V1#D-ACME_QSDomain> 			<http://www.assero.co.uk/BusinessDomain#basedOnDomain> 			<http://www.assero.co.uk/MDRSdtmUD/ACME/V1#D-ACME_QSDomain_IGD1> . 
<http://www.assero.co.uk/MDRSdtmUD/ACME/V1#D-ACME_QSDomain> 			<http://www.assero.co.uk/BusinessDomain#basedOnDomain> 			<http://www.assero.co.uk/MDRSdtmUD/ACME/V1#D-ACME_QSDomain_MD1> . 
<http://www.assero.co.uk/MDRSdtmUD/ACME/V1#D-ACME_QSDomain> 			<http://www.assero.co.uk/BusinessDomain#hasBiomedicalConcept> 			<http://www.assero.co.uk/MDRSdtmUD/ACME/V1#D-ACME_QSDomain_BCR2> . 
<http://www.assero.co.uk/MDRSdtmUD/ACME/V1#D-ACME_QSDomain> 			<http://www.assero.co.uk/BusinessDomain#hasBiomedicalConcept> 			<http://www.assero.co.uk/MDRSdtmUD/ACME/V1#D-ACME_QSDomain_BCR3> . 
<http://www.assero.co.uk/MDRSdtmUD/ACME/V1#D-ACME_QSDomain> 			<http://www.assero.co.uk/BusinessDomain#hasBiomedicalConcept> 			<http://www.assero.co.uk/MDRSdtmUD/ACME/V1#D-ACME_QSDomain_BCR4> . 
<http://www.assero.co.uk/MDRSdtmUD/ACME/V1#D-ACME_QSDomain> 			<http://www.assero.co.uk/BusinessDomain#hasBiomedicalConcept> 			<http://www.assero.co.uk/MDRSdtmUD/ACME/V1#D-ACME_QSDomain_BCR5> . 
<http://www.assero.co.uk/MDRSdtmUD/ACME/V1#D-ACME_QSDomain> 			<http://www.assero.co.uk/BusinessDomain#hasBiomedicalConcept> 			<http://www.assero.co.uk/MDRSdtmUD/ACME/V1#D-ACME_QSDomain_BCR6> . 
<http://www.assero.co.uk/MDRSdtmUD/ACME/V1#D-ACME_QSDomain> 			<http://www.assero.co.uk/BusinessDomain#hasBiomedicalConcept> 			<http://www.assero.co.uk/MDRSdtmUD/ACME/V1#D-ACME_QSDomain_BCR7> . 
<http://www.assero.co.uk/MDRSdtmUD/ACME/V1#D-ACME_QSDomain_V1> 			<http://www.w3.org/1999/02/22-rdf-syntax-ns#type> 			<http://www.assero.co.uk/BusinessDomain#UserVariable> . 
<http://www.assero.co.uk/MDRSdtmUD/ACME/V1#D-ACME_QSDomain_V1> 			<http://www.w3.org/2000/01/rdf-schema#label> 			"Study Identifier" . 
<http://www.assero.co.uk/MDRSdtmUD/ACME/V1#D-ACME_QSDomain_V1> 			<http://www.assero.co.uk/BusinessDomain#ordinal> 			"1" . 
<http://www.assero.co.uk/MDRSdtmUD/ACME/V1#D-ACME_QSDomain_V1> 			<http://www.assero.co.uk/BusinessDomain#basedOnVariable> 			<http://www.assero.co.uk/MDRSdtmUD/ACME/V1#D-ACME_QSDomain_V1_IGV1> . 
<http://www.assero.co.uk/MDRSdtmUD/ACME/V1#D-ACME_QSDomain_V1> 			<http://www.assero.co.uk/BusinessDomain#notes> 			"" . 
<http://www.assero.co.uk/MDRSdtmUD/ACME/V1#D-ACME_QSDomain_V1> 			<http://www.assero.co.uk/BusinessDomain#name> 			"STUDYID" . 
<http://www.assero.co.uk/MDRSdtmUD/ACME/V1#D-ACME_QSDomain_V1> 			<http://www.assero.co.uk/BusinessDomain#compliance> 			<http://www.assero.co.uk/MDRSdtmIgD/CDISC/V3#IG-CDISC_SDTMIGQS_C_REQUIRED> . 
<http://www.assero.co.uk/MDRSdtmUD/ACME/V1#D-ACME_QSDomain_V1> 			<http://www.assero.co.uk/BusinessDomain#rule> 			"" . 
<http://www.assero.co.uk/MDRSdtmUD/ACME/V1#D-ACME_QSDomain_V1> 			<http://www.assero.co.uk/BusinessDomain#typedAs> 			<http://www.assero.co.uk/MDRSdtmM/CDISC/V3#M-CDISC_SDTMMODEL_DT_CHAR> . 
<http://www.assero.co.uk/MDRSdtmUD/ACME/V1#D-ACME_QSDomain_V1> 			<http://www.assero.co.uk/BusinessDomain#classifiedAs> 			<http://www.assero.co.uk/MDRSdtmM/CDISC/V3#M-CDISC_SDTMMODEL_C_IDENTIFIER> . 
<http://www.assero.co.uk/MDRSdtmUD/ACME/V1#D-ACME_QSDomain_V1> 			<http://www.assero.co.uk/BusinessDomain#format> 			"" . 
<http://www.assero.co.uk/MDRSdtmUD/ACME/V1#D-ACME_QSDomain_V1> 			<http://www.assero.co.uk/BusinessDomain#non_standard> 			"false" . 
<http://www.assero.co.uk/MDRSdtmUD/ACME/V1#D-ACME_QSDomain_V1> 			<http://www.assero.co.uk/BusinessDomain#comment> 			"" . 
<http://www.assero.co.uk/MDRSdtmUD/ACME/V1#D-ACME_QSDomain_V1> 			<http://www.assero.co.uk/BusinessDomain#used> 			"true" . 
<http://www.assero.co.uk/MDRSdtmUD/ACME/V1#D-ACME_QSDomain_V1> 			<http://www.assero.co.uk/BusinessDomain#length> 			"0" . 
<http://www.assero.co.uk/MDRSdtmUD/ACME/V1#D-ACME_QSDomain_V1> 			<http://www.assero.co.uk/BusinessDomain#ct> 			"" . 
<http://www.assero.co.uk/MDRSdtmUD/ACME/V1#D-ACME_QSDomain_V1> 			<http://www.assero.co.uk/BusinessDomain#key_ordinal> 			"0" . 
<http://www.assero.co.uk/MDRSdtmUD/ACME/V1#D-ACME_QSDomain_V1_IGV1> 			<http://www.w3.org/1999/02/22-rdf-syntax-ns#type> 			<http://www.assero.co.uk/BusinessOperational#CReference> . 
<http://www.assero.co.uk/MDRSdtmUD/ACME/V1#D-ACME_QSDomain_V1_IGV1> 			<http://www.w3.org/2000/01/rdf-schema#label> 			"Based on Variable Reference" . 
<http://www.assero.co.uk/MDRSdtmUD/ACME/V1#D-ACME_QSDomain_V1_IGV1> 			<http://www.assero.co.uk/BusinessOperational#optional> 			"false" . 
<http://www.assero.co.uk/MDRSdtmUD/ACME/V1#D-ACME_QSDomain_V1_IGV1> 			<http://www.assero.co.uk/BusinessOperational#local_label> 			"" . 
<http://www.assero.co.uk/MDRSdtmUD/ACME/V1#D-ACME_QSDomain_V1_IGV1> 			<http://www.assero.co.uk/BusinessOperational#enabled> 			"true" . 
<http://www.assero.co.uk/MDRSdtmUD/ACME/V1#D-ACME_QSDomain_V1_IGV1> 			<http://www.assero.co.uk/BusinessOperational#ordinal> 			"1" . 
<http://www.assero.co.uk/MDRSdtmUD/ACME/V1#D-ACME_QSDomain_V1_IGV1> 			<http://www.assero.co.uk/BusinessOperational#hasColumn> 			<http://www.assero.co.uk/MDRSdtmIgD/CDISC/V3#IG-CDISC_SDTMIGQS_STUDYID> . 
<http://www.assero.co.uk/MDRSdtmUD/ACME/V1#D-ACME_QSDomain_V2> 			<http://www.w3.org/1999/02/22-rdf-syntax-ns#type> 			<http://www.assero.co.uk/BusinessDomain#UserVariable> . 
<http://www.assero.co.uk/MDRSdtmUD/ACME/V1#D-ACME_QSDomain_V2> 			<http://www.w3.org/2000/01/rdf-schema#label> 			"Domain Abbreviation" . 
<http://www.assero.co.uk/MDRSdtmUD/ACME/V1#D-ACME_QSDomain_V2> 			<http://www.assero.co.uk/BusinessDomain#ordinal> 			"2" . 
<http://www.assero.co.uk/MDRSdtmUD/ACME/V1#D-ACME_QSDomain_V2> 			<http://www.assero.co.uk/BusinessDomain#basedOnVariable> 			<http://www.assero.co.uk/MDRSdtmUD/ACME/V1#D-ACME_QSDomain_V2_IGV1> . 
<http://www.assero.co.uk/MDRSdtmUD/ACME/V1#D-ACME_QSDomain_V2> 			<http://www.assero.co.uk/BusinessDomain#notes> 			"" . 
<http://www.assero.co.uk/MDRSdtmUD/ACME/V1#D-ACME_QSDomain_V2> 			<http://www.assero.co.uk/BusinessDomain#name> 			"DOMAIN" . 
<http://www.assero.co.uk/MDRSdtmUD/ACME/V1#D-ACME_QSDomain_V2> 			<http://www.assero.co.uk/BusinessDomain#compliance> 			<http://www.assero.co.uk/MDRSdtmIgD/CDISC/V3#IG-CDISC_SDTMIGQS_C_REQUIRED> . 
<http://www.assero.co.uk/MDRSdtmUD/ACME/V1#D-ACME_QSDomain_V2> 			<http://www.assero.co.uk/BusinessDomain#rule> 			"" . 
<http://www.assero.co.uk/MDRSdtmUD/ACME/V1#D-ACME_QSDomain_V2> 			<http://www.assero.co.uk/BusinessDomain#typedAs> 			<http://www.assero.co.uk/MDRSdtmM/CDISC/V3#M-CDISC_SDTMMODEL_DT_CHAR> . 
<http://www.assero.co.uk/MDRSdtmUD/ACME/V1#D-ACME_QSDomain_V2> 			<http://www.assero.co.uk/BusinessDomain#classifiedAs> 			<http://www.assero.co.uk/MDRSdtmM/CDISC/V3#M-CDISC_SDTMMODEL_C_IDENTIFIER> . 
<http://www.assero.co.uk/MDRSdtmUD/ACME/V1#D-ACME_QSDomain_V2> 			<http://www.assero.co.uk/BusinessDomain#format> 			"" . 
<http://www.assero.co.uk/MDRSdtmUD/ACME/V1#D-ACME_QSDomain_V2> 			<http://www.assero.co.uk/BusinessDomain#non_standard> 			"false" . 
<http://www.assero.co.uk/MDRSdtmUD/ACME/V1#D-ACME_QSDomain_V2> 			<http://www.assero.co.uk/BusinessDomain#comment> 			"" . 
<http://www.assero.co.uk/MDRSdtmUD/ACME/V1#D-ACME_QSDomain_V2> 			<http://www.assero.co.uk/BusinessDomain#used> 			"true" . 
<http://www.assero.co.uk/MDRSdtmUD/ACME/V1#D-ACME_QSDomain_V2> 			<http://www.assero.co.uk/BusinessDomain#length> 			"0" . 
<http://www.assero.co.uk/MDRSdtmUD/ACME/V1#D-ACME_QSDomain_V2> 			<http://www.assero.co.uk/BusinessDomain#ct> 			"DOMAIN" . 
<http://www.assero.co.uk/MDRSdtmUD/ACME/V1#D-ACME_QSDomain_V2> 			<http://www.assero.co.uk/BusinessDomain#key_ordinal> 			"0" . 
<http://www.assero.co.uk/MDRSdtmUD/ACME/V1#D-ACME_QSDomain_V2_IGV1> 			<http://www.w3.org/1999/02/22-rdf-syntax-ns#type> 			<http://www.assero.co.uk/BusinessOperational#CReference> . 
<http://www.assero.co.uk/MDRSdtmUD/ACME/V1#D-ACME_QSDomain_V2_IGV1> 			<http://www.w3.org/2000/01/rdf-schema#label> 			"Based on Variable Reference" . 
<http://www.assero.co.uk/MDRSdtmUD/ACME/V1#D-ACME_QSDomain_V2_IGV1> 			<http://www.assero.co.uk/BusinessOperational#optional> 			"false" . 
<http://www.assero.co.uk/MDRSdtmUD/ACME/V1#D-ACME_QSDomain_V2_IGV1> 			<http://www.assero.co.uk/BusinessOperational#local_label> 			"" . 
<http://www.assero.co.uk/MDRSdtmUD/ACME/V1#D-ACME_QSDomain_V2_IGV1> 			<http://www.assero.co.uk/BusinessOperational#enabled> 			"true" . 
<http://www.assero.co.uk/MDRSdtmUD/ACME/V1#D-ACME_QSDomain_V2_IGV1> 			<http://www.assero.co.uk/BusinessOperational#ordinal> 			"1" . 
<http://www.assero.co.uk/MDRSdtmUD/ACME/V1#D-ACME_QSDomain_V2_IGV1> 			<http://www.assero.co.uk/BusinessOperational#hasColumn> 			<http://www.assero.co.uk/MDRSdtmIgD/CDISC/V3#IG-CDISC_SDTMIGQS_DOMAIN> . 
<http://www.assero.co.uk/MDRSdtmUD/ACME/V1#D-ACME_QSDomain_V3> 			<http://www.w3.org/1999/02/22-rdf-syntax-ns#type> 			<http://www.assero.co.uk/BusinessDomain#UserVariable> . 
<http://www.assero.co.uk/MDRSdtmUD/ACME/V1#D-ACME_QSDomain_V3> 			<http://www.w3.org/2000/01/rdf-schema#label> 			"Unique Subject Identifier" . 
<http://www.assero.co.uk/MDRSdtmUD/ACME/V1#D-ACME_QSDomain_V3> 			<http://www.assero.co.uk/BusinessDomain#ordinal> 			"3" . 
<http://www.assero.co.uk/MDRSdtmUD/ACME/V1#D-ACME_QSDomain_V3> 			<http://www.assero.co.uk/BusinessDomain#basedOnVariable> 			<http://www.assero.co.uk/MDRSdtmUD/ACME/V1#D-ACME_QSDomain_V3_IGV1> . 
<http://www.assero.co.uk/MDRSdtmUD/ACME/V1#D-ACME_QSDomain_V3> 			<http://www.assero.co.uk/BusinessDomain#notes> 			"" . 
<http://www.assero.co.uk/MDRSdtmUD/ACME/V1#D-ACME_QSDomain_V3> 			<http://www.assero.co.uk/BusinessDomain#name> 			"USUBJID" . 
<http://www.assero.co.uk/MDRSdtmUD/ACME/V1#D-ACME_QSDomain_V3> 			<http://www.assero.co.uk/BusinessDomain#compliance> 			<http://www.assero.co.uk/MDRSdtmIgD/CDISC/V3#IG-CDISC_SDTMIGQS_C_REQUIRED> . 
<http://www.assero.co.uk/MDRSdtmUD/ACME/V1#D-ACME_QSDomain_V3> 			<http://www.assero.co.uk/BusinessDomain#rule> 			"" . 
<http://www.assero.co.uk/MDRSdtmUD/ACME/V1#D-ACME_QSDomain_V3> 			<http://www.assero.co.uk/BusinessDomain#typedAs> 			<http://www.assero.co.uk/MDRSdtmM/CDISC/V3#M-CDISC_SDTMMODEL_DT_CHAR> . 
<http://www.assero.co.uk/MDRSdtmUD/ACME/V1#D-ACME_QSDomain_V3> 			<http://www.assero.co.uk/BusinessDomain#classifiedAs> 			<http://www.assero.co.uk/MDRSdtmM/CDISC/V3#M-CDISC_SDTMMODEL_C_IDENTIFIER> . 
<http://www.assero.co.uk/MDRSdtmUD/ACME/V1#D-ACME_QSDomain_V3> 			<http://www.assero.co.uk/BusinessDomain#format> 			"" . 
<http://www.assero.co.uk/MDRSdtmUD/ACME/V1#D-ACME_QSDomain_V3> 			<http://www.assero.co.uk/BusinessDomain#non_standard> 			"false" . 
<http://www.assero.co.uk/MDRSdtmUD/ACME/V1#D-ACME_QSDomain_V3> 			<http://www.assero.co.uk/BusinessDomain#comment> 			"" . 
<http://www.assero.co.uk/MDRSdtmUD/ACME/V1#D-ACME_QSDomain_V3> 			<http://www.assero.co.uk/BusinessDomain#used> 			"true" . 
<http://www.assero.co.uk/MDRSdtmUD/ACME/V1#D-ACME_QSDomain_V3> 			<http://www.assero.co.uk/BusinessDomain#length> 			"0" . 
<http://www.assero.co.uk/MDRSdtmUD/ACME/V1#D-ACME_QSDomain_V3> 			<http://www.assero.co.uk/BusinessDomain#ct> 			"" . 
<http://www.assero.co.uk/MDRSdtmUD/ACME/V1#D-ACME_QSDomain_V3> 			<http://www.assero.co.uk/BusinessDomain#key_ordinal> 			"0" . 
<http://www.assero.co.uk/MDRSdtmUD/ACME/V1#D-ACME_QSDomain_V3_IGV1> 			<http://www.w3.org/1999/02/22-rdf-syntax-ns#type> 			<http://www.assero.co.uk/BusinessOperational#CReference> . 
<http://www.assero.co.uk/MDRSdtmUD/ACME/V1#D-ACME_QSDomain_V3_IGV1> 			<http://www.w3.org/2000/01/rdf-schema#label> 			"Based on Variable Reference" . 
<http://www.assero.co.uk/MDRSdtmUD/ACME/V1#D-ACME_QSDomain_V3_IGV1> 			<http://www.assero.co.uk/BusinessOperational#optional> 			"false" . 
<http://www.assero.co.uk/MDRSdtmUD/ACME/V1#D-ACME_QSDomain_V3_IGV1> 			<http://www.assero.co.uk/BusinessOperational#local_label> 			"" . 
<http://www.assero.co.uk/MDRSdtmUD/ACME/V1#D-ACME_QSDomain_V3_IGV1> 			<http://www.assero.co.uk/BusinessOperational#enabled> 			"true" . 
<http://www.assero.co.uk/MDRSdtmUD/ACME/V1#D-ACME_QSDomain_V3_IGV1> 			<http://www.assero.co.uk/BusinessOperational#ordinal> 			"1" . 
<http://www.assero.co.uk/MDRSdtmUD/ACME/V1#D-ACME_QSDomain_V3_IGV1> 			<http://www.assero.co.uk/BusinessOperational#hasColumn> 			<http://www.assero.co.uk/MDRSdtmIgD/CDISC/V3#IG-CDISC_SDTMIGQS_USUBJID> . 
<http://www.assero.co.uk/MDRSdtmUD/ACME/V1#D-ACME_QSDomain_V4> 			<http://www.w3.org/1999/02/22-rdf-syntax-ns#type> 			<http://www.assero.co.uk/BusinessDomain#UserVariable> . 
<http://www.assero.co.uk/MDRSdtmUD/ACME/V1#D-ACME_QSDomain_V4> 			<http://www.w3.org/2000/01/rdf-schema#label> 			"Sequence Number" . 
<http://www.assero.co.uk/MDRSdtmUD/ACME/V1#D-ACME_QSDomain_V4> 			<http://www.assero.co.uk/BusinessDomain#ordinal> 			"4" . 
<http://www.assero.co.uk/MDRSdtmUD/ACME/V1#D-ACME_QSDomain_V4> 			<http://www.assero.co.uk/BusinessDomain#basedOnVariable> 			<http://www.assero.co.uk/MDRSdtmUD/ACME/V1#D-ACME_QSDomain_V4_IGV1> . 
<http://www.assero.co.uk/MDRSdtmUD/ACME/V1#D-ACME_QSDomain_V4> 			<http://www.assero.co.uk/BusinessDomain#notes> 			"" . 
<http://www.assero.co.uk/MDRSdtmUD/ACME/V1#D-ACME_QSDomain_V4> 			<http://www.assero.co.uk/BusinessDomain#name> 			"QSSEQ" . 
<http://www.assero.co.uk/MDRSdtmUD/ACME/V1#D-ACME_QSDomain_V4> 			<http://www.assero.co.uk/BusinessDomain#compliance> 			<http://www.assero.co.uk/MDRSdtmIgD/CDISC/V3#IG-CDISC_SDTMIGQS_C_REQUIRED> . 
<http://www.assero.co.uk/MDRSdtmUD/ACME/V1#D-ACME_QSDomain_V4> 			<http://www.assero.co.uk/BusinessDomain#rule> 			"" . 
<http://www.assero.co.uk/MDRSdtmUD/ACME/V1#D-ACME_QSDomain_V4> 			<http://www.assero.co.uk/BusinessDomain#typedAs> 			<http://www.assero.co.uk/MDRSdtmM/CDISC/V3#M-CDISC_SDTMMODEL_DT_NUM> . 
<http://www.assero.co.uk/MDRSdtmUD/ACME/V1#D-ACME_QSDomain_V4> 			<http://www.assero.co.uk/BusinessDomain#classifiedAs> 			<http://www.assero.co.uk/MDRSdtmM/CDISC/V3#M-CDISC_SDTMMODEL_C_IDENTIFIER> . 
<http://www.assero.co.uk/MDRSdtmUD/ACME/V1#D-ACME_QSDomain_V4> 			<http://www.assero.co.uk/BusinessDomain#format> 			"" . 
<http://www.assero.co.uk/MDRSdtmUD/ACME/V1#D-ACME_QSDomain_V4> 			<http://www.assero.co.uk/BusinessDomain#non_standard> 			"false" . 
<http://www.assero.co.uk/MDRSdtmUD/ACME/V1#D-ACME_QSDomain_V4> 			<http://www.assero.co.uk/BusinessDomain#comment> 			"" . 
<http://www.assero.co.uk/MDRSdtmUD/ACME/V1#D-ACME_QSDomain_V4> 			<http://www.assero.co.uk/BusinessDomain#used> 			"true" . 
<http://www.assero.co.uk/MDRSdtmUD/ACME/V1#D-ACME_QSDomain_V4> 			<http://www.assero.co.uk/BusinessDomain#length> 			"0" . 
<http://www.assero.co.uk/MDRSdtmUD/ACME/V1#D-ACME_QSDomain_V4> 			<http://www.assero.co.uk/BusinessDomain#ct> 			"" . 
<http://www.assero.co.uk/MDRSdtmUD/ACME/V1#D-ACME_QSDomain_V4> 			<http://www.assero.co.uk/BusinessDomain#key_ordinal> 			"0" . 
<http://www.assero.co.uk/MDRSdtmUD/ACME/V1#D-ACME_QSDomain_V4_IGV1> 			<http://www.w3.org/1999/02/22-rdf-syntax-ns#type> 			<http://www.assero.co.uk/BusinessOperational#CReference> . 
<http://www.assero.co.uk/MDRSdtmUD/ACME/V1#D-ACME_QSDomain_V4_IGV1> 			<http://www.w3.org/2000/01/rdf-schema#label> 			"Based on Variable Reference" . 
<http://www.assero.co.uk/MDRSdtmUD/ACME/V1#D-ACME_QSDomain_V4_IGV1> 			<http://www.assero.co.uk/BusinessOperational#optional> 			"false" . 
<http://www.assero.co.uk/MDRSdtmUD/ACME/V1#D-ACME_QSDomain_V4_IGV1> 			<http://www.assero.co.uk/BusinessOperational#local_label> 			"" . 
<http://www.assero.co.uk/MDRSdtmUD/ACME/V1#D-ACME_QSDomain_V4_IGV1> 			<http://www.assero.co.uk/BusinessOperational#enabled> 			"true" . 
<http://www.assero.co.uk/MDRSdtmUD/ACME/V1#D-ACME_QSDomain_V4_IGV1> 			<http://www.assero.co.uk/BusinessOperational#ordinal> 			"1" . 
<http://www.assero.co.uk/MDRSdtmUD/ACME/V1#D-ACME_QSDomain_V4_IGV1> 			<http://www.assero.co.uk/BusinessOperational#hasColumn> 			<http://www.assero.co.uk/MDRSdtmIgD/CDISC/V3#IG-CDISC_SDTMIGQS_QSSEQ> . 
<http://www.assero.co.uk/MDRSdtmUD/ACME/V1#D-ACME_QSDomain_V5> 			<http://www.w3.org/1999/02/22-rdf-syntax-ns#type> 			<http://www.assero.co.uk/BusinessDomain#UserVariable> . 
<http://www.assero.co.uk/MDRSdtmUD/ACME/V1#D-ACME_QSDomain_V5> 			<http://www.w3.org/2000/01/rdf-schema#label> 			"Group ID" . 
<http://www.assero.co.uk/MDRSdtmUD/ACME/V1#D-ACME_QSDomain_V5> 			<http://www.assero.co.uk/BusinessDomain#ordinal> 			"5" . 
<http://www.assero.co.uk/MDRSdtmUD/ACME/V1#D-ACME_QSDomain_V5> 			<http://www.assero.co.uk/BusinessDomain#basedOnVariable> 			<http://www.assero.co.uk/MDRSdtmUD/ACME/V1#D-ACME_QSDomain_V5_IGV1> . 
<http://www.assero.co.uk/MDRSdtmUD/ACME/V1#D-ACME_QSDomain_V5> 			<http://www.assero.co.uk/BusinessDomain#notes> 			"" . 
<http://www.assero.co.uk/MDRSdtmUD/ACME/V1#D-ACME_QSDomain_V5> 			<http://www.assero.co.uk/BusinessDomain#name> 			"QSGRPID" . 
<http://www.assero.co.uk/MDRSdtmUD/ACME/V1#D-ACME_QSDomain_V5> 			<http://www.assero.co.uk/BusinessDomain#compliance> 			<http://www.assero.co.uk/MDRSdtmIgD/CDISC/V3#IG-CDISC_SDTMIGQS_C_PERMISSIBLE> . 
<http://www.assero.co.uk/MDRSdtmUD/ACME/V1#D-ACME_QSDomain_V5> 			<http://www.assero.co.uk/BusinessDomain#rule> 			"" . 
<http://www.assero.co.uk/MDRSdtmUD/ACME/V1#D-ACME_QSDomain_V5> 			<http://www.assero.co.uk/BusinessDomain#typedAs> 			<http://www.assero.co.uk/MDRSdtmM/CDISC/V3#M-CDISC_SDTMMODEL_DT_CHAR> . 
<http://www.assero.co.uk/MDRSdtmUD/ACME/V1#D-ACME_QSDomain_V5> 			<http://www.assero.co.uk/BusinessDomain#classifiedAs> 			<http://www.assero.co.uk/MDRSdtmM/CDISC/V3#M-CDISC_SDTMMODEL_C_IDENTIFIER> . 
<http://www.assero.co.uk/MDRSdtmUD/ACME/V1#D-ACME_QSDomain_V5> 			<http://www.assero.co.uk/BusinessDomain#format> 			"" . 
<http://www.assero.co.uk/MDRSdtmUD/ACME/V1#D-ACME_QSDomain_V5> 			<http://www.assero.co.uk/BusinessDomain#non_standard> 			"false" . 
<http://www.assero.co.uk/MDRSdtmUD/ACME/V1#D-ACME_QSDomain_V5> 			<http://www.assero.co.uk/BusinessDomain#comment> 			"" . 
<http://www.assero.co.uk/MDRSdtmUD/ACME/V1#D-ACME_QSDomain_V5> 			<http://www.assero.co.uk/BusinessDomain#used> 			"true" . 
<http://www.assero.co.uk/MDRSdtmUD/ACME/V1#D-ACME_QSDomain_V5> 			<http://www.assero.co.uk/BusinessDomain#length> 			"0" . 
<http://www.assero.co.uk/MDRSdtmUD/ACME/V1#D-ACME_QSDomain_V5> 			<http://www.assero.co.uk/BusinessDomain#ct> 			"" . 
<http://www.assero.co.uk/MDRSdtmUD/ACME/V1#D-ACME_QSDomain_V5> 			<http://www.assero.co.uk/BusinessDomain#key_ordinal> 			"0" . 
<http://www.assero.co.uk/MDRSdtmUD/ACME/V1#D-ACME_QSDomain_V5_IGV1> 			<http://www.w3.org/1999/02/22-rdf-syntax-ns#type> 			<http://www.assero.co.uk/BusinessOperational#CReference> . 
<http://www.assero.co.uk/MDRSdtmUD/ACME/V1#D-ACME_QSDomain_V5_IGV1> 			<http://www.w3.org/2000/01/rdf-schema#label> 			"Based on Variable Reference" . 
<http://www.assero.co.uk/MDRSdtmUD/ACME/V1#D-ACME_QSDomain_V5_IGV1> 			<http://www.assero.co.uk/BusinessOperational#optional> 			"false" . 
<http://www.assero.co.uk/MDRSdtmUD/ACME/V1#D-ACME_QSDomain_V5_IGV1> 			<http://www.assero.co.uk/BusinessOperational#local_label> 			"" . 
<http://www.assero.co.uk/MDRSdtmUD/ACME/V1#D-ACME_QSDomain_V5_IGV1> 			<http://www.assero.co.uk/BusinessOperational#enabled> 			"true" . 
<http://www.assero.co.uk/MDRSdtmUD/ACME/V1#D-ACME_QSDomain_V5_IGV1> 			<http://www.assero.co.uk/BusinessOperational#ordinal> 			"1" . 
<http://www.assero.co.uk/MDRSdtmUD/ACME/V1#D-ACME_QSDomain_V5_IGV1> 			<http://www.assero.co.uk/BusinessOperational#hasColumn> 			<http://www.assero.co.uk/MDRSdtmIgD/CDISC/V3#IG-CDISC_SDTMIGQS_QSGRPID> . 
<http://www.assero.co.uk/MDRSdtmUD/ACME/V1#D-ACME_QSDomain_V6> 			<http://www.w3.org/1999/02/22-rdf-syntax-ns#type> 			<http://www.assero.co.uk/BusinessDomain#UserVariable> . 
<http://www.assero.co.uk/MDRSdtmUD/ACME/V1#D-ACME_QSDomain_V6> 			<http://www.w3.org/2000/01/rdf-schema#label> 			"Sponsor-Defined Identifier" . 
<http://www.assero.co.uk/MDRSdtmUD/ACME/V1#D-ACME_QSDomain_V6> 			<http://www.assero.co.uk/BusinessDomain#ordinal> 			"6" . 
<http://www.assero.co.uk/MDRSdtmUD/ACME/V1#D-ACME_QSDomain_V6> 			<http://www.assero.co.uk/BusinessDomain#basedOnVariable> 			<http://www.assero.co.uk/MDRSdtmUD/ACME/V1#D-ACME_QSDomain_V6_IGV1> . 
<http://www.assero.co.uk/MDRSdtmUD/ACME/V1#D-ACME_QSDomain_V6> 			<http://www.assero.co.uk/BusinessDomain#notes> 			"" . 
<http://www.assero.co.uk/MDRSdtmUD/ACME/V1#D-ACME_QSDomain_V6> 			<http://www.assero.co.uk/BusinessDomain#name> 			"QSSPID" . 
<http://www.assero.co.uk/MDRSdtmUD/ACME/V1#D-ACME_QSDomain_V6> 			<http://www.assero.co.uk/BusinessDomain#compliance> 			<http://www.assero.co.uk/MDRSdtmIgD/CDISC/V3#IG-CDISC_SDTMIGQS_C_PERMISSIBLE> . 
<http://www.assero.co.uk/MDRSdtmUD/ACME/V1#D-ACME_QSDomain_V6> 			<http://www.assero.co.uk/BusinessDomain#rule> 			"" . 
<http://www.assero.co.uk/MDRSdtmUD/ACME/V1#D-ACME_QSDomain_V6> 			<http://www.assero.co.uk/BusinessDomain#typedAs> 			<http://www.assero.co.uk/MDRSdtmM/CDISC/V3#M-CDISC_SDTMMODEL_DT_CHAR> . 
<http://www.assero.co.uk/MDRSdtmUD/ACME/V1#D-ACME_QSDomain_V6> 			<http://www.assero.co.uk/BusinessDomain#classifiedAs> 			<http://www.assero.co.uk/MDRSdtmM/CDISC/V3#M-CDISC_SDTMMODEL_C_IDENTIFIER> . 
<http://www.assero.co.uk/MDRSdtmUD/ACME/V1#D-ACME_QSDomain_V6> 			<http://www.assero.co.uk/BusinessDomain#format> 			"" . 
<http://www.assero.co.uk/MDRSdtmUD/ACME/V1#D-ACME_QSDomain_V6> 			<http://www.assero.co.uk/BusinessDomain#non_standard> 			"false" . 
<http://www.assero.co.uk/MDRSdtmUD/ACME/V1#D-ACME_QSDomain_V6> 			<http://www.assero.co.uk/BusinessDomain#comment> 			"" . 
<http://www.assero.co.uk/MDRSdtmUD/ACME/V1#D-ACME_QSDomain_V6> 			<http://www.assero.co.uk/BusinessDomain#used> 			"true" . 
<http://www.assero.co.uk/MDRSdtmUD/ACME/V1#D-ACME_QSDomain_V6> 			<http://www.assero.co.uk/BusinessDomain#length> 			"0" . 
<http://www.assero.co.uk/MDRSdtmUD/ACME/V1#D-ACME_QSDomain_V6> 			<http://www.assero.co.uk/BusinessDomain#ct> 			"" . 
<http://www.assero.co.uk/MDRSdtmUD/ACME/V1#D-ACME_QSDomain_V6> 			<http://www.assero.co.uk/BusinessDomain#key_ordinal> 			"0" . 
<http://www.assero.co.uk/MDRSdtmUD/ACME/V1#D-ACME_QSDomain_V6_IGV1> 			<http://www.w3.org/1999/02/22-rdf-syntax-ns#type> 			<http://www.assero.co.uk/BusinessOperational#CReference> . 
<http://www.assero.co.uk/MDRSdtmUD/ACME/V1#D-ACME_QSDomain_V6_IGV1> 			<http://www.w3.org/2000/01/rdf-schema#label> 			"Based on Variable Reference" . 
<http://www.assero.co.uk/MDRSdtmUD/ACME/V1#D-ACME_QSDomain_V6_IGV1> 			<http://www.assero.co.uk/BusinessOperational#optional> 			"false" . 
<http://www.assero.co.uk/MDRSdtmUD/ACME/V1#D-ACME_QSDomain_V6_IGV1> 			<http://www.assero.co.uk/BusinessOperational#local_label> 			"" . 
<http://www.assero.co.uk/MDRSdtmUD/ACME/V1#D-ACME_QSDomain_V6_IGV1> 			<http://www.assero.co.uk/BusinessOperational#enabled> 			"true" . 
<http://www.assero.co.uk/MDRSdtmUD/ACME/V1#D-ACME_QSDomain_V6_IGV1> 			<http://www.assero.co.uk/BusinessOperational#ordinal> 			"1" . 
<http://www.assero.co.uk/MDRSdtmUD/ACME/V1#D-ACME_QSDomain_V6_IGV1> 			<http://www.assero.co.uk/BusinessOperational#hasColumn> 			<http://www.assero.co.uk/MDRSdtmIgD/CDISC/V3#IG-CDISC_SDTMIGQS_QSSPID> . 
<http://www.assero.co.uk/MDRSdtmUD/ACME/V1#D-ACME_QSDomain_V7> 			<http://www.w3.org/1999/02/22-rdf-syntax-ns#type> 			<http://www.assero.co.uk/BusinessDomain#UserVariable> . 
<http://www.assero.co.uk/MDRSdtmUD/ACME/V1#D-ACME_QSDomain_V7> 			<http://www.w3.org/2000/01/rdf-schema#label> 			"Question Short Name" . 
<http://www.assero.co.uk/MDRSdtmUD/ACME/V1#D-ACME_QSDomain_V7> 			<http://www.assero.co.uk/BusinessDomain#ordinal> 			"7" . 
<http://www.assero.co.uk/MDRSdtmUD/ACME/V1#D-ACME_QSDomain_V7> 			<http://www.assero.co.uk/BusinessDomain#basedOnVariable> 			<http://www.assero.co.uk/MDRSdtmUD/ACME/V1#D-ACME_QSDomain_V7_IGV1> . 
<http://www.assero.co.uk/MDRSdtmUD/ACME/V1#D-ACME_QSDomain_V7> 			<http://www.assero.co.uk/BusinessDomain#notes> 			"" . 
<http://www.assero.co.uk/MDRSdtmUD/ACME/V1#D-ACME_QSDomain_V7> 			<http://www.assero.co.uk/BusinessDomain#name> 			"QSTESTCD" . 
<http://www.assero.co.uk/MDRSdtmUD/ACME/V1#D-ACME_QSDomain_V7> 			<http://www.assero.co.uk/BusinessDomain#compliance> 			<http://www.assero.co.uk/MDRSdtmIgD/CDISC/V3#IG-CDISC_SDTMIGQS_C_REQUIRED> . 
<http://www.assero.co.uk/MDRSdtmUD/ACME/V1#D-ACME_QSDomain_V7> 			<http://www.assero.co.uk/BusinessDomain#rule> 			"" . 
<http://www.assero.co.uk/MDRSdtmUD/ACME/V1#D-ACME_QSDomain_V7> 			<http://www.assero.co.uk/BusinessDomain#typedAs> 			<http://www.assero.co.uk/MDRSdtmM/CDISC/V3#M-CDISC_SDTMMODEL_DT_CHAR> . 
<http://www.assero.co.uk/MDRSdtmUD/ACME/V1#D-ACME_QSDomain_V7> 			<http://www.assero.co.uk/BusinessDomain#classifiedAs> 			<http://www.assero.co.uk/MDRSdtmM/CDISC/V3#M-CDISC_SDTMMODEL_C_TOPIC> . 
<http://www.assero.co.uk/MDRSdtmUD/ACME/V1#D-ACME_QSDomain_V7> 			<http://www.assero.co.uk/BusinessDomain#format> 			"" . 
<http://www.assero.co.uk/MDRSdtmUD/ACME/V1#D-ACME_QSDomain_V7> 			<http://www.assero.co.uk/BusinessDomain#non_standard> 			"false" . 
<http://www.assero.co.uk/MDRSdtmUD/ACME/V1#D-ACME_QSDomain_V7> 			<http://www.assero.co.uk/BusinessDomain#comment> 			"" . 
<http://www.assero.co.uk/MDRSdtmUD/ACME/V1#D-ACME_QSDomain_V7> 			<http://www.assero.co.uk/BusinessDomain#hasProperty> 			<http://www.assero.co.uk/MDRSdtmUD/ACME/V1#D-ACME_QSDomain_V7_PR2> . 
<http://www.assero.co.uk/MDRSdtmUD/ACME/V1#D-ACME_QSDomain_V7> 			<http://www.assero.co.uk/BusinessDomain#hasProperty> 			<http://www.assero.co.uk/MDRSdtmUD/ACME/V1#D-ACME_QSDomain_V7_PR3> . 
<http://www.assero.co.uk/MDRSdtmUD/ACME/V1#D-ACME_QSDomain_V7> 			<http://www.assero.co.uk/BusinessDomain#hasProperty> 			<http://www.assero.co.uk/MDRSdtmUD/ACME/V1#D-ACME_QSDomain_V7_PR4> . 
<http://www.assero.co.uk/MDRSdtmUD/ACME/V1#D-ACME_QSDomain_V7> 			<http://www.assero.co.uk/BusinessDomain#hasProperty> 			<http://www.assero.co.uk/MDRSdtmUD/ACME/V1#D-ACME_QSDomain_V7_PR5> . 
<http://www.assero.co.uk/MDRSdtmUD/ACME/V1#D-ACME_QSDomain_V7> 			<http://www.assero.co.uk/BusinessDomain#hasProperty> 			<http://www.assero.co.uk/MDRSdtmUD/ACME/V1#D-ACME_QSDomain_V7_PR6> . 
<http://www.assero.co.uk/MDRSdtmUD/ACME/V1#D-ACME_QSDomain_V7> 			<http://www.assero.co.uk/BusinessDomain#hasProperty> 			<http://www.assero.co.uk/MDRSdtmUD/ACME/V1#D-ACME_QSDomain_V7_PR7> . 
<http://www.assero.co.uk/MDRSdtmUD/ACME/V1#D-ACME_QSDomain_V7> 			<http://www.assero.co.uk/BusinessDomain#used> 			"true" . 
<http://www.assero.co.uk/MDRSdtmUD/ACME/V1#D-ACME_QSDomain_V7> 			<http://www.assero.co.uk/BusinessDomain#length> 			"0" . 
<http://www.assero.co.uk/MDRSdtmUD/ACME/V1#D-ACME_QSDomain_V7> 			<http://www.assero.co.uk/BusinessDomain#ct> 			"QSTESTCD" . 
<http://www.assero.co.uk/MDRSdtmUD/ACME/V1#D-ACME_QSDomain_V7> 			<http://www.assero.co.uk/BusinessDomain#key_ordinal> 			"0" . 
<http://www.assero.co.uk/MDRSdtmUD/ACME/V1#D-ACME_QSDomain_V7_IGV1> 			<http://www.w3.org/1999/02/22-rdf-syntax-ns#type> 			<http://www.assero.co.uk/BusinessOperational#CReference> . 
<http://www.assero.co.uk/MDRSdtmUD/ACME/V1#D-ACME_QSDomain_V7_IGV1> 			<http://www.w3.org/2000/01/rdf-schema#label> 			"Based on Variable Reference" . 
<http://www.assero.co.uk/MDRSdtmUD/ACME/V1#D-ACME_QSDomain_V7_IGV1> 			<http://www.assero.co.uk/BusinessOperational#optional> 			"false" . 
<http://www.assero.co.uk/MDRSdtmUD/ACME/V1#D-ACME_QSDomain_V7_IGV1> 			<http://www.assero.co.uk/BusinessOperational#local_label> 			"" . 
<http://www.assero.co.uk/MDRSdtmUD/ACME/V1#D-ACME_QSDomain_V7_IGV1> 			<http://www.assero.co.uk/BusinessOperational#enabled> 			"true" . 
<http://www.assero.co.uk/MDRSdtmUD/ACME/V1#D-ACME_QSDomain_V7_IGV1> 			<http://www.assero.co.uk/BusinessOperational#ordinal> 			"1" . 
<http://www.assero.co.uk/MDRSdtmUD/ACME/V1#D-ACME_QSDomain_V7_IGV1> 			<http://www.assero.co.uk/BusinessOperational#hasColumn> 			<http://www.assero.co.uk/MDRSdtmIgD/CDISC/V3#IG-CDISC_SDTMIGQS_QSTESTCD> . 
<http://www.assero.co.uk/MDRSdtmUD/ACME/V1#D-ACME_QSDomain_V7_PR2> 			<http://www.w3.org/1999/02/22-rdf-syntax-ns#type> 			<http://www.assero.co.uk/BusinessOperational#PReference> . 
<http://www.assero.co.uk/MDRSdtmUD/ACME/V1#D-ACME_QSDomain_V7_PR2> 			<http://www.w3.org/2000/01/rdf-schema#label> 			"BC Property Reference" . 
<http://www.assero.co.uk/MDRSdtmUD/ACME/V1#D-ACME_QSDomain_V7_PR2> 			<http://www.assero.co.uk/BusinessOperational#optional> 			"false" . 
<http://www.assero.co.uk/MDRSdtmUD/ACME/V1#D-ACME_QSDomain_V7_PR2> 			<http://www.assero.co.uk/BusinessOperational#hasProperty> 			<http://www.assero.co.uk/MDRBCs/ACME/V1#BC-ACME_BCC100392_I3_DT1_P1> . 
<http://www.assero.co.uk/MDRSdtmUD/ACME/V1#D-ACME_QSDomain_V7_PR2> 			<http://www.assero.co.uk/BusinessOperational#local_label> 			"" . 
<http://www.assero.co.uk/MDRSdtmUD/ACME/V1#D-ACME_QSDomain_V7_PR2> 			<http://www.assero.co.uk/BusinessOperational#enabled> 			"true" . 
<http://www.assero.co.uk/MDRSdtmUD/ACME/V1#D-ACME_QSDomain_V7_PR2> 			<http://www.assero.co.uk/BusinessOperational#ordinal> 			"2" . 
<http://www.assero.co.uk/MDRSdtmUD/ACME/V1#D-ACME_QSDomain_V7_PR3> 			<http://www.w3.org/1999/02/22-rdf-syntax-ns#type> 			<http://www.assero.co.uk/BusinessOperational#PReference> . 
<http://www.assero.co.uk/MDRSdtmUD/ACME/V1#D-ACME_QSDomain_V7_PR3> 			<http://www.w3.org/2000/01/rdf-schema#label> 			"BC Property Reference" . 
<http://www.assero.co.uk/MDRSdtmUD/ACME/V1#D-ACME_QSDomain_V7_PR3> 			<http://www.assero.co.uk/BusinessOperational#optional> 			"false" . 
<http://www.assero.co.uk/MDRSdtmUD/ACME/V1#D-ACME_QSDomain_V7_PR3> 			<http://www.assero.co.uk/BusinessOperational#hasProperty> 			<http://www.assero.co.uk/MDRBCs/ACME/V1#BC-ACME_BCC100393_I3_DT1_P1> . 
<http://www.assero.co.uk/MDRSdtmUD/ACME/V1#D-ACME_QSDomain_V7_PR3> 			<http://www.assero.co.uk/BusinessOperational#local_label> 			"" . 
<http://www.assero.co.uk/MDRSdtmUD/ACME/V1#D-ACME_QSDomain_V7_PR3> 			<http://www.assero.co.uk/BusinessOperational#enabled> 			"true" . 
<http://www.assero.co.uk/MDRSdtmUD/ACME/V1#D-ACME_QSDomain_V7_PR3> 			<http://www.assero.co.uk/BusinessOperational#ordinal> 			"3" . 
<http://www.assero.co.uk/MDRSdtmUD/ACME/V1#D-ACME_QSDomain_V7_PR4> 			<http://www.w3.org/1999/02/22-rdf-syntax-ns#type> 			<http://www.assero.co.uk/BusinessOperational#PReference> . 
<http://www.assero.co.uk/MDRSdtmUD/ACME/V1#D-ACME_QSDomain_V7_PR4> 			<http://www.w3.org/2000/01/rdf-schema#label> 			"BC Property Reference" . 
<http://www.assero.co.uk/MDRSdtmUD/ACME/V1#D-ACME_QSDomain_V7_PR4> 			<http://www.assero.co.uk/BusinessOperational#optional> 			"false" . 
<http://www.assero.co.uk/MDRSdtmUD/ACME/V1#D-ACME_QSDomain_V7_PR4> 			<http://www.assero.co.uk/BusinessOperational#hasProperty> 			<http://www.assero.co.uk/MDRBCs/ACME/V1#BC-ACME_BCC100394_I3_DT1_P1> . 
<http://www.assero.co.uk/MDRSdtmUD/ACME/V1#D-ACME_QSDomain_V7_PR4> 			<http://www.assero.co.uk/BusinessOperational#local_label> 			"" . 
<http://www.assero.co.uk/MDRSdtmUD/ACME/V1#D-ACME_QSDomain_V7_PR4> 			<http://www.assero.co.uk/BusinessOperational#enabled> 			"true" . 
<http://www.assero.co.uk/MDRSdtmUD/ACME/V1#D-ACME_QSDomain_V7_PR4> 			<http://www.assero.co.uk/BusinessOperational#ordinal> 			"4" . 
<http://www.assero.co.uk/MDRSdtmUD/ACME/V1#D-ACME_QSDomain_V7_PR5> 			<http://www.w3.org/1999/02/22-rdf-syntax-ns#type> 			<http://www.assero.co.uk/BusinessOperational#PReference> . 
<http://www.assero.co.uk/MDRSdtmUD/ACME/V1#D-ACME_QSDomain_V7_PR5> 			<http://www.w3.org/2000/01/rdf-schema#label> 			"BC Property Reference" . 
<http://www.assero.co.uk/MDRSdtmUD/ACME/V1#D-ACME_QSDomain_V7_PR5> 			<http://www.assero.co.uk/BusinessOperational#optional> 			"false" . 
<http://www.assero.co.uk/MDRSdtmUD/ACME/V1#D-ACME_QSDomain_V7_PR5> 			<http://www.assero.co.uk/BusinessOperational#hasProperty> 			<http://www.assero.co.uk/MDRBCs/ACME/V1#BC-ACME_BCC100395_I3_DT1_P1> . 
<http://www.assero.co.uk/MDRSdtmUD/ACME/V1#D-ACME_QSDomain_V7_PR5> 			<http://www.assero.co.uk/BusinessOperational#local_label> 			"" . 
<http://www.assero.co.uk/MDRSdtmUD/ACME/V1#D-ACME_QSDomain_V7_PR5> 			<http://www.assero.co.uk/BusinessOperational#enabled> 			"true" . 
<http://www.assero.co.uk/MDRSdtmUD/ACME/V1#D-ACME_QSDomain_V7_PR5> 			<http://www.assero.co.uk/BusinessOperational#ordinal> 			"5" . 
<http://www.assero.co.uk/MDRSdtmUD/ACME/V1#D-ACME_QSDomain_V7_PR6> 			<http://www.w3.org/1999/02/22-rdf-syntax-ns#type> 			<http://www.assero.co.uk/BusinessOperational#PReference> . 
<http://www.assero.co.uk/MDRSdtmUD/ACME/V1#D-ACME_QSDomain_V7_PR6> 			<http://www.w3.org/2000/01/rdf-schema#label> 			"BC Property Reference" . 
<http://www.assero.co.uk/MDRSdtmUD/ACME/V1#D-ACME_QSDomain_V7_PR6> 			<http://www.assero.co.uk/BusinessOperational#optional> 			"false" . 
<http://www.assero.co.uk/MDRSdtmUD/ACME/V1#D-ACME_QSDomain_V7_PR6> 			<http://www.assero.co.uk/BusinessOperational#hasProperty> 			<http://www.assero.co.uk/MDRBCs/ACME/V1#BC-ACME_BCC100396_I3_DT1_P1> . 
<http://www.assero.co.uk/MDRSdtmUD/ACME/V1#D-ACME_QSDomain_V7_PR6> 			<http://www.assero.co.uk/BusinessOperational#local_label> 			"" . 
<http://www.assero.co.uk/MDRSdtmUD/ACME/V1#D-ACME_QSDomain_V7_PR6> 			<http://www.assero.co.uk/BusinessOperational#enabled> 			"true" . 
<http://www.assero.co.uk/MDRSdtmUD/ACME/V1#D-ACME_QSDomain_V7_PR6> 			<http://www.assero.co.uk/BusinessOperational#ordinal> 			"6" . 
<http://www.assero.co.uk/MDRSdtmUD/ACME/V1#D-ACME_QSDomain_V7_PR7> 			<http://www.w3.org/1999/02/22-rdf-syntax-ns#type> 			<http://www.assero.co.uk/BusinessOperational#PReference> . 
<http://www.assero.co.uk/MDRSdtmUD/ACME/V1#D-ACME_QSDomain_V7_PR7> 			<http://www.w3.org/2000/01/rdf-schema#label> 			"BC Property Reference" . 
<http://www.assero.co.uk/MDRSdtmUD/ACME/V1#D-ACME_QSDomain_V7_PR7> 			<http://www.assero.co.uk/BusinessOperational#optional> 			"false" . 
<http://www.assero.co.uk/MDRSdtmUD/ACME/V1#D-ACME_QSDomain_V7_PR7> 			<http://www.assero.co.uk/BusinessOperational#hasProperty> 			<http://www.assero.co.uk/MDRBCs/ACME/V1#BC-ACME_BCC100397_I3_DT1_P1> . 
<http://www.assero.co.uk/MDRSdtmUD/ACME/V1#D-ACME_QSDomain_V7_PR7> 			<http://www.assero.co.uk/BusinessOperational#local_label> 			"" . 
<http://www.assero.co.uk/MDRSdtmUD/ACME/V1#D-ACME_QSDomain_V7_PR7> 			<http://www.assero.co.uk/BusinessOperational#enabled> 			"true" . 
<http://www.assero.co.uk/MDRSdtmUD/ACME/V1#D-ACME_QSDomain_V7_PR7> 			<http://www.assero.co.uk/BusinessOperational#ordinal> 			"7" . 
<http://www.assero.co.uk/MDRSdtmUD/ACME/V1#D-ACME_QSDomain_V8> 			<http://www.w3.org/1999/02/22-rdf-syntax-ns#type> 			<http://www.assero.co.uk/BusinessDomain#UserVariable> . 
<http://www.assero.co.uk/MDRSdtmUD/ACME/V1#D-ACME_QSDomain_V8> 			<http://www.w3.org/2000/01/rdf-schema#label> 			"Question Name" . 
<http://www.assero.co.uk/MDRSdtmUD/ACME/V1#D-ACME_QSDomain_V8> 			<http://www.assero.co.uk/BusinessDomain#ordinal> 			"8" . 
<http://www.assero.co.uk/MDRSdtmUD/ACME/V1#D-ACME_QSDomain_V8> 			<http://www.assero.co.uk/BusinessDomain#basedOnVariable> 			<http://www.assero.co.uk/MDRSdtmUD/ACME/V1#D-ACME_QSDomain_V8_IGV1> . 
<http://www.assero.co.uk/MDRSdtmUD/ACME/V1#D-ACME_QSDomain_V8> 			<http://www.assero.co.uk/BusinessDomain#notes> 			"" . 
<http://www.assero.co.uk/MDRSdtmUD/ACME/V1#D-ACME_QSDomain_V8> 			<http://www.assero.co.uk/BusinessDomain#name> 			"QSTEST" . 
<http://www.assero.co.uk/MDRSdtmUD/ACME/V1#D-ACME_QSDomain_V8> 			<http://www.assero.co.uk/BusinessDomain#compliance> 			<http://www.assero.co.uk/MDRSdtmIgD/CDISC/V3#IG-CDISC_SDTMIGQS_C_REQUIRED> . 
<http://www.assero.co.uk/MDRSdtmUD/ACME/V1#D-ACME_QSDomain_V8> 			<http://www.assero.co.uk/BusinessDomain#rule> 			"" . 
<http://www.assero.co.uk/MDRSdtmUD/ACME/V1#D-ACME_QSDomain_V8> 			<http://www.assero.co.uk/BusinessDomain#typedAs> 			<http://www.assero.co.uk/MDRSdtmM/CDISC/V3#M-CDISC_SDTMMODEL_DT_CHAR> . 
<http://www.assero.co.uk/MDRSdtmUD/ACME/V1#D-ACME_QSDomain_V8> 			<http://www.assero.co.uk/BusinessDomain#classifiedAs> 			<http://www.assero.co.uk/MDRSdtmM/CDISC/V3#M-CDISC_SDTMMODEL_SC_SYNONYMQUALIFIER> . 
<http://www.assero.co.uk/MDRSdtmUD/ACME/V1#D-ACME_QSDomain_V8> 			<http://www.assero.co.uk/BusinessDomain#format> 			"" . 
<http://www.assero.co.uk/MDRSdtmUD/ACME/V1#D-ACME_QSDomain_V8> 			<http://www.assero.co.uk/BusinessDomain#non_standard> 			"false" . 
<http://www.assero.co.uk/MDRSdtmUD/ACME/V1#D-ACME_QSDomain_V8> 			<http://www.assero.co.uk/BusinessDomain#comment> 			"" . 
<http://www.assero.co.uk/MDRSdtmUD/ACME/V1#D-ACME_QSDomain_V8> 			<http://www.assero.co.uk/BusinessDomain#hasProperty> 			<http://www.assero.co.uk/MDRSdtmUD/ACME/V1#D-ACME_QSDomain_V8_PR2> . 
<http://www.assero.co.uk/MDRSdtmUD/ACME/V1#D-ACME_QSDomain_V8> 			<http://www.assero.co.uk/BusinessDomain#hasProperty> 			<http://www.assero.co.uk/MDRSdtmUD/ACME/V1#D-ACME_QSDomain_V8_PR3> . 
<http://www.assero.co.uk/MDRSdtmUD/ACME/V1#D-ACME_QSDomain_V8> 			<http://www.assero.co.uk/BusinessDomain#hasProperty> 			<http://www.assero.co.uk/MDRSdtmUD/ACME/V1#D-ACME_QSDomain_V8_PR4> . 
<http://www.assero.co.uk/MDRSdtmUD/ACME/V1#D-ACME_QSDomain_V8> 			<http://www.assero.co.uk/BusinessDomain#hasProperty> 			<http://www.assero.co.uk/MDRSdtmUD/ACME/V1#D-ACME_QSDomain_V8_PR5> . 
<http://www.assero.co.uk/MDRSdtmUD/ACME/V1#D-ACME_QSDomain_V8> 			<http://www.assero.co.uk/BusinessDomain#hasProperty> 			<http://www.assero.co.uk/MDRSdtmUD/ACME/V1#D-ACME_QSDomain_V8_PR6> . 
<http://www.assero.co.uk/MDRSdtmUD/ACME/V1#D-ACME_QSDomain_V8> 			<http://www.assero.co.uk/BusinessDomain#hasProperty> 			<http://www.assero.co.uk/MDRSdtmUD/ACME/V1#D-ACME_QSDomain_V8_PR7> . 
<http://www.assero.co.uk/MDRSdtmUD/ACME/V1#D-ACME_QSDomain_V8> 			<http://www.assero.co.uk/BusinessDomain#used> 			"true" . 
<http://www.assero.co.uk/MDRSdtmUD/ACME/V1#D-ACME_QSDomain_V8> 			<http://www.assero.co.uk/BusinessDomain#length> 			"0" . 
<http://www.assero.co.uk/MDRSdtmUD/ACME/V1#D-ACME_QSDomain_V8> 			<http://www.assero.co.uk/BusinessDomain#ct> 			"QSTEST" . 
<http://www.assero.co.uk/MDRSdtmUD/ACME/V1#D-ACME_QSDomain_V8> 			<http://www.assero.co.uk/BusinessDomain#key_ordinal> 			"0" . 
<http://www.assero.co.uk/MDRSdtmUD/ACME/V1#D-ACME_QSDomain_V8_IGV1> 			<http://www.w3.org/1999/02/22-rdf-syntax-ns#type> 			<http://www.assero.co.uk/BusinessOperational#CReference> . 
<http://www.assero.co.uk/MDRSdtmUD/ACME/V1#D-ACME_QSDomain_V8_IGV1> 			<http://www.w3.org/2000/01/rdf-schema#label> 			"Based on Variable Reference" . 
<http://www.assero.co.uk/MDRSdtmUD/ACME/V1#D-ACME_QSDomain_V8_IGV1> 			<http://www.assero.co.uk/BusinessOperational#optional> 			"false" . 
<http://www.assero.co.uk/MDRSdtmUD/ACME/V1#D-ACME_QSDomain_V8_IGV1> 			<http://www.assero.co.uk/BusinessOperational#local_label> 			"" . 
<http://www.assero.co.uk/MDRSdtmUD/ACME/V1#D-ACME_QSDomain_V8_IGV1> 			<http://www.assero.co.uk/BusinessOperational#enabled> 			"true" . 
<http://www.assero.co.uk/MDRSdtmUD/ACME/V1#D-ACME_QSDomain_V8_IGV1> 			<http://www.assero.co.uk/BusinessOperational#ordinal> 			"1" . 
<http://www.assero.co.uk/MDRSdtmUD/ACME/V1#D-ACME_QSDomain_V8_IGV1> 			<http://www.assero.co.uk/BusinessOperational#hasColumn> 			<http://www.assero.co.uk/MDRSdtmIgD/CDISC/V3#IG-CDISC_SDTMIGQS_QSTEST> . 
<http://www.assero.co.uk/MDRSdtmUD/ACME/V1#D-ACME_QSDomain_V8_PR2> 			<http://www.w3.org/1999/02/22-rdf-syntax-ns#type> 			<http://www.assero.co.uk/BusinessOperational#PReference> . 
<http://www.assero.co.uk/MDRSdtmUD/ACME/V1#D-ACME_QSDomain_V8_PR2> 			<http://www.w3.org/2000/01/rdf-schema#label> 			"BC Property Reference" . 
<http://www.assero.co.uk/MDRSdtmUD/ACME/V1#D-ACME_QSDomain_V8_PR2> 			<http://www.assero.co.uk/BusinessOperational#optional> 			"false" . 
<http://www.assero.co.uk/MDRSdtmUD/ACME/V1#D-ACME_QSDomain_V8_PR2> 			<http://www.assero.co.uk/BusinessOperational#hasProperty> 			<http://www.assero.co.uk/MDRBCs/ACME/V1#BC-ACME_BCC100392_I3_DT1_P2_DT1_P1> . 
<http://www.assero.co.uk/MDRSdtmUD/ACME/V1#D-ACME_QSDomain_V8_PR2> 			<http://www.assero.co.uk/BusinessOperational#local_label> 			"" . 
<http://www.assero.co.uk/MDRSdtmUD/ACME/V1#D-ACME_QSDomain_V8_PR2> 			<http://www.assero.co.uk/BusinessOperational#enabled> 			"true" . 
<http://www.assero.co.uk/MDRSdtmUD/ACME/V1#D-ACME_QSDomain_V8_PR2> 			<http://www.assero.co.uk/BusinessOperational#ordinal> 			"2" . 
<http://www.assero.co.uk/MDRSdtmUD/ACME/V1#D-ACME_QSDomain_V8_PR3> 			<http://www.w3.org/1999/02/22-rdf-syntax-ns#type> 			<http://www.assero.co.uk/BusinessOperational#PReference> . 
<http://www.assero.co.uk/MDRSdtmUD/ACME/V1#D-ACME_QSDomain_V8_PR3> 			<http://www.w3.org/2000/01/rdf-schema#label> 			"BC Property Reference" . 
<http://www.assero.co.uk/MDRSdtmUD/ACME/V1#D-ACME_QSDomain_V8_PR3> 			<http://www.assero.co.uk/BusinessOperational#optional> 			"false" . 
<http://www.assero.co.uk/MDRSdtmUD/ACME/V1#D-ACME_QSDomain_V8_PR3> 			<http://www.assero.co.uk/BusinessOperational#hasProperty> 			<http://www.assero.co.uk/MDRBCs/ACME/V1#BC-ACME_BCC100393_I3_DT1_P2_DT1_P1> . 
<http://www.assero.co.uk/MDRSdtmUD/ACME/V1#D-ACME_QSDomain_V8_PR3> 			<http://www.assero.co.uk/BusinessOperational#local_label> 			"" . 
<http://www.assero.co.uk/MDRSdtmUD/ACME/V1#D-ACME_QSDomain_V8_PR3> 			<http://www.assero.co.uk/BusinessOperational#enabled> 			"true" . 
<http://www.assero.co.uk/MDRSdtmUD/ACME/V1#D-ACME_QSDomain_V8_PR3> 			<http://www.assero.co.uk/BusinessOperational#ordinal> 			"3" . 
<http://www.assero.co.uk/MDRSdtmUD/ACME/V1#D-ACME_QSDomain_V8_PR4> 			<http://www.w3.org/1999/02/22-rdf-syntax-ns#type> 			<http://www.assero.co.uk/BusinessOperational#PReference> . 
<http://www.assero.co.uk/MDRSdtmUD/ACME/V1#D-ACME_QSDomain_V8_PR4> 			<http://www.w3.org/2000/01/rdf-schema#label> 			"BC Property Reference" . 
<http://www.assero.co.uk/MDRSdtmUD/ACME/V1#D-ACME_QSDomain_V8_PR4> 			<http://www.assero.co.uk/BusinessOperational#optional> 			"false" . 
<http://www.assero.co.uk/MDRSdtmUD/ACME/V1#D-ACME_QSDomain_V8_PR4> 			<http://www.assero.co.uk/BusinessOperational#hasProperty> 			<http://www.assero.co.uk/MDRBCs/ACME/V1#BC-ACME_BCC100394_I3_DT1_P2_DT1_P1> . 
<http://www.assero.co.uk/MDRSdtmUD/ACME/V1#D-ACME_QSDomain_V8_PR4> 			<http://www.assero.co.uk/BusinessOperational#local_label> 			"" . 
<http://www.assero.co.uk/MDRSdtmUD/ACME/V1#D-ACME_QSDomain_V8_PR4> 			<http://www.assero.co.uk/BusinessOperational#enabled> 			"true" . 
<http://www.assero.co.uk/MDRSdtmUD/ACME/V1#D-ACME_QSDomain_V8_PR4> 			<http://www.assero.co.uk/BusinessOperational#ordinal> 			"4" . 
<http://www.assero.co.uk/MDRSdtmUD/ACME/V1#D-ACME_QSDomain_V8_PR5> 			<http://www.w3.org/1999/02/22-rdf-syntax-ns#type> 			<http://www.assero.co.uk/BusinessOperational#PReference> . 
<http://www.assero.co.uk/MDRSdtmUD/ACME/V1#D-ACME_QSDomain_V8_PR5> 			<http://www.w3.org/2000/01/rdf-schema#label> 			"BC Property Reference" . 
<http://www.assero.co.uk/MDRSdtmUD/ACME/V1#D-ACME_QSDomain_V8_PR5> 			<http://www.assero.co.uk/BusinessOperational#optional> 			"false" . 
<http://www.assero.co.uk/MDRSdtmUD/ACME/V1#D-ACME_QSDomain_V8_PR5> 			<http://www.assero.co.uk/BusinessOperational#hasProperty> 			<http://www.assero.co.uk/MDRBCs/ACME/V1#BC-ACME_BCC100395_I3_DT1_P2_DT1_P1> . 
<http://www.assero.co.uk/MDRSdtmUD/ACME/V1#D-ACME_QSDomain_V8_PR5> 			<http://www.assero.co.uk/BusinessOperational#local_label> 			"" . 
<http://www.assero.co.uk/MDRSdtmUD/ACME/V1#D-ACME_QSDomain_V8_PR5> 			<http://www.assero.co.uk/BusinessOperational#enabled> 			"true" . 
<http://www.assero.co.uk/MDRSdtmUD/ACME/V1#D-ACME_QSDomain_V8_PR5> 			<http://www.assero.co.uk/BusinessOperational#ordinal> 			"5" . 
<http://www.assero.co.uk/MDRSdtmUD/ACME/V1#D-ACME_QSDomain_V8_PR6> 			<http://www.w3.org/1999/02/22-rdf-syntax-ns#type> 			<http://www.assero.co.uk/BusinessOperational#PReference> . 
<http://www.assero.co.uk/MDRSdtmUD/ACME/V1#D-ACME_QSDomain_V8_PR6> 			<http://www.w3.org/2000/01/rdf-schema#label> 			"BC Property Reference" . 
<http://www.assero.co.uk/MDRSdtmUD/ACME/V1#D-ACME_QSDomain_V8_PR6> 			<http://www.assero.co.uk/BusinessOperational#optional> 			"false" . 
<http://www.assero.co.uk/MDRSdtmUD/ACME/V1#D-ACME_QSDomain_V8_PR6> 			<http://www.assero.co.uk/BusinessOperational#hasProperty> 			<http://www.assero.co.uk/MDRBCs/ACME/V1#BC-ACME_BCC100396_I3_DT1_P2_DT1_P1> . 
<http://www.assero.co.uk/MDRSdtmUD/ACME/V1#D-ACME_QSDomain_V8_PR6> 			<http://www.assero.co.uk/BusinessOperational#local_label> 			"" . 
<http://www.assero.co.uk/MDRSdtmUD/ACME/V1#D-ACME_QSDomain_V8_PR6> 			<http://www.assero.co.uk/BusinessOperational#enabled> 			"true" . 
<http://www.assero.co.uk/MDRSdtmUD/ACME/V1#D-ACME_QSDomain_V8_PR6> 			<http://www.assero.co.uk/BusinessOperational#ordinal> 			"6" . 
<http://www.assero.co.uk/MDRSdtmUD/ACME/V1#D-ACME_QSDomain_V8_PR7> 			<http://www.w3.org/1999/02/22-rdf-syntax-ns#type> 			<http://www.assero.co.uk/BusinessOperational#PReference> . 
<http://www.assero.co.uk/MDRSdtmUD/ACME/V1#D-ACME_QSDomain_V8_PR7> 			<http://www.w3.org/2000/01/rdf-schema#label> 			"BC Property Reference" . 
<http://www.assero.co.uk/MDRSdtmUD/ACME/V1#D-ACME_QSDomain_V8_PR7> 			<http://www.assero.co.uk/BusinessOperational#optional> 			"false" . 
<http://www.assero.co.uk/MDRSdtmUD/ACME/V1#D-ACME_QSDomain_V8_PR7> 			<http://www.assero.co.uk/BusinessOperational#hasProperty> 			<http://www.assero.co.uk/MDRBCs/ACME/V1#BC-ACME_BCC100397_I3_DT1_P2_DT1_P1> . 
<http://www.assero.co.uk/MDRSdtmUD/ACME/V1#D-ACME_QSDomain_V8_PR7> 			<http://www.assero.co.uk/BusinessOperational#local_label> 			"" . 
<http://www.assero.co.uk/MDRSdtmUD/ACME/V1#D-ACME_QSDomain_V8_PR7> 			<http://www.assero.co.uk/BusinessOperational#enabled> 			"true" . 
<http://www.assero.co.uk/MDRSdtmUD/ACME/V1#D-ACME_QSDomain_V8_PR7> 			<http://www.assero.co.uk/BusinessOperational#ordinal> 			"7" . 
<http://www.assero.co.uk/MDRSdtmUD/ACME/V1#D-ACME_QSDomain_V9> 			<http://www.w3.org/1999/02/22-rdf-syntax-ns#type> 			<http://www.assero.co.uk/BusinessDomain#UserVariable> . 
<http://www.assero.co.uk/MDRSdtmUD/ACME/V1#D-ACME_QSDomain_V9> 			<http://www.w3.org/2000/01/rdf-schema#label> 			"Category of Question" . 
<http://www.assero.co.uk/MDRSdtmUD/ACME/V1#D-ACME_QSDomain_V9> 			<http://www.assero.co.uk/BusinessDomain#ordinal> 			"9" . 
<http://www.assero.co.uk/MDRSdtmUD/ACME/V1#D-ACME_QSDomain_V9> 			<http://www.assero.co.uk/BusinessDomain#basedOnVariable> 			<http://www.assero.co.uk/MDRSdtmUD/ACME/V1#D-ACME_QSDomain_V9_IGV1> . 
<http://www.assero.co.uk/MDRSdtmUD/ACME/V1#D-ACME_QSDomain_V9> 			<http://www.assero.co.uk/BusinessDomain#notes> 			"" . 
<http://www.assero.co.uk/MDRSdtmUD/ACME/V1#D-ACME_QSDomain_V9> 			<http://www.assero.co.uk/BusinessDomain#name> 			"QSCAT" . 
<http://www.assero.co.uk/MDRSdtmUD/ACME/V1#D-ACME_QSDomain_V9> 			<http://www.assero.co.uk/BusinessDomain#compliance> 			<http://www.assero.co.uk/MDRSdtmIgD/CDISC/V3#IG-CDISC_SDTMIGQS_C_REQUIRED> . 
<http://www.assero.co.uk/MDRSdtmUD/ACME/V1#D-ACME_QSDomain_V9> 			<http://www.assero.co.uk/BusinessDomain#rule> 			"" . 
<http://www.assero.co.uk/MDRSdtmUD/ACME/V1#D-ACME_QSDomain_V9> 			<http://www.assero.co.uk/BusinessDomain#typedAs> 			<http://www.assero.co.uk/MDRSdtmM/CDISC/V3#M-CDISC_SDTMMODEL_DT_CHAR> . 
<http://www.assero.co.uk/MDRSdtmUD/ACME/V1#D-ACME_QSDomain_V9> 			<http://www.assero.co.uk/BusinessDomain#classifiedAs> 			<http://www.assero.co.uk/MDRSdtmM/CDISC/V3#M-CDISC_SDTMMODEL_SC_GROUPINGQUALIFIER> . 
<http://www.assero.co.uk/MDRSdtmUD/ACME/V1#D-ACME_QSDomain_V9> 			<http://www.assero.co.uk/BusinessDomain#format> 			"" . 
<http://www.assero.co.uk/MDRSdtmUD/ACME/V1#D-ACME_QSDomain_V9> 			<http://www.assero.co.uk/BusinessDomain#non_standard> 			"false" . 
<http://www.assero.co.uk/MDRSdtmUD/ACME/V1#D-ACME_QSDomain_V9> 			<http://www.assero.co.uk/BusinessDomain#comment> 			"" . 
<http://www.assero.co.uk/MDRSdtmUD/ACME/V1#D-ACME_QSDomain_V9> 			<http://www.assero.co.uk/BusinessDomain#used> 			"true" . 
<http://www.assero.co.uk/MDRSdtmUD/ACME/V1#D-ACME_QSDomain_V9> 			<http://www.assero.co.uk/BusinessDomain#length> 			"0" . 
<http://www.assero.co.uk/MDRSdtmUD/ACME/V1#D-ACME_QSDomain_V9> 			<http://www.assero.co.uk/BusinessDomain#ct> 			"QSCAT" . 
<http://www.assero.co.uk/MDRSdtmUD/ACME/V1#D-ACME_QSDomain_V9> 			<http://www.assero.co.uk/BusinessDomain#key_ordinal> 			"0" . 
<http://www.assero.co.uk/MDRSdtmUD/ACME/V1#D-ACME_QSDomain_V9_IGV1> 			<http://www.w3.org/1999/02/22-rdf-syntax-ns#type> 			<http://www.assero.co.uk/BusinessOperational#CReference> . 
<http://www.assero.co.uk/MDRSdtmUD/ACME/V1#D-ACME_QSDomain_V9_IGV1> 			<http://www.w3.org/2000/01/rdf-schema#label> 			"Based on Variable Reference" . 
<http://www.assero.co.uk/MDRSdtmUD/ACME/V1#D-ACME_QSDomain_V9_IGV1> 			<http://www.assero.co.uk/BusinessOperational#optional> 			"false" . 
<http://www.assero.co.uk/MDRSdtmUD/ACME/V1#D-ACME_QSDomain_V9_IGV1> 			<http://www.assero.co.uk/BusinessOperational#local_label> 			"" . 
<http://www.assero.co.uk/MDRSdtmUD/ACME/V1#D-ACME_QSDomain_V9_IGV1> 			<http://www.assero.co.uk/BusinessOperational#enabled> 			"true" . 
<http://www.assero.co.uk/MDRSdtmUD/ACME/V1#D-ACME_QSDomain_V9_IGV1> 			<http://www.assero.co.uk/BusinessOperational#ordinal> 			"1" . 
<http://www.assero.co.uk/MDRSdtmUD/ACME/V1#D-ACME_QSDomain_V9_IGV1> 			<http://www.assero.co.uk/BusinessOperational#hasColumn> 			<http://www.assero.co.uk/MDRSdtmIgD/CDISC/V3#IG-CDISC_SDTMIGQS_QSCAT> . 
<http://www.assero.co.uk/MDRSdtmUD/ACME/V1#D-ACME_QSDomain_V10> 			<http://www.w3.org/1999/02/22-rdf-syntax-ns#type> 			<http://www.assero.co.uk/BusinessDomain#UserVariable> . 
<http://www.assero.co.uk/MDRSdtmUD/ACME/V1#D-ACME_QSDomain_V10> 			<http://www.w3.org/2000/01/rdf-schema#label> 			"Subcategory for Question" . 
<http://www.assero.co.uk/MDRSdtmUD/ACME/V1#D-ACME_QSDomain_V10> 			<http://www.assero.co.uk/BusinessDomain#ordinal> 			"10" . 
<http://www.assero.co.uk/MDRSdtmUD/ACME/V1#D-ACME_QSDomain_V10> 			<http://www.assero.co.uk/BusinessDomain#basedOnVariable> 			<http://www.assero.co.uk/MDRSdtmUD/ACME/V1#D-ACME_QSDomain_V10_IGV1> . 
<http://www.assero.co.uk/MDRSdtmUD/ACME/V1#D-ACME_QSDomain_V10> 			<http://www.assero.co.uk/BusinessDomain#notes> 			"" . 
<http://www.assero.co.uk/MDRSdtmUD/ACME/V1#D-ACME_QSDomain_V10> 			<http://www.assero.co.uk/BusinessDomain#name> 			"QSSCAT" . 
<http://www.assero.co.uk/MDRSdtmUD/ACME/V1#D-ACME_QSDomain_V10> 			<http://www.assero.co.uk/BusinessDomain#compliance> 			<http://www.assero.co.uk/MDRSdtmIgD/CDISC/V3#IG-CDISC_SDTMIGQS_C_PERMISSIBLE> . 
<http://www.assero.co.uk/MDRSdtmUD/ACME/V1#D-ACME_QSDomain_V10> 			<http://www.assero.co.uk/BusinessDomain#rule> 			"" . 
<http://www.assero.co.uk/MDRSdtmUD/ACME/V1#D-ACME_QSDomain_V10> 			<http://www.assero.co.uk/BusinessDomain#typedAs> 			<http://www.assero.co.uk/MDRSdtmM/CDISC/V3#M-CDISC_SDTMMODEL_DT_CHAR> . 
<http://www.assero.co.uk/MDRSdtmUD/ACME/V1#D-ACME_QSDomain_V10> 			<http://www.assero.co.uk/BusinessDomain#classifiedAs> 			<http://www.assero.co.uk/MDRSdtmM/CDISC/V3#M-CDISC_SDTMMODEL_SC_GROUPINGQUALIFIER> . 
<http://www.assero.co.uk/MDRSdtmUD/ACME/V1#D-ACME_QSDomain_V10> 			<http://www.assero.co.uk/BusinessDomain#format> 			"" . 
<http://www.assero.co.uk/MDRSdtmUD/ACME/V1#D-ACME_QSDomain_V10> 			<http://www.assero.co.uk/BusinessDomain#non_standard> 			"false" . 
<http://www.assero.co.uk/MDRSdtmUD/ACME/V1#D-ACME_QSDomain_V10> 			<http://www.assero.co.uk/BusinessDomain#comment> 			"" . 
<http://www.assero.co.uk/MDRSdtmUD/ACME/V1#D-ACME_QSDomain_V10> 			<http://www.assero.co.uk/BusinessDomain#used> 			"true" . 
<http://www.assero.co.uk/MDRSdtmUD/ACME/V1#D-ACME_QSDomain_V10> 			<http://www.assero.co.uk/BusinessDomain#length> 			"0" . 
<http://www.assero.co.uk/MDRSdtmUD/ACME/V1#D-ACME_QSDomain_V10> 			<http://www.assero.co.uk/BusinessDomain#ct> 			"" . 
<http://www.assero.co.uk/MDRSdtmUD/ACME/V1#D-ACME_QSDomain_V10> 			<http://www.assero.co.uk/BusinessDomain#key_ordinal> 			"0" . 
<http://www.assero.co.uk/MDRSdtmUD/ACME/V1#D-ACME_QSDomain_V10_IGV1> 			<http://www.w3.org/1999/02/22-rdf-syntax-ns#type> 			<http://www.assero.co.uk/BusinessOperational#CReference> . 
<http://www.assero.co.uk/MDRSdtmUD/ACME/V1#D-ACME_QSDomain_V10_IGV1> 			<http://www.w3.org/2000/01/rdf-schema#label> 			"Based on Variable Reference" . 
<http://www.assero.co.uk/MDRSdtmUD/ACME/V1#D-ACME_QSDomain_V10_IGV1> 			<http://www.assero.co.uk/BusinessOperational#optional> 			"false" . 
<http://www.assero.co.uk/MDRSdtmUD/ACME/V1#D-ACME_QSDomain_V10_IGV1> 			<http://www.assero.co.uk/BusinessOperational#local_label> 			"" . 
<http://www.assero.co.uk/MDRSdtmUD/ACME/V1#D-ACME_QSDomain_V10_IGV1> 			<http://www.assero.co.uk/BusinessOperational#enabled> 			"true" . 
<http://www.assero.co.uk/MDRSdtmUD/ACME/V1#D-ACME_QSDomain_V10_IGV1> 			<http://www.assero.co.uk/BusinessOperational#ordinal> 			"1" . 
<http://www.assero.co.uk/MDRSdtmUD/ACME/V1#D-ACME_QSDomain_V10_IGV1> 			<http://www.assero.co.uk/BusinessOperational#hasColumn> 			<http://www.assero.co.uk/MDRSdtmIgD/CDISC/V3#IG-CDISC_SDTMIGQS_QSSCAT> . 
<http://www.assero.co.uk/MDRSdtmUD/ACME/V1#D-ACME_QSDomain_V11> 			<http://www.w3.org/1999/02/22-rdf-syntax-ns#type> 			<http://www.assero.co.uk/BusinessDomain#UserVariable> . 
<http://www.assero.co.uk/MDRSdtmUD/ACME/V1#D-ACME_QSDomain_V11> 			<http://www.w3.org/2000/01/rdf-schema#label> 			"Finding in Original Units" . 
<http://www.assero.co.uk/MDRSdtmUD/ACME/V1#D-ACME_QSDomain_V11> 			<http://www.assero.co.uk/BusinessDomain#ordinal> 			"11" . 
<http://www.assero.co.uk/MDRSdtmUD/ACME/V1#D-ACME_QSDomain_V11> 			<http://www.assero.co.uk/BusinessDomain#basedOnVariable> 			<http://www.assero.co.uk/MDRSdtmUD/ACME/V1#D-ACME_QSDomain_V11_IGV1> . 
<http://www.assero.co.uk/MDRSdtmUD/ACME/V1#D-ACME_QSDomain_V11> 			<http://www.assero.co.uk/BusinessDomain#notes> 			"" . 
<http://www.assero.co.uk/MDRSdtmUD/ACME/V1#D-ACME_QSDomain_V11> 			<http://www.assero.co.uk/BusinessDomain#name> 			"QSORRES" . 
<http://www.assero.co.uk/MDRSdtmUD/ACME/V1#D-ACME_QSDomain_V11> 			<http://www.assero.co.uk/BusinessDomain#compliance> 			<http://www.assero.co.uk/MDRSdtmIgD/CDISC/V3#IG-CDISC_SDTMIGQS_C_EXPECTED> . 
<http://www.assero.co.uk/MDRSdtmUD/ACME/V1#D-ACME_QSDomain_V11> 			<http://www.assero.co.uk/BusinessDomain#rule> 			"" . 
<http://www.assero.co.uk/MDRSdtmUD/ACME/V1#D-ACME_QSDomain_V11> 			<http://www.assero.co.uk/BusinessDomain#typedAs> 			<http://www.assero.co.uk/MDRSdtmM/CDISC/V3#M-CDISC_SDTMMODEL_DT_CHAR> . 
<http://www.assero.co.uk/MDRSdtmUD/ACME/V1#D-ACME_QSDomain_V11> 			<http://www.assero.co.uk/BusinessDomain#classifiedAs> 			<http://www.assero.co.uk/MDRSdtmM/CDISC/V3#M-CDISC_SDTMMODEL_SC_RESULTQUALIFIER> . 
<http://www.assero.co.uk/MDRSdtmUD/ACME/V1#D-ACME_QSDomain_V11> 			<http://www.assero.co.uk/BusinessDomain#format> 			"" . 
<http://www.assero.co.uk/MDRSdtmUD/ACME/V1#D-ACME_QSDomain_V11> 			<http://www.assero.co.uk/BusinessDomain#non_standard> 			"false" . 
<http://www.assero.co.uk/MDRSdtmUD/ACME/V1#D-ACME_QSDomain_V11> 			<http://www.assero.co.uk/BusinessDomain#comment> 			"" . 
<http://www.assero.co.uk/MDRSdtmUD/ACME/V1#D-ACME_QSDomain_V11> 			<http://www.assero.co.uk/BusinessDomain#hasProperty> 			<http://www.assero.co.uk/MDRSdtmUD/ACME/V1#D-ACME_QSDomain_V11_PR7> . 
<http://www.assero.co.uk/MDRSdtmUD/ACME/V1#D-ACME_QSDomain_V11> 			<http://www.assero.co.uk/BusinessDomain#hasProperty> 			<http://www.assero.co.uk/MDRSdtmUD/ACME/V1#D-ACME_QSDomain_V11_PR2> . 
<http://www.assero.co.uk/MDRSdtmUD/ACME/V1#D-ACME_QSDomain_V11> 			<http://www.assero.co.uk/BusinessDomain#hasProperty> 			<http://www.assero.co.uk/MDRSdtmUD/ACME/V1#D-ACME_QSDomain_V11_PR3> . 
<http://www.assero.co.uk/MDRSdtmUD/ACME/V1#D-ACME_QSDomain_V11> 			<http://www.assero.co.uk/BusinessDomain#hasProperty> 			<http://www.assero.co.uk/MDRSdtmUD/ACME/V1#D-ACME_QSDomain_V11_PR4> . 
<http://www.assero.co.uk/MDRSdtmUD/ACME/V1#D-ACME_QSDomain_V11> 			<http://www.assero.co.uk/BusinessDomain#hasProperty> 			<http://www.assero.co.uk/MDRSdtmUD/ACME/V1#D-ACME_QSDomain_V11_PR5> . 
<http://www.assero.co.uk/MDRSdtmUD/ACME/V1#D-ACME_QSDomain_V11> 			<http://www.assero.co.uk/BusinessDomain#hasProperty> 			<http://www.assero.co.uk/MDRSdtmUD/ACME/V1#D-ACME_QSDomain_V11_PR6> . 
<http://www.assero.co.uk/MDRSdtmUD/ACME/V1#D-ACME_QSDomain_V11> 			<http://www.assero.co.uk/BusinessDomain#used> 			"true" . 
<http://www.assero.co.uk/MDRSdtmUD/ACME/V1#D-ACME_QSDomain_V11> 			<http://www.assero.co.uk/BusinessDomain#length> 			"0" . 
<http://www.assero.co.uk/MDRSdtmUD/ACME/V1#D-ACME_QSDomain_V11> 			<http://www.assero.co.uk/BusinessDomain#ct> 			"" . 
<http://www.assero.co.uk/MDRSdtmUD/ACME/V1#D-ACME_QSDomain_V11> 			<http://www.assero.co.uk/BusinessDomain#key_ordinal> 			"0" . 
<http://www.assero.co.uk/MDRSdtmUD/ACME/V1#D-ACME_QSDomain_V11_IGV1> 			<http://www.w3.org/1999/02/22-rdf-syntax-ns#type> 			<http://www.assero.co.uk/BusinessOperational#CReference> . 
<http://www.assero.co.uk/MDRSdtmUD/ACME/V1#D-ACME_QSDomain_V11_IGV1> 			<http://www.w3.org/2000/01/rdf-schema#label> 			"Based on Variable Reference" . 
<http://www.assero.co.uk/MDRSdtmUD/ACME/V1#D-ACME_QSDomain_V11_IGV1> 			<http://www.assero.co.uk/BusinessOperational#optional> 			"false" . 
<http://www.assero.co.uk/MDRSdtmUD/ACME/V1#D-ACME_QSDomain_V11_IGV1> 			<http://www.assero.co.uk/BusinessOperational#local_label> 			"" . 
<http://www.assero.co.uk/MDRSdtmUD/ACME/V1#D-ACME_QSDomain_V11_IGV1> 			<http://www.assero.co.uk/BusinessOperational#enabled> 			"true" . 
<http://www.assero.co.uk/MDRSdtmUD/ACME/V1#D-ACME_QSDomain_V11_IGV1> 			<http://www.assero.co.uk/BusinessOperational#ordinal> 			"1" . 
<http://www.assero.co.uk/MDRSdtmUD/ACME/V1#D-ACME_QSDomain_V11_IGV1> 			<http://www.assero.co.uk/BusinessOperational#hasColumn> 			<http://www.assero.co.uk/MDRSdtmIgD/CDISC/V3#IG-CDISC_SDTMIGQS_QSORRES> . 
<http://www.assero.co.uk/MDRSdtmUD/ACME/V1#D-ACME_QSDomain_V11_PR7> 			<http://www.w3.org/1999/02/22-rdf-syntax-ns#type> 			<http://www.assero.co.uk/BusinessOperational#PReference> . 
<http://www.assero.co.uk/MDRSdtmUD/ACME/V1#D-ACME_QSDomain_V11_PR7> 			<http://www.w3.org/2000/01/rdf-schema#label> 			"BC Property Reference" . 
<http://www.assero.co.uk/MDRSdtmUD/ACME/V1#D-ACME_QSDomain_V11_PR7> 			<http://www.assero.co.uk/BusinessOperational#optional> 			"false" . 
<http://www.assero.co.uk/MDRSdtmUD/ACME/V1#D-ACME_QSDomain_V11_PR7> 			<http://www.assero.co.uk/BusinessOperational#hasProperty> 			<http://www.assero.co.uk/MDRBCs/ACME/V1#BC-ACME_BCC100397_I10_DT1_P1> . 
<http://www.assero.co.uk/MDRSdtmUD/ACME/V1#D-ACME_QSDomain_V11_PR7> 			<http://www.assero.co.uk/BusinessOperational#local_label> 			"" . 
<http://www.assero.co.uk/MDRSdtmUD/ACME/V1#D-ACME_QSDomain_V11_PR7> 			<http://www.assero.co.uk/BusinessOperational#enabled> 			"true" . 
<http://www.assero.co.uk/MDRSdtmUD/ACME/V1#D-ACME_QSDomain_V11_PR7> 			<http://www.assero.co.uk/BusinessOperational#ordinal> 			"7" . 
<http://www.assero.co.uk/MDRSdtmUD/ACME/V1#D-ACME_QSDomain_V11_PR2> 			<http://www.w3.org/1999/02/22-rdf-syntax-ns#type> 			<http://www.assero.co.uk/BusinessOperational#PReference> . 
<http://www.assero.co.uk/MDRSdtmUD/ACME/V1#D-ACME_QSDomain_V11_PR2> 			<http://www.w3.org/2000/01/rdf-schema#label> 			"BC Property Reference" . 
<http://www.assero.co.uk/MDRSdtmUD/ACME/V1#D-ACME_QSDomain_V11_PR2> 			<http://www.assero.co.uk/BusinessOperational#optional> 			"false" . 
<http://www.assero.co.uk/MDRSdtmUD/ACME/V1#D-ACME_QSDomain_V11_PR2> 			<http://www.assero.co.uk/BusinessOperational#hasProperty> 			<http://www.assero.co.uk/MDRBCs/ACME/V1#BC-ACME_BCC100392_I10_DT1_P1> . 
<http://www.assero.co.uk/MDRSdtmUD/ACME/V1#D-ACME_QSDomain_V11_PR2> 			<http://www.assero.co.uk/BusinessOperational#local_label> 			"" . 
<http://www.assero.co.uk/MDRSdtmUD/ACME/V1#D-ACME_QSDomain_V11_PR2> 			<http://www.assero.co.uk/BusinessOperational#enabled> 			"true" . 
<http://www.assero.co.uk/MDRSdtmUD/ACME/V1#D-ACME_QSDomain_V11_PR2> 			<http://www.assero.co.uk/BusinessOperational#ordinal> 			"2" . 
<http://www.assero.co.uk/MDRSdtmUD/ACME/V1#D-ACME_QSDomain_V11_PR3> 			<http://www.w3.org/1999/02/22-rdf-syntax-ns#type> 			<http://www.assero.co.uk/BusinessOperational#PReference> . 
<http://www.assero.co.uk/MDRSdtmUD/ACME/V1#D-ACME_QSDomain_V11_PR3> 			<http://www.w3.org/2000/01/rdf-schema#label> 			"BC Property Reference" . 
<http://www.assero.co.uk/MDRSdtmUD/ACME/V1#D-ACME_QSDomain_V11_PR3> 			<http://www.assero.co.uk/BusinessOperational#optional> 			"false" . 
<http://www.assero.co.uk/MDRSdtmUD/ACME/V1#D-ACME_QSDomain_V11_PR3> 			<http://www.assero.co.uk/BusinessOperational#hasProperty> 			<http://www.assero.co.uk/MDRBCs/ACME/V1#BC-ACME_BCC100393_I10_DT1_P1> . 
<http://www.assero.co.uk/MDRSdtmUD/ACME/V1#D-ACME_QSDomain_V11_PR3> 			<http://www.assero.co.uk/BusinessOperational#local_label> 			"" . 
<http://www.assero.co.uk/MDRSdtmUD/ACME/V1#D-ACME_QSDomain_V11_PR3> 			<http://www.assero.co.uk/BusinessOperational#enabled> 			"true" . 
<http://www.assero.co.uk/MDRSdtmUD/ACME/V1#D-ACME_QSDomain_V11_PR3> 			<http://www.assero.co.uk/BusinessOperational#ordinal> 			"3" . 
<http://www.assero.co.uk/MDRSdtmUD/ACME/V1#D-ACME_QSDomain_V11_PR4> 			<http://www.w3.org/1999/02/22-rdf-syntax-ns#type> 			<http://www.assero.co.uk/BusinessOperational#PReference> . 
<http://www.assero.co.uk/MDRSdtmUD/ACME/V1#D-ACME_QSDomain_V11_PR4> 			<http://www.w3.org/2000/01/rdf-schema#label> 			"BC Property Reference" . 
<http://www.assero.co.uk/MDRSdtmUD/ACME/V1#D-ACME_QSDomain_V11_PR4> 			<http://www.assero.co.uk/BusinessOperational#optional> 			"false" . 
<http://www.assero.co.uk/MDRSdtmUD/ACME/V1#D-ACME_QSDomain_V11_PR4> 			<http://www.assero.co.uk/BusinessOperational#hasProperty> 			<http://www.assero.co.uk/MDRBCs/ACME/V1#BC-ACME_BCC100394_I10_DT1_P1> . 
<http://www.assero.co.uk/MDRSdtmUD/ACME/V1#D-ACME_QSDomain_V11_PR4> 			<http://www.assero.co.uk/BusinessOperational#local_label> 			"" . 
<http://www.assero.co.uk/MDRSdtmUD/ACME/V1#D-ACME_QSDomain_V11_PR4> 			<http://www.assero.co.uk/BusinessOperational#enabled> 			"true" . 
<http://www.assero.co.uk/MDRSdtmUD/ACME/V1#D-ACME_QSDomain_V11_PR4> 			<http://www.assero.co.uk/BusinessOperational#ordinal> 			"4" . 
<http://www.assero.co.uk/MDRSdtmUD/ACME/V1#D-ACME_QSDomain_V11_PR5> 			<http://www.w3.org/1999/02/22-rdf-syntax-ns#type> 			<http://www.assero.co.uk/BusinessOperational#PReference> . 
<http://www.assero.co.uk/MDRSdtmUD/ACME/V1#D-ACME_QSDomain_V11_PR5> 			<http://www.w3.org/2000/01/rdf-schema#label> 			"BC Property Reference" . 
<http://www.assero.co.uk/MDRSdtmUD/ACME/V1#D-ACME_QSDomain_V11_PR5> 			<http://www.assero.co.uk/BusinessOperational#optional> 			"false" . 
<http://www.assero.co.uk/MDRSdtmUD/ACME/V1#D-ACME_QSDomain_V11_PR5> 			<http://www.assero.co.uk/BusinessOperational#hasProperty> 			<http://www.assero.co.uk/MDRBCs/ACME/V1#BC-ACME_BCC100395_I10_DT1_P1> . 
<http://www.assero.co.uk/MDRSdtmUD/ACME/V1#D-ACME_QSDomain_V11_PR5> 			<http://www.assero.co.uk/BusinessOperational#local_label> 			"" . 
<http://www.assero.co.uk/MDRSdtmUD/ACME/V1#D-ACME_QSDomain_V11_PR5> 			<http://www.assero.co.uk/BusinessOperational#enabled> 			"true" . 
<http://www.assero.co.uk/MDRSdtmUD/ACME/V1#D-ACME_QSDomain_V11_PR5> 			<http://www.assero.co.uk/BusinessOperational#ordinal> 			"5" . 
<http://www.assero.co.uk/MDRSdtmUD/ACME/V1#D-ACME_QSDomain_V11_PR6> 			<http://www.w3.org/1999/02/22-rdf-syntax-ns#type> 			<http://www.assero.co.uk/BusinessOperational#PReference> . 
<http://www.assero.co.uk/MDRSdtmUD/ACME/V1#D-ACME_QSDomain_V11_PR6> 			<http://www.w3.org/2000/01/rdf-schema#label> 			"BC Property Reference" . 
<http://www.assero.co.uk/MDRSdtmUD/ACME/V1#D-ACME_QSDomain_V11_PR6> 			<http://www.assero.co.uk/BusinessOperational#optional> 			"false" . 
<http://www.assero.co.uk/MDRSdtmUD/ACME/V1#D-ACME_QSDomain_V11_PR6> 			<http://www.assero.co.uk/BusinessOperational#hasProperty> 			<http://www.assero.co.uk/MDRBCs/ACME/V1#BC-ACME_BCC100396_I10_DT1_P1> . 
<http://www.assero.co.uk/MDRSdtmUD/ACME/V1#D-ACME_QSDomain_V11_PR6> 			<http://www.assero.co.uk/BusinessOperational#local_label> 			"" . 
<http://www.assero.co.uk/MDRSdtmUD/ACME/V1#D-ACME_QSDomain_V11_PR6> 			<http://www.assero.co.uk/BusinessOperational#enabled> 			"true" . 
<http://www.assero.co.uk/MDRSdtmUD/ACME/V1#D-ACME_QSDomain_V11_PR6> 			<http://www.assero.co.uk/BusinessOperational#ordinal> 			"6" . 
<http://www.assero.co.uk/MDRSdtmUD/ACME/V1#D-ACME_QSDomain_V12> 			<http://www.w3.org/1999/02/22-rdf-syntax-ns#type> 			<http://www.assero.co.uk/BusinessDomain#UserVariable> . 
<http://www.assero.co.uk/MDRSdtmUD/ACME/V1#D-ACME_QSDomain_V12> 			<http://www.w3.org/2000/01/rdf-schema#label> 			"Original Units" . 
<http://www.assero.co.uk/MDRSdtmUD/ACME/V1#D-ACME_QSDomain_V12> 			<http://www.assero.co.uk/BusinessDomain#ordinal> 			"12" . 
<http://www.assero.co.uk/MDRSdtmUD/ACME/V1#D-ACME_QSDomain_V12> 			<http://www.assero.co.uk/BusinessDomain#basedOnVariable> 			<http://www.assero.co.uk/MDRSdtmUD/ACME/V1#D-ACME_QSDomain_V12_IGV1> . 
<http://www.assero.co.uk/MDRSdtmUD/ACME/V1#D-ACME_QSDomain_V12> 			<http://www.assero.co.uk/BusinessDomain#notes> 			"" . 
<http://www.assero.co.uk/MDRSdtmUD/ACME/V1#D-ACME_QSDomain_V12> 			<http://www.assero.co.uk/BusinessDomain#name> 			"QSORRESU" . 
<http://www.assero.co.uk/MDRSdtmUD/ACME/V1#D-ACME_QSDomain_V12> 			<http://www.assero.co.uk/BusinessDomain#compliance> 			<http://www.assero.co.uk/MDRSdtmIgD/CDISC/V3#IG-CDISC_SDTMIGQS_C_PERMISSIBLE> . 
<http://www.assero.co.uk/MDRSdtmUD/ACME/V1#D-ACME_QSDomain_V12> 			<http://www.assero.co.uk/BusinessDomain#rule> 			"" . 
<http://www.assero.co.uk/MDRSdtmUD/ACME/V1#D-ACME_QSDomain_V12> 			<http://www.assero.co.uk/BusinessDomain#typedAs> 			<http://www.assero.co.uk/MDRSdtmM/CDISC/V3#M-CDISC_SDTMMODEL_DT_CHAR> . 
<http://www.assero.co.uk/MDRSdtmUD/ACME/V1#D-ACME_QSDomain_V12> 			<http://www.assero.co.uk/BusinessDomain#classifiedAs> 			<http://www.assero.co.uk/MDRSdtmM/CDISC/V3#M-CDISC_SDTMMODEL_SC_VARIABLEQUALIFIER> . 
<http://www.assero.co.uk/MDRSdtmUD/ACME/V1#D-ACME_QSDomain_V12> 			<http://www.assero.co.uk/BusinessDomain#format> 			"" . 
<http://www.assero.co.uk/MDRSdtmUD/ACME/V1#D-ACME_QSDomain_V12> 			<http://www.assero.co.uk/BusinessDomain#non_standard> 			"false" . 
<http://www.assero.co.uk/MDRSdtmUD/ACME/V1#D-ACME_QSDomain_V12> 			<http://www.assero.co.uk/BusinessDomain#comment> 			"" . 
<http://www.assero.co.uk/MDRSdtmUD/ACME/V1#D-ACME_QSDomain_V12> 			<http://www.assero.co.uk/BusinessDomain#used> 			"true" . 
<http://www.assero.co.uk/MDRSdtmUD/ACME/V1#D-ACME_QSDomain_V12> 			<http://www.assero.co.uk/BusinessDomain#length> 			"0" . 
<http://www.assero.co.uk/MDRSdtmUD/ACME/V1#D-ACME_QSDomain_V12> 			<http://www.assero.co.uk/BusinessDomain#ct> 			"UNIT" . 
<http://www.assero.co.uk/MDRSdtmUD/ACME/V1#D-ACME_QSDomain_V12> 			<http://www.assero.co.uk/BusinessDomain#key_ordinal> 			"0" . 
<http://www.assero.co.uk/MDRSdtmUD/ACME/V1#D-ACME_QSDomain_V12_IGV1> 			<http://www.w3.org/1999/02/22-rdf-syntax-ns#type> 			<http://www.assero.co.uk/BusinessOperational#CReference> . 
<http://www.assero.co.uk/MDRSdtmUD/ACME/V1#D-ACME_QSDomain_V12_IGV1> 			<http://www.w3.org/2000/01/rdf-schema#label> 			"Based on Variable Reference" . 
<http://www.assero.co.uk/MDRSdtmUD/ACME/V1#D-ACME_QSDomain_V12_IGV1> 			<http://www.assero.co.uk/BusinessOperational#optional> 			"false" . 
<http://www.assero.co.uk/MDRSdtmUD/ACME/V1#D-ACME_QSDomain_V12_IGV1> 			<http://www.assero.co.uk/BusinessOperational#local_label> 			"" . 
<http://www.assero.co.uk/MDRSdtmUD/ACME/V1#D-ACME_QSDomain_V12_IGV1> 			<http://www.assero.co.uk/BusinessOperational#enabled> 			"true" . 
<http://www.assero.co.uk/MDRSdtmUD/ACME/V1#D-ACME_QSDomain_V12_IGV1> 			<http://www.assero.co.uk/BusinessOperational#ordinal> 			"1" . 
<http://www.assero.co.uk/MDRSdtmUD/ACME/V1#D-ACME_QSDomain_V12_IGV1> 			<http://www.assero.co.uk/BusinessOperational#hasColumn> 			<http://www.assero.co.uk/MDRSdtmIgD/CDISC/V3#IG-CDISC_SDTMIGQS_QSORRESU> . 
<http://www.assero.co.uk/MDRSdtmUD/ACME/V1#D-ACME_QSDomain_V13> 			<http://www.w3.org/1999/02/22-rdf-syntax-ns#type> 			<http://www.assero.co.uk/BusinessDomain#UserVariable> . 
<http://www.assero.co.uk/MDRSdtmUD/ACME/V1#D-ACME_QSDomain_V13> 			<http://www.w3.org/2000/01/rdf-schema#label> 			"Character Result/Finding in Standard Format" . 
<http://www.assero.co.uk/MDRSdtmUD/ACME/V1#D-ACME_QSDomain_V13> 			<http://www.assero.co.uk/BusinessDomain#ordinal> 			"13" . 
<http://www.assero.co.uk/MDRSdtmUD/ACME/V1#D-ACME_QSDomain_V13> 			<http://www.assero.co.uk/BusinessDomain#basedOnVariable> 			<http://www.assero.co.uk/MDRSdtmUD/ACME/V1#D-ACME_QSDomain_V13_IGV1> . 
<http://www.assero.co.uk/MDRSdtmUD/ACME/V1#D-ACME_QSDomain_V13> 			<http://www.assero.co.uk/BusinessDomain#notes> 			"" . 
<http://www.assero.co.uk/MDRSdtmUD/ACME/V1#D-ACME_QSDomain_V13> 			<http://www.assero.co.uk/BusinessDomain#name> 			"QSSTRESC" . 
<http://www.assero.co.uk/MDRSdtmUD/ACME/V1#D-ACME_QSDomain_V13> 			<http://www.assero.co.uk/BusinessDomain#compliance> 			<http://www.assero.co.uk/MDRSdtmIgD/CDISC/V3#IG-CDISC_SDTMIGQS_C_EXPECTED> . 
<http://www.assero.co.uk/MDRSdtmUD/ACME/V1#D-ACME_QSDomain_V13> 			<http://www.assero.co.uk/BusinessDomain#rule> 			"" . 
<http://www.assero.co.uk/MDRSdtmUD/ACME/V1#D-ACME_QSDomain_V13> 			<http://www.assero.co.uk/BusinessDomain#typedAs> 			<http://www.assero.co.uk/MDRSdtmM/CDISC/V3#M-CDISC_SDTMMODEL_DT_CHAR> . 
<http://www.assero.co.uk/MDRSdtmUD/ACME/V1#D-ACME_QSDomain_V13> 			<http://www.assero.co.uk/BusinessDomain#classifiedAs> 			<http://www.assero.co.uk/MDRSdtmM/CDISC/V3#M-CDISC_SDTMMODEL_SC_RESULTQUALIFIER> . 
<http://www.assero.co.uk/MDRSdtmUD/ACME/V1#D-ACME_QSDomain_V13> 			<http://www.assero.co.uk/BusinessDomain#format> 			"" . 
<http://www.assero.co.uk/MDRSdtmUD/ACME/V1#D-ACME_QSDomain_V13> 			<http://www.assero.co.uk/BusinessDomain#non_standard> 			"false" . 
<http://www.assero.co.uk/MDRSdtmUD/ACME/V1#D-ACME_QSDomain_V13> 			<http://www.assero.co.uk/BusinessDomain#comment> 			"" . 
<http://www.assero.co.uk/MDRSdtmUD/ACME/V1#D-ACME_QSDomain_V13> 			<http://www.assero.co.uk/BusinessDomain#used> 			"true" . 
<http://www.assero.co.uk/MDRSdtmUD/ACME/V1#D-ACME_QSDomain_V13> 			<http://www.assero.co.uk/BusinessDomain#length> 			"0" . 
<http://www.assero.co.uk/MDRSdtmUD/ACME/V1#D-ACME_QSDomain_V13> 			<http://www.assero.co.uk/BusinessDomain#ct> 			"" . 
<http://www.assero.co.uk/MDRSdtmUD/ACME/V1#D-ACME_QSDomain_V13> 			<http://www.assero.co.uk/BusinessDomain#key_ordinal> 			"0" . 
<http://www.assero.co.uk/MDRSdtmUD/ACME/V1#D-ACME_QSDomain_V13_IGV1> 			<http://www.w3.org/1999/02/22-rdf-syntax-ns#type> 			<http://www.assero.co.uk/BusinessOperational#CReference> . 
<http://www.assero.co.uk/MDRSdtmUD/ACME/V1#D-ACME_QSDomain_V13_IGV1> 			<http://www.w3.org/2000/01/rdf-schema#label> 			"Based on Variable Reference" . 
<http://www.assero.co.uk/MDRSdtmUD/ACME/V1#D-ACME_QSDomain_V13_IGV1> 			<http://www.assero.co.uk/BusinessOperational#optional> 			"false" . 
<http://www.assero.co.uk/MDRSdtmUD/ACME/V1#D-ACME_QSDomain_V13_IGV1> 			<http://www.assero.co.uk/BusinessOperational#local_label> 			"" . 
<http://www.assero.co.uk/MDRSdtmUD/ACME/V1#D-ACME_QSDomain_V13_IGV1> 			<http://www.assero.co.uk/BusinessOperational#enabled> 			"true" . 
<http://www.assero.co.uk/MDRSdtmUD/ACME/V1#D-ACME_QSDomain_V13_IGV1> 			<http://www.assero.co.uk/BusinessOperational#ordinal> 			"1" . 
<http://www.assero.co.uk/MDRSdtmUD/ACME/V1#D-ACME_QSDomain_V13_IGV1> 			<http://www.assero.co.uk/BusinessOperational#hasColumn> 			<http://www.assero.co.uk/MDRSdtmIgD/CDISC/V3#IG-CDISC_SDTMIGQS_QSSTRESC> . 
<http://www.assero.co.uk/MDRSdtmUD/ACME/V1#D-ACME_QSDomain_V14> 			<http://www.w3.org/1999/02/22-rdf-syntax-ns#type> 			<http://www.assero.co.uk/BusinessDomain#UserVariable> . 
<http://www.assero.co.uk/MDRSdtmUD/ACME/V1#D-ACME_QSDomain_V14> 			<http://www.w3.org/2000/01/rdf-schema#label> 			"Numeric Finding in Standard Units" . 
<http://www.assero.co.uk/MDRSdtmUD/ACME/V1#D-ACME_QSDomain_V14> 			<http://www.assero.co.uk/BusinessDomain#ordinal> 			"14" . 
<http://www.assero.co.uk/MDRSdtmUD/ACME/V1#D-ACME_QSDomain_V14> 			<http://www.assero.co.uk/BusinessDomain#basedOnVariable> 			<http://www.assero.co.uk/MDRSdtmUD/ACME/V1#D-ACME_QSDomain_V14_IGV1> . 
<http://www.assero.co.uk/MDRSdtmUD/ACME/V1#D-ACME_QSDomain_V14> 			<http://www.assero.co.uk/BusinessDomain#notes> 			"" . 
<http://www.assero.co.uk/MDRSdtmUD/ACME/V1#D-ACME_QSDomain_V14> 			<http://www.assero.co.uk/BusinessDomain#name> 			"QSSTRESN" . 
<http://www.assero.co.uk/MDRSdtmUD/ACME/V1#D-ACME_QSDomain_V14> 			<http://www.assero.co.uk/BusinessDomain#compliance> 			<http://www.assero.co.uk/MDRSdtmIgD/CDISC/V3#IG-CDISC_SDTMIGQS_C_PERMISSIBLE> . 
<http://www.assero.co.uk/MDRSdtmUD/ACME/V1#D-ACME_QSDomain_V14> 			<http://www.assero.co.uk/BusinessDomain#rule> 			"" . 
<http://www.assero.co.uk/MDRSdtmUD/ACME/V1#D-ACME_QSDomain_V14> 			<http://www.assero.co.uk/BusinessDomain#typedAs> 			<http://www.assero.co.uk/MDRSdtmM/CDISC/V3#M-CDISC_SDTMMODEL_DT_NUM> . 
<http://www.assero.co.uk/MDRSdtmUD/ACME/V1#D-ACME_QSDomain_V14> 			<http://www.assero.co.uk/BusinessDomain#classifiedAs> 			<http://www.assero.co.uk/MDRSdtmM/CDISC/V3#M-CDISC_SDTMMODEL_SC_RESULTQUALIFIER> . 
<http://www.assero.co.uk/MDRSdtmUD/ACME/V1#D-ACME_QSDomain_V14> 			<http://www.assero.co.uk/BusinessDomain#format> 			"" . 
<http://www.assero.co.uk/MDRSdtmUD/ACME/V1#D-ACME_QSDomain_V14> 			<http://www.assero.co.uk/BusinessDomain#non_standard> 			"false" . 
<http://www.assero.co.uk/MDRSdtmUD/ACME/V1#D-ACME_QSDomain_V14> 			<http://www.assero.co.uk/BusinessDomain#comment> 			"" . 
<http://www.assero.co.uk/MDRSdtmUD/ACME/V1#D-ACME_QSDomain_V14> 			<http://www.assero.co.uk/BusinessDomain#used> 			"true" . 
<http://www.assero.co.uk/MDRSdtmUD/ACME/V1#D-ACME_QSDomain_V14> 			<http://www.assero.co.uk/BusinessDomain#length> 			"0" . 
<http://www.assero.co.uk/MDRSdtmUD/ACME/V1#D-ACME_QSDomain_V14> 			<http://www.assero.co.uk/BusinessDomain#ct> 			"" . 
<http://www.assero.co.uk/MDRSdtmUD/ACME/V1#D-ACME_QSDomain_V14> 			<http://www.assero.co.uk/BusinessDomain#key_ordinal> 			"0" . 
<http://www.assero.co.uk/MDRSdtmUD/ACME/V1#D-ACME_QSDomain_V14_IGV1> 			<http://www.w3.org/1999/02/22-rdf-syntax-ns#type> 			<http://www.assero.co.uk/BusinessOperational#CReference> . 
<http://www.assero.co.uk/MDRSdtmUD/ACME/V1#D-ACME_QSDomain_V14_IGV1> 			<http://www.w3.org/2000/01/rdf-schema#label> 			"Based on Variable Reference" . 
<http://www.assero.co.uk/MDRSdtmUD/ACME/V1#D-ACME_QSDomain_V14_IGV1> 			<http://www.assero.co.uk/BusinessOperational#optional> 			"false" . 
<http://www.assero.co.uk/MDRSdtmUD/ACME/V1#D-ACME_QSDomain_V14_IGV1> 			<http://www.assero.co.uk/BusinessOperational#local_label> 			"" . 
<http://www.assero.co.uk/MDRSdtmUD/ACME/V1#D-ACME_QSDomain_V14_IGV1> 			<http://www.assero.co.uk/BusinessOperational#enabled> 			"true" . 
<http://www.assero.co.uk/MDRSdtmUD/ACME/V1#D-ACME_QSDomain_V14_IGV1> 			<http://www.assero.co.uk/BusinessOperational#ordinal> 			"1" . 
<http://www.assero.co.uk/MDRSdtmUD/ACME/V1#D-ACME_QSDomain_V14_IGV1> 			<http://www.assero.co.uk/BusinessOperational#hasColumn> 			<http://www.assero.co.uk/MDRSdtmIgD/CDISC/V3#IG-CDISC_SDTMIGQS_QSSTRESN> . 
<http://www.assero.co.uk/MDRSdtmUD/ACME/V1#D-ACME_QSDomain_V15> 			<http://www.w3.org/1999/02/22-rdf-syntax-ns#type> 			<http://www.assero.co.uk/BusinessDomain#UserVariable> . 
<http://www.assero.co.uk/MDRSdtmUD/ACME/V1#D-ACME_QSDomain_V15> 			<http://www.w3.org/2000/01/rdf-schema#label> 			"Standard Units" . 
<http://www.assero.co.uk/MDRSdtmUD/ACME/V1#D-ACME_QSDomain_V15> 			<http://www.assero.co.uk/BusinessDomain#ordinal> 			"15" . 
<http://www.assero.co.uk/MDRSdtmUD/ACME/V1#D-ACME_QSDomain_V15> 			<http://www.assero.co.uk/BusinessDomain#basedOnVariable> 			<http://www.assero.co.uk/MDRSdtmUD/ACME/V1#D-ACME_QSDomain_V15_IGV1> . 
<http://www.assero.co.uk/MDRSdtmUD/ACME/V1#D-ACME_QSDomain_V15> 			<http://www.assero.co.uk/BusinessDomain#notes> 			"" . 
<http://www.assero.co.uk/MDRSdtmUD/ACME/V1#D-ACME_QSDomain_V15> 			<http://www.assero.co.uk/BusinessDomain#name> 			"QSSTRESU" . 
<http://www.assero.co.uk/MDRSdtmUD/ACME/V1#D-ACME_QSDomain_V15> 			<http://www.assero.co.uk/BusinessDomain#compliance> 			<http://www.assero.co.uk/MDRSdtmIgD/CDISC/V3#IG-CDISC_SDTMIGQS_C_PERMISSIBLE> . 
<http://www.assero.co.uk/MDRSdtmUD/ACME/V1#D-ACME_QSDomain_V15> 			<http://www.assero.co.uk/BusinessDomain#rule> 			"" . 
<http://www.assero.co.uk/MDRSdtmUD/ACME/V1#D-ACME_QSDomain_V15> 			<http://www.assero.co.uk/BusinessDomain#typedAs> 			<http://www.assero.co.uk/MDRSdtmM/CDISC/V3#M-CDISC_SDTMMODEL_DT_CHAR> . 
<http://www.assero.co.uk/MDRSdtmUD/ACME/V1#D-ACME_QSDomain_V15> 			<http://www.assero.co.uk/BusinessDomain#classifiedAs> 			<http://www.assero.co.uk/MDRSdtmM/CDISC/V3#M-CDISC_SDTMMODEL_SC_VARIABLEQUALIFIER> . 
<http://www.assero.co.uk/MDRSdtmUD/ACME/V1#D-ACME_QSDomain_V15> 			<http://www.assero.co.uk/BusinessDomain#format> 			"" . 
<http://www.assero.co.uk/MDRSdtmUD/ACME/V1#D-ACME_QSDomain_V15> 			<http://www.assero.co.uk/BusinessDomain#non_standard> 			"false" . 
<http://www.assero.co.uk/MDRSdtmUD/ACME/V1#D-ACME_QSDomain_V15> 			<http://www.assero.co.uk/BusinessDomain#comment> 			"" . 
<http://www.assero.co.uk/MDRSdtmUD/ACME/V1#D-ACME_QSDomain_V15> 			<http://www.assero.co.uk/BusinessDomain#used> 			"true" . 
<http://www.assero.co.uk/MDRSdtmUD/ACME/V1#D-ACME_QSDomain_V15> 			<http://www.assero.co.uk/BusinessDomain#length> 			"0" . 
<http://www.assero.co.uk/MDRSdtmUD/ACME/V1#D-ACME_QSDomain_V15> 			<http://www.assero.co.uk/BusinessDomain#ct> 			"UNIT" . 
<http://www.assero.co.uk/MDRSdtmUD/ACME/V1#D-ACME_QSDomain_V15> 			<http://www.assero.co.uk/BusinessDomain#key_ordinal> 			"0" . 
<http://www.assero.co.uk/MDRSdtmUD/ACME/V1#D-ACME_QSDomain_V15_IGV1> 			<http://www.w3.org/1999/02/22-rdf-syntax-ns#type> 			<http://www.assero.co.uk/BusinessOperational#CReference> . 
<http://www.assero.co.uk/MDRSdtmUD/ACME/V1#D-ACME_QSDomain_V15_IGV1> 			<http://www.w3.org/2000/01/rdf-schema#label> 			"Based on Variable Reference" . 
<http://www.assero.co.uk/MDRSdtmUD/ACME/V1#D-ACME_QSDomain_V15_IGV1> 			<http://www.assero.co.uk/BusinessOperational#optional> 			"false" . 
<http://www.assero.co.uk/MDRSdtmUD/ACME/V1#D-ACME_QSDomain_V15_IGV1> 			<http://www.assero.co.uk/BusinessOperational#local_label> 			"" . 
<http://www.assero.co.uk/MDRSdtmUD/ACME/V1#D-ACME_QSDomain_V15_IGV1> 			<http://www.assero.co.uk/BusinessOperational#enabled> 			"true" . 
<http://www.assero.co.uk/MDRSdtmUD/ACME/V1#D-ACME_QSDomain_V15_IGV1> 			<http://www.assero.co.uk/BusinessOperational#ordinal> 			"1" . 
<http://www.assero.co.uk/MDRSdtmUD/ACME/V1#D-ACME_QSDomain_V15_IGV1> 			<http://www.assero.co.uk/BusinessOperational#hasColumn> 			<http://www.assero.co.uk/MDRSdtmIgD/CDISC/V3#IG-CDISC_SDTMIGQS_QSSTRESU> . 
<http://www.assero.co.uk/MDRSdtmUD/ACME/V1#D-ACME_QSDomain_V16> 			<http://www.w3.org/1999/02/22-rdf-syntax-ns#type> 			<http://www.assero.co.uk/BusinessDomain#UserVariable> . 
<http://www.assero.co.uk/MDRSdtmUD/ACME/V1#D-ACME_QSDomain_V16> 			<http://www.w3.org/2000/01/rdf-schema#label> 			"Completion Status" . 
<http://www.assero.co.uk/MDRSdtmUD/ACME/V1#D-ACME_QSDomain_V16> 			<http://www.assero.co.uk/BusinessDomain#ordinal> 			"16" . 
<http://www.assero.co.uk/MDRSdtmUD/ACME/V1#D-ACME_QSDomain_V16> 			<http://www.assero.co.uk/BusinessDomain#basedOnVariable> 			<http://www.assero.co.uk/MDRSdtmUD/ACME/V1#D-ACME_QSDomain_V16_IGV1> . 
<http://www.assero.co.uk/MDRSdtmUD/ACME/V1#D-ACME_QSDomain_V16> 			<http://www.assero.co.uk/BusinessDomain#notes> 			"" . 
<http://www.assero.co.uk/MDRSdtmUD/ACME/V1#D-ACME_QSDomain_V16> 			<http://www.assero.co.uk/BusinessDomain#name> 			"QSSTAT" . 
<http://www.assero.co.uk/MDRSdtmUD/ACME/V1#D-ACME_QSDomain_V16> 			<http://www.assero.co.uk/BusinessDomain#compliance> 			<http://www.assero.co.uk/MDRSdtmIgD/CDISC/V3#IG-CDISC_SDTMIGQS_C_PERMISSIBLE> . 
<http://www.assero.co.uk/MDRSdtmUD/ACME/V1#D-ACME_QSDomain_V16> 			<http://www.assero.co.uk/BusinessDomain#rule> 			"" . 
<http://www.assero.co.uk/MDRSdtmUD/ACME/V1#D-ACME_QSDomain_V16> 			<http://www.assero.co.uk/BusinessDomain#typedAs> 			<http://www.assero.co.uk/MDRSdtmM/CDISC/V3#M-CDISC_SDTMMODEL_DT_CHAR> . 
<http://www.assero.co.uk/MDRSdtmUD/ACME/V1#D-ACME_QSDomain_V16> 			<http://www.assero.co.uk/BusinessDomain#classifiedAs> 			<http://www.assero.co.uk/MDRSdtmM/CDISC/V3#M-CDISC_SDTMMODEL_SC_RECORDQUALIFIER> . 
<http://www.assero.co.uk/MDRSdtmUD/ACME/V1#D-ACME_QSDomain_V16> 			<http://www.assero.co.uk/BusinessDomain#format> 			"" . 
<http://www.assero.co.uk/MDRSdtmUD/ACME/V1#D-ACME_QSDomain_V16> 			<http://www.assero.co.uk/BusinessDomain#non_standard> 			"false" . 
<http://www.assero.co.uk/MDRSdtmUD/ACME/V1#D-ACME_QSDomain_V16> 			<http://www.assero.co.uk/BusinessDomain#comment> 			"" . 
<http://www.assero.co.uk/MDRSdtmUD/ACME/V1#D-ACME_QSDomain_V16> 			<http://www.assero.co.uk/BusinessDomain#used> 			"true" . 
<http://www.assero.co.uk/MDRSdtmUD/ACME/V1#D-ACME_QSDomain_V16> 			<http://www.assero.co.uk/BusinessDomain#length> 			"0" . 
<http://www.assero.co.uk/MDRSdtmUD/ACME/V1#D-ACME_QSDomain_V16> 			<http://www.assero.co.uk/BusinessDomain#ct> 			"ND" . 
<http://www.assero.co.uk/MDRSdtmUD/ACME/V1#D-ACME_QSDomain_V16> 			<http://www.assero.co.uk/BusinessDomain#key_ordinal> 			"0" . 
<http://www.assero.co.uk/MDRSdtmUD/ACME/V1#D-ACME_QSDomain_V16_IGV1> 			<http://www.w3.org/1999/02/22-rdf-syntax-ns#type> 			<http://www.assero.co.uk/BusinessOperational#CReference> . 
<http://www.assero.co.uk/MDRSdtmUD/ACME/V1#D-ACME_QSDomain_V16_IGV1> 			<http://www.w3.org/2000/01/rdf-schema#label> 			"Based on Variable Reference" . 
<http://www.assero.co.uk/MDRSdtmUD/ACME/V1#D-ACME_QSDomain_V16_IGV1> 			<http://www.assero.co.uk/BusinessOperational#optional> 			"false" . 
<http://www.assero.co.uk/MDRSdtmUD/ACME/V1#D-ACME_QSDomain_V16_IGV1> 			<http://www.assero.co.uk/BusinessOperational#local_label> 			"" . 
<http://www.assero.co.uk/MDRSdtmUD/ACME/V1#D-ACME_QSDomain_V16_IGV1> 			<http://www.assero.co.uk/BusinessOperational#enabled> 			"true" . 
<http://www.assero.co.uk/MDRSdtmUD/ACME/V1#D-ACME_QSDomain_V16_IGV1> 			<http://www.assero.co.uk/BusinessOperational#ordinal> 			"1" . 
<http://www.assero.co.uk/MDRSdtmUD/ACME/V1#D-ACME_QSDomain_V16_IGV1> 			<http://www.assero.co.uk/BusinessOperational#hasColumn> 			<http://www.assero.co.uk/MDRSdtmIgD/CDISC/V3#IG-CDISC_SDTMIGQS_QSSTAT> . 
<http://www.assero.co.uk/MDRSdtmUD/ACME/V1#D-ACME_QSDomain_V17> 			<http://www.w3.org/1999/02/22-rdf-syntax-ns#type> 			<http://www.assero.co.uk/BusinessDomain#UserVariable> . 
<http://www.assero.co.uk/MDRSdtmUD/ACME/V1#D-ACME_QSDomain_V17> 			<http://www.w3.org/2000/01/rdf-schema#label> 			"Reason Not Performed" . 
<http://www.assero.co.uk/MDRSdtmUD/ACME/V1#D-ACME_QSDomain_V17> 			<http://www.assero.co.uk/BusinessDomain#ordinal> 			"17" . 
<http://www.assero.co.uk/MDRSdtmUD/ACME/V1#D-ACME_QSDomain_V17> 			<http://www.assero.co.uk/BusinessDomain#basedOnVariable> 			<http://www.assero.co.uk/MDRSdtmUD/ACME/V1#D-ACME_QSDomain_V17_IGV1> . 
<http://www.assero.co.uk/MDRSdtmUD/ACME/V1#D-ACME_QSDomain_V17> 			<http://www.assero.co.uk/BusinessDomain#notes> 			"" . 
<http://www.assero.co.uk/MDRSdtmUD/ACME/V1#D-ACME_QSDomain_V17> 			<http://www.assero.co.uk/BusinessDomain#name> 			"QSREASND" . 
<http://www.assero.co.uk/MDRSdtmUD/ACME/V1#D-ACME_QSDomain_V17> 			<http://www.assero.co.uk/BusinessDomain#compliance> 			<http://www.assero.co.uk/MDRSdtmIgD/CDISC/V3#IG-CDISC_SDTMIGQS_C_PERMISSIBLE> . 
<http://www.assero.co.uk/MDRSdtmUD/ACME/V1#D-ACME_QSDomain_V17> 			<http://www.assero.co.uk/BusinessDomain#rule> 			"" . 
<http://www.assero.co.uk/MDRSdtmUD/ACME/V1#D-ACME_QSDomain_V17> 			<http://www.assero.co.uk/BusinessDomain#typedAs> 			<http://www.assero.co.uk/MDRSdtmM/CDISC/V3#M-CDISC_SDTMMODEL_DT_CHAR> . 
<http://www.assero.co.uk/MDRSdtmUD/ACME/V1#D-ACME_QSDomain_V17> 			<http://www.assero.co.uk/BusinessDomain#classifiedAs> 			<http://www.assero.co.uk/MDRSdtmM/CDISC/V3#M-CDISC_SDTMMODEL_SC_RECORDQUALIFIER> . 
<http://www.assero.co.uk/MDRSdtmUD/ACME/V1#D-ACME_QSDomain_V17> 			<http://www.assero.co.uk/BusinessDomain#format> 			"" . 
<http://www.assero.co.uk/MDRSdtmUD/ACME/V1#D-ACME_QSDomain_V17> 			<http://www.assero.co.uk/BusinessDomain#non_standard> 			"false" . 
<http://www.assero.co.uk/MDRSdtmUD/ACME/V1#D-ACME_QSDomain_V17> 			<http://www.assero.co.uk/BusinessDomain#comment> 			"" . 
<http://www.assero.co.uk/MDRSdtmUD/ACME/V1#D-ACME_QSDomain_V17> 			<http://www.assero.co.uk/BusinessDomain#used> 			"true" . 
<http://www.assero.co.uk/MDRSdtmUD/ACME/V1#D-ACME_QSDomain_V17> 			<http://www.assero.co.uk/BusinessDomain#length> 			"0" . 
<http://www.assero.co.uk/MDRSdtmUD/ACME/V1#D-ACME_QSDomain_V17> 			<http://www.assero.co.uk/BusinessDomain#ct> 			"" . 
<http://www.assero.co.uk/MDRSdtmUD/ACME/V1#D-ACME_QSDomain_V17> 			<http://www.assero.co.uk/BusinessDomain#key_ordinal> 			"0" . 
<http://www.assero.co.uk/MDRSdtmUD/ACME/V1#D-ACME_QSDomain_V17_IGV1> 			<http://www.w3.org/1999/02/22-rdf-syntax-ns#type> 			<http://www.assero.co.uk/BusinessOperational#CReference> . 
<http://www.assero.co.uk/MDRSdtmUD/ACME/V1#D-ACME_QSDomain_V17_IGV1> 			<http://www.w3.org/2000/01/rdf-schema#label> 			"Based on Variable Reference" . 
<http://www.assero.co.uk/MDRSdtmUD/ACME/V1#D-ACME_QSDomain_V17_IGV1> 			<http://www.assero.co.uk/BusinessOperational#optional> 			"false" . 
<http://www.assero.co.uk/MDRSdtmUD/ACME/V1#D-ACME_QSDomain_V17_IGV1> 			<http://www.assero.co.uk/BusinessOperational#local_label> 			"" . 
<http://www.assero.co.uk/MDRSdtmUD/ACME/V1#D-ACME_QSDomain_V17_IGV1> 			<http://www.assero.co.uk/BusinessOperational#enabled> 			"true" . 
<http://www.assero.co.uk/MDRSdtmUD/ACME/V1#D-ACME_QSDomain_V17_IGV1> 			<http://www.assero.co.uk/BusinessOperational#ordinal> 			"1" . 
<http://www.assero.co.uk/MDRSdtmUD/ACME/V1#D-ACME_QSDomain_V17_IGV1> 			<http://www.assero.co.uk/BusinessOperational#hasColumn> 			<http://www.assero.co.uk/MDRSdtmIgD/CDISC/V3#IG-CDISC_SDTMIGQS_QSREASND> . 
<http://www.assero.co.uk/MDRSdtmUD/ACME/V1#D-ACME_QSDomain_V18> 			<http://www.w3.org/1999/02/22-rdf-syntax-ns#type> 			<http://www.assero.co.uk/BusinessDomain#UserVariable> . 
<http://www.assero.co.uk/MDRSdtmUD/ACME/V1#D-ACME_QSDomain_V18> 			<http://www.w3.org/2000/01/rdf-schema#label> 			"Baseline Flag" . 
<http://www.assero.co.uk/MDRSdtmUD/ACME/V1#D-ACME_QSDomain_V18> 			<http://www.assero.co.uk/BusinessDomain#ordinal> 			"18" . 
<http://www.assero.co.uk/MDRSdtmUD/ACME/V1#D-ACME_QSDomain_V18> 			<http://www.assero.co.uk/BusinessDomain#basedOnVariable> 			<http://www.assero.co.uk/MDRSdtmUD/ACME/V1#D-ACME_QSDomain_V18_IGV1> . 
<http://www.assero.co.uk/MDRSdtmUD/ACME/V1#D-ACME_QSDomain_V18> 			<http://www.assero.co.uk/BusinessDomain#notes> 			"" . 
<http://www.assero.co.uk/MDRSdtmUD/ACME/V1#D-ACME_QSDomain_V18> 			<http://www.assero.co.uk/BusinessDomain#name> 			"QSBLFL" . 
<http://www.assero.co.uk/MDRSdtmUD/ACME/V1#D-ACME_QSDomain_V18> 			<http://www.assero.co.uk/BusinessDomain#compliance> 			<http://www.assero.co.uk/MDRSdtmIgD/CDISC/V3#IG-CDISC_SDTMIGQS_C_EXPECTED> . 
<http://www.assero.co.uk/MDRSdtmUD/ACME/V1#D-ACME_QSDomain_V18> 			<http://www.assero.co.uk/BusinessDomain#rule> 			"" . 
<http://www.assero.co.uk/MDRSdtmUD/ACME/V1#D-ACME_QSDomain_V18> 			<http://www.assero.co.uk/BusinessDomain#typedAs> 			<http://www.assero.co.uk/MDRSdtmM/CDISC/V3#M-CDISC_SDTMMODEL_DT_CHAR> . 
<http://www.assero.co.uk/MDRSdtmUD/ACME/V1#D-ACME_QSDomain_V18> 			<http://www.assero.co.uk/BusinessDomain#classifiedAs> 			<http://www.assero.co.uk/MDRSdtmM/CDISC/V3#M-CDISC_SDTMMODEL_SC_RECORDQUALIFIER> . 
<http://www.assero.co.uk/MDRSdtmUD/ACME/V1#D-ACME_QSDomain_V18> 			<http://www.assero.co.uk/BusinessDomain#format> 			"" . 
<http://www.assero.co.uk/MDRSdtmUD/ACME/V1#D-ACME_QSDomain_V18> 			<http://www.assero.co.uk/BusinessDomain#non_standard> 			"false" . 
<http://www.assero.co.uk/MDRSdtmUD/ACME/V1#D-ACME_QSDomain_V18> 			<http://www.assero.co.uk/BusinessDomain#comment> 			"" . 
<http://www.assero.co.uk/MDRSdtmUD/ACME/V1#D-ACME_QSDomain_V18> 			<http://www.assero.co.uk/BusinessDomain#used> 			"true" . 
<http://www.assero.co.uk/MDRSdtmUD/ACME/V1#D-ACME_QSDomain_V18> 			<http://www.assero.co.uk/BusinessDomain#length> 			"0" . 
<http://www.assero.co.uk/MDRSdtmUD/ACME/V1#D-ACME_QSDomain_V18> 			<http://www.assero.co.uk/BusinessDomain#ct> 			"NY" . 
<http://www.assero.co.uk/MDRSdtmUD/ACME/V1#D-ACME_QSDomain_V18> 			<http://www.assero.co.uk/BusinessDomain#key_ordinal> 			"0" . 
<http://www.assero.co.uk/MDRSdtmUD/ACME/V1#D-ACME_QSDomain_V18_IGV1> 			<http://www.w3.org/1999/02/22-rdf-syntax-ns#type> 			<http://www.assero.co.uk/BusinessOperational#CReference> . 
<http://www.assero.co.uk/MDRSdtmUD/ACME/V1#D-ACME_QSDomain_V18_IGV1> 			<http://www.w3.org/2000/01/rdf-schema#label> 			"Based on Variable Reference" . 
<http://www.assero.co.uk/MDRSdtmUD/ACME/V1#D-ACME_QSDomain_V18_IGV1> 			<http://www.assero.co.uk/BusinessOperational#optional> 			"false" . 
<http://www.assero.co.uk/MDRSdtmUD/ACME/V1#D-ACME_QSDomain_V18_IGV1> 			<http://www.assero.co.uk/BusinessOperational#local_label> 			"" . 
<http://www.assero.co.uk/MDRSdtmUD/ACME/V1#D-ACME_QSDomain_V18_IGV1> 			<http://www.assero.co.uk/BusinessOperational#enabled> 			"true" . 
<http://www.assero.co.uk/MDRSdtmUD/ACME/V1#D-ACME_QSDomain_V18_IGV1> 			<http://www.assero.co.uk/BusinessOperational#ordinal> 			"1" . 
<http://www.assero.co.uk/MDRSdtmUD/ACME/V1#D-ACME_QSDomain_V18_IGV1> 			<http://www.assero.co.uk/BusinessOperational#hasColumn> 			<http://www.assero.co.uk/MDRSdtmIgD/CDISC/V3#IG-CDISC_SDTMIGQS_QSBLFL> . 
<http://www.assero.co.uk/MDRSdtmUD/ACME/V1#D-ACME_QSDomain_V19> 			<http://www.w3.org/1999/02/22-rdf-syntax-ns#type> 			<http://www.assero.co.uk/BusinessDomain#UserVariable> . 
<http://www.assero.co.uk/MDRSdtmUD/ACME/V1#D-ACME_QSDomain_V19> 			<http://www.w3.org/2000/01/rdf-schema#label> 			"Derived Flag" . 
<http://www.assero.co.uk/MDRSdtmUD/ACME/V1#D-ACME_QSDomain_V19> 			<http://www.assero.co.uk/BusinessDomain#ordinal> 			"19" . 
<http://www.assero.co.uk/MDRSdtmUD/ACME/V1#D-ACME_QSDomain_V19> 			<http://www.assero.co.uk/BusinessDomain#basedOnVariable> 			<http://www.assero.co.uk/MDRSdtmUD/ACME/V1#D-ACME_QSDomain_V19_IGV1> . 
<http://www.assero.co.uk/MDRSdtmUD/ACME/V1#D-ACME_QSDomain_V19> 			<http://www.assero.co.uk/BusinessDomain#notes> 			"" . 
<http://www.assero.co.uk/MDRSdtmUD/ACME/V1#D-ACME_QSDomain_V19> 			<http://www.assero.co.uk/BusinessDomain#name> 			"QSDRVFL" . 
<http://www.assero.co.uk/MDRSdtmUD/ACME/V1#D-ACME_QSDomain_V19> 			<http://www.assero.co.uk/BusinessDomain#compliance> 			<http://www.assero.co.uk/MDRSdtmIgD/CDISC/V3#IG-CDISC_SDTMIGQS_C_PERMISSIBLE> . 
<http://www.assero.co.uk/MDRSdtmUD/ACME/V1#D-ACME_QSDomain_V19> 			<http://www.assero.co.uk/BusinessDomain#rule> 			"" . 
<http://www.assero.co.uk/MDRSdtmUD/ACME/V1#D-ACME_QSDomain_V19> 			<http://www.assero.co.uk/BusinessDomain#typedAs> 			<http://www.assero.co.uk/MDRSdtmM/CDISC/V3#M-CDISC_SDTMMODEL_DT_CHAR> . 
<http://www.assero.co.uk/MDRSdtmUD/ACME/V1#D-ACME_QSDomain_V19> 			<http://www.assero.co.uk/BusinessDomain#classifiedAs> 			<http://www.assero.co.uk/MDRSdtmM/CDISC/V3#M-CDISC_SDTMMODEL_SC_RECORDQUALIFIER> . 
<http://www.assero.co.uk/MDRSdtmUD/ACME/V1#D-ACME_QSDomain_V19> 			<http://www.assero.co.uk/BusinessDomain#format> 			"" . 
<http://www.assero.co.uk/MDRSdtmUD/ACME/V1#D-ACME_QSDomain_V19> 			<http://www.assero.co.uk/BusinessDomain#non_standard> 			"false" . 
<http://www.assero.co.uk/MDRSdtmUD/ACME/V1#D-ACME_QSDomain_V19> 			<http://www.assero.co.uk/BusinessDomain#comment> 			"" . 
<http://www.assero.co.uk/MDRSdtmUD/ACME/V1#D-ACME_QSDomain_V19> 			<http://www.assero.co.uk/BusinessDomain#used> 			"true" . 
<http://www.assero.co.uk/MDRSdtmUD/ACME/V1#D-ACME_QSDomain_V19> 			<http://www.assero.co.uk/BusinessDomain#length> 			"0" . 
<http://www.assero.co.uk/MDRSdtmUD/ACME/V1#D-ACME_QSDomain_V19> 			<http://www.assero.co.uk/BusinessDomain#ct> 			"NY" . 
<http://www.assero.co.uk/MDRSdtmUD/ACME/V1#D-ACME_QSDomain_V19> 			<http://www.assero.co.uk/BusinessDomain#key_ordinal> 			"0" . 
<http://www.assero.co.uk/MDRSdtmUD/ACME/V1#D-ACME_QSDomain_V19_IGV1> 			<http://www.w3.org/1999/02/22-rdf-syntax-ns#type> 			<http://www.assero.co.uk/BusinessOperational#CReference> . 
<http://www.assero.co.uk/MDRSdtmUD/ACME/V1#D-ACME_QSDomain_V19_IGV1> 			<http://www.w3.org/2000/01/rdf-schema#label> 			"Based on Variable Reference" . 
<http://www.assero.co.uk/MDRSdtmUD/ACME/V1#D-ACME_QSDomain_V19_IGV1> 			<http://www.assero.co.uk/BusinessOperational#optional> 			"false" . 
<http://www.assero.co.uk/MDRSdtmUD/ACME/V1#D-ACME_QSDomain_V19_IGV1> 			<http://www.assero.co.uk/BusinessOperational#local_label> 			"" . 
<http://www.assero.co.uk/MDRSdtmUD/ACME/V1#D-ACME_QSDomain_V19_IGV1> 			<http://www.assero.co.uk/BusinessOperational#enabled> 			"true" . 
<http://www.assero.co.uk/MDRSdtmUD/ACME/V1#D-ACME_QSDomain_V19_IGV1> 			<http://www.assero.co.uk/BusinessOperational#ordinal> 			"1" . 
<http://www.assero.co.uk/MDRSdtmUD/ACME/V1#D-ACME_QSDomain_V19_IGV1> 			<http://www.assero.co.uk/BusinessOperational#hasColumn> 			<http://www.assero.co.uk/MDRSdtmIgD/CDISC/V3#IG-CDISC_SDTMIGQS_QSDRVFL> . 
<http://www.assero.co.uk/MDRSdtmUD/ACME/V1#D-ACME_QSDomain_V20> 			<http://www.w3.org/1999/02/22-rdf-syntax-ns#type> 			<http://www.assero.co.uk/BusinessDomain#UserVariable> . 
<http://www.assero.co.uk/MDRSdtmUD/ACME/V1#D-ACME_QSDomain_V20> 			<http://www.w3.org/2000/01/rdf-schema#label> 			"Evaluator" . 
<http://www.assero.co.uk/MDRSdtmUD/ACME/V1#D-ACME_QSDomain_V20> 			<http://www.assero.co.uk/BusinessDomain#ordinal> 			"20" . 
<http://www.assero.co.uk/MDRSdtmUD/ACME/V1#D-ACME_QSDomain_V20> 			<http://www.assero.co.uk/BusinessDomain#basedOnVariable> 			<http://www.assero.co.uk/MDRSdtmUD/ACME/V1#D-ACME_QSDomain_V20_IGV1> . 
<http://www.assero.co.uk/MDRSdtmUD/ACME/V1#D-ACME_QSDomain_V20> 			<http://www.assero.co.uk/BusinessDomain#notes> 			"" . 
<http://www.assero.co.uk/MDRSdtmUD/ACME/V1#D-ACME_QSDomain_V20> 			<http://www.assero.co.uk/BusinessDomain#name> 			"QSEVAL" . 
<http://www.assero.co.uk/MDRSdtmUD/ACME/V1#D-ACME_QSDomain_V20> 			<http://www.assero.co.uk/BusinessDomain#compliance> 			<http://www.assero.co.uk/MDRSdtmIgD/CDISC/V3#IG-CDISC_SDTMIGQS_C_PERMISSIBLE> . 
<http://www.assero.co.uk/MDRSdtmUD/ACME/V1#D-ACME_QSDomain_V20> 			<http://www.assero.co.uk/BusinessDomain#rule> 			"" . 
<http://www.assero.co.uk/MDRSdtmUD/ACME/V1#D-ACME_QSDomain_V20> 			<http://www.assero.co.uk/BusinessDomain#typedAs> 			<http://www.assero.co.uk/MDRSdtmM/CDISC/V3#M-CDISC_SDTMMODEL_DT_CHAR> . 
<http://www.assero.co.uk/MDRSdtmUD/ACME/V1#D-ACME_QSDomain_V20> 			<http://www.assero.co.uk/BusinessDomain#classifiedAs> 			<http://www.assero.co.uk/MDRSdtmM/CDISC/V3#M-CDISC_SDTMMODEL_SC_RECORDQUALIFIER> . 
<http://www.assero.co.uk/MDRSdtmUD/ACME/V1#D-ACME_QSDomain_V20> 			<http://www.assero.co.uk/BusinessDomain#format> 			"" . 
<http://www.assero.co.uk/MDRSdtmUD/ACME/V1#D-ACME_QSDomain_V20> 			<http://www.assero.co.uk/BusinessDomain#non_standard> 			"false" . 
<http://www.assero.co.uk/MDRSdtmUD/ACME/V1#D-ACME_QSDomain_V20> 			<http://www.assero.co.uk/BusinessDomain#comment> 			"" . 
<http://www.assero.co.uk/MDRSdtmUD/ACME/V1#D-ACME_QSDomain_V20> 			<http://www.assero.co.uk/BusinessDomain#used> 			"true" . 
<http://www.assero.co.uk/MDRSdtmUD/ACME/V1#D-ACME_QSDomain_V20> 			<http://www.assero.co.uk/BusinessDomain#length> 			"0" . 
<http://www.assero.co.uk/MDRSdtmUD/ACME/V1#D-ACME_QSDomain_V20> 			<http://www.assero.co.uk/BusinessDomain#ct> 			"EVAL" . 
<http://www.assero.co.uk/MDRSdtmUD/ACME/V1#D-ACME_QSDomain_V20> 			<http://www.assero.co.uk/BusinessDomain#key_ordinal> 			"0" . 
<http://www.assero.co.uk/MDRSdtmUD/ACME/V1#D-ACME_QSDomain_V20_IGV1> 			<http://www.w3.org/1999/02/22-rdf-syntax-ns#type> 			<http://www.assero.co.uk/BusinessOperational#CReference> . 
<http://www.assero.co.uk/MDRSdtmUD/ACME/V1#D-ACME_QSDomain_V20_IGV1> 			<http://www.w3.org/2000/01/rdf-schema#label> 			"Based on Variable Reference" . 
<http://www.assero.co.uk/MDRSdtmUD/ACME/V1#D-ACME_QSDomain_V20_IGV1> 			<http://www.assero.co.uk/BusinessOperational#optional> 			"false" . 
<http://www.assero.co.uk/MDRSdtmUD/ACME/V1#D-ACME_QSDomain_V20_IGV1> 			<http://www.assero.co.uk/BusinessOperational#local_label> 			"" . 
<http://www.assero.co.uk/MDRSdtmUD/ACME/V1#D-ACME_QSDomain_V20_IGV1> 			<http://www.assero.co.uk/BusinessOperational#enabled> 			"true" . 
<http://www.assero.co.uk/MDRSdtmUD/ACME/V1#D-ACME_QSDomain_V20_IGV1> 			<http://www.assero.co.uk/BusinessOperational#ordinal> 			"1" . 
<http://www.assero.co.uk/MDRSdtmUD/ACME/V1#D-ACME_QSDomain_V20_IGV1> 			<http://www.assero.co.uk/BusinessOperational#hasColumn> 			<http://www.assero.co.uk/MDRSdtmIgD/CDISC/V3#IG-CDISC_SDTMIGQS_QSEVAL> . 
<http://www.assero.co.uk/MDRSdtmUD/ACME/V1#D-ACME_QSDomain_V21> 			<http://www.w3.org/1999/02/22-rdf-syntax-ns#type> 			<http://www.assero.co.uk/BusinessDomain#UserVariable> . 
<http://www.assero.co.uk/MDRSdtmUD/ACME/V1#D-ACME_QSDomain_V21> 			<http://www.w3.org/2000/01/rdf-schema#label> 			"Visit Number" . 
<http://www.assero.co.uk/MDRSdtmUD/ACME/V1#D-ACME_QSDomain_V21> 			<http://www.assero.co.uk/BusinessDomain#ordinal> 			"21" . 
<http://www.assero.co.uk/MDRSdtmUD/ACME/V1#D-ACME_QSDomain_V21> 			<http://www.assero.co.uk/BusinessDomain#basedOnVariable> 			<http://www.assero.co.uk/MDRSdtmUD/ACME/V1#D-ACME_QSDomain_V21_IGV1> . 
<http://www.assero.co.uk/MDRSdtmUD/ACME/V1#D-ACME_QSDomain_V21> 			<http://www.assero.co.uk/BusinessDomain#notes> 			"" . 
<http://www.assero.co.uk/MDRSdtmUD/ACME/V1#D-ACME_QSDomain_V21> 			<http://www.assero.co.uk/BusinessDomain#name> 			"VISITNUM" . 
<http://www.assero.co.uk/MDRSdtmUD/ACME/V1#D-ACME_QSDomain_V21> 			<http://www.assero.co.uk/BusinessDomain#compliance> 			<http://www.assero.co.uk/MDRSdtmIgD/CDISC/V3#IG-CDISC_SDTMIGQS_C_EXPECTED> . 
<http://www.assero.co.uk/MDRSdtmUD/ACME/V1#D-ACME_QSDomain_V21> 			<http://www.assero.co.uk/BusinessDomain#rule> 			"" . 
<http://www.assero.co.uk/MDRSdtmUD/ACME/V1#D-ACME_QSDomain_V21> 			<http://www.assero.co.uk/BusinessDomain#typedAs> 			<http://www.assero.co.uk/MDRSdtmM/CDISC/V3#M-CDISC_SDTMMODEL_DT_NUM> . 
<http://www.assero.co.uk/MDRSdtmUD/ACME/V1#D-ACME_QSDomain_V21> 			<http://www.assero.co.uk/BusinessDomain#classifiedAs> 			<http://www.assero.co.uk/MDRSdtmM/CDISC/V3#M-CDISC_SDTMMODEL_C_TIMING> . 
<http://www.assero.co.uk/MDRSdtmUD/ACME/V1#D-ACME_QSDomain_V21> 			<http://www.assero.co.uk/BusinessDomain#format> 			"" . 
<http://www.assero.co.uk/MDRSdtmUD/ACME/V1#D-ACME_QSDomain_V21> 			<http://www.assero.co.uk/BusinessDomain#non_standard> 			"false" . 
<http://www.assero.co.uk/MDRSdtmUD/ACME/V1#D-ACME_QSDomain_V21> 			<http://www.assero.co.uk/BusinessDomain#comment> 			"" . 
<http://www.assero.co.uk/MDRSdtmUD/ACME/V1#D-ACME_QSDomain_V21> 			<http://www.assero.co.uk/BusinessDomain#used> 			"true" . 
<http://www.assero.co.uk/MDRSdtmUD/ACME/V1#D-ACME_QSDomain_V21> 			<http://www.assero.co.uk/BusinessDomain#length> 			"0" . 
<http://www.assero.co.uk/MDRSdtmUD/ACME/V1#D-ACME_QSDomain_V21> 			<http://www.assero.co.uk/BusinessDomain#ct> 			"" . 
<http://www.assero.co.uk/MDRSdtmUD/ACME/V1#D-ACME_QSDomain_V21> 			<http://www.assero.co.uk/BusinessDomain#key_ordinal> 			"0" . 
<http://www.assero.co.uk/MDRSdtmUD/ACME/V1#D-ACME_QSDomain_V21_IGV1> 			<http://www.w3.org/1999/02/22-rdf-syntax-ns#type> 			<http://www.assero.co.uk/BusinessOperational#CReference> . 
<http://www.assero.co.uk/MDRSdtmUD/ACME/V1#D-ACME_QSDomain_V21_IGV1> 			<http://www.w3.org/2000/01/rdf-schema#label> 			"Based on Variable Reference" . 
<http://www.assero.co.uk/MDRSdtmUD/ACME/V1#D-ACME_QSDomain_V21_IGV1> 			<http://www.assero.co.uk/BusinessOperational#optional> 			"false" . 
<http://www.assero.co.uk/MDRSdtmUD/ACME/V1#D-ACME_QSDomain_V21_IGV1> 			<http://www.assero.co.uk/BusinessOperational#local_label> 			"" . 
<http://www.assero.co.uk/MDRSdtmUD/ACME/V1#D-ACME_QSDomain_V21_IGV1> 			<http://www.assero.co.uk/BusinessOperational#enabled> 			"true" . 
<http://www.assero.co.uk/MDRSdtmUD/ACME/V1#D-ACME_QSDomain_V21_IGV1> 			<http://www.assero.co.uk/BusinessOperational#ordinal> 			"1" . 
<http://www.assero.co.uk/MDRSdtmUD/ACME/V1#D-ACME_QSDomain_V21_IGV1> 			<http://www.assero.co.uk/BusinessOperational#hasColumn> 			<http://www.assero.co.uk/MDRSdtmIgD/CDISC/V3#IG-CDISC_SDTMIGQS_VISITNUM> . 
<http://www.assero.co.uk/MDRSdtmUD/ACME/V1#D-ACME_QSDomain_V22> 			<http://www.w3.org/1999/02/22-rdf-syntax-ns#type> 			<http://www.assero.co.uk/BusinessDomain#UserVariable> . 
<http://www.assero.co.uk/MDRSdtmUD/ACME/V1#D-ACME_QSDomain_V22> 			<http://www.w3.org/2000/01/rdf-schema#label> 			"Visit Name" . 
<http://www.assero.co.uk/MDRSdtmUD/ACME/V1#D-ACME_QSDomain_V22> 			<http://www.assero.co.uk/BusinessDomain#ordinal> 			"22" . 
<http://www.assero.co.uk/MDRSdtmUD/ACME/V1#D-ACME_QSDomain_V22> 			<http://www.assero.co.uk/BusinessDomain#basedOnVariable> 			<http://www.assero.co.uk/MDRSdtmUD/ACME/V1#D-ACME_QSDomain_V22_IGV1> . 
<http://www.assero.co.uk/MDRSdtmUD/ACME/V1#D-ACME_QSDomain_V22> 			<http://www.assero.co.uk/BusinessDomain#notes> 			"" . 
<http://www.assero.co.uk/MDRSdtmUD/ACME/V1#D-ACME_QSDomain_V22> 			<http://www.assero.co.uk/BusinessDomain#name> 			"VISIT" . 
<http://www.assero.co.uk/MDRSdtmUD/ACME/V1#D-ACME_QSDomain_V22> 			<http://www.assero.co.uk/BusinessDomain#compliance> 			<http://www.assero.co.uk/MDRSdtmIgD/CDISC/V3#IG-CDISC_SDTMIGQS_C_PERMISSIBLE> . 
<http://www.assero.co.uk/MDRSdtmUD/ACME/V1#D-ACME_QSDomain_V22> 			<http://www.assero.co.uk/BusinessDomain#rule> 			"" . 
<http://www.assero.co.uk/MDRSdtmUD/ACME/V1#D-ACME_QSDomain_V22> 			<http://www.assero.co.uk/BusinessDomain#typedAs> 			<http://www.assero.co.uk/MDRSdtmM/CDISC/V3#M-CDISC_SDTMMODEL_DT_CHAR> . 
<http://www.assero.co.uk/MDRSdtmUD/ACME/V1#D-ACME_QSDomain_V22> 			<http://www.assero.co.uk/BusinessDomain#classifiedAs> 			<http://www.assero.co.uk/MDRSdtmM/CDISC/V3#M-CDISC_SDTMMODEL_C_TIMING> . 
<http://www.assero.co.uk/MDRSdtmUD/ACME/V1#D-ACME_QSDomain_V22> 			<http://www.assero.co.uk/BusinessDomain#format> 			"" . 
<http://www.assero.co.uk/MDRSdtmUD/ACME/V1#D-ACME_QSDomain_V22> 			<http://www.assero.co.uk/BusinessDomain#non_standard> 			"false" . 
<http://www.assero.co.uk/MDRSdtmUD/ACME/V1#D-ACME_QSDomain_V22> 			<http://www.assero.co.uk/BusinessDomain#comment> 			"" . 
<http://www.assero.co.uk/MDRSdtmUD/ACME/V1#D-ACME_QSDomain_V22> 			<http://www.assero.co.uk/BusinessDomain#used> 			"true" . 
<http://www.assero.co.uk/MDRSdtmUD/ACME/V1#D-ACME_QSDomain_V22> 			<http://www.assero.co.uk/BusinessDomain#length> 			"0" . 
<http://www.assero.co.uk/MDRSdtmUD/ACME/V1#D-ACME_QSDomain_V22> 			<http://www.assero.co.uk/BusinessDomain#ct> 			"" . 
<http://www.assero.co.uk/MDRSdtmUD/ACME/V1#D-ACME_QSDomain_V22> 			<http://www.assero.co.uk/BusinessDomain#key_ordinal> 			"0" . 
<http://www.assero.co.uk/MDRSdtmUD/ACME/V1#D-ACME_QSDomain_V22_IGV1> 			<http://www.w3.org/1999/02/22-rdf-syntax-ns#type> 			<http://www.assero.co.uk/BusinessOperational#CReference> . 
<http://www.assero.co.uk/MDRSdtmUD/ACME/V1#D-ACME_QSDomain_V22_IGV1> 			<http://www.w3.org/2000/01/rdf-schema#label> 			"Based on Variable Reference" . 
<http://www.assero.co.uk/MDRSdtmUD/ACME/V1#D-ACME_QSDomain_V22_IGV1> 			<http://www.assero.co.uk/BusinessOperational#optional> 			"false" . 
<http://www.assero.co.uk/MDRSdtmUD/ACME/V1#D-ACME_QSDomain_V22_IGV1> 			<http://www.assero.co.uk/BusinessOperational#local_label> 			"" . 
<http://www.assero.co.uk/MDRSdtmUD/ACME/V1#D-ACME_QSDomain_V22_IGV1> 			<http://www.assero.co.uk/BusinessOperational#enabled> 			"true" . 
<http://www.assero.co.uk/MDRSdtmUD/ACME/V1#D-ACME_QSDomain_V22_IGV1> 			<http://www.assero.co.uk/BusinessOperational#ordinal> 			"1" . 
<http://www.assero.co.uk/MDRSdtmUD/ACME/V1#D-ACME_QSDomain_V22_IGV1> 			<http://www.assero.co.uk/BusinessOperational#hasColumn> 			<http://www.assero.co.uk/MDRSdtmIgD/CDISC/V3#IG-CDISC_SDTMIGQS_VISIT> . 
<http://www.assero.co.uk/MDRSdtmUD/ACME/V1#D-ACME_QSDomain_V23> 			<http://www.w3.org/1999/02/22-rdf-syntax-ns#type> 			<http://www.assero.co.uk/BusinessDomain#UserVariable> . 
<http://www.assero.co.uk/MDRSdtmUD/ACME/V1#D-ACME_QSDomain_V23> 			<http://www.w3.org/2000/01/rdf-schema#label> 			"Planned Study Day of Visit" . 
<http://www.assero.co.uk/MDRSdtmUD/ACME/V1#D-ACME_QSDomain_V23> 			<http://www.assero.co.uk/BusinessDomain#ordinal> 			"23" . 
<http://www.assero.co.uk/MDRSdtmUD/ACME/V1#D-ACME_QSDomain_V23> 			<http://www.assero.co.uk/BusinessDomain#basedOnVariable> 			<http://www.assero.co.uk/MDRSdtmUD/ACME/V1#D-ACME_QSDomain_V23_IGV1> . 
<http://www.assero.co.uk/MDRSdtmUD/ACME/V1#D-ACME_QSDomain_V23> 			<http://www.assero.co.uk/BusinessDomain#notes> 			"" . 
<http://www.assero.co.uk/MDRSdtmUD/ACME/V1#D-ACME_QSDomain_V23> 			<http://www.assero.co.uk/BusinessDomain#name> 			"VISITDY" . 
<http://www.assero.co.uk/MDRSdtmUD/ACME/V1#D-ACME_QSDomain_V23> 			<http://www.assero.co.uk/BusinessDomain#compliance> 			<http://www.assero.co.uk/MDRSdtmIgD/CDISC/V3#IG-CDISC_SDTMIGQS_C_PERMISSIBLE> . 
<http://www.assero.co.uk/MDRSdtmUD/ACME/V1#D-ACME_QSDomain_V23> 			<http://www.assero.co.uk/BusinessDomain#rule> 			"" . 
<http://www.assero.co.uk/MDRSdtmUD/ACME/V1#D-ACME_QSDomain_V23> 			<http://www.assero.co.uk/BusinessDomain#typedAs> 			<http://www.assero.co.uk/MDRSdtmM/CDISC/V3#M-CDISC_SDTMMODEL_DT_NUM> . 
<http://www.assero.co.uk/MDRSdtmUD/ACME/V1#D-ACME_QSDomain_V23> 			<http://www.assero.co.uk/BusinessDomain#classifiedAs> 			<http://www.assero.co.uk/MDRSdtmM/CDISC/V3#M-CDISC_SDTMMODEL_C_TIMING> . 
<http://www.assero.co.uk/MDRSdtmUD/ACME/V1#D-ACME_QSDomain_V23> 			<http://www.assero.co.uk/BusinessDomain#format> 			"" . 
<http://www.assero.co.uk/MDRSdtmUD/ACME/V1#D-ACME_QSDomain_V23> 			<http://www.assero.co.uk/BusinessDomain#non_standard> 			"false" . 
<http://www.assero.co.uk/MDRSdtmUD/ACME/V1#D-ACME_QSDomain_V23> 			<http://www.assero.co.uk/BusinessDomain#comment> 			"" . 
<http://www.assero.co.uk/MDRSdtmUD/ACME/V1#D-ACME_QSDomain_V23> 			<http://www.assero.co.uk/BusinessDomain#used> 			"true" . 
<http://www.assero.co.uk/MDRSdtmUD/ACME/V1#D-ACME_QSDomain_V23> 			<http://www.assero.co.uk/BusinessDomain#length> 			"0" . 
<http://www.assero.co.uk/MDRSdtmUD/ACME/V1#D-ACME_QSDomain_V23> 			<http://www.assero.co.uk/BusinessDomain#ct> 			"" . 
<http://www.assero.co.uk/MDRSdtmUD/ACME/V1#D-ACME_QSDomain_V23> 			<http://www.assero.co.uk/BusinessDomain#key_ordinal> 			"0" . 
<http://www.assero.co.uk/MDRSdtmUD/ACME/V1#D-ACME_QSDomain_V23_IGV1> 			<http://www.w3.org/1999/02/22-rdf-syntax-ns#type> 			<http://www.assero.co.uk/BusinessOperational#CReference> . 
<http://www.assero.co.uk/MDRSdtmUD/ACME/V1#D-ACME_QSDomain_V23_IGV1> 			<http://www.w3.org/2000/01/rdf-schema#label> 			"Based on Variable Reference" . 
<http://www.assero.co.uk/MDRSdtmUD/ACME/V1#D-ACME_QSDomain_V23_IGV1> 			<http://www.assero.co.uk/BusinessOperational#optional> 			"false" . 
<http://www.assero.co.uk/MDRSdtmUD/ACME/V1#D-ACME_QSDomain_V23_IGV1> 			<http://www.assero.co.uk/BusinessOperational#local_label> 			"" . 
<http://www.assero.co.uk/MDRSdtmUD/ACME/V1#D-ACME_QSDomain_V23_IGV1> 			<http://www.assero.co.uk/BusinessOperational#enabled> 			"true" . 
<http://www.assero.co.uk/MDRSdtmUD/ACME/V1#D-ACME_QSDomain_V23_IGV1> 			<http://www.assero.co.uk/BusinessOperational#ordinal> 			"1" . 
<http://www.assero.co.uk/MDRSdtmUD/ACME/V1#D-ACME_QSDomain_V23_IGV1> 			<http://www.assero.co.uk/BusinessOperational#hasColumn> 			<http://www.assero.co.uk/MDRSdtmIgD/CDISC/V3#IG-CDISC_SDTMIGQS_VISITDY> . 
<http://www.assero.co.uk/MDRSdtmUD/ACME/V1#D-ACME_QSDomain_V24> 			<http://www.w3.org/1999/02/22-rdf-syntax-ns#type> 			<http://www.assero.co.uk/BusinessDomain#UserVariable> . 
<http://www.assero.co.uk/MDRSdtmUD/ACME/V1#D-ACME_QSDomain_V24> 			<http://www.w3.org/2000/01/rdf-schema#label> 			"Date/Time of Finding" . 
<http://www.assero.co.uk/MDRSdtmUD/ACME/V1#D-ACME_QSDomain_V24> 			<http://www.assero.co.uk/BusinessDomain#ordinal> 			"24" . 
<http://www.assero.co.uk/MDRSdtmUD/ACME/V1#D-ACME_QSDomain_V24> 			<http://www.assero.co.uk/BusinessDomain#basedOnVariable> 			<http://www.assero.co.uk/MDRSdtmUD/ACME/V1#D-ACME_QSDomain_V24_IGV1> . 
<http://www.assero.co.uk/MDRSdtmUD/ACME/V1#D-ACME_QSDomain_V24> 			<http://www.assero.co.uk/BusinessDomain#notes> 			"" . 
<http://www.assero.co.uk/MDRSdtmUD/ACME/V1#D-ACME_QSDomain_V24> 			<http://www.assero.co.uk/BusinessDomain#name> 			"QSDTC" . 
<http://www.assero.co.uk/MDRSdtmUD/ACME/V1#D-ACME_QSDomain_V24> 			<http://www.assero.co.uk/BusinessDomain#compliance> 			<http://www.assero.co.uk/MDRSdtmIgD/CDISC/V3#IG-CDISC_SDTMIGQS_C_EXPECTED> . 
<http://www.assero.co.uk/MDRSdtmUD/ACME/V1#D-ACME_QSDomain_V24> 			<http://www.assero.co.uk/BusinessDomain#rule> 			"" . 
<http://www.assero.co.uk/MDRSdtmUD/ACME/V1#D-ACME_QSDomain_V24> 			<http://www.assero.co.uk/BusinessDomain#typedAs> 			<http://www.assero.co.uk/MDRSdtmM/CDISC/V3#M-CDISC_SDTMMODEL_DT_CHAR> . 
<http://www.assero.co.uk/MDRSdtmUD/ACME/V1#D-ACME_QSDomain_V24> 			<http://www.assero.co.uk/BusinessDomain#classifiedAs> 			<http://www.assero.co.uk/MDRSdtmM/CDISC/V3#M-CDISC_SDTMMODEL_C_TIMING> . 
<http://www.assero.co.uk/MDRSdtmUD/ACME/V1#D-ACME_QSDomain_V24> 			<http://www.assero.co.uk/BusinessDomain#format> 			"ISO 8601" . 
<http://www.assero.co.uk/MDRSdtmUD/ACME/V1#D-ACME_QSDomain_V24> 			<http://www.assero.co.uk/BusinessDomain#non_standard> 			"false" . 
<http://www.assero.co.uk/MDRSdtmUD/ACME/V1#D-ACME_QSDomain_V24> 			<http://www.assero.co.uk/BusinessDomain#comment> 			"" . 
<http://www.assero.co.uk/MDRSdtmUD/ACME/V1#D-ACME_QSDomain_V24> 			<http://www.assero.co.uk/BusinessDomain#hasProperty> 			<http://www.assero.co.uk/MDRSdtmUD/ACME/V1#D-ACME_QSDomain_V24_PR2> . 
<http://www.assero.co.uk/MDRSdtmUD/ACME/V1#D-ACME_QSDomain_V24> 			<http://www.assero.co.uk/BusinessDomain#hasProperty> 			<http://www.assero.co.uk/MDRSdtmUD/ACME/V1#D-ACME_QSDomain_V24_PR3> . 
<http://www.assero.co.uk/MDRSdtmUD/ACME/V1#D-ACME_QSDomain_V24> 			<http://www.assero.co.uk/BusinessDomain#hasProperty> 			<http://www.assero.co.uk/MDRSdtmUD/ACME/V1#D-ACME_QSDomain_V24_PR4> . 
<http://www.assero.co.uk/MDRSdtmUD/ACME/V1#D-ACME_QSDomain_V24> 			<http://www.assero.co.uk/BusinessDomain#hasProperty> 			<http://www.assero.co.uk/MDRSdtmUD/ACME/V1#D-ACME_QSDomain_V24_PR5> . 
<http://www.assero.co.uk/MDRSdtmUD/ACME/V1#D-ACME_QSDomain_V24> 			<http://www.assero.co.uk/BusinessDomain#hasProperty> 			<http://www.assero.co.uk/MDRSdtmUD/ACME/V1#D-ACME_QSDomain_V24_PR6> . 
<http://www.assero.co.uk/MDRSdtmUD/ACME/V1#D-ACME_QSDomain_V24> 			<http://www.assero.co.uk/BusinessDomain#hasProperty> 			<http://www.assero.co.uk/MDRSdtmUD/ACME/V1#D-ACME_QSDomain_V24_PR7> . 
<http://www.assero.co.uk/MDRSdtmUD/ACME/V1#D-ACME_QSDomain_V24> 			<http://www.assero.co.uk/BusinessDomain#used> 			"true" . 
<http://www.assero.co.uk/MDRSdtmUD/ACME/V1#D-ACME_QSDomain_V24> 			<http://www.assero.co.uk/BusinessDomain#length> 			"0" . 
<http://www.assero.co.uk/MDRSdtmUD/ACME/V1#D-ACME_QSDomain_V24> 			<http://www.assero.co.uk/BusinessDomain#ct> 			"" . 
<http://www.assero.co.uk/MDRSdtmUD/ACME/V1#D-ACME_QSDomain_V24> 			<http://www.assero.co.uk/BusinessDomain#key_ordinal> 			"0" . 
<http://www.assero.co.uk/MDRSdtmUD/ACME/V1#D-ACME_QSDomain_V24_IGV1> 			<http://www.w3.org/1999/02/22-rdf-syntax-ns#type> 			<http://www.assero.co.uk/BusinessOperational#CReference> . 
<http://www.assero.co.uk/MDRSdtmUD/ACME/V1#D-ACME_QSDomain_V24_IGV1> 			<http://www.w3.org/2000/01/rdf-schema#label> 			"Based on Variable Reference" . 
<http://www.assero.co.uk/MDRSdtmUD/ACME/V1#D-ACME_QSDomain_V24_IGV1> 			<http://www.assero.co.uk/BusinessOperational#optional> 			"false" . 
<http://www.assero.co.uk/MDRSdtmUD/ACME/V1#D-ACME_QSDomain_V24_IGV1> 			<http://www.assero.co.uk/BusinessOperational#local_label> 			"" . 
<http://www.assero.co.uk/MDRSdtmUD/ACME/V1#D-ACME_QSDomain_V24_IGV1> 			<http://www.assero.co.uk/BusinessOperational#enabled> 			"true" . 
<http://www.assero.co.uk/MDRSdtmUD/ACME/V1#D-ACME_QSDomain_V24_IGV1> 			<http://www.assero.co.uk/BusinessOperational#ordinal> 			"1" . 
<http://www.assero.co.uk/MDRSdtmUD/ACME/V1#D-ACME_QSDomain_V24_IGV1> 			<http://www.assero.co.uk/BusinessOperational#hasColumn> 			<http://www.assero.co.uk/MDRSdtmIgD/CDISC/V3#IG-CDISC_SDTMIGQS_QSDTC> . 
<http://www.assero.co.uk/MDRSdtmUD/ACME/V1#D-ACME_QSDomain_V24_PR2> 			<http://www.w3.org/1999/02/22-rdf-syntax-ns#type> 			<http://www.assero.co.uk/BusinessOperational#PReference> . 
<http://www.assero.co.uk/MDRSdtmUD/ACME/V1#D-ACME_QSDomain_V24_PR2> 			<http://www.w3.org/2000/01/rdf-schema#label> 			"BC Property Reference" . 
<http://www.assero.co.uk/MDRSdtmUD/ACME/V1#D-ACME_QSDomain_V24_PR2> 			<http://www.assero.co.uk/BusinessOperational#optional> 			"false" . 
<http://www.assero.co.uk/MDRSdtmUD/ACME/V1#D-ACME_QSDomain_V24_PR2> 			<http://www.assero.co.uk/BusinessOperational#hasProperty> 			<http://www.assero.co.uk/MDRBCs/ACME/V1#BC-ACME_BCC100392_I8_DT1_P1_DT1_P1> . 
<http://www.assero.co.uk/MDRSdtmUD/ACME/V1#D-ACME_QSDomain_V24_PR2> 			<http://www.assero.co.uk/BusinessOperational#local_label> 			"" . 
<http://www.assero.co.uk/MDRSdtmUD/ACME/V1#D-ACME_QSDomain_V24_PR2> 			<http://www.assero.co.uk/BusinessOperational#enabled> 			"true" . 
<http://www.assero.co.uk/MDRSdtmUD/ACME/V1#D-ACME_QSDomain_V24_PR2> 			<http://www.assero.co.uk/BusinessOperational#ordinal> 			"2" . 
<http://www.assero.co.uk/MDRSdtmUD/ACME/V1#D-ACME_QSDomain_V24_PR3> 			<http://www.w3.org/1999/02/22-rdf-syntax-ns#type> 			<http://www.assero.co.uk/BusinessOperational#PReference> . 
<http://www.assero.co.uk/MDRSdtmUD/ACME/V1#D-ACME_QSDomain_V24_PR3> 			<http://www.w3.org/2000/01/rdf-schema#label> 			"BC Property Reference" . 
<http://www.assero.co.uk/MDRSdtmUD/ACME/V1#D-ACME_QSDomain_V24_PR3> 			<http://www.assero.co.uk/BusinessOperational#optional> 			"false" . 
<http://www.assero.co.uk/MDRSdtmUD/ACME/V1#D-ACME_QSDomain_V24_PR3> 			<http://www.assero.co.uk/BusinessOperational#hasProperty> 			<http://www.assero.co.uk/MDRBCs/ACME/V1#BC-ACME_BCC100393_I8_DT1_P1_DT1_P1> . 
<http://www.assero.co.uk/MDRSdtmUD/ACME/V1#D-ACME_QSDomain_V24_PR3> 			<http://www.assero.co.uk/BusinessOperational#local_label> 			"" . 
<http://www.assero.co.uk/MDRSdtmUD/ACME/V1#D-ACME_QSDomain_V24_PR3> 			<http://www.assero.co.uk/BusinessOperational#enabled> 			"true" . 
<http://www.assero.co.uk/MDRSdtmUD/ACME/V1#D-ACME_QSDomain_V24_PR3> 			<http://www.assero.co.uk/BusinessOperational#ordinal> 			"3" . 
<http://www.assero.co.uk/MDRSdtmUD/ACME/V1#D-ACME_QSDomain_V24_PR4> 			<http://www.w3.org/1999/02/22-rdf-syntax-ns#type> 			<http://www.assero.co.uk/BusinessOperational#PReference> . 
<http://www.assero.co.uk/MDRSdtmUD/ACME/V1#D-ACME_QSDomain_V24_PR4> 			<http://www.w3.org/2000/01/rdf-schema#label> 			"BC Property Reference" . 
<http://www.assero.co.uk/MDRSdtmUD/ACME/V1#D-ACME_QSDomain_V24_PR4> 			<http://www.assero.co.uk/BusinessOperational#optional> 			"false" . 
<http://www.assero.co.uk/MDRSdtmUD/ACME/V1#D-ACME_QSDomain_V24_PR4> 			<http://www.assero.co.uk/BusinessOperational#hasProperty> 			<http://www.assero.co.uk/MDRBCs/ACME/V1#BC-ACME_BCC100394_I8_DT1_P1_DT1_P1> . 
<http://www.assero.co.uk/MDRSdtmUD/ACME/V1#D-ACME_QSDomain_V24_PR4> 			<http://www.assero.co.uk/BusinessOperational#local_label> 			"" . 
<http://www.assero.co.uk/MDRSdtmUD/ACME/V1#D-ACME_QSDomain_V24_PR4> 			<http://www.assero.co.uk/BusinessOperational#enabled> 			"true" . 
<http://www.assero.co.uk/MDRSdtmUD/ACME/V1#D-ACME_QSDomain_V24_PR4> 			<http://www.assero.co.uk/BusinessOperational#ordinal> 			"4" . 
<http://www.assero.co.uk/MDRSdtmUD/ACME/V1#D-ACME_QSDomain_V24_PR5> 			<http://www.w3.org/1999/02/22-rdf-syntax-ns#type> 			<http://www.assero.co.uk/BusinessOperational#PReference> . 
<http://www.assero.co.uk/MDRSdtmUD/ACME/V1#D-ACME_QSDomain_V24_PR5> 			<http://www.w3.org/2000/01/rdf-schema#label> 			"BC Property Reference" . 
<http://www.assero.co.uk/MDRSdtmUD/ACME/V1#D-ACME_QSDomain_V24_PR5> 			<http://www.assero.co.uk/BusinessOperational#optional> 			"false" . 
<http://www.assero.co.uk/MDRSdtmUD/ACME/V1#D-ACME_QSDomain_V24_PR5> 			<http://www.assero.co.uk/BusinessOperational#hasProperty> 			<http://www.assero.co.uk/MDRBCs/ACME/V1#BC-ACME_BCC100395_I8_DT1_P1_DT1_P1> . 
<http://www.assero.co.uk/MDRSdtmUD/ACME/V1#D-ACME_QSDomain_V24_PR5> 			<http://www.assero.co.uk/BusinessOperational#local_label> 			"" . 
<http://www.assero.co.uk/MDRSdtmUD/ACME/V1#D-ACME_QSDomain_V24_PR5> 			<http://www.assero.co.uk/BusinessOperational#enabled> 			"true" . 
<http://www.assero.co.uk/MDRSdtmUD/ACME/V1#D-ACME_QSDomain_V24_PR5> 			<http://www.assero.co.uk/BusinessOperational#ordinal> 			"5" . 
<http://www.assero.co.uk/MDRSdtmUD/ACME/V1#D-ACME_QSDomain_V24_PR6> 			<http://www.w3.org/1999/02/22-rdf-syntax-ns#type> 			<http://www.assero.co.uk/BusinessOperational#PReference> . 
<http://www.assero.co.uk/MDRSdtmUD/ACME/V1#D-ACME_QSDomain_V24_PR6> 			<http://www.w3.org/2000/01/rdf-schema#label> 			"BC Property Reference" . 
<http://www.assero.co.uk/MDRSdtmUD/ACME/V1#D-ACME_QSDomain_V24_PR6> 			<http://www.assero.co.uk/BusinessOperational#optional> 			"false" . 
<http://www.assero.co.uk/MDRSdtmUD/ACME/V1#D-ACME_QSDomain_V24_PR6> 			<http://www.assero.co.uk/BusinessOperational#hasProperty> 			<http://www.assero.co.uk/MDRBCs/ACME/V1#BC-ACME_BCC100396_I8_DT1_P1_DT1_P1> . 
<http://www.assero.co.uk/MDRSdtmUD/ACME/V1#D-ACME_QSDomain_V24_PR6> 			<http://www.assero.co.uk/BusinessOperational#local_label> 			"" . 
<http://www.assero.co.uk/MDRSdtmUD/ACME/V1#D-ACME_QSDomain_V24_PR6> 			<http://www.assero.co.uk/BusinessOperational#enabled> 			"true" . 
<http://www.assero.co.uk/MDRSdtmUD/ACME/V1#D-ACME_QSDomain_V24_PR6> 			<http://www.assero.co.uk/BusinessOperational#ordinal> 			"6" . 
<http://www.assero.co.uk/MDRSdtmUD/ACME/V1#D-ACME_QSDomain_V24_PR7> 			<http://www.w3.org/1999/02/22-rdf-syntax-ns#type> 			<http://www.assero.co.uk/BusinessOperational#PReference> . 
<http://www.assero.co.uk/MDRSdtmUD/ACME/V1#D-ACME_QSDomain_V24_PR7> 			<http://www.w3.org/2000/01/rdf-schema#label> 			"BC Property Reference" . 
<http://www.assero.co.uk/MDRSdtmUD/ACME/V1#D-ACME_QSDomain_V24_PR7> 			<http://www.assero.co.uk/BusinessOperational#optional> 			"false" . 
<http://www.assero.co.uk/MDRSdtmUD/ACME/V1#D-ACME_QSDomain_V24_PR7> 			<http://www.assero.co.uk/BusinessOperational#hasProperty> 			<http://www.assero.co.uk/MDRBCs/ACME/V1#BC-ACME_BCC100397_I8_DT1_P1_DT1_P1> . 
<http://www.assero.co.uk/MDRSdtmUD/ACME/V1#D-ACME_QSDomain_V24_PR7> 			<http://www.assero.co.uk/BusinessOperational#local_label> 			"" . 
<http://www.assero.co.uk/MDRSdtmUD/ACME/V1#D-ACME_QSDomain_V24_PR7> 			<http://www.assero.co.uk/BusinessOperational#enabled> 			"true" . 
<http://www.assero.co.uk/MDRSdtmUD/ACME/V1#D-ACME_QSDomain_V24_PR7> 			<http://www.assero.co.uk/BusinessOperational#ordinal> 			"7" . 
<http://www.assero.co.uk/MDRSdtmUD/ACME/V1#D-ACME_QSDomain_V25> 			<http://www.w3.org/1999/02/22-rdf-syntax-ns#type> 			<http://www.assero.co.uk/BusinessDomain#UserVariable> . 
<http://www.assero.co.uk/MDRSdtmUD/ACME/V1#D-ACME_QSDomain_V25> 			<http://www.w3.org/2000/01/rdf-schema#label> 			"Study Day of Finding" . 
<http://www.assero.co.uk/MDRSdtmUD/ACME/V1#D-ACME_QSDomain_V25> 			<http://www.assero.co.uk/BusinessDomain#ordinal> 			"25" . 
<http://www.assero.co.uk/MDRSdtmUD/ACME/V1#D-ACME_QSDomain_V25> 			<http://www.assero.co.uk/BusinessDomain#basedOnVariable> 			<http://www.assero.co.uk/MDRSdtmUD/ACME/V1#D-ACME_QSDomain_V25_IGV1> . 
<http://www.assero.co.uk/MDRSdtmUD/ACME/V1#D-ACME_QSDomain_V25> 			<http://www.assero.co.uk/BusinessDomain#notes> 			"" . 
<http://www.assero.co.uk/MDRSdtmUD/ACME/V1#D-ACME_QSDomain_V25> 			<http://www.assero.co.uk/BusinessDomain#name> 			"QSDY" . 
<http://www.assero.co.uk/MDRSdtmUD/ACME/V1#D-ACME_QSDomain_V25> 			<http://www.assero.co.uk/BusinessDomain#compliance> 			<http://www.assero.co.uk/MDRSdtmIgD/CDISC/V3#IG-CDISC_SDTMIGQS_C_PERMISSIBLE> . 
<http://www.assero.co.uk/MDRSdtmUD/ACME/V1#D-ACME_QSDomain_V25> 			<http://www.assero.co.uk/BusinessDomain#rule> 			"" . 
<http://www.assero.co.uk/MDRSdtmUD/ACME/V1#D-ACME_QSDomain_V25> 			<http://www.assero.co.uk/BusinessDomain#typedAs> 			<http://www.assero.co.uk/MDRSdtmM/CDISC/V3#M-CDISC_SDTMMODEL_DT_NUM> . 
<http://www.assero.co.uk/MDRSdtmUD/ACME/V1#D-ACME_QSDomain_V25> 			<http://www.assero.co.uk/BusinessDomain#classifiedAs> 			<http://www.assero.co.uk/MDRSdtmM/CDISC/V3#M-CDISC_SDTMMODEL_C_TIMING> . 
<http://www.assero.co.uk/MDRSdtmUD/ACME/V1#D-ACME_QSDomain_V25> 			<http://www.assero.co.uk/BusinessDomain#format> 			"" . 
<http://www.assero.co.uk/MDRSdtmUD/ACME/V1#D-ACME_QSDomain_V25> 			<http://www.assero.co.uk/BusinessDomain#non_standard> 			"false" . 
<http://www.assero.co.uk/MDRSdtmUD/ACME/V1#D-ACME_QSDomain_V25> 			<http://www.assero.co.uk/BusinessDomain#comment> 			"" . 
<http://www.assero.co.uk/MDRSdtmUD/ACME/V1#D-ACME_QSDomain_V25> 			<http://www.assero.co.uk/BusinessDomain#used> 			"true" . 
<http://www.assero.co.uk/MDRSdtmUD/ACME/V1#D-ACME_QSDomain_V25> 			<http://www.assero.co.uk/BusinessDomain#length> 			"0" . 
<http://www.assero.co.uk/MDRSdtmUD/ACME/V1#D-ACME_QSDomain_V25> 			<http://www.assero.co.uk/BusinessDomain#ct> 			"" . 
<http://www.assero.co.uk/MDRSdtmUD/ACME/V1#D-ACME_QSDomain_V25> 			<http://www.assero.co.uk/BusinessDomain#key_ordinal> 			"0" . 
<http://www.assero.co.uk/MDRSdtmUD/ACME/V1#D-ACME_QSDomain_V25_IGV1> 			<http://www.w3.org/1999/02/22-rdf-syntax-ns#type> 			<http://www.assero.co.uk/BusinessOperational#CReference> . 
<http://www.assero.co.uk/MDRSdtmUD/ACME/V1#D-ACME_QSDomain_V25_IGV1> 			<http://www.w3.org/2000/01/rdf-schema#label> 			"Based on Variable Reference" . 
<http://www.assero.co.uk/MDRSdtmUD/ACME/V1#D-ACME_QSDomain_V25_IGV1> 			<http://www.assero.co.uk/BusinessOperational#optional> 			"false" . 
<http://www.assero.co.uk/MDRSdtmUD/ACME/V1#D-ACME_QSDomain_V25_IGV1> 			<http://www.assero.co.uk/BusinessOperational#local_label> 			"" . 
<http://www.assero.co.uk/MDRSdtmUD/ACME/V1#D-ACME_QSDomain_V25_IGV1> 			<http://www.assero.co.uk/BusinessOperational#enabled> 			"true" . 
<http://www.assero.co.uk/MDRSdtmUD/ACME/V1#D-ACME_QSDomain_V25_IGV1> 			<http://www.assero.co.uk/BusinessOperational#ordinal> 			"1" . 
<http://www.assero.co.uk/MDRSdtmUD/ACME/V1#D-ACME_QSDomain_V25_IGV1> 			<http://www.assero.co.uk/BusinessOperational#hasColumn> 			<http://www.assero.co.uk/MDRSdtmIgD/CDISC/V3#IG-CDISC_SDTMIGQS_QSDY> . 
<http://www.assero.co.uk/MDRSdtmUD/ACME/V1#D-ACME_QSDomain_V26> 			<http://www.w3.org/1999/02/22-rdf-syntax-ns#type> 			<http://www.assero.co.uk/BusinessDomain#UserVariable> . 
<http://www.assero.co.uk/MDRSdtmUD/ACME/V1#D-ACME_QSDomain_V26> 			<http://www.w3.org/2000/01/rdf-schema#label> 			"Planned Time Point Name" . 
<http://www.assero.co.uk/MDRSdtmUD/ACME/V1#D-ACME_QSDomain_V26> 			<http://www.assero.co.uk/BusinessDomain#ordinal> 			"26" . 
<http://www.assero.co.uk/MDRSdtmUD/ACME/V1#D-ACME_QSDomain_V26> 			<http://www.assero.co.uk/BusinessDomain#basedOnVariable> 			<http://www.assero.co.uk/MDRSdtmUD/ACME/V1#D-ACME_QSDomain_V26_IGV1> . 
<http://www.assero.co.uk/MDRSdtmUD/ACME/V1#D-ACME_QSDomain_V26> 			<http://www.assero.co.uk/BusinessDomain#notes> 			"" . 
<http://www.assero.co.uk/MDRSdtmUD/ACME/V1#D-ACME_QSDomain_V26> 			<http://www.assero.co.uk/BusinessDomain#name> 			"QSTPT" . 
<http://www.assero.co.uk/MDRSdtmUD/ACME/V1#D-ACME_QSDomain_V26> 			<http://www.assero.co.uk/BusinessDomain#compliance> 			<http://www.assero.co.uk/MDRSdtmIgD/CDISC/V3#IG-CDISC_SDTMIGQS_C_PERMISSIBLE> . 
<http://www.assero.co.uk/MDRSdtmUD/ACME/V1#D-ACME_QSDomain_V26> 			<http://www.assero.co.uk/BusinessDomain#rule> 			"" . 
<http://www.assero.co.uk/MDRSdtmUD/ACME/V1#D-ACME_QSDomain_V26> 			<http://www.assero.co.uk/BusinessDomain#typedAs> 			<http://www.assero.co.uk/MDRSdtmM/CDISC/V3#M-CDISC_SDTMMODEL_DT_CHAR> . 
<http://www.assero.co.uk/MDRSdtmUD/ACME/V1#D-ACME_QSDomain_V26> 			<http://www.assero.co.uk/BusinessDomain#classifiedAs> 			<http://www.assero.co.uk/MDRSdtmM/CDISC/V3#M-CDISC_SDTMMODEL_C_TIMING> . 
<http://www.assero.co.uk/MDRSdtmUD/ACME/V1#D-ACME_QSDomain_V26> 			<http://www.assero.co.uk/BusinessDomain#format> 			"" . 
<http://www.assero.co.uk/MDRSdtmUD/ACME/V1#D-ACME_QSDomain_V26> 			<http://www.assero.co.uk/BusinessDomain#non_standard> 			"false" . 
<http://www.assero.co.uk/MDRSdtmUD/ACME/V1#D-ACME_QSDomain_V26> 			<http://www.assero.co.uk/BusinessDomain#comment> 			"" . 
<http://www.assero.co.uk/MDRSdtmUD/ACME/V1#D-ACME_QSDomain_V26> 			<http://www.assero.co.uk/BusinessDomain#used> 			"true" . 
<http://www.assero.co.uk/MDRSdtmUD/ACME/V1#D-ACME_QSDomain_V26> 			<http://www.assero.co.uk/BusinessDomain#length> 			"0" . 
<http://www.assero.co.uk/MDRSdtmUD/ACME/V1#D-ACME_QSDomain_V26> 			<http://www.assero.co.uk/BusinessDomain#ct> 			"" . 
<http://www.assero.co.uk/MDRSdtmUD/ACME/V1#D-ACME_QSDomain_V26> 			<http://www.assero.co.uk/BusinessDomain#key_ordinal> 			"0" . 
<http://www.assero.co.uk/MDRSdtmUD/ACME/V1#D-ACME_QSDomain_V26_IGV1> 			<http://www.w3.org/1999/02/22-rdf-syntax-ns#type> 			<http://www.assero.co.uk/BusinessOperational#CReference> . 
<http://www.assero.co.uk/MDRSdtmUD/ACME/V1#D-ACME_QSDomain_V26_IGV1> 			<http://www.w3.org/2000/01/rdf-schema#label> 			"Based on Variable Reference" . 
<http://www.assero.co.uk/MDRSdtmUD/ACME/V1#D-ACME_QSDomain_V26_IGV1> 			<http://www.assero.co.uk/BusinessOperational#optional> 			"false" . 
<http://www.assero.co.uk/MDRSdtmUD/ACME/V1#D-ACME_QSDomain_V26_IGV1> 			<http://www.assero.co.uk/BusinessOperational#local_label> 			"" . 
<http://www.assero.co.uk/MDRSdtmUD/ACME/V1#D-ACME_QSDomain_V26_IGV1> 			<http://www.assero.co.uk/BusinessOperational#enabled> 			"true" . 
<http://www.assero.co.uk/MDRSdtmUD/ACME/V1#D-ACME_QSDomain_V26_IGV1> 			<http://www.assero.co.uk/BusinessOperational#ordinal> 			"1" . 
<http://www.assero.co.uk/MDRSdtmUD/ACME/V1#D-ACME_QSDomain_V26_IGV1> 			<http://www.assero.co.uk/BusinessOperational#hasColumn> 			<http://www.assero.co.uk/MDRSdtmIgD/CDISC/V3#IG-CDISC_SDTMIGQS_QSTPT> . 
<http://www.assero.co.uk/MDRSdtmUD/ACME/V1#D-ACME_QSDomain_V27> 			<http://www.w3.org/1999/02/22-rdf-syntax-ns#type> 			<http://www.assero.co.uk/BusinessDomain#UserVariable> . 
<http://www.assero.co.uk/MDRSdtmUD/ACME/V1#D-ACME_QSDomain_V27> 			<http://www.w3.org/2000/01/rdf-schema#label> 			"Planned Time Point Number" . 
<http://www.assero.co.uk/MDRSdtmUD/ACME/V1#D-ACME_QSDomain_V27> 			<http://www.assero.co.uk/BusinessDomain#ordinal> 			"27" . 
<http://www.assero.co.uk/MDRSdtmUD/ACME/V1#D-ACME_QSDomain_V27> 			<http://www.assero.co.uk/BusinessDomain#basedOnVariable> 			<http://www.assero.co.uk/MDRSdtmUD/ACME/V1#D-ACME_QSDomain_V27_IGV1> . 
<http://www.assero.co.uk/MDRSdtmUD/ACME/V1#D-ACME_QSDomain_V27> 			<http://www.assero.co.uk/BusinessDomain#notes> 			"" . 
<http://www.assero.co.uk/MDRSdtmUD/ACME/V1#D-ACME_QSDomain_V27> 			<http://www.assero.co.uk/BusinessDomain#name> 			"QSTPTNUM" . 
<http://www.assero.co.uk/MDRSdtmUD/ACME/V1#D-ACME_QSDomain_V27> 			<http://www.assero.co.uk/BusinessDomain#compliance> 			<http://www.assero.co.uk/MDRSdtmIgD/CDISC/V3#IG-CDISC_SDTMIGQS_C_PERMISSIBLE> . 
<http://www.assero.co.uk/MDRSdtmUD/ACME/V1#D-ACME_QSDomain_V27> 			<http://www.assero.co.uk/BusinessDomain#rule> 			"" . 
<http://www.assero.co.uk/MDRSdtmUD/ACME/V1#D-ACME_QSDomain_V27> 			<http://www.assero.co.uk/BusinessDomain#typedAs> 			<http://www.assero.co.uk/MDRSdtmM/CDISC/V3#M-CDISC_SDTMMODEL_DT_NUM> . 
<http://www.assero.co.uk/MDRSdtmUD/ACME/V1#D-ACME_QSDomain_V27> 			<http://www.assero.co.uk/BusinessDomain#classifiedAs> 			<http://www.assero.co.uk/MDRSdtmM/CDISC/V3#M-CDISC_SDTMMODEL_C_TIMING> . 
<http://www.assero.co.uk/MDRSdtmUD/ACME/V1#D-ACME_QSDomain_V27> 			<http://www.assero.co.uk/BusinessDomain#format> 			"" . 
<http://www.assero.co.uk/MDRSdtmUD/ACME/V1#D-ACME_QSDomain_V27> 			<http://www.assero.co.uk/BusinessDomain#non_standard> 			"false" . 
<http://www.assero.co.uk/MDRSdtmUD/ACME/V1#D-ACME_QSDomain_V27> 			<http://www.assero.co.uk/BusinessDomain#comment> 			"" . 
<http://www.assero.co.uk/MDRSdtmUD/ACME/V1#D-ACME_QSDomain_V27> 			<http://www.assero.co.uk/BusinessDomain#used> 			"true" . 
<http://www.assero.co.uk/MDRSdtmUD/ACME/V1#D-ACME_QSDomain_V27> 			<http://www.assero.co.uk/BusinessDomain#length> 			"0" . 
<http://www.assero.co.uk/MDRSdtmUD/ACME/V1#D-ACME_QSDomain_V27> 			<http://www.assero.co.uk/BusinessDomain#ct> 			"" . 
<http://www.assero.co.uk/MDRSdtmUD/ACME/V1#D-ACME_QSDomain_V27> 			<http://www.assero.co.uk/BusinessDomain#key_ordinal> 			"0" . 
<http://www.assero.co.uk/MDRSdtmUD/ACME/V1#D-ACME_QSDomain_V27_IGV1> 			<http://www.w3.org/1999/02/22-rdf-syntax-ns#type> 			<http://www.assero.co.uk/BusinessOperational#CReference> . 
<http://www.assero.co.uk/MDRSdtmUD/ACME/V1#D-ACME_QSDomain_V27_IGV1> 			<http://www.w3.org/2000/01/rdf-schema#label> 			"Based on Variable Reference" . 
<http://www.assero.co.uk/MDRSdtmUD/ACME/V1#D-ACME_QSDomain_V27_IGV1> 			<http://www.assero.co.uk/BusinessOperational#optional> 			"false" . 
<http://www.assero.co.uk/MDRSdtmUD/ACME/V1#D-ACME_QSDomain_V27_IGV1> 			<http://www.assero.co.uk/BusinessOperational#local_label> 			"" . 
<http://www.assero.co.uk/MDRSdtmUD/ACME/V1#D-ACME_QSDomain_V27_IGV1> 			<http://www.assero.co.uk/BusinessOperational#enabled> 			"true" . 
<http://www.assero.co.uk/MDRSdtmUD/ACME/V1#D-ACME_QSDomain_V27_IGV1> 			<http://www.assero.co.uk/BusinessOperational#ordinal> 			"1" . 
<http://www.assero.co.uk/MDRSdtmUD/ACME/V1#D-ACME_QSDomain_V27_IGV1> 			<http://www.assero.co.uk/BusinessOperational#hasColumn> 			<http://www.assero.co.uk/MDRSdtmIgD/CDISC/V3#IG-CDISC_SDTMIGQS_QSTPTNUM> . 
<http://www.assero.co.uk/MDRSdtmUD/ACME/V1#D-ACME_QSDomain_V28> 			<http://www.w3.org/1999/02/22-rdf-syntax-ns#type> 			<http://www.assero.co.uk/BusinessDomain#UserVariable> . 
<http://www.assero.co.uk/MDRSdtmUD/ACME/V1#D-ACME_QSDomain_V28> 			<http://www.w3.org/2000/01/rdf-schema#label> 			"Planned Elapsed Time from Time Point Ref" . 
<http://www.assero.co.uk/MDRSdtmUD/ACME/V1#D-ACME_QSDomain_V28> 			<http://www.assero.co.uk/BusinessDomain#ordinal> 			"28" . 
<http://www.assero.co.uk/MDRSdtmUD/ACME/V1#D-ACME_QSDomain_V28> 			<http://www.assero.co.uk/BusinessDomain#basedOnVariable> 			<http://www.assero.co.uk/MDRSdtmUD/ACME/V1#D-ACME_QSDomain_V28_IGV1> . 
<http://www.assero.co.uk/MDRSdtmUD/ACME/V1#D-ACME_QSDomain_V28> 			<http://www.assero.co.uk/BusinessDomain#notes> 			"" . 
<http://www.assero.co.uk/MDRSdtmUD/ACME/V1#D-ACME_QSDomain_V28> 			<http://www.assero.co.uk/BusinessDomain#name> 			"QSELTM" . 
<http://www.assero.co.uk/MDRSdtmUD/ACME/V1#D-ACME_QSDomain_V28> 			<http://www.assero.co.uk/BusinessDomain#compliance> 			<http://www.assero.co.uk/MDRSdtmIgD/CDISC/V3#IG-CDISC_SDTMIGQS_C_PERMISSIBLE> . 
<http://www.assero.co.uk/MDRSdtmUD/ACME/V1#D-ACME_QSDomain_V28> 			<http://www.assero.co.uk/BusinessDomain#rule> 			"" . 
<http://www.assero.co.uk/MDRSdtmUD/ACME/V1#D-ACME_QSDomain_V28> 			<http://www.assero.co.uk/BusinessDomain#typedAs> 			<http://www.assero.co.uk/MDRSdtmM/CDISC/V3#M-CDISC_SDTMMODEL_DT_CHAR> . 
<http://www.assero.co.uk/MDRSdtmUD/ACME/V1#D-ACME_QSDomain_V28> 			<http://www.assero.co.uk/BusinessDomain#classifiedAs> 			<http://www.assero.co.uk/MDRSdtmM/CDISC/V3#M-CDISC_SDTMMODEL_C_TIMING> . 
<http://www.assero.co.uk/MDRSdtmUD/ACME/V1#D-ACME_QSDomain_V28> 			<http://www.assero.co.uk/BusinessDomain#format> 			"ISO 8601" . 
<http://www.assero.co.uk/MDRSdtmUD/ACME/V1#D-ACME_QSDomain_V28> 			<http://www.assero.co.uk/BusinessDomain#non_standard> 			"false" . 
<http://www.assero.co.uk/MDRSdtmUD/ACME/V1#D-ACME_QSDomain_V28> 			<http://www.assero.co.uk/BusinessDomain#comment> 			"" . 
<http://www.assero.co.uk/MDRSdtmUD/ACME/V1#D-ACME_QSDomain_V28> 			<http://www.assero.co.uk/BusinessDomain#used> 			"true" . 
<http://www.assero.co.uk/MDRSdtmUD/ACME/V1#D-ACME_QSDomain_V28> 			<http://www.assero.co.uk/BusinessDomain#length> 			"0" . 
<http://www.assero.co.uk/MDRSdtmUD/ACME/V1#D-ACME_QSDomain_V28> 			<http://www.assero.co.uk/BusinessDomain#ct> 			"" . 
<http://www.assero.co.uk/MDRSdtmUD/ACME/V1#D-ACME_QSDomain_V28> 			<http://www.assero.co.uk/BusinessDomain#key_ordinal> 			"0" . 
<http://www.assero.co.uk/MDRSdtmUD/ACME/V1#D-ACME_QSDomain_V28_IGV1> 			<http://www.w3.org/1999/02/22-rdf-syntax-ns#type> 			<http://www.assero.co.uk/BusinessOperational#CReference> . 
<http://www.assero.co.uk/MDRSdtmUD/ACME/V1#D-ACME_QSDomain_V28_IGV1> 			<http://www.w3.org/2000/01/rdf-schema#label> 			"Based on Variable Reference" . 
<http://www.assero.co.uk/MDRSdtmUD/ACME/V1#D-ACME_QSDomain_V28_IGV1> 			<http://www.assero.co.uk/BusinessOperational#optional> 			"false" . 
<http://www.assero.co.uk/MDRSdtmUD/ACME/V1#D-ACME_QSDomain_V28_IGV1> 			<http://www.assero.co.uk/BusinessOperational#local_label> 			"" . 
<http://www.assero.co.uk/MDRSdtmUD/ACME/V1#D-ACME_QSDomain_V28_IGV1> 			<http://www.assero.co.uk/BusinessOperational#enabled> 			"true" . 
<http://www.assero.co.uk/MDRSdtmUD/ACME/V1#D-ACME_QSDomain_V28_IGV1> 			<http://www.assero.co.uk/BusinessOperational#ordinal> 			"1" . 
<http://www.assero.co.uk/MDRSdtmUD/ACME/V1#D-ACME_QSDomain_V28_IGV1> 			<http://www.assero.co.uk/BusinessOperational#hasColumn> 			<http://www.assero.co.uk/MDRSdtmIgD/CDISC/V3#IG-CDISC_SDTMIGQS_QSELTM> . 
<http://www.assero.co.uk/MDRSdtmUD/ACME/V1#D-ACME_QSDomain_V29> 			<http://www.w3.org/1999/02/22-rdf-syntax-ns#type> 			<http://www.assero.co.uk/BusinessDomain#UserVariable> . 
<http://www.assero.co.uk/MDRSdtmUD/ACME/V1#D-ACME_QSDomain_V29> 			<http://www.w3.org/2000/01/rdf-schema#label> 			"Time Point Reference" . 
<http://www.assero.co.uk/MDRSdtmUD/ACME/V1#D-ACME_QSDomain_V29> 			<http://www.assero.co.uk/BusinessDomain#ordinal> 			"29" . 
<http://www.assero.co.uk/MDRSdtmUD/ACME/V1#D-ACME_QSDomain_V29> 			<http://www.assero.co.uk/BusinessDomain#basedOnVariable> 			<http://www.assero.co.uk/MDRSdtmUD/ACME/V1#D-ACME_QSDomain_V29_IGV1> . 
<http://www.assero.co.uk/MDRSdtmUD/ACME/V1#D-ACME_QSDomain_V29> 			<http://www.assero.co.uk/BusinessDomain#notes> 			"" . 
<http://www.assero.co.uk/MDRSdtmUD/ACME/V1#D-ACME_QSDomain_V29> 			<http://www.assero.co.uk/BusinessDomain#name> 			"QSTPTREF" . 
<http://www.assero.co.uk/MDRSdtmUD/ACME/V1#D-ACME_QSDomain_V29> 			<http://www.assero.co.uk/BusinessDomain#compliance> 			<http://www.assero.co.uk/MDRSdtmIgD/CDISC/V3#IG-CDISC_SDTMIGQS_C_PERMISSIBLE> . 
<http://www.assero.co.uk/MDRSdtmUD/ACME/V1#D-ACME_QSDomain_V29> 			<http://www.assero.co.uk/BusinessDomain#rule> 			"" . 
<http://www.assero.co.uk/MDRSdtmUD/ACME/V1#D-ACME_QSDomain_V29> 			<http://www.assero.co.uk/BusinessDomain#typedAs> 			<http://www.assero.co.uk/MDRSdtmM/CDISC/V3#M-CDISC_SDTMMODEL_DT_CHAR> . 
<http://www.assero.co.uk/MDRSdtmUD/ACME/V1#D-ACME_QSDomain_V29> 			<http://www.assero.co.uk/BusinessDomain#classifiedAs> 			<http://www.assero.co.uk/MDRSdtmM/CDISC/V3#M-CDISC_SDTMMODEL_C_TIMING> . 
<http://www.assero.co.uk/MDRSdtmUD/ACME/V1#D-ACME_QSDomain_V29> 			<http://www.assero.co.uk/BusinessDomain#format> 			"" . 
<http://www.assero.co.uk/MDRSdtmUD/ACME/V1#D-ACME_QSDomain_V29> 			<http://www.assero.co.uk/BusinessDomain#non_standard> 			"false" . 
<http://www.assero.co.uk/MDRSdtmUD/ACME/V1#D-ACME_QSDomain_V29> 			<http://www.assero.co.uk/BusinessDomain#comment> 			"" . 
<http://www.assero.co.uk/MDRSdtmUD/ACME/V1#D-ACME_QSDomain_V29> 			<http://www.assero.co.uk/BusinessDomain#used> 			"true" . 
<http://www.assero.co.uk/MDRSdtmUD/ACME/V1#D-ACME_QSDomain_V29> 			<http://www.assero.co.uk/BusinessDomain#length> 			"0" . 
<http://www.assero.co.uk/MDRSdtmUD/ACME/V1#D-ACME_QSDomain_V29> 			<http://www.assero.co.uk/BusinessDomain#ct> 			"" . 
<http://www.assero.co.uk/MDRSdtmUD/ACME/V1#D-ACME_QSDomain_V29> 			<http://www.assero.co.uk/BusinessDomain#key_ordinal> 			"0" . 
<http://www.assero.co.uk/MDRSdtmUD/ACME/V1#D-ACME_QSDomain_V29_IGV1> 			<http://www.w3.org/1999/02/22-rdf-syntax-ns#type> 			<http://www.assero.co.uk/BusinessOperational#CReference> . 
<http://www.assero.co.uk/MDRSdtmUD/ACME/V1#D-ACME_QSDomain_V29_IGV1> 			<http://www.w3.org/2000/01/rdf-schema#label> 			"Based on Variable Reference" . 
<http://www.assero.co.uk/MDRSdtmUD/ACME/V1#D-ACME_QSDomain_V29_IGV1> 			<http://www.assero.co.uk/BusinessOperational#optional> 			"false" . 
<http://www.assero.co.uk/MDRSdtmUD/ACME/V1#D-ACME_QSDomain_V29_IGV1> 			<http://www.assero.co.uk/BusinessOperational#local_label> 			"" . 
<http://www.assero.co.uk/MDRSdtmUD/ACME/V1#D-ACME_QSDomain_V29_IGV1> 			<http://www.assero.co.uk/BusinessOperational#enabled> 			"true" . 
<http://www.assero.co.uk/MDRSdtmUD/ACME/V1#D-ACME_QSDomain_V29_IGV1> 			<http://www.assero.co.uk/BusinessOperational#ordinal> 			"1" . 
<http://www.assero.co.uk/MDRSdtmUD/ACME/V1#D-ACME_QSDomain_V29_IGV1> 			<http://www.assero.co.uk/BusinessOperational#hasColumn> 			<http://www.assero.co.uk/MDRSdtmIgD/CDISC/V3#IG-CDISC_SDTMIGQS_QSTPTREF> . 
<http://www.assero.co.uk/MDRSdtmUD/ACME/V1#D-ACME_QSDomain_V30> 			<http://www.w3.org/1999/02/22-rdf-syntax-ns#type> 			<http://www.assero.co.uk/BusinessDomain#UserVariable> . 
<http://www.assero.co.uk/MDRSdtmUD/ACME/V1#D-ACME_QSDomain_V30> 			<http://www.w3.org/2000/01/rdf-schema#label> 			"Date/Time of Reference Time Point" . 
<http://www.assero.co.uk/MDRSdtmUD/ACME/V1#D-ACME_QSDomain_V30> 			<http://www.assero.co.uk/BusinessDomain#ordinal> 			"30" . 
<http://www.assero.co.uk/MDRSdtmUD/ACME/V1#D-ACME_QSDomain_V30> 			<http://www.assero.co.uk/BusinessDomain#basedOnVariable> 			<http://www.assero.co.uk/MDRSdtmUD/ACME/V1#D-ACME_QSDomain_V30_IGV1> . 
<http://www.assero.co.uk/MDRSdtmUD/ACME/V1#D-ACME_QSDomain_V30> 			<http://www.assero.co.uk/BusinessDomain#notes> 			"" . 
<http://www.assero.co.uk/MDRSdtmUD/ACME/V1#D-ACME_QSDomain_V30> 			<http://www.assero.co.uk/BusinessDomain#name> 			"QSRFTDTC" . 
<http://www.assero.co.uk/MDRSdtmUD/ACME/V1#D-ACME_QSDomain_V30> 			<http://www.assero.co.uk/BusinessDomain#compliance> 			<http://www.assero.co.uk/MDRSdtmIgD/CDISC/V3#IG-CDISC_SDTMIGQS_C_PERMISSIBLE> . 
<http://www.assero.co.uk/MDRSdtmUD/ACME/V1#D-ACME_QSDomain_V30> 			<http://www.assero.co.uk/BusinessDomain#rule> 			"" . 
<http://www.assero.co.uk/MDRSdtmUD/ACME/V1#D-ACME_QSDomain_V30> 			<http://www.assero.co.uk/BusinessDomain#typedAs> 			<http://www.assero.co.uk/MDRSdtmM/CDISC/V3#M-CDISC_SDTMMODEL_DT_CHAR> . 
<http://www.assero.co.uk/MDRSdtmUD/ACME/V1#D-ACME_QSDomain_V30> 			<http://www.assero.co.uk/BusinessDomain#classifiedAs> 			<http://www.assero.co.uk/MDRSdtmM/CDISC/V3#M-CDISC_SDTMMODEL_C_TIMING> . 
<http://www.assero.co.uk/MDRSdtmUD/ACME/V1#D-ACME_QSDomain_V30> 			<http://www.assero.co.uk/BusinessDomain#format> 			"ISO 8601" . 
<http://www.assero.co.uk/MDRSdtmUD/ACME/V1#D-ACME_QSDomain_V30> 			<http://www.assero.co.uk/BusinessDomain#non_standard> 			"false" . 
<http://www.assero.co.uk/MDRSdtmUD/ACME/V1#D-ACME_QSDomain_V30> 			<http://www.assero.co.uk/BusinessDomain#comment> 			"" . 
<http://www.assero.co.uk/MDRSdtmUD/ACME/V1#D-ACME_QSDomain_V30> 			<http://www.assero.co.uk/BusinessDomain#used> 			"true" . 
<http://www.assero.co.uk/MDRSdtmUD/ACME/V1#D-ACME_QSDomain_V30> 			<http://www.assero.co.uk/BusinessDomain#length> 			"0" . 
<http://www.assero.co.uk/MDRSdtmUD/ACME/V1#D-ACME_QSDomain_V30> 			<http://www.assero.co.uk/BusinessDomain#ct> 			"" . 
<http://www.assero.co.uk/MDRSdtmUD/ACME/V1#D-ACME_QSDomain_V30> 			<http://www.assero.co.uk/BusinessDomain#key_ordinal> 			"0" . 
<http://www.assero.co.uk/MDRSdtmUD/ACME/V1#D-ACME_QSDomain_V30_IGV1> 			<http://www.w3.org/1999/02/22-rdf-syntax-ns#type> 			<http://www.assero.co.uk/BusinessOperational#CReference> . 
<http://www.assero.co.uk/MDRSdtmUD/ACME/V1#D-ACME_QSDomain_V30_IGV1> 			<http://www.w3.org/2000/01/rdf-schema#label> 			"Based on Variable Reference" . 
<http://www.assero.co.uk/MDRSdtmUD/ACME/V1#D-ACME_QSDomain_V30_IGV1> 			<http://www.assero.co.uk/BusinessOperational#optional> 			"false" . 
<http://www.assero.co.uk/MDRSdtmUD/ACME/V1#D-ACME_QSDomain_V30_IGV1> 			<http://www.assero.co.uk/BusinessOperational#local_label> 			"" . 
<http://www.assero.co.uk/MDRSdtmUD/ACME/V1#D-ACME_QSDomain_V30_IGV1> 			<http://www.assero.co.uk/BusinessOperational#enabled> 			"true" . 
<http://www.assero.co.uk/MDRSdtmUD/ACME/V1#D-ACME_QSDomain_V30_IGV1> 			<http://www.assero.co.uk/BusinessOperational#ordinal> 			"1" . 
<http://www.assero.co.uk/MDRSdtmUD/ACME/V1#D-ACME_QSDomain_V30_IGV1> 			<http://www.assero.co.uk/BusinessOperational#hasColumn> 			<http://www.assero.co.uk/MDRSdtmIgD/CDISC/V3#IG-CDISC_SDTMIGQS_QSRFTDTC> . 
<http://www.assero.co.uk/MDRSdtmUD/ACME/V1#D-ACME_QSDomain_V31> 			<http://www.w3.org/1999/02/22-rdf-syntax-ns#type> 			<http://www.assero.co.uk/BusinessDomain#UserVariable> . 
<http://www.assero.co.uk/MDRSdtmUD/ACME/V1#D-ACME_QSDomain_V31> 			<http://www.w3.org/2000/01/rdf-schema#label> 			"Evaluation Interval" . 
<http://www.assero.co.uk/MDRSdtmUD/ACME/V1#D-ACME_QSDomain_V31> 			<http://www.assero.co.uk/BusinessDomain#ordinal> 			"31" . 
<http://www.assero.co.uk/MDRSdtmUD/ACME/V1#D-ACME_QSDomain_V31> 			<http://www.assero.co.uk/BusinessDomain#basedOnVariable> 			<http://www.assero.co.uk/MDRSdtmUD/ACME/V1#D-ACME_QSDomain_V31_IGV1> . 
<http://www.assero.co.uk/MDRSdtmUD/ACME/V1#D-ACME_QSDomain_V31> 			<http://www.assero.co.uk/BusinessDomain#notes> 			"" . 
<http://www.assero.co.uk/MDRSdtmUD/ACME/V1#D-ACME_QSDomain_V31> 			<http://www.assero.co.uk/BusinessDomain#name> 			"QSEVLINT" . 
<http://www.assero.co.uk/MDRSdtmUD/ACME/V1#D-ACME_QSDomain_V31> 			<http://www.assero.co.uk/BusinessDomain#compliance> 			<http://www.assero.co.uk/MDRSdtmIgD/CDISC/V3#IG-CDISC_SDTMIGQS_C_PERMISSIBLE> . 
<http://www.assero.co.uk/MDRSdtmUD/ACME/V1#D-ACME_QSDomain_V31> 			<http://www.assero.co.uk/BusinessDomain#rule> 			"" . 
<http://www.assero.co.uk/MDRSdtmUD/ACME/V1#D-ACME_QSDomain_V31> 			<http://www.assero.co.uk/BusinessDomain#typedAs> 			<http://www.assero.co.uk/MDRSdtmM/CDISC/V3#M-CDISC_SDTMMODEL_DT_CHAR> . 
<http://www.assero.co.uk/MDRSdtmUD/ACME/V1#D-ACME_QSDomain_V31> 			<http://www.assero.co.uk/BusinessDomain#classifiedAs> 			<http://www.assero.co.uk/MDRSdtmM/CDISC/V3#M-CDISC_SDTMMODEL_C_TIMING> . 
<http://www.assero.co.uk/MDRSdtmUD/ACME/V1#D-ACME_QSDomain_V31> 			<http://www.assero.co.uk/BusinessDomain#format> 			"ISO 8601" . 
<http://www.assero.co.uk/MDRSdtmUD/ACME/V1#D-ACME_QSDomain_V31> 			<http://www.assero.co.uk/BusinessDomain#non_standard> 			"false" . 
<http://www.assero.co.uk/MDRSdtmUD/ACME/V1#D-ACME_QSDomain_V31> 			<http://www.assero.co.uk/BusinessDomain#comment> 			"" . 
<http://www.assero.co.uk/MDRSdtmUD/ACME/V1#D-ACME_QSDomain_V31> 			<http://www.assero.co.uk/BusinessDomain#used> 			"true" . 
<http://www.assero.co.uk/MDRSdtmUD/ACME/V1#D-ACME_QSDomain_V31> 			<http://www.assero.co.uk/BusinessDomain#length> 			"0" . 
<http://www.assero.co.uk/MDRSdtmUD/ACME/V1#D-ACME_QSDomain_V31> 			<http://www.assero.co.uk/BusinessDomain#ct> 			"" . 
<http://www.assero.co.uk/MDRSdtmUD/ACME/V1#D-ACME_QSDomain_V31> 			<http://www.assero.co.uk/BusinessDomain#key_ordinal> 			"0" . 
<http://www.assero.co.uk/MDRSdtmUD/ACME/V1#D-ACME_QSDomain_V31_IGV1> 			<http://www.w3.org/1999/02/22-rdf-syntax-ns#type> 			<http://www.assero.co.uk/BusinessOperational#CReference> . 
<http://www.assero.co.uk/MDRSdtmUD/ACME/V1#D-ACME_QSDomain_V31_IGV1> 			<http://www.w3.org/2000/01/rdf-schema#label> 			"Based on Variable Reference" . 
<http://www.assero.co.uk/MDRSdtmUD/ACME/V1#D-ACME_QSDomain_V31_IGV1> 			<http://www.assero.co.uk/BusinessOperational#optional> 			"false" . 
<http://www.assero.co.uk/MDRSdtmUD/ACME/V1#D-ACME_QSDomain_V31_IGV1> 			<http://www.assero.co.uk/BusinessOperational#local_label> 			"" . 
<http://www.assero.co.uk/MDRSdtmUD/ACME/V1#D-ACME_QSDomain_V31_IGV1> 			<http://www.assero.co.uk/BusinessOperational#enabled> 			"true" . 
<http://www.assero.co.uk/MDRSdtmUD/ACME/V1#D-ACME_QSDomain_V31_IGV1> 			<http://www.assero.co.uk/BusinessOperational#ordinal> 			"1" . 
<http://www.assero.co.uk/MDRSdtmUD/ACME/V1#D-ACME_QSDomain_V31_IGV1> 			<http://www.assero.co.uk/BusinessOperational#hasColumn> 			<http://www.assero.co.uk/MDRSdtmIgD/CDISC/V3#IG-CDISC_SDTMIGQS_QSEVLINT> . 
<http://www.assero.co.uk/MDRSdtmUD/ACME/V1#D-ACME_QSDomain_IGD1> 			<http://www.w3.org/1999/02/22-rdf-syntax-ns#type> 			<http://www.assero.co.uk/BusinessOperational#TReference> . 
<http://www.assero.co.uk/MDRSdtmUD/ACME/V1#D-ACME_QSDomain_IGD1> 			<http://www.w3.org/2000/01/rdf-schema#label> 			"Based on Domain Reference" . 
<http://www.assero.co.uk/MDRSdtmUD/ACME/V1#D-ACME_QSDomain_IGD1> 			<http://www.assero.co.uk/BusinessOperational#hasTabulation> 			<http://www.assero.co.uk/MDRSdtmIgD/CDISC/V3#IG-CDISC_SDTMIGQS> . 
<http://www.assero.co.uk/MDRSdtmUD/ACME/V1#D-ACME_QSDomain_IGD1> 			<http://www.assero.co.uk/BusinessOperational#optional> 			"false" . 
<http://www.assero.co.uk/MDRSdtmUD/ACME/V1#D-ACME_QSDomain_IGD1> 			<http://www.assero.co.uk/BusinessOperational#local_label> 			"" . 
<http://www.assero.co.uk/MDRSdtmUD/ACME/V1#D-ACME_QSDomain_IGD1> 			<http://www.assero.co.uk/BusinessOperational#enabled> 			"true" . 
<http://www.assero.co.uk/MDRSdtmUD/ACME/V1#D-ACME_QSDomain_IGD1> 			<http://www.assero.co.uk/BusinessOperational#ordinal> 			"1" . 
<http://www.assero.co.uk/MDRSdtmUD/ACME/V1#D-ACME_QSDomain_MD1> 			<http://www.w3.org/1999/02/22-rdf-syntax-ns#type> 			<http://www.assero.co.uk/BusinessOperational#TReference> . 
<http://www.assero.co.uk/MDRSdtmUD/ACME/V1#D-ACME_QSDomain_MD1> 			<http://www.w3.org/2000/01/rdf-schema#label> 			"Based on Domain Reference" . 
<http://www.assero.co.uk/MDRSdtmUD/ACME/V1#D-ACME_QSDomain_MD1> 			<http://www.assero.co.uk/BusinessOperational#hasTabulation> 			<http://www.assero.co.uk/MDRSdtmMd/CDISC/V3#M-CDISC_SDTMMODEL_FINDINGS> . 
<http://www.assero.co.uk/MDRSdtmUD/ACME/V1#D-ACME_QSDomain_MD1> 			<http://www.assero.co.uk/BusinessOperational#optional> 			"false" . 
<http://www.assero.co.uk/MDRSdtmUD/ACME/V1#D-ACME_QSDomain_MD1> 			<http://www.assero.co.uk/BusinessOperational#local_label> 			"" . 
<http://www.assero.co.uk/MDRSdtmUD/ACME/V1#D-ACME_QSDomain_MD1> 			<http://www.assero.co.uk/BusinessOperational#enabled> 			"true" . 
<http://www.assero.co.uk/MDRSdtmUD/ACME/V1#D-ACME_QSDomain_MD1> 			<http://www.assero.co.uk/BusinessOperational#ordinal> 			"1" . 
<http://www.assero.co.uk/MDRSdtmUD/ACME/V1#D-ACME_QSDomain_BCR2> 			<http://www.w3.org/1999/02/22-rdf-syntax-ns#type> 			<http://www.assero.co.uk/BusinessOperational#BcReference> . 
<http://www.assero.co.uk/MDRSdtmUD/ACME/V1#D-ACME_QSDomain_BCR2> 			<http://www.w3.org/2000/01/rdf-schema#label> 			"BC Reference" . 
<http://www.assero.co.uk/MDRSdtmUD/ACME/V1#D-ACME_QSDomain_BCR2> 			<http://www.assero.co.uk/BusinessOperational#optional> 			"false" . 
<http://www.assero.co.uk/MDRSdtmUD/ACME/V1#D-ACME_QSDomain_BCR2> 			<http://www.assero.co.uk/BusinessOperational#local_label> 			"" . 
<http://www.assero.co.uk/MDRSdtmUD/ACME/V1#D-ACME_QSDomain_BCR2> 			<http://www.assero.co.uk/BusinessOperational#hasBiomedicalConcept> 			<http://www.assero.co.uk/MDRBCs/ACME/V1#BC-ACME_BCC100392> . 
<http://www.assero.co.uk/MDRSdtmUD/ACME/V1#D-ACME_QSDomain_BCR2> 			<http://www.assero.co.uk/BusinessOperational#enabled> 			"true" . 
<http://www.assero.co.uk/MDRSdtmUD/ACME/V1#D-ACME_QSDomain_BCR2> 			<http://www.assero.co.uk/BusinessOperational#ordinal> 			"2" . 
<http://www.assero.co.uk/MDRSdtmUD/ACME/V1#D-ACME_QSDomain_BCR3> 			<http://www.w3.org/1999/02/22-rdf-syntax-ns#type> 			<http://www.assero.co.uk/BusinessOperational#BcReference> . 
<http://www.assero.co.uk/MDRSdtmUD/ACME/V1#D-ACME_QSDomain_BCR3> 			<http://www.w3.org/2000/01/rdf-schema#label> 			"BC Reference" . 
<http://www.assero.co.uk/MDRSdtmUD/ACME/V1#D-ACME_QSDomain_BCR3> 			<http://www.assero.co.uk/BusinessOperational#optional> 			"false" . 
<http://www.assero.co.uk/MDRSdtmUD/ACME/V1#D-ACME_QSDomain_BCR3> 			<http://www.assero.co.uk/BusinessOperational#local_label> 			"" . 
<http://www.assero.co.uk/MDRSdtmUD/ACME/V1#D-ACME_QSDomain_BCR3> 			<http://www.assero.co.uk/BusinessOperational#hasBiomedicalConcept> 			<http://www.assero.co.uk/MDRBCs/ACME/V1#BC-ACME_BCC100393> . 
<http://www.assero.co.uk/MDRSdtmUD/ACME/V1#D-ACME_QSDomain_BCR3> 			<http://www.assero.co.uk/BusinessOperational#enabled> 			"true" . 
<http://www.assero.co.uk/MDRSdtmUD/ACME/V1#D-ACME_QSDomain_BCR3> 			<http://www.assero.co.uk/BusinessOperational#ordinal> 			"3" . 
<http://www.assero.co.uk/MDRSdtmUD/ACME/V1#D-ACME_QSDomain_BCR4> 			<http://www.w3.org/1999/02/22-rdf-syntax-ns#type> 			<http://www.assero.co.uk/BusinessOperational#BcReference> . 
<http://www.assero.co.uk/MDRSdtmUD/ACME/V1#D-ACME_QSDomain_BCR4> 			<http://www.w3.org/2000/01/rdf-schema#label> 			"BC Reference" . 
<http://www.assero.co.uk/MDRSdtmUD/ACME/V1#D-ACME_QSDomain_BCR4> 			<http://www.assero.co.uk/BusinessOperational#optional> 			"false" . 
<http://www.assero.co.uk/MDRSdtmUD/ACME/V1#D-ACME_QSDomain_BCR4> 			<http://www.assero.co.uk/BusinessOperational#local_label> 			"" . 
<http://www.assero.co.uk/MDRSdtmUD/ACME/V1#D-ACME_QSDomain_BCR4> 			<http://www.assero.co.uk/BusinessOperational#hasBiomedicalConcept> 			<http://www.assero.co.uk/MDRBCs/ACME/V1#BC-ACME_BCC100394> . 
<http://www.assero.co.uk/MDRSdtmUD/ACME/V1#D-ACME_QSDomain_BCR4> 			<http://www.assero.co.uk/BusinessOperational#enabled> 			"true" . 
<http://www.assero.co.uk/MDRSdtmUD/ACME/V1#D-ACME_QSDomain_BCR4> 			<http://www.assero.co.uk/BusinessOperational#ordinal> 			"4" . 
<http://www.assero.co.uk/MDRSdtmUD/ACME/V1#D-ACME_QSDomain_BCR5> 			<http://www.w3.org/1999/02/22-rdf-syntax-ns#type> 			<http://www.assero.co.uk/BusinessOperational#BcReference> . 
<http://www.assero.co.uk/MDRSdtmUD/ACME/V1#D-ACME_QSDomain_BCR5> 			<http://www.w3.org/2000/01/rdf-schema#label> 			"BC Reference" . 
<http://www.assero.co.uk/MDRSdtmUD/ACME/V1#D-ACME_QSDomain_BCR5> 			<http://www.assero.co.uk/BusinessOperational#optional> 			"false" . 
<http://www.assero.co.uk/MDRSdtmUD/ACME/V1#D-ACME_QSDomain_BCR5> 			<http://www.assero.co.uk/BusinessOperational#local_label> 			"" . 
<http://www.assero.co.uk/MDRSdtmUD/ACME/V1#D-ACME_QSDomain_BCR5> 			<http://www.assero.co.uk/BusinessOperational#hasBiomedicalConcept> 			<http://www.assero.co.uk/MDRBCs/ACME/V1#BC-ACME_BCC100395> . 
<http://www.assero.co.uk/MDRSdtmUD/ACME/V1#D-ACME_QSDomain_BCR5> 			<http://www.assero.co.uk/BusinessOperational#enabled> 			"true" . 
<http://www.assero.co.uk/MDRSdtmUD/ACME/V1#D-ACME_QSDomain_BCR5> 			<http://www.assero.co.uk/BusinessOperational#ordinal> 			"5" . 
<http://www.assero.co.uk/MDRSdtmUD/ACME/V1#D-ACME_QSDomain_BCR6> 			<http://www.w3.org/1999/02/22-rdf-syntax-ns#type> 			<http://www.assero.co.uk/BusinessOperational#BcReference> . 
<http://www.assero.co.uk/MDRSdtmUD/ACME/V1#D-ACME_QSDomain_BCR6> 			<http://www.w3.org/2000/01/rdf-schema#label> 			"BC Reference" . 
<http://www.assero.co.uk/MDRSdtmUD/ACME/V1#D-ACME_QSDomain_BCR6> 			<http://www.assero.co.uk/BusinessOperational#optional> 			"false" . 
<http://www.assero.co.uk/MDRSdtmUD/ACME/V1#D-ACME_QSDomain_BCR6> 			<http://www.assero.co.uk/BusinessOperational#local_label> 			"" . 
<http://www.assero.co.uk/MDRSdtmUD/ACME/V1#D-ACME_QSDomain_BCR6> 			<http://www.assero.co.uk/BusinessOperational#hasBiomedicalConcept> 			<http://www.assero.co.uk/MDRBCs/ACME/V1#BC-ACME_BCC100396> . 
<http://www.assero.co.uk/MDRSdtmUD/ACME/V1#D-ACME_QSDomain_BCR6> 			<http://www.assero.co.uk/BusinessOperational#enabled> 			"true" . 
<http://www.assero.co.uk/MDRSdtmUD/ACME/V1#D-ACME_QSDomain_BCR6> 			<http://www.assero.co.uk/BusinessOperational#ordinal> 			"6" . 
<http://www.assero.co.uk/MDRSdtmUD/ACME/V1#D-ACME_QSDomain_BCR7> 			<http://www.w3.org/1999/02/22-rdf-syntax-ns#type> 			<http://www.assero.co.uk/BusinessOperational#BcReference> . 
<http://www.assero.co.uk/MDRSdtmUD/ACME/V1#D-ACME_QSDomain_BCR7> 			<http://www.w3.org/2000/01/rdf-schema#label> 			"BC Reference" . 
<http://www.assero.co.uk/MDRSdtmUD/ACME/V1#D-ACME_QSDomain_BCR7> 			<http://www.assero.co.uk/BusinessOperational#optional> 			"false" . 
<http://www.assero.co.uk/MDRSdtmUD/ACME/V1#D-ACME_QSDomain_BCR7> 			<http://www.assero.co.uk/BusinessOperational#local_label> 			"" . 
<http://www.assero.co.uk/MDRSdtmUD/ACME/V1#D-ACME_QSDomain_BCR7> 			<http://www.assero.co.uk/BusinessOperational#hasBiomedicalConcept> 			<http://www.assero.co.uk/MDRBCs/ACME/V1#BC-ACME_BCC100397> . 
<http://www.assero.co.uk/MDRSdtmUD/ACME/V1#D-ACME_QSDomain_BCR7> 			<http://www.assero.co.uk/BusinessOperational#enabled> 			"true" . 
<http://www.assero.co.uk/MDRSdtmUD/ACME/V1#D-ACME_QSDomain_BCR7> 			<http://www.assero.co.uk/BusinessOperational#ordinal> 			"7" . 
<http://www.assero.co.uk/MDRItems#SI-ACME_QSDomain-1> 			<http://www.w3.org/1999/02/22-rdf-syntax-ns#type> 			<http://www.assero.co.uk/ISO11179Identification#ScopedIdentifier> . 
<http://www.assero.co.uk/MDRItems#SI-ACME_QSDomain-1> 			<http://www.assero.co.uk/ISO11179Identification#semantic_version> 			"0.1.0" . 
<http://www.assero.co.uk/MDRItems#SI-ACME_QSDomain-1> 			<http://www.assero.co.uk/ISO11179Identification#hasScope> 			<http://www.assero.co.uk/MDRItems#NS-ACME> . 
<http://www.assero.co.uk/MDRItems#SI-ACME_QSDomain-1> 			<http://www.assero.co.uk/ISO11179Identification#version> 			"1" . 
<http://www.assero.co.uk/MDRItems#SI-ACME_QSDomain-1> 			<http://www.assero.co.uk/ISO11179Identification#versionLabel> 			"" . 
<http://www.assero.co.uk/MDRItems#SI-ACME_QSDomain-1> 			<http://www.assero.co.uk/ISO11179Identification#identifier> 			"QS Domain" . 
<http://www.assero.co.uk/MDRItems#RS-ACME_QSDomain-1> 			<http://www.w3.org/1999/02/22-rdf-syntax-ns#type> 			<http://www.assero.co.uk/ISO11179Registration#RegistrationState> . 
<http://www.assero.co.uk/MDRItems#RS-ACME_QSDomain-1> 			<http://www.assero.co.uk/ISO11179Registration#registrationStatus> 			"Incomplete" . 
<http://www.assero.co.uk/MDRItems#RS-ACME_QSDomain-1> 			<http://www.assero.co.uk/ISO11179Registration#untilDate> 			"2016-01-01T00:00:00+00:00" . 
<http://www.assero.co.uk/MDRItems#RS-ACME_QSDomain-1> 			<http://www.assero.co.uk/ISO11179Registration#previousState> 			"Incomplete" . 
<http://www.assero.co.uk/MDRItems#RS-ACME_QSDomain-1> 			<http://www.assero.co.uk/ISO11179Registration#administrativeStatus> 			"" . 
<http://www.assero.co.uk/MDRItems#RS-ACME_QSDomain-1> 			<http://www.assero.co.uk/ISO11179Registration#administrativeNote> 			"" . 
<http://www.assero.co.uk/MDRItems#RS-ACME_QSDomain-1> 			<http://www.assero.co.uk/ISO11179Registration#unresolvedIssue> 			"" . 
<http://www.assero.co.uk/MDRItems#RS-ACME_QSDomain-1> 			<http://www.assero.co.uk/ISO11179Registration#effectiveDate> 			"2016-01-01T00:00:00+00:00" . 
<http://www.assero.co.uk/MDRItems#RS-ACME_QSDomain-1> 			<http://www.assero.co.uk/ISO11179Registration#byAuthority> 			<http://www.assero.co.uk/MDRItems#RA-123456789> . 
