<http://www.assero.co.uk/MDRSdtmUD/ACME/V2#D-ACME_VSDomain> 			<http://www.w3.org/1999/02/22-rdf-syntax-ns#type> 			<http://www.assero.co.uk/BusinessDomain#UserDomain> . 
<http://www.assero.co.uk/MDRSdtmUD/ACME/V2#D-ACME_VSDomain> 			<http://www.w3.org/2000/01/rdf-schema#label> 			"Vital Signs" . 
<http://www.assero.co.uk/MDRSdtmUD/ACME/V2#D-ACME_VSDomain> 			<http://www.assero.co.uk/ISO11179Types#creationDate> 			"2018-04-17T16:24:05+01:00" . 
<http://www.assero.co.uk/MDRSdtmUD/ACME/V2#D-ACME_VSDomain> 			<http://www.assero.co.uk/ISO11179Types#lastChangeDate> 			"2018-04-17T16:24:05+01:00" . 
<http://www.assero.co.uk/MDRSdtmUD/ACME/V2#D-ACME_VSDomain> 			<http://www.assero.co.uk/ISO11179Types#changeDescription> 			"" . 
<http://www.assero.co.uk/MDRSdtmUD/ACME/V2#D-ACME_VSDomain> 			<http://www.assero.co.uk/ISO11179Types#explanatoryComment> 			"" . 
<http://www.assero.co.uk/MDRSdtmUD/ACME/V2#D-ACME_VSDomain> 			<http://www.assero.co.uk/ISO11179Types#origin> 			"" . 
<http://www.assero.co.uk/MDRSdtmUD/ACME/V2#D-ACME_VSDomain> 			<http://www.assero.co.uk/ISO11179Identification#hasIdentifier> 			<http://www.assero.co.uk/MDRItems#SI-ACME_VSDomain-2> . 
<http://www.assero.co.uk/MDRSdtmUD/ACME/V2#D-ACME_VSDomain> 			<http://www.assero.co.uk/ISO11179Registration#hasState> 			<http://www.assero.co.uk/MDRItems#RS-ACME_VSDomain-2> . 
<http://www.assero.co.uk/MDRSdtmUD/ACME/V2#D-ACME_VSDomain> 			<http://www.assero.co.uk/BusinessDomain#includesColumn> 			<http://www.assero.co.uk/MDRSdtmUD/ACME/V2#D-ACME_VSDomain_V1> . 
<http://www.assero.co.uk/MDRSdtmUD/ACME/V2#D-ACME_VSDomain> 			<http://www.assero.co.uk/BusinessDomain#includesColumn> 			<http://www.assero.co.uk/MDRSdtmUD/ACME/V2#D-ACME_VSDomain_V2> . 
<http://www.assero.co.uk/MDRSdtmUD/ACME/V2#D-ACME_VSDomain> 			<http://www.assero.co.uk/BusinessDomain#includesColumn> 			<http://www.assero.co.uk/MDRSdtmUD/ACME/V2#D-ACME_VSDomain_V3> . 
<http://www.assero.co.uk/MDRSdtmUD/ACME/V2#D-ACME_VSDomain> 			<http://www.assero.co.uk/BusinessDomain#includesColumn> 			<http://www.assero.co.uk/MDRSdtmUD/ACME/V2#D-ACME_VSDomain_V4> . 
<http://www.assero.co.uk/MDRSdtmUD/ACME/V2#D-ACME_VSDomain> 			<http://www.assero.co.uk/BusinessDomain#includesColumn> 			<http://www.assero.co.uk/MDRSdtmUD/ACME/V2#D-ACME_VSDomain_V5> . 
<http://www.assero.co.uk/MDRSdtmUD/ACME/V2#D-ACME_VSDomain> 			<http://www.assero.co.uk/BusinessDomain#includesColumn> 			<http://www.assero.co.uk/MDRSdtmUD/ACME/V2#D-ACME_VSDomain_V6> . 
<http://www.assero.co.uk/MDRSdtmUD/ACME/V2#D-ACME_VSDomain> 			<http://www.assero.co.uk/BusinessDomain#includesColumn> 			<http://www.assero.co.uk/MDRSdtmUD/ACME/V2#D-ACME_VSDomain_V7> . 
<http://www.assero.co.uk/MDRSdtmUD/ACME/V2#D-ACME_VSDomain> 			<http://www.assero.co.uk/BusinessDomain#includesColumn> 			<http://www.assero.co.uk/MDRSdtmUD/ACME/V2#D-ACME_VSDomain_V8> . 
<http://www.assero.co.uk/MDRSdtmUD/ACME/V2#D-ACME_VSDomain> 			<http://www.assero.co.uk/BusinessDomain#includesColumn> 			<http://www.assero.co.uk/MDRSdtmUD/ACME/V2#D-ACME_VSDomain_V9> . 
<http://www.assero.co.uk/MDRSdtmUD/ACME/V2#D-ACME_VSDomain> 			<http://www.assero.co.uk/BusinessDomain#includesColumn> 			<http://www.assero.co.uk/MDRSdtmUD/ACME/V2#D-ACME_VSDomain_V10> . 
<http://www.assero.co.uk/MDRSdtmUD/ACME/V2#D-ACME_VSDomain> 			<http://www.assero.co.uk/BusinessDomain#includesColumn> 			<http://www.assero.co.uk/MDRSdtmUD/ACME/V2#D-ACME_VSDomain_V11> . 
<http://www.assero.co.uk/MDRSdtmUD/ACME/V2#D-ACME_VSDomain> 			<http://www.assero.co.uk/BusinessDomain#includesColumn> 			<http://www.assero.co.uk/MDRSdtmUD/ACME/V2#D-ACME_VSDomain_V12> . 
<http://www.assero.co.uk/MDRSdtmUD/ACME/V2#D-ACME_VSDomain> 			<http://www.assero.co.uk/BusinessDomain#includesColumn> 			<http://www.assero.co.uk/MDRSdtmUD/ACME/V2#D-ACME_VSDomain_V13> . 
<http://www.assero.co.uk/MDRSdtmUD/ACME/V2#D-ACME_VSDomain> 			<http://www.assero.co.uk/BusinessDomain#includesColumn> 			<http://www.assero.co.uk/MDRSdtmUD/ACME/V2#D-ACME_VSDomain_V14> . 
<http://www.assero.co.uk/MDRSdtmUD/ACME/V2#D-ACME_VSDomain> 			<http://www.assero.co.uk/BusinessDomain#includesColumn> 			<http://www.assero.co.uk/MDRSdtmUD/ACME/V2#D-ACME_VSDomain_V15> . 
<http://www.assero.co.uk/MDRSdtmUD/ACME/V2#D-ACME_VSDomain> 			<http://www.assero.co.uk/BusinessDomain#includesColumn> 			<http://www.assero.co.uk/MDRSdtmUD/ACME/V2#D-ACME_VSDomain_V16> . 
<http://www.assero.co.uk/MDRSdtmUD/ACME/V2#D-ACME_VSDomain> 			<http://www.assero.co.uk/BusinessDomain#includesColumn> 			<http://www.assero.co.uk/MDRSdtmUD/ACME/V2#D-ACME_VSDomain_V17> . 
<http://www.assero.co.uk/MDRSdtmUD/ACME/V2#D-ACME_VSDomain> 			<http://www.assero.co.uk/BusinessDomain#includesColumn> 			<http://www.assero.co.uk/MDRSdtmUD/ACME/V2#D-ACME_VSDomain_V18> . 
<http://www.assero.co.uk/MDRSdtmUD/ACME/V2#D-ACME_VSDomain> 			<http://www.assero.co.uk/BusinessDomain#includesColumn> 			<http://www.assero.co.uk/MDRSdtmUD/ACME/V2#D-ACME_VSDomain_V19> . 
<http://www.assero.co.uk/MDRSdtmUD/ACME/V2#D-ACME_VSDomain> 			<http://www.assero.co.uk/BusinessDomain#includesColumn> 			<http://www.assero.co.uk/MDRSdtmUD/ACME/V2#D-ACME_VSDomain_V20> . 
<http://www.assero.co.uk/MDRSdtmUD/ACME/V2#D-ACME_VSDomain> 			<http://www.assero.co.uk/BusinessDomain#includesColumn> 			<http://www.assero.co.uk/MDRSdtmUD/ACME/V2#D-ACME_VSDomain_V21> . 
<http://www.assero.co.uk/MDRSdtmUD/ACME/V2#D-ACME_VSDomain> 			<http://www.assero.co.uk/BusinessDomain#includesColumn> 			<http://www.assero.co.uk/MDRSdtmUD/ACME/V2#D-ACME_VSDomain_V22> . 
<http://www.assero.co.uk/MDRSdtmUD/ACME/V2#D-ACME_VSDomain> 			<http://www.assero.co.uk/BusinessDomain#includesColumn> 			<http://www.assero.co.uk/MDRSdtmUD/ACME/V2#D-ACME_VSDomain_V23> . 
<http://www.assero.co.uk/MDRSdtmUD/ACME/V2#D-ACME_VSDomain> 			<http://www.assero.co.uk/BusinessDomain#includesColumn> 			<http://www.assero.co.uk/MDRSdtmUD/ACME/V2#D-ACME_VSDomain_V24> . 
<http://www.assero.co.uk/MDRSdtmUD/ACME/V2#D-ACME_VSDomain> 			<http://www.assero.co.uk/BusinessDomain#includesColumn> 			<http://www.assero.co.uk/MDRSdtmUD/ACME/V2#D-ACME_VSDomain_V25> . 
<http://www.assero.co.uk/MDRSdtmUD/ACME/V2#D-ACME_VSDomain> 			<http://www.assero.co.uk/BusinessDomain#includesColumn> 			<http://www.assero.co.uk/MDRSdtmUD/ACME/V2#D-ACME_VSDomain_V26> . 
<http://www.assero.co.uk/MDRSdtmUD/ACME/V2#D-ACME_VSDomain> 			<http://www.assero.co.uk/BusinessDomain#includesColumn> 			<http://www.assero.co.uk/MDRSdtmUD/ACME/V2#D-ACME_VSDomain_V27> . 
<http://www.assero.co.uk/MDRSdtmUD/ACME/V2#D-ACME_VSDomain> 			<http://www.assero.co.uk/BusinessDomain#includesColumn> 			<http://www.assero.co.uk/MDRSdtmUD/ACME/V2#D-ACME_VSDomain_V28> . 
<http://www.assero.co.uk/MDRSdtmUD/ACME/V2#D-ACME_VSDomain> 			<http://www.assero.co.uk/BusinessDomain#includesColumn> 			<http://www.assero.co.uk/MDRSdtmUD/ACME/V2#D-ACME_VSDomain_V29> . 
<http://www.assero.co.uk/MDRSdtmUD/ACME/V2#D-ACME_VSDomain> 			<http://www.assero.co.uk/BusinessDomain#includesColumn> 			<http://www.assero.co.uk/MDRSdtmUD/ACME/V2#D-ACME_VSDomain_V30> . 
<http://www.assero.co.uk/MDRSdtmUD/ACME/V2#D-ACME_VSDomain> 			<http://www.assero.co.uk/BusinessDomain#includesColumn> 			<http://www.assero.co.uk/MDRSdtmUD/ACME/V2#D-ACME_VSDomain_V31> . 
<http://www.assero.co.uk/MDRSdtmUD/ACME/V2#D-ACME_VSDomain> 			<http://www.assero.co.uk/BusinessDomain#includesColumn> 			<http://www.assero.co.uk/MDRSdtmUD/ACME/V2#D-ACME_VSDomain_V32> . 
<http://www.assero.co.uk/MDRSdtmUD/ACME/V2#D-ACME_VSDomain> 			<http://www.assero.co.uk/BusinessDomain#basedOnDomain> 			<http://www.assero.co.uk/MDRSdtmUD/ACME/V2#D-ACME_VSDomain_IGD1> . 
<http://www.assero.co.uk/MDRSdtmUD/ACME/V2#D-ACME_VSDomain> 			<http://www.assero.co.uk/BusinessDomain#basedOnDomain> 			<http://www.assero.co.uk/MDRSdtmUD/ACME/V2#D-ACME_VSDomain_MD1> . 
<http://www.assero.co.uk/MDRSdtmUD/ACME/V2#D-ACME_VSDomain> 			<http://www.assero.co.uk/BusinessDomain#hasBiomedicalConcept> 			<http://www.assero.co.uk/MDRSdtmUD/ACME/V2#D-ACME_VSDomain_PR3> . 
<http://www.assero.co.uk/MDRSdtmUD/ACME/V2#D-ACME_VSDomain> 			<http://www.assero.co.uk/BusinessDomain#hasBiomedicalConcept> 			<http://www.assero.co.uk/MDRSdtmUD/ACME/V2#D-ACME_VSDomain_PR4> . 
<http://www.assero.co.uk/MDRSdtmUD/ACME/V2#D-ACME_VSDomain> 			<http://www.assero.co.uk/BusinessDomain#hasBiomedicalConcept> 			<http://www.assero.co.uk/MDRSdtmUD/ACME/V2#D-ACME_VSDomain_PR5> . 
<http://www.assero.co.uk/MDRSdtmUD/ACME/V2#D-ACME_VSDomain> 			<http://www.assero.co.uk/BusinessDomain#hasBiomedicalConcept> 			<http://www.assero.co.uk/MDRSdtmUD/ACME/V2#D-ACME_VSDomain_BCR7> . 
<http://www.assero.co.uk/MDRSdtmUD/ACME/V2#D-ACME_VSDomain> 			<http://www.assero.co.uk/BusinessDomain#hasBiomedicalConcept> 			<http://www.assero.co.uk/MDRSdtmUD/ACME/V2#D-ACME_VSDomain_BCR8> . 
<http://www.assero.co.uk/MDRSdtmUD/ACME/V2#D-ACME_VSDomain> 			<http://www.assero.co.uk/BusinessDomain#hasBiomedicalConcept> 			<http://www.assero.co.uk/MDRSdtmUD/ACME/V2#D-ACME_VSDomain_BCR9> . 
<http://www.assero.co.uk/MDRSdtmUD/ACME/V2#D-ACME_VSDomain> 			<http://www.assero.co.uk/BusinessDomain#hasBiomedicalConcept> 			<http://www.assero.co.uk/MDRSdtmUD/ACME/V2#D-ACME_VSDomain_BCR10> . 
<http://www.assero.co.uk/MDRSdtmUD/ACME/V2#D-ACME_VSDomain> 			<http://www.assero.co.uk/BusinessDomain#rule> 			"" . 
<http://www.assero.co.uk/MDRSdtmUD/ACME/V2#D-ACME_VSDomain> 			<http://www.assero.co.uk/BusinessDomain#ordinal> 			"1" . 
<http://www.assero.co.uk/MDRSdtmUD/ACME/V2#D-ACME_VSDomain> 			<http://www.assero.co.uk/BusinessDomain#notes> 			"" . 
<http://www.assero.co.uk/MDRSdtmUD/ACME/V2#D-ACME_VSDomain> 			<http://www.assero.co.uk/BusinessDomain#prefix> 			"VS" . 
<http://www.assero.co.uk/MDRSdtmUD/ACME/V2#D-ACME_VSDomain> 			<http://www.assero.co.uk/BusinessDomain#structure> 			"" . 
<http://www.assero.co.uk/MDRSdtmUD/ACME/V2#D-ACME_VSDomain_V1> 			<http://www.w3.org/1999/02/22-rdf-syntax-ns#type> 			<http://www.assero.co.uk/BusinessDomain#UserVariable> . 
<http://www.assero.co.uk/MDRSdtmUD/ACME/V2#D-ACME_VSDomain_V1> 			<http://www.w3.org/2000/01/rdf-schema#label> 			"Study Identifier" . 
<http://www.assero.co.uk/MDRSdtmUD/ACME/V2#D-ACME_VSDomain_V1> 			<http://www.assero.co.uk/BusinessDomain#basedOnVariable> 			<http://www.assero.co.uk/MDRSdtmUD/ACME/V2#D-ACME_VSDomain_V1_IGV1> . 
<http://www.assero.co.uk/MDRSdtmUD/ACME/V2#D-ACME_VSDomain_V1> 			<http://www.assero.co.uk/BusinessDomain#classifiedAs> 			<http://www.assero.co.uk/MDRSdtmM/CDISC/V3#M-CDISC_SDTMMODEL_C_IDENTIFIER> . 
<http://www.assero.co.uk/MDRSdtmUD/ACME/V2#D-ACME_VSDomain_V1> 			<http://www.assero.co.uk/BusinessDomain#typedAs> 			<http://www.assero.co.uk/MDRSdtmM/CDISC/V3#M-CDISC_SDTMMODEL_DT_CHAR> . 
<http://www.assero.co.uk/MDRSdtmUD/ACME/V2#D-ACME_VSDomain_V1> 			<http://www.assero.co.uk/BusinessDomain#compliance> 			<http://www.assero.co.uk/MDRSdtmIg/CDISC/V3#IG-CDISC_SDTMIG_C_REQUIRED> . 
<http://www.assero.co.uk/MDRSdtmUD/ACME/V2#D-ACME_VSDomain_V1> 			<http://www.assero.co.uk/BusinessDomain#rule> 			"" . 
<http://www.assero.co.uk/MDRSdtmUD/ACME/V2#D-ACME_VSDomain_V1> 			<http://www.assero.co.uk/BusinessDomain#ordinal> 			"1" . 
<http://www.assero.co.uk/MDRSdtmUD/ACME/V2#D-ACME_VSDomain_V1> 			<http://www.assero.co.uk/BusinessDomain#name> 			"STUDYID" . 
<http://www.assero.co.uk/MDRSdtmUD/ACME/V2#D-ACME_VSDomain_V1> 			<http://www.assero.co.uk/BusinessDomain#notes> 			"" . 
<http://www.assero.co.uk/MDRSdtmUD/ACME/V2#D-ACME_VSDomain_V1> 			<http://www.assero.co.uk/BusinessDomain#format> 			"" . 
<http://www.assero.co.uk/MDRSdtmUD/ACME/V2#D-ACME_VSDomain_V1> 			<http://www.assero.co.uk/BusinessDomain#ct> 			"" . 
<http://www.assero.co.uk/MDRSdtmUD/ACME/V2#D-ACME_VSDomain_V1> 			<http://www.assero.co.uk/BusinessDomain#length> 			"0" . 
<http://www.assero.co.uk/MDRSdtmUD/ACME/V2#D-ACME_VSDomain_V1> 			<http://www.assero.co.uk/BusinessDomain#comment> 			"" . 
<http://www.assero.co.uk/MDRSdtmUD/ACME/V2#D-ACME_VSDomain_V1> 			<http://www.assero.co.uk/BusinessDomain#non_standard> 			"false" . 
<http://www.assero.co.uk/MDRSdtmUD/ACME/V2#D-ACME_VSDomain_V1> 			<http://www.assero.co.uk/BusinessDomain#used> 			"true" . 
<http://www.assero.co.uk/MDRSdtmUD/ACME/V2#D-ACME_VSDomain_V1> 			<http://www.assero.co.uk/BusinessDomain#key_ordinal> 			"0" . 
<http://www.assero.co.uk/MDRSdtmUD/ACME/V2#D-ACME_VSDomain_V1_IGV1> 			<http://www.w3.org/1999/02/22-rdf-syntax-ns#type> 			<http://www.assero.co.uk/BusinessOperational#CReference> . 
<http://www.assero.co.uk/MDRSdtmUD/ACME/V2#D-ACME_VSDomain_V1_IGV1> 			<http://www.w3.org/2000/01/rdf-schema#label> 			"Based on Variable Reference" . 
<http://www.assero.co.uk/MDRSdtmUD/ACME/V2#D-ACME_VSDomain_V1_IGV1> 			<http://www.assero.co.uk/BusinessOperational#hasColumn> 			<http://www.assero.co.uk/MDRSdtmIgD/CDISC/V3#IG-CDISC_SDTMIGVS_STUDYID> . 
<http://www.assero.co.uk/MDRSdtmUD/ACME/V2#D-ACME_VSDomain_V1_IGV1> 			<http://www.assero.co.uk/BusinessOperational#ordinal> 			"1" . 
<http://www.assero.co.uk/MDRSdtmUD/ACME/V2#D-ACME_VSDomain_V1_IGV1> 			<http://www.assero.co.uk/BusinessOperational#enabled> 			"true" . 
<http://www.assero.co.uk/MDRSdtmUD/ACME/V2#D-ACME_VSDomain_V1_IGV1> 			<http://www.assero.co.uk/BusinessOperational#optional> 			"false" . 
<http://www.assero.co.uk/MDRSdtmUD/ACME/V2#D-ACME_VSDomain_V1_IGV1> 			<http://www.assero.co.uk/BusinessOperational#local_label> 			"" . 
<http://www.assero.co.uk/MDRSdtmUD/ACME/V2#D-ACME_VSDomain_V2> 			<http://www.w3.org/1999/02/22-rdf-syntax-ns#type> 			<http://www.assero.co.uk/BusinessDomain#UserVariable> . 
<http://www.assero.co.uk/MDRSdtmUD/ACME/V2#D-ACME_VSDomain_V2> 			<http://www.w3.org/2000/01/rdf-schema#label> 			"Domain Abbreviation" . 
<http://www.assero.co.uk/MDRSdtmUD/ACME/V2#D-ACME_VSDomain_V2> 			<http://www.assero.co.uk/BusinessDomain#basedOnVariable> 			<http://www.assero.co.uk/MDRSdtmUD/ACME/V2#D-ACME_VSDomain_V2_IGV1> . 
<http://www.assero.co.uk/MDRSdtmUD/ACME/V2#D-ACME_VSDomain_V2> 			<http://www.assero.co.uk/BusinessDomain#classifiedAs> 			<http://www.assero.co.uk/MDRSdtmM/CDISC/V3#M-CDISC_SDTMMODEL_C_IDENTIFIER> . 
<http://www.assero.co.uk/MDRSdtmUD/ACME/V2#D-ACME_VSDomain_V2> 			<http://www.assero.co.uk/BusinessDomain#typedAs> 			<http://www.assero.co.uk/MDRSdtmM/CDISC/V3#M-CDISC_SDTMMODEL_DT_CHAR> . 
<http://www.assero.co.uk/MDRSdtmUD/ACME/V2#D-ACME_VSDomain_V2> 			<http://www.assero.co.uk/BusinessDomain#compliance> 			<http://www.assero.co.uk/MDRSdtmIg/CDISC/V3#IG-CDISC_SDTMIG_C_REQUIRED> . 
<http://www.assero.co.uk/MDRSdtmUD/ACME/V2#D-ACME_VSDomain_V2> 			<http://www.assero.co.uk/BusinessDomain#rule> 			"" . 
<http://www.assero.co.uk/MDRSdtmUD/ACME/V2#D-ACME_VSDomain_V2> 			<http://www.assero.co.uk/BusinessDomain#ordinal> 			"2" . 
<http://www.assero.co.uk/MDRSdtmUD/ACME/V2#D-ACME_VSDomain_V2> 			<http://www.assero.co.uk/BusinessDomain#name> 			"DOMAIN" . 
<http://www.assero.co.uk/MDRSdtmUD/ACME/V2#D-ACME_VSDomain_V2> 			<http://www.assero.co.uk/BusinessDomain#notes> 			"" . 
<http://www.assero.co.uk/MDRSdtmUD/ACME/V2#D-ACME_VSDomain_V2> 			<http://www.assero.co.uk/BusinessDomain#format> 			"" . 
<http://www.assero.co.uk/MDRSdtmUD/ACME/V2#D-ACME_VSDomain_V2> 			<http://www.assero.co.uk/BusinessDomain#ct> 			"DOMAIN" . 
<http://www.assero.co.uk/MDRSdtmUD/ACME/V2#D-ACME_VSDomain_V2> 			<http://www.assero.co.uk/BusinessDomain#length> 			"0" . 
<http://www.assero.co.uk/MDRSdtmUD/ACME/V2#D-ACME_VSDomain_V2> 			<http://www.assero.co.uk/BusinessDomain#comment> 			"" . 
<http://www.assero.co.uk/MDRSdtmUD/ACME/V2#D-ACME_VSDomain_V2> 			<http://www.assero.co.uk/BusinessDomain#non_standard> 			"false" . 
<http://www.assero.co.uk/MDRSdtmUD/ACME/V2#D-ACME_VSDomain_V2> 			<http://www.assero.co.uk/BusinessDomain#used> 			"true" . 
<http://www.assero.co.uk/MDRSdtmUD/ACME/V2#D-ACME_VSDomain_V2> 			<http://www.assero.co.uk/BusinessDomain#key_ordinal> 			"0" . 
<http://www.assero.co.uk/MDRSdtmUD/ACME/V2#D-ACME_VSDomain_V2_IGV1> 			<http://www.w3.org/1999/02/22-rdf-syntax-ns#type> 			<http://www.assero.co.uk/BusinessOperational#CReference> . 
<http://www.assero.co.uk/MDRSdtmUD/ACME/V2#D-ACME_VSDomain_V2_IGV1> 			<http://www.w3.org/2000/01/rdf-schema#label> 			"Based on Variable Reference" . 
<http://www.assero.co.uk/MDRSdtmUD/ACME/V2#D-ACME_VSDomain_V2_IGV1> 			<http://www.assero.co.uk/BusinessOperational#hasColumn> 			<http://www.assero.co.uk/MDRSdtmIgD/CDISC/V3#IG-CDISC_SDTMIGVS_DOMAIN> . 
<http://www.assero.co.uk/MDRSdtmUD/ACME/V2#D-ACME_VSDomain_V2_IGV1> 			<http://www.assero.co.uk/BusinessOperational#ordinal> 			"1" . 
<http://www.assero.co.uk/MDRSdtmUD/ACME/V2#D-ACME_VSDomain_V2_IGV1> 			<http://www.assero.co.uk/BusinessOperational#enabled> 			"true" . 
<http://www.assero.co.uk/MDRSdtmUD/ACME/V2#D-ACME_VSDomain_V2_IGV1> 			<http://www.assero.co.uk/BusinessOperational#optional> 			"false" . 
<http://www.assero.co.uk/MDRSdtmUD/ACME/V2#D-ACME_VSDomain_V2_IGV1> 			<http://www.assero.co.uk/BusinessOperational#local_label> 			"" . 
<http://www.assero.co.uk/MDRSdtmUD/ACME/V2#D-ACME_VSDomain_V3> 			<http://www.w3.org/1999/02/22-rdf-syntax-ns#type> 			<http://www.assero.co.uk/BusinessDomain#UserVariable> . 
<http://www.assero.co.uk/MDRSdtmUD/ACME/V2#D-ACME_VSDomain_V3> 			<http://www.w3.org/2000/01/rdf-schema#label> 			"Unique Subject Identifier" . 
<http://www.assero.co.uk/MDRSdtmUD/ACME/V2#D-ACME_VSDomain_V3> 			<http://www.assero.co.uk/BusinessDomain#basedOnVariable> 			<http://www.assero.co.uk/MDRSdtmUD/ACME/V2#D-ACME_VSDomain_V3_IGV1> . 
<http://www.assero.co.uk/MDRSdtmUD/ACME/V2#D-ACME_VSDomain_V3> 			<http://www.assero.co.uk/BusinessDomain#classifiedAs> 			<http://www.assero.co.uk/MDRSdtmM/CDISC/V3#M-CDISC_SDTMMODEL_C_IDENTIFIER> . 
<http://www.assero.co.uk/MDRSdtmUD/ACME/V2#D-ACME_VSDomain_V3> 			<http://www.assero.co.uk/BusinessDomain#typedAs> 			<http://www.assero.co.uk/MDRSdtmM/CDISC/V3#M-CDISC_SDTMMODEL_DT_CHAR> . 
<http://www.assero.co.uk/MDRSdtmUD/ACME/V2#D-ACME_VSDomain_V3> 			<http://www.assero.co.uk/BusinessDomain#compliance> 			<http://www.assero.co.uk/MDRSdtmIg/CDISC/V3#IG-CDISC_SDTMIG_C_REQUIRED> . 
<http://www.assero.co.uk/MDRSdtmUD/ACME/V2#D-ACME_VSDomain_V3> 			<http://www.assero.co.uk/BusinessDomain#rule> 			"" . 
<http://www.assero.co.uk/MDRSdtmUD/ACME/V2#D-ACME_VSDomain_V3> 			<http://www.assero.co.uk/BusinessDomain#ordinal> 			"3" . 
<http://www.assero.co.uk/MDRSdtmUD/ACME/V2#D-ACME_VSDomain_V3> 			<http://www.assero.co.uk/BusinessDomain#name> 			"USUBJID" . 
<http://www.assero.co.uk/MDRSdtmUD/ACME/V2#D-ACME_VSDomain_V3> 			<http://www.assero.co.uk/BusinessDomain#notes> 			"" . 
<http://www.assero.co.uk/MDRSdtmUD/ACME/V2#D-ACME_VSDomain_V3> 			<http://www.assero.co.uk/BusinessDomain#format> 			"" . 
<http://www.assero.co.uk/MDRSdtmUD/ACME/V2#D-ACME_VSDomain_V3> 			<http://www.assero.co.uk/BusinessDomain#ct> 			"" . 
<http://www.assero.co.uk/MDRSdtmUD/ACME/V2#D-ACME_VSDomain_V3> 			<http://www.assero.co.uk/BusinessDomain#length> 			"0" . 
<http://www.assero.co.uk/MDRSdtmUD/ACME/V2#D-ACME_VSDomain_V3> 			<http://www.assero.co.uk/BusinessDomain#comment> 			"" . 
<http://www.assero.co.uk/MDRSdtmUD/ACME/V2#D-ACME_VSDomain_V3> 			<http://www.assero.co.uk/BusinessDomain#non_standard> 			"false" . 
<http://www.assero.co.uk/MDRSdtmUD/ACME/V2#D-ACME_VSDomain_V3> 			<http://www.assero.co.uk/BusinessDomain#used> 			"true" . 
<http://www.assero.co.uk/MDRSdtmUD/ACME/V2#D-ACME_VSDomain_V3> 			<http://www.assero.co.uk/BusinessDomain#key_ordinal> 			"0" . 
<http://www.assero.co.uk/MDRSdtmUD/ACME/V2#D-ACME_VSDomain_V3_IGV1> 			<http://www.w3.org/1999/02/22-rdf-syntax-ns#type> 			<http://www.assero.co.uk/BusinessOperational#CReference> . 
<http://www.assero.co.uk/MDRSdtmUD/ACME/V2#D-ACME_VSDomain_V3_IGV1> 			<http://www.w3.org/2000/01/rdf-schema#label> 			"Based on Variable Reference" . 
<http://www.assero.co.uk/MDRSdtmUD/ACME/V2#D-ACME_VSDomain_V3_IGV1> 			<http://www.assero.co.uk/BusinessOperational#hasColumn> 			<http://www.assero.co.uk/MDRSdtmIgD/CDISC/V3#IG-CDISC_SDTMIGVS_USUBJID> . 
<http://www.assero.co.uk/MDRSdtmUD/ACME/V2#D-ACME_VSDomain_V3_IGV1> 			<http://www.assero.co.uk/BusinessOperational#ordinal> 			"1" . 
<http://www.assero.co.uk/MDRSdtmUD/ACME/V2#D-ACME_VSDomain_V3_IGV1> 			<http://www.assero.co.uk/BusinessOperational#enabled> 			"true" . 
<http://www.assero.co.uk/MDRSdtmUD/ACME/V2#D-ACME_VSDomain_V3_IGV1> 			<http://www.assero.co.uk/BusinessOperational#optional> 			"false" . 
<http://www.assero.co.uk/MDRSdtmUD/ACME/V2#D-ACME_VSDomain_V3_IGV1> 			<http://www.assero.co.uk/BusinessOperational#local_label> 			"" . 
<http://www.assero.co.uk/MDRSdtmUD/ACME/V2#D-ACME_VSDomain_V4> 			<http://www.w3.org/1999/02/22-rdf-syntax-ns#type> 			<http://www.assero.co.uk/BusinessDomain#UserVariable> . 
<http://www.assero.co.uk/MDRSdtmUD/ACME/V2#D-ACME_VSDomain_V4> 			<http://www.w3.org/2000/01/rdf-schema#label> 			"Sequence Number" . 
<http://www.assero.co.uk/MDRSdtmUD/ACME/V2#D-ACME_VSDomain_V4> 			<http://www.assero.co.uk/BusinessDomain#basedOnVariable> 			<http://www.assero.co.uk/MDRSdtmUD/ACME/V2#D-ACME_VSDomain_V4_IGV1> . 
<http://www.assero.co.uk/MDRSdtmUD/ACME/V2#D-ACME_VSDomain_V4> 			<http://www.assero.co.uk/BusinessDomain#classifiedAs> 			<http://www.assero.co.uk/MDRSdtmM/CDISC/V3#M-CDISC_SDTMMODEL_C_IDENTIFIER> . 
<http://www.assero.co.uk/MDRSdtmUD/ACME/V2#D-ACME_VSDomain_V4> 			<http://www.assero.co.uk/BusinessDomain#typedAs> 			<http://www.assero.co.uk/MDRSdtmM/CDISC/V3#M-CDISC_SDTMMODEL_DT_NUM> . 
<http://www.assero.co.uk/MDRSdtmUD/ACME/V2#D-ACME_VSDomain_V4> 			<http://www.assero.co.uk/BusinessDomain#compliance> 			<http://www.assero.co.uk/MDRSdtmIg/CDISC/V3#IG-CDISC_SDTMIG_C_REQUIRED> . 
<http://www.assero.co.uk/MDRSdtmUD/ACME/V2#D-ACME_VSDomain_V4> 			<http://www.assero.co.uk/BusinessDomain#rule> 			"" . 
<http://www.assero.co.uk/MDRSdtmUD/ACME/V2#D-ACME_VSDomain_V4> 			<http://www.assero.co.uk/BusinessDomain#ordinal> 			"4" . 
<http://www.assero.co.uk/MDRSdtmUD/ACME/V2#D-ACME_VSDomain_V4> 			<http://www.assero.co.uk/BusinessDomain#name> 			"VSSEQ" . 
<http://www.assero.co.uk/MDRSdtmUD/ACME/V2#D-ACME_VSDomain_V4> 			<http://www.assero.co.uk/BusinessDomain#notes> 			"" . 
<http://www.assero.co.uk/MDRSdtmUD/ACME/V2#D-ACME_VSDomain_V4> 			<http://www.assero.co.uk/BusinessDomain#format> 			"" . 
<http://www.assero.co.uk/MDRSdtmUD/ACME/V2#D-ACME_VSDomain_V4> 			<http://www.assero.co.uk/BusinessDomain#ct> 			"" . 
<http://www.assero.co.uk/MDRSdtmUD/ACME/V2#D-ACME_VSDomain_V4> 			<http://www.assero.co.uk/BusinessDomain#length> 			"0" . 
<http://www.assero.co.uk/MDRSdtmUD/ACME/V2#D-ACME_VSDomain_V4> 			<http://www.assero.co.uk/BusinessDomain#comment> 			"" . 
<http://www.assero.co.uk/MDRSdtmUD/ACME/V2#D-ACME_VSDomain_V4> 			<http://www.assero.co.uk/BusinessDomain#non_standard> 			"false" . 
<http://www.assero.co.uk/MDRSdtmUD/ACME/V2#D-ACME_VSDomain_V4> 			<http://www.assero.co.uk/BusinessDomain#used> 			"true" . 
<http://www.assero.co.uk/MDRSdtmUD/ACME/V2#D-ACME_VSDomain_V4> 			<http://www.assero.co.uk/BusinessDomain#key_ordinal> 			"0" . 
<http://www.assero.co.uk/MDRSdtmUD/ACME/V2#D-ACME_VSDomain_V4_IGV1> 			<http://www.w3.org/1999/02/22-rdf-syntax-ns#type> 			<http://www.assero.co.uk/BusinessOperational#CReference> . 
<http://www.assero.co.uk/MDRSdtmUD/ACME/V2#D-ACME_VSDomain_V4_IGV1> 			<http://www.w3.org/2000/01/rdf-schema#label> 			"Based on Variable Reference" . 
<http://www.assero.co.uk/MDRSdtmUD/ACME/V2#D-ACME_VSDomain_V4_IGV1> 			<http://www.assero.co.uk/BusinessOperational#hasColumn> 			<http://www.assero.co.uk/MDRSdtmIgD/CDISC/V3#IG-CDISC_SDTMIGVS_VSSEQ> . 
<http://www.assero.co.uk/MDRSdtmUD/ACME/V2#D-ACME_VSDomain_V4_IGV1> 			<http://www.assero.co.uk/BusinessOperational#ordinal> 			"1" . 
<http://www.assero.co.uk/MDRSdtmUD/ACME/V2#D-ACME_VSDomain_V4_IGV1> 			<http://www.assero.co.uk/BusinessOperational#enabled> 			"true" . 
<http://www.assero.co.uk/MDRSdtmUD/ACME/V2#D-ACME_VSDomain_V4_IGV1> 			<http://www.assero.co.uk/BusinessOperational#optional> 			"false" . 
<http://www.assero.co.uk/MDRSdtmUD/ACME/V2#D-ACME_VSDomain_V4_IGV1> 			<http://www.assero.co.uk/BusinessOperational#local_label> 			"" . 
<http://www.assero.co.uk/MDRSdtmUD/ACME/V2#D-ACME_VSDomain_V5> 			<http://www.w3.org/1999/02/22-rdf-syntax-ns#type> 			<http://www.assero.co.uk/BusinessDomain#UserVariable> . 
<http://www.assero.co.uk/MDRSdtmUD/ACME/V2#D-ACME_VSDomain_V5> 			<http://www.w3.org/2000/01/rdf-schema#label> 			"Group ID" . 
<http://www.assero.co.uk/MDRSdtmUD/ACME/V2#D-ACME_VSDomain_V5> 			<http://www.assero.co.uk/BusinessDomain#basedOnVariable> 			<http://www.assero.co.uk/MDRSdtmUD/ACME/V2#D-ACME_VSDomain_V5_IGV1> . 
<http://www.assero.co.uk/MDRSdtmUD/ACME/V2#D-ACME_VSDomain_V5> 			<http://www.assero.co.uk/BusinessDomain#classifiedAs> 			<http://www.assero.co.uk/MDRSdtmM/CDISC/V3#M-CDISC_SDTMMODEL_C_IDENTIFIER> . 
<http://www.assero.co.uk/MDRSdtmUD/ACME/V2#D-ACME_VSDomain_V5> 			<http://www.assero.co.uk/BusinessDomain#typedAs> 			<http://www.assero.co.uk/MDRSdtmM/CDISC/V3#M-CDISC_SDTMMODEL_DT_CHAR> . 
<http://www.assero.co.uk/MDRSdtmUD/ACME/V2#D-ACME_VSDomain_V5> 			<http://www.assero.co.uk/BusinessDomain#compliance> 			<http://www.assero.co.uk/MDRSdtmIg/CDISC/V3#IG-CDISC_SDTMIG_C_PERMISSIBLE> . 
<http://www.assero.co.uk/MDRSdtmUD/ACME/V2#D-ACME_VSDomain_V5> 			<http://www.assero.co.uk/BusinessDomain#rule> 			"" . 
<http://www.assero.co.uk/MDRSdtmUD/ACME/V2#D-ACME_VSDomain_V5> 			<http://www.assero.co.uk/BusinessDomain#ordinal> 			"5" . 
<http://www.assero.co.uk/MDRSdtmUD/ACME/V2#D-ACME_VSDomain_V5> 			<http://www.assero.co.uk/BusinessDomain#name> 			"VSGRPID" . 
<http://www.assero.co.uk/MDRSdtmUD/ACME/V2#D-ACME_VSDomain_V5> 			<http://www.assero.co.uk/BusinessDomain#notes> 			"" . 
<http://www.assero.co.uk/MDRSdtmUD/ACME/V2#D-ACME_VSDomain_V5> 			<http://www.assero.co.uk/BusinessDomain#format> 			"" . 
<http://www.assero.co.uk/MDRSdtmUD/ACME/V2#D-ACME_VSDomain_V5> 			<http://www.assero.co.uk/BusinessDomain#ct> 			"" . 
<http://www.assero.co.uk/MDRSdtmUD/ACME/V2#D-ACME_VSDomain_V5> 			<http://www.assero.co.uk/BusinessDomain#length> 			"0" . 
<http://www.assero.co.uk/MDRSdtmUD/ACME/V2#D-ACME_VSDomain_V5> 			<http://www.assero.co.uk/BusinessDomain#comment> 			"" . 
<http://www.assero.co.uk/MDRSdtmUD/ACME/V2#D-ACME_VSDomain_V5> 			<http://www.assero.co.uk/BusinessDomain#non_standard> 			"false" . 
<http://www.assero.co.uk/MDRSdtmUD/ACME/V2#D-ACME_VSDomain_V5> 			<http://www.assero.co.uk/BusinessDomain#used> 			"true" . 
<http://www.assero.co.uk/MDRSdtmUD/ACME/V2#D-ACME_VSDomain_V5> 			<http://www.assero.co.uk/BusinessDomain#key_ordinal> 			"0" . 
<http://www.assero.co.uk/MDRSdtmUD/ACME/V2#D-ACME_VSDomain_V5_IGV1> 			<http://www.w3.org/1999/02/22-rdf-syntax-ns#type> 			<http://www.assero.co.uk/BusinessOperational#CReference> . 
<http://www.assero.co.uk/MDRSdtmUD/ACME/V2#D-ACME_VSDomain_V5_IGV1> 			<http://www.w3.org/2000/01/rdf-schema#label> 			"Based on Variable Reference" . 
<http://www.assero.co.uk/MDRSdtmUD/ACME/V2#D-ACME_VSDomain_V5_IGV1> 			<http://www.assero.co.uk/BusinessOperational#hasColumn> 			<http://www.assero.co.uk/MDRSdtmIgD/CDISC/V3#IG-CDISC_SDTMIGVS_VSGRPID> . 
<http://www.assero.co.uk/MDRSdtmUD/ACME/V2#D-ACME_VSDomain_V5_IGV1> 			<http://www.assero.co.uk/BusinessOperational#ordinal> 			"1" . 
<http://www.assero.co.uk/MDRSdtmUD/ACME/V2#D-ACME_VSDomain_V5_IGV1> 			<http://www.assero.co.uk/BusinessOperational#enabled> 			"true" . 
<http://www.assero.co.uk/MDRSdtmUD/ACME/V2#D-ACME_VSDomain_V5_IGV1> 			<http://www.assero.co.uk/BusinessOperational#optional> 			"false" . 
<http://www.assero.co.uk/MDRSdtmUD/ACME/V2#D-ACME_VSDomain_V5_IGV1> 			<http://www.assero.co.uk/BusinessOperational#local_label> 			"" . 
<http://www.assero.co.uk/MDRSdtmUD/ACME/V2#D-ACME_VSDomain_V6> 			<http://www.w3.org/1999/02/22-rdf-syntax-ns#type> 			<http://www.assero.co.uk/BusinessDomain#UserVariable> . 
<http://www.assero.co.uk/MDRSdtmUD/ACME/V2#D-ACME_VSDomain_V6> 			<http://www.w3.org/2000/01/rdf-schema#label> 			"Sponsor-Defined Identifier" . 
<http://www.assero.co.uk/MDRSdtmUD/ACME/V2#D-ACME_VSDomain_V6> 			<http://www.assero.co.uk/BusinessDomain#basedOnVariable> 			<http://www.assero.co.uk/MDRSdtmUD/ACME/V2#D-ACME_VSDomain_V6_IGV1> . 
<http://www.assero.co.uk/MDRSdtmUD/ACME/V2#D-ACME_VSDomain_V6> 			<http://www.assero.co.uk/BusinessDomain#classifiedAs> 			<http://www.assero.co.uk/MDRSdtmM/CDISC/V3#M-CDISC_SDTMMODEL_C_IDENTIFIER> . 
<http://www.assero.co.uk/MDRSdtmUD/ACME/V2#D-ACME_VSDomain_V6> 			<http://www.assero.co.uk/BusinessDomain#typedAs> 			<http://www.assero.co.uk/MDRSdtmM/CDISC/V3#M-CDISC_SDTMMODEL_DT_CHAR> . 
<http://www.assero.co.uk/MDRSdtmUD/ACME/V2#D-ACME_VSDomain_V6> 			<http://www.assero.co.uk/BusinessDomain#compliance> 			<http://www.assero.co.uk/MDRSdtmIg/CDISC/V3#IG-CDISC_SDTMIG_C_PERMISSIBLE> . 
<http://www.assero.co.uk/MDRSdtmUD/ACME/V2#D-ACME_VSDomain_V6> 			<http://www.assero.co.uk/BusinessDomain#rule> 			"" . 
<http://www.assero.co.uk/MDRSdtmUD/ACME/V2#D-ACME_VSDomain_V6> 			<http://www.assero.co.uk/BusinessDomain#ordinal> 			"6" . 
<http://www.assero.co.uk/MDRSdtmUD/ACME/V2#D-ACME_VSDomain_V6> 			<http://www.assero.co.uk/BusinessDomain#name> 			"VSSPID" . 
<http://www.assero.co.uk/MDRSdtmUD/ACME/V2#D-ACME_VSDomain_V6> 			<http://www.assero.co.uk/BusinessDomain#notes> 			"" . 
<http://www.assero.co.uk/MDRSdtmUD/ACME/V2#D-ACME_VSDomain_V6> 			<http://www.assero.co.uk/BusinessDomain#format> 			"" . 
<http://www.assero.co.uk/MDRSdtmUD/ACME/V2#D-ACME_VSDomain_V6> 			<http://www.assero.co.uk/BusinessDomain#ct> 			"" . 
<http://www.assero.co.uk/MDRSdtmUD/ACME/V2#D-ACME_VSDomain_V6> 			<http://www.assero.co.uk/BusinessDomain#length> 			"0" . 
<http://www.assero.co.uk/MDRSdtmUD/ACME/V2#D-ACME_VSDomain_V6> 			<http://www.assero.co.uk/BusinessDomain#comment> 			"" . 
<http://www.assero.co.uk/MDRSdtmUD/ACME/V2#D-ACME_VSDomain_V6> 			<http://www.assero.co.uk/BusinessDomain#non_standard> 			"false" . 
<http://www.assero.co.uk/MDRSdtmUD/ACME/V2#D-ACME_VSDomain_V6> 			<http://www.assero.co.uk/BusinessDomain#used> 			"true" . 
<http://www.assero.co.uk/MDRSdtmUD/ACME/V2#D-ACME_VSDomain_V6> 			<http://www.assero.co.uk/BusinessDomain#key_ordinal> 			"0" . 
<http://www.assero.co.uk/MDRSdtmUD/ACME/V2#D-ACME_VSDomain_V6_IGV1> 			<http://www.w3.org/1999/02/22-rdf-syntax-ns#type> 			<http://www.assero.co.uk/BusinessOperational#CReference> . 
<http://www.assero.co.uk/MDRSdtmUD/ACME/V2#D-ACME_VSDomain_V6_IGV1> 			<http://www.w3.org/2000/01/rdf-schema#label> 			"Based on Variable Reference" . 
<http://www.assero.co.uk/MDRSdtmUD/ACME/V2#D-ACME_VSDomain_V6_IGV1> 			<http://www.assero.co.uk/BusinessOperational#hasColumn> 			<http://www.assero.co.uk/MDRSdtmIgD/CDISC/V3#IG-CDISC_SDTMIGVS_VSSPID> . 
<http://www.assero.co.uk/MDRSdtmUD/ACME/V2#D-ACME_VSDomain_V6_IGV1> 			<http://www.assero.co.uk/BusinessOperational#ordinal> 			"1" . 
<http://www.assero.co.uk/MDRSdtmUD/ACME/V2#D-ACME_VSDomain_V6_IGV1> 			<http://www.assero.co.uk/BusinessOperational#enabled> 			"true" . 
<http://www.assero.co.uk/MDRSdtmUD/ACME/V2#D-ACME_VSDomain_V6_IGV1> 			<http://www.assero.co.uk/BusinessOperational#optional> 			"false" . 
<http://www.assero.co.uk/MDRSdtmUD/ACME/V2#D-ACME_VSDomain_V6_IGV1> 			<http://www.assero.co.uk/BusinessOperational#local_label> 			"" . 
<http://www.assero.co.uk/MDRSdtmUD/ACME/V2#D-ACME_VSDomain_V7> 			<http://www.w3.org/1999/02/22-rdf-syntax-ns#type> 			<http://www.assero.co.uk/BusinessDomain#UserVariable> . 
<http://www.assero.co.uk/MDRSdtmUD/ACME/V2#D-ACME_VSDomain_V7> 			<http://www.w3.org/2000/01/rdf-schema#label> 			"Vital Signs Test Short Name" . 
<http://www.assero.co.uk/MDRSdtmUD/ACME/V2#D-ACME_VSDomain_V7> 			<http://www.assero.co.uk/BusinessDomain#basedOnVariable> 			<http://www.assero.co.uk/MDRSdtmUD/ACME/V2#D-ACME_VSDomain_V7_IGV1> . 
<http://www.assero.co.uk/MDRSdtmUD/ACME/V2#D-ACME_VSDomain_V7> 			<http://www.assero.co.uk/BusinessDomain#classifiedAs> 			<http://www.assero.co.uk/MDRSdtmM/CDISC/V3#M-CDISC_SDTMMODEL_C_TOPIC> . 
<http://www.assero.co.uk/MDRSdtmUD/ACME/V2#D-ACME_VSDomain_V7> 			<http://www.assero.co.uk/BusinessDomain#typedAs> 			<http://www.assero.co.uk/MDRSdtmM/CDISC/V3#M-CDISC_SDTMMODEL_DT_CHAR> . 
<http://www.assero.co.uk/MDRSdtmUD/ACME/V2#D-ACME_VSDomain_V7> 			<http://www.assero.co.uk/BusinessDomain#compliance> 			<http://www.assero.co.uk/MDRSdtmIg/CDISC/V3#IG-CDISC_SDTMIG_C_REQUIRED> . 
<http://www.assero.co.uk/MDRSdtmUD/ACME/V2#D-ACME_VSDomain_V7> 			<http://www.assero.co.uk/BusinessDomain#hasProperty> 			<http://www.assero.co.uk/MDRSdtmUD/ACME/V2#D-ACME_VSDomain_V7_PR3> . 
<http://www.assero.co.uk/MDRSdtmUD/ACME/V2#D-ACME_VSDomain_V7> 			<http://www.assero.co.uk/BusinessDomain#hasProperty> 			<http://www.assero.co.uk/MDRSdtmUD/ACME/V2#D-ACME_VSDomain_V7_PR4> . 
<http://www.assero.co.uk/MDRSdtmUD/ACME/V2#D-ACME_VSDomain_V7> 			<http://www.assero.co.uk/BusinessDomain#hasProperty> 			<http://www.assero.co.uk/MDRSdtmUD/ACME/V2#D-ACME_VSDomain_V7_PR5> . 
<http://www.assero.co.uk/MDRSdtmUD/ACME/V2#D-ACME_VSDomain_V7> 			<http://www.assero.co.uk/BusinessDomain#hasProperty> 			<http://www.assero.co.uk/MDRSdtmUD/ACME/V2#D-ACME_VSDomain_V7_PR7> . 
<http://www.assero.co.uk/MDRSdtmUD/ACME/V2#D-ACME_VSDomain_V7> 			<http://www.assero.co.uk/BusinessDomain#hasProperty> 			<http://www.assero.co.uk/MDRSdtmUD/ACME/V2#D-ACME_VSDomain_V7_PR8> . 
<http://www.assero.co.uk/MDRSdtmUD/ACME/V2#D-ACME_VSDomain_V7> 			<http://www.assero.co.uk/BusinessDomain#hasProperty> 			<http://www.assero.co.uk/MDRSdtmUD/ACME/V2#D-ACME_VSDomain_V7_PR9> . 
<http://www.assero.co.uk/MDRSdtmUD/ACME/V2#D-ACME_VSDomain_V7> 			<http://www.assero.co.uk/BusinessDomain#hasProperty> 			<http://www.assero.co.uk/MDRSdtmUD/ACME/V2#D-ACME_VSDomain_V7_PR10> . 
<http://www.assero.co.uk/MDRSdtmUD/ACME/V2#D-ACME_VSDomain_V7> 			<http://www.assero.co.uk/BusinessDomain#rule> 			"" . 
<http://www.assero.co.uk/MDRSdtmUD/ACME/V2#D-ACME_VSDomain_V7> 			<http://www.assero.co.uk/BusinessDomain#ordinal> 			"7" . 
<http://www.assero.co.uk/MDRSdtmUD/ACME/V2#D-ACME_VSDomain_V7> 			<http://www.assero.co.uk/BusinessDomain#name> 			"VSTESTCD" . 
<http://www.assero.co.uk/MDRSdtmUD/ACME/V2#D-ACME_VSDomain_V7> 			<http://www.assero.co.uk/BusinessDomain#notes> 			"" . 
<http://www.assero.co.uk/MDRSdtmUD/ACME/V2#D-ACME_VSDomain_V7> 			<http://www.assero.co.uk/BusinessDomain#format> 			"" . 
<http://www.assero.co.uk/MDRSdtmUD/ACME/V2#D-ACME_VSDomain_V7> 			<http://www.assero.co.uk/BusinessDomain#ct> 			"VSTESTCD" . 
<http://www.assero.co.uk/MDRSdtmUD/ACME/V2#D-ACME_VSDomain_V7> 			<http://www.assero.co.uk/BusinessDomain#length> 			"0" . 
<http://www.assero.co.uk/MDRSdtmUD/ACME/V2#D-ACME_VSDomain_V7> 			<http://www.assero.co.uk/BusinessDomain#comment> 			"" . 
<http://www.assero.co.uk/MDRSdtmUD/ACME/V2#D-ACME_VSDomain_V7> 			<http://www.assero.co.uk/BusinessDomain#non_standard> 			"false" . 
<http://www.assero.co.uk/MDRSdtmUD/ACME/V2#D-ACME_VSDomain_V7> 			<http://www.assero.co.uk/BusinessDomain#used> 			"true" . 
<http://www.assero.co.uk/MDRSdtmUD/ACME/V2#D-ACME_VSDomain_V7> 			<http://www.assero.co.uk/BusinessDomain#key_ordinal> 			"0" . 
<http://www.assero.co.uk/MDRSdtmUD/ACME/V2#D-ACME_VSDomain_V7_IGV1> 			<http://www.w3.org/1999/02/22-rdf-syntax-ns#type> 			<http://www.assero.co.uk/BusinessOperational#CReference> . 
<http://www.assero.co.uk/MDRSdtmUD/ACME/V2#D-ACME_VSDomain_V7_IGV1> 			<http://www.w3.org/2000/01/rdf-schema#label> 			"Based on Variable Reference" . 
<http://www.assero.co.uk/MDRSdtmUD/ACME/V2#D-ACME_VSDomain_V7_IGV1> 			<http://www.assero.co.uk/BusinessOperational#hasColumn> 			<http://www.assero.co.uk/MDRSdtmIgD/CDISC/V3#IG-CDISC_SDTMIGVS_VSTESTCD> . 
<http://www.assero.co.uk/MDRSdtmUD/ACME/V2#D-ACME_VSDomain_V7_IGV1> 			<http://www.assero.co.uk/BusinessOperational#ordinal> 			"1" . 
<http://www.assero.co.uk/MDRSdtmUD/ACME/V2#D-ACME_VSDomain_V7_IGV1> 			<http://www.assero.co.uk/BusinessOperational#enabled> 			"true" . 
<http://www.assero.co.uk/MDRSdtmUD/ACME/V2#D-ACME_VSDomain_V7_IGV1> 			<http://www.assero.co.uk/BusinessOperational#optional> 			"false" . 
<http://www.assero.co.uk/MDRSdtmUD/ACME/V2#D-ACME_VSDomain_V7_IGV1> 			<http://www.assero.co.uk/BusinessOperational#local_label> 			"" . 
<http://www.assero.co.uk/MDRSdtmUD/ACME/V2#D-ACME_VSDomain_V7_PR3> 			<http://www.w3.org/1999/02/22-rdf-syntax-ns#type> 			<http://www.assero.co.uk/BusinessOperational#PReference> . 
<http://www.assero.co.uk/MDRSdtmUD/ACME/V2#D-ACME_VSDomain_V7_PR3> 			<http://www.w3.org/2000/01/rdf-schema#label> 			"BC Property Reference" . 
<http://www.assero.co.uk/MDRSdtmUD/ACME/V2#D-ACME_VSDomain_V7_PR3> 			<http://www.assero.co.uk/BusinessOperational#hasProperty> 			<http://www.assero.co.uk/MDRBCs/V1#BC-ACME_BC_C25347_DefinedObservation_nameCode_CD_code> . 
<http://www.assero.co.uk/MDRSdtmUD/ACME/V2#D-ACME_VSDomain_V7_PR3> 			<http://www.assero.co.uk/BusinessOperational#ordinal> 			"3" . 
<http://www.assero.co.uk/MDRSdtmUD/ACME/V2#D-ACME_VSDomain_V7_PR3> 			<http://www.assero.co.uk/BusinessOperational#enabled> 			"true" . 
<http://www.assero.co.uk/MDRSdtmUD/ACME/V2#D-ACME_VSDomain_V7_PR3> 			<http://www.assero.co.uk/BusinessOperational#optional> 			"false" . 
<http://www.assero.co.uk/MDRSdtmUD/ACME/V2#D-ACME_VSDomain_V7_PR3> 			<http://www.assero.co.uk/BusinessOperational#local_label> 			"" . 
<http://www.assero.co.uk/MDRSdtmUD/ACME/V2#D-ACME_VSDomain_V7_PR4> 			<http://www.w3.org/1999/02/22-rdf-syntax-ns#type> 			<http://www.assero.co.uk/BusinessOperational#PReference> . 
<http://www.assero.co.uk/MDRSdtmUD/ACME/V2#D-ACME_VSDomain_V7_PR4> 			<http://www.w3.org/2000/01/rdf-schema#label> 			"BC Property Reference" . 
<http://www.assero.co.uk/MDRSdtmUD/ACME/V2#D-ACME_VSDomain_V7_PR4> 			<http://www.assero.co.uk/BusinessOperational#hasProperty> 			<http://www.assero.co.uk/MDRBCs/V1#BC-ACME_BC_C49677_DefinedObservation_nameCode_CD_code> . 
<http://www.assero.co.uk/MDRSdtmUD/ACME/V2#D-ACME_VSDomain_V7_PR4> 			<http://www.assero.co.uk/BusinessOperational#ordinal> 			"4" . 
<http://www.assero.co.uk/MDRSdtmUD/ACME/V2#D-ACME_VSDomain_V7_PR4> 			<http://www.assero.co.uk/BusinessOperational#enabled> 			"true" . 
<http://www.assero.co.uk/MDRSdtmUD/ACME/V2#D-ACME_VSDomain_V7_PR4> 			<http://www.assero.co.uk/BusinessOperational#optional> 			"false" . 
<http://www.assero.co.uk/MDRSdtmUD/ACME/V2#D-ACME_VSDomain_V7_PR4> 			<http://www.assero.co.uk/BusinessOperational#local_label> 			"" . 
<http://www.assero.co.uk/MDRSdtmUD/ACME/V2#D-ACME_VSDomain_V7_PR5> 			<http://www.w3.org/1999/02/22-rdf-syntax-ns#type> 			<http://www.assero.co.uk/BusinessOperational#PReference> . 
<http://www.assero.co.uk/MDRSdtmUD/ACME/V2#D-ACME_VSDomain_V7_PR5> 			<http://www.w3.org/2000/01/rdf-schema#label> 			"BC Property Reference" . 
<http://www.assero.co.uk/MDRSdtmUD/ACME/V2#D-ACME_VSDomain_V7_PR5> 			<http://www.assero.co.uk/BusinessOperational#hasProperty> 			<http://www.assero.co.uk/MDRBCs/V1#BC-ACME_BC_C49678_DefinedObservation_nameCode_CD_code> . 
<http://www.assero.co.uk/MDRSdtmUD/ACME/V2#D-ACME_VSDomain_V7_PR5> 			<http://www.assero.co.uk/BusinessOperational#ordinal> 			"5" . 
<http://www.assero.co.uk/MDRSdtmUD/ACME/V2#D-ACME_VSDomain_V7_PR5> 			<http://www.assero.co.uk/BusinessOperational#enabled> 			"true" . 
<http://www.assero.co.uk/MDRSdtmUD/ACME/V2#D-ACME_VSDomain_V7_PR5> 			<http://www.assero.co.uk/BusinessOperational#optional> 			"false" . 
<http://www.assero.co.uk/MDRSdtmUD/ACME/V2#D-ACME_VSDomain_V7_PR5> 			<http://www.assero.co.uk/BusinessOperational#local_label> 			"" . 
<http://www.assero.co.uk/MDRSdtmUD/ACME/V2#D-ACME_VSDomain_V7_PR7> 			<http://www.w3.org/1999/02/22-rdf-syntax-ns#type> 			<http://www.assero.co.uk/BusinessOperational#PReference> . 
<http://www.assero.co.uk/MDRSdtmUD/ACME/V2#D-ACME_VSDomain_V7_PR7> 			<http://www.w3.org/2000/01/rdf-schema#label> 			"BC Property Reference" . 
<http://www.assero.co.uk/MDRSdtmUD/ACME/V2#D-ACME_VSDomain_V7_PR7> 			<http://www.assero.co.uk/BusinessOperational#hasProperty> 			<http://www.assero.co.uk/MDRBCs/ACME/V4#BC-ACME_BCC25206_I1_DT1_P1> . 
<http://www.assero.co.uk/MDRSdtmUD/ACME/V2#D-ACME_VSDomain_V7_PR7> 			<http://www.assero.co.uk/BusinessOperational#ordinal> 			"7" . 
<http://www.assero.co.uk/MDRSdtmUD/ACME/V2#D-ACME_VSDomain_V7_PR7> 			<http://www.assero.co.uk/BusinessOperational#enabled> 			"true" . 
<http://www.assero.co.uk/MDRSdtmUD/ACME/V2#D-ACME_VSDomain_V7_PR7> 			<http://www.assero.co.uk/BusinessOperational#optional> 			"false" . 
<http://www.assero.co.uk/MDRSdtmUD/ACME/V2#D-ACME_VSDomain_V7_PR7> 			<http://www.assero.co.uk/BusinessOperational#local_label> 			"" . 
<http://www.assero.co.uk/MDRSdtmUD/ACME/V2#D-ACME_VSDomain_V7_PR8> 			<http://www.w3.org/1999/02/22-rdf-syntax-ns#type> 			<http://www.assero.co.uk/BusinessOperational#PReference> . 
<http://www.assero.co.uk/MDRSdtmUD/ACME/V2#D-ACME_VSDomain_V7_PR8> 			<http://www.w3.org/2000/01/rdf-schema#label> 			"BC Property Reference" . 
<http://www.assero.co.uk/MDRSdtmUD/ACME/V2#D-ACME_VSDomain_V7_PR8> 			<http://www.assero.co.uk/BusinessOperational#hasProperty> 			<http://www.assero.co.uk/MDRBCs/ACME/V2#BC-ACME_BCC25208_I1_DT1_P1> . 
<http://www.assero.co.uk/MDRSdtmUD/ACME/V2#D-ACME_VSDomain_V7_PR8> 			<http://www.assero.co.uk/BusinessOperational#ordinal> 			"8" . 
<http://www.assero.co.uk/MDRSdtmUD/ACME/V2#D-ACME_VSDomain_V7_PR8> 			<http://www.assero.co.uk/BusinessOperational#enabled> 			"true" . 
<http://www.assero.co.uk/MDRSdtmUD/ACME/V2#D-ACME_VSDomain_V7_PR8> 			<http://www.assero.co.uk/BusinessOperational#optional> 			"false" . 
<http://www.assero.co.uk/MDRSdtmUD/ACME/V2#D-ACME_VSDomain_V7_PR8> 			<http://www.assero.co.uk/BusinessOperational#local_label> 			"" . 
<http://www.assero.co.uk/MDRSdtmUD/ACME/V2#D-ACME_VSDomain_V7_PR9> 			<http://www.w3.org/1999/02/22-rdf-syntax-ns#type> 			<http://www.assero.co.uk/BusinessOperational#PReference> . 
<http://www.assero.co.uk/MDRSdtmUD/ACME/V2#D-ACME_VSDomain_V7_PR9> 			<http://www.w3.org/2000/01/rdf-schema#label> 			"BC Property Reference" . 
<http://www.assero.co.uk/MDRSdtmUD/ACME/V2#D-ACME_VSDomain_V7_PR9> 			<http://www.assero.co.uk/BusinessOperational#hasProperty> 			<http://www.assero.co.uk/MDRBCs/V1#BC-ACME_BC_C25298_DefinedObservation_nameCode_CD_code> . 
<http://www.assero.co.uk/MDRSdtmUD/ACME/V2#D-ACME_VSDomain_V7_PR9> 			<http://www.assero.co.uk/BusinessOperational#ordinal> 			"9" . 
<http://www.assero.co.uk/MDRSdtmUD/ACME/V2#D-ACME_VSDomain_V7_PR9> 			<http://www.assero.co.uk/BusinessOperational#enabled> 			"true" . 
<http://www.assero.co.uk/MDRSdtmUD/ACME/V2#D-ACME_VSDomain_V7_PR9> 			<http://www.assero.co.uk/BusinessOperational#optional> 			"false" . 
<http://www.assero.co.uk/MDRSdtmUD/ACME/V2#D-ACME_VSDomain_V7_PR9> 			<http://www.assero.co.uk/BusinessOperational#local_label> 			"" . 
<http://www.assero.co.uk/MDRSdtmUD/ACME/V2#D-ACME_VSDomain_V7_PR10> 			<http://www.w3.org/1999/02/22-rdf-syntax-ns#type> 			<http://www.assero.co.uk/BusinessOperational#PReference> . 
<http://www.assero.co.uk/MDRSdtmUD/ACME/V2#D-ACME_VSDomain_V7_PR10> 			<http://www.w3.org/2000/01/rdf-schema#label> 			"BC Property Reference" . 
<http://www.assero.co.uk/MDRSdtmUD/ACME/V2#D-ACME_VSDomain_V7_PR10> 			<http://www.assero.co.uk/BusinessOperational#hasProperty> 			<http://www.assero.co.uk/MDRBCs/V1#BC-ACME_BC_C25299_DefinedObservation_nameCode_CD_code> . 
<http://www.assero.co.uk/MDRSdtmUD/ACME/V2#D-ACME_VSDomain_V7_PR10> 			<http://www.assero.co.uk/BusinessOperational#ordinal> 			"10" . 
<http://www.assero.co.uk/MDRSdtmUD/ACME/V2#D-ACME_VSDomain_V7_PR10> 			<http://www.assero.co.uk/BusinessOperational#enabled> 			"true" . 
<http://www.assero.co.uk/MDRSdtmUD/ACME/V2#D-ACME_VSDomain_V7_PR10> 			<http://www.assero.co.uk/BusinessOperational#optional> 			"false" . 
<http://www.assero.co.uk/MDRSdtmUD/ACME/V2#D-ACME_VSDomain_V7_PR10> 			<http://www.assero.co.uk/BusinessOperational#local_label> 			"" . 
<http://www.assero.co.uk/MDRSdtmUD/ACME/V2#D-ACME_VSDomain_V8> 			<http://www.w3.org/1999/02/22-rdf-syntax-ns#type> 			<http://www.assero.co.uk/BusinessDomain#UserVariable> . 
<http://www.assero.co.uk/MDRSdtmUD/ACME/V2#D-ACME_VSDomain_V8> 			<http://www.w3.org/2000/01/rdf-schema#label> 			"Vital Signs Test Name" . 
<http://www.assero.co.uk/MDRSdtmUD/ACME/V2#D-ACME_VSDomain_V8> 			<http://www.assero.co.uk/BusinessDomain#basedOnVariable> 			<http://www.assero.co.uk/MDRSdtmUD/ACME/V2#D-ACME_VSDomain_V8_IGV1> . 
<http://www.assero.co.uk/MDRSdtmUD/ACME/V2#D-ACME_VSDomain_V8> 			<http://www.assero.co.uk/BusinessDomain#classifiedAs> 			<http://www.assero.co.uk/MDRSdtmM/CDISC/V3#M-CDISC_SDTMMODEL_C_QUALIFIER_SC_SYNONYMQUALIFIER> . 
<http://www.assero.co.uk/MDRSdtmUD/ACME/V2#D-ACME_VSDomain_V8> 			<http://www.assero.co.uk/BusinessDomain#typedAs> 			<http://www.assero.co.uk/MDRSdtmM/CDISC/V3#M-CDISC_SDTMMODEL_DT_CHAR> . 
<http://www.assero.co.uk/MDRSdtmUD/ACME/V2#D-ACME_VSDomain_V8> 			<http://www.assero.co.uk/BusinessDomain#compliance> 			<http://www.assero.co.uk/MDRSdtmIg/CDISC/V3#IG-CDISC_SDTMIG_C_REQUIRED> . 
<http://www.assero.co.uk/MDRSdtmUD/ACME/V2#D-ACME_VSDomain_V8> 			<http://www.assero.co.uk/BusinessDomain#hasProperty> 			<http://www.assero.co.uk/MDRSdtmUD/ACME/V2#D-ACME_VSDomain_V8_PR3> . 
<http://www.assero.co.uk/MDRSdtmUD/ACME/V2#D-ACME_VSDomain_V8> 			<http://www.assero.co.uk/BusinessDomain#hasProperty> 			<http://www.assero.co.uk/MDRSdtmUD/ACME/V2#D-ACME_VSDomain_V8_PR4> . 
<http://www.assero.co.uk/MDRSdtmUD/ACME/V2#D-ACME_VSDomain_V8> 			<http://www.assero.co.uk/BusinessDomain#hasProperty> 			<http://www.assero.co.uk/MDRSdtmUD/ACME/V2#D-ACME_VSDomain_V8_PR5> . 
<http://www.assero.co.uk/MDRSdtmUD/ACME/V2#D-ACME_VSDomain_V8> 			<http://www.assero.co.uk/BusinessDomain#hasProperty> 			<http://www.assero.co.uk/MDRSdtmUD/ACME/V2#D-ACME_VSDomain_V8_PR7> . 
<http://www.assero.co.uk/MDRSdtmUD/ACME/V2#D-ACME_VSDomain_V8> 			<http://www.assero.co.uk/BusinessDomain#hasProperty> 			<http://www.assero.co.uk/MDRSdtmUD/ACME/V2#D-ACME_VSDomain_V8_PR8> . 
<http://www.assero.co.uk/MDRSdtmUD/ACME/V2#D-ACME_VSDomain_V8> 			<http://www.assero.co.uk/BusinessDomain#hasProperty> 			<http://www.assero.co.uk/MDRSdtmUD/ACME/V2#D-ACME_VSDomain_V8_PR9> . 
<http://www.assero.co.uk/MDRSdtmUD/ACME/V2#D-ACME_VSDomain_V8> 			<http://www.assero.co.uk/BusinessDomain#hasProperty> 			<http://www.assero.co.uk/MDRSdtmUD/ACME/V2#D-ACME_VSDomain_V8_PR10> . 
<http://www.assero.co.uk/MDRSdtmUD/ACME/V2#D-ACME_VSDomain_V8> 			<http://www.assero.co.uk/BusinessDomain#rule> 			"" . 
<http://www.assero.co.uk/MDRSdtmUD/ACME/V2#D-ACME_VSDomain_V8> 			<http://www.assero.co.uk/BusinessDomain#ordinal> 			"8" . 
<http://www.assero.co.uk/MDRSdtmUD/ACME/V2#D-ACME_VSDomain_V8> 			<http://www.assero.co.uk/BusinessDomain#name> 			"VSTEST" . 
<http://www.assero.co.uk/MDRSdtmUD/ACME/V2#D-ACME_VSDomain_V8> 			<http://www.assero.co.uk/BusinessDomain#notes> 			"" . 
<http://www.assero.co.uk/MDRSdtmUD/ACME/V2#D-ACME_VSDomain_V8> 			<http://www.assero.co.uk/BusinessDomain#format> 			"" . 
<http://www.assero.co.uk/MDRSdtmUD/ACME/V2#D-ACME_VSDomain_V8> 			<http://www.assero.co.uk/BusinessDomain#ct> 			"VSTEST" . 
<http://www.assero.co.uk/MDRSdtmUD/ACME/V2#D-ACME_VSDomain_V8> 			<http://www.assero.co.uk/BusinessDomain#length> 			"0" . 
<http://www.assero.co.uk/MDRSdtmUD/ACME/V2#D-ACME_VSDomain_V8> 			<http://www.assero.co.uk/BusinessDomain#comment> 			"" . 
<http://www.assero.co.uk/MDRSdtmUD/ACME/V2#D-ACME_VSDomain_V8> 			<http://www.assero.co.uk/BusinessDomain#non_standard> 			"false" . 
<http://www.assero.co.uk/MDRSdtmUD/ACME/V2#D-ACME_VSDomain_V8> 			<http://www.assero.co.uk/BusinessDomain#used> 			"true" . 
<http://www.assero.co.uk/MDRSdtmUD/ACME/V2#D-ACME_VSDomain_V8> 			<http://www.assero.co.uk/BusinessDomain#key_ordinal> 			"0" . 
<http://www.assero.co.uk/MDRSdtmUD/ACME/V2#D-ACME_VSDomain_V8_IGV1> 			<http://www.w3.org/1999/02/22-rdf-syntax-ns#type> 			<http://www.assero.co.uk/BusinessOperational#CReference> . 
<http://www.assero.co.uk/MDRSdtmUD/ACME/V2#D-ACME_VSDomain_V8_IGV1> 			<http://www.w3.org/2000/01/rdf-schema#label> 			"Based on Variable Reference" . 
<http://www.assero.co.uk/MDRSdtmUD/ACME/V2#D-ACME_VSDomain_V8_IGV1> 			<http://www.assero.co.uk/BusinessOperational#hasColumn> 			<http://www.assero.co.uk/MDRSdtmIgD/CDISC/V3#IG-CDISC_SDTMIGVS_VSTEST> . 
<http://www.assero.co.uk/MDRSdtmUD/ACME/V2#D-ACME_VSDomain_V8_IGV1> 			<http://www.assero.co.uk/BusinessOperational#ordinal> 			"1" . 
<http://www.assero.co.uk/MDRSdtmUD/ACME/V2#D-ACME_VSDomain_V8_IGV1> 			<http://www.assero.co.uk/BusinessOperational#enabled> 			"true" . 
<http://www.assero.co.uk/MDRSdtmUD/ACME/V2#D-ACME_VSDomain_V8_IGV1> 			<http://www.assero.co.uk/BusinessOperational#optional> 			"false" . 
<http://www.assero.co.uk/MDRSdtmUD/ACME/V2#D-ACME_VSDomain_V8_IGV1> 			<http://www.assero.co.uk/BusinessOperational#local_label> 			"" . 
<http://www.assero.co.uk/MDRSdtmUD/ACME/V2#D-ACME_VSDomain_V8_PR3> 			<http://www.w3.org/1999/02/22-rdf-syntax-ns#type> 			<http://www.assero.co.uk/BusinessOperational#PReference> . 
<http://www.assero.co.uk/MDRSdtmUD/ACME/V2#D-ACME_VSDomain_V8_PR3> 			<http://www.w3.org/2000/01/rdf-schema#label> 			"BC Property Reference" . 
<http://www.assero.co.uk/MDRSdtmUD/ACME/V2#D-ACME_VSDomain_V8_PR3> 			<http://www.assero.co.uk/BusinessOperational#hasProperty> 			<http://www.assero.co.uk/MDRBCs/V1#BC-ACME_BC_C25347_DefinedObservation_nameCode_CD_originalText_ED_value> . 
<http://www.assero.co.uk/MDRSdtmUD/ACME/V2#D-ACME_VSDomain_V8_PR3> 			<http://www.assero.co.uk/BusinessOperational#ordinal> 			"3" . 
<http://www.assero.co.uk/MDRSdtmUD/ACME/V2#D-ACME_VSDomain_V8_PR3> 			<http://www.assero.co.uk/BusinessOperational#enabled> 			"true" . 
<http://www.assero.co.uk/MDRSdtmUD/ACME/V2#D-ACME_VSDomain_V8_PR3> 			<http://www.assero.co.uk/BusinessOperational#optional> 			"false" . 
<http://www.assero.co.uk/MDRSdtmUD/ACME/V2#D-ACME_VSDomain_V8_PR3> 			<http://www.assero.co.uk/BusinessOperational#local_label> 			"" . 
<http://www.assero.co.uk/MDRSdtmUD/ACME/V2#D-ACME_VSDomain_V8_PR4> 			<http://www.w3.org/1999/02/22-rdf-syntax-ns#type> 			<http://www.assero.co.uk/BusinessOperational#PReference> . 
<http://www.assero.co.uk/MDRSdtmUD/ACME/V2#D-ACME_VSDomain_V8_PR4> 			<http://www.w3.org/2000/01/rdf-schema#label> 			"BC Property Reference" . 
<http://www.assero.co.uk/MDRSdtmUD/ACME/V2#D-ACME_VSDomain_V8_PR4> 			<http://www.assero.co.uk/BusinessOperational#hasProperty> 			<http://www.assero.co.uk/MDRBCs/V1#BC-ACME_BC_C49677_DefinedObservation_nameCode_CD_originalText_ED_value> . 
<http://www.assero.co.uk/MDRSdtmUD/ACME/V2#D-ACME_VSDomain_V8_PR4> 			<http://www.assero.co.uk/BusinessOperational#ordinal> 			"4" . 
<http://www.assero.co.uk/MDRSdtmUD/ACME/V2#D-ACME_VSDomain_V8_PR4> 			<http://www.assero.co.uk/BusinessOperational#enabled> 			"true" . 
<http://www.assero.co.uk/MDRSdtmUD/ACME/V2#D-ACME_VSDomain_V8_PR4> 			<http://www.assero.co.uk/BusinessOperational#optional> 			"false" . 
<http://www.assero.co.uk/MDRSdtmUD/ACME/V2#D-ACME_VSDomain_V8_PR4> 			<http://www.assero.co.uk/BusinessOperational#local_label> 			"" . 
<http://www.assero.co.uk/MDRSdtmUD/ACME/V2#D-ACME_VSDomain_V8_PR5> 			<http://www.w3.org/1999/02/22-rdf-syntax-ns#type> 			<http://www.assero.co.uk/BusinessOperational#PReference> . 
<http://www.assero.co.uk/MDRSdtmUD/ACME/V2#D-ACME_VSDomain_V8_PR5> 			<http://www.w3.org/2000/01/rdf-schema#label> 			"BC Property Reference" . 
<http://www.assero.co.uk/MDRSdtmUD/ACME/V2#D-ACME_VSDomain_V8_PR5> 			<http://www.assero.co.uk/BusinessOperational#hasProperty> 			<http://www.assero.co.uk/MDRBCs/V1#BC-ACME_BC_C49678_DefinedObservation_nameCode_CD_originalText_ED_value> . 
<http://www.assero.co.uk/MDRSdtmUD/ACME/V2#D-ACME_VSDomain_V8_PR5> 			<http://www.assero.co.uk/BusinessOperational#ordinal> 			"5" . 
<http://www.assero.co.uk/MDRSdtmUD/ACME/V2#D-ACME_VSDomain_V8_PR5> 			<http://www.assero.co.uk/BusinessOperational#enabled> 			"true" . 
<http://www.assero.co.uk/MDRSdtmUD/ACME/V2#D-ACME_VSDomain_V8_PR5> 			<http://www.assero.co.uk/BusinessOperational#optional> 			"false" . 
<http://www.assero.co.uk/MDRSdtmUD/ACME/V2#D-ACME_VSDomain_V8_PR5> 			<http://www.assero.co.uk/BusinessOperational#local_label> 			"" . 
<http://www.assero.co.uk/MDRSdtmUD/ACME/V2#D-ACME_VSDomain_V8_PR7> 			<http://www.w3.org/1999/02/22-rdf-syntax-ns#type> 			<http://www.assero.co.uk/BusinessOperational#PReference> . 
<http://www.assero.co.uk/MDRSdtmUD/ACME/V2#D-ACME_VSDomain_V8_PR7> 			<http://www.w3.org/2000/01/rdf-schema#label> 			"BC Property Reference" . 
<http://www.assero.co.uk/MDRSdtmUD/ACME/V2#D-ACME_VSDomain_V8_PR7> 			<http://www.assero.co.uk/BusinessOperational#hasProperty> 			<http://www.assero.co.uk/MDRBCs/ACME/V4#BC-ACME_BCC25206_I1_DT1_P2_DT1_P1> . 
<http://www.assero.co.uk/MDRSdtmUD/ACME/V2#D-ACME_VSDomain_V8_PR7> 			<http://www.assero.co.uk/BusinessOperational#ordinal> 			"7" . 
<http://www.assero.co.uk/MDRSdtmUD/ACME/V2#D-ACME_VSDomain_V8_PR7> 			<http://www.assero.co.uk/BusinessOperational#enabled> 			"true" . 
<http://www.assero.co.uk/MDRSdtmUD/ACME/V2#D-ACME_VSDomain_V8_PR7> 			<http://www.assero.co.uk/BusinessOperational#optional> 			"false" . 
<http://www.assero.co.uk/MDRSdtmUD/ACME/V2#D-ACME_VSDomain_V8_PR7> 			<http://www.assero.co.uk/BusinessOperational#local_label> 			"" . 
<http://www.assero.co.uk/MDRSdtmUD/ACME/V2#D-ACME_VSDomain_V8_PR8> 			<http://www.w3.org/1999/02/22-rdf-syntax-ns#type> 			<http://www.assero.co.uk/BusinessOperational#PReference> . 
<http://www.assero.co.uk/MDRSdtmUD/ACME/V2#D-ACME_VSDomain_V8_PR8> 			<http://www.w3.org/2000/01/rdf-schema#label> 			"BC Property Reference" . 
<http://www.assero.co.uk/MDRSdtmUD/ACME/V2#D-ACME_VSDomain_V8_PR8> 			<http://www.assero.co.uk/BusinessOperational#hasProperty> 			<http://www.assero.co.uk/MDRBCs/ACME/V2#BC-ACME_BCC25208_I1_DT1_P2_DT1_P1> . 
<http://www.assero.co.uk/MDRSdtmUD/ACME/V2#D-ACME_VSDomain_V8_PR8> 			<http://www.assero.co.uk/BusinessOperational#ordinal> 			"8" . 
<http://www.assero.co.uk/MDRSdtmUD/ACME/V2#D-ACME_VSDomain_V8_PR8> 			<http://www.assero.co.uk/BusinessOperational#enabled> 			"true" . 
<http://www.assero.co.uk/MDRSdtmUD/ACME/V2#D-ACME_VSDomain_V8_PR8> 			<http://www.assero.co.uk/BusinessOperational#optional> 			"false" . 
<http://www.assero.co.uk/MDRSdtmUD/ACME/V2#D-ACME_VSDomain_V8_PR8> 			<http://www.assero.co.uk/BusinessOperational#local_label> 			"" . 
<http://www.assero.co.uk/MDRSdtmUD/ACME/V2#D-ACME_VSDomain_V8_PR9> 			<http://www.w3.org/1999/02/22-rdf-syntax-ns#type> 			<http://www.assero.co.uk/BusinessOperational#PReference> . 
<http://www.assero.co.uk/MDRSdtmUD/ACME/V2#D-ACME_VSDomain_V8_PR9> 			<http://www.w3.org/2000/01/rdf-schema#label> 			"BC Property Reference" . 
<http://www.assero.co.uk/MDRSdtmUD/ACME/V2#D-ACME_VSDomain_V8_PR9> 			<http://www.assero.co.uk/BusinessOperational#hasProperty> 			<http://www.assero.co.uk/MDRBCs/V1#BC-ACME_BC_C25298_DefinedObservation_nameCode_CD_originalText_ED_value> . 
<http://www.assero.co.uk/MDRSdtmUD/ACME/V2#D-ACME_VSDomain_V8_PR9> 			<http://www.assero.co.uk/BusinessOperational#ordinal> 			"9" . 
<http://www.assero.co.uk/MDRSdtmUD/ACME/V2#D-ACME_VSDomain_V8_PR9> 			<http://www.assero.co.uk/BusinessOperational#enabled> 			"true" . 
<http://www.assero.co.uk/MDRSdtmUD/ACME/V2#D-ACME_VSDomain_V8_PR9> 			<http://www.assero.co.uk/BusinessOperational#optional> 			"false" . 
<http://www.assero.co.uk/MDRSdtmUD/ACME/V2#D-ACME_VSDomain_V8_PR9> 			<http://www.assero.co.uk/BusinessOperational#local_label> 			"" . 
<http://www.assero.co.uk/MDRSdtmUD/ACME/V2#D-ACME_VSDomain_V8_PR10> 			<http://www.w3.org/1999/02/22-rdf-syntax-ns#type> 			<http://www.assero.co.uk/BusinessOperational#PReference> . 
<http://www.assero.co.uk/MDRSdtmUD/ACME/V2#D-ACME_VSDomain_V8_PR10> 			<http://www.w3.org/2000/01/rdf-schema#label> 			"BC Property Reference" . 
<http://www.assero.co.uk/MDRSdtmUD/ACME/V2#D-ACME_VSDomain_V8_PR10> 			<http://www.assero.co.uk/BusinessOperational#hasProperty> 			<http://www.assero.co.uk/MDRBCs/V1#BC-ACME_BC_C25299_DefinedObservation_nameCode_CD_originalText_ED_value> . 
<http://www.assero.co.uk/MDRSdtmUD/ACME/V2#D-ACME_VSDomain_V8_PR10> 			<http://www.assero.co.uk/BusinessOperational#ordinal> 			"10" . 
<http://www.assero.co.uk/MDRSdtmUD/ACME/V2#D-ACME_VSDomain_V8_PR10> 			<http://www.assero.co.uk/BusinessOperational#enabled> 			"true" . 
<http://www.assero.co.uk/MDRSdtmUD/ACME/V2#D-ACME_VSDomain_V8_PR10> 			<http://www.assero.co.uk/BusinessOperational#optional> 			"false" . 
<http://www.assero.co.uk/MDRSdtmUD/ACME/V2#D-ACME_VSDomain_V8_PR10> 			<http://www.assero.co.uk/BusinessOperational#local_label> 			"" . 
<http://www.assero.co.uk/MDRSdtmUD/ACME/V2#D-ACME_VSDomain_V9> 			<http://www.w3.org/1999/02/22-rdf-syntax-ns#type> 			<http://www.assero.co.uk/BusinessDomain#UserVariable> . 
<http://www.assero.co.uk/MDRSdtmUD/ACME/V2#D-ACME_VSDomain_V9> 			<http://www.w3.org/2000/01/rdf-schema#label> 			"Category for Vital Signs" . 
<http://www.assero.co.uk/MDRSdtmUD/ACME/V2#D-ACME_VSDomain_V9> 			<http://www.assero.co.uk/BusinessDomain#basedOnVariable> 			<http://www.assero.co.uk/MDRSdtmUD/ACME/V2#D-ACME_VSDomain_V9_IGV1> . 
<http://www.assero.co.uk/MDRSdtmUD/ACME/V2#D-ACME_VSDomain_V9> 			<http://www.assero.co.uk/BusinessDomain#classifiedAs> 			<http://www.assero.co.uk/MDRSdtmM/CDISC/V3#M-CDISC_SDTMMODEL_C_QUALIFIER_SC_GROUPINGQUALIFIER> . 
<http://www.assero.co.uk/MDRSdtmUD/ACME/V2#D-ACME_VSDomain_V9> 			<http://www.assero.co.uk/BusinessDomain#typedAs> 			<http://www.assero.co.uk/MDRSdtmM/CDISC/V3#M-CDISC_SDTMMODEL_DT_CHAR> . 
<http://www.assero.co.uk/MDRSdtmUD/ACME/V2#D-ACME_VSDomain_V9> 			<http://www.assero.co.uk/BusinessDomain#compliance> 			<http://www.assero.co.uk/MDRSdtmIg/CDISC/V3#IG-CDISC_SDTMIG_C_PERMISSIBLE> . 
<http://www.assero.co.uk/MDRSdtmUD/ACME/V2#D-ACME_VSDomain_V9> 			<http://www.assero.co.uk/BusinessDomain#rule> 			"" . 
<http://www.assero.co.uk/MDRSdtmUD/ACME/V2#D-ACME_VSDomain_V9> 			<http://www.assero.co.uk/BusinessDomain#ordinal> 			"9" . 
<http://www.assero.co.uk/MDRSdtmUD/ACME/V2#D-ACME_VSDomain_V9> 			<http://www.assero.co.uk/BusinessDomain#name> 			"VSCAT" . 
<http://www.assero.co.uk/MDRSdtmUD/ACME/V2#D-ACME_VSDomain_V9> 			<http://www.assero.co.uk/BusinessDomain#notes> 			"" . 
<http://www.assero.co.uk/MDRSdtmUD/ACME/V2#D-ACME_VSDomain_V9> 			<http://www.assero.co.uk/BusinessDomain#format> 			"" . 
<http://www.assero.co.uk/MDRSdtmUD/ACME/V2#D-ACME_VSDomain_V9> 			<http://www.assero.co.uk/BusinessDomain#ct> 			"" . 
<http://www.assero.co.uk/MDRSdtmUD/ACME/V2#D-ACME_VSDomain_V9> 			<http://www.assero.co.uk/BusinessDomain#length> 			"0" . 
<http://www.assero.co.uk/MDRSdtmUD/ACME/V2#D-ACME_VSDomain_V9> 			<http://www.assero.co.uk/BusinessDomain#comment> 			"" . 
<http://www.assero.co.uk/MDRSdtmUD/ACME/V2#D-ACME_VSDomain_V9> 			<http://www.assero.co.uk/BusinessDomain#non_standard> 			"false" . 
<http://www.assero.co.uk/MDRSdtmUD/ACME/V2#D-ACME_VSDomain_V9> 			<http://www.assero.co.uk/BusinessDomain#used> 			"true" . 
<http://www.assero.co.uk/MDRSdtmUD/ACME/V2#D-ACME_VSDomain_V9> 			<http://www.assero.co.uk/BusinessDomain#key_ordinal> 			"0" . 
<http://www.assero.co.uk/MDRSdtmUD/ACME/V2#D-ACME_VSDomain_V9_IGV1> 			<http://www.w3.org/1999/02/22-rdf-syntax-ns#type> 			<http://www.assero.co.uk/BusinessOperational#CReference> . 
<http://www.assero.co.uk/MDRSdtmUD/ACME/V2#D-ACME_VSDomain_V9_IGV1> 			<http://www.w3.org/2000/01/rdf-schema#label> 			"Based on Variable Reference" . 
<http://www.assero.co.uk/MDRSdtmUD/ACME/V2#D-ACME_VSDomain_V9_IGV1> 			<http://www.assero.co.uk/BusinessOperational#hasColumn> 			<http://www.assero.co.uk/MDRSdtmIgD/CDISC/V3#IG-CDISC_SDTMIGVS_VSCAT> . 
<http://www.assero.co.uk/MDRSdtmUD/ACME/V2#D-ACME_VSDomain_V9_IGV1> 			<http://www.assero.co.uk/BusinessOperational#ordinal> 			"1" . 
<http://www.assero.co.uk/MDRSdtmUD/ACME/V2#D-ACME_VSDomain_V9_IGV1> 			<http://www.assero.co.uk/BusinessOperational#enabled> 			"true" . 
<http://www.assero.co.uk/MDRSdtmUD/ACME/V2#D-ACME_VSDomain_V9_IGV1> 			<http://www.assero.co.uk/BusinessOperational#optional> 			"false" . 
<http://www.assero.co.uk/MDRSdtmUD/ACME/V2#D-ACME_VSDomain_V9_IGV1> 			<http://www.assero.co.uk/BusinessOperational#local_label> 			"" . 
<http://www.assero.co.uk/MDRSdtmUD/ACME/V2#D-ACME_VSDomain_V10> 			<http://www.w3.org/1999/02/22-rdf-syntax-ns#type> 			<http://www.assero.co.uk/BusinessDomain#UserVariable> . 
<http://www.assero.co.uk/MDRSdtmUD/ACME/V2#D-ACME_VSDomain_V10> 			<http://www.w3.org/2000/01/rdf-schema#label> 			"Subcategory for Vital Signs" . 
<http://www.assero.co.uk/MDRSdtmUD/ACME/V2#D-ACME_VSDomain_V10> 			<http://www.assero.co.uk/BusinessDomain#basedOnVariable> 			<http://www.assero.co.uk/MDRSdtmUD/ACME/V2#D-ACME_VSDomain_V10_IGV1> . 
<http://www.assero.co.uk/MDRSdtmUD/ACME/V2#D-ACME_VSDomain_V10> 			<http://www.assero.co.uk/BusinessDomain#classifiedAs> 			<http://www.assero.co.uk/MDRSdtmM/CDISC/V3#M-CDISC_SDTMMODEL_C_QUALIFIER_SC_GROUPINGQUALIFIER> . 
<http://www.assero.co.uk/MDRSdtmUD/ACME/V2#D-ACME_VSDomain_V10> 			<http://www.assero.co.uk/BusinessDomain#typedAs> 			<http://www.assero.co.uk/MDRSdtmM/CDISC/V3#M-CDISC_SDTMMODEL_DT_CHAR> . 
<http://www.assero.co.uk/MDRSdtmUD/ACME/V2#D-ACME_VSDomain_V10> 			<http://www.assero.co.uk/BusinessDomain#compliance> 			<http://www.assero.co.uk/MDRSdtmIg/CDISC/V3#IG-CDISC_SDTMIG_C_PERMISSIBLE> . 
<http://www.assero.co.uk/MDRSdtmUD/ACME/V2#D-ACME_VSDomain_V10> 			<http://www.assero.co.uk/BusinessDomain#rule> 			"" . 
<http://www.assero.co.uk/MDRSdtmUD/ACME/V2#D-ACME_VSDomain_V10> 			<http://www.assero.co.uk/BusinessDomain#ordinal> 			"10" . 
<http://www.assero.co.uk/MDRSdtmUD/ACME/V2#D-ACME_VSDomain_V10> 			<http://www.assero.co.uk/BusinessDomain#name> 			"VSSCAT" . 
<http://www.assero.co.uk/MDRSdtmUD/ACME/V2#D-ACME_VSDomain_V10> 			<http://www.assero.co.uk/BusinessDomain#notes> 			"" . 
<http://www.assero.co.uk/MDRSdtmUD/ACME/V2#D-ACME_VSDomain_V10> 			<http://www.assero.co.uk/BusinessDomain#format> 			"" . 
<http://www.assero.co.uk/MDRSdtmUD/ACME/V2#D-ACME_VSDomain_V10> 			<http://www.assero.co.uk/BusinessDomain#ct> 			"" . 
<http://www.assero.co.uk/MDRSdtmUD/ACME/V2#D-ACME_VSDomain_V10> 			<http://www.assero.co.uk/BusinessDomain#length> 			"0" . 
<http://www.assero.co.uk/MDRSdtmUD/ACME/V2#D-ACME_VSDomain_V10> 			<http://www.assero.co.uk/BusinessDomain#comment> 			"" . 
<http://www.assero.co.uk/MDRSdtmUD/ACME/V2#D-ACME_VSDomain_V10> 			<http://www.assero.co.uk/BusinessDomain#non_standard> 			"false" . 
<http://www.assero.co.uk/MDRSdtmUD/ACME/V2#D-ACME_VSDomain_V10> 			<http://www.assero.co.uk/BusinessDomain#used> 			"true" . 
<http://www.assero.co.uk/MDRSdtmUD/ACME/V2#D-ACME_VSDomain_V10> 			<http://www.assero.co.uk/BusinessDomain#key_ordinal> 			"0" . 
<http://www.assero.co.uk/MDRSdtmUD/ACME/V2#D-ACME_VSDomain_V10_IGV1> 			<http://www.w3.org/1999/02/22-rdf-syntax-ns#type> 			<http://www.assero.co.uk/BusinessOperational#CReference> . 
<http://www.assero.co.uk/MDRSdtmUD/ACME/V2#D-ACME_VSDomain_V10_IGV1> 			<http://www.w3.org/2000/01/rdf-schema#label> 			"Based on Variable Reference" . 
<http://www.assero.co.uk/MDRSdtmUD/ACME/V2#D-ACME_VSDomain_V10_IGV1> 			<http://www.assero.co.uk/BusinessOperational#hasColumn> 			<http://www.assero.co.uk/MDRSdtmIgD/CDISC/V3#IG-CDISC_SDTMIGVS_VSSCAT> . 
<http://www.assero.co.uk/MDRSdtmUD/ACME/V2#D-ACME_VSDomain_V10_IGV1> 			<http://www.assero.co.uk/BusinessOperational#ordinal> 			"1" . 
<http://www.assero.co.uk/MDRSdtmUD/ACME/V2#D-ACME_VSDomain_V10_IGV1> 			<http://www.assero.co.uk/BusinessOperational#enabled> 			"true" . 
<http://www.assero.co.uk/MDRSdtmUD/ACME/V2#D-ACME_VSDomain_V10_IGV1> 			<http://www.assero.co.uk/BusinessOperational#optional> 			"false" . 
<http://www.assero.co.uk/MDRSdtmUD/ACME/V2#D-ACME_VSDomain_V10_IGV1> 			<http://www.assero.co.uk/BusinessOperational#local_label> 			"" . 
<http://www.assero.co.uk/MDRSdtmUD/ACME/V2#D-ACME_VSDomain_V11> 			<http://www.w3.org/1999/02/22-rdf-syntax-ns#type> 			<http://www.assero.co.uk/BusinessDomain#UserVariable> . 
<http://www.assero.co.uk/MDRSdtmUD/ACME/V2#D-ACME_VSDomain_V11> 			<http://www.w3.org/2000/01/rdf-schema#label> 			"Vital Signs Position of Subject" . 
<http://www.assero.co.uk/MDRSdtmUD/ACME/V2#D-ACME_VSDomain_V11> 			<http://www.assero.co.uk/BusinessDomain#basedOnVariable> 			<http://www.assero.co.uk/MDRSdtmUD/ACME/V2#D-ACME_VSDomain_V11_IGV1> . 
<http://www.assero.co.uk/MDRSdtmUD/ACME/V2#D-ACME_VSDomain_V11> 			<http://www.assero.co.uk/BusinessDomain#classifiedAs> 			<http://www.assero.co.uk/MDRSdtmM/CDISC/V3#M-CDISC_SDTMMODEL_C_QUALIFIER_SC_RECORDQUALIFIER> . 
<http://www.assero.co.uk/MDRSdtmUD/ACME/V2#D-ACME_VSDomain_V11> 			<http://www.assero.co.uk/BusinessDomain#typedAs> 			<http://www.assero.co.uk/MDRSdtmM/CDISC/V3#M-CDISC_SDTMMODEL_DT_CHAR> . 
<http://www.assero.co.uk/MDRSdtmUD/ACME/V2#D-ACME_VSDomain_V11> 			<http://www.assero.co.uk/BusinessDomain#compliance> 			<http://www.assero.co.uk/MDRSdtmIg/CDISC/V3#IG-CDISC_SDTMIG_C_PERMISSIBLE> . 
<http://www.assero.co.uk/MDRSdtmUD/ACME/V2#D-ACME_VSDomain_V11> 			<http://www.assero.co.uk/BusinessDomain#hasProperty> 			<http://www.assero.co.uk/MDRSdtmUD/ACME/V2#D-ACME_VSDomain_V11_PR2> . 
<http://www.assero.co.uk/MDRSdtmUD/ACME/V2#D-ACME_VSDomain_V11> 			<http://www.assero.co.uk/BusinessDomain#hasProperty> 			<http://www.assero.co.uk/MDRSdtmUD/ACME/V2#D-ACME_VSDomain_V11_PR9> . 
<http://www.assero.co.uk/MDRSdtmUD/ACME/V2#D-ACME_VSDomain_V11> 			<http://www.assero.co.uk/BusinessDomain#hasProperty> 			<http://www.assero.co.uk/MDRSdtmUD/ACME/V2#D-ACME_VSDomain_V11_PR10> . 
<http://www.assero.co.uk/MDRSdtmUD/ACME/V2#D-ACME_VSDomain_V11> 			<http://www.assero.co.uk/BusinessDomain#rule> 			"" . 
<http://www.assero.co.uk/MDRSdtmUD/ACME/V2#D-ACME_VSDomain_V11> 			<http://www.assero.co.uk/BusinessDomain#ordinal> 			"11" . 
<http://www.assero.co.uk/MDRSdtmUD/ACME/V2#D-ACME_VSDomain_V11> 			<http://www.assero.co.uk/BusinessDomain#name> 			"VSPOS" . 
<http://www.assero.co.uk/MDRSdtmUD/ACME/V2#D-ACME_VSDomain_V11> 			<http://www.assero.co.uk/BusinessDomain#notes> 			"" . 
<http://www.assero.co.uk/MDRSdtmUD/ACME/V2#D-ACME_VSDomain_V11> 			<http://www.assero.co.uk/BusinessDomain#format> 			"" . 
<http://www.assero.co.uk/MDRSdtmUD/ACME/V2#D-ACME_VSDomain_V11> 			<http://www.assero.co.uk/BusinessDomain#ct> 			"POSITION" . 
<http://www.assero.co.uk/MDRSdtmUD/ACME/V2#D-ACME_VSDomain_V11> 			<http://www.assero.co.uk/BusinessDomain#length> 			"0" . 
<http://www.assero.co.uk/MDRSdtmUD/ACME/V2#D-ACME_VSDomain_V11> 			<http://www.assero.co.uk/BusinessDomain#comment> 			"" . 
<http://www.assero.co.uk/MDRSdtmUD/ACME/V2#D-ACME_VSDomain_V11> 			<http://www.assero.co.uk/BusinessDomain#non_standard> 			"false" . 
<http://www.assero.co.uk/MDRSdtmUD/ACME/V2#D-ACME_VSDomain_V11> 			<http://www.assero.co.uk/BusinessDomain#used> 			"true" . 
<http://www.assero.co.uk/MDRSdtmUD/ACME/V2#D-ACME_VSDomain_V11> 			<http://www.assero.co.uk/BusinessDomain#key_ordinal> 			"0" . 
<http://www.assero.co.uk/MDRSdtmUD/ACME/V2#D-ACME_VSDomain_V11_IGV1> 			<http://www.w3.org/1999/02/22-rdf-syntax-ns#type> 			<http://www.assero.co.uk/BusinessOperational#CReference> . 
<http://www.assero.co.uk/MDRSdtmUD/ACME/V2#D-ACME_VSDomain_V11_IGV1> 			<http://www.w3.org/2000/01/rdf-schema#label> 			"Based on Variable Reference" . 
<http://www.assero.co.uk/MDRSdtmUD/ACME/V2#D-ACME_VSDomain_V11_IGV1> 			<http://www.assero.co.uk/BusinessOperational#hasColumn> 			<http://www.assero.co.uk/MDRSdtmIgD/CDISC/V3#IG-CDISC_SDTMIGVS_VSPOS> . 
<http://www.assero.co.uk/MDRSdtmUD/ACME/V2#D-ACME_VSDomain_V11_IGV1> 			<http://www.assero.co.uk/BusinessOperational#ordinal> 			"1" . 
<http://www.assero.co.uk/MDRSdtmUD/ACME/V2#D-ACME_VSDomain_V11_IGV1> 			<http://www.assero.co.uk/BusinessOperational#enabled> 			"true" . 
<http://www.assero.co.uk/MDRSdtmUD/ACME/V2#D-ACME_VSDomain_V11_IGV1> 			<http://www.assero.co.uk/BusinessOperational#optional> 			"false" . 
<http://www.assero.co.uk/MDRSdtmUD/ACME/V2#D-ACME_VSDomain_V11_IGV1> 			<http://www.assero.co.uk/BusinessOperational#local_label> 			"" . 
<http://www.assero.co.uk/MDRSdtmUD/ACME/V2#D-ACME_VSDomain_V11_PR2> 			<http://www.w3.org/1999/02/22-rdf-syntax-ns#type> 			<http://www.assero.co.uk/BusinessOperational#PReference> . 
<http://www.assero.co.uk/MDRSdtmUD/ACME/V2#D-ACME_VSDomain_V11_PR2> 			<http://www.w3.org/2000/01/rdf-schema#label> 			"BC Property Reference" . 
<http://www.assero.co.uk/MDRSdtmUD/ACME/V2#D-ACME_VSDomain_V11_PR2> 			<http://www.assero.co.uk/BusinessOperational#hasProperty> 			<http://www.assero.co.uk/MDRBCs/V1#BC-ACME_BC_C49677_PerformedObservation_bodyPositionCode_CD_code> . 
<http://www.assero.co.uk/MDRSdtmUD/ACME/V2#D-ACME_VSDomain_V11_PR2> 			<http://www.assero.co.uk/BusinessOperational#ordinal> 			"2" . 
<http://www.assero.co.uk/MDRSdtmUD/ACME/V2#D-ACME_VSDomain_V11_PR2> 			<http://www.assero.co.uk/BusinessOperational#enabled> 			"true" . 
<http://www.assero.co.uk/MDRSdtmUD/ACME/V2#D-ACME_VSDomain_V11_PR2> 			<http://www.assero.co.uk/BusinessOperational#optional> 			"false" . 
<http://www.assero.co.uk/MDRSdtmUD/ACME/V2#D-ACME_VSDomain_V11_PR2> 			<http://www.assero.co.uk/BusinessOperational#local_label> 			"" . 
<http://www.assero.co.uk/MDRSdtmUD/ACME/V2#D-ACME_VSDomain_V11_PR9> 			<http://www.w3.org/1999/02/22-rdf-syntax-ns#type> 			<http://www.assero.co.uk/BusinessOperational#PReference> . 
<http://www.assero.co.uk/MDRSdtmUD/ACME/V2#D-ACME_VSDomain_V11_PR9> 			<http://www.w3.org/2000/01/rdf-schema#label> 			"BC Property Reference" . 
<http://www.assero.co.uk/MDRSdtmUD/ACME/V2#D-ACME_VSDomain_V11_PR9> 			<http://www.assero.co.uk/BusinessOperational#hasProperty> 			<http://www.assero.co.uk/MDRBCs/V1#BC-ACME_BC_C25298_PerformedObservation_bodyPositionCode_CD_code> . 
<http://www.assero.co.uk/MDRSdtmUD/ACME/V2#D-ACME_VSDomain_V11_PR9> 			<http://www.assero.co.uk/BusinessOperational#ordinal> 			"9" . 
<http://www.assero.co.uk/MDRSdtmUD/ACME/V2#D-ACME_VSDomain_V11_PR9> 			<http://www.assero.co.uk/BusinessOperational#enabled> 			"true" . 
<http://www.assero.co.uk/MDRSdtmUD/ACME/V2#D-ACME_VSDomain_V11_PR9> 			<http://www.assero.co.uk/BusinessOperational#optional> 			"false" . 
<http://www.assero.co.uk/MDRSdtmUD/ACME/V2#D-ACME_VSDomain_V11_PR9> 			<http://www.assero.co.uk/BusinessOperational#local_label> 			"" . 
<http://www.assero.co.uk/MDRSdtmUD/ACME/V2#D-ACME_VSDomain_V11_PR10> 			<http://www.w3.org/1999/02/22-rdf-syntax-ns#type> 			<http://www.assero.co.uk/BusinessOperational#PReference> . 
<http://www.assero.co.uk/MDRSdtmUD/ACME/V2#D-ACME_VSDomain_V11_PR10> 			<http://www.w3.org/2000/01/rdf-schema#label> 			"BC Property Reference" . 
<http://www.assero.co.uk/MDRSdtmUD/ACME/V2#D-ACME_VSDomain_V11_PR10> 			<http://www.assero.co.uk/BusinessOperational#hasProperty> 			<http://www.assero.co.uk/MDRBCs/V1#BC-ACME_BC_C25299_PerformedObservation_bodyPositionCode_CD_code> . 
<http://www.assero.co.uk/MDRSdtmUD/ACME/V2#D-ACME_VSDomain_V11_PR10> 			<http://www.assero.co.uk/BusinessOperational#ordinal> 			"10" . 
<http://www.assero.co.uk/MDRSdtmUD/ACME/V2#D-ACME_VSDomain_V11_PR10> 			<http://www.assero.co.uk/BusinessOperational#enabled> 			"true" . 
<http://www.assero.co.uk/MDRSdtmUD/ACME/V2#D-ACME_VSDomain_V11_PR10> 			<http://www.assero.co.uk/BusinessOperational#optional> 			"false" . 
<http://www.assero.co.uk/MDRSdtmUD/ACME/V2#D-ACME_VSDomain_V11_PR10> 			<http://www.assero.co.uk/BusinessOperational#local_label> 			"" . 
<http://www.assero.co.uk/MDRSdtmUD/ACME/V2#D-ACME_VSDomain_V12> 			<http://www.w3.org/1999/02/22-rdf-syntax-ns#type> 			<http://www.assero.co.uk/BusinessDomain#UserVariable> . 
<http://www.assero.co.uk/MDRSdtmUD/ACME/V2#D-ACME_VSDomain_V12> 			<http://www.w3.org/2000/01/rdf-schema#label> 			"Result or Finding in Original Units" . 
<http://www.assero.co.uk/MDRSdtmUD/ACME/V2#D-ACME_VSDomain_V12> 			<http://www.assero.co.uk/BusinessDomain#basedOnVariable> 			<http://www.assero.co.uk/MDRSdtmUD/ACME/V2#D-ACME_VSDomain_V12_IGV1> . 
<http://www.assero.co.uk/MDRSdtmUD/ACME/V2#D-ACME_VSDomain_V12> 			<http://www.assero.co.uk/BusinessDomain#classifiedAs> 			<http://www.assero.co.uk/MDRSdtmM/CDISC/V3#M-CDISC_SDTMMODEL_C_QUALIFIER_SC_RESULTQUALIFIER> . 
<http://www.assero.co.uk/MDRSdtmUD/ACME/V2#D-ACME_VSDomain_V12> 			<http://www.assero.co.uk/BusinessDomain#typedAs> 			<http://www.assero.co.uk/MDRSdtmM/CDISC/V3#M-CDISC_SDTMMODEL_DT_CHAR> . 
<http://www.assero.co.uk/MDRSdtmUD/ACME/V2#D-ACME_VSDomain_V12> 			<http://www.assero.co.uk/BusinessDomain#compliance> 			<http://www.assero.co.uk/MDRSdtmIg/CDISC/V3#IG-CDISC_SDTMIG_C_EXPECTED> . 
<http://www.assero.co.uk/MDRSdtmUD/ACME/V2#D-ACME_VSDomain_V12> 			<http://www.assero.co.uk/BusinessDomain#hasProperty> 			<http://www.assero.co.uk/MDRSdtmUD/ACME/V2#D-ACME_VSDomain_V12_PR3> . 
<http://www.assero.co.uk/MDRSdtmUD/ACME/V2#D-ACME_VSDomain_V12> 			<http://www.assero.co.uk/BusinessDomain#hasProperty> 			<http://www.assero.co.uk/MDRSdtmUD/ACME/V2#D-ACME_VSDomain_V12_PR4> . 
<http://www.assero.co.uk/MDRSdtmUD/ACME/V2#D-ACME_VSDomain_V12> 			<http://www.assero.co.uk/BusinessDomain#hasProperty> 			<http://www.assero.co.uk/MDRSdtmUD/ACME/V2#D-ACME_VSDomain_V12_PR5> . 
<http://www.assero.co.uk/MDRSdtmUD/ACME/V2#D-ACME_VSDomain_V12> 			<http://www.assero.co.uk/BusinessDomain#hasProperty> 			<http://www.assero.co.uk/MDRSdtmUD/ACME/V2#D-ACME_VSDomain_V12_PR7> . 
<http://www.assero.co.uk/MDRSdtmUD/ACME/V2#D-ACME_VSDomain_V12> 			<http://www.assero.co.uk/BusinessDomain#hasProperty> 			<http://www.assero.co.uk/MDRSdtmUD/ACME/V2#D-ACME_VSDomain_V12_PR8> . 
<http://www.assero.co.uk/MDRSdtmUD/ACME/V2#D-ACME_VSDomain_V12> 			<http://www.assero.co.uk/BusinessDomain#hasProperty> 			<http://www.assero.co.uk/MDRSdtmUD/ACME/V2#D-ACME_VSDomain_V12_PR9> . 
<http://www.assero.co.uk/MDRSdtmUD/ACME/V2#D-ACME_VSDomain_V12> 			<http://www.assero.co.uk/BusinessDomain#hasProperty> 			<http://www.assero.co.uk/MDRSdtmUD/ACME/V2#D-ACME_VSDomain_V12_PR10> . 
<http://www.assero.co.uk/MDRSdtmUD/ACME/V2#D-ACME_VSDomain_V12> 			<http://www.assero.co.uk/BusinessDomain#rule> 			"" . 
<http://www.assero.co.uk/MDRSdtmUD/ACME/V2#D-ACME_VSDomain_V12> 			<http://www.assero.co.uk/BusinessDomain#ordinal> 			"12" . 
<http://www.assero.co.uk/MDRSdtmUD/ACME/V2#D-ACME_VSDomain_V12> 			<http://www.assero.co.uk/BusinessDomain#name> 			"VSORRES" . 
<http://www.assero.co.uk/MDRSdtmUD/ACME/V2#D-ACME_VSDomain_V12> 			<http://www.assero.co.uk/BusinessDomain#notes> 			"" . 
<http://www.assero.co.uk/MDRSdtmUD/ACME/V2#D-ACME_VSDomain_V12> 			<http://www.assero.co.uk/BusinessDomain#format> 			"" . 
<http://www.assero.co.uk/MDRSdtmUD/ACME/V2#D-ACME_VSDomain_V12> 			<http://www.assero.co.uk/BusinessDomain#ct> 			"" . 
<http://www.assero.co.uk/MDRSdtmUD/ACME/V2#D-ACME_VSDomain_V12> 			<http://www.assero.co.uk/BusinessDomain#length> 			"0" . 
<http://www.assero.co.uk/MDRSdtmUD/ACME/V2#D-ACME_VSDomain_V12> 			<http://www.assero.co.uk/BusinessDomain#comment> 			"" . 
<http://www.assero.co.uk/MDRSdtmUD/ACME/V2#D-ACME_VSDomain_V12> 			<http://www.assero.co.uk/BusinessDomain#non_standard> 			"false" . 
<http://www.assero.co.uk/MDRSdtmUD/ACME/V2#D-ACME_VSDomain_V12> 			<http://www.assero.co.uk/BusinessDomain#used> 			"true" . 
<http://www.assero.co.uk/MDRSdtmUD/ACME/V2#D-ACME_VSDomain_V12> 			<http://www.assero.co.uk/BusinessDomain#key_ordinal> 			"0" . 
<http://www.assero.co.uk/MDRSdtmUD/ACME/V2#D-ACME_VSDomain_V12_IGV1> 			<http://www.w3.org/1999/02/22-rdf-syntax-ns#type> 			<http://www.assero.co.uk/BusinessOperational#CReference> . 
<http://www.assero.co.uk/MDRSdtmUD/ACME/V2#D-ACME_VSDomain_V12_IGV1> 			<http://www.w3.org/2000/01/rdf-schema#label> 			"Based on Variable Reference" . 
<http://www.assero.co.uk/MDRSdtmUD/ACME/V2#D-ACME_VSDomain_V12_IGV1> 			<http://www.assero.co.uk/BusinessOperational#hasColumn> 			<http://www.assero.co.uk/MDRSdtmIgD/CDISC/V3#IG-CDISC_SDTMIGVS_VSORRES> . 
<http://www.assero.co.uk/MDRSdtmUD/ACME/V2#D-ACME_VSDomain_V12_IGV1> 			<http://www.assero.co.uk/BusinessOperational#ordinal> 			"1" . 
<http://www.assero.co.uk/MDRSdtmUD/ACME/V2#D-ACME_VSDomain_V12_IGV1> 			<http://www.assero.co.uk/BusinessOperational#enabled> 			"true" . 
<http://www.assero.co.uk/MDRSdtmUD/ACME/V2#D-ACME_VSDomain_V12_IGV1> 			<http://www.assero.co.uk/BusinessOperational#optional> 			"false" . 
<http://www.assero.co.uk/MDRSdtmUD/ACME/V2#D-ACME_VSDomain_V12_IGV1> 			<http://www.assero.co.uk/BusinessOperational#local_label> 			"" . 
<http://www.assero.co.uk/MDRSdtmUD/ACME/V2#D-ACME_VSDomain_V12_PR3> 			<http://www.w3.org/1999/02/22-rdf-syntax-ns#type> 			<http://www.assero.co.uk/BusinessOperational#PReference> . 
<http://www.assero.co.uk/MDRSdtmUD/ACME/V2#D-ACME_VSDomain_V12_PR3> 			<http://www.w3.org/2000/01/rdf-schema#label> 			"BC Property Reference" . 
<http://www.assero.co.uk/MDRSdtmUD/ACME/V2#D-ACME_VSDomain_V12_PR3> 			<http://www.assero.co.uk/BusinessOperational#hasProperty> 			<http://www.assero.co.uk/MDRBCs/V1#BC-ACME_BC_C25347_PerformedClinicalResult_value_PQR_value> . 
<http://www.assero.co.uk/MDRSdtmUD/ACME/V2#D-ACME_VSDomain_V12_PR3> 			<http://www.assero.co.uk/BusinessOperational#ordinal> 			"3" . 
<http://www.assero.co.uk/MDRSdtmUD/ACME/V2#D-ACME_VSDomain_V12_PR3> 			<http://www.assero.co.uk/BusinessOperational#enabled> 			"true" . 
<http://www.assero.co.uk/MDRSdtmUD/ACME/V2#D-ACME_VSDomain_V12_PR3> 			<http://www.assero.co.uk/BusinessOperational#optional> 			"false" . 
<http://www.assero.co.uk/MDRSdtmUD/ACME/V2#D-ACME_VSDomain_V12_PR3> 			<http://www.assero.co.uk/BusinessOperational#local_label> 			"" . 
<http://www.assero.co.uk/MDRSdtmUD/ACME/V2#D-ACME_VSDomain_V12_PR4> 			<http://www.w3.org/1999/02/22-rdf-syntax-ns#type> 			<http://www.assero.co.uk/BusinessOperational#PReference> . 
<http://www.assero.co.uk/MDRSdtmUD/ACME/V2#D-ACME_VSDomain_V12_PR4> 			<http://www.w3.org/2000/01/rdf-schema#label> 			"BC Property Reference" . 
<http://www.assero.co.uk/MDRSdtmUD/ACME/V2#D-ACME_VSDomain_V12_PR4> 			<http://www.assero.co.uk/BusinessOperational#hasProperty> 			<http://www.assero.co.uk/MDRBCs/V1#BC-ACME_BC_C49677_PerformedClinicalResult_value_PQR_value> . 
<http://www.assero.co.uk/MDRSdtmUD/ACME/V2#D-ACME_VSDomain_V12_PR4> 			<http://www.assero.co.uk/BusinessOperational#ordinal> 			"4" . 
<http://www.assero.co.uk/MDRSdtmUD/ACME/V2#D-ACME_VSDomain_V12_PR4> 			<http://www.assero.co.uk/BusinessOperational#enabled> 			"true" . 
<http://www.assero.co.uk/MDRSdtmUD/ACME/V2#D-ACME_VSDomain_V12_PR4> 			<http://www.assero.co.uk/BusinessOperational#optional> 			"false" . 
<http://www.assero.co.uk/MDRSdtmUD/ACME/V2#D-ACME_VSDomain_V12_PR4> 			<http://www.assero.co.uk/BusinessOperational#local_label> 			"" . 
<http://www.assero.co.uk/MDRSdtmUD/ACME/V2#D-ACME_VSDomain_V12_PR5> 			<http://www.w3.org/1999/02/22-rdf-syntax-ns#type> 			<http://www.assero.co.uk/BusinessOperational#PReference> . 
<http://www.assero.co.uk/MDRSdtmUD/ACME/V2#D-ACME_VSDomain_V12_PR5> 			<http://www.w3.org/2000/01/rdf-schema#label> 			"BC Property Reference" . 
<http://www.assero.co.uk/MDRSdtmUD/ACME/V2#D-ACME_VSDomain_V12_PR5> 			<http://www.assero.co.uk/BusinessOperational#hasProperty> 			<http://www.assero.co.uk/MDRBCs/V1#BC-ACME_BC_C49678_PerformedClinicalResult_value_PQR_value> . 
<http://www.assero.co.uk/MDRSdtmUD/ACME/V2#D-ACME_VSDomain_V12_PR5> 			<http://www.assero.co.uk/BusinessOperational#ordinal> 			"5" . 
<http://www.assero.co.uk/MDRSdtmUD/ACME/V2#D-ACME_VSDomain_V12_PR5> 			<http://www.assero.co.uk/BusinessOperational#enabled> 			"true" . 
<http://www.assero.co.uk/MDRSdtmUD/ACME/V2#D-ACME_VSDomain_V12_PR5> 			<http://www.assero.co.uk/BusinessOperational#optional> 			"false" . 
<http://www.assero.co.uk/MDRSdtmUD/ACME/V2#D-ACME_VSDomain_V12_PR5> 			<http://www.assero.co.uk/BusinessOperational#local_label> 			"" . 
<http://www.assero.co.uk/MDRSdtmUD/ACME/V2#D-ACME_VSDomain_V12_PR7> 			<http://www.w3.org/1999/02/22-rdf-syntax-ns#type> 			<http://www.assero.co.uk/BusinessOperational#PReference> . 
<http://www.assero.co.uk/MDRSdtmUD/ACME/V2#D-ACME_VSDomain_V12_PR7> 			<http://www.w3.org/2000/01/rdf-schema#label> 			"BC Property Reference" . 
<http://www.assero.co.uk/MDRSdtmUD/ACME/V2#D-ACME_VSDomain_V12_PR7> 			<http://www.assero.co.uk/BusinessOperational#hasProperty> 			<http://www.assero.co.uk/MDRBCs/ACME/V4#BC-ACME_BCC25206_I8_DT1_P1> . 
<http://www.assero.co.uk/MDRSdtmUD/ACME/V2#D-ACME_VSDomain_V12_PR7> 			<http://www.assero.co.uk/BusinessOperational#ordinal> 			"7" . 
<http://www.assero.co.uk/MDRSdtmUD/ACME/V2#D-ACME_VSDomain_V12_PR7> 			<http://www.assero.co.uk/BusinessOperational#enabled> 			"true" . 
<http://www.assero.co.uk/MDRSdtmUD/ACME/V2#D-ACME_VSDomain_V12_PR7> 			<http://www.assero.co.uk/BusinessOperational#optional> 			"false" . 
<http://www.assero.co.uk/MDRSdtmUD/ACME/V2#D-ACME_VSDomain_V12_PR7> 			<http://www.assero.co.uk/BusinessOperational#local_label> 			"" . 
<http://www.assero.co.uk/MDRSdtmUD/ACME/V2#D-ACME_VSDomain_V12_PR8> 			<http://www.w3.org/1999/02/22-rdf-syntax-ns#type> 			<http://www.assero.co.uk/BusinessOperational#PReference> . 
<http://www.assero.co.uk/MDRSdtmUD/ACME/V2#D-ACME_VSDomain_V12_PR8> 			<http://www.w3.org/2000/01/rdf-schema#label> 			"BC Property Reference" . 
<http://www.assero.co.uk/MDRSdtmUD/ACME/V2#D-ACME_VSDomain_V12_PR8> 			<http://www.assero.co.uk/BusinessOperational#hasProperty> 			<http://www.assero.co.uk/MDRBCs/ACME/V2#BC-ACME_BCC25208_I8_DT1_P1> . 
<http://www.assero.co.uk/MDRSdtmUD/ACME/V2#D-ACME_VSDomain_V12_PR8> 			<http://www.assero.co.uk/BusinessOperational#ordinal> 			"8" . 
<http://www.assero.co.uk/MDRSdtmUD/ACME/V2#D-ACME_VSDomain_V12_PR8> 			<http://www.assero.co.uk/BusinessOperational#enabled> 			"true" . 
<http://www.assero.co.uk/MDRSdtmUD/ACME/V2#D-ACME_VSDomain_V12_PR8> 			<http://www.assero.co.uk/BusinessOperational#optional> 			"false" . 
<http://www.assero.co.uk/MDRSdtmUD/ACME/V2#D-ACME_VSDomain_V12_PR8> 			<http://www.assero.co.uk/BusinessOperational#local_label> 			"" . 
<http://www.assero.co.uk/MDRSdtmUD/ACME/V2#D-ACME_VSDomain_V12_PR9> 			<http://www.w3.org/1999/02/22-rdf-syntax-ns#type> 			<http://www.assero.co.uk/BusinessOperational#PReference> . 
<http://www.assero.co.uk/MDRSdtmUD/ACME/V2#D-ACME_VSDomain_V12_PR9> 			<http://www.w3.org/2000/01/rdf-schema#label> 			"BC Property Reference" . 
<http://www.assero.co.uk/MDRSdtmUD/ACME/V2#D-ACME_VSDomain_V12_PR9> 			<http://www.assero.co.uk/BusinessOperational#hasProperty> 			<http://www.assero.co.uk/MDRBCs/V1#BC-ACME_BC_C25298_PerformedClinicalResult_value_PQR_value> . 
<http://www.assero.co.uk/MDRSdtmUD/ACME/V2#D-ACME_VSDomain_V12_PR9> 			<http://www.assero.co.uk/BusinessOperational#ordinal> 			"9" . 
<http://www.assero.co.uk/MDRSdtmUD/ACME/V2#D-ACME_VSDomain_V12_PR9> 			<http://www.assero.co.uk/BusinessOperational#enabled> 			"true" . 
<http://www.assero.co.uk/MDRSdtmUD/ACME/V2#D-ACME_VSDomain_V12_PR9> 			<http://www.assero.co.uk/BusinessOperational#optional> 			"false" . 
<http://www.assero.co.uk/MDRSdtmUD/ACME/V2#D-ACME_VSDomain_V12_PR9> 			<http://www.assero.co.uk/BusinessOperational#local_label> 			"" . 
<http://www.assero.co.uk/MDRSdtmUD/ACME/V2#D-ACME_VSDomain_V12_PR10> 			<http://www.w3.org/1999/02/22-rdf-syntax-ns#type> 			<http://www.assero.co.uk/BusinessOperational#PReference> . 
<http://www.assero.co.uk/MDRSdtmUD/ACME/V2#D-ACME_VSDomain_V12_PR10> 			<http://www.w3.org/2000/01/rdf-schema#label> 			"BC Property Reference" . 
<http://www.assero.co.uk/MDRSdtmUD/ACME/V2#D-ACME_VSDomain_V12_PR10> 			<http://www.assero.co.uk/BusinessOperational#hasProperty> 			<http://www.assero.co.uk/MDRBCs/V1#BC-ACME_BC_C25299_PerformedClinicalResult_value_PQR_value> . 
<http://www.assero.co.uk/MDRSdtmUD/ACME/V2#D-ACME_VSDomain_V12_PR10> 			<http://www.assero.co.uk/BusinessOperational#ordinal> 			"10" . 
<http://www.assero.co.uk/MDRSdtmUD/ACME/V2#D-ACME_VSDomain_V12_PR10> 			<http://www.assero.co.uk/BusinessOperational#enabled> 			"true" . 
<http://www.assero.co.uk/MDRSdtmUD/ACME/V2#D-ACME_VSDomain_V12_PR10> 			<http://www.assero.co.uk/BusinessOperational#optional> 			"false" . 
<http://www.assero.co.uk/MDRSdtmUD/ACME/V2#D-ACME_VSDomain_V12_PR10> 			<http://www.assero.co.uk/BusinessOperational#local_label> 			"" . 
<http://www.assero.co.uk/MDRSdtmUD/ACME/V2#D-ACME_VSDomain_V13> 			<http://www.w3.org/1999/02/22-rdf-syntax-ns#type> 			<http://www.assero.co.uk/BusinessDomain#UserVariable> . 
<http://www.assero.co.uk/MDRSdtmUD/ACME/V2#D-ACME_VSDomain_V13> 			<http://www.w3.org/2000/01/rdf-schema#label> 			"Original Units" . 
<http://www.assero.co.uk/MDRSdtmUD/ACME/V2#D-ACME_VSDomain_V13> 			<http://www.assero.co.uk/BusinessDomain#basedOnVariable> 			<http://www.assero.co.uk/MDRSdtmUD/ACME/V2#D-ACME_VSDomain_V13_IGV1> . 
<http://www.assero.co.uk/MDRSdtmUD/ACME/V2#D-ACME_VSDomain_V13> 			<http://www.assero.co.uk/BusinessDomain#classifiedAs> 			<http://www.assero.co.uk/MDRSdtmM/CDISC/V3#M-CDISC_SDTMMODEL_C_QUALIFIER_SC_VARIABLEQUALIFIER> . 
<http://www.assero.co.uk/MDRSdtmUD/ACME/V2#D-ACME_VSDomain_V13> 			<http://www.assero.co.uk/BusinessDomain#typedAs> 			<http://www.assero.co.uk/MDRSdtmM/CDISC/V3#M-CDISC_SDTMMODEL_DT_CHAR> . 
<http://www.assero.co.uk/MDRSdtmUD/ACME/V2#D-ACME_VSDomain_V13> 			<http://www.assero.co.uk/BusinessDomain#compliance> 			<http://www.assero.co.uk/MDRSdtmIg/CDISC/V3#IG-CDISC_SDTMIG_C_EXPECTED> . 
<http://www.assero.co.uk/MDRSdtmUD/ACME/V2#D-ACME_VSDomain_V13> 			<http://www.assero.co.uk/BusinessDomain#hasProperty> 			<http://www.assero.co.uk/MDRSdtmUD/ACME/V2#D-ACME_VSDomain_V13_PR3> . 
<http://www.assero.co.uk/MDRSdtmUD/ACME/V2#D-ACME_VSDomain_V13> 			<http://www.assero.co.uk/BusinessDomain#hasProperty> 			<http://www.assero.co.uk/MDRSdtmUD/ACME/V2#D-ACME_VSDomain_V13_PR4> . 
<http://www.assero.co.uk/MDRSdtmUD/ACME/V2#D-ACME_VSDomain_V13> 			<http://www.assero.co.uk/BusinessDomain#hasProperty> 			<http://www.assero.co.uk/MDRSdtmUD/ACME/V2#D-ACME_VSDomain_V13_PR5> . 
<http://www.assero.co.uk/MDRSdtmUD/ACME/V2#D-ACME_VSDomain_V13> 			<http://www.assero.co.uk/BusinessDomain#hasProperty> 			<http://www.assero.co.uk/MDRSdtmUD/ACME/V2#D-ACME_VSDomain_V13_PR7> . 
<http://www.assero.co.uk/MDRSdtmUD/ACME/V2#D-ACME_VSDomain_V13> 			<http://www.assero.co.uk/BusinessDomain#hasProperty> 			<http://www.assero.co.uk/MDRSdtmUD/ACME/V2#D-ACME_VSDomain_V13_PR8> . 
<http://www.assero.co.uk/MDRSdtmUD/ACME/V2#D-ACME_VSDomain_V13> 			<http://www.assero.co.uk/BusinessDomain#hasProperty> 			<http://www.assero.co.uk/MDRSdtmUD/ACME/V2#D-ACME_VSDomain_V13_PR9> . 
<http://www.assero.co.uk/MDRSdtmUD/ACME/V2#D-ACME_VSDomain_V13> 			<http://www.assero.co.uk/BusinessDomain#hasProperty> 			<http://www.assero.co.uk/MDRSdtmUD/ACME/V2#D-ACME_VSDomain_V13_PR10> . 
<http://www.assero.co.uk/MDRSdtmUD/ACME/V2#D-ACME_VSDomain_V13> 			<http://www.assero.co.uk/BusinessDomain#rule> 			"" . 
<http://www.assero.co.uk/MDRSdtmUD/ACME/V2#D-ACME_VSDomain_V13> 			<http://www.assero.co.uk/BusinessDomain#ordinal> 			"13" . 
<http://www.assero.co.uk/MDRSdtmUD/ACME/V2#D-ACME_VSDomain_V13> 			<http://www.assero.co.uk/BusinessDomain#name> 			"VSORRESU" . 
<http://www.assero.co.uk/MDRSdtmUD/ACME/V2#D-ACME_VSDomain_V13> 			<http://www.assero.co.uk/BusinessDomain#notes> 			"" . 
<http://www.assero.co.uk/MDRSdtmUD/ACME/V2#D-ACME_VSDomain_V13> 			<http://www.assero.co.uk/BusinessDomain#format> 			"" . 
<http://www.assero.co.uk/MDRSdtmUD/ACME/V2#D-ACME_VSDomain_V13> 			<http://www.assero.co.uk/BusinessDomain#ct> 			"VSRESU" . 
<http://www.assero.co.uk/MDRSdtmUD/ACME/V2#D-ACME_VSDomain_V13> 			<http://www.assero.co.uk/BusinessDomain#length> 			"0" . 
<http://www.assero.co.uk/MDRSdtmUD/ACME/V2#D-ACME_VSDomain_V13> 			<http://www.assero.co.uk/BusinessDomain#comment> 			"" . 
<http://www.assero.co.uk/MDRSdtmUD/ACME/V2#D-ACME_VSDomain_V13> 			<http://www.assero.co.uk/BusinessDomain#non_standard> 			"false" . 
<http://www.assero.co.uk/MDRSdtmUD/ACME/V2#D-ACME_VSDomain_V13> 			<http://www.assero.co.uk/BusinessDomain#used> 			"true" . 
<http://www.assero.co.uk/MDRSdtmUD/ACME/V2#D-ACME_VSDomain_V13> 			<http://www.assero.co.uk/BusinessDomain#key_ordinal> 			"0" . 
<http://www.assero.co.uk/MDRSdtmUD/ACME/V2#D-ACME_VSDomain_V13_IGV1> 			<http://www.w3.org/1999/02/22-rdf-syntax-ns#type> 			<http://www.assero.co.uk/BusinessOperational#CReference> . 
<http://www.assero.co.uk/MDRSdtmUD/ACME/V2#D-ACME_VSDomain_V13_IGV1> 			<http://www.w3.org/2000/01/rdf-schema#label> 			"Based on Variable Reference" . 
<http://www.assero.co.uk/MDRSdtmUD/ACME/V2#D-ACME_VSDomain_V13_IGV1> 			<http://www.assero.co.uk/BusinessOperational#hasColumn> 			<http://www.assero.co.uk/MDRSdtmIgD/CDISC/V3#IG-CDISC_SDTMIGVS_VSORRESU> . 
<http://www.assero.co.uk/MDRSdtmUD/ACME/V2#D-ACME_VSDomain_V13_IGV1> 			<http://www.assero.co.uk/BusinessOperational#ordinal> 			"1" . 
<http://www.assero.co.uk/MDRSdtmUD/ACME/V2#D-ACME_VSDomain_V13_IGV1> 			<http://www.assero.co.uk/BusinessOperational#enabled> 			"true" . 
<http://www.assero.co.uk/MDRSdtmUD/ACME/V2#D-ACME_VSDomain_V13_IGV1> 			<http://www.assero.co.uk/BusinessOperational#optional> 			"false" . 
<http://www.assero.co.uk/MDRSdtmUD/ACME/V2#D-ACME_VSDomain_V13_IGV1> 			<http://www.assero.co.uk/BusinessOperational#local_label> 			"" . 
<http://www.assero.co.uk/MDRSdtmUD/ACME/V2#D-ACME_VSDomain_V13_PR3> 			<http://www.w3.org/1999/02/22-rdf-syntax-ns#type> 			<http://www.assero.co.uk/BusinessOperational#PReference> . 
<http://www.assero.co.uk/MDRSdtmUD/ACME/V2#D-ACME_VSDomain_V13_PR3> 			<http://www.w3.org/2000/01/rdf-schema#label> 			"BC Property Reference" . 
<http://www.assero.co.uk/MDRSdtmUD/ACME/V2#D-ACME_VSDomain_V13_PR3> 			<http://www.assero.co.uk/BusinessOperational#hasProperty> 			<http://www.assero.co.uk/MDRBCs/V1#BC-ACME_BC_C25347_PerformedClinicalResult_value_PQR_code> . 
<http://www.assero.co.uk/MDRSdtmUD/ACME/V2#D-ACME_VSDomain_V13_PR3> 			<http://www.assero.co.uk/BusinessOperational#ordinal> 			"3" . 
<http://www.assero.co.uk/MDRSdtmUD/ACME/V2#D-ACME_VSDomain_V13_PR3> 			<http://www.assero.co.uk/BusinessOperational#enabled> 			"true" . 
<http://www.assero.co.uk/MDRSdtmUD/ACME/V2#D-ACME_VSDomain_V13_PR3> 			<http://www.assero.co.uk/BusinessOperational#optional> 			"false" . 
<http://www.assero.co.uk/MDRSdtmUD/ACME/V2#D-ACME_VSDomain_V13_PR3> 			<http://www.assero.co.uk/BusinessOperational#local_label> 			"" . 
<http://www.assero.co.uk/MDRSdtmUD/ACME/V2#D-ACME_VSDomain_V13_PR4> 			<http://www.w3.org/1999/02/22-rdf-syntax-ns#type> 			<http://www.assero.co.uk/BusinessOperational#PReference> . 
<http://www.assero.co.uk/MDRSdtmUD/ACME/V2#D-ACME_VSDomain_V13_PR4> 			<http://www.w3.org/2000/01/rdf-schema#label> 			"BC Property Reference" . 
<http://www.assero.co.uk/MDRSdtmUD/ACME/V2#D-ACME_VSDomain_V13_PR4> 			<http://www.assero.co.uk/BusinessOperational#hasProperty> 			<http://www.assero.co.uk/MDRBCs/V1#BC-ACME_BC_C49677_PerformedClinicalResult_value_PQR_code> . 
<http://www.assero.co.uk/MDRSdtmUD/ACME/V2#D-ACME_VSDomain_V13_PR4> 			<http://www.assero.co.uk/BusinessOperational#ordinal> 			"4" . 
<http://www.assero.co.uk/MDRSdtmUD/ACME/V2#D-ACME_VSDomain_V13_PR4> 			<http://www.assero.co.uk/BusinessOperational#enabled> 			"true" . 
<http://www.assero.co.uk/MDRSdtmUD/ACME/V2#D-ACME_VSDomain_V13_PR4> 			<http://www.assero.co.uk/BusinessOperational#optional> 			"false" . 
<http://www.assero.co.uk/MDRSdtmUD/ACME/V2#D-ACME_VSDomain_V13_PR4> 			<http://www.assero.co.uk/BusinessOperational#local_label> 			"" . 
<http://www.assero.co.uk/MDRSdtmUD/ACME/V2#D-ACME_VSDomain_V13_PR5> 			<http://www.w3.org/1999/02/22-rdf-syntax-ns#type> 			<http://www.assero.co.uk/BusinessOperational#PReference> . 
<http://www.assero.co.uk/MDRSdtmUD/ACME/V2#D-ACME_VSDomain_V13_PR5> 			<http://www.w3.org/2000/01/rdf-schema#label> 			"BC Property Reference" . 
<http://www.assero.co.uk/MDRSdtmUD/ACME/V2#D-ACME_VSDomain_V13_PR5> 			<http://www.assero.co.uk/BusinessOperational#hasProperty> 			<http://www.assero.co.uk/MDRBCs/V1#BC-ACME_BC_C49678_PerformedClinicalResult_value_PQR_code> . 
<http://www.assero.co.uk/MDRSdtmUD/ACME/V2#D-ACME_VSDomain_V13_PR5> 			<http://www.assero.co.uk/BusinessOperational#ordinal> 			"5" . 
<http://www.assero.co.uk/MDRSdtmUD/ACME/V2#D-ACME_VSDomain_V13_PR5> 			<http://www.assero.co.uk/BusinessOperational#enabled> 			"true" . 
<http://www.assero.co.uk/MDRSdtmUD/ACME/V2#D-ACME_VSDomain_V13_PR5> 			<http://www.assero.co.uk/BusinessOperational#optional> 			"false" . 
<http://www.assero.co.uk/MDRSdtmUD/ACME/V2#D-ACME_VSDomain_V13_PR5> 			<http://www.assero.co.uk/BusinessOperational#local_label> 			"" . 
<http://www.assero.co.uk/MDRSdtmUD/ACME/V2#D-ACME_VSDomain_V13_PR7> 			<http://www.w3.org/1999/02/22-rdf-syntax-ns#type> 			<http://www.assero.co.uk/BusinessOperational#PReference> . 
<http://www.assero.co.uk/MDRSdtmUD/ACME/V2#D-ACME_VSDomain_V13_PR7> 			<http://www.w3.org/2000/01/rdf-schema#label> 			"BC Property Reference" . 
<http://www.assero.co.uk/MDRSdtmUD/ACME/V2#D-ACME_VSDomain_V13_PR7> 			<http://www.assero.co.uk/BusinessOperational#hasProperty> 			<http://www.assero.co.uk/MDRBCs/ACME/V4#BC-ACME_BCC25206_I8_DT1_P2> . 
<http://www.assero.co.uk/MDRSdtmUD/ACME/V2#D-ACME_VSDomain_V13_PR7> 			<http://www.assero.co.uk/BusinessOperational#ordinal> 			"7" . 
<http://www.assero.co.uk/MDRSdtmUD/ACME/V2#D-ACME_VSDomain_V13_PR7> 			<http://www.assero.co.uk/BusinessOperational#enabled> 			"true" . 
<http://www.assero.co.uk/MDRSdtmUD/ACME/V2#D-ACME_VSDomain_V13_PR7> 			<http://www.assero.co.uk/BusinessOperational#optional> 			"false" . 
<http://www.assero.co.uk/MDRSdtmUD/ACME/V2#D-ACME_VSDomain_V13_PR7> 			<http://www.assero.co.uk/BusinessOperational#local_label> 			"" . 
<http://www.assero.co.uk/MDRSdtmUD/ACME/V2#D-ACME_VSDomain_V13_PR8> 			<http://www.w3.org/1999/02/22-rdf-syntax-ns#type> 			<http://www.assero.co.uk/BusinessOperational#PReference> . 
<http://www.assero.co.uk/MDRSdtmUD/ACME/V2#D-ACME_VSDomain_V13_PR8> 			<http://www.w3.org/2000/01/rdf-schema#label> 			"BC Property Reference" . 
<http://www.assero.co.uk/MDRSdtmUD/ACME/V2#D-ACME_VSDomain_V13_PR8> 			<http://www.assero.co.uk/BusinessOperational#hasProperty> 			<http://www.assero.co.uk/MDRBCs/ACME/V2#BC-ACME_BCC25208_I8_DT1_P2> . 
<http://www.assero.co.uk/MDRSdtmUD/ACME/V2#D-ACME_VSDomain_V13_PR8> 			<http://www.assero.co.uk/BusinessOperational#ordinal> 			"8" . 
<http://www.assero.co.uk/MDRSdtmUD/ACME/V2#D-ACME_VSDomain_V13_PR8> 			<http://www.assero.co.uk/BusinessOperational#enabled> 			"true" . 
<http://www.assero.co.uk/MDRSdtmUD/ACME/V2#D-ACME_VSDomain_V13_PR8> 			<http://www.assero.co.uk/BusinessOperational#optional> 			"false" . 
<http://www.assero.co.uk/MDRSdtmUD/ACME/V2#D-ACME_VSDomain_V13_PR8> 			<http://www.assero.co.uk/BusinessOperational#local_label> 			"" . 
<http://www.assero.co.uk/MDRSdtmUD/ACME/V2#D-ACME_VSDomain_V13_PR9> 			<http://www.w3.org/1999/02/22-rdf-syntax-ns#type> 			<http://www.assero.co.uk/BusinessOperational#PReference> . 
<http://www.assero.co.uk/MDRSdtmUD/ACME/V2#D-ACME_VSDomain_V13_PR9> 			<http://www.w3.org/2000/01/rdf-schema#label> 			"BC Property Reference" . 
<http://www.assero.co.uk/MDRSdtmUD/ACME/V2#D-ACME_VSDomain_V13_PR9> 			<http://www.assero.co.uk/BusinessOperational#hasProperty> 			<http://www.assero.co.uk/MDRBCs/V1#BC-ACME_BC_C25298_PerformedClinicalResult_value_PQR_code> . 
<http://www.assero.co.uk/MDRSdtmUD/ACME/V2#D-ACME_VSDomain_V13_PR9> 			<http://www.assero.co.uk/BusinessOperational#ordinal> 			"9" . 
<http://www.assero.co.uk/MDRSdtmUD/ACME/V2#D-ACME_VSDomain_V13_PR9> 			<http://www.assero.co.uk/BusinessOperational#enabled> 			"true" . 
<http://www.assero.co.uk/MDRSdtmUD/ACME/V2#D-ACME_VSDomain_V13_PR9> 			<http://www.assero.co.uk/BusinessOperational#optional> 			"false" . 
<http://www.assero.co.uk/MDRSdtmUD/ACME/V2#D-ACME_VSDomain_V13_PR9> 			<http://www.assero.co.uk/BusinessOperational#local_label> 			"" . 
<http://www.assero.co.uk/MDRSdtmUD/ACME/V2#D-ACME_VSDomain_V13_PR10> 			<http://www.w3.org/1999/02/22-rdf-syntax-ns#type> 			<http://www.assero.co.uk/BusinessOperational#PReference> . 
<http://www.assero.co.uk/MDRSdtmUD/ACME/V2#D-ACME_VSDomain_V13_PR10> 			<http://www.w3.org/2000/01/rdf-schema#label> 			"BC Property Reference" . 
<http://www.assero.co.uk/MDRSdtmUD/ACME/V2#D-ACME_VSDomain_V13_PR10> 			<http://www.assero.co.uk/BusinessOperational#hasProperty> 			<http://www.assero.co.uk/MDRBCs/V1#BC-ACME_BC_C25299_PerformedClinicalResult_value_PQR_code> . 
<http://www.assero.co.uk/MDRSdtmUD/ACME/V2#D-ACME_VSDomain_V13_PR10> 			<http://www.assero.co.uk/BusinessOperational#ordinal> 			"10" . 
<http://www.assero.co.uk/MDRSdtmUD/ACME/V2#D-ACME_VSDomain_V13_PR10> 			<http://www.assero.co.uk/BusinessOperational#enabled> 			"true" . 
<http://www.assero.co.uk/MDRSdtmUD/ACME/V2#D-ACME_VSDomain_V13_PR10> 			<http://www.assero.co.uk/BusinessOperational#optional> 			"false" . 
<http://www.assero.co.uk/MDRSdtmUD/ACME/V2#D-ACME_VSDomain_V13_PR10> 			<http://www.assero.co.uk/BusinessOperational#local_label> 			"" . 
<http://www.assero.co.uk/MDRSdtmUD/ACME/V2#D-ACME_VSDomain_V14> 			<http://www.w3.org/1999/02/22-rdf-syntax-ns#type> 			<http://www.assero.co.uk/BusinessDomain#UserVariable> . 
<http://www.assero.co.uk/MDRSdtmUD/ACME/V2#D-ACME_VSDomain_V14> 			<http://www.w3.org/2000/01/rdf-schema#label> 			"Character Result/Finding in Std Format" . 
<http://www.assero.co.uk/MDRSdtmUD/ACME/V2#D-ACME_VSDomain_V14> 			<http://www.assero.co.uk/BusinessDomain#basedOnVariable> 			<http://www.assero.co.uk/MDRSdtmUD/ACME/V2#D-ACME_VSDomain_V14_IGV1> . 
<http://www.assero.co.uk/MDRSdtmUD/ACME/V2#D-ACME_VSDomain_V14> 			<http://www.assero.co.uk/BusinessDomain#classifiedAs> 			<http://www.assero.co.uk/MDRSdtmM/CDISC/V3#M-CDISC_SDTMMODEL_C_QUALIFIER_SC_RESULTQUALIFIER> . 
<http://www.assero.co.uk/MDRSdtmUD/ACME/V2#D-ACME_VSDomain_V14> 			<http://www.assero.co.uk/BusinessDomain#typedAs> 			<http://www.assero.co.uk/MDRSdtmM/CDISC/V3#M-CDISC_SDTMMODEL_DT_CHAR> . 
<http://www.assero.co.uk/MDRSdtmUD/ACME/V2#D-ACME_VSDomain_V14> 			<http://www.assero.co.uk/BusinessDomain#compliance> 			<http://www.assero.co.uk/MDRSdtmIg/CDISC/V3#IG-CDISC_SDTMIG_C_EXPECTED> . 
<http://www.assero.co.uk/MDRSdtmUD/ACME/V2#D-ACME_VSDomain_V14> 			<http://www.assero.co.uk/BusinessDomain#rule> 			"" . 
<http://www.assero.co.uk/MDRSdtmUD/ACME/V2#D-ACME_VSDomain_V14> 			<http://www.assero.co.uk/BusinessDomain#ordinal> 			"14" . 
<http://www.assero.co.uk/MDRSdtmUD/ACME/V2#D-ACME_VSDomain_V14> 			<http://www.assero.co.uk/BusinessDomain#name> 			"VSSTRESC" . 
<http://www.assero.co.uk/MDRSdtmUD/ACME/V2#D-ACME_VSDomain_V14> 			<http://www.assero.co.uk/BusinessDomain#notes> 			"" . 
<http://www.assero.co.uk/MDRSdtmUD/ACME/V2#D-ACME_VSDomain_V14> 			<http://www.assero.co.uk/BusinessDomain#format> 			"" . 
<http://www.assero.co.uk/MDRSdtmUD/ACME/V2#D-ACME_VSDomain_V14> 			<http://www.assero.co.uk/BusinessDomain#ct> 			"" . 
<http://www.assero.co.uk/MDRSdtmUD/ACME/V2#D-ACME_VSDomain_V14> 			<http://www.assero.co.uk/BusinessDomain#length> 			"0" . 
<http://www.assero.co.uk/MDRSdtmUD/ACME/V2#D-ACME_VSDomain_V14> 			<http://www.assero.co.uk/BusinessDomain#comment> 			"" . 
<http://www.assero.co.uk/MDRSdtmUD/ACME/V2#D-ACME_VSDomain_V14> 			<http://www.assero.co.uk/BusinessDomain#non_standard> 			"false" . 
<http://www.assero.co.uk/MDRSdtmUD/ACME/V2#D-ACME_VSDomain_V14> 			<http://www.assero.co.uk/BusinessDomain#used> 			"true" . 
<http://www.assero.co.uk/MDRSdtmUD/ACME/V2#D-ACME_VSDomain_V14> 			<http://www.assero.co.uk/BusinessDomain#key_ordinal> 			"0" . 
<http://www.assero.co.uk/MDRSdtmUD/ACME/V2#D-ACME_VSDomain_V14_IGV1> 			<http://www.w3.org/1999/02/22-rdf-syntax-ns#type> 			<http://www.assero.co.uk/BusinessOperational#CReference> . 
<http://www.assero.co.uk/MDRSdtmUD/ACME/V2#D-ACME_VSDomain_V14_IGV1> 			<http://www.w3.org/2000/01/rdf-schema#label> 			"Based on Variable Reference" . 
<http://www.assero.co.uk/MDRSdtmUD/ACME/V2#D-ACME_VSDomain_V14_IGV1> 			<http://www.assero.co.uk/BusinessOperational#hasColumn> 			<http://www.assero.co.uk/MDRSdtmIgD/CDISC/V3#IG-CDISC_SDTMIGVS_VSSTRESC> . 
<http://www.assero.co.uk/MDRSdtmUD/ACME/V2#D-ACME_VSDomain_V14_IGV1> 			<http://www.assero.co.uk/BusinessOperational#ordinal> 			"1" . 
<http://www.assero.co.uk/MDRSdtmUD/ACME/V2#D-ACME_VSDomain_V14_IGV1> 			<http://www.assero.co.uk/BusinessOperational#enabled> 			"true" . 
<http://www.assero.co.uk/MDRSdtmUD/ACME/V2#D-ACME_VSDomain_V14_IGV1> 			<http://www.assero.co.uk/BusinessOperational#optional> 			"false" . 
<http://www.assero.co.uk/MDRSdtmUD/ACME/V2#D-ACME_VSDomain_V14_IGV1> 			<http://www.assero.co.uk/BusinessOperational#local_label> 			"" . 
<http://www.assero.co.uk/MDRSdtmUD/ACME/V2#D-ACME_VSDomain_V15> 			<http://www.w3.org/1999/02/22-rdf-syntax-ns#type> 			<http://www.assero.co.uk/BusinessDomain#UserVariable> . 
<http://www.assero.co.uk/MDRSdtmUD/ACME/V2#D-ACME_VSDomain_V15> 			<http://www.w3.org/2000/01/rdf-schema#label> 			"Numeric Result/Finding in Standard Units" . 
<http://www.assero.co.uk/MDRSdtmUD/ACME/V2#D-ACME_VSDomain_V15> 			<http://www.assero.co.uk/BusinessDomain#basedOnVariable> 			<http://www.assero.co.uk/MDRSdtmUD/ACME/V2#D-ACME_VSDomain_V15_IGV1> . 
<http://www.assero.co.uk/MDRSdtmUD/ACME/V2#D-ACME_VSDomain_V15> 			<http://www.assero.co.uk/BusinessDomain#classifiedAs> 			<http://www.assero.co.uk/MDRSdtmM/CDISC/V3#M-CDISC_SDTMMODEL_C_QUALIFIER_SC_RESULTQUALIFIER> . 
<http://www.assero.co.uk/MDRSdtmUD/ACME/V2#D-ACME_VSDomain_V15> 			<http://www.assero.co.uk/BusinessDomain#typedAs> 			<http://www.assero.co.uk/MDRSdtmM/CDISC/V3#M-CDISC_SDTMMODEL_DT_NUM> . 
<http://www.assero.co.uk/MDRSdtmUD/ACME/V2#D-ACME_VSDomain_V15> 			<http://www.assero.co.uk/BusinessDomain#compliance> 			<http://www.assero.co.uk/MDRSdtmIg/CDISC/V3#IG-CDISC_SDTMIG_C_EXPECTED> . 
<http://www.assero.co.uk/MDRSdtmUD/ACME/V2#D-ACME_VSDomain_V15> 			<http://www.assero.co.uk/BusinessDomain#rule> 			"" . 
<http://www.assero.co.uk/MDRSdtmUD/ACME/V2#D-ACME_VSDomain_V15> 			<http://www.assero.co.uk/BusinessDomain#ordinal> 			"15" . 
<http://www.assero.co.uk/MDRSdtmUD/ACME/V2#D-ACME_VSDomain_V15> 			<http://www.assero.co.uk/BusinessDomain#name> 			"VSSTRESN" . 
<http://www.assero.co.uk/MDRSdtmUD/ACME/V2#D-ACME_VSDomain_V15> 			<http://www.assero.co.uk/BusinessDomain#notes> 			"" . 
<http://www.assero.co.uk/MDRSdtmUD/ACME/V2#D-ACME_VSDomain_V15> 			<http://www.assero.co.uk/BusinessDomain#format> 			"" . 
<http://www.assero.co.uk/MDRSdtmUD/ACME/V2#D-ACME_VSDomain_V15> 			<http://www.assero.co.uk/BusinessDomain#ct> 			"" . 
<http://www.assero.co.uk/MDRSdtmUD/ACME/V2#D-ACME_VSDomain_V15> 			<http://www.assero.co.uk/BusinessDomain#length> 			"0" . 
<http://www.assero.co.uk/MDRSdtmUD/ACME/V2#D-ACME_VSDomain_V15> 			<http://www.assero.co.uk/BusinessDomain#comment> 			"" . 
<http://www.assero.co.uk/MDRSdtmUD/ACME/V2#D-ACME_VSDomain_V15> 			<http://www.assero.co.uk/BusinessDomain#non_standard> 			"false" . 
<http://www.assero.co.uk/MDRSdtmUD/ACME/V2#D-ACME_VSDomain_V15> 			<http://www.assero.co.uk/BusinessDomain#used> 			"true" . 
<http://www.assero.co.uk/MDRSdtmUD/ACME/V2#D-ACME_VSDomain_V15> 			<http://www.assero.co.uk/BusinessDomain#key_ordinal> 			"0" . 
<http://www.assero.co.uk/MDRSdtmUD/ACME/V2#D-ACME_VSDomain_V15_IGV1> 			<http://www.w3.org/1999/02/22-rdf-syntax-ns#type> 			<http://www.assero.co.uk/BusinessOperational#CReference> . 
<http://www.assero.co.uk/MDRSdtmUD/ACME/V2#D-ACME_VSDomain_V15_IGV1> 			<http://www.w3.org/2000/01/rdf-schema#label> 			"Based on Variable Reference" . 
<http://www.assero.co.uk/MDRSdtmUD/ACME/V2#D-ACME_VSDomain_V15_IGV1> 			<http://www.assero.co.uk/BusinessOperational#hasColumn> 			<http://www.assero.co.uk/MDRSdtmIgD/CDISC/V3#IG-CDISC_SDTMIGVS_VSSTRESN> . 
<http://www.assero.co.uk/MDRSdtmUD/ACME/V2#D-ACME_VSDomain_V15_IGV1> 			<http://www.assero.co.uk/BusinessOperational#ordinal> 			"1" . 
<http://www.assero.co.uk/MDRSdtmUD/ACME/V2#D-ACME_VSDomain_V15_IGV1> 			<http://www.assero.co.uk/BusinessOperational#enabled> 			"true" . 
<http://www.assero.co.uk/MDRSdtmUD/ACME/V2#D-ACME_VSDomain_V15_IGV1> 			<http://www.assero.co.uk/BusinessOperational#optional> 			"false" . 
<http://www.assero.co.uk/MDRSdtmUD/ACME/V2#D-ACME_VSDomain_V15_IGV1> 			<http://www.assero.co.uk/BusinessOperational#local_label> 			"" . 
<http://www.assero.co.uk/MDRSdtmUD/ACME/V2#D-ACME_VSDomain_V16> 			<http://www.w3.org/1999/02/22-rdf-syntax-ns#type> 			<http://www.assero.co.uk/BusinessDomain#UserVariable> . 
<http://www.assero.co.uk/MDRSdtmUD/ACME/V2#D-ACME_VSDomain_V16> 			<http://www.w3.org/2000/01/rdf-schema#label> 			"Standard Units" . 
<http://www.assero.co.uk/MDRSdtmUD/ACME/V2#D-ACME_VSDomain_V16> 			<http://www.assero.co.uk/BusinessDomain#basedOnVariable> 			<http://www.assero.co.uk/MDRSdtmUD/ACME/V2#D-ACME_VSDomain_V16_IGV1> . 
<http://www.assero.co.uk/MDRSdtmUD/ACME/V2#D-ACME_VSDomain_V16> 			<http://www.assero.co.uk/BusinessDomain#classifiedAs> 			<http://www.assero.co.uk/MDRSdtmM/CDISC/V3#M-CDISC_SDTMMODEL_C_QUALIFIER_SC_VARIABLEQUALIFIER> . 
<http://www.assero.co.uk/MDRSdtmUD/ACME/V2#D-ACME_VSDomain_V16> 			<http://www.assero.co.uk/BusinessDomain#typedAs> 			<http://www.assero.co.uk/MDRSdtmM/CDISC/V3#M-CDISC_SDTMMODEL_DT_CHAR> . 
<http://www.assero.co.uk/MDRSdtmUD/ACME/V2#D-ACME_VSDomain_V16> 			<http://www.assero.co.uk/BusinessDomain#compliance> 			<http://www.assero.co.uk/MDRSdtmIg/CDISC/V3#IG-CDISC_SDTMIG_C_EXPECTED> . 
<http://www.assero.co.uk/MDRSdtmUD/ACME/V2#D-ACME_VSDomain_V16> 			<http://www.assero.co.uk/BusinessDomain#rule> 			"" . 
<http://www.assero.co.uk/MDRSdtmUD/ACME/V2#D-ACME_VSDomain_V16> 			<http://www.assero.co.uk/BusinessDomain#ordinal> 			"16" . 
<http://www.assero.co.uk/MDRSdtmUD/ACME/V2#D-ACME_VSDomain_V16> 			<http://www.assero.co.uk/BusinessDomain#name> 			"VSSTRESU" . 
<http://www.assero.co.uk/MDRSdtmUD/ACME/V2#D-ACME_VSDomain_V16> 			<http://www.assero.co.uk/BusinessDomain#notes> 			"" . 
<http://www.assero.co.uk/MDRSdtmUD/ACME/V2#D-ACME_VSDomain_V16> 			<http://www.assero.co.uk/BusinessDomain#format> 			"" . 
<http://www.assero.co.uk/MDRSdtmUD/ACME/V2#D-ACME_VSDomain_V16> 			<http://www.assero.co.uk/BusinessDomain#ct> 			"VSRESU" . 
<http://www.assero.co.uk/MDRSdtmUD/ACME/V2#D-ACME_VSDomain_V16> 			<http://www.assero.co.uk/BusinessDomain#length> 			"0" . 
<http://www.assero.co.uk/MDRSdtmUD/ACME/V2#D-ACME_VSDomain_V16> 			<http://www.assero.co.uk/BusinessDomain#comment> 			"" . 
<http://www.assero.co.uk/MDRSdtmUD/ACME/V2#D-ACME_VSDomain_V16> 			<http://www.assero.co.uk/BusinessDomain#non_standard> 			"false" . 
<http://www.assero.co.uk/MDRSdtmUD/ACME/V2#D-ACME_VSDomain_V16> 			<http://www.assero.co.uk/BusinessDomain#used> 			"true" . 
<http://www.assero.co.uk/MDRSdtmUD/ACME/V2#D-ACME_VSDomain_V16> 			<http://www.assero.co.uk/BusinessDomain#key_ordinal> 			"0" . 
<http://www.assero.co.uk/MDRSdtmUD/ACME/V2#D-ACME_VSDomain_V16_IGV1> 			<http://www.w3.org/1999/02/22-rdf-syntax-ns#type> 			<http://www.assero.co.uk/BusinessOperational#CReference> . 
<http://www.assero.co.uk/MDRSdtmUD/ACME/V2#D-ACME_VSDomain_V16_IGV1> 			<http://www.w3.org/2000/01/rdf-schema#label> 			"Based on Variable Reference" . 
<http://www.assero.co.uk/MDRSdtmUD/ACME/V2#D-ACME_VSDomain_V16_IGV1> 			<http://www.assero.co.uk/BusinessOperational#hasColumn> 			<http://www.assero.co.uk/MDRSdtmIgD/CDISC/V3#IG-CDISC_SDTMIGVS_VSSTRESU> . 
<http://www.assero.co.uk/MDRSdtmUD/ACME/V2#D-ACME_VSDomain_V16_IGV1> 			<http://www.assero.co.uk/BusinessOperational#ordinal> 			"1" . 
<http://www.assero.co.uk/MDRSdtmUD/ACME/V2#D-ACME_VSDomain_V16_IGV1> 			<http://www.assero.co.uk/BusinessOperational#enabled> 			"true" . 
<http://www.assero.co.uk/MDRSdtmUD/ACME/V2#D-ACME_VSDomain_V16_IGV1> 			<http://www.assero.co.uk/BusinessOperational#optional> 			"false" . 
<http://www.assero.co.uk/MDRSdtmUD/ACME/V2#D-ACME_VSDomain_V16_IGV1> 			<http://www.assero.co.uk/BusinessOperational#local_label> 			"" . 
<http://www.assero.co.uk/MDRSdtmUD/ACME/V2#D-ACME_VSDomain_V17> 			<http://www.w3.org/1999/02/22-rdf-syntax-ns#type> 			<http://www.assero.co.uk/BusinessDomain#UserVariable> . 
<http://www.assero.co.uk/MDRSdtmUD/ACME/V2#D-ACME_VSDomain_V17> 			<http://www.w3.org/2000/01/rdf-schema#label> 			"Completion Status" . 
<http://www.assero.co.uk/MDRSdtmUD/ACME/V2#D-ACME_VSDomain_V17> 			<http://www.assero.co.uk/BusinessDomain#basedOnVariable> 			<http://www.assero.co.uk/MDRSdtmUD/ACME/V2#D-ACME_VSDomain_V17_IGV1> . 
<http://www.assero.co.uk/MDRSdtmUD/ACME/V2#D-ACME_VSDomain_V17> 			<http://www.assero.co.uk/BusinessDomain#classifiedAs> 			<http://www.assero.co.uk/MDRSdtmM/CDISC/V3#M-CDISC_SDTMMODEL_C_QUALIFIER_SC_RECORDQUALIFIER> . 
<http://www.assero.co.uk/MDRSdtmUD/ACME/V2#D-ACME_VSDomain_V17> 			<http://www.assero.co.uk/BusinessDomain#typedAs> 			<http://www.assero.co.uk/MDRSdtmM/CDISC/V3#M-CDISC_SDTMMODEL_DT_CHAR> . 
<http://www.assero.co.uk/MDRSdtmUD/ACME/V2#D-ACME_VSDomain_V17> 			<http://www.assero.co.uk/BusinessDomain#compliance> 			<http://www.assero.co.uk/MDRSdtmIg/CDISC/V3#IG-CDISC_SDTMIG_C_PERMISSIBLE> . 
<http://www.assero.co.uk/MDRSdtmUD/ACME/V2#D-ACME_VSDomain_V17> 			<http://www.assero.co.uk/BusinessDomain#rule> 			"" . 
<http://www.assero.co.uk/MDRSdtmUD/ACME/V2#D-ACME_VSDomain_V17> 			<http://www.assero.co.uk/BusinessDomain#ordinal> 			"17" . 
<http://www.assero.co.uk/MDRSdtmUD/ACME/V2#D-ACME_VSDomain_V17> 			<http://www.assero.co.uk/BusinessDomain#name> 			"VSSTAT" . 
<http://www.assero.co.uk/MDRSdtmUD/ACME/V2#D-ACME_VSDomain_V17> 			<http://www.assero.co.uk/BusinessDomain#notes> 			"" . 
<http://www.assero.co.uk/MDRSdtmUD/ACME/V2#D-ACME_VSDomain_V17> 			<http://www.assero.co.uk/BusinessDomain#format> 			"" . 
<http://www.assero.co.uk/MDRSdtmUD/ACME/V2#D-ACME_VSDomain_V17> 			<http://www.assero.co.uk/BusinessDomain#ct> 			"ND" . 
<http://www.assero.co.uk/MDRSdtmUD/ACME/V2#D-ACME_VSDomain_V17> 			<http://www.assero.co.uk/BusinessDomain#length> 			"0" . 
<http://www.assero.co.uk/MDRSdtmUD/ACME/V2#D-ACME_VSDomain_V17> 			<http://www.assero.co.uk/BusinessDomain#comment> 			"" . 
<http://www.assero.co.uk/MDRSdtmUD/ACME/V2#D-ACME_VSDomain_V17> 			<http://www.assero.co.uk/BusinessDomain#non_standard> 			"false" . 
<http://www.assero.co.uk/MDRSdtmUD/ACME/V2#D-ACME_VSDomain_V17> 			<http://www.assero.co.uk/BusinessDomain#used> 			"true" . 
<http://www.assero.co.uk/MDRSdtmUD/ACME/V2#D-ACME_VSDomain_V17> 			<http://www.assero.co.uk/BusinessDomain#key_ordinal> 			"0" . 
<http://www.assero.co.uk/MDRSdtmUD/ACME/V2#D-ACME_VSDomain_V17_IGV1> 			<http://www.w3.org/1999/02/22-rdf-syntax-ns#type> 			<http://www.assero.co.uk/BusinessOperational#CReference> . 
<http://www.assero.co.uk/MDRSdtmUD/ACME/V2#D-ACME_VSDomain_V17_IGV1> 			<http://www.w3.org/2000/01/rdf-schema#label> 			"Based on Variable Reference" . 
<http://www.assero.co.uk/MDRSdtmUD/ACME/V2#D-ACME_VSDomain_V17_IGV1> 			<http://www.assero.co.uk/BusinessOperational#hasColumn> 			<http://www.assero.co.uk/MDRSdtmIgD/CDISC/V3#IG-CDISC_SDTMIGVS_VSSTAT> . 
<http://www.assero.co.uk/MDRSdtmUD/ACME/V2#D-ACME_VSDomain_V17_IGV1> 			<http://www.assero.co.uk/BusinessOperational#ordinal> 			"1" . 
<http://www.assero.co.uk/MDRSdtmUD/ACME/V2#D-ACME_VSDomain_V17_IGV1> 			<http://www.assero.co.uk/BusinessOperational#enabled> 			"true" . 
<http://www.assero.co.uk/MDRSdtmUD/ACME/V2#D-ACME_VSDomain_V17_IGV1> 			<http://www.assero.co.uk/BusinessOperational#optional> 			"false" . 
<http://www.assero.co.uk/MDRSdtmUD/ACME/V2#D-ACME_VSDomain_V17_IGV1> 			<http://www.assero.co.uk/BusinessOperational#local_label> 			"" . 
<http://www.assero.co.uk/MDRSdtmUD/ACME/V2#D-ACME_VSDomain_V18> 			<http://www.w3.org/1999/02/22-rdf-syntax-ns#type> 			<http://www.assero.co.uk/BusinessDomain#UserVariable> . 
<http://www.assero.co.uk/MDRSdtmUD/ACME/V2#D-ACME_VSDomain_V18> 			<http://www.w3.org/2000/01/rdf-schema#label> 			"Reason Not Performed" . 
<http://www.assero.co.uk/MDRSdtmUD/ACME/V2#D-ACME_VSDomain_V18> 			<http://www.assero.co.uk/BusinessDomain#basedOnVariable> 			<http://www.assero.co.uk/MDRSdtmUD/ACME/V2#D-ACME_VSDomain_V18_IGV1> . 
<http://www.assero.co.uk/MDRSdtmUD/ACME/V2#D-ACME_VSDomain_V18> 			<http://www.assero.co.uk/BusinessDomain#classifiedAs> 			<http://www.assero.co.uk/MDRSdtmM/CDISC/V3#M-CDISC_SDTMMODEL_C_QUALIFIER_SC_RECORDQUALIFIER> . 
<http://www.assero.co.uk/MDRSdtmUD/ACME/V2#D-ACME_VSDomain_V18> 			<http://www.assero.co.uk/BusinessDomain#typedAs> 			<http://www.assero.co.uk/MDRSdtmM/CDISC/V3#M-CDISC_SDTMMODEL_DT_CHAR> . 
<http://www.assero.co.uk/MDRSdtmUD/ACME/V2#D-ACME_VSDomain_V18> 			<http://www.assero.co.uk/BusinessDomain#compliance> 			<http://www.assero.co.uk/MDRSdtmIg/CDISC/V3#IG-CDISC_SDTMIG_C_PERMISSIBLE> . 
<http://www.assero.co.uk/MDRSdtmUD/ACME/V2#D-ACME_VSDomain_V18> 			<http://www.assero.co.uk/BusinessDomain#rule> 			"" . 
<http://www.assero.co.uk/MDRSdtmUD/ACME/V2#D-ACME_VSDomain_V18> 			<http://www.assero.co.uk/BusinessDomain#ordinal> 			"18" . 
<http://www.assero.co.uk/MDRSdtmUD/ACME/V2#D-ACME_VSDomain_V18> 			<http://www.assero.co.uk/BusinessDomain#name> 			"VSREASND" . 
<http://www.assero.co.uk/MDRSdtmUD/ACME/V2#D-ACME_VSDomain_V18> 			<http://www.assero.co.uk/BusinessDomain#notes> 			"" . 
<http://www.assero.co.uk/MDRSdtmUD/ACME/V2#D-ACME_VSDomain_V18> 			<http://www.assero.co.uk/BusinessDomain#format> 			"" . 
<http://www.assero.co.uk/MDRSdtmUD/ACME/V2#D-ACME_VSDomain_V18> 			<http://www.assero.co.uk/BusinessDomain#ct> 			"" . 
<http://www.assero.co.uk/MDRSdtmUD/ACME/V2#D-ACME_VSDomain_V18> 			<http://www.assero.co.uk/BusinessDomain#length> 			"0" . 
<http://www.assero.co.uk/MDRSdtmUD/ACME/V2#D-ACME_VSDomain_V18> 			<http://www.assero.co.uk/BusinessDomain#comment> 			"" . 
<http://www.assero.co.uk/MDRSdtmUD/ACME/V2#D-ACME_VSDomain_V18> 			<http://www.assero.co.uk/BusinessDomain#non_standard> 			"false" . 
<http://www.assero.co.uk/MDRSdtmUD/ACME/V2#D-ACME_VSDomain_V18> 			<http://www.assero.co.uk/BusinessDomain#used> 			"true" . 
<http://www.assero.co.uk/MDRSdtmUD/ACME/V2#D-ACME_VSDomain_V18> 			<http://www.assero.co.uk/BusinessDomain#key_ordinal> 			"0" . 
<http://www.assero.co.uk/MDRSdtmUD/ACME/V2#D-ACME_VSDomain_V18_IGV1> 			<http://www.w3.org/1999/02/22-rdf-syntax-ns#type> 			<http://www.assero.co.uk/BusinessOperational#CReference> . 
<http://www.assero.co.uk/MDRSdtmUD/ACME/V2#D-ACME_VSDomain_V18_IGV1> 			<http://www.w3.org/2000/01/rdf-schema#label> 			"Based on Variable Reference" . 
<http://www.assero.co.uk/MDRSdtmUD/ACME/V2#D-ACME_VSDomain_V18_IGV1> 			<http://www.assero.co.uk/BusinessOperational#hasColumn> 			<http://www.assero.co.uk/MDRSdtmIgD/CDISC/V3#IG-CDISC_SDTMIGVS_VSREASND> . 
<http://www.assero.co.uk/MDRSdtmUD/ACME/V2#D-ACME_VSDomain_V18_IGV1> 			<http://www.assero.co.uk/BusinessOperational#ordinal> 			"1" . 
<http://www.assero.co.uk/MDRSdtmUD/ACME/V2#D-ACME_VSDomain_V18_IGV1> 			<http://www.assero.co.uk/BusinessOperational#enabled> 			"true" . 
<http://www.assero.co.uk/MDRSdtmUD/ACME/V2#D-ACME_VSDomain_V18_IGV1> 			<http://www.assero.co.uk/BusinessOperational#optional> 			"false" . 
<http://www.assero.co.uk/MDRSdtmUD/ACME/V2#D-ACME_VSDomain_V18_IGV1> 			<http://www.assero.co.uk/BusinessOperational#local_label> 			"" . 
<http://www.assero.co.uk/MDRSdtmUD/ACME/V2#D-ACME_VSDomain_V19> 			<http://www.w3.org/1999/02/22-rdf-syntax-ns#type> 			<http://www.assero.co.uk/BusinessDomain#UserVariable> . 
<http://www.assero.co.uk/MDRSdtmUD/ACME/V2#D-ACME_VSDomain_V19> 			<http://www.w3.org/2000/01/rdf-schema#label> 			"Location of Vital Signs Measurement" . 
<http://www.assero.co.uk/MDRSdtmUD/ACME/V2#D-ACME_VSDomain_V19> 			<http://www.assero.co.uk/BusinessDomain#basedOnVariable> 			<http://www.assero.co.uk/MDRSdtmUD/ACME/V2#D-ACME_VSDomain_V19_IGV1> . 
<http://www.assero.co.uk/MDRSdtmUD/ACME/V2#D-ACME_VSDomain_V19> 			<http://www.assero.co.uk/BusinessDomain#classifiedAs> 			<http://www.assero.co.uk/MDRSdtmM/CDISC/V3#M-CDISC_SDTMMODEL_C_QUALIFIER_SC_RECORDQUALIFIER> . 
<http://www.assero.co.uk/MDRSdtmUD/ACME/V2#D-ACME_VSDomain_V19> 			<http://www.assero.co.uk/BusinessDomain#typedAs> 			<http://www.assero.co.uk/MDRSdtmM/CDISC/V3#M-CDISC_SDTMMODEL_DT_CHAR> . 
<http://www.assero.co.uk/MDRSdtmUD/ACME/V2#D-ACME_VSDomain_V19> 			<http://www.assero.co.uk/BusinessDomain#compliance> 			<http://www.assero.co.uk/MDRSdtmIg/CDISC/V3#IG-CDISC_SDTMIG_C_PERMISSIBLE> . 
<http://www.assero.co.uk/MDRSdtmUD/ACME/V2#D-ACME_VSDomain_V19> 			<http://www.assero.co.uk/BusinessDomain#rule> 			"" . 
<http://www.assero.co.uk/MDRSdtmUD/ACME/V2#D-ACME_VSDomain_V19> 			<http://www.assero.co.uk/BusinessDomain#ordinal> 			"19" . 
<http://www.assero.co.uk/MDRSdtmUD/ACME/V2#D-ACME_VSDomain_V19> 			<http://www.assero.co.uk/BusinessDomain#name> 			"VSLOC" . 
<http://www.assero.co.uk/MDRSdtmUD/ACME/V2#D-ACME_VSDomain_V19> 			<http://www.assero.co.uk/BusinessDomain#notes> 			"" . 
<http://www.assero.co.uk/MDRSdtmUD/ACME/V2#D-ACME_VSDomain_V19> 			<http://www.assero.co.uk/BusinessDomain#format> 			"" . 
<http://www.assero.co.uk/MDRSdtmUD/ACME/V2#D-ACME_VSDomain_V19> 			<http://www.assero.co.uk/BusinessDomain#ct> 			"LOC" . 
<http://www.assero.co.uk/MDRSdtmUD/ACME/V2#D-ACME_VSDomain_V19> 			<http://www.assero.co.uk/BusinessDomain#length> 			"0" . 
<http://www.assero.co.uk/MDRSdtmUD/ACME/V2#D-ACME_VSDomain_V19> 			<http://www.assero.co.uk/BusinessDomain#comment> 			"" . 
<http://www.assero.co.uk/MDRSdtmUD/ACME/V2#D-ACME_VSDomain_V19> 			<http://www.assero.co.uk/BusinessDomain#non_standard> 			"false" . 
<http://www.assero.co.uk/MDRSdtmUD/ACME/V2#D-ACME_VSDomain_V19> 			<http://www.assero.co.uk/BusinessDomain#used> 			"true" . 
<http://www.assero.co.uk/MDRSdtmUD/ACME/V2#D-ACME_VSDomain_V19> 			<http://www.assero.co.uk/BusinessDomain#key_ordinal> 			"0" . 
<http://www.assero.co.uk/MDRSdtmUD/ACME/V2#D-ACME_VSDomain_V19_IGV1> 			<http://www.w3.org/1999/02/22-rdf-syntax-ns#type> 			<http://www.assero.co.uk/BusinessOperational#CReference> . 
<http://www.assero.co.uk/MDRSdtmUD/ACME/V2#D-ACME_VSDomain_V19_IGV1> 			<http://www.w3.org/2000/01/rdf-schema#label> 			"Based on Variable Reference" . 
<http://www.assero.co.uk/MDRSdtmUD/ACME/V2#D-ACME_VSDomain_V19_IGV1> 			<http://www.assero.co.uk/BusinessOperational#hasColumn> 			<http://www.assero.co.uk/MDRSdtmIgD/CDISC/V3#IG-CDISC_SDTMIGVS_VSLOC> . 
<http://www.assero.co.uk/MDRSdtmUD/ACME/V2#D-ACME_VSDomain_V19_IGV1> 			<http://www.assero.co.uk/BusinessOperational#ordinal> 			"1" . 
<http://www.assero.co.uk/MDRSdtmUD/ACME/V2#D-ACME_VSDomain_V19_IGV1> 			<http://www.assero.co.uk/BusinessOperational#enabled> 			"true" . 
<http://www.assero.co.uk/MDRSdtmUD/ACME/V2#D-ACME_VSDomain_V19_IGV1> 			<http://www.assero.co.uk/BusinessOperational#optional> 			"false" . 
<http://www.assero.co.uk/MDRSdtmUD/ACME/V2#D-ACME_VSDomain_V19_IGV1> 			<http://www.assero.co.uk/BusinessOperational#local_label> 			"" . 
<http://www.assero.co.uk/MDRSdtmUD/ACME/V2#D-ACME_VSDomain_V20> 			<http://www.w3.org/1999/02/22-rdf-syntax-ns#type> 			<http://www.assero.co.uk/BusinessDomain#UserVariable> . 
<http://www.assero.co.uk/MDRSdtmUD/ACME/V2#D-ACME_VSDomain_V20> 			<http://www.w3.org/2000/01/rdf-schema#label> 			"Laterality" . 
<http://www.assero.co.uk/MDRSdtmUD/ACME/V2#D-ACME_VSDomain_V20> 			<http://www.assero.co.uk/BusinessDomain#basedOnVariable> 			<http://www.assero.co.uk/MDRSdtmUD/ACME/V2#D-ACME_VSDomain_V20_IGV1> . 
<http://www.assero.co.uk/MDRSdtmUD/ACME/V2#D-ACME_VSDomain_V20> 			<http://www.assero.co.uk/BusinessDomain#classifiedAs> 			<http://www.assero.co.uk/MDRSdtmM/CDISC/V3#M-CDISC_SDTMMODEL_C_QUALIFIER_SC_VARIABLEQUALIFIER> . 
<http://www.assero.co.uk/MDRSdtmUD/ACME/V2#D-ACME_VSDomain_V20> 			<http://www.assero.co.uk/BusinessDomain#typedAs> 			<http://www.assero.co.uk/MDRSdtmM/CDISC/V3#M-CDISC_SDTMMODEL_DT_CHAR> . 
<http://www.assero.co.uk/MDRSdtmUD/ACME/V2#D-ACME_VSDomain_V20> 			<http://www.assero.co.uk/BusinessDomain#compliance> 			<http://www.assero.co.uk/MDRSdtmIg/CDISC/V3#IG-CDISC_SDTMIG_C_PERMISSIBLE> . 
<http://www.assero.co.uk/MDRSdtmUD/ACME/V2#D-ACME_VSDomain_V20> 			<http://www.assero.co.uk/BusinessDomain#rule> 			"" . 
<http://www.assero.co.uk/MDRSdtmUD/ACME/V2#D-ACME_VSDomain_V20> 			<http://www.assero.co.uk/BusinessDomain#ordinal> 			"20" . 
<http://www.assero.co.uk/MDRSdtmUD/ACME/V2#D-ACME_VSDomain_V20> 			<http://www.assero.co.uk/BusinessDomain#name> 			"VSLAT" . 
<http://www.assero.co.uk/MDRSdtmUD/ACME/V2#D-ACME_VSDomain_V20> 			<http://www.assero.co.uk/BusinessDomain#notes> 			"" . 
<http://www.assero.co.uk/MDRSdtmUD/ACME/V2#D-ACME_VSDomain_V20> 			<http://www.assero.co.uk/BusinessDomain#format> 			"" . 
<http://www.assero.co.uk/MDRSdtmUD/ACME/V2#D-ACME_VSDomain_V20> 			<http://www.assero.co.uk/BusinessDomain#ct> 			"LAT" . 
<http://www.assero.co.uk/MDRSdtmUD/ACME/V2#D-ACME_VSDomain_V20> 			<http://www.assero.co.uk/BusinessDomain#length> 			"0" . 
<http://www.assero.co.uk/MDRSdtmUD/ACME/V2#D-ACME_VSDomain_V20> 			<http://www.assero.co.uk/BusinessDomain#comment> 			"" . 
<http://www.assero.co.uk/MDRSdtmUD/ACME/V2#D-ACME_VSDomain_V20> 			<http://www.assero.co.uk/BusinessDomain#non_standard> 			"false" . 
<http://www.assero.co.uk/MDRSdtmUD/ACME/V2#D-ACME_VSDomain_V20> 			<http://www.assero.co.uk/BusinessDomain#used> 			"true" . 
<http://www.assero.co.uk/MDRSdtmUD/ACME/V2#D-ACME_VSDomain_V20> 			<http://www.assero.co.uk/BusinessDomain#key_ordinal> 			"0" . 
<http://www.assero.co.uk/MDRSdtmUD/ACME/V2#D-ACME_VSDomain_V20_IGV1> 			<http://www.w3.org/1999/02/22-rdf-syntax-ns#type> 			<http://www.assero.co.uk/BusinessOperational#CReference> . 
<http://www.assero.co.uk/MDRSdtmUD/ACME/V2#D-ACME_VSDomain_V20_IGV1> 			<http://www.w3.org/2000/01/rdf-schema#label> 			"Based on Variable Reference" . 
<http://www.assero.co.uk/MDRSdtmUD/ACME/V2#D-ACME_VSDomain_V20_IGV1> 			<http://www.assero.co.uk/BusinessOperational#hasColumn> 			<http://www.assero.co.uk/MDRSdtmIgD/CDISC/V3#IG-CDISC_SDTMIGVS_VSLAT> . 
<http://www.assero.co.uk/MDRSdtmUD/ACME/V2#D-ACME_VSDomain_V20_IGV1> 			<http://www.assero.co.uk/BusinessOperational#ordinal> 			"1" . 
<http://www.assero.co.uk/MDRSdtmUD/ACME/V2#D-ACME_VSDomain_V20_IGV1> 			<http://www.assero.co.uk/BusinessOperational#enabled> 			"true" . 
<http://www.assero.co.uk/MDRSdtmUD/ACME/V2#D-ACME_VSDomain_V20_IGV1> 			<http://www.assero.co.uk/BusinessOperational#optional> 			"false" . 
<http://www.assero.co.uk/MDRSdtmUD/ACME/V2#D-ACME_VSDomain_V20_IGV1> 			<http://www.assero.co.uk/BusinessOperational#local_label> 			"" . 
<http://www.assero.co.uk/MDRSdtmUD/ACME/V2#D-ACME_VSDomain_V21> 			<http://www.w3.org/1999/02/22-rdf-syntax-ns#type> 			<http://www.assero.co.uk/BusinessDomain#UserVariable> . 
<http://www.assero.co.uk/MDRSdtmUD/ACME/V2#D-ACME_VSDomain_V21> 			<http://www.w3.org/2000/01/rdf-schema#label> 			"Baseline Flag" . 
<http://www.assero.co.uk/MDRSdtmUD/ACME/V2#D-ACME_VSDomain_V21> 			<http://www.assero.co.uk/BusinessDomain#basedOnVariable> 			<http://www.assero.co.uk/MDRSdtmUD/ACME/V2#D-ACME_VSDomain_V21_IGV1> . 
<http://www.assero.co.uk/MDRSdtmUD/ACME/V2#D-ACME_VSDomain_V21> 			<http://www.assero.co.uk/BusinessDomain#classifiedAs> 			<http://www.assero.co.uk/MDRSdtmM/CDISC/V3#M-CDISC_SDTMMODEL_C_QUALIFIER_SC_RECORDQUALIFIER> . 
<http://www.assero.co.uk/MDRSdtmUD/ACME/V2#D-ACME_VSDomain_V21> 			<http://www.assero.co.uk/BusinessDomain#typedAs> 			<http://www.assero.co.uk/MDRSdtmM/CDISC/V3#M-CDISC_SDTMMODEL_DT_CHAR> . 
<http://www.assero.co.uk/MDRSdtmUD/ACME/V2#D-ACME_VSDomain_V21> 			<http://www.assero.co.uk/BusinessDomain#compliance> 			<http://www.assero.co.uk/MDRSdtmIg/CDISC/V3#IG-CDISC_SDTMIG_C_EXPECTED> . 
<http://www.assero.co.uk/MDRSdtmUD/ACME/V2#D-ACME_VSDomain_V21> 			<http://www.assero.co.uk/BusinessDomain#rule> 			"" . 
<http://www.assero.co.uk/MDRSdtmUD/ACME/V2#D-ACME_VSDomain_V21> 			<http://www.assero.co.uk/BusinessDomain#ordinal> 			"21" . 
<http://www.assero.co.uk/MDRSdtmUD/ACME/V2#D-ACME_VSDomain_V21> 			<http://www.assero.co.uk/BusinessDomain#name> 			"VSBLFL" . 
<http://www.assero.co.uk/MDRSdtmUD/ACME/V2#D-ACME_VSDomain_V21> 			<http://www.assero.co.uk/BusinessDomain#notes> 			"" . 
<http://www.assero.co.uk/MDRSdtmUD/ACME/V2#D-ACME_VSDomain_V21> 			<http://www.assero.co.uk/BusinessDomain#format> 			"" . 
<http://www.assero.co.uk/MDRSdtmUD/ACME/V2#D-ACME_VSDomain_V21> 			<http://www.assero.co.uk/BusinessDomain#ct> 			"NY" . 
<http://www.assero.co.uk/MDRSdtmUD/ACME/V2#D-ACME_VSDomain_V21> 			<http://www.assero.co.uk/BusinessDomain#length> 			"0" . 
<http://www.assero.co.uk/MDRSdtmUD/ACME/V2#D-ACME_VSDomain_V21> 			<http://www.assero.co.uk/BusinessDomain#comment> 			"" . 
<http://www.assero.co.uk/MDRSdtmUD/ACME/V2#D-ACME_VSDomain_V21> 			<http://www.assero.co.uk/BusinessDomain#non_standard> 			"false" . 
<http://www.assero.co.uk/MDRSdtmUD/ACME/V2#D-ACME_VSDomain_V21> 			<http://www.assero.co.uk/BusinessDomain#used> 			"true" . 
<http://www.assero.co.uk/MDRSdtmUD/ACME/V2#D-ACME_VSDomain_V21> 			<http://www.assero.co.uk/BusinessDomain#key_ordinal> 			"0" . 
<http://www.assero.co.uk/MDRSdtmUD/ACME/V2#D-ACME_VSDomain_V21_IGV1> 			<http://www.w3.org/1999/02/22-rdf-syntax-ns#type> 			<http://www.assero.co.uk/BusinessOperational#CReference> . 
<http://www.assero.co.uk/MDRSdtmUD/ACME/V2#D-ACME_VSDomain_V21_IGV1> 			<http://www.w3.org/2000/01/rdf-schema#label> 			"Based on Variable Reference" . 
<http://www.assero.co.uk/MDRSdtmUD/ACME/V2#D-ACME_VSDomain_V21_IGV1> 			<http://www.assero.co.uk/BusinessOperational#hasColumn> 			<http://www.assero.co.uk/MDRSdtmIgD/CDISC/V3#IG-CDISC_SDTMIGVS_VSBLFL> . 
<http://www.assero.co.uk/MDRSdtmUD/ACME/V2#D-ACME_VSDomain_V21_IGV1> 			<http://www.assero.co.uk/BusinessOperational#ordinal> 			"1" . 
<http://www.assero.co.uk/MDRSdtmUD/ACME/V2#D-ACME_VSDomain_V21_IGV1> 			<http://www.assero.co.uk/BusinessOperational#enabled> 			"true" . 
<http://www.assero.co.uk/MDRSdtmUD/ACME/V2#D-ACME_VSDomain_V21_IGV1> 			<http://www.assero.co.uk/BusinessOperational#optional> 			"false" . 
<http://www.assero.co.uk/MDRSdtmUD/ACME/V2#D-ACME_VSDomain_V21_IGV1> 			<http://www.assero.co.uk/BusinessOperational#local_label> 			"" . 
<http://www.assero.co.uk/MDRSdtmUD/ACME/V2#D-ACME_VSDomain_V22> 			<http://www.w3.org/1999/02/22-rdf-syntax-ns#type> 			<http://www.assero.co.uk/BusinessDomain#UserVariable> . 
<http://www.assero.co.uk/MDRSdtmUD/ACME/V2#D-ACME_VSDomain_V22> 			<http://www.w3.org/2000/01/rdf-schema#label> 			"Derived Flag" . 
<http://www.assero.co.uk/MDRSdtmUD/ACME/V2#D-ACME_VSDomain_V22> 			<http://www.assero.co.uk/BusinessDomain#basedOnVariable> 			<http://www.assero.co.uk/MDRSdtmUD/ACME/V2#D-ACME_VSDomain_V22_IGV1> . 
<http://www.assero.co.uk/MDRSdtmUD/ACME/V2#D-ACME_VSDomain_V22> 			<http://www.assero.co.uk/BusinessDomain#classifiedAs> 			<http://www.assero.co.uk/MDRSdtmM/CDISC/V3#M-CDISC_SDTMMODEL_C_QUALIFIER_SC_RECORDQUALIFIER> . 
<http://www.assero.co.uk/MDRSdtmUD/ACME/V2#D-ACME_VSDomain_V22> 			<http://www.assero.co.uk/BusinessDomain#typedAs> 			<http://www.assero.co.uk/MDRSdtmM/CDISC/V3#M-CDISC_SDTMMODEL_DT_CHAR> . 
<http://www.assero.co.uk/MDRSdtmUD/ACME/V2#D-ACME_VSDomain_V22> 			<http://www.assero.co.uk/BusinessDomain#compliance> 			<http://www.assero.co.uk/MDRSdtmIg/CDISC/V3#IG-CDISC_SDTMIG_C_PERMISSIBLE> . 
<http://www.assero.co.uk/MDRSdtmUD/ACME/V2#D-ACME_VSDomain_V22> 			<http://www.assero.co.uk/BusinessDomain#rule> 			"" . 
<http://www.assero.co.uk/MDRSdtmUD/ACME/V2#D-ACME_VSDomain_V22> 			<http://www.assero.co.uk/BusinessDomain#ordinal> 			"22" . 
<http://www.assero.co.uk/MDRSdtmUD/ACME/V2#D-ACME_VSDomain_V22> 			<http://www.assero.co.uk/BusinessDomain#name> 			"VSDRVFL" . 
<http://www.assero.co.uk/MDRSdtmUD/ACME/V2#D-ACME_VSDomain_V22> 			<http://www.assero.co.uk/BusinessDomain#notes> 			"" . 
<http://www.assero.co.uk/MDRSdtmUD/ACME/V2#D-ACME_VSDomain_V22> 			<http://www.assero.co.uk/BusinessDomain#format> 			"" . 
<http://www.assero.co.uk/MDRSdtmUD/ACME/V2#D-ACME_VSDomain_V22> 			<http://www.assero.co.uk/BusinessDomain#ct> 			"NY" . 
<http://www.assero.co.uk/MDRSdtmUD/ACME/V2#D-ACME_VSDomain_V22> 			<http://www.assero.co.uk/BusinessDomain#length> 			"0" . 
<http://www.assero.co.uk/MDRSdtmUD/ACME/V2#D-ACME_VSDomain_V22> 			<http://www.assero.co.uk/BusinessDomain#comment> 			"" . 
<http://www.assero.co.uk/MDRSdtmUD/ACME/V2#D-ACME_VSDomain_V22> 			<http://www.assero.co.uk/BusinessDomain#non_standard> 			"false" . 
<http://www.assero.co.uk/MDRSdtmUD/ACME/V2#D-ACME_VSDomain_V22> 			<http://www.assero.co.uk/BusinessDomain#used> 			"true" . 
<http://www.assero.co.uk/MDRSdtmUD/ACME/V2#D-ACME_VSDomain_V22> 			<http://www.assero.co.uk/BusinessDomain#key_ordinal> 			"0" . 
<http://www.assero.co.uk/MDRSdtmUD/ACME/V2#D-ACME_VSDomain_V22_IGV1> 			<http://www.w3.org/1999/02/22-rdf-syntax-ns#type> 			<http://www.assero.co.uk/BusinessOperational#CReference> . 
<http://www.assero.co.uk/MDRSdtmUD/ACME/V2#D-ACME_VSDomain_V22_IGV1> 			<http://www.w3.org/2000/01/rdf-schema#label> 			"Based on Variable Reference" . 
<http://www.assero.co.uk/MDRSdtmUD/ACME/V2#D-ACME_VSDomain_V22_IGV1> 			<http://www.assero.co.uk/BusinessOperational#hasColumn> 			<http://www.assero.co.uk/MDRSdtmIgD/CDISC/V3#IG-CDISC_SDTMIGVS_VSDRVFL> . 
<http://www.assero.co.uk/MDRSdtmUD/ACME/V2#D-ACME_VSDomain_V22_IGV1> 			<http://www.assero.co.uk/BusinessOperational#ordinal> 			"1" . 
<http://www.assero.co.uk/MDRSdtmUD/ACME/V2#D-ACME_VSDomain_V22_IGV1> 			<http://www.assero.co.uk/BusinessOperational#enabled> 			"true" . 
<http://www.assero.co.uk/MDRSdtmUD/ACME/V2#D-ACME_VSDomain_V22_IGV1> 			<http://www.assero.co.uk/BusinessOperational#optional> 			"false" . 
<http://www.assero.co.uk/MDRSdtmUD/ACME/V2#D-ACME_VSDomain_V22_IGV1> 			<http://www.assero.co.uk/BusinessOperational#local_label> 			"" . 
<http://www.assero.co.uk/MDRSdtmUD/ACME/V2#D-ACME_VSDomain_V23> 			<http://www.w3.org/1999/02/22-rdf-syntax-ns#type> 			<http://www.assero.co.uk/BusinessDomain#UserVariable> . 
<http://www.assero.co.uk/MDRSdtmUD/ACME/V2#D-ACME_VSDomain_V23> 			<http://www.w3.org/2000/01/rdf-schema#label> 			"Visit Number" . 
<http://www.assero.co.uk/MDRSdtmUD/ACME/V2#D-ACME_VSDomain_V23> 			<http://www.assero.co.uk/BusinessDomain#basedOnVariable> 			<http://www.assero.co.uk/MDRSdtmUD/ACME/V2#D-ACME_VSDomain_V23_IGV1> . 
<http://www.assero.co.uk/MDRSdtmUD/ACME/V2#D-ACME_VSDomain_V23> 			<http://www.assero.co.uk/BusinessDomain#classifiedAs> 			<http://www.assero.co.uk/MDRSdtmM/CDISC/V3#M-CDISC_SDTMMODEL_C_TIMING> . 
<http://www.assero.co.uk/MDRSdtmUD/ACME/V2#D-ACME_VSDomain_V23> 			<http://www.assero.co.uk/BusinessDomain#typedAs> 			<http://www.assero.co.uk/MDRSdtmM/CDISC/V3#M-CDISC_SDTMMODEL_DT_NUM> . 
<http://www.assero.co.uk/MDRSdtmUD/ACME/V2#D-ACME_VSDomain_V23> 			<http://www.assero.co.uk/BusinessDomain#compliance> 			<http://www.assero.co.uk/MDRSdtmIg/CDISC/V3#IG-CDISC_SDTMIG_C_EXPECTED> . 
<http://www.assero.co.uk/MDRSdtmUD/ACME/V2#D-ACME_VSDomain_V23> 			<http://www.assero.co.uk/BusinessDomain#rule> 			"" . 
<http://www.assero.co.uk/MDRSdtmUD/ACME/V2#D-ACME_VSDomain_V23> 			<http://www.assero.co.uk/BusinessDomain#ordinal> 			"23" . 
<http://www.assero.co.uk/MDRSdtmUD/ACME/V2#D-ACME_VSDomain_V23> 			<http://www.assero.co.uk/BusinessDomain#name> 			"VISITNUM" . 
<http://www.assero.co.uk/MDRSdtmUD/ACME/V2#D-ACME_VSDomain_V23> 			<http://www.assero.co.uk/BusinessDomain#notes> 			"" . 
<http://www.assero.co.uk/MDRSdtmUD/ACME/V2#D-ACME_VSDomain_V23> 			<http://www.assero.co.uk/BusinessDomain#format> 			"" . 
<http://www.assero.co.uk/MDRSdtmUD/ACME/V2#D-ACME_VSDomain_V23> 			<http://www.assero.co.uk/BusinessDomain#ct> 			"" . 
<http://www.assero.co.uk/MDRSdtmUD/ACME/V2#D-ACME_VSDomain_V23> 			<http://www.assero.co.uk/BusinessDomain#length> 			"0" . 
<http://www.assero.co.uk/MDRSdtmUD/ACME/V2#D-ACME_VSDomain_V23> 			<http://www.assero.co.uk/BusinessDomain#comment> 			"" . 
<http://www.assero.co.uk/MDRSdtmUD/ACME/V2#D-ACME_VSDomain_V23> 			<http://www.assero.co.uk/BusinessDomain#non_standard> 			"false" . 
<http://www.assero.co.uk/MDRSdtmUD/ACME/V2#D-ACME_VSDomain_V23> 			<http://www.assero.co.uk/BusinessDomain#used> 			"true" . 
<http://www.assero.co.uk/MDRSdtmUD/ACME/V2#D-ACME_VSDomain_V23> 			<http://www.assero.co.uk/BusinessDomain#key_ordinal> 			"0" . 
<http://www.assero.co.uk/MDRSdtmUD/ACME/V2#D-ACME_VSDomain_V23_IGV1> 			<http://www.w3.org/1999/02/22-rdf-syntax-ns#type> 			<http://www.assero.co.uk/BusinessOperational#CReference> . 
<http://www.assero.co.uk/MDRSdtmUD/ACME/V2#D-ACME_VSDomain_V23_IGV1> 			<http://www.w3.org/2000/01/rdf-schema#label> 			"Based on Variable Reference" . 
<http://www.assero.co.uk/MDRSdtmUD/ACME/V2#D-ACME_VSDomain_V23_IGV1> 			<http://www.assero.co.uk/BusinessOperational#hasColumn> 			<http://www.assero.co.uk/MDRSdtmIgD/CDISC/V3#IG-CDISC_SDTMIGVS_VISITNUM> . 
<http://www.assero.co.uk/MDRSdtmUD/ACME/V2#D-ACME_VSDomain_V23_IGV1> 			<http://www.assero.co.uk/BusinessOperational#ordinal> 			"1" . 
<http://www.assero.co.uk/MDRSdtmUD/ACME/V2#D-ACME_VSDomain_V23_IGV1> 			<http://www.assero.co.uk/BusinessOperational#enabled> 			"true" . 
<http://www.assero.co.uk/MDRSdtmUD/ACME/V2#D-ACME_VSDomain_V23_IGV1> 			<http://www.assero.co.uk/BusinessOperational#optional> 			"false" . 
<http://www.assero.co.uk/MDRSdtmUD/ACME/V2#D-ACME_VSDomain_V23_IGV1> 			<http://www.assero.co.uk/BusinessOperational#local_label> 			"" . 
<http://www.assero.co.uk/MDRSdtmUD/ACME/V2#D-ACME_VSDomain_V24> 			<http://www.w3.org/1999/02/22-rdf-syntax-ns#type> 			<http://www.assero.co.uk/BusinessDomain#UserVariable> . 
<http://www.assero.co.uk/MDRSdtmUD/ACME/V2#D-ACME_VSDomain_V24> 			<http://www.w3.org/2000/01/rdf-schema#label> 			"Visit Name" . 
<http://www.assero.co.uk/MDRSdtmUD/ACME/V2#D-ACME_VSDomain_V24> 			<http://www.assero.co.uk/BusinessDomain#basedOnVariable> 			<http://www.assero.co.uk/MDRSdtmUD/ACME/V2#D-ACME_VSDomain_V24_IGV1> . 
<http://www.assero.co.uk/MDRSdtmUD/ACME/V2#D-ACME_VSDomain_V24> 			<http://www.assero.co.uk/BusinessDomain#classifiedAs> 			<http://www.assero.co.uk/MDRSdtmM/CDISC/V3#M-CDISC_SDTMMODEL_C_TIMING> . 
<http://www.assero.co.uk/MDRSdtmUD/ACME/V2#D-ACME_VSDomain_V24> 			<http://www.assero.co.uk/BusinessDomain#typedAs> 			<http://www.assero.co.uk/MDRSdtmM/CDISC/V3#M-CDISC_SDTMMODEL_DT_CHAR> . 
<http://www.assero.co.uk/MDRSdtmUD/ACME/V2#D-ACME_VSDomain_V24> 			<http://www.assero.co.uk/BusinessDomain#compliance> 			<http://www.assero.co.uk/MDRSdtmIg/CDISC/V3#IG-CDISC_SDTMIG_C_PERMISSIBLE> . 
<http://www.assero.co.uk/MDRSdtmUD/ACME/V2#D-ACME_VSDomain_V24> 			<http://www.assero.co.uk/BusinessDomain#rule> 			"" . 
<http://www.assero.co.uk/MDRSdtmUD/ACME/V2#D-ACME_VSDomain_V24> 			<http://www.assero.co.uk/BusinessDomain#ordinal> 			"24" . 
<http://www.assero.co.uk/MDRSdtmUD/ACME/V2#D-ACME_VSDomain_V24> 			<http://www.assero.co.uk/BusinessDomain#name> 			"VISIT" . 
<http://www.assero.co.uk/MDRSdtmUD/ACME/V2#D-ACME_VSDomain_V24> 			<http://www.assero.co.uk/BusinessDomain#notes> 			"" . 
<http://www.assero.co.uk/MDRSdtmUD/ACME/V2#D-ACME_VSDomain_V24> 			<http://www.assero.co.uk/BusinessDomain#format> 			"" . 
<http://www.assero.co.uk/MDRSdtmUD/ACME/V2#D-ACME_VSDomain_V24> 			<http://www.assero.co.uk/BusinessDomain#ct> 			"" . 
<http://www.assero.co.uk/MDRSdtmUD/ACME/V2#D-ACME_VSDomain_V24> 			<http://www.assero.co.uk/BusinessDomain#length> 			"0" . 
<http://www.assero.co.uk/MDRSdtmUD/ACME/V2#D-ACME_VSDomain_V24> 			<http://www.assero.co.uk/BusinessDomain#comment> 			"" . 
<http://www.assero.co.uk/MDRSdtmUD/ACME/V2#D-ACME_VSDomain_V24> 			<http://www.assero.co.uk/BusinessDomain#non_standard> 			"false" . 
<http://www.assero.co.uk/MDRSdtmUD/ACME/V2#D-ACME_VSDomain_V24> 			<http://www.assero.co.uk/BusinessDomain#used> 			"true" . 
<http://www.assero.co.uk/MDRSdtmUD/ACME/V2#D-ACME_VSDomain_V24> 			<http://www.assero.co.uk/BusinessDomain#key_ordinal> 			"0" . 
<http://www.assero.co.uk/MDRSdtmUD/ACME/V2#D-ACME_VSDomain_V24_IGV1> 			<http://www.w3.org/1999/02/22-rdf-syntax-ns#type> 			<http://www.assero.co.uk/BusinessOperational#CReference> . 
<http://www.assero.co.uk/MDRSdtmUD/ACME/V2#D-ACME_VSDomain_V24_IGV1> 			<http://www.w3.org/2000/01/rdf-schema#label> 			"Based on Variable Reference" . 
<http://www.assero.co.uk/MDRSdtmUD/ACME/V2#D-ACME_VSDomain_V24_IGV1> 			<http://www.assero.co.uk/BusinessOperational#hasColumn> 			<http://www.assero.co.uk/MDRSdtmIgD/CDISC/V3#IG-CDISC_SDTMIGVS_VISIT> . 
<http://www.assero.co.uk/MDRSdtmUD/ACME/V2#D-ACME_VSDomain_V24_IGV1> 			<http://www.assero.co.uk/BusinessOperational#ordinal> 			"1" . 
<http://www.assero.co.uk/MDRSdtmUD/ACME/V2#D-ACME_VSDomain_V24_IGV1> 			<http://www.assero.co.uk/BusinessOperational#enabled> 			"true" . 
<http://www.assero.co.uk/MDRSdtmUD/ACME/V2#D-ACME_VSDomain_V24_IGV1> 			<http://www.assero.co.uk/BusinessOperational#optional> 			"false" . 
<http://www.assero.co.uk/MDRSdtmUD/ACME/V2#D-ACME_VSDomain_V24_IGV1> 			<http://www.assero.co.uk/BusinessOperational#local_label> 			"" . 
<http://www.assero.co.uk/MDRSdtmUD/ACME/V2#D-ACME_VSDomain_V25> 			<http://www.w3.org/1999/02/22-rdf-syntax-ns#type> 			<http://www.assero.co.uk/BusinessDomain#UserVariable> . 
<http://www.assero.co.uk/MDRSdtmUD/ACME/V2#D-ACME_VSDomain_V25> 			<http://www.w3.org/2000/01/rdf-schema#label> 			"Planned Study Day of Visit" . 
<http://www.assero.co.uk/MDRSdtmUD/ACME/V2#D-ACME_VSDomain_V25> 			<http://www.assero.co.uk/BusinessDomain#basedOnVariable> 			<http://www.assero.co.uk/MDRSdtmUD/ACME/V2#D-ACME_VSDomain_V25_IGV1> . 
<http://www.assero.co.uk/MDRSdtmUD/ACME/V2#D-ACME_VSDomain_V25> 			<http://www.assero.co.uk/BusinessDomain#classifiedAs> 			<http://www.assero.co.uk/MDRSdtmM/CDISC/V3#M-CDISC_SDTMMODEL_C_TIMING> . 
<http://www.assero.co.uk/MDRSdtmUD/ACME/V2#D-ACME_VSDomain_V25> 			<http://www.assero.co.uk/BusinessDomain#typedAs> 			<http://www.assero.co.uk/MDRSdtmM/CDISC/V3#M-CDISC_SDTMMODEL_DT_NUM> . 
<http://www.assero.co.uk/MDRSdtmUD/ACME/V2#D-ACME_VSDomain_V25> 			<http://www.assero.co.uk/BusinessDomain#compliance> 			<http://www.assero.co.uk/MDRSdtmIg/CDISC/V3#IG-CDISC_SDTMIG_C_PERMISSIBLE> . 
<http://www.assero.co.uk/MDRSdtmUD/ACME/V2#D-ACME_VSDomain_V25> 			<http://www.assero.co.uk/BusinessDomain#rule> 			"" . 
<http://www.assero.co.uk/MDRSdtmUD/ACME/V2#D-ACME_VSDomain_V25> 			<http://www.assero.co.uk/BusinessDomain#ordinal> 			"25" . 
<http://www.assero.co.uk/MDRSdtmUD/ACME/V2#D-ACME_VSDomain_V25> 			<http://www.assero.co.uk/BusinessDomain#name> 			"VISITDY" . 
<http://www.assero.co.uk/MDRSdtmUD/ACME/V2#D-ACME_VSDomain_V25> 			<http://www.assero.co.uk/BusinessDomain#notes> 			"" . 
<http://www.assero.co.uk/MDRSdtmUD/ACME/V2#D-ACME_VSDomain_V25> 			<http://www.assero.co.uk/BusinessDomain#format> 			"" . 
<http://www.assero.co.uk/MDRSdtmUD/ACME/V2#D-ACME_VSDomain_V25> 			<http://www.assero.co.uk/BusinessDomain#ct> 			"" . 
<http://www.assero.co.uk/MDRSdtmUD/ACME/V2#D-ACME_VSDomain_V25> 			<http://www.assero.co.uk/BusinessDomain#length> 			"0" . 
<http://www.assero.co.uk/MDRSdtmUD/ACME/V2#D-ACME_VSDomain_V25> 			<http://www.assero.co.uk/BusinessDomain#comment> 			"" . 
<http://www.assero.co.uk/MDRSdtmUD/ACME/V2#D-ACME_VSDomain_V25> 			<http://www.assero.co.uk/BusinessDomain#non_standard> 			"false" . 
<http://www.assero.co.uk/MDRSdtmUD/ACME/V2#D-ACME_VSDomain_V25> 			<http://www.assero.co.uk/BusinessDomain#used> 			"true" . 
<http://www.assero.co.uk/MDRSdtmUD/ACME/V2#D-ACME_VSDomain_V25> 			<http://www.assero.co.uk/BusinessDomain#key_ordinal> 			"0" . 
<http://www.assero.co.uk/MDRSdtmUD/ACME/V2#D-ACME_VSDomain_V25_IGV1> 			<http://www.w3.org/1999/02/22-rdf-syntax-ns#type> 			<http://www.assero.co.uk/BusinessOperational#CReference> . 
<http://www.assero.co.uk/MDRSdtmUD/ACME/V2#D-ACME_VSDomain_V25_IGV1> 			<http://www.w3.org/2000/01/rdf-schema#label> 			"Based on Variable Reference" . 
<http://www.assero.co.uk/MDRSdtmUD/ACME/V2#D-ACME_VSDomain_V25_IGV1> 			<http://www.assero.co.uk/BusinessOperational#hasColumn> 			<http://www.assero.co.uk/MDRSdtmIgD/CDISC/V3#IG-CDISC_SDTMIGVS_VISITDY> . 
<http://www.assero.co.uk/MDRSdtmUD/ACME/V2#D-ACME_VSDomain_V25_IGV1> 			<http://www.assero.co.uk/BusinessOperational#ordinal> 			"1" . 
<http://www.assero.co.uk/MDRSdtmUD/ACME/V2#D-ACME_VSDomain_V25_IGV1> 			<http://www.assero.co.uk/BusinessOperational#enabled> 			"true" . 
<http://www.assero.co.uk/MDRSdtmUD/ACME/V2#D-ACME_VSDomain_V25_IGV1> 			<http://www.assero.co.uk/BusinessOperational#optional> 			"false" . 
<http://www.assero.co.uk/MDRSdtmUD/ACME/V2#D-ACME_VSDomain_V25_IGV1> 			<http://www.assero.co.uk/BusinessOperational#local_label> 			"" . 
<http://www.assero.co.uk/MDRSdtmUD/ACME/V2#D-ACME_VSDomain_V26> 			<http://www.w3.org/1999/02/22-rdf-syntax-ns#type> 			<http://www.assero.co.uk/BusinessDomain#UserVariable> . 
<http://www.assero.co.uk/MDRSdtmUD/ACME/V2#D-ACME_VSDomain_V26> 			<http://www.w3.org/2000/01/rdf-schema#label> 			"Date/Time of Measurements" . 
<http://www.assero.co.uk/MDRSdtmUD/ACME/V2#D-ACME_VSDomain_V26> 			<http://www.assero.co.uk/BusinessDomain#basedOnVariable> 			<http://www.assero.co.uk/MDRSdtmUD/ACME/V2#D-ACME_VSDomain_V26_IGV1> . 
<http://www.assero.co.uk/MDRSdtmUD/ACME/V2#D-ACME_VSDomain_V26> 			<http://www.assero.co.uk/BusinessDomain#classifiedAs> 			<http://www.assero.co.uk/MDRSdtmM/CDISC/V3#M-CDISC_SDTMMODEL_C_TIMING> . 
<http://www.assero.co.uk/MDRSdtmUD/ACME/V2#D-ACME_VSDomain_V26> 			<http://www.assero.co.uk/BusinessDomain#typedAs> 			<http://www.assero.co.uk/MDRSdtmM/CDISC/V3#M-CDISC_SDTMMODEL_DT_CHAR> . 
<http://www.assero.co.uk/MDRSdtmUD/ACME/V2#D-ACME_VSDomain_V26> 			<http://www.assero.co.uk/BusinessDomain#compliance> 			<http://www.assero.co.uk/MDRSdtmIg/CDISC/V3#IG-CDISC_SDTMIG_C_EXPECTED> . 
<http://www.assero.co.uk/MDRSdtmUD/ACME/V2#D-ACME_VSDomain_V26> 			<http://www.assero.co.uk/BusinessDomain#hasProperty> 			<http://www.assero.co.uk/MDRSdtmUD/ACME/V2#D-ACME_VSDomain_V26_PR3> . 
<http://www.assero.co.uk/MDRSdtmUD/ACME/V2#D-ACME_VSDomain_V26> 			<http://www.assero.co.uk/BusinessDomain#hasProperty> 			<http://www.assero.co.uk/MDRSdtmUD/ACME/V2#D-ACME_VSDomain_V26_PR4> . 
<http://www.assero.co.uk/MDRSdtmUD/ACME/V2#D-ACME_VSDomain_V26> 			<http://www.assero.co.uk/BusinessDomain#hasProperty> 			<http://www.assero.co.uk/MDRSdtmUD/ACME/V2#D-ACME_VSDomain_V26_PR5> . 
<http://www.assero.co.uk/MDRSdtmUD/ACME/V2#D-ACME_VSDomain_V26> 			<http://www.assero.co.uk/BusinessDomain#hasProperty> 			<http://www.assero.co.uk/MDRSdtmUD/ACME/V2#D-ACME_VSDomain_V26_PR7> . 
<http://www.assero.co.uk/MDRSdtmUD/ACME/V2#D-ACME_VSDomain_V26> 			<http://www.assero.co.uk/BusinessDomain#hasProperty> 			<http://www.assero.co.uk/MDRSdtmUD/ACME/V2#D-ACME_VSDomain_V26_PR8> . 
<http://www.assero.co.uk/MDRSdtmUD/ACME/V2#D-ACME_VSDomain_V26> 			<http://www.assero.co.uk/BusinessDomain#hasProperty> 			<http://www.assero.co.uk/MDRSdtmUD/ACME/V2#D-ACME_VSDomain_V26_PR9> . 
<http://www.assero.co.uk/MDRSdtmUD/ACME/V2#D-ACME_VSDomain_V26> 			<http://www.assero.co.uk/BusinessDomain#hasProperty> 			<http://www.assero.co.uk/MDRSdtmUD/ACME/V2#D-ACME_VSDomain_V26_PR10> . 
<http://www.assero.co.uk/MDRSdtmUD/ACME/V2#D-ACME_VSDomain_V26> 			<http://www.assero.co.uk/BusinessDomain#rule> 			"" . 
<http://www.assero.co.uk/MDRSdtmUD/ACME/V2#D-ACME_VSDomain_V26> 			<http://www.assero.co.uk/BusinessDomain#ordinal> 			"26" . 
<http://www.assero.co.uk/MDRSdtmUD/ACME/V2#D-ACME_VSDomain_V26> 			<http://www.assero.co.uk/BusinessDomain#name> 			"VSDTC" . 
<http://www.assero.co.uk/MDRSdtmUD/ACME/V2#D-ACME_VSDomain_V26> 			<http://www.assero.co.uk/BusinessDomain#notes> 			"" . 
<http://www.assero.co.uk/MDRSdtmUD/ACME/V2#D-ACME_VSDomain_V26> 			<http://www.assero.co.uk/BusinessDomain#format> 			"ISO 8601" . 
<http://www.assero.co.uk/MDRSdtmUD/ACME/V2#D-ACME_VSDomain_V26> 			<http://www.assero.co.uk/BusinessDomain#ct> 			"" . 
<http://www.assero.co.uk/MDRSdtmUD/ACME/V2#D-ACME_VSDomain_V26> 			<http://www.assero.co.uk/BusinessDomain#length> 			"0" . 
<http://www.assero.co.uk/MDRSdtmUD/ACME/V2#D-ACME_VSDomain_V26> 			<http://www.assero.co.uk/BusinessDomain#comment> 			"" . 
<http://www.assero.co.uk/MDRSdtmUD/ACME/V2#D-ACME_VSDomain_V26> 			<http://www.assero.co.uk/BusinessDomain#non_standard> 			"false" . 
<http://www.assero.co.uk/MDRSdtmUD/ACME/V2#D-ACME_VSDomain_V26> 			<http://www.assero.co.uk/BusinessDomain#used> 			"true" . 
<http://www.assero.co.uk/MDRSdtmUD/ACME/V2#D-ACME_VSDomain_V26> 			<http://www.assero.co.uk/BusinessDomain#key_ordinal> 			"0" . 
<http://www.assero.co.uk/MDRSdtmUD/ACME/V2#D-ACME_VSDomain_V26_IGV1> 			<http://www.w3.org/1999/02/22-rdf-syntax-ns#type> 			<http://www.assero.co.uk/BusinessOperational#CReference> . 
<http://www.assero.co.uk/MDRSdtmUD/ACME/V2#D-ACME_VSDomain_V26_IGV1> 			<http://www.w3.org/2000/01/rdf-schema#label> 			"Based on Variable Reference" . 
<http://www.assero.co.uk/MDRSdtmUD/ACME/V2#D-ACME_VSDomain_V26_IGV1> 			<http://www.assero.co.uk/BusinessOperational#hasColumn> 			<http://www.assero.co.uk/MDRSdtmIgD/CDISC/V3#IG-CDISC_SDTMIGVS_VSDTC> . 
<http://www.assero.co.uk/MDRSdtmUD/ACME/V2#D-ACME_VSDomain_V26_IGV1> 			<http://www.assero.co.uk/BusinessOperational#ordinal> 			"1" . 
<http://www.assero.co.uk/MDRSdtmUD/ACME/V2#D-ACME_VSDomain_V26_IGV1> 			<http://www.assero.co.uk/BusinessOperational#enabled> 			"true" . 
<http://www.assero.co.uk/MDRSdtmUD/ACME/V2#D-ACME_VSDomain_V26_IGV1> 			<http://www.assero.co.uk/BusinessOperational#optional> 			"false" . 
<http://www.assero.co.uk/MDRSdtmUD/ACME/V2#D-ACME_VSDomain_V26_IGV1> 			<http://www.assero.co.uk/BusinessOperational#local_label> 			"" . 
<http://www.assero.co.uk/MDRSdtmUD/ACME/V2#D-ACME_VSDomain_V26_PR3> 			<http://www.w3.org/1999/02/22-rdf-syntax-ns#type> 			<http://www.assero.co.uk/BusinessOperational#PReference> . 
<http://www.assero.co.uk/MDRSdtmUD/ACME/V2#D-ACME_VSDomain_V26_PR3> 			<http://www.w3.org/2000/01/rdf-schema#label> 			"BC Property Reference" . 
<http://www.assero.co.uk/MDRSdtmUD/ACME/V2#D-ACME_VSDomain_V26_PR3> 			<http://www.assero.co.uk/BusinessOperational#hasProperty> 			<http://www.assero.co.uk/MDRBCs/V1#BC-ACME_BC_C25347_PerformedObservation_dateRange_IVL_TS_DATETIME_low_TS_DATETIME_value> . 
<http://www.assero.co.uk/MDRSdtmUD/ACME/V2#D-ACME_VSDomain_V26_PR3> 			<http://www.assero.co.uk/BusinessOperational#ordinal> 			"3" . 
<http://www.assero.co.uk/MDRSdtmUD/ACME/V2#D-ACME_VSDomain_V26_PR3> 			<http://www.assero.co.uk/BusinessOperational#enabled> 			"true" . 
<http://www.assero.co.uk/MDRSdtmUD/ACME/V2#D-ACME_VSDomain_V26_PR3> 			<http://www.assero.co.uk/BusinessOperational#optional> 			"false" . 
<http://www.assero.co.uk/MDRSdtmUD/ACME/V2#D-ACME_VSDomain_V26_PR3> 			<http://www.assero.co.uk/BusinessOperational#local_label> 			"" . 
<http://www.assero.co.uk/MDRSdtmUD/ACME/V2#D-ACME_VSDomain_V26_PR4> 			<http://www.w3.org/1999/02/22-rdf-syntax-ns#type> 			<http://www.assero.co.uk/BusinessOperational#PReference> . 
<http://www.assero.co.uk/MDRSdtmUD/ACME/V2#D-ACME_VSDomain_V26_PR4> 			<http://www.w3.org/2000/01/rdf-schema#label> 			"BC Property Reference" . 
<http://www.assero.co.uk/MDRSdtmUD/ACME/V2#D-ACME_VSDomain_V26_PR4> 			<http://www.assero.co.uk/BusinessOperational#hasProperty> 			<http://www.assero.co.uk/MDRBCs/V1#BC-ACME_BC_C49677_PerformedObservation_dateRange_IVL_TS_DATETIME_low_TS_DATETIME_value> . 
<http://www.assero.co.uk/MDRSdtmUD/ACME/V2#D-ACME_VSDomain_V26_PR4> 			<http://www.assero.co.uk/BusinessOperational#ordinal> 			"4" . 
<http://www.assero.co.uk/MDRSdtmUD/ACME/V2#D-ACME_VSDomain_V26_PR4> 			<http://www.assero.co.uk/BusinessOperational#enabled> 			"true" . 
<http://www.assero.co.uk/MDRSdtmUD/ACME/V2#D-ACME_VSDomain_V26_PR4> 			<http://www.assero.co.uk/BusinessOperational#optional> 			"false" . 
<http://www.assero.co.uk/MDRSdtmUD/ACME/V2#D-ACME_VSDomain_V26_PR4> 			<http://www.assero.co.uk/BusinessOperational#local_label> 			"" . 
<http://www.assero.co.uk/MDRSdtmUD/ACME/V2#D-ACME_VSDomain_V26_PR5> 			<http://www.w3.org/1999/02/22-rdf-syntax-ns#type> 			<http://www.assero.co.uk/BusinessOperational#PReference> . 
<http://www.assero.co.uk/MDRSdtmUD/ACME/V2#D-ACME_VSDomain_V26_PR5> 			<http://www.w3.org/2000/01/rdf-schema#label> 			"BC Property Reference" . 
<http://www.assero.co.uk/MDRSdtmUD/ACME/V2#D-ACME_VSDomain_V26_PR5> 			<http://www.assero.co.uk/BusinessOperational#hasProperty> 			<http://www.assero.co.uk/MDRBCs/V1#BC-ACME_BC_C49678_PerformedObservation_dateRange_IVL_TS_DATETIME_low_TS_DATETIME_value> . 
<http://www.assero.co.uk/MDRSdtmUD/ACME/V2#D-ACME_VSDomain_V26_PR5> 			<http://www.assero.co.uk/BusinessOperational#ordinal> 			"5" . 
<http://www.assero.co.uk/MDRSdtmUD/ACME/V2#D-ACME_VSDomain_V26_PR5> 			<http://www.assero.co.uk/BusinessOperational#enabled> 			"true" . 
<http://www.assero.co.uk/MDRSdtmUD/ACME/V2#D-ACME_VSDomain_V26_PR5> 			<http://www.assero.co.uk/BusinessOperational#optional> 			"false" . 
<http://www.assero.co.uk/MDRSdtmUD/ACME/V2#D-ACME_VSDomain_V26_PR5> 			<http://www.assero.co.uk/BusinessOperational#local_label> 			"" . 
<http://www.assero.co.uk/MDRSdtmUD/ACME/V2#D-ACME_VSDomain_V26_PR7> 			<http://www.w3.org/1999/02/22-rdf-syntax-ns#type> 			<http://www.assero.co.uk/BusinessOperational#PReference> . 
<http://www.assero.co.uk/MDRSdtmUD/ACME/V2#D-ACME_VSDomain_V26_PR7> 			<http://www.w3.org/2000/01/rdf-schema#label> 			"BC Property Reference" . 
<http://www.assero.co.uk/MDRSdtmUD/ACME/V2#D-ACME_VSDomain_V26_PR7> 			<http://www.assero.co.uk/BusinessOperational#hasProperty> 			<http://www.assero.co.uk/MDRBCs/ACME/V4#BC-ACME_BCC25206_I4_DT1_P1_DT1_P1> . 
<http://www.assero.co.uk/MDRSdtmUD/ACME/V2#D-ACME_VSDomain_V26_PR7> 			<http://www.assero.co.uk/BusinessOperational#ordinal> 			"7" . 
<http://www.assero.co.uk/MDRSdtmUD/ACME/V2#D-ACME_VSDomain_V26_PR7> 			<http://www.assero.co.uk/BusinessOperational#enabled> 			"true" . 
<http://www.assero.co.uk/MDRSdtmUD/ACME/V2#D-ACME_VSDomain_V26_PR7> 			<http://www.assero.co.uk/BusinessOperational#optional> 			"false" . 
<http://www.assero.co.uk/MDRSdtmUD/ACME/V2#D-ACME_VSDomain_V26_PR7> 			<http://www.assero.co.uk/BusinessOperational#local_label> 			"" . 
<http://www.assero.co.uk/MDRSdtmUD/ACME/V2#D-ACME_VSDomain_V26_PR8> 			<http://www.w3.org/1999/02/22-rdf-syntax-ns#type> 			<http://www.assero.co.uk/BusinessOperational#PReference> . 
<http://www.assero.co.uk/MDRSdtmUD/ACME/V2#D-ACME_VSDomain_V26_PR8> 			<http://www.w3.org/2000/01/rdf-schema#label> 			"BC Property Reference" . 
<http://www.assero.co.uk/MDRSdtmUD/ACME/V2#D-ACME_VSDomain_V26_PR8> 			<http://www.assero.co.uk/BusinessOperational#hasProperty> 			<http://www.assero.co.uk/MDRBCs/ACME/V2#BC-ACME_BCC25208_I4_DT1_P1_DT1_P1> . 
<http://www.assero.co.uk/MDRSdtmUD/ACME/V2#D-ACME_VSDomain_V26_PR8> 			<http://www.assero.co.uk/BusinessOperational#ordinal> 			"8" . 
<http://www.assero.co.uk/MDRSdtmUD/ACME/V2#D-ACME_VSDomain_V26_PR8> 			<http://www.assero.co.uk/BusinessOperational#enabled> 			"true" . 
<http://www.assero.co.uk/MDRSdtmUD/ACME/V2#D-ACME_VSDomain_V26_PR8> 			<http://www.assero.co.uk/BusinessOperational#optional> 			"false" . 
<http://www.assero.co.uk/MDRSdtmUD/ACME/V2#D-ACME_VSDomain_V26_PR8> 			<http://www.assero.co.uk/BusinessOperational#local_label> 			"" . 
<http://www.assero.co.uk/MDRSdtmUD/ACME/V2#D-ACME_VSDomain_V26_PR9> 			<http://www.w3.org/1999/02/22-rdf-syntax-ns#type> 			<http://www.assero.co.uk/BusinessOperational#PReference> . 
<http://www.assero.co.uk/MDRSdtmUD/ACME/V2#D-ACME_VSDomain_V26_PR9> 			<http://www.w3.org/2000/01/rdf-schema#label> 			"BC Property Reference" . 
<http://www.assero.co.uk/MDRSdtmUD/ACME/V2#D-ACME_VSDomain_V26_PR9> 			<http://www.assero.co.uk/BusinessOperational#hasProperty> 			<http://www.assero.co.uk/MDRBCs/V1#BC-ACME_BC_C25298_PerformedObservation_dateRange_IVL_TS_DATETIME_low_TS_DATETIME_value> . 
<http://www.assero.co.uk/MDRSdtmUD/ACME/V2#D-ACME_VSDomain_V26_PR9> 			<http://www.assero.co.uk/BusinessOperational#ordinal> 			"9" . 
<http://www.assero.co.uk/MDRSdtmUD/ACME/V2#D-ACME_VSDomain_V26_PR9> 			<http://www.assero.co.uk/BusinessOperational#enabled> 			"true" . 
<http://www.assero.co.uk/MDRSdtmUD/ACME/V2#D-ACME_VSDomain_V26_PR9> 			<http://www.assero.co.uk/BusinessOperational#optional> 			"false" . 
<http://www.assero.co.uk/MDRSdtmUD/ACME/V2#D-ACME_VSDomain_V26_PR9> 			<http://www.assero.co.uk/BusinessOperational#local_label> 			"" . 
<http://www.assero.co.uk/MDRSdtmUD/ACME/V2#D-ACME_VSDomain_V26_PR10> 			<http://www.w3.org/1999/02/22-rdf-syntax-ns#type> 			<http://www.assero.co.uk/BusinessOperational#PReference> . 
<http://www.assero.co.uk/MDRSdtmUD/ACME/V2#D-ACME_VSDomain_V26_PR10> 			<http://www.w3.org/2000/01/rdf-schema#label> 			"BC Property Reference" . 
<http://www.assero.co.uk/MDRSdtmUD/ACME/V2#D-ACME_VSDomain_V26_PR10> 			<http://www.assero.co.uk/BusinessOperational#hasProperty> 			<http://www.assero.co.uk/MDRBCs/V1#BC-ACME_BC_C25299_PerformedObservation_dateRange_IVL_TS_DATETIME_low_TS_DATETIME_value> . 
<http://www.assero.co.uk/MDRSdtmUD/ACME/V2#D-ACME_VSDomain_V26_PR10> 			<http://www.assero.co.uk/BusinessOperational#ordinal> 			"10" . 
<http://www.assero.co.uk/MDRSdtmUD/ACME/V2#D-ACME_VSDomain_V26_PR10> 			<http://www.assero.co.uk/BusinessOperational#enabled> 			"true" . 
<http://www.assero.co.uk/MDRSdtmUD/ACME/V2#D-ACME_VSDomain_V26_PR10> 			<http://www.assero.co.uk/BusinessOperational#optional> 			"false" . 
<http://www.assero.co.uk/MDRSdtmUD/ACME/V2#D-ACME_VSDomain_V26_PR10> 			<http://www.assero.co.uk/BusinessOperational#local_label> 			"" . 
<http://www.assero.co.uk/MDRSdtmUD/ACME/V2#D-ACME_VSDomain_V27> 			<http://www.w3.org/1999/02/22-rdf-syntax-ns#type> 			<http://www.assero.co.uk/BusinessDomain#UserVariable> . 
<http://www.assero.co.uk/MDRSdtmUD/ACME/V2#D-ACME_VSDomain_V27> 			<http://www.w3.org/2000/01/rdf-schema#label> 			"Study Day of Vital Signs" . 
<http://www.assero.co.uk/MDRSdtmUD/ACME/V2#D-ACME_VSDomain_V27> 			<http://www.assero.co.uk/BusinessDomain#basedOnVariable> 			<http://www.assero.co.uk/MDRSdtmUD/ACME/V2#D-ACME_VSDomain_V27_IGV1> . 
<http://www.assero.co.uk/MDRSdtmUD/ACME/V2#D-ACME_VSDomain_V27> 			<http://www.assero.co.uk/BusinessDomain#classifiedAs> 			<http://www.assero.co.uk/MDRSdtmM/CDISC/V3#M-CDISC_SDTMMODEL_C_TIMING> . 
<http://www.assero.co.uk/MDRSdtmUD/ACME/V2#D-ACME_VSDomain_V27> 			<http://www.assero.co.uk/BusinessDomain#typedAs> 			<http://www.assero.co.uk/MDRSdtmM/CDISC/V3#M-CDISC_SDTMMODEL_DT_NUM> . 
<http://www.assero.co.uk/MDRSdtmUD/ACME/V2#D-ACME_VSDomain_V27> 			<http://www.assero.co.uk/BusinessDomain#compliance> 			<http://www.assero.co.uk/MDRSdtmIg/CDISC/V3#IG-CDISC_SDTMIG_C_PERMISSIBLE> . 
<http://www.assero.co.uk/MDRSdtmUD/ACME/V2#D-ACME_VSDomain_V27> 			<http://www.assero.co.uk/BusinessDomain#rule> 			"" . 
<http://www.assero.co.uk/MDRSdtmUD/ACME/V2#D-ACME_VSDomain_V27> 			<http://www.assero.co.uk/BusinessDomain#ordinal> 			"27" . 
<http://www.assero.co.uk/MDRSdtmUD/ACME/V2#D-ACME_VSDomain_V27> 			<http://www.assero.co.uk/BusinessDomain#name> 			"VSDY" . 
<http://www.assero.co.uk/MDRSdtmUD/ACME/V2#D-ACME_VSDomain_V27> 			<http://www.assero.co.uk/BusinessDomain#notes> 			"" . 
<http://www.assero.co.uk/MDRSdtmUD/ACME/V2#D-ACME_VSDomain_V27> 			<http://www.assero.co.uk/BusinessDomain#format> 			"" . 
<http://www.assero.co.uk/MDRSdtmUD/ACME/V2#D-ACME_VSDomain_V27> 			<http://www.assero.co.uk/BusinessDomain#ct> 			"" . 
<http://www.assero.co.uk/MDRSdtmUD/ACME/V2#D-ACME_VSDomain_V27> 			<http://www.assero.co.uk/BusinessDomain#length> 			"0" . 
<http://www.assero.co.uk/MDRSdtmUD/ACME/V2#D-ACME_VSDomain_V27> 			<http://www.assero.co.uk/BusinessDomain#comment> 			"" . 
<http://www.assero.co.uk/MDRSdtmUD/ACME/V2#D-ACME_VSDomain_V27> 			<http://www.assero.co.uk/BusinessDomain#non_standard> 			"false" . 
<http://www.assero.co.uk/MDRSdtmUD/ACME/V2#D-ACME_VSDomain_V27> 			<http://www.assero.co.uk/BusinessDomain#used> 			"true" . 
<http://www.assero.co.uk/MDRSdtmUD/ACME/V2#D-ACME_VSDomain_V27> 			<http://www.assero.co.uk/BusinessDomain#key_ordinal> 			"0" . 
<http://www.assero.co.uk/MDRSdtmUD/ACME/V2#D-ACME_VSDomain_V27_IGV1> 			<http://www.w3.org/1999/02/22-rdf-syntax-ns#type> 			<http://www.assero.co.uk/BusinessOperational#CReference> . 
<http://www.assero.co.uk/MDRSdtmUD/ACME/V2#D-ACME_VSDomain_V27_IGV1> 			<http://www.w3.org/2000/01/rdf-schema#label> 			"Based on Variable Reference" . 
<http://www.assero.co.uk/MDRSdtmUD/ACME/V2#D-ACME_VSDomain_V27_IGV1> 			<http://www.assero.co.uk/BusinessOperational#hasColumn> 			<http://www.assero.co.uk/MDRSdtmIgD/CDISC/V3#IG-CDISC_SDTMIGVS_VSDY> . 
<http://www.assero.co.uk/MDRSdtmUD/ACME/V2#D-ACME_VSDomain_V27_IGV1> 			<http://www.assero.co.uk/BusinessOperational#ordinal> 			"1" . 
<http://www.assero.co.uk/MDRSdtmUD/ACME/V2#D-ACME_VSDomain_V27_IGV1> 			<http://www.assero.co.uk/BusinessOperational#enabled> 			"true" . 
<http://www.assero.co.uk/MDRSdtmUD/ACME/V2#D-ACME_VSDomain_V27_IGV1> 			<http://www.assero.co.uk/BusinessOperational#optional> 			"false" . 
<http://www.assero.co.uk/MDRSdtmUD/ACME/V2#D-ACME_VSDomain_V27_IGV1> 			<http://www.assero.co.uk/BusinessOperational#local_label> 			"" . 
<http://www.assero.co.uk/MDRSdtmUD/ACME/V2#D-ACME_VSDomain_V28> 			<http://www.w3.org/1999/02/22-rdf-syntax-ns#type> 			<http://www.assero.co.uk/BusinessDomain#UserVariable> . 
<http://www.assero.co.uk/MDRSdtmUD/ACME/V2#D-ACME_VSDomain_V28> 			<http://www.w3.org/2000/01/rdf-schema#label> 			"Planned Time Point Name" . 
<http://www.assero.co.uk/MDRSdtmUD/ACME/V2#D-ACME_VSDomain_V28> 			<http://www.assero.co.uk/BusinessDomain#basedOnVariable> 			<http://www.assero.co.uk/MDRSdtmUD/ACME/V2#D-ACME_VSDomain_V28_IGV1> . 
<http://www.assero.co.uk/MDRSdtmUD/ACME/V2#D-ACME_VSDomain_V28> 			<http://www.assero.co.uk/BusinessDomain#classifiedAs> 			<http://www.assero.co.uk/MDRSdtmM/CDISC/V3#M-CDISC_SDTMMODEL_C_TIMING> . 
<http://www.assero.co.uk/MDRSdtmUD/ACME/V2#D-ACME_VSDomain_V28> 			<http://www.assero.co.uk/BusinessDomain#typedAs> 			<http://www.assero.co.uk/MDRSdtmM/CDISC/V3#M-CDISC_SDTMMODEL_DT_CHAR> . 
<http://www.assero.co.uk/MDRSdtmUD/ACME/V2#D-ACME_VSDomain_V28> 			<http://www.assero.co.uk/BusinessDomain#compliance> 			<http://www.assero.co.uk/MDRSdtmIg/CDISC/V3#IG-CDISC_SDTMIG_C_PERMISSIBLE> . 
<http://www.assero.co.uk/MDRSdtmUD/ACME/V2#D-ACME_VSDomain_V28> 			<http://www.assero.co.uk/BusinessDomain#rule> 			"" . 
<http://www.assero.co.uk/MDRSdtmUD/ACME/V2#D-ACME_VSDomain_V28> 			<http://www.assero.co.uk/BusinessDomain#ordinal> 			"28" . 
<http://www.assero.co.uk/MDRSdtmUD/ACME/V2#D-ACME_VSDomain_V28> 			<http://www.assero.co.uk/BusinessDomain#name> 			"VSTPT" . 
<http://www.assero.co.uk/MDRSdtmUD/ACME/V2#D-ACME_VSDomain_V28> 			<http://www.assero.co.uk/BusinessDomain#notes> 			"" . 
<http://www.assero.co.uk/MDRSdtmUD/ACME/V2#D-ACME_VSDomain_V28> 			<http://www.assero.co.uk/BusinessDomain#format> 			"" . 
<http://www.assero.co.uk/MDRSdtmUD/ACME/V2#D-ACME_VSDomain_V28> 			<http://www.assero.co.uk/BusinessDomain#ct> 			"" . 
<http://www.assero.co.uk/MDRSdtmUD/ACME/V2#D-ACME_VSDomain_V28> 			<http://www.assero.co.uk/BusinessDomain#length> 			"0" . 
<http://www.assero.co.uk/MDRSdtmUD/ACME/V2#D-ACME_VSDomain_V28> 			<http://www.assero.co.uk/BusinessDomain#comment> 			"" . 
<http://www.assero.co.uk/MDRSdtmUD/ACME/V2#D-ACME_VSDomain_V28> 			<http://www.assero.co.uk/BusinessDomain#non_standard> 			"false" . 
<http://www.assero.co.uk/MDRSdtmUD/ACME/V2#D-ACME_VSDomain_V28> 			<http://www.assero.co.uk/BusinessDomain#used> 			"true" . 
<http://www.assero.co.uk/MDRSdtmUD/ACME/V2#D-ACME_VSDomain_V28> 			<http://www.assero.co.uk/BusinessDomain#key_ordinal> 			"0" . 
<http://www.assero.co.uk/MDRSdtmUD/ACME/V2#D-ACME_VSDomain_V28_IGV1> 			<http://www.w3.org/1999/02/22-rdf-syntax-ns#type> 			<http://www.assero.co.uk/BusinessOperational#CReference> . 
<http://www.assero.co.uk/MDRSdtmUD/ACME/V2#D-ACME_VSDomain_V28_IGV1> 			<http://www.w3.org/2000/01/rdf-schema#label> 			"Based on Variable Reference" . 
<http://www.assero.co.uk/MDRSdtmUD/ACME/V2#D-ACME_VSDomain_V28_IGV1> 			<http://www.assero.co.uk/BusinessOperational#hasColumn> 			<http://www.assero.co.uk/MDRSdtmIgD/CDISC/V3#IG-CDISC_SDTMIGVS_VSTPT> . 
<http://www.assero.co.uk/MDRSdtmUD/ACME/V2#D-ACME_VSDomain_V28_IGV1> 			<http://www.assero.co.uk/BusinessOperational#ordinal> 			"1" . 
<http://www.assero.co.uk/MDRSdtmUD/ACME/V2#D-ACME_VSDomain_V28_IGV1> 			<http://www.assero.co.uk/BusinessOperational#enabled> 			"true" . 
<http://www.assero.co.uk/MDRSdtmUD/ACME/V2#D-ACME_VSDomain_V28_IGV1> 			<http://www.assero.co.uk/BusinessOperational#optional> 			"false" . 
<http://www.assero.co.uk/MDRSdtmUD/ACME/V2#D-ACME_VSDomain_V28_IGV1> 			<http://www.assero.co.uk/BusinessOperational#local_label> 			"" . 
<http://www.assero.co.uk/MDRSdtmUD/ACME/V2#D-ACME_VSDomain_V29> 			<http://www.w3.org/1999/02/22-rdf-syntax-ns#type> 			<http://www.assero.co.uk/BusinessDomain#UserVariable> . 
<http://www.assero.co.uk/MDRSdtmUD/ACME/V2#D-ACME_VSDomain_V29> 			<http://www.w3.org/2000/01/rdf-schema#label> 			"Planned Time Point Number" . 
<http://www.assero.co.uk/MDRSdtmUD/ACME/V2#D-ACME_VSDomain_V29> 			<http://www.assero.co.uk/BusinessDomain#basedOnVariable> 			<http://www.assero.co.uk/MDRSdtmUD/ACME/V2#D-ACME_VSDomain_V29_IGV1> . 
<http://www.assero.co.uk/MDRSdtmUD/ACME/V2#D-ACME_VSDomain_V29> 			<http://www.assero.co.uk/BusinessDomain#classifiedAs> 			<http://www.assero.co.uk/MDRSdtmM/CDISC/V3#M-CDISC_SDTMMODEL_C_TIMING> . 
<http://www.assero.co.uk/MDRSdtmUD/ACME/V2#D-ACME_VSDomain_V29> 			<http://www.assero.co.uk/BusinessDomain#typedAs> 			<http://www.assero.co.uk/MDRSdtmM/CDISC/V3#M-CDISC_SDTMMODEL_DT_NUM> . 
<http://www.assero.co.uk/MDRSdtmUD/ACME/V2#D-ACME_VSDomain_V29> 			<http://www.assero.co.uk/BusinessDomain#compliance> 			<http://www.assero.co.uk/MDRSdtmIg/CDISC/V3#IG-CDISC_SDTMIG_C_PERMISSIBLE> . 
<http://www.assero.co.uk/MDRSdtmUD/ACME/V2#D-ACME_VSDomain_V29> 			<http://www.assero.co.uk/BusinessDomain#rule> 			"" . 
<http://www.assero.co.uk/MDRSdtmUD/ACME/V2#D-ACME_VSDomain_V29> 			<http://www.assero.co.uk/BusinessDomain#ordinal> 			"29" . 
<http://www.assero.co.uk/MDRSdtmUD/ACME/V2#D-ACME_VSDomain_V29> 			<http://www.assero.co.uk/BusinessDomain#name> 			"VSTPTNUM" . 
<http://www.assero.co.uk/MDRSdtmUD/ACME/V2#D-ACME_VSDomain_V29> 			<http://www.assero.co.uk/BusinessDomain#notes> 			"" . 
<http://www.assero.co.uk/MDRSdtmUD/ACME/V2#D-ACME_VSDomain_V29> 			<http://www.assero.co.uk/BusinessDomain#format> 			"" . 
<http://www.assero.co.uk/MDRSdtmUD/ACME/V2#D-ACME_VSDomain_V29> 			<http://www.assero.co.uk/BusinessDomain#ct> 			"" . 
<http://www.assero.co.uk/MDRSdtmUD/ACME/V2#D-ACME_VSDomain_V29> 			<http://www.assero.co.uk/BusinessDomain#length> 			"0" . 
<http://www.assero.co.uk/MDRSdtmUD/ACME/V2#D-ACME_VSDomain_V29> 			<http://www.assero.co.uk/BusinessDomain#comment> 			"" . 
<http://www.assero.co.uk/MDRSdtmUD/ACME/V2#D-ACME_VSDomain_V29> 			<http://www.assero.co.uk/BusinessDomain#non_standard> 			"false" . 
<http://www.assero.co.uk/MDRSdtmUD/ACME/V2#D-ACME_VSDomain_V29> 			<http://www.assero.co.uk/BusinessDomain#used> 			"true" . 
<http://www.assero.co.uk/MDRSdtmUD/ACME/V2#D-ACME_VSDomain_V29> 			<http://www.assero.co.uk/BusinessDomain#key_ordinal> 			"0" . 
<http://www.assero.co.uk/MDRSdtmUD/ACME/V2#D-ACME_VSDomain_V29_IGV1> 			<http://www.w3.org/1999/02/22-rdf-syntax-ns#type> 			<http://www.assero.co.uk/BusinessOperational#CReference> . 
<http://www.assero.co.uk/MDRSdtmUD/ACME/V2#D-ACME_VSDomain_V29_IGV1> 			<http://www.w3.org/2000/01/rdf-schema#label> 			"Based on Variable Reference" . 
<http://www.assero.co.uk/MDRSdtmUD/ACME/V2#D-ACME_VSDomain_V29_IGV1> 			<http://www.assero.co.uk/BusinessOperational#hasColumn> 			<http://www.assero.co.uk/MDRSdtmIgD/CDISC/V3#IG-CDISC_SDTMIGVS_VSTPTNUM> . 
<http://www.assero.co.uk/MDRSdtmUD/ACME/V2#D-ACME_VSDomain_V29_IGV1> 			<http://www.assero.co.uk/BusinessOperational#ordinal> 			"1" . 
<http://www.assero.co.uk/MDRSdtmUD/ACME/V2#D-ACME_VSDomain_V29_IGV1> 			<http://www.assero.co.uk/BusinessOperational#enabled> 			"true" . 
<http://www.assero.co.uk/MDRSdtmUD/ACME/V2#D-ACME_VSDomain_V29_IGV1> 			<http://www.assero.co.uk/BusinessOperational#optional> 			"false" . 
<http://www.assero.co.uk/MDRSdtmUD/ACME/V2#D-ACME_VSDomain_V29_IGV1> 			<http://www.assero.co.uk/BusinessOperational#local_label> 			"" . 
<http://www.assero.co.uk/MDRSdtmUD/ACME/V2#D-ACME_VSDomain_V30> 			<http://www.w3.org/1999/02/22-rdf-syntax-ns#type> 			<http://www.assero.co.uk/BusinessDomain#UserVariable> . 
<http://www.assero.co.uk/MDRSdtmUD/ACME/V2#D-ACME_VSDomain_V30> 			<http://www.w3.org/2000/01/rdf-schema#label> 			"Planned Elapsed Time from Time Point Ref" . 
<http://www.assero.co.uk/MDRSdtmUD/ACME/V2#D-ACME_VSDomain_V30> 			<http://www.assero.co.uk/BusinessDomain#basedOnVariable> 			<http://www.assero.co.uk/MDRSdtmUD/ACME/V2#D-ACME_VSDomain_V30_IGV1> . 
<http://www.assero.co.uk/MDRSdtmUD/ACME/V2#D-ACME_VSDomain_V30> 			<http://www.assero.co.uk/BusinessDomain#classifiedAs> 			<http://www.assero.co.uk/MDRSdtmM/CDISC/V3#M-CDISC_SDTMMODEL_C_TIMING> . 
<http://www.assero.co.uk/MDRSdtmUD/ACME/V2#D-ACME_VSDomain_V30> 			<http://www.assero.co.uk/BusinessDomain#typedAs> 			<http://www.assero.co.uk/MDRSdtmM/CDISC/V3#M-CDISC_SDTMMODEL_DT_CHAR> . 
<http://www.assero.co.uk/MDRSdtmUD/ACME/V2#D-ACME_VSDomain_V30> 			<http://www.assero.co.uk/BusinessDomain#compliance> 			<http://www.assero.co.uk/MDRSdtmIg/CDISC/V3#IG-CDISC_SDTMIG_C_PERMISSIBLE> . 
<http://www.assero.co.uk/MDRSdtmUD/ACME/V2#D-ACME_VSDomain_V30> 			<http://www.assero.co.uk/BusinessDomain#rule> 			"" . 
<http://www.assero.co.uk/MDRSdtmUD/ACME/V2#D-ACME_VSDomain_V30> 			<http://www.assero.co.uk/BusinessDomain#ordinal> 			"30" . 
<http://www.assero.co.uk/MDRSdtmUD/ACME/V2#D-ACME_VSDomain_V30> 			<http://www.assero.co.uk/BusinessDomain#name> 			"VSELTM" . 
<http://www.assero.co.uk/MDRSdtmUD/ACME/V2#D-ACME_VSDomain_V30> 			<http://www.assero.co.uk/BusinessDomain#notes> 			"" . 
<http://www.assero.co.uk/MDRSdtmUD/ACME/V2#D-ACME_VSDomain_V30> 			<http://www.assero.co.uk/BusinessDomain#format> 			"ISO 8601" . 
<http://www.assero.co.uk/MDRSdtmUD/ACME/V2#D-ACME_VSDomain_V30> 			<http://www.assero.co.uk/BusinessDomain#ct> 			"" . 
<http://www.assero.co.uk/MDRSdtmUD/ACME/V2#D-ACME_VSDomain_V30> 			<http://www.assero.co.uk/BusinessDomain#length> 			"0" . 
<http://www.assero.co.uk/MDRSdtmUD/ACME/V2#D-ACME_VSDomain_V30> 			<http://www.assero.co.uk/BusinessDomain#comment> 			"" . 
<http://www.assero.co.uk/MDRSdtmUD/ACME/V2#D-ACME_VSDomain_V30> 			<http://www.assero.co.uk/BusinessDomain#non_standard> 			"false" . 
<http://www.assero.co.uk/MDRSdtmUD/ACME/V2#D-ACME_VSDomain_V30> 			<http://www.assero.co.uk/BusinessDomain#used> 			"true" . 
<http://www.assero.co.uk/MDRSdtmUD/ACME/V2#D-ACME_VSDomain_V30> 			<http://www.assero.co.uk/BusinessDomain#key_ordinal> 			"0" . 
<http://www.assero.co.uk/MDRSdtmUD/ACME/V2#D-ACME_VSDomain_V30_IGV1> 			<http://www.w3.org/1999/02/22-rdf-syntax-ns#type> 			<http://www.assero.co.uk/BusinessOperational#CReference> . 
<http://www.assero.co.uk/MDRSdtmUD/ACME/V2#D-ACME_VSDomain_V30_IGV1> 			<http://www.w3.org/2000/01/rdf-schema#label> 			"Based on Variable Reference" . 
<http://www.assero.co.uk/MDRSdtmUD/ACME/V2#D-ACME_VSDomain_V30_IGV1> 			<http://www.assero.co.uk/BusinessOperational#hasColumn> 			<http://www.assero.co.uk/MDRSdtmIgD/CDISC/V3#IG-CDISC_SDTMIGVS_VSELTM> . 
<http://www.assero.co.uk/MDRSdtmUD/ACME/V2#D-ACME_VSDomain_V30_IGV1> 			<http://www.assero.co.uk/BusinessOperational#ordinal> 			"1" . 
<http://www.assero.co.uk/MDRSdtmUD/ACME/V2#D-ACME_VSDomain_V30_IGV1> 			<http://www.assero.co.uk/BusinessOperational#enabled> 			"true" . 
<http://www.assero.co.uk/MDRSdtmUD/ACME/V2#D-ACME_VSDomain_V30_IGV1> 			<http://www.assero.co.uk/BusinessOperational#optional> 			"false" . 
<http://www.assero.co.uk/MDRSdtmUD/ACME/V2#D-ACME_VSDomain_V30_IGV1> 			<http://www.assero.co.uk/BusinessOperational#local_label> 			"" . 
<http://www.assero.co.uk/MDRSdtmUD/ACME/V2#D-ACME_VSDomain_V31> 			<http://www.w3.org/1999/02/22-rdf-syntax-ns#type> 			<http://www.assero.co.uk/BusinessDomain#UserVariable> . 
<http://www.assero.co.uk/MDRSdtmUD/ACME/V2#D-ACME_VSDomain_V31> 			<http://www.w3.org/2000/01/rdf-schema#label> 			"Time Point Reference" . 
<http://www.assero.co.uk/MDRSdtmUD/ACME/V2#D-ACME_VSDomain_V31> 			<http://www.assero.co.uk/BusinessDomain#basedOnVariable> 			<http://www.assero.co.uk/MDRSdtmUD/ACME/V2#D-ACME_VSDomain_V31_IGV1> . 
<http://www.assero.co.uk/MDRSdtmUD/ACME/V2#D-ACME_VSDomain_V31> 			<http://www.assero.co.uk/BusinessDomain#classifiedAs> 			<http://www.assero.co.uk/MDRSdtmM/CDISC/V3#M-CDISC_SDTMMODEL_C_TIMING> . 
<http://www.assero.co.uk/MDRSdtmUD/ACME/V2#D-ACME_VSDomain_V31> 			<http://www.assero.co.uk/BusinessDomain#typedAs> 			<http://www.assero.co.uk/MDRSdtmM/CDISC/V3#M-CDISC_SDTMMODEL_DT_CHAR> . 
<http://www.assero.co.uk/MDRSdtmUD/ACME/V2#D-ACME_VSDomain_V31> 			<http://www.assero.co.uk/BusinessDomain#compliance> 			<http://www.assero.co.uk/MDRSdtmIg/CDISC/V3#IG-CDISC_SDTMIG_C_PERMISSIBLE> . 
<http://www.assero.co.uk/MDRSdtmUD/ACME/V2#D-ACME_VSDomain_V31> 			<http://www.assero.co.uk/BusinessDomain#rule> 			"" . 
<http://www.assero.co.uk/MDRSdtmUD/ACME/V2#D-ACME_VSDomain_V31> 			<http://www.assero.co.uk/BusinessDomain#ordinal> 			"31" . 
<http://www.assero.co.uk/MDRSdtmUD/ACME/V2#D-ACME_VSDomain_V31> 			<http://www.assero.co.uk/BusinessDomain#name> 			"VSTPTREF" . 
<http://www.assero.co.uk/MDRSdtmUD/ACME/V2#D-ACME_VSDomain_V31> 			<http://www.assero.co.uk/BusinessDomain#notes> 			"" . 
<http://www.assero.co.uk/MDRSdtmUD/ACME/V2#D-ACME_VSDomain_V31> 			<http://www.assero.co.uk/BusinessDomain#format> 			"" . 
<http://www.assero.co.uk/MDRSdtmUD/ACME/V2#D-ACME_VSDomain_V31> 			<http://www.assero.co.uk/BusinessDomain#ct> 			"" . 
<http://www.assero.co.uk/MDRSdtmUD/ACME/V2#D-ACME_VSDomain_V31> 			<http://www.assero.co.uk/BusinessDomain#length> 			"0" . 
<http://www.assero.co.uk/MDRSdtmUD/ACME/V2#D-ACME_VSDomain_V31> 			<http://www.assero.co.uk/BusinessDomain#comment> 			"" . 
<http://www.assero.co.uk/MDRSdtmUD/ACME/V2#D-ACME_VSDomain_V31> 			<http://www.assero.co.uk/BusinessDomain#non_standard> 			"false" . 
<http://www.assero.co.uk/MDRSdtmUD/ACME/V2#D-ACME_VSDomain_V31> 			<http://www.assero.co.uk/BusinessDomain#used> 			"true" . 
<http://www.assero.co.uk/MDRSdtmUD/ACME/V2#D-ACME_VSDomain_V31> 			<http://www.assero.co.uk/BusinessDomain#key_ordinal> 			"0" . 
<http://www.assero.co.uk/MDRSdtmUD/ACME/V2#D-ACME_VSDomain_V31_IGV1> 			<http://www.w3.org/1999/02/22-rdf-syntax-ns#type> 			<http://www.assero.co.uk/BusinessOperational#CReference> . 
<http://www.assero.co.uk/MDRSdtmUD/ACME/V2#D-ACME_VSDomain_V31_IGV1> 			<http://www.w3.org/2000/01/rdf-schema#label> 			"Based on Variable Reference" . 
<http://www.assero.co.uk/MDRSdtmUD/ACME/V2#D-ACME_VSDomain_V31_IGV1> 			<http://www.assero.co.uk/BusinessOperational#hasColumn> 			<http://www.assero.co.uk/MDRSdtmIgD/CDISC/V3#IG-CDISC_SDTMIGVS_VSTPTREF> . 
<http://www.assero.co.uk/MDRSdtmUD/ACME/V2#D-ACME_VSDomain_V31_IGV1> 			<http://www.assero.co.uk/BusinessOperational#ordinal> 			"1" . 
<http://www.assero.co.uk/MDRSdtmUD/ACME/V2#D-ACME_VSDomain_V31_IGV1> 			<http://www.assero.co.uk/BusinessOperational#enabled> 			"true" . 
<http://www.assero.co.uk/MDRSdtmUD/ACME/V2#D-ACME_VSDomain_V31_IGV1> 			<http://www.assero.co.uk/BusinessOperational#optional> 			"false" . 
<http://www.assero.co.uk/MDRSdtmUD/ACME/V2#D-ACME_VSDomain_V31_IGV1> 			<http://www.assero.co.uk/BusinessOperational#local_label> 			"" . 
<http://www.assero.co.uk/MDRSdtmUD/ACME/V2#D-ACME_VSDomain_V32> 			<http://www.w3.org/1999/02/22-rdf-syntax-ns#type> 			<http://www.assero.co.uk/BusinessDomain#UserVariable> . 
<http://www.assero.co.uk/MDRSdtmUD/ACME/V2#D-ACME_VSDomain_V32> 			<http://www.w3.org/2000/01/rdf-schema#label> 			"Date/Time of Reference Time Point" . 
<http://www.assero.co.uk/MDRSdtmUD/ACME/V2#D-ACME_VSDomain_V32> 			<http://www.assero.co.uk/BusinessDomain#basedOnVariable> 			<http://www.assero.co.uk/MDRSdtmUD/ACME/V2#D-ACME_VSDomain_V32_IGV1> . 
<http://www.assero.co.uk/MDRSdtmUD/ACME/V2#D-ACME_VSDomain_V32> 			<http://www.assero.co.uk/BusinessDomain#classifiedAs> 			<http://www.assero.co.uk/MDRSdtmM/CDISC/V3#M-CDISC_SDTMMODEL_C_TIMING> . 
<http://www.assero.co.uk/MDRSdtmUD/ACME/V2#D-ACME_VSDomain_V32> 			<http://www.assero.co.uk/BusinessDomain#typedAs> 			<http://www.assero.co.uk/MDRSdtmM/CDISC/V3#M-CDISC_SDTMMODEL_DT_CHAR> . 
<http://www.assero.co.uk/MDRSdtmUD/ACME/V2#D-ACME_VSDomain_V32> 			<http://www.assero.co.uk/BusinessDomain#compliance> 			<http://www.assero.co.uk/MDRSdtmIg/CDISC/V3#IG-CDISC_SDTMIG_C_PERMISSIBLE> . 
<http://www.assero.co.uk/MDRSdtmUD/ACME/V2#D-ACME_VSDomain_V32> 			<http://www.assero.co.uk/BusinessDomain#rule> 			"" . 
<http://www.assero.co.uk/MDRSdtmUD/ACME/V2#D-ACME_VSDomain_V32> 			<http://www.assero.co.uk/BusinessDomain#ordinal> 			"32" . 
<http://www.assero.co.uk/MDRSdtmUD/ACME/V2#D-ACME_VSDomain_V32> 			<http://www.assero.co.uk/BusinessDomain#name> 			"VSRFTDTC" . 
<http://www.assero.co.uk/MDRSdtmUD/ACME/V2#D-ACME_VSDomain_V32> 			<http://www.assero.co.uk/BusinessDomain#notes> 			"" . 
<http://www.assero.co.uk/MDRSdtmUD/ACME/V2#D-ACME_VSDomain_V32> 			<http://www.assero.co.uk/BusinessDomain#format> 			"ISO 8601" . 
<http://www.assero.co.uk/MDRSdtmUD/ACME/V2#D-ACME_VSDomain_V32> 			<http://www.assero.co.uk/BusinessDomain#ct> 			"" . 
<http://www.assero.co.uk/MDRSdtmUD/ACME/V2#D-ACME_VSDomain_V32> 			<http://www.assero.co.uk/BusinessDomain#length> 			"0" . 
<http://www.assero.co.uk/MDRSdtmUD/ACME/V2#D-ACME_VSDomain_V32> 			<http://www.assero.co.uk/BusinessDomain#comment> 			"" . 
<http://www.assero.co.uk/MDRSdtmUD/ACME/V2#D-ACME_VSDomain_V32> 			<http://www.assero.co.uk/BusinessDomain#non_standard> 			"false" . 
<http://www.assero.co.uk/MDRSdtmUD/ACME/V2#D-ACME_VSDomain_V32> 			<http://www.assero.co.uk/BusinessDomain#used> 			"true" . 
<http://www.assero.co.uk/MDRSdtmUD/ACME/V2#D-ACME_VSDomain_V32> 			<http://www.assero.co.uk/BusinessDomain#key_ordinal> 			"0" . 
<http://www.assero.co.uk/MDRSdtmUD/ACME/V2#D-ACME_VSDomain_V32_IGV1> 			<http://www.w3.org/1999/02/22-rdf-syntax-ns#type> 			<http://www.assero.co.uk/BusinessOperational#CReference> . 
<http://www.assero.co.uk/MDRSdtmUD/ACME/V2#D-ACME_VSDomain_V32_IGV1> 			<http://www.w3.org/2000/01/rdf-schema#label> 			"Based on Variable Reference" . 
<http://www.assero.co.uk/MDRSdtmUD/ACME/V2#D-ACME_VSDomain_V32_IGV1> 			<http://www.assero.co.uk/BusinessOperational#hasColumn> 			<http://www.assero.co.uk/MDRSdtmIgD/CDISC/V3#IG-CDISC_SDTMIGVS_VSRFTDTC> . 
<http://www.assero.co.uk/MDRSdtmUD/ACME/V2#D-ACME_VSDomain_V32_IGV1> 			<http://www.assero.co.uk/BusinessOperational#ordinal> 			"1" . 
<http://www.assero.co.uk/MDRSdtmUD/ACME/V2#D-ACME_VSDomain_V32_IGV1> 			<http://www.assero.co.uk/BusinessOperational#enabled> 			"true" . 
<http://www.assero.co.uk/MDRSdtmUD/ACME/V2#D-ACME_VSDomain_V32_IGV1> 			<http://www.assero.co.uk/BusinessOperational#optional> 			"false" . 
<http://www.assero.co.uk/MDRSdtmUD/ACME/V2#D-ACME_VSDomain_V32_IGV1> 			<http://www.assero.co.uk/BusinessOperational#local_label> 			"" . 
<http://www.assero.co.uk/MDRSdtmUD/ACME/V2#D-ACME_VSDomain_IGD1> 			<http://www.w3.org/1999/02/22-rdf-syntax-ns#type> 			<http://www.assero.co.uk/BusinessOperational#TReference> . 
<http://www.assero.co.uk/MDRSdtmUD/ACME/V2#D-ACME_VSDomain_IGD1> 			<http://www.w3.org/2000/01/rdf-schema#label> 			"Based on Domain Reference" . 
<http://www.assero.co.uk/MDRSdtmUD/ACME/V2#D-ACME_VSDomain_IGD1> 			<http://www.assero.co.uk/BusinessOperational#hasTabulation> 			<http://www.assero.co.uk/MDRSdtmIgD/CDISC/V3#IG-CDISC_SDTMIGVS> . 
<http://www.assero.co.uk/MDRSdtmUD/ACME/V2#D-ACME_VSDomain_IGD1> 			<http://www.assero.co.uk/BusinessOperational#ordinal> 			"1" . 
<http://www.assero.co.uk/MDRSdtmUD/ACME/V2#D-ACME_VSDomain_IGD1> 			<http://www.assero.co.uk/BusinessOperational#enabled> 			"true" . 
<http://www.assero.co.uk/MDRSdtmUD/ACME/V2#D-ACME_VSDomain_IGD1> 			<http://www.assero.co.uk/BusinessOperational#optional> 			"false" . 
<http://www.assero.co.uk/MDRSdtmUD/ACME/V2#D-ACME_VSDomain_IGD1> 			<http://www.assero.co.uk/BusinessOperational#local_label> 			"" . 
<http://www.assero.co.uk/MDRSdtmUD/ACME/V2#D-ACME_VSDomain_MD1> 			<http://www.w3.org/1999/02/22-rdf-syntax-ns#type> 			<http://www.assero.co.uk/BusinessOperational#TReference> . 
<http://www.assero.co.uk/MDRSdtmUD/ACME/V2#D-ACME_VSDomain_MD1> 			<http://www.w3.org/2000/01/rdf-schema#label> 			"Based on Domain Reference" . 
<http://www.assero.co.uk/MDRSdtmUD/ACME/V2#D-ACME_VSDomain_MD1> 			<http://www.assero.co.uk/BusinessOperational#hasTabulation> 			<http://www.assero.co.uk/MDRSdtmMd/CDISC/V3#M-CDISC_SDTMMODELFINDINGS> . 
<http://www.assero.co.uk/MDRSdtmUD/ACME/V2#D-ACME_VSDomain_MD1> 			<http://www.assero.co.uk/BusinessOperational#ordinal> 			"1" . 
<http://www.assero.co.uk/MDRSdtmUD/ACME/V2#D-ACME_VSDomain_MD1> 			<http://www.assero.co.uk/BusinessOperational#enabled> 			"true" . 
<http://www.assero.co.uk/MDRSdtmUD/ACME/V2#D-ACME_VSDomain_MD1> 			<http://www.assero.co.uk/BusinessOperational#optional> 			"false" . 
<http://www.assero.co.uk/MDRSdtmUD/ACME/V2#D-ACME_VSDomain_MD1> 			<http://www.assero.co.uk/BusinessOperational#local_label> 			"" . 
<http://www.assero.co.uk/MDRSdtmUD/ACME/V2#D-ACME_VSDomain_PR3> 			<http://www.w3.org/1999/02/22-rdf-syntax-ns#type> 			<http://www.assero.co.uk/BusinessOperational#BcReference> . 
<http://www.assero.co.uk/MDRSdtmUD/ACME/V2#D-ACME_VSDomain_PR3> 			<http://www.w3.org/2000/01/rdf-schema#label> 			"BC Reference" . 
<http://www.assero.co.uk/MDRSdtmUD/ACME/V2#D-ACME_VSDomain_PR3> 			<http://www.assero.co.uk/BusinessOperational#hasBiomedicalConcept> 			<http://www.assero.co.uk/MDRBCs/V1#BC-ACME_BC_C25347> . 
<http://www.assero.co.uk/MDRSdtmUD/ACME/V2#D-ACME_VSDomain_PR3> 			<http://www.assero.co.uk/BusinessOperational#ordinal> 			"3" . 
<http://www.assero.co.uk/MDRSdtmUD/ACME/V2#D-ACME_VSDomain_PR3> 			<http://www.assero.co.uk/BusinessOperational#enabled> 			"true" . 
<http://www.assero.co.uk/MDRSdtmUD/ACME/V2#D-ACME_VSDomain_PR3> 			<http://www.assero.co.uk/BusinessOperational#optional> 			"false" . 
<http://www.assero.co.uk/MDRSdtmUD/ACME/V2#D-ACME_VSDomain_PR3> 			<http://www.assero.co.uk/BusinessOperational#local_label> 			"" . 
<http://www.assero.co.uk/MDRSdtmUD/ACME/V2#D-ACME_VSDomain_PR4> 			<http://www.w3.org/1999/02/22-rdf-syntax-ns#type> 			<http://www.assero.co.uk/BusinessOperational#BcReference> . 
<http://www.assero.co.uk/MDRSdtmUD/ACME/V2#D-ACME_VSDomain_PR4> 			<http://www.w3.org/2000/01/rdf-schema#label> 			"BC Reference" . 
<http://www.assero.co.uk/MDRSdtmUD/ACME/V2#D-ACME_VSDomain_PR4> 			<http://www.assero.co.uk/BusinessOperational#hasBiomedicalConcept> 			<http://www.assero.co.uk/MDRBCs/V1#BC-ACME_BC_C49677> . 
<http://www.assero.co.uk/MDRSdtmUD/ACME/V2#D-ACME_VSDomain_PR4> 			<http://www.assero.co.uk/BusinessOperational#ordinal> 			"4" . 
<http://www.assero.co.uk/MDRSdtmUD/ACME/V2#D-ACME_VSDomain_PR4> 			<http://www.assero.co.uk/BusinessOperational#enabled> 			"true" . 
<http://www.assero.co.uk/MDRSdtmUD/ACME/V2#D-ACME_VSDomain_PR4> 			<http://www.assero.co.uk/BusinessOperational#optional> 			"false" . 
<http://www.assero.co.uk/MDRSdtmUD/ACME/V2#D-ACME_VSDomain_PR4> 			<http://www.assero.co.uk/BusinessOperational#local_label> 			"" . 
<http://www.assero.co.uk/MDRSdtmUD/ACME/V2#D-ACME_VSDomain_PR5> 			<http://www.w3.org/1999/02/22-rdf-syntax-ns#type> 			<http://www.assero.co.uk/BusinessOperational#BcReference> . 
<http://www.assero.co.uk/MDRSdtmUD/ACME/V2#D-ACME_VSDomain_PR5> 			<http://www.w3.org/2000/01/rdf-schema#label> 			"BC Reference" . 
<http://www.assero.co.uk/MDRSdtmUD/ACME/V2#D-ACME_VSDomain_PR5> 			<http://www.assero.co.uk/BusinessOperational#hasBiomedicalConcept> 			<http://www.assero.co.uk/MDRBCs/V1#BC-ACME_BC_C49678> . 
<http://www.assero.co.uk/MDRSdtmUD/ACME/V2#D-ACME_VSDomain_PR5> 			<http://www.assero.co.uk/BusinessOperational#ordinal> 			"5" . 
<http://www.assero.co.uk/MDRSdtmUD/ACME/V2#D-ACME_VSDomain_PR5> 			<http://www.assero.co.uk/BusinessOperational#enabled> 			"true" . 
<http://www.assero.co.uk/MDRSdtmUD/ACME/V2#D-ACME_VSDomain_PR5> 			<http://www.assero.co.uk/BusinessOperational#optional> 			"false" . 
<http://www.assero.co.uk/MDRSdtmUD/ACME/V2#D-ACME_VSDomain_PR5> 			<http://www.assero.co.uk/BusinessOperational#local_label> 			"" . 
<http://www.assero.co.uk/MDRSdtmUD/ACME/V2#D-ACME_VSDomain_BCR7> 			<http://www.w3.org/1999/02/22-rdf-syntax-ns#type> 			<http://www.assero.co.uk/BusinessOperational#BcReference> . 
<http://www.assero.co.uk/MDRSdtmUD/ACME/V2#D-ACME_VSDomain_BCR7> 			<http://www.w3.org/2000/01/rdf-schema#label> 			"BC Reference" . 
<http://www.assero.co.uk/MDRSdtmUD/ACME/V2#D-ACME_VSDomain_BCR7> 			<http://www.assero.co.uk/BusinessOperational#hasBiomedicalConcept> 			<http://www.assero.co.uk/MDRBCs/ACME/V4#BC-ACME_BCC25206> . 
<http://www.assero.co.uk/MDRSdtmUD/ACME/V2#D-ACME_VSDomain_BCR7> 			<http://www.assero.co.uk/BusinessOperational#ordinal> 			"7" . 
<http://www.assero.co.uk/MDRSdtmUD/ACME/V2#D-ACME_VSDomain_BCR7> 			<http://www.assero.co.uk/BusinessOperational#enabled> 			"true" . 
<http://www.assero.co.uk/MDRSdtmUD/ACME/V2#D-ACME_VSDomain_BCR7> 			<http://www.assero.co.uk/BusinessOperational#optional> 			"false" . 
<http://www.assero.co.uk/MDRSdtmUD/ACME/V2#D-ACME_VSDomain_BCR7> 			<http://www.assero.co.uk/BusinessOperational#local_label> 			"" . 
<http://www.assero.co.uk/MDRSdtmUD/ACME/V2#D-ACME_VSDomain_BCR8> 			<http://www.w3.org/1999/02/22-rdf-syntax-ns#type> 			<http://www.assero.co.uk/BusinessOperational#BcReference> . 
<http://www.assero.co.uk/MDRSdtmUD/ACME/V2#D-ACME_VSDomain_BCR8> 			<http://www.w3.org/2000/01/rdf-schema#label> 			"BC Reference" . 
<http://www.assero.co.uk/MDRSdtmUD/ACME/V2#D-ACME_VSDomain_BCR8> 			<http://www.assero.co.uk/BusinessOperational#hasBiomedicalConcept> 			<http://www.assero.co.uk/MDRBCs/ACME/V2#BC-ACME_BCC25208> . 
<http://www.assero.co.uk/MDRSdtmUD/ACME/V2#D-ACME_VSDomain_BCR8> 			<http://www.assero.co.uk/BusinessOperational#ordinal> 			"8" . 
<http://www.assero.co.uk/MDRSdtmUD/ACME/V2#D-ACME_VSDomain_BCR8> 			<http://www.assero.co.uk/BusinessOperational#enabled> 			"true" . 
<http://www.assero.co.uk/MDRSdtmUD/ACME/V2#D-ACME_VSDomain_BCR8> 			<http://www.assero.co.uk/BusinessOperational#optional> 			"false" . 
<http://www.assero.co.uk/MDRSdtmUD/ACME/V2#D-ACME_VSDomain_BCR8> 			<http://www.assero.co.uk/BusinessOperational#local_label> 			"" . 
<http://www.assero.co.uk/MDRSdtmUD/ACME/V2#D-ACME_VSDomain_BCR9> 			<http://www.w3.org/1999/02/22-rdf-syntax-ns#type> 			<http://www.assero.co.uk/BusinessOperational#BcReference> . 
<http://www.assero.co.uk/MDRSdtmUD/ACME/V2#D-ACME_VSDomain_BCR9> 			<http://www.w3.org/2000/01/rdf-schema#label> 			"BC Reference" . 
<http://www.assero.co.uk/MDRSdtmUD/ACME/V2#D-ACME_VSDomain_BCR9> 			<http://www.assero.co.uk/BusinessOperational#hasBiomedicalConcept> 			<http://www.assero.co.uk/MDRBCs/V1#BC-ACME_BC_C25298> . 
<http://www.assero.co.uk/MDRSdtmUD/ACME/V2#D-ACME_VSDomain_BCR9> 			<http://www.assero.co.uk/BusinessOperational#ordinal> 			"9" . 
<http://www.assero.co.uk/MDRSdtmUD/ACME/V2#D-ACME_VSDomain_BCR9> 			<http://www.assero.co.uk/BusinessOperational#enabled> 			"true" . 
<http://www.assero.co.uk/MDRSdtmUD/ACME/V2#D-ACME_VSDomain_BCR9> 			<http://www.assero.co.uk/BusinessOperational#optional> 			"false" . 
<http://www.assero.co.uk/MDRSdtmUD/ACME/V2#D-ACME_VSDomain_BCR9> 			<http://www.assero.co.uk/BusinessOperational#local_label> 			"" . 
<http://www.assero.co.uk/MDRSdtmUD/ACME/V2#D-ACME_VSDomain_BCR10> 			<http://www.w3.org/1999/02/22-rdf-syntax-ns#type> 			<http://www.assero.co.uk/BusinessOperational#BcReference> . 
<http://www.assero.co.uk/MDRSdtmUD/ACME/V2#D-ACME_VSDomain_BCR10> 			<http://www.w3.org/2000/01/rdf-schema#label> 			"BC Reference" . 
<http://www.assero.co.uk/MDRSdtmUD/ACME/V2#D-ACME_VSDomain_BCR10> 			<http://www.assero.co.uk/BusinessOperational#hasBiomedicalConcept> 			<http://www.assero.co.uk/MDRBCs/V1#BC-ACME_BC_C25299> . 
<http://www.assero.co.uk/MDRSdtmUD/ACME/V2#D-ACME_VSDomain_BCR10> 			<http://www.assero.co.uk/BusinessOperational#ordinal> 			"10" . 
<http://www.assero.co.uk/MDRSdtmUD/ACME/V2#D-ACME_VSDomain_BCR10> 			<http://www.assero.co.uk/BusinessOperational#enabled> 			"true" . 
<http://www.assero.co.uk/MDRSdtmUD/ACME/V2#D-ACME_VSDomain_BCR10> 			<http://www.assero.co.uk/BusinessOperational#optional> 			"false" . 
<http://www.assero.co.uk/MDRSdtmUD/ACME/V2#D-ACME_VSDomain_BCR10> 			<http://www.assero.co.uk/BusinessOperational#local_label> 			"" . 
<http://www.assero.co.uk/MDRItems#SI-ACME_VSDomain-2> 			<http://www.w3.org/1999/02/22-rdf-syntax-ns#type> 			<http://www.assero.co.uk/ISO11179Identification#ScopedIdentifier> . 
<http://www.assero.co.uk/MDRItems#SI-ACME_VSDomain-2> 			<http://www.assero.co.uk/ISO11179Identification#hasScope> 			<http://www.assero.co.uk/MDRItems#NS-ACME> . 
<http://www.assero.co.uk/MDRItems#SI-ACME_VSDomain-2> 			<http://www.assero.co.uk/ISO11179Identification#identifier> 			"VS Domain" . 
<http://www.assero.co.uk/MDRItems#SI-ACME_VSDomain-2> 			<http://www.assero.co.uk/ISO11179Identification#version> 			"2" . 
<http://www.assero.co.uk/MDRItems#SI-ACME_VSDomain-2> 			<http://www.assero.co.uk/ISO11179Identification#semantic_version> 			"1.0.0" . 
<http://www.assero.co.uk/MDRItems#SI-ACME_VSDomain-2> 			<http://www.assero.co.uk/ISO11179Identification#versionLabel> 			"" . 
<http://www.assero.co.uk/MDRItems#RS-ACME_VSDomain-2> 			<http://www.w3.org/1999/02/22-rdf-syntax-ns#type> 			<http://www.assero.co.uk/ISO11179Registration#RegistrationState> . 
<http://www.assero.co.uk/MDRItems#RS-ACME_VSDomain-2> 			<http://www.assero.co.uk/ISO11179Registration#byAuthority> 			<http://www.assero.co.uk/MDRItems#RA-123456789> . 
<http://www.assero.co.uk/MDRItems#RS-ACME_VSDomain-2> 			<http://www.assero.co.uk/ISO11179Registration#registrationStatus> 			"Standard" . 
<http://www.assero.co.uk/MDRItems#RS-ACME_VSDomain-2> 			<http://www.assero.co.uk/ISO11179Registration#effectiveDate> 			"2018-04-17T16:25:21+01:00" . 
<http://www.assero.co.uk/MDRItems#RS-ACME_VSDomain-2> 			<http://www.assero.co.uk/ISO11179Registration#untilDate> 			"2100-01-01T00:00:00+00:00" . 
<http://www.assero.co.uk/MDRItems#RS-ACME_VSDomain-2> 			<http://www.assero.co.uk/ISO11179Registration#administrativeNote> 			"" . 
<http://www.assero.co.uk/MDRItems#RS-ACME_VSDomain-2> 			<http://www.assero.co.uk/ISO11179Registration#unresolvedIssue> 			"" . 
<http://www.assero.co.uk/MDRItems#RS-ACME_VSDomain-2> 			<http://www.assero.co.uk/ISO11179Registration#administrativeStatus> 			"" . 
<http://www.assero.co.uk/MDRItems#RS-ACME_VSDomain-2> 			<http://www.assero.co.uk/ISO11179Registration#previousState> 			"Qualified" . 
