@prefix : <http://www.assero.co.uk/MDRAdamIgT/CDISC/V1#> .
@prefix rdf: <http://www.w3.org/1999/02/22-rdf-syntax-ns#> .
@prefix rdfs: <http://www.w3.org/2000/01/rdf-schema#> .
@prefix isoR: <http://www.assero.co.uk/ISO11179Registration#> .
@prefix isoI: <http://www.assero.co.uk/ISO11179Identification#> .
@prefix isoT: <http://www.assero.co.uk/ISO11179Types#> .
@prefix isoC: <http://www.assero.co.uk/ISO11179Concepts#> .
@prefix bo: <http://www.assero.co.uk/BusinessOperational#> .
@prefix bd: <http://www.assero.co.uk/Tabulation#> .
@prefix owl: <http://www.w3.org/2002/07/owl#> .
@prefix xsd: <http://www.w3.org/2001/XMLSchema#> .
@prefix skos: <http://www.w3.org/2004/02/skos/core#> .

<http://www.assero.co.uk/MDRAdamIgT/CDISC/V1>
	rdf:type owl:Ontology ;
.
<http://www.assero.co.uk/MDRAdamIg/CDISC/V1#AIG-CDISC_ADAMIG_DT_CHARACTER>
	rdf:type <http://www.assero.co.uk/Tabulation#VariableType> ;
	isoC:label "Character"^^xsd:string ;
.
<http://www.assero.co.uk/MDRAdamIg/CDISC/V1#AIG-CDISC_ADAMIG_DT_NUMERIC>
	rdf:type <http://www.assero.co.uk/Tabulation#VariableType> ;
	isoC:label "Numeric"^^xsd:string ;
.
<http://www.assero.co.uk/MDRAdamIg/CDISC/V1#AIG-CDISC_ADAMIG_C_REQUIRED>
	rdf:type <http://www.assero.co.uk/Tabulation#VariableCompliance> ;
	isoC:label "Required"^^xsd:string ;
.
<http://www.assero.co.uk/MDRAdamIg/CDISC/V1#AIG-CDISC_ADAMIG_C_PERMISSIBLE>
	rdf:type <http://www.assero.co.uk/Tabulation#VariableCompliance> ;
	isoC:label "Permissible"^^xsd:string ;
.
<http://www.assero.co.uk/MDRAdamIg/CDISC/V1#AIG-CDISC_ADAMIG_C_CONDITIONAL>
	rdf:type <http://www.assero.co.uk/Tabulation#VariableCompliance> ;
	isoC:label "Conditional"^^xsd:string ;
.
:AIG-CDISC_ADAMIG
	rdf:type <http://www.assero.co.uk/Tabulation#ADaMImplementationGuide> ;
	isoC:label "ADaM Implementation Guide"^^xsd:string ;
	isoT:hasIdentifier <http://www.assero.co.uk/MDRItems#SI-CDISC_ADAMIG-1> ;
	isoT:hasState <http://www.assero.co.uk/MDRItems#RS-CDISC_ADAMIG-1> ;
	isoT:creationDate "2019-01-23T00:00:00+00:00"^^xsd:dateTime ;
	isoT:lastChangeDate "2019-01-23T00:00:00+00:00"^^xsd:dateTime ;
	isoT:changeDescription ""^^xsd:string ;
	isoT:explanatoryComment ""^^xsd:string ;
	isoT:origin ""^^xsd:string ;
	bd:hasManaged :AIG-CDISC_ADAMIG_TR1 ;
	bd:hasManaged :AIG-CDISC_ADAMIG_TR2 ;
.
<http://www.assero.co.uk/MDRItems#RS-CDISC_ADAMIG-1>
	rdf:type isoR:RegistrationState ;
	isoR:byAuthority <http://www.assero.co.uk/RA#DUNS084433759> ;
	isoR:registrationStatus "Standard"^^xsd:string ;
	isoR:administrativeNote ""^^xsd:string ;
	isoR:effectiveDate "2016-01-01T00:00:00+00:00"^^xsd:dateTime ;
	isoR:untilDate "2016-01-01T00:00:00+00:00"^^xsd:dateTime ;
	isoR:unresolvedIssue ""^^xsd:string ;
	isoR:administrativeStatus ""^^xsd:string ;
	isoR:previousState "Incomplete"^^xsd:string ;
.
<http://www.assero.co.uk/MDRItems#SI-CDISC_ADAMIG-1>
	isoI:identifier "ADAM IG"^^xsd:string ;
	rdf:type isoI:ScopedIdentifier ;
	isoI:version "1"^^xsd:positiveInteger ;
	isoI:versionLabel "1.0.0"^^xsd:string ;
	isoI:semantic_version "1.0.0"^^xsd:string ;
	isoI:hasScope <http://www.assero.co.uk/NS#CDISC> ;
.
:AIG-CDISC_ADAMIG_TR1
	rdf:type <http://www.assero.co.uk/BusinessOperational#TReference> ;
	isoC:label "Tabulation Reference"^^xsd:string ;
	bo:reference <http://www.assero.co.uk/MDRAdamIgT/CDISC/V1#AIG-CDISC_ADAMIGADSL> ;
	bo:enabled "true"^^xsd:boolean ;
	bo:optional "false"^^xsd:boolean ;
	bo:ordinal "1"^^xsd:positiveInteger ;
	bo:local_label ""^^xsd:string ;
.
:AIG-CDISC_ADAMIG_TR2
	rdf:type <http://www.assero.co.uk/BusinessOperational#TReference> ;
	isoC:label "Tabulation Reference"^^xsd:string ;
	bo:reference <http://www.assero.co.uk/MDRAdamIgT/CDISC/V1#AIG-CDISC_ADAMIGBDS> ;
	bo:enabled "true"^^xsd:boolean ;
	bo:optional "false"^^xsd:boolean ;
	bo:ordinal "2"^^xsd:positiveInteger ;
	bo:local_label ""^^xsd:string ;
.
:AIG-CDISC_ADAMIGADSL
	rdf:type <http://www.assero.co.uk/Tabulation#ADaMDataset> ;
	isoC:label "Subject Level Analysis Dataset"^^xsd:string ;
	isoT:hasIdentifier <http://www.assero.co.uk/MDRItems#SI-CDISC_ADAMIGADSL-1> ;
	isoT:hasState <http://www.assero.co.uk/MDRItems#RS-CDISC_ADAMIGADSL-1> ;
	isoT:creationDate "2019-01-23T00:00:00+00:00"^^xsd:dateTime ;
	isoT:lastChangeDate "2019-01-23T00:00:00+00:00"^^xsd:dateTime ;
	isoT:changeDescription ""^^xsd:string ;
	isoT:explanatoryComment ""^^xsd:string ;
	isoT:origin ""^^xsd:string ;
	bd:ordinal "1"^^xsd:positiveInteger ;
	bd:rule ""^^xsd:string ;
	bd:prefix "--"^^xsd:string ;
	bd:structure ""^^xsd:string ;
	bd:includesColumn :AIG-CDISC_ADAMIGADSL_STUDYID ;
	bd:includesColumn :AIG-CDISC_ADAMIGADSL_USUBJID ;
	bd:includesColumn :AIG-CDISC_ADAMIGADSL_SUBJID ;
	bd:includesColumn :AIG-CDISC_ADAMIGADSL_SITEID ;
	bd:includesColumn :AIG-CDISC_ADAMIGADSL_SITEGRy ;
	bd:includesColumn :AIG-CDISC_ADAMIGADSL_SITEGRyN ;
	bd:includesColumn :AIG-CDISC_ADAMIGADSL_AGE ;
	bd:includesColumn :AIG-CDISC_ADAMIGADSL_AGEU ;
	bd:includesColumn :AIG-CDISC_ADAMIGADSL_SEX ;
	bd:includesColumn :AIG-CDISC_ADAMIGADSL_RACE ;
	bd:includesColumn :AIG-CDISC_ADAMIGADSL_RACEGRy ;
	bd:includesColumn :AIG-CDISC_ADAMIGADSL_RACEGRyN ;
	bd:includesColumn :AIG-CDISC_ADAMIGADSL_FASFL ;
	bd:includesColumn :AIG-CDISC_ADAMIGADSL_SAFFL ;
	bd:includesColumn :AIG-CDISC_ADAMIGADSL_ITTFL ;
	bd:includesColumn :AIG-CDISC_ADAMIGADSL_PPROTFL ;
	bd:includesColumn :AIG-CDISC_ADAMIGADSL_COMPLFL ;
	bd:includesColumn :AIG-CDISC_ADAMIGADSL_RANDFL ;
	bd:includesColumn :AIG-CDISC_ADAMIGADSL_ENRLFL ;
	bd:includesColumn :AIG-CDISC_ADAMIGADSL_ARM ;
	bd:includesColumn :AIG-CDISC_ADAMIGADSL_TRTxxP ;
	bd:includesColumn :AIG-CDISC_ADAMIGADSL_TRTxxPN ;
	bd:includesColumn :AIG-CDISC_ADAMIGADSL_TRTxxA ;
	bd:includesColumn :AIG-CDISC_ADAMIGADSL_TRTxxAN ;
	bd:includesColumn :AIG-CDISC_ADAMIGADSL_TRTSEQP ;
	bd:includesColumn :AIG-CDISC_ADAMIGADSL_TRTSEQPN ;
	bd:includesColumn :AIG-CDISC_ADAMIGADSL_TRTSEQA ;
	bd:includesColumn :AIG-CDISC_ADAMIGADSL_TRTSEQAN ;
	bd:includesColumn :AIG-CDISC_ADAMIGADSL_TRxxPGy ;
	bd:includesColumn :AIG-CDISC_ADAMIGADSL_TRxxPGyN ;
	bd:includesColumn :AIG-CDISC_ADAMIGADSL_TRxxAGy ;
	bd:includesColumn :AIG-CDISC_ADAMIGADSL_TRxxAGyN ;
	bd:includesColumn :AIG-CDISC_ADAMIGADSL_RANDDT ;
	bd:includesColumn :AIG-CDISC_ADAMIGADSL_TRTSDT ;
	bd:includesColumn :AIG-CDISC_ADAMIGADSL_TRTSTM ;
	bd:includesColumn :AIG-CDISC_ADAMIGADSL_TRTSDTM ;
	bd:includesColumn :AIG-CDISC_ADAMIGADSL_TRTSDTF ;
	bd:includesColumn :AIG-CDISC_ADAMIGADSL_TRTSTMF ;
	bd:includesColumn :AIG-CDISC_ADAMIGADSL_TRTEDT ;
	bd:includesColumn :AIG-CDISC_ADAMIGADSL_TRTETM ;
	bd:includesColumn :AIG-CDISC_ADAMIGADSL_TRTEDTM ;
	bd:includesColumn :AIG-CDISC_ADAMIGADSL_TRTEDTF ;
	bd:includesColumn :AIG-CDISC_ADAMIGADSL_TRTETMF ;
	bd:includesColumn :AIG-CDISC_ADAMIGADSL_TRxxSDT ;
	bd:includesColumn :AIG-CDISC_ADAMIGADSL_TRxxSTM ;
	bd:includesColumn :AIG-CDISC_ADAMIGADSL_TRxxSDTM ;
	bd:includesColumn :AIG-CDISC_ADAMIGADSL_TRxxSDTF ;
	bd:includesColumn :AIG-CDISC_ADAMIGADSL_TRxxSTMF ;
	bd:includesColumn :AIG-CDISC_ADAMIGADSL_TRxxEDT ;
	bd:includesColumn :AIG-CDISC_ADAMIGADSL_TRxxETM ;
	bd:includesColumn :AIG-CDISC_ADAMIGADSL_TRxxEDTM ;
	bd:includesColumn :AIG-CDISC_ADAMIGADSL_TRxxEDTF ;
	bd:includesColumn :AIG-CDISC_ADAMIGADSL_TRxxETMF ;
	bd:includesColumn :AIG-CDISC_ADAMIGADSL_APxxSDT ;
	bd:includesColumn :AIG-CDISC_ADAMIGADSL_APxxSTM ;
	bd:includesColumn :AIG-CDISC_ADAMIGADSL_APxxSDTM ;
	bd:includesColumn :AIG-CDISC_ADAMIGADSL_APxxSDTF ;
	bd:includesColumn :AIG-CDISC_ADAMIGADSL_APxxSTMF ;
	bd:includesColumn :AIG-CDISC_ADAMIGADSL_APxxEDT ;
	bd:includesColumn :AIG-CDISC_ADAMIGADSL_APxxETM ;
	bd:includesColumn :AIG-CDISC_ADAMIGADSL_APxxEDTM ;
	bd:includesColumn :AIG-CDISC_ADAMIGADSL_APxxEDTF ;
	bd:includesColumn :AIG-CDISC_ADAMIGADSL_APxxETMF ;
.
<http://www.assero.co.uk/MDRItems#RS-CDISC_ADAMIGADSL-1>
	rdf:type isoR:RegistrationState ;
	isoR:byAuthority <http://www.assero.co.uk/RA#DUNS084433759> ;
	isoR:registrationStatus "Standard"^^xsd:string ;
	isoR:administrativeNote ""^^xsd:string ;
	isoR:effectiveDate "2016-01-01T00:00:00+00:00"^^xsd:dateTime ;
	isoR:untilDate "2016-01-01T00:00:00+00:00"^^xsd:dateTime ;
	isoR:unresolvedIssue ""^^xsd:string ;
	isoR:administrativeStatus ""^^xsd:string ;
	isoR:previousState "Incomplete"^^xsd:string ;
.
<http://www.assero.co.uk/MDRItems#SI-CDISC_ADAMIGADSL-1>
	isoI:identifier "ADAMIG ADSL"^^xsd:string ;
	rdf:type isoI:ScopedIdentifier ;
	isoI:version "1"^^xsd:positiveInteger ;
	isoI:versionLabel "1.0.0"^^xsd:string ;
	isoI:semantic_version "1.0.0"^^xsd:string ;
	isoI:hasScope <http://www.assero.co.uk/NS#CDISC> ;
.
:AIG-CDISC_ADAMIGADSL_STUDYID
	rdf:type <http://www.assero.co.uk/Tabulation#ADaMDatasetVariable> ;
	isoC:label "Study Identifier"^^xsd:string ;
	bd:ordinal "1"^^xsd:positiveInteger ;
	bd:rule ""^^xsd:string ;
	bd:name "STUDYID"^^xsd:string ;
	bd:ct ""^^xsd:string ;
	bd:ct_notes ""^^xsd:string ;
	bd:notes "Must be identical to the SDTM variables DM.STUDYID, DM.USUBJID, DM.SUBJID and DM.SITEID."^^xsd:string ;
	bd:compliance <http://www.assero.co.uk/MDRAdamIg/CDISC/V1#AIG-CDISC_ADAMIG_C_REQUIRED> ;
	bd:typedAs <http://www.assero.co.uk/MDRAdamIg/CDISC/V1#AIG-CDISC_ADAMIG_DT_CHARACTER> ;
.
:AIG-CDISC_ADAMIGADSL_USUBJID
	rdf:type <http://www.assero.co.uk/Tabulation#ADaMDatasetVariable> ;
	isoC:label "Unique Subject Identifier"^^xsd:string ;
	bd:ordinal "2"^^xsd:positiveInteger ;
	bd:rule ""^^xsd:string ;
	bd:name "USUBJID"^^xsd:string ;
	bd:ct ""^^xsd:string ;
	bd:ct_notes ""^^xsd:string ;
	bd:notes "Must be identical to the SDTM variables DM.STUDYID, DM.USUBJID, DM.SUBJID and DM.SITEID."^^xsd:string ;
	bd:compliance <http://www.assero.co.uk/MDRAdamIg/CDISC/V1#AIG-CDISC_ADAMIG_C_REQUIRED> ;
	bd:typedAs <http://www.assero.co.uk/MDRAdamIg/CDISC/V1#AIG-CDISC_ADAMIG_DT_CHARACTER> ;
.
:AIG-CDISC_ADAMIGADSL_SUBJID
	rdf:type <http://www.assero.co.uk/Tabulation#ADaMDatasetVariable> ;
	isoC:label "Subject Identifier for the Study"^^xsd:string ;
	bd:ordinal "3"^^xsd:positiveInteger ;
	bd:rule ""^^xsd:string ;
	bd:name "SUBJID"^^xsd:string ;
	bd:ct ""^^xsd:string ;
	bd:ct_notes ""^^xsd:string ;
	bd:notes "Must be identical to the SDTM variables DM.STUDYID, DM.USUBJID, DM.SUBJID and DM.SITEID."^^xsd:string ;
	bd:compliance <http://www.assero.co.uk/MDRAdamIg/CDISC/V1#AIG-CDISC_ADAMIG_C_REQUIRED> ;
	bd:typedAs <http://www.assero.co.uk/MDRAdamIg/CDISC/V1#AIG-CDISC_ADAMIG_DT_CHARACTER> ;
.
:AIG-CDISC_ADAMIGADSL_SITEID
	rdf:type <http://www.assero.co.uk/Tabulation#ADaMDatasetVariable> ;
	isoC:label "Study Site Identifier"^^xsd:string ;
	bd:ordinal "4"^^xsd:positiveInteger ;
	bd:rule ""^^xsd:string ;
	bd:name "SITEID"^^xsd:string ;
	bd:ct ""^^xsd:string ;
	bd:ct_notes ""^^xsd:string ;
	bd:notes "Must be identical to the SDTM variables DM.STUDYID, DM.USUBJID, DM.SUBJID and DM.SITEID."^^xsd:string ;
	bd:compliance <http://www.assero.co.uk/MDRAdamIg/CDISC/V1#AIG-CDISC_ADAMIG_C_REQUIRED> ;
	bd:typedAs <http://www.assero.co.uk/MDRAdamIg/CDISC/V1#AIG-CDISC_ADAMIG_DT_CHARACTER> ;
.
:AIG-CDISC_ADAMIGADSL_SITEGRy
	rdf:type <http://www.assero.co.uk/Tabulation#ADaMDatasetVariable> ;
	isoC:label "Pooled Site Group y"^^xsd:string ;
	bd:ordinal "5"^^xsd:positiveInteger ;
	bd:rule ""^^xsd:string ;
	bd:name "SITEGRy"^^xsd:string ;
	bd:ct ""^^xsd:string ;
	bd:ct_notes ""^^xsd:string ;
	bd:notes "Character description of a grouping or pooling of clinical sites for analysis purposes. For example, SITEGR3 is the name of a variable containing site group (pooled site) names, where the grouping has been done according to the third site grouping algorithm, defined in variable metadata; SITEGR3 does not mean the third group of sites."^^xsd:string ;
	bd:compliance <http://www.assero.co.uk/MDRAdamIg/CDISC/V1#AIG-CDISC_ADAMIG_C_PERMISSIBLE> ;
	bd:typedAs <http://www.assero.co.uk/MDRAdamIg/CDISC/V1#AIG-CDISC_ADAMIG_DT_CHARACTER> ;
.
:AIG-CDISC_ADAMIGADSL_SITEGRyN
	rdf:type <http://www.assero.co.uk/Tabulation#ADaMDatasetVariable> ;
	isoC:label "Pooled Site Group y (N)"^^xsd:string ;
	bd:ordinal "6"^^xsd:positiveInteger ;
	bd:rule ""^^xsd:string ;
	bd:name "SITEGRyN"^^xsd:string ;
	bd:ct ""^^xsd:string ;
	bd:ct_notes ""^^xsd:string ;
	bd:notes "The numeric code for SITEGRy. One-to-one map to SITEGRy."^^xsd:string ;
	bd:compliance <http://www.assero.co.uk/MDRAdamIg/CDISC/V1#AIG-CDISC_ADAMIG_C_PERMISSIBLE> ;
	bd:typedAs <http://www.assero.co.uk/MDRAdamIg/CDISC/V1#AIG-CDISC_ADAMIG_DT_NUMERIC> ;
.
:AIG-CDISC_ADAMIGADSL_AGE
	rdf:type <http://www.assero.co.uk/Tabulation#ADaMDatasetVariable> ;
	isoC:label "Age"^^xsd:string ;
	bd:ordinal "7"^^xsd:positiveInteger ;
	bd:rule ""^^xsd:string ;
	bd:name "AGE"^^xsd:string ;
	bd:ct ""^^xsd:string ;
	bd:ct_notes ""^^xsd:string ;
	bd:notes "The age of the subject is a required variable in ADSL. If the variable is not a copy of DM.AGE, then an additional differently named variable must be added."^^xsd:string ;
	bd:compliance <http://www.assero.co.uk/MDRAdamIg/CDISC/V1#AIG-CDISC_ADAMIG_C_REQUIRED> ;
	bd:typedAs <http://www.assero.co.uk/MDRAdamIg/CDISC/V1#AIG-CDISC_ADAMIG_DT_NUMERIC> ;
.
:AIG-CDISC_ADAMIGADSL_AGEU
	rdf:type <http://www.assero.co.uk/Tabulation#ADaMDatasetVariable> ;
	isoC:label "Age Units"^^xsd:string ;
	bd:ordinal "8"^^xsd:positiveInteger ;
	bd:rule ""^^xsd:string ;
	bd:name "AGEU"^^xsd:string ;
	bd:ct "AGEU"^^xsd:string ;
	bd:ct_notes ""^^xsd:string ;
	bd:notes "The units for the subject's age is a required variable in ADSL. If the variable is not a copy of DM.AGEU, then an additional differently named variable must be added."^^xsd:string ;
	bd:compliance <http://www.assero.co.uk/MDRAdamIg/CDISC/V1#AIG-CDISC_ADAMIG_C_REQUIRED> ;
	bd:typedAs <http://www.assero.co.uk/MDRAdamIg/CDISC/V1#AIG-CDISC_ADAMIG_DT_CHARACTER> ;
.
:AIG-CDISC_ADAMIGADSL_SEX
	rdf:type <http://www.assero.co.uk/Tabulation#ADaMDatasetVariable> ;
	isoC:label "Sex"^^xsd:string ;
	bd:ordinal "9"^^xsd:positiveInteger ;
	bd:rule ""^^xsd:string ;
	bd:name "SEX"^^xsd:string ;
	bd:ct "SEX"^^xsd:string ;
	bd:ct_notes ""^^xsd:string ;
	bd:notes "The sex of the subject is a required variable in ADSL. If the variable is not a copy of DM.SEX, then an additional differently named variable must be added."^^xsd:string ;
	bd:compliance <http://www.assero.co.uk/MDRAdamIg/CDISC/V1#AIG-CDISC_ADAMIG_C_REQUIRED> ;
	bd:typedAs <http://www.assero.co.uk/MDRAdamIg/CDISC/V1#AIG-CDISC_ADAMIG_DT_CHARACTER> ;
.
:AIG-CDISC_ADAMIGADSL_RACE
	rdf:type <http://www.assero.co.uk/Tabulation#ADaMDatasetVariable> ;
	isoC:label "Race"^^xsd:string ;
	bd:ordinal "10"^^xsd:positiveInteger ;
	bd:rule ""^^xsd:string ;
	bd:name "RACE"^^xsd:string ;
	bd:ct "RACE"^^xsd:string ;
	bd:ct_notes ""^^xsd:string ;
	bd:notes "The race of the subject is a required variable in ADSL. If the variable is not a copy of DM.RACE, then an additional differently named variable must be added."^^xsd:string ;
	bd:compliance <http://www.assero.co.uk/MDRAdamIg/CDISC/V1#AIG-CDISC_ADAMIG_C_REQUIRED> ;
	bd:typedAs <http://www.assero.co.uk/MDRAdamIg/CDISC/V1#AIG-CDISC_ADAMIG_DT_CHARACTER> ;
.
:AIG-CDISC_ADAMIGADSL_RACEGRy
	rdf:type <http://www.assero.co.uk/Tabulation#ADaMDatasetVariable> ;
	isoC:label "Pooled Race Group y"^^xsd:string ;
	bd:ordinal "11"^^xsd:positiveInteger ;
	bd:rule ""^^xsd:string ;
	bd:name "RACEGRy"^^xsd:string ;
	bd:ct ""^^xsd:string ;
	bd:ct_notes ""^^xsd:string ;
	bd:notes "Character description of a grouping or pooling of subject race for analysis purposes."^^xsd:string ;
	bd:compliance <http://www.assero.co.uk/MDRAdamIg/CDISC/V1#AIG-CDISC_ADAMIG_C_PERMISSIBLE> ;
	bd:typedAs <http://www.assero.co.uk/MDRAdamIg/CDISC/V1#AIG-CDISC_ADAMIG_DT_CHARACTER> ;
.
:AIG-CDISC_ADAMIGADSL_RACEGRyN
	rdf:type <http://www.assero.co.uk/Tabulation#ADaMDatasetVariable> ;
	isoC:label "Pooled Race Group y (N)"^^xsd:string ;
	bd:ordinal "12"^^xsd:positiveInteger ;
	bd:rule ""^^xsd:string ;
	bd:name "RACEGRyN"^^xsd:string ;
	bd:ct ""^^xsd:string ;
	bd:ct_notes ""^^xsd:string ;
	bd:notes "The numeric code for RACEGRy. Orders the grouping or pooling of subject race for analysis and reporting. One-to-one map to RACEGRy."^^xsd:string ;
	bd:compliance <http://www.assero.co.uk/MDRAdamIg/CDISC/V1#AIG-CDISC_ADAMIG_C_PERMISSIBLE> ;
	bd:typedAs <http://www.assero.co.uk/MDRAdamIg/CDISC/V1#AIG-CDISC_ADAMIG_DT_NUMERIC> ;
.
:AIG-CDISC_ADAMIGADSL_FASFL
	rdf:type <http://www.assero.co.uk/Tabulation#ADaMDatasetVariable> ;
	isoC:label "Full Analysis Set Population Flag"^^xsd:string ;
	bd:ordinal "13"^^xsd:positiveInteger ;
	bd:rule ""^^xsd:string ;
	bd:name "FASFL"^^xsd:string ;
	bd:ct ""^^xsd:string ;
	bd:ct_notes "N, Y"^^xsd:string ;
	bd:notes "A character indicator variable is required for every population that is defined in the statistical analysis plan. A minimum of one subject-level population flag variable is required for every clinical trial. Additional population flags may be added. The values of subject-level population flags cannot be blank. If a flag is used, the corresponding numeric version (*FN) can also be included."^^xsd:string ;
	bd:compliance <http://www.assero.co.uk/MDRAdamIg/CDISC/V1#AIG-CDISC_ADAMIG_C_CONDITIONAL> ;
	bd:typedAs <http://www.assero.co.uk/MDRAdamIg/CDISC/V1#AIG-CDISC_ADAMIG_DT_CHARACTER> ;
.
:AIG-CDISC_ADAMIGADSL_SAFFL
	rdf:type <http://www.assero.co.uk/Tabulation#ADaMDatasetVariable> ;
	isoC:label "Safety Population Flag"^^xsd:string ;
	bd:ordinal "14"^^xsd:positiveInteger ;
	bd:rule ""^^xsd:string ;
	bd:name "SAFFL"^^xsd:string ;
	bd:ct ""^^xsd:string ;
	bd:ct_notes "N, Y"^^xsd:string ;
	bd:notes "A character indicator variable is required for every population that is defined in the statistical analysis plan. A minimum of one subject-level population flag variable is required for every clinical trial. Additional population flags may be added. The values of subject-level population flags cannot be blank. If a flag is used, the corresponding numeric version (*FN) can also be included."^^xsd:string ;
	bd:compliance <http://www.assero.co.uk/MDRAdamIg/CDISC/V1#AIG-CDISC_ADAMIG_C_CONDITIONAL> ;
	bd:typedAs <http://www.assero.co.uk/MDRAdamIg/CDISC/V1#AIG-CDISC_ADAMIG_DT_CHARACTER> ;
.
:AIG-CDISC_ADAMIGADSL_ITTFL
	rdf:type <http://www.assero.co.uk/Tabulation#ADaMDatasetVariable> ;
	isoC:label "Intent-To-Treat Population Flag"^^xsd:string ;
	bd:ordinal "15"^^xsd:positiveInteger ;
	bd:rule ""^^xsd:string ;
	bd:name "ITTFL"^^xsd:string ;
	bd:ct ""^^xsd:string ;
	bd:ct_notes "N, Y"^^xsd:string ;
	bd:notes "A character indicator variable is required for every population that is defined in the statistical analysis plan. A minimum of one subject-level population flag variable is required for every clinical trial. Additional population flags may be added. The values of subject-level population flags cannot be blank. If a flag is used, the corresponding numeric version (*FN) can also be included."^^xsd:string ;
	bd:compliance <http://www.assero.co.uk/MDRAdamIg/CDISC/V1#AIG-CDISC_ADAMIG_C_CONDITIONAL> ;
	bd:typedAs <http://www.assero.co.uk/MDRAdamIg/CDISC/V1#AIG-CDISC_ADAMIG_DT_CHARACTER> ;
.
:AIG-CDISC_ADAMIGADSL_PPROTFL
	rdf:type <http://www.assero.co.uk/Tabulation#ADaMDatasetVariable> ;
	isoC:label "Per-Protocol Population Flag"^^xsd:string ;
	bd:ordinal "16"^^xsd:positiveInteger ;
	bd:rule ""^^xsd:string ;
	bd:name "PPROTFL"^^xsd:string ;
	bd:ct ""^^xsd:string ;
	bd:ct_notes "N, Y"^^xsd:string ;
	bd:notes "A character indicator variable is required for every population that is defined in the statistical analysis plan. A minimum of one subject-level population flag variable is required for every clinical trial. Additional population flags may be added. The values of subject-level population flags cannot be blank. If a flag is used, the corresponding numeric version (*FN) can also be included."^^xsd:string ;
	bd:compliance <http://www.assero.co.uk/MDRAdamIg/CDISC/V1#AIG-CDISC_ADAMIG_C_CONDITIONAL> ;
	bd:typedAs <http://www.assero.co.uk/MDRAdamIg/CDISC/V1#AIG-CDISC_ADAMIG_DT_CHARACTER> ;
.
:AIG-CDISC_ADAMIGADSL_COMPLFL
	rdf:type <http://www.assero.co.uk/Tabulation#ADaMDatasetVariable> ;
	isoC:label "Completers Population Flag"^^xsd:string ;
	bd:ordinal "17"^^xsd:positiveInteger ;
	bd:rule ""^^xsd:string ;
	bd:name "COMPLFL"^^xsd:string ;
	bd:ct ""^^xsd:string ;
	bd:ct_notes "N, Y"^^xsd:string ;
	bd:notes "A character indicator variable is required for every population that is defined in the statistical analysis plan. A minimum of one subject-level population flag variable is required for every clinical trial. Additional population flags may be added. The values of subject-level population flags cannot be blank. If a flag is used, the corresponding numeric version (*FN) can also be included."^^xsd:string ;
	bd:compliance <http://www.assero.co.uk/MDRAdamIg/CDISC/V1#AIG-CDISC_ADAMIG_C_CONDITIONAL> ;
	bd:typedAs <http://www.assero.co.uk/MDRAdamIg/CDISC/V1#AIG-CDISC_ADAMIG_DT_CHARACTER> ;
.
:AIG-CDISC_ADAMIGADSL_RANDFL
	rdf:type <http://www.assero.co.uk/Tabulation#ADaMDatasetVariable> ;
	isoC:label "Randomized Population Flag"^^xsd:string ;
	bd:ordinal "18"^^xsd:positiveInteger ;
	bd:rule ""^^xsd:string ;
	bd:name "RANDFL"^^xsd:string ;
	bd:ct ""^^xsd:string ;
	bd:ct_notes "N, Y"^^xsd:string ;
	bd:notes "A character indicator variable is required for every population that is defined in the statistical analysis plan. A minimum of one subject-level population flag variable is required for every clinical trial. Additional population flags may be added. The values of subject-level population flags cannot be blank. If a flag is used, the corresponding numeric version (*FN) can also be included."^^xsd:string ;
	bd:compliance <http://www.assero.co.uk/MDRAdamIg/CDISC/V1#AIG-CDISC_ADAMIG_C_CONDITIONAL> ;
	bd:typedAs <http://www.assero.co.uk/MDRAdamIg/CDISC/V1#AIG-CDISC_ADAMIG_DT_CHARACTER> ;
.
:AIG-CDISC_ADAMIGADSL_ENRLFL
	rdf:type <http://www.assero.co.uk/Tabulation#ADaMDatasetVariable> ;
	isoC:label "Enrolled Population Flag"^^xsd:string ;
	bd:ordinal "19"^^xsd:positiveInteger ;
	bd:rule ""^^xsd:string ;
	bd:name "ENRLFL"^^xsd:string ;
	bd:ct ""^^xsd:string ;
	bd:ct_notes "N, Y"^^xsd:string ;
	bd:notes "A character indicator variable is required for every population that is defined in the statistical analysis plan. A minimum of one subject-level population flag variable is required for every clinical trial. Additional population flags may be added. The values of subject-level population flags cannot be blank. If a flag is used, the corresponding numeric version (*FN) can also be included."^^xsd:string ;
	bd:compliance <http://www.assero.co.uk/MDRAdamIg/CDISC/V1#AIG-CDISC_ADAMIG_C_CONDITIONAL> ;
	bd:typedAs <http://www.assero.co.uk/MDRAdamIg/CDISC/V1#AIG-CDISC_ADAMIG_DT_CHARACTER> ;
.
:AIG-CDISC_ADAMIGADSL_ARM
	rdf:type <http://www.assero.co.uk/Tabulation#ADaMDatasetVariable> ;
	isoC:label "Description of Planned Arm"^^xsd:string ;
	bd:ordinal "20"^^xsd:positiveInteger ;
	bd:rule ""^^xsd:string ;
	bd:name "ARM"^^xsd:string ;
	bd:ct ""^^xsd:string ;
	bd:ct_notes ""^^xsd:string ;
	bd:notes "DM.ARM"^^xsd:string ;
	bd:compliance <http://www.assero.co.uk/MDRAdamIg/CDISC/V1#AIG-CDISC_ADAMIG_C_REQUIRED> ;
	bd:typedAs <http://www.assero.co.uk/MDRAdamIg/CDISC/V1#AIG-CDISC_ADAMIG_DT_CHARACTER> ;
.
:AIG-CDISC_ADAMIGADSL_TRTxxP
	rdf:type <http://www.assero.co.uk/Tabulation#ADaMDatasetVariable> ;
	isoC:label "Planned Treatment for Period xx"^^xsd:string ;
	bd:ordinal "21"^^xsd:positiveInteger ;
	bd:rule ""^^xsd:string ;
	bd:name "TRTxxP"^^xsd:string ;
	bd:ct ""^^xsd:string ;
	bd:ct_notes ""^^xsd:string ;
	bd:notes "Subject-level identifier that represents the planned treatment for period xx. In a one-period randomized trial, TRT01P would be the treatment to which the subject was randomized. TRTxxP might be derived from the SDTM DM variable ARM. At least TRT01P is required."^^xsd:string ;
	bd:compliance <http://www.assero.co.uk/MDRAdamIg/CDISC/V1#AIG-CDISC_ADAMIG_C_REQUIRED> ;
	bd:typedAs <http://www.assero.co.uk/MDRAdamIg/CDISC/V1#AIG-CDISC_ADAMIG_DT_CHARACTER> ;
.
:AIG-CDISC_ADAMIGADSL_TRTxxPN
	rdf:type <http://www.assero.co.uk/Tabulation#ADaMDatasetVariable> ;
	isoC:label "Planned Treatment for Period xx (N)"^^xsd:string ;
	bd:ordinal "22"^^xsd:positiveInteger ;
	bd:rule ""^^xsd:string ;
	bd:name "TRTxxPN"^^xsd:string ;
	bd:ct ""^^xsd:string ;
	bd:ct_notes ""^^xsd:string ;
	bd:notes "The numeric code variable for TRTxxP. One-to-one map to TRTxxP."^^xsd:string ;
	bd:compliance <http://www.assero.co.uk/MDRAdamIg/CDISC/V1#AIG-CDISC_ADAMIG_C_PERMISSIBLE> ;
	bd:typedAs <http://www.assero.co.uk/MDRAdamIg/CDISC/V1#AIG-CDISC_ADAMIG_DT_NUMERIC> ;
.
:AIG-CDISC_ADAMIGADSL_TRTxxA
	rdf:type <http://www.assero.co.uk/Tabulation#ADaMDatasetVariable> ;
	isoC:label "Actual Treatment for Period xx"^^xsd:string ;
	bd:ordinal "23"^^xsd:positiveInteger ;
	bd:rule ""^^xsd:string ;
	bd:name "TRTxxA"^^xsd:string ;
	bd:ct ""^^xsd:string ;
	bd:ct_notes ""^^xsd:string ;
	bd:notes "Subject-level identifier that represents the actual treatment for the subject for period xx. Required when actual treatment does not match planned and there is an analysis of the data as treated."^^xsd:string ;
	bd:compliance <http://www.assero.co.uk/MDRAdamIg/CDISC/V1#AIG-CDISC_ADAMIG_C_CONDITIONAL> ;
	bd:typedAs <http://www.assero.co.uk/MDRAdamIg/CDISC/V1#AIG-CDISC_ADAMIG_DT_CHARACTER> ;
.
:AIG-CDISC_ADAMIGADSL_TRTxxAN
	rdf:type <http://www.assero.co.uk/Tabulation#ADaMDatasetVariable> ;
	isoC:label "Actual Treatment for Period xx (N)"^^xsd:string ;
	bd:ordinal "24"^^xsd:positiveInteger ;
	bd:rule ""^^xsd:string ;
	bd:name "TRTxxAN"^^xsd:string ;
	bd:ct ""^^xsd:string ;
	bd:ct_notes ""^^xsd:string ;
	bd:notes "The numeric code variable for TRTxxA. One-to-one map to TRTxxA."^^xsd:string ;
	bd:compliance <http://www.assero.co.uk/MDRAdamIg/CDISC/V1#AIG-CDISC_ADAMIG_C_PERMISSIBLE> ;
	bd:typedAs <http://www.assero.co.uk/MDRAdamIg/CDISC/V1#AIG-CDISC_ADAMIG_DT_NUMERIC> ;
.
:AIG-CDISC_ADAMIGADSL_TRTSEQP
	rdf:type <http://www.assero.co.uk/Tabulation#ADaMDatasetVariable> ;
	isoC:label "Planned Sequence of Treatments"^^xsd:string ;
	bd:ordinal "25"^^xsd:positiveInteger ;
	bd:rule ""^^xsd:string ;
	bd:name "TRTSEQP"^^xsd:string ;
	bd:ct ""^^xsd:string ;
	bd:ct_notes ""^^xsd:string ;
	bd:notes "Required when there is a sequence of treatments that are analyzed, for example in a crossover design. TRTSEQP is not necessarily equal to ARM, for example if ARM contains elements that are not relevant to analysis of treatments or ARM is not fully descriptive (e.g., 'GROUP 1,' 'GROUP 2'). Whenever applicable, TRTSEQP is required even if identical to ARM."^^xsd:string ;
	bd:compliance <http://www.assero.co.uk/MDRAdamIg/CDISC/V1#AIG-CDISC_ADAMIG_C_CONDITIONAL> ;
	bd:typedAs <http://www.assero.co.uk/MDRAdamIg/CDISC/V1#AIG-CDISC_ADAMIG_DT_CHARACTER> ;
.
:AIG-CDISC_ADAMIGADSL_TRTSEQPN
	rdf:type <http://www.assero.co.uk/Tabulation#ADaMDatasetVariable> ;
	isoC:label "Planned Sequence of Treatments (N)"^^xsd:string ;
	bd:ordinal "26"^^xsd:positiveInteger ;
	bd:rule ""^^xsd:string ;
	bd:name "TRTSEQPN"^^xsd:string ;
	bd:ct ""^^xsd:string ;
	bd:ct_notes ""^^xsd:string ;
	bd:notes "Numeric version of TRTSEQP. One-to-one map to TRTSEQP."^^xsd:string ;
	bd:compliance <http://www.assero.co.uk/MDRAdamIg/CDISC/V1#AIG-CDISC_ADAMIG_C_PERMISSIBLE> ;
	bd:typedAs <http://www.assero.co.uk/MDRAdamIg/CDISC/V1#AIG-CDISC_ADAMIG_DT_NUMERIC> ;
.
:AIG-CDISC_ADAMIGADSL_TRTSEQA
	rdf:type <http://www.assero.co.uk/Tabulation#ADaMDatasetVariable> ;
	isoC:label "Actual Sequence of Treatments"^^xsd:string ;
	bd:ordinal "27"^^xsd:positiveInteger ;
	bd:rule ""^^xsd:string ;
	bd:name "TRTSEQA"^^xsd:string ;
	bd:ct ""^^xsd:string ;
	bd:ct_notes ""^^xsd:string ;
	bd:notes "TRTSEQA is required if a situation occurred in the conduct of the trial where a subject received a sequence of treatments other than what was planned."^^xsd:string ;
	bd:compliance <http://www.assero.co.uk/MDRAdamIg/CDISC/V1#AIG-CDISC_ADAMIG_C_CONDITIONAL> ;
	bd:typedAs <http://www.assero.co.uk/MDRAdamIg/CDISC/V1#AIG-CDISC_ADAMIG_DT_CHARACTER> ;
.
:AIG-CDISC_ADAMIGADSL_TRTSEQAN
	rdf:type <http://www.assero.co.uk/Tabulation#ADaMDatasetVariable> ;
	isoC:label "Actual Sequence of Treatments (N)"^^xsd:string ;
	bd:ordinal "28"^^xsd:positiveInteger ;
	bd:rule ""^^xsd:string ;
	bd:name "TRTSEQAN"^^xsd:string ;
	bd:ct ""^^xsd:string ;
	bd:ct_notes ""^^xsd:string ;
	bd:notes "Numeric version of TRTSEQA. One-to-one map to TRTSEQA."^^xsd:string ;
	bd:compliance <http://www.assero.co.uk/MDRAdamIg/CDISC/V1#AIG-CDISC_ADAMIG_C_PERMISSIBLE> ;
	bd:typedAs <http://www.assero.co.uk/MDRAdamIg/CDISC/V1#AIG-CDISC_ADAMIG_DT_NUMERIC> ;
.
:AIG-CDISC_ADAMIGADSL_TRxxPGy
	rdf:type <http://www.assero.co.uk/Tabulation#ADaMDatasetVariable> ;
	isoC:label "Planned Pooled Treatment y for Period xx"^^xsd:string ;
	bd:ordinal "29"^^xsd:positiveInteger ;
	bd:rule ""^^xsd:string ;
	bd:name "TRxxPGy"^^xsd:string ;
	bd:ct ""^^xsd:string ;
	bd:ct_notes ""^^xsd:string ;
	bd:notes "Planned pooled treatment y for period xx. Useful when planned treatments (TRTxxP) in the specified period xx are pooled together for analysis according to pooling algorithm y. For example when in period 2 the first pooling algorithm dictates that all doses of Drug A (TR02PG1='All doses of Drug A') are pooled together for comparison to all doses of Drug B (TR02PG1='All doses of Drug B'). Each value of TRTxxP is pooled within at most one value of TRxxPGy."^^xsd:string ;
	bd:compliance <http://www.assero.co.uk/MDRAdamIg/CDISC/V1#AIG-CDISC_ADAMIG_C_PERMISSIBLE> ;
	bd:typedAs <http://www.assero.co.uk/MDRAdamIg/CDISC/V1#AIG-CDISC_ADAMIG_DT_CHARACTER> ;
.
:AIG-CDISC_ADAMIGADSL_TRxxPGyN
	rdf:type <http://www.assero.co.uk/Tabulation#ADaMDatasetVariable> ;
	isoC:label "Planned Pooled Trt y for Period xx (N)"^^xsd:string ;
	bd:ordinal "30"^^xsd:positiveInteger ;
	bd:rule ""^^xsd:string ;
	bd:name "TRxxPGyN"^^xsd:string ;
	bd:ct ""^^xsd:string ;
	bd:ct_notes ""^^xsd:string ;
	bd:notes "The numeric code for TRxxPGy. One-to-one map to TRxxPGy."^^xsd:string ;
	bd:compliance <http://www.assero.co.uk/MDRAdamIg/CDISC/V1#AIG-CDISC_ADAMIG_C_PERMISSIBLE> ;
	bd:typedAs <http://www.assero.co.uk/MDRAdamIg/CDISC/V1#AIG-CDISC_ADAMIG_DT_CHARACTER> ;
.
:AIG-CDISC_ADAMIGADSL_TRxxAGy
	rdf:type <http://www.assero.co.uk/Tabulation#ADaMDatasetVariable> ;
	isoC:label "Actual Pooled Treatment y for Period xx"^^xsd:string ;
	bd:ordinal "31"^^xsd:positiveInteger ;
	bd:rule ""^^xsd:string ;
	bd:name "TRxxAGy"^^xsd:string ;
	bd:ct ""^^xsd:string ;
	bd:ct_notes ""^^xsd:string ;
	bd:notes "Actual pooled treatment y for period xx. Required when TRxxPGy is present and TRTxxA is present."^^xsd:string ;
	bd:compliance <http://www.assero.co.uk/MDRAdamIg/CDISC/V1#AIG-CDISC_ADAMIG_C_CONDITIONAL> ;
	bd:typedAs <http://www.assero.co.uk/MDRAdamIg/CDISC/V1#AIG-CDISC_ADAMIG_DT_CHARACTER> ;
.
:AIG-CDISC_ADAMIGADSL_TRxxAGyN
	rdf:type <http://www.assero.co.uk/Tabulation#ADaMDatasetVariable> ;
	isoC:label "Actual Pooled Trt y for Period xx (N)"^^xsd:string ;
	bd:ordinal "32"^^xsd:positiveInteger ;
	bd:rule ""^^xsd:string ;
	bd:name "TRxxAGyN"^^xsd:string ;
	bd:ct ""^^xsd:string ;
	bd:ct_notes ""^^xsd:string ;
	bd:notes "The numeric code for TRxxAGy. One-to-one map to TRxxAGy."^^xsd:string ;
	bd:compliance <http://www.assero.co.uk/MDRAdamIg/CDISC/V1#AIG-CDISC_ADAMIG_C_PERMISSIBLE> ;
	bd:typedAs <http://www.assero.co.uk/MDRAdamIg/CDISC/V1#AIG-CDISC_ADAMIG_DT_CHARACTER> ;
.
:AIG-CDISC_ADAMIGADSL_RANDDT
	rdf:type <http://www.assero.co.uk/Tabulation#ADaMDatasetVariable> ;
	isoC:label "Date of Randomization"^^xsd:string ;
	bd:ordinal "33"^^xsd:positiveInteger ;
	bd:rule ""^^xsd:string ;
	bd:name "RANDDT"^^xsd:string ;
	bd:ct ""^^xsd:string ;
	bd:ct_notes ""^^xsd:string ;
	bd:notes "Required in randomized trials"^^xsd:string ;
	bd:compliance <http://www.assero.co.uk/MDRAdamIg/CDISC/V1#AIG-CDISC_ADAMIG_C_CONDITIONAL> ;
	bd:typedAs <http://www.assero.co.uk/MDRAdamIg/CDISC/V1#AIG-CDISC_ADAMIG_DT_NUMERIC> ;
.
:AIG-CDISC_ADAMIGADSL_TRTSDT
	rdf:type <http://www.assero.co.uk/Tabulation#ADaMDatasetVariable> ;
	isoC:label "Date of First Exposure to Treatment"^^xsd:string ;
	bd:ordinal "34"^^xsd:positiveInteger ;
	bd:rule ""^^xsd:string ;
	bd:name "TRTSDT"^^xsd:string ;
	bd:ct ""^^xsd:string ;
	bd:ct_notes ""^^xsd:string ;
	bd:notes "Date of first exposure to treatment for a subject in a study. TRTSDT and/or TRTSDTM are required if there is an investigational product."^^xsd:string ;
	bd:compliance <http://www.assero.co.uk/MDRAdamIg/CDISC/V1#AIG-CDISC_ADAMIG_C_CONDITIONAL> ;
	bd:typedAs <http://www.assero.co.uk/MDRAdamIg/CDISC/V1#AIG-CDISC_ADAMIG_DT_NUMERIC> ;
.
:AIG-CDISC_ADAMIGADSL_TRTSTM
	rdf:type <http://www.assero.co.uk/Tabulation#ADaMDatasetVariable> ;
	isoC:label "Time of First Exposure to Treatment"^^xsd:string ;
	bd:ordinal "35"^^xsd:positiveInteger ;
	bd:rule ""^^xsd:string ;
	bd:name "TRTSTM"^^xsd:string ;
	bd:ct ""^^xsd:string ;
	bd:ct_notes ""^^xsd:string ;
	bd:notes "Time of first exposure to treatment for a subject in a study."^^xsd:string ;
	bd:compliance <http://www.assero.co.uk/MDRAdamIg/CDISC/V1#AIG-CDISC_ADAMIG_C_PERMISSIBLE> ;
	bd:typedAs <http://www.assero.co.uk/MDRAdamIg/CDISC/V1#AIG-CDISC_ADAMIG_DT_NUMERIC> ;
.
:AIG-CDISC_ADAMIGADSL_TRTSDTM
	rdf:type <http://www.assero.co.uk/Tabulation#ADaMDatasetVariable> ;
	isoC:label "Datetime of First Exposure to Treatment"^^xsd:string ;
	bd:ordinal "36"^^xsd:positiveInteger ;
	bd:rule ""^^xsd:string ;
	bd:name "TRTSDTM"^^xsd:string ;
	bd:ct ""^^xsd:string ;
	bd:ct_notes ""^^xsd:string ;
	bd:notes "Datetime of first exposure to treatment for a subject in a study. TRTSDT and/or TRTSDTM are required if there is an investigational product."^^xsd:string ;
	bd:compliance <http://www.assero.co.uk/MDRAdamIg/CDISC/V1#AIG-CDISC_ADAMIG_C_CONDITIONAL> ;
	bd:typedAs <http://www.assero.co.uk/MDRAdamIg/CDISC/V1#AIG-CDISC_ADAMIG_DT_NUMERIC> ;
.
:AIG-CDISC_ADAMIGADSL_TRTSDTF
	rdf:type <http://www.assero.co.uk/Tabulation#ADaMDatasetVariable> ;
	isoC:label "Date of First Exposure Imput. Flag"^^xsd:string ;
	bd:ordinal "37"^^xsd:positiveInteger ;
	bd:rule ""^^xsd:string ;
	bd:name "TRTSDTF"^^xsd:string ;
	bd:ct "DATEFL"^^xsd:string ;
	bd:ct_notes ""^^xsd:string ;
	bd:notes "The level of imputation of date of first exposure to treatment. See General Timing Variable Convention #6."^^xsd:string ;
	bd:compliance <http://www.assero.co.uk/MDRAdamIg/CDISC/V1#AIG-CDISC_ADAMIG_C_CONDITIONAL> ;
	bd:typedAs <http://www.assero.co.uk/MDRAdamIg/CDISC/V1#AIG-CDISC_ADAMIG_DT_CHARACTER> ;
.
:AIG-CDISC_ADAMIGADSL_TRTSTMF
	rdf:type <http://www.assero.co.uk/Tabulation#ADaMDatasetVariable> ;
	isoC:label "Time of First Exposure Imput. Flag"^^xsd:string ;
	bd:ordinal "38"^^xsd:positiveInteger ;
	bd:rule ""^^xsd:string ;
	bd:name "TRTSTMF"^^xsd:string ;
	bd:ct "TIMEFL"^^xsd:string ;
	bd:ct_notes ""^^xsd:string ;
	bd:notes "The level of imputation of time of first exposure to treatment. See General Timing Variable Convention #7."^^xsd:string ;
	bd:compliance <http://www.assero.co.uk/MDRAdamIg/CDISC/V1#AIG-CDISC_ADAMIG_C_CONDITIONAL> ;
	bd:typedAs <http://www.assero.co.uk/MDRAdamIg/CDISC/V1#AIG-CDISC_ADAMIG_DT_CHARACTER> ;
.
:AIG-CDISC_ADAMIGADSL_TRTEDT
	rdf:type <http://www.assero.co.uk/Tabulation#ADaMDatasetVariable> ;
	isoC:label "Date of Last Exposure to Treatment"^^xsd:string ;
	bd:ordinal "39"^^xsd:positiveInteger ;
	bd:rule ""^^xsd:string ;
	bd:name "TRTEDT"^^xsd:string ;
	bd:ct ""^^xsd:string ;
	bd:ct_notes ""^^xsd:string ;
	bd:notes "Date of last exposure to treatment for a subject in a study. TRTEDT and/or TRTEDTM are required if there is an investigational product."^^xsd:string ;
	bd:compliance <http://www.assero.co.uk/MDRAdamIg/CDISC/V1#AIG-CDISC_ADAMIG_C_CONDITIONAL> ;
	bd:typedAs <http://www.assero.co.uk/MDRAdamIg/CDISC/V1#AIG-CDISC_ADAMIG_DT_NUMERIC> ;
.
:AIG-CDISC_ADAMIGADSL_TRTETM
	rdf:type <http://www.assero.co.uk/Tabulation#ADaMDatasetVariable> ;
	isoC:label "Time of Last Exposure to Treatment"^^xsd:string ;
	bd:ordinal "40"^^xsd:positiveInteger ;
	bd:rule ""^^xsd:string ;
	bd:name "TRTETM"^^xsd:string ;
	bd:ct ""^^xsd:string ;
	bd:ct_notes ""^^xsd:string ;
	bd:notes "Time of last exposure to treatment for a subject in a study."^^xsd:string ;
	bd:compliance <http://www.assero.co.uk/MDRAdamIg/CDISC/V1#AIG-CDISC_ADAMIG_C_PERMISSIBLE> ;
	bd:typedAs <http://www.assero.co.uk/MDRAdamIg/CDISC/V1#AIG-CDISC_ADAMIG_DT_NUMERIC> ;
.
:AIG-CDISC_ADAMIGADSL_TRTEDTM
	rdf:type <http://www.assero.co.uk/Tabulation#ADaMDatasetVariable> ;
	isoC:label "Datetime of Last Exposure to Treatment"^^xsd:string ;
	bd:ordinal "41"^^xsd:positiveInteger ;
	bd:rule ""^^xsd:string ;
	bd:name "TRTEDTM"^^xsd:string ;
	bd:ct ""^^xsd:string ;
	bd:ct_notes ""^^xsd:string ;
	bd:notes "Datetime of last exposure to treatment for a subject in a study. TRTEDT and/or TRTEDTM are required if there is an investigational product."^^xsd:string ;
	bd:compliance <http://www.assero.co.uk/MDRAdamIg/CDISC/V1#AIG-CDISC_ADAMIG_C_CONDITIONAL> ;
	bd:typedAs <http://www.assero.co.uk/MDRAdamIg/CDISC/V1#AIG-CDISC_ADAMIG_DT_NUMERIC> ;
.
:AIG-CDISC_ADAMIGADSL_TRTEDTF
	rdf:type <http://www.assero.co.uk/Tabulation#ADaMDatasetVariable> ;
	isoC:label "Date of Last Exposure Imput. Flag"^^xsd:string ;
	bd:ordinal "42"^^xsd:positiveInteger ;
	bd:rule ""^^xsd:string ;
	bd:name "TRTEDTF"^^xsd:string ;
	bd:ct "DATEFL"^^xsd:string ;
	bd:ct_notes ""^^xsd:string ;
	bd:notes "The level of imputation of date of last exposure to treatment. See General Timing Variable Convention #6."^^xsd:string ;
	bd:compliance <http://www.assero.co.uk/MDRAdamIg/CDISC/V1#AIG-CDISC_ADAMIG_C_CONDITIONAL> ;
	bd:typedAs <http://www.assero.co.uk/MDRAdamIg/CDISC/V1#AIG-CDISC_ADAMIG_DT_CHARACTER> ;
.
:AIG-CDISC_ADAMIGADSL_TRTETMF
	rdf:type <http://www.assero.co.uk/Tabulation#ADaMDatasetVariable> ;
	isoC:label "Time of Last Exposure Imput. Flag"^^xsd:string ;
	bd:ordinal "43"^^xsd:positiveInteger ;
	bd:rule ""^^xsd:string ;
	bd:name "TRTETMF"^^xsd:string ;
	bd:ct "TIMEFL"^^xsd:string ;
	bd:ct_notes ""^^xsd:string ;
	bd:notes "The level of imputation of time of last exposure to treatment. See General Timing Variable Convention #7."^^xsd:string ;
	bd:compliance <http://www.assero.co.uk/MDRAdamIg/CDISC/V1#AIG-CDISC_ADAMIG_C_CONDITIONAL> ;
	bd:typedAs <http://www.assero.co.uk/MDRAdamIg/CDISC/V1#AIG-CDISC_ADAMIG_DT_CHARACTER> ;
.
:AIG-CDISC_ADAMIGADSL_TRxxSDT
	rdf:type <http://www.assero.co.uk/Tabulation#ADaMDatasetVariable> ;
	isoC:label "Date of First Exposure in Period xx"^^xsd:string ;
	bd:ordinal "44"^^xsd:positiveInteger ;
	bd:rule ""^^xsd:string ;
	bd:name "TRxxSDT"^^xsd:string ;
	bd:ct ""^^xsd:string ;
	bd:ct_notes ""^^xsd:string ;
	bd:notes "Date of first exposure to treatment in period xx. TRxxSDT and/or TRxxSDTM is required in trial designs where multiple treatments are given to the same subject, such as a crossover design. Also useful in designs where multiple periods exist for the same treatment (i.e., multiple cycles of the same study treatment)."^^xsd:string ;
	bd:compliance <http://www.assero.co.uk/MDRAdamIg/CDISC/V1#AIG-CDISC_ADAMIG_C_CONDITIONAL> ;
	bd:typedAs <http://www.assero.co.uk/MDRAdamIg/CDISC/V1#AIG-CDISC_ADAMIG_DT_NUMERIC> ;
.
:AIG-CDISC_ADAMIGADSL_TRxxSTM
	rdf:type <http://www.assero.co.uk/Tabulation#ADaMDatasetVariable> ;
	isoC:label "Time of First Exposure in Period xx"^^xsd:string ;
	bd:ordinal "45"^^xsd:positiveInteger ;
	bd:rule ""^^xsd:string ;
	bd:name "TRxxSTM"^^xsd:string ;
	bd:ct ""^^xsd:string ;
	bd:ct_notes ""^^xsd:string ;
	bd:notes "The starting time of exposure in period xx. TRxxSTM and/or TRxxSDTM are required in trial designs where multiple treatments are given to the same subject, such as a crossover design, and time is important to the analysis."^^xsd:string ;
	bd:compliance <http://www.assero.co.uk/MDRAdamIg/CDISC/V1#AIG-CDISC_ADAMIG_C_CONDITIONAL> ;
	bd:typedAs <http://www.assero.co.uk/MDRAdamIg/CDISC/V1#AIG-CDISC_ADAMIG_DT_NUMERIC> ;
.
:AIG-CDISC_ADAMIGADSL_TRxxSDTM
	rdf:type <http://www.assero.co.uk/Tabulation#ADaMDatasetVariable> ;
	isoC:label "Datetime of First Exposure in Period xx"^^xsd:string ;
	bd:ordinal "46"^^xsd:positiveInteger ;
	bd:rule ""^^xsd:string ;
	bd:name "TRxxSDTM"^^xsd:string ;
	bd:ct ""^^xsd:string ;
	bd:ct_notes ""^^xsd:string ;
	bd:notes "Datetime of first exposure to treatment in period xx. TRxxSDT and/or TRxxSDTM are required in trial designs where multiple treatments are given to the same subject, such as a crossover design."^^xsd:string ;
	bd:compliance <http://www.assero.co.uk/MDRAdamIg/CDISC/V1#AIG-CDISC_ADAMIG_C_CONDITIONAL> ;
	bd:typedAs <http://www.assero.co.uk/MDRAdamIg/CDISC/V1#AIG-CDISC_ADAMIG_DT_NUMERIC> ;
.
:AIG-CDISC_ADAMIGADSL_TRxxSDTF
	rdf:type <http://www.assero.co.uk/Tabulation#ADaMDatasetVariable> ;
	isoC:label "Date 1st Exposure Period xx Imput. Flag"^^xsd:string ;
	bd:ordinal "47"^^xsd:positiveInteger ;
	bd:rule ""^^xsd:string ;
	bd:name "TRxxSDTF"^^xsd:string ;
	bd:ct "DATEFL"^^xsd:string ;
	bd:ct_notes ""^^xsd:string ;
	bd:notes "The level of imputation of date of first exposure to treatment in period xx. See General Timing Variable Convention #6."^^xsd:string ;
	bd:compliance <http://www.assero.co.uk/MDRAdamIg/CDISC/V1#AIG-CDISC_ADAMIG_C_CONDITIONAL> ;
	bd:typedAs <http://www.assero.co.uk/MDRAdamIg/CDISC/V1#AIG-CDISC_ADAMIG_DT_CHARACTER> ;
.
:AIG-CDISC_ADAMIGADSL_TRxxSTMF
	rdf:type <http://www.assero.co.uk/Tabulation#ADaMDatasetVariable> ;
	isoC:label "Time 1st Exposure Period xx Imput. Flag"^^xsd:string ;
	bd:ordinal "48"^^xsd:positiveInteger ;
	bd:rule ""^^xsd:string ;
	bd:name "TRxxSTMF"^^xsd:string ;
	bd:ct "TIMEFL"^^xsd:string ;
	bd:ct_notes ""^^xsd:string ;
	bd:notes "The level of imputation of time of first exposure in period xx. See General Timing Variable Convention #7."^^xsd:string ;
	bd:compliance <http://www.assero.co.uk/MDRAdamIg/CDISC/V1#AIG-CDISC_ADAMIG_C_CONDITIONAL> ;
	bd:typedAs <http://www.assero.co.uk/MDRAdamIg/CDISC/V1#AIG-CDISC_ADAMIG_DT_CHARACTER> ;
.
:AIG-CDISC_ADAMIGADSL_TRxxEDT
	rdf:type <http://www.assero.co.uk/Tabulation#ADaMDatasetVariable> ;
	isoC:label "Date of Last Exposure in Period xx"^^xsd:string ;
	bd:ordinal "49"^^xsd:positiveInteger ;
	bd:rule ""^^xsd:string ;
	bd:name "TRxxEDT"^^xsd:string ;
	bd:ct ""^^xsd:string ;
	bd:ct_notes ""^^xsd:string ;
	bd:notes "Date of last exposure in period xx. TRxxEDT and/or TRxxEDTM are required in trial designs where multiple treatments are given to the same subject, such as a crossover design."^^xsd:string ;
	bd:compliance <http://www.assero.co.uk/MDRAdamIg/CDISC/V1#AIG-CDISC_ADAMIG_C_CONDITIONAL> ;
	bd:typedAs <http://www.assero.co.uk/MDRAdamIg/CDISC/V1#AIG-CDISC_ADAMIG_DT_NUMERIC> ;
.
:AIG-CDISC_ADAMIGADSL_TRxxETM
	rdf:type <http://www.assero.co.uk/Tabulation#ADaMDatasetVariable> ;
	isoC:label "Time of Last Exposure in Period xx"^^xsd:string ;
	bd:ordinal "50"^^xsd:positiveInteger ;
	bd:rule ""^^xsd:string ;
	bd:name "TRxxETM"^^xsd:string ;
	bd:ct ""^^xsd:string ;
	bd:ct_notes ""^^xsd:string ;
	bd:notes "The ending time of exposure in period xx. TRxxETM and/or TRxxEDTM are required in trial designs where multiple treatments are given to the same subject, such as a crossover design, and ending time is important to the analysis."^^xsd:string ;
	bd:compliance <http://www.assero.co.uk/MDRAdamIg/CDISC/V1#AIG-CDISC_ADAMIG_C_CONDITIONAL> ;
	bd:typedAs <http://www.assero.co.uk/MDRAdamIg/CDISC/V1#AIG-CDISC_ADAMIG_DT_NUMERIC> ;
.
:AIG-CDISC_ADAMIGADSL_TRxxEDTM
	rdf:type <http://www.assero.co.uk/Tabulation#ADaMDatasetVariable> ;
	isoC:label "Datetime of Last Exposure in Period xx"^^xsd:string ;
	bd:ordinal "51"^^xsd:positiveInteger ;
	bd:rule ""^^xsd:string ;
	bd:name "TRxxEDTM"^^xsd:string ;
	bd:ct ""^^xsd:string ;
	bd:ct_notes ""^^xsd:string ;
	bd:notes "The datetime of last exposure to treatment in period xx. TRxxEDT and/or TRxxEDTM are required in trial designs where multiple treatments are given to the same subject, such as a crossover design."^^xsd:string ;
	bd:compliance <http://www.assero.co.uk/MDRAdamIg/CDISC/V1#AIG-CDISC_ADAMIG_C_CONDITIONAL> ;
	bd:typedAs <http://www.assero.co.uk/MDRAdamIg/CDISC/V1#AIG-CDISC_ADAMIG_DT_NUMERIC> ;
.
:AIG-CDISC_ADAMIGADSL_TRxxEDTF
	rdf:type <http://www.assero.co.uk/Tabulation#ADaMDatasetVariable> ;
	isoC:label "Date Last Exposure Period xx Imput. Flag"^^xsd:string ;
	bd:ordinal "52"^^xsd:positiveInteger ;
	bd:rule ""^^xsd:string ;
	bd:name "TRxxEDTF"^^xsd:string ;
	bd:ct "DATEFL"^^xsd:string ;
	bd:ct_notes ""^^xsd:string ;
	bd:notes "The level of imputation of date of last exposure in period xx. See General Timing Variable Convention #6."^^xsd:string ;
	bd:compliance <http://www.assero.co.uk/MDRAdamIg/CDISC/V1#AIG-CDISC_ADAMIG_C_CONDITIONAL> ;
	bd:typedAs <http://www.assero.co.uk/MDRAdamIg/CDISC/V1#AIG-CDISC_ADAMIG_DT_CHARACTER> ;
.
:AIG-CDISC_ADAMIGADSL_TRxxETMF
	rdf:type <http://www.assero.co.uk/Tabulation#ADaMDatasetVariable> ;
	isoC:label "Time Last Exposure Period xx Imput. Flag"^^xsd:string ;
	bd:ordinal "53"^^xsd:positiveInteger ;
	bd:rule ""^^xsd:string ;
	bd:name "TRxxETMF"^^xsd:string ;
	bd:ct "TIMEFL"^^xsd:string ;
	bd:ct_notes ""^^xsd:string ;
	bd:notes "The level of imputation of time of last exposure in period xx. See General Timing Variable Convention #7."^^xsd:string ;
	bd:compliance <http://www.assero.co.uk/MDRAdamIg/CDISC/V1#AIG-CDISC_ADAMIG_C_CONDITIONAL> ;
	bd:typedAs <http://www.assero.co.uk/MDRAdamIg/CDISC/V1#AIG-CDISC_ADAMIG_DT_CHARACTER> ;
.
:AIG-CDISC_ADAMIGADSL_APxxSDT
	rdf:type <http://www.assero.co.uk/Tabulation#ADaMDatasetVariable> ;
	isoC:label "Period xx Start Date"^^xsd:string ;
	bd:ordinal "54"^^xsd:positiveInteger ;
	bd:rule ""^^xsd:string ;
	bd:name "APxxSDT"^^xsd:string ;
	bd:ct ""^^xsd:string ;
	bd:ct_notes ""^^xsd:string ;
	bd:notes "The starting date of period xx."^^xsd:string ;
	bd:compliance <http://www.assero.co.uk/MDRAdamIg/CDISC/V1#AIG-CDISC_ADAMIG_C_PERMISSIBLE> ;
	bd:typedAs <http://www.assero.co.uk/MDRAdamIg/CDISC/V1#AIG-CDISC_ADAMIG_DT_NUMERIC> ;
.
:AIG-CDISC_ADAMIGADSL_APxxSTM
	rdf:type <http://www.assero.co.uk/Tabulation#ADaMDatasetVariable> ;
	isoC:label "Period xx Start Time"^^xsd:string ;
	bd:ordinal "55"^^xsd:positiveInteger ;
	bd:rule ""^^xsd:string ;
	bd:name "APxxSTM"^^xsd:string ;
	bd:ct ""^^xsd:string ;
	bd:ct_notes ""^^xsd:string ;
	bd:notes "The starting time of period xx."^^xsd:string ;
	bd:compliance <http://www.assero.co.uk/MDRAdamIg/CDISC/V1#AIG-CDISC_ADAMIG_C_PERMISSIBLE> ;
	bd:typedAs <http://www.assero.co.uk/MDRAdamIg/CDISC/V1#AIG-CDISC_ADAMIG_DT_NUMERIC> ;
.
:AIG-CDISC_ADAMIGADSL_APxxSDTM
	rdf:type <http://www.assero.co.uk/Tabulation#ADaMDatasetVariable> ;
	isoC:label "Period xx Start Datetime"^^xsd:string ;
	bd:ordinal "56"^^xsd:positiveInteger ;
	bd:rule ""^^xsd:string ;
	bd:name "APxxSDTM"^^xsd:string ;
	bd:ct ""^^xsd:string ;
	bd:ct_notes ""^^xsd:string ;
	bd:notes "The starting datetime of period xx."^^xsd:string ;
	bd:compliance <http://www.assero.co.uk/MDRAdamIg/CDISC/V1#AIG-CDISC_ADAMIG_C_PERMISSIBLE> ;
	bd:typedAs <http://www.assero.co.uk/MDRAdamIg/CDISC/V1#AIG-CDISC_ADAMIG_DT_NUMERIC> ;
.
:AIG-CDISC_ADAMIGADSL_APxxSDTF
	rdf:type <http://www.assero.co.uk/Tabulation#ADaMDatasetVariable> ;
	isoC:label "Period xx Start Date Imput. Flag"^^xsd:string ;
	bd:ordinal "57"^^xsd:positiveInteger ;
	bd:rule ""^^xsd:string ;
	bd:name "APxxSDTF"^^xsd:string ;
	bd:ct "DATEFL"^^xsd:string ;
	bd:ct_notes ""^^xsd:string ;
	bd:notes "The level of imputation of period xx start date. See General Timing Variable Convention #6."^^xsd:string ;
	bd:compliance <http://www.assero.co.uk/MDRAdamIg/CDISC/V1#AIG-CDISC_ADAMIG_C_CONDITIONAL> ;
	bd:typedAs <http://www.assero.co.uk/MDRAdamIg/CDISC/V1#AIG-CDISC_ADAMIG_DT_CHARACTER> ;
.
:AIG-CDISC_ADAMIGADSL_APxxSTMF
	rdf:type <http://www.assero.co.uk/Tabulation#ADaMDatasetVariable> ;
	isoC:label "Period xx Start Time Imput. Flag"^^xsd:string ;
	bd:ordinal "58"^^xsd:positiveInteger ;
	bd:rule ""^^xsd:string ;
	bd:name "APxxSTMF"^^xsd:string ;
	bd:ct "TIMEFL"^^xsd:string ;
	bd:ct_notes ""^^xsd:string ;
	bd:notes "The level of imputation of period xx start time. See General Timing Variable Convention #7."^^xsd:string ;
	bd:compliance <http://www.assero.co.uk/MDRAdamIg/CDISC/V1#AIG-CDISC_ADAMIG_C_CONDITIONAL> ;
	bd:typedAs <http://www.assero.co.uk/MDRAdamIg/CDISC/V1#AIG-CDISC_ADAMIG_DT_CHARACTER> ;
.
:AIG-CDISC_ADAMIGADSL_APxxEDT
	rdf:type <http://www.assero.co.uk/Tabulation#ADaMDatasetVariable> ;
	isoC:label "Period xx End Date"^^xsd:string ;
	bd:ordinal "59"^^xsd:positiveInteger ;
	bd:rule ""^^xsd:string ;
	bd:name "APxxEDT"^^xsd:string ;
	bd:ct ""^^xsd:string ;
	bd:ct_notes ""^^xsd:string ;
	bd:notes "The ending date of period xx."^^xsd:string ;
	bd:compliance <http://www.assero.co.uk/MDRAdamIg/CDISC/V1#AIG-CDISC_ADAMIG_C_PERMISSIBLE> ;
	bd:typedAs <http://www.assero.co.uk/MDRAdamIg/CDISC/V1#AIG-CDISC_ADAMIG_DT_NUMERIC> ;
.
:AIG-CDISC_ADAMIGADSL_APxxETM
	rdf:type <http://www.assero.co.uk/Tabulation#ADaMDatasetVariable> ;
	isoC:label "Period xx End Time"^^xsd:string ;
	bd:ordinal "60"^^xsd:positiveInteger ;
	bd:rule ""^^xsd:string ;
	bd:name "APxxETM"^^xsd:string ;
	bd:ct ""^^xsd:string ;
	bd:ct_notes ""^^xsd:string ;
	bd:notes "The ending time of period xx."^^xsd:string ;
	bd:compliance <http://www.assero.co.uk/MDRAdamIg/CDISC/V1#AIG-CDISC_ADAMIG_C_PERMISSIBLE> ;
	bd:typedAs <http://www.assero.co.uk/MDRAdamIg/CDISC/V1#AIG-CDISC_ADAMIG_DT_NUMERIC> ;
.
:AIG-CDISC_ADAMIGADSL_APxxEDTM
	rdf:type <http://www.assero.co.uk/Tabulation#ADaMDatasetVariable> ;
	isoC:label "Period xx End Date/Time"^^xsd:string ;
	bd:ordinal "61"^^xsd:positiveInteger ;
	bd:rule ""^^xsd:string ;
	bd:name "APxxEDTM"^^xsd:string ;
	bd:ct ""^^xsd:string ;
	bd:ct_notes ""^^xsd:string ;
	bd:notes "The ending datetime of period xx."^^xsd:string ;
	bd:compliance <http://www.assero.co.uk/MDRAdamIg/CDISC/V1#AIG-CDISC_ADAMIG_C_PERMISSIBLE> ;
	bd:typedAs <http://www.assero.co.uk/MDRAdamIg/CDISC/V1#AIG-CDISC_ADAMIG_DT_NUMERIC> ;
.
:AIG-CDISC_ADAMIGADSL_APxxEDTF
	rdf:type <http://www.assero.co.uk/Tabulation#ADaMDatasetVariable> ;
	isoC:label "Period xx End Date Imput. Flag"^^xsd:string ;
	bd:ordinal "62"^^xsd:positiveInteger ;
	bd:rule ""^^xsd:string ;
	bd:name "APxxEDTF"^^xsd:string ;
	bd:ct "DATEFL"^^xsd:string ;
	bd:ct_notes ""^^xsd:string ;
	bd:notes "The level of imputation of period xx end date. See General Timing Variable Convention #6."^^xsd:string ;
	bd:compliance <http://www.assero.co.uk/MDRAdamIg/CDISC/V1#AIG-CDISC_ADAMIG_C_CONDITIONAL> ;
	bd:typedAs <http://www.assero.co.uk/MDRAdamIg/CDISC/V1#AIG-CDISC_ADAMIG_DT_CHARACTER> ;
.
:AIG-CDISC_ADAMIGADSL_APxxETMF
	rdf:type <http://www.assero.co.uk/Tabulation#ADaMDatasetVariable> ;
	isoC:label "Period End Time Imput. Flag"^^xsd:string ;
	bd:ordinal "63"^^xsd:positiveInteger ;
	bd:rule ""^^xsd:string ;
	bd:name "APxxETMF"^^xsd:string ;
	bd:ct "TIMEFL"^^xsd:string ;
	bd:ct_notes ""^^xsd:string ;
	bd:notes "The level of imputation of period xx end time. See General Timing Variable Convention #7."^^xsd:string ;
	bd:compliance <http://www.assero.co.uk/MDRAdamIg/CDISC/V1#AIG-CDISC_ADAMIG_C_CONDITIONAL> ;
	bd:typedAs <http://www.assero.co.uk/MDRAdamIg/CDISC/V1#AIG-CDISC_ADAMIG_DT_CHARACTER> ;
.
:AIG-CDISC_ADAMIGBDS
	rdf:type <http://www.assero.co.uk/Tabulation#ADaMDataset> ;
	isoC:label "Basic Data Structure"^^xsd:string ;
	isoT:hasIdentifier <http://www.assero.co.uk/MDRItems#SI-CDISC_ADAMIGBDS-1> ;
	isoT:hasState <http://www.assero.co.uk/MDRItems#RS-CDISC_ADAMIGBDS-1> ;
	isoT:creationDate "2019-01-23T00:00:00+00:00"^^xsd:dateTime ;
	isoT:lastChangeDate "2019-01-23T00:00:00+00:00"^^xsd:dateTime ;
	isoT:changeDescription ""^^xsd:string ;
	isoT:explanatoryComment ""^^xsd:string ;
	isoT:origin ""^^xsd:string ;
	bd:ordinal "2"^^xsd:positiveInteger ;
	bd:rule ""^^xsd:string ;
	bd:prefix "--"^^xsd:string ;
	bd:structure ""^^xsd:string ;
	bd:includesColumn :AIG-CDISC_ADAMIGBDS_STUDYID ;
	bd:includesColumn :AIG-CDISC_ADAMIGBDS_USUBJID ;
	bd:includesColumn :AIG-CDISC_ADAMIGBDS_SUBJID ;
	bd:includesColumn :AIG-CDISC_ADAMIGBDS_SITEID ;
	bd:includesColumn :AIG-CDISC_ADAMIGBDS_TRTP ;
	bd:includesColumn :AIG-CDISC_ADAMIGBDS_TRTPN ;
	bd:includesColumn :AIG-CDISC_ADAMIGBDS_TRTA ;
	bd:includesColumn :AIG-CDISC_ADAMIGBDS_TRTAN ;
	bd:includesColumn :AIG-CDISC_ADAMIGBDS_TRTPGy ;
	bd:includesColumn :AIG-CDISC_ADAMIGBDS_TRTPGyN ;
	bd:includesColumn :AIG-CDISC_ADAMIGBDS_TRTAGy ;
	bd:includesColumn :AIG-CDISC_ADAMIGBDS_TRTAGyN ;
	bd:includesColumn :AIG-CDISC_ADAMIGBDS_ADT ;
	bd:includesColumn :AIG-CDISC_ADAMIGBDS_ATM ;
	bd:includesColumn :AIG-CDISC_ADAMIGBDS_ADTM ;
	bd:includesColumn :AIG-CDISC_ADAMIGBDS_ADY ;
	bd:includesColumn :AIG-CDISC_ADAMIGBDS_ADTF ;
	bd:includesColumn :AIG-CDISC_ADAMIGBDS_ATMF ;
	bd:includesColumn :AIG-CDISC_ADAMIGBDS_ASTDT ;
	bd:includesColumn :AIG-CDISC_ADAMIGBDS_ASTTM ;
	bd:includesColumn :AIG-CDISC_ADAMIGBDS_ASTDTM ;
	bd:includesColumn :AIG-CDISC_ADAMIGBDS_ASTDY ;
	bd:includesColumn :AIG-CDISC_ADAMIGBDS_ASTDTF ;
	bd:includesColumn :AIG-CDISC_ADAMIGBDS_ASTTMF ;
	bd:includesColumn :AIG-CDISC_ADAMIGBDS_AENDT ;
	bd:includesColumn :AIG-CDISC_ADAMIGBDS_AENTM ;
	bd:includesColumn :AIG-CDISC_ADAMIGBDS_AENDTM ;
	bd:includesColumn :AIG-CDISC_ADAMIGBDS_AENDY ;
	bd:includesColumn :AIG-CDISC_ADAMIGBDS_AENDTF ;
	bd:includesColumn :AIG-CDISC_ADAMIGBDS_AENTMF ;
	bd:includesColumn :AIG-CDISC_ADAMIGBDS_AVISIT ;
	bd:includesColumn :AIG-CDISC_ADAMIGBDS_AVISITN ;
	bd:includesColumn :AIG-CDISC_ADAMIGBDS_ATPT ;
	bd:includesColumn :AIG-CDISC_ADAMIGBDS_ATPTN ;
	bd:includesColumn :AIG-CDISC_ADAMIGBDS_ATPTREF ;
	bd:includesColumn :AIG-CDISC_ADAMIGBDS_APERIOD ;
	bd:includesColumn :AIG-CDISC_ADAMIGBDS_APERIODC ;
	bd:includesColumn :AIG-CDISC_ADAMIGBDS_APHASE ;
	bd:includesColumn :AIG-CDISC_ADAMIGBDS_ARELTM ;
	bd:includesColumn :AIG-CDISC_ADAMIGBDS_ARELTMU ;
	bd:includesColumn :AIG-CDISC_ADAMIGBDS_APERSDT ;
	bd:includesColumn :AIG-CDISC_ADAMIGBDS_APERSTM ;
	bd:includesColumn :AIG-CDISC_ADAMIGBDS_APERSDTM ;
	bd:includesColumn :AIG-CDISC_ADAMIGBDS_APERSDTF ;
	bd:includesColumn :AIG-CDISC_ADAMIGBDS_APERSTMF ;
	bd:includesColumn :AIG-CDISC_ADAMIGBDS_APEREDT ;
	bd:includesColumn :AIG-CDISC_ADAMIGBDS_APERETM ;
	bd:includesColumn :AIG-CDISC_ADAMIGBDS_APEREDTM ;
	bd:includesColumn :AIG-CDISC_ADAMIGBDS_APEREDTF ;
	bd:includesColumn :AIG-CDISC_ADAMIGBDS_APERETMF ;
	bd:includesColumn :AIG-CDISC_ADAMIGBDS_sDT ;
	bd:includesColumn :AIG-CDISC_ADAMIGBDS_sTM ;
	bd:includesColumn :AIG-CDISC_ADAMIGBDS_sDTM ;
	bd:includesColumn :AIG-CDISC_ADAMIGBDS_sADY ;
	bd:includesColumn :AIG-CDISC_ADAMIGBDS_sDTF ;
	bd:includesColumn :AIG-CDISC_ADAMIGBDS_sTMF ;
	bd:includesColumn :AIG-CDISC_ADAMIGBDS_sSDT ;
	bd:includesColumn :AIG-CDISC_ADAMIGBDS_sSTM ;
	bd:includesColumn :AIG-CDISC_ADAMIGBDS_sSDTM ;
	bd:includesColumn :AIG-CDISC_ADAMIGBDS_sSDY ;
	bd:includesColumn :AIG-CDISC_ADAMIGBDS_sSDTF ;
	bd:includesColumn :AIG-CDISC_ADAMIGBDS_sSTMF ;
	bd:includesColumn :AIG-CDISC_ADAMIGBDS_sEDT ;
	bd:includesColumn :AIG-CDISC_ADAMIGBDS_sETM ;
	bd:includesColumn :AIG-CDISC_ADAMIGBDS_sEDTM ;
	bd:includesColumn :AIG-CDISC_ADAMIGBDS_sEDY ;
	bd:includesColumn :AIG-CDISC_ADAMIGBDS_sEDTF ;
	bd:includesColumn :AIG-CDISC_ADAMIGBDS_sETMF ;
	bd:includesColumn :AIG-CDISC_ADAMIGBDS_PARAM ;
	bd:includesColumn :AIG-CDISC_ADAMIGBDS_PARAMCD ;
	bd:includesColumn :AIG-CDISC_ADAMIGBDS_PARAMN ;
	bd:includesColumn :AIG-CDISC_ADAMIGBDS_PARAMTYP ;
	bd:includesColumn :AIG-CDISC_ADAMIGBDS_PARCATy ;
	bd:includesColumn :AIG-CDISC_ADAMIGBDS_PARCATyN ;
	bd:includesColumn :AIG-CDISC_ADAMIGBDS_AVAL ;
	bd:includesColumn :AIG-CDISC_ADAMIGBDS_AVALC ;
	bd:includesColumn :AIG-CDISC_ADAMIGBDS_AVALCATy ;
	bd:includesColumn :AIG-CDISC_ADAMIGBDS_BASE ;
	bd:includesColumn :AIG-CDISC_ADAMIGBDS_BASEC ;
	bd:includesColumn :AIG-CDISC_ADAMIGBDS_BASECATy ;
	bd:includesColumn :AIG-CDISC_ADAMIGBDS_BASETYPE ;
	bd:includesColumn :AIG-CDISC_ADAMIGBDS_CHG ;
	bd:includesColumn :AIG-CDISC_ADAMIGBDS_CHGCATy ;
	bd:includesColumn :AIG-CDISC_ADAMIGBDS_PCHG ;
	bd:includesColumn :AIG-CDISC_ADAMIGBDS_PCHGCATy ;
	bd:includesColumn :AIG-CDISC_ADAMIGBDS_R2BASE ;
	bd:includesColumn :AIG-CDISC_ADAMIGBDS_R2AyLO ;
	bd:includesColumn :AIG-CDISC_ADAMIGBDS_R2AyHI ;
	bd:includesColumn :AIG-CDISC_ADAMIGBDS_SHIFTy ;
	bd:includesColumn :AIG-CDISC_ADAMIGBDS_SHIFTyN ;
	bd:includesColumn :AIG-CDISC_ADAMIGBDS_CRITy ;
	bd:includesColumn :AIG-CDISC_ADAMIGBDS_DTYPE ;
	bd:includesColumn :AIG-CDISC_ADAMIGBDS_AWRANGE ;
	bd:includesColumn :AIG-CDISC_ADAMIGBDS_AWTARGET ;
	bd:includesColumn :AIG-CDISC_ADAMIGBDS_AWTDIFF ;
	bd:includesColumn :AIG-CDISC_ADAMIGBDS_AWLO ;
	bd:includesColumn :AIG-CDISC_ADAMIGBDS_AWHI ;
	bd:includesColumn :AIG-CDISC_ADAMIGBDS_AWU ;
	bd:includesColumn :AIG-CDISC_ADAMIGBDS_STARTDT ;
	bd:includesColumn :AIG-CDISC_ADAMIGBDS_CNSR ;
	bd:includesColumn :AIG-CDISC_ADAMIGBDS_EVNTDESC ;
	bd:includesColumn :AIG-CDISC_ADAMIGBDS_ATOXGR ;
	bd:includesColumn :AIG-CDISC_ADAMIGBDS_BTOXGR ;
	bd:includesColumn :AIG-CDISC_ADAMIGBDS_ANRIND ;
	bd:includesColumn :AIG-CDISC_ADAMIGBDS_BNRIND ;
	bd:includesColumn :AIG-CDISC_ADAMIGBDS_ANRLO ;
	bd:includesColumn :AIG-CDISC_ADAMIGBDS_ANRHI ;
	bd:includesColumn :AIG-CDISC_ADAMIGBDS_AyLO ;
	bd:includesColumn :AIG-CDISC_ADAMIGBDS_AyHI ;
	bd:includesColumn :AIG-CDISC_ADAMIGBDS_ABLFL ;
	bd:includesColumn :AIG-CDISC_ADAMIGBDS_ABLFN ;
	bd:includesColumn :AIG-CDISC_ADAMIGBDS_ANLzzFL ;
	bd:includesColumn :AIG-CDISC_ADAMIGBDS_ANLzzFN ;
	bd:includesColumn :AIG-CDISC_ADAMIGBDS_ONTRTFL ;
	bd:includesColumn :AIG-CDISC_ADAMIGBDS_ONTRTFN ;
	bd:includesColumn :AIG-CDISC_ADAMIGBDS_LVOTFL ;
	bd:includesColumn :AIG-CDISC_ADAMIGBDS_LVOTFN ;
	bd:includesColumn :AIG-CDISC_ADAMIGBDS_ITTRFL ;
	bd:includesColumn :AIG-CDISC_ADAMIGBDS_ITTRFN ;
	bd:includesColumn :AIG-CDISC_ADAMIGBDS_ITTPFL ;
	bd:includesColumn :AIG-CDISC_ADAMIGBDS_ITTPFN ;
	bd:includesColumn :AIG-CDISC_ADAMIGBDS_SAFRFL ;
	bd:includesColumn :AIG-CDISC_ADAMIGBDS_SAFRFN ;
	bd:includesColumn :AIG-CDISC_ADAMIGBDS_SAFPFL ;
	bd:includesColumn :AIG-CDISC_ADAMIGBDS_SAFPFN ;
	bd:includesColumn :AIG-CDISC_ADAMIGBDS_FASRFL ;
	bd:includesColumn :AIG-CDISC_ADAMIGBDS_FASRFN ;
	bd:includesColumn :AIG-CDISC_ADAMIGBDS_FASPFL ;
	bd:includesColumn :AIG-CDISC_ADAMIGBDS_FASPFN ;
	bd:includesColumn :AIG-CDISC_ADAMIGBDS_PPROTRFL ;
	bd:includesColumn :AIG-CDISC_ADAMIGBDS_PPROTRFN ;
	bd:includesColumn :AIG-CDISC_ADAMIGBDS_PPROTPFL ;
	bd:includesColumn :AIG-CDISC_ADAMIGBDS_PPROTPFN ;
	bd:includesColumn :AIG-CDISC_ADAMIGBDS_COMPRFL ;
	bd:includesColumn :AIG-CDISC_ADAMIGBDS_COMPRFN ;
	bd:includesColumn :AIG-CDISC_ADAMIGBDS_COMPPFL ;
	bd:includesColumn :AIG-CDISC_ADAMIGBDS_COMPPFN ;
	bd:includesColumn :AIG-CDISC_ADAMIGBDS_CRITyFL ;
	bd:includesColumn :AIG-CDISC_ADAMIGBDS_CRITyFN ;
	bd:includesColumn :AIG-CDISC_ADAMIGBDS_SRCDOM ;
	bd:includesColumn :AIG-CDISC_ADAMIGBDS_SRCVAR ;
	bd:includesColumn :AIG-CDISC_ADAMIGBDS_SRCSEQ ;
.
<http://www.assero.co.uk/MDRItems#RS-CDISC_ADAMIGBDS-1>
	rdf:type isoR:RegistrationState ;
	isoR:byAuthority <http://www.assero.co.uk/RA#DUNS084433759> ;
	isoR:registrationStatus "Standard"^^xsd:string ;
	isoR:administrativeNote ""^^xsd:string ;
	isoR:effectiveDate "2016-01-01T00:00:00+00:00"^^xsd:dateTime ;
	isoR:untilDate "2016-01-01T00:00:00+00:00"^^xsd:dateTime ;
	isoR:unresolvedIssue ""^^xsd:string ;
	isoR:administrativeStatus ""^^xsd:string ;
	isoR:previousState "Incomplete"^^xsd:string ;
.
<http://www.assero.co.uk/MDRItems#SI-CDISC_ADAMIGBDS-1>
	isoI:identifier "ADAMIG BDS"^^xsd:string ;
	rdf:type isoI:ScopedIdentifier ;
	isoI:version "1"^^xsd:positiveInteger ;
	isoI:versionLabel "1.0.0"^^xsd:string ;
	isoI:semantic_version "1.0.0"^^xsd:string ;
	isoI:hasScope <http://www.assero.co.uk/NS#CDISC> ;
.
:AIG-CDISC_ADAMIGBDS_STUDYID
	rdf:type <http://www.assero.co.uk/Tabulation#ADaMDatasetVariable> ;
	isoC:label "Study Identifier"^^xsd:string ;
	bd:ordinal "1"^^xsd:positiveInteger ;
	bd:rule ""^^xsd:string ;
	bd:name "STUDYID"^^xsd:string ;
	bd:ct ""^^xsd:string ;
	bd:ct_notes ""^^xsd:string ;
	bd:notes "SDTM DM.STUDYID"^^xsd:string ;
	bd:compliance <http://www.assero.co.uk/MDRAdamIg/CDISC/V1#AIG-CDISC_ADAMIG_C_REQUIRED> ;
	bd:typedAs <http://www.assero.co.uk/MDRAdamIg/CDISC/V1#AIG-CDISC_ADAMIG_DT_CHARACTER> ;
.
:AIG-CDISC_ADAMIGBDS_USUBJID
	rdf:type <http://www.assero.co.uk/Tabulation#ADaMDatasetVariable> ;
	isoC:label "Unique Subject Identifier"^^xsd:string ;
	bd:ordinal "2"^^xsd:positiveInteger ;
	bd:rule ""^^xsd:string ;
	bd:name "USUBJID"^^xsd:string ;
	bd:ct ""^^xsd:string ;
	bd:ct_notes ""^^xsd:string ;
	bd:notes "SDTM DM.USUBJID"^^xsd:string ;
	bd:compliance <http://www.assero.co.uk/MDRAdamIg/CDISC/V1#AIG-CDISC_ADAMIG_C_REQUIRED> ;
	bd:typedAs <http://www.assero.co.uk/MDRAdamIg/CDISC/V1#AIG-CDISC_ADAMIG_DT_CHARACTER> ;
.
:AIG-CDISC_ADAMIGBDS_SUBJID
	rdf:type <http://www.assero.co.uk/Tabulation#ADaMDatasetVariable> ;
	isoC:label "Subject Identifier for the Study"^^xsd:string ;
	bd:ordinal "3"^^xsd:positiveInteger ;
	bd:rule ""^^xsd:string ;
	bd:name "SUBJID"^^xsd:string ;
	bd:ct ""^^xsd:string ;
	bd:ct_notes ""^^xsd:string ;
	bd:notes "SDTM DM.SUBJID. SUBJID is required in ADSL, but permissible in other datasets."^^xsd:string ;
	bd:compliance <http://www.assero.co.uk/MDRAdamIg/CDISC/V1#AIG-CDISC_ADAMIG_C_PERMISSIBLE> ;
	bd:typedAs <http://www.assero.co.uk/MDRAdamIg/CDISC/V1#AIG-CDISC_ADAMIG_DT_CHARACTER> ;
.
:AIG-CDISC_ADAMIGBDS_SITEID
	rdf:type <http://www.assero.co.uk/Tabulation#ADaMDatasetVariable> ;
	isoC:label "Study Site Identifier"^^xsd:string ;
	bd:ordinal "4"^^xsd:positiveInteger ;
	bd:rule ""^^xsd:string ;
	bd:name "SITEID"^^xsd:string ;
	bd:ct ""^^xsd:string ;
	bd:ct_notes ""^^xsd:string ;
	bd:notes "SDTM DM.SITEID. SITEID is required in ADSL, but permissible in other datasets."^^xsd:string ;
	bd:compliance <http://www.assero.co.uk/MDRAdamIg/CDISC/V1#AIG-CDISC_ADAMIG_C_PERMISSIBLE> ;
	bd:typedAs <http://www.assero.co.uk/MDRAdamIg/CDISC/V1#AIG-CDISC_ADAMIG_DT_CHARACTER> ;
.
:AIG-CDISC_ADAMIGBDS_TRTP
	rdf:type <http://www.assero.co.uk/Tabulation#ADaMDatasetVariable> ;
	isoC:label "Planned Treatment"^^xsd:string ;
	bd:ordinal "5"^^xsd:positiveInteger ;
	bd:rule ""^^xsd:string ;
	bd:name "TRTP"^^xsd:string ;
	bd:ct ""^^xsd:string ;
	bd:ct_notes ""^^xsd:string ;
	bd:notes "TRTP is a record-level identifier that represents the planned treatment attributed to a record for analysis purposes. TRTP indicates how treatment varies by record within a subject and enables analysis of crossover and other designs. TRTxxP (copied from ADSL) may also be needed for some analysis purposes, and may be useful for traceability and to provide context."^^xsd:string ;
	bd:compliance <http://www.assero.co.uk/MDRAdamIg/CDISC/V1#AIG-CDISC_ADAMIG_C_REQUIRED> ;
	bd:typedAs <http://www.assero.co.uk/MDRAdamIg/CDISC/V1#AIG-CDISC_ADAMIG_DT_CHARACTER> ;
.
:AIG-CDISC_ADAMIGBDS_TRTPN
	rdf:type <http://www.assero.co.uk/Tabulation#ADaMDatasetVariable> ;
	isoC:label "Planned Treatment (N)"^^xsd:string ;
	bd:ordinal "6"^^xsd:positiveInteger ;
	bd:rule ""^^xsd:string ;
	bd:name "TRTPN"^^xsd:string ;
	bd:ct ""^^xsd:string ;
	bd:ct_notes ""^^xsd:string ;
	bd:notes "The numeric code for TRTP. One-to-one map to TRTP."^^xsd:string ;
	bd:compliance <http://www.assero.co.uk/MDRAdamIg/CDISC/V1#AIG-CDISC_ADAMIG_C_PERMISSIBLE> ;
	bd:typedAs <http://www.assero.co.uk/MDRAdamIg/CDISC/V1#AIG-CDISC_ADAMIG_DT_NUMERIC> ;
.
:AIG-CDISC_ADAMIGBDS_TRTA
	rdf:type <http://www.assero.co.uk/Tabulation#ADaMDatasetVariable> ;
	isoC:label "Actual Treatment"^^xsd:string ;
	bd:ordinal "7"^^xsd:positiveInteger ;
	bd:rule ""^^xsd:string ;
	bd:name "TRTA"^^xsd:string ;
	bd:ct ""^^xsd:string ;
	bd:ct_notes ""^^xsd:string ;
	bd:notes "TRTA is a record-level identifier that represents the actual treatment attributed to a record for analysis purposes. TRTA indicates how treatment varies by record within a subject and enables analysis of crossover and other multi-period designs. TRTxxA (copied from ADSL) may also be needed for some analysis purposes, and may be useful for traceability and to provide context. TRTA is required when there is an analysis of data as treated and at least one subject has any data associated with a treatment other than the planned treatment."^^xsd:string ;
	bd:compliance <http://www.assero.co.uk/MDRAdamIg/CDISC/V1#AIG-CDISC_ADAMIG_C_CONDITIONAL> ;
	bd:typedAs <http://www.assero.co.uk/MDRAdamIg/CDISC/V1#AIG-CDISC_ADAMIG_DT_CHARACTER> ;
.
:AIG-CDISC_ADAMIGBDS_TRTAN
	rdf:type <http://www.assero.co.uk/Tabulation#ADaMDatasetVariable> ;
	isoC:label "Actual Treatment (N)"^^xsd:string ;
	bd:ordinal "8"^^xsd:positiveInteger ;
	bd:rule ""^^xsd:string ;
	bd:name "TRTAN"^^xsd:string ;
	bd:ct ""^^xsd:string ;
	bd:ct_notes ""^^xsd:string ;
	bd:notes "The numeric code for TRTA. One-to-one map to TRTA."^^xsd:string ;
	bd:compliance <http://www.assero.co.uk/MDRAdamIg/CDISC/V1#AIG-CDISC_ADAMIG_C_PERMISSIBLE> ;
	bd:typedAs <http://www.assero.co.uk/MDRAdamIg/CDISC/V1#AIG-CDISC_ADAMIG_DT_NUMERIC> ;
.
:AIG-CDISC_ADAMIGBDS_TRTPGy
	rdf:type <http://www.assero.co.uk/Tabulation#ADaMDatasetVariable> ;
	isoC:label "Planned Pooled Treatment y"^^xsd:string ;
	bd:ordinal "9"^^xsd:positiveInteger ;
	bd:rule ""^^xsd:string ;
	bd:name "TRTPGy"^^xsd:string ;
	bd:ct ""^^xsd:string ;
	bd:ct_notes ""^^xsd:string ;
	bd:notes "Planned pooled treatment y. 'y' represents an integer [1-9] corresponding to a particular pooling scheme. Useful when planned treatments (TRTP) are pooled together for analysis, for example when all doses of Drug A (TRTPG1=All doses of Drug A) are compared to all doses of Drug B (TRTPG1=All doses of Drug B). Each value of TRTP is pooled within at most one value of TRTPGy. May vary by record within a subject."^^xsd:string ;
	bd:compliance <http://www.assero.co.uk/MDRAdamIg/CDISC/V1#AIG-CDISC_ADAMIG_C_PERMISSIBLE> ;
	bd:typedAs <http://www.assero.co.uk/MDRAdamIg/CDISC/V1#AIG-CDISC_ADAMIG_DT_CHARACTER> ;
.
:AIG-CDISC_ADAMIGBDS_TRTPGyN
	rdf:type <http://www.assero.co.uk/Tabulation#ADaMDatasetVariable> ;
	isoC:label "Planned Pooled Treatment y (N)"^^xsd:string ;
	bd:ordinal "10"^^xsd:positiveInteger ;
	bd:rule ""^^xsd:string ;
	bd:name "TRTPGyN"^^xsd:string ;
	bd:ct ""^^xsd:string ;
	bd:ct_notes ""^^xsd:string ;
	bd:notes "The numeric code for TRTPGy. One-to-one map to TRTPGy."^^xsd:string ;
	bd:compliance <http://www.assero.co.uk/MDRAdamIg/CDISC/V1#AIG-CDISC_ADAMIG_C_PERMISSIBLE> ;
	bd:typedAs <http://www.assero.co.uk/MDRAdamIg/CDISC/V1#AIG-CDISC_ADAMIG_DT_NUMERIC> ;
.
:AIG-CDISC_ADAMIGBDS_TRTAGy
	rdf:type <http://www.assero.co.uk/Tabulation#ADaMDatasetVariable> ;
	isoC:label "Actual Pooled Treatment y"^^xsd:string ;
	bd:ordinal "11"^^xsd:positiveInteger ;
	bd:rule ""^^xsd:string ;
	bd:name "TRTAGy"^^xsd:string ;
	bd:ct ""^^xsd:string ;
	bd:ct_notes ""^^xsd:string ;
	bd:notes "Actual pooled treatment y. 'y' represents an integer [1-9] corresponding to a particular pooling scheme. Required when TRTPGy is present and TRTA is present. May vary by record within a subject."^^xsd:string ;
	bd:compliance <http://www.assero.co.uk/MDRAdamIg/CDISC/V1#AIG-CDISC_ADAMIG_C_CONDITIONAL> ;
	bd:typedAs <http://www.assero.co.uk/MDRAdamIg/CDISC/V1#AIG-CDISC_ADAMIG_DT_CHARACTER> ;
.
:AIG-CDISC_ADAMIGBDS_TRTAGyN
	rdf:type <http://www.assero.co.uk/Tabulation#ADaMDatasetVariable> ;
	isoC:label "Actual Pooled Treatment y (N)"^^xsd:string ;
	bd:ordinal "12"^^xsd:positiveInteger ;
	bd:rule ""^^xsd:string ;
	bd:name "TRTAGyN"^^xsd:string ;
	bd:ct ""^^xsd:string ;
	bd:ct_notes ""^^xsd:string ;
	bd:notes "The numeric code for TRTAGy. One-to-one map to TRTAGy."^^xsd:string ;
	bd:compliance <http://www.assero.co.uk/MDRAdamIg/CDISC/V1#AIG-CDISC_ADAMIG_C_PERMISSIBLE> ;
	bd:typedAs <http://www.assero.co.uk/MDRAdamIg/CDISC/V1#AIG-CDISC_ADAMIG_DT_NUMERIC> ;
.
:AIG-CDISC_ADAMIGBDS_ADT
	rdf:type <http://www.assero.co.uk/Tabulation#ADaMDatasetVariable> ;
	isoC:label "Analysis Date"^^xsd:string ;
	bd:ordinal "13"^^xsd:positiveInteger ;
	bd:rule ""^^xsd:string ;
	bd:name "ADT"^^xsd:string ;
	bd:ct ""^^xsd:string ;
	bd:ct_notes ""^^xsd:string ;
	bd:notes "The date associated with AVAL and/or AVALC in numeric format."^^xsd:string ;
	bd:compliance <http://www.assero.co.uk/MDRAdamIg/CDISC/V1#AIG-CDISC_ADAMIG_C_PERMISSIBLE> ;
	bd:typedAs <http://www.assero.co.uk/MDRAdamIg/CDISC/V1#AIG-CDISC_ADAMIG_DT_NUMERIC> ;
.
:AIG-CDISC_ADAMIGBDS_ATM
	rdf:type <http://www.assero.co.uk/Tabulation#ADaMDatasetVariable> ;
	isoC:label "Analysis Time"^^xsd:string ;
	bd:ordinal "14"^^xsd:positiveInteger ;
	bd:rule ""^^xsd:string ;
	bd:name "ATM"^^xsd:string ;
	bd:ct ""^^xsd:string ;
	bd:ct_notes ""^^xsd:string ;
	bd:notes "The time associated with AVAL and/or AVALC in numeric format."^^xsd:string ;
	bd:compliance <http://www.assero.co.uk/MDRAdamIg/CDISC/V1#AIG-CDISC_ADAMIG_C_PERMISSIBLE> ;
	bd:typedAs <http://www.assero.co.uk/MDRAdamIg/CDISC/V1#AIG-CDISC_ADAMIG_DT_NUMERIC> ;
.
:AIG-CDISC_ADAMIGBDS_ADTM
	rdf:type <http://www.assero.co.uk/Tabulation#ADaMDatasetVariable> ;
	isoC:label "Analysis Date/Time"^^xsd:string ;
	bd:ordinal "15"^^xsd:positiveInteger ;
	bd:rule ""^^xsd:string ;
	bd:name "ADTM"^^xsd:string ;
	bd:ct ""^^xsd:string ;
	bd:ct_notes ""^^xsd:string ;
	bd:notes "The date/time associated with AVAL and/or AVALC in numeric format."^^xsd:string ;
	bd:compliance <http://www.assero.co.uk/MDRAdamIg/CDISC/V1#AIG-CDISC_ADAMIG_C_PERMISSIBLE> ;
	bd:typedAs <http://www.assero.co.uk/MDRAdamIg/CDISC/V1#AIG-CDISC_ADAMIG_DT_NUMERIC> ;
.
:AIG-CDISC_ADAMIGBDS_ADY
	rdf:type <http://www.assero.co.uk/Tabulation#ADaMDatasetVariable> ;
	isoC:label "Analysis Relative Day"^^xsd:string ;
	bd:ordinal "16"^^xsd:positiveInteger ;
	bd:rule ""^^xsd:string ;
	bd:name "ADY"^^xsd:string ;
	bd:ct ""^^xsd:string ;
	bd:ct_notes ""^^xsd:string ;
	bd:notes "The relative day of AVAL and/or AVALC. The number of days from a reference date (not necessarily DM.RFSTDTC) to ADT. The reference date should be indicated in the variable-level metadata for ADY and the reference date should be included as a variable in the given analysis dataset or alternatively in ADSL."^^xsd:string ;
	bd:compliance <http://www.assero.co.uk/MDRAdamIg/CDISC/V1#AIG-CDISC_ADAMIG_C_PERMISSIBLE> ;
	bd:typedAs <http://www.assero.co.uk/MDRAdamIg/CDISC/V1#AIG-CDISC_ADAMIG_DT_NUMERIC> ;
.
:AIG-CDISC_ADAMIGBDS_ADTF
	rdf:type <http://www.assero.co.uk/Tabulation#ADaMDatasetVariable> ;
	isoC:label "Analysis Date Imputation Flag"^^xsd:string ;
	bd:ordinal "17"^^xsd:positiveInteger ;
	bd:rule ""^^xsd:string ;
	bd:name "ADTF"^^xsd:string ;
	bd:ct "DATEFL"^^xsd:string ;
	bd:ct_notes ""^^xsd:string ;
	bd:notes "The level of imputation of ADT based on the source SDTM DTC variable. See General Timing Variable Convention #6."^^xsd:string ;
	bd:compliance <http://www.assero.co.uk/MDRAdamIg/CDISC/V1#AIG-CDISC_ADAMIG_C_CONDITIONAL> ;
	bd:typedAs <http://www.assero.co.uk/MDRAdamIg/CDISC/V1#AIG-CDISC_ADAMIG_DT_CHARACTER> ;
.
:AIG-CDISC_ADAMIGBDS_ATMF
	rdf:type <http://www.assero.co.uk/Tabulation#ADaMDatasetVariable> ;
	isoC:label "Analysis Time Imputation Flag"^^xsd:string ;
	bd:ordinal "18"^^xsd:positiveInteger ;
	bd:rule ""^^xsd:string ;
	bd:name "ATMF"^^xsd:string ;
	bd:ct "TIMEFL"^^xsd:string ;
	bd:ct_notes ""^^xsd:string ;
	bd:notes "The level of imputation of ATM based on the source SDTM DTC variable. See General Timing Variable Convention #7."^^xsd:string ;
	bd:compliance <http://www.assero.co.uk/MDRAdamIg/CDISC/V1#AIG-CDISC_ADAMIG_C_CONDITIONAL> ;
	bd:typedAs <http://www.assero.co.uk/MDRAdamIg/CDISC/V1#AIG-CDISC_ADAMIG_DT_CHARACTER> ;
.
:AIG-CDISC_ADAMIGBDS_ASTDT
	rdf:type <http://www.assero.co.uk/Tabulation#ADaMDatasetVariable> ;
	isoC:label "Analysis Start Date"^^xsd:string ;
	bd:ordinal "19"^^xsd:positiveInteger ;
	bd:rule ""^^xsd:string ;
	bd:name "ASTDT"^^xsd:string ;
	bd:ct ""^^xsd:string ;
	bd:ct_notes ""^^xsd:string ;
	bd:notes "The start date associated with AVAL and/or AVALC. ASTDT and AENDT may be useful for traceability when AVAL summarizes data collected over an interval of time, or when AVAL is a duration."^^xsd:string ;
	bd:compliance <http://www.assero.co.uk/MDRAdamIg/CDISC/V1#AIG-CDISC_ADAMIG_C_PERMISSIBLE> ;
	bd:typedAs <http://www.assero.co.uk/MDRAdamIg/CDISC/V1#AIG-CDISC_ADAMIG_DT_NUMERIC> ;
.
:AIG-CDISC_ADAMIGBDS_ASTTM
	rdf:type <http://www.assero.co.uk/Tabulation#ADaMDatasetVariable> ;
	isoC:label "Analysis Start Time"^^xsd:string ;
	bd:ordinal "20"^^xsd:positiveInteger ;
	bd:rule ""^^xsd:string ;
	bd:name "ASTTM"^^xsd:string ;
	bd:ct ""^^xsd:string ;
	bd:ct_notes ""^^xsd:string ;
	bd:notes "The start time associated with AVAL and/or AVALC. ASTTM and AENTM may be useful for traceability when AVAL summarizes data collected over an interval of time, or when AVAL is a duration."^^xsd:string ;
	bd:compliance <http://www.assero.co.uk/MDRAdamIg/CDISC/V1#AIG-CDISC_ADAMIG_C_PERMISSIBLE> ;
	bd:typedAs <http://www.assero.co.uk/MDRAdamIg/CDISC/V1#AIG-CDISC_ADAMIG_DT_NUMERIC> ;
.
:AIG-CDISC_ADAMIGBDS_ASTDTM
	rdf:type <http://www.assero.co.uk/Tabulation#ADaMDatasetVariable> ;
	isoC:label "Analysis Start Date/Time"^^xsd:string ;
	bd:ordinal "21"^^xsd:positiveInteger ;
	bd:rule ""^^xsd:string ;
	bd:name "ASTDTM"^^xsd:string ;
	bd:ct ""^^xsd:string ;
	bd:ct_notes ""^^xsd:string ;
	bd:notes "The start datetime associated with AVAL and/or AVALC. ASTDTM and AENDTM may be useful for traceability when AVAL summarizes data collected over an interval of time, or when AVAL is a duration."^^xsd:string ;
	bd:compliance <http://www.assero.co.uk/MDRAdamIg/CDISC/V1#AIG-CDISC_ADAMIG_C_PERMISSIBLE> ;
	bd:typedAs <http://www.assero.co.uk/MDRAdamIg/CDISC/V1#AIG-CDISC_ADAMIG_DT_NUMERIC> ;
.
:AIG-CDISC_ADAMIGBDS_ASTDY
	rdf:type <http://www.assero.co.uk/Tabulation#ADaMDatasetVariable> ;
	isoC:label "Analysis Start Relative Day"^^xsd:string ;
	bd:ordinal "22"^^xsd:positiveInteger ;
	bd:rule ""^^xsd:string ;
	bd:name "ASTDY"^^xsd:string ;
	bd:ct ""^^xsd:string ;
	bd:ct_notes ""^^xsd:string ;
	bd:notes "The number of days from a reference date (not necessarily DM.RFSTDTC) to ASTDT. The reference date variable should be indicated in the variable-level metadata for ASTDY and the reference date variable should be included as a variable in an analysis dataset (typically, but not necessarily, ADSL)."^^xsd:string ;
	bd:compliance <http://www.assero.co.uk/MDRAdamIg/CDISC/V1#AIG-CDISC_ADAMIG_C_PERMISSIBLE> ;
	bd:typedAs <http://www.assero.co.uk/MDRAdamIg/CDISC/V1#AIG-CDISC_ADAMIG_DT_NUMERIC> ;
.
:AIG-CDISC_ADAMIGBDS_ASTDTF
	rdf:type <http://www.assero.co.uk/Tabulation#ADaMDatasetVariable> ;
	isoC:label "Analysis Start Date Imputation Flag"^^xsd:string ;
	bd:ordinal "23"^^xsd:positiveInteger ;
	bd:rule ""^^xsd:string ;
	bd:name "ASTDTF"^^xsd:string ;
	bd:ct "DATEFL"^^xsd:string ;
	bd:ct_notes ""^^xsd:string ;
	bd:notes "The level of imputation of ASTDT based on the source SDTM DTC variable. See General Timing Variable Convention #6."^^xsd:string ;
	bd:compliance <http://www.assero.co.uk/MDRAdamIg/CDISC/V1#AIG-CDISC_ADAMIG_C_CONDITIONAL> ;
	bd:typedAs <http://www.assero.co.uk/MDRAdamIg/CDISC/V1#AIG-CDISC_ADAMIG_DT_CHARACTER> ;
.
:AIG-CDISC_ADAMIGBDS_ASTTMF
	rdf:type <http://www.assero.co.uk/Tabulation#ADaMDatasetVariable> ;
	isoC:label "Analysis Start Time Imputation Flag"^^xsd:string ;
	bd:ordinal "24"^^xsd:positiveInteger ;
	bd:rule ""^^xsd:string ;
	bd:name "ASTTMF"^^xsd:string ;
	bd:ct "TIMEFL"^^xsd:string ;
	bd:ct_notes ""^^xsd:string ;
	bd:notes "The level of imputation of ASTTM based on the source SDTM DTC variable. See General Timing Variable Convention #7."^^xsd:string ;
	bd:compliance <http://www.assero.co.uk/MDRAdamIg/CDISC/V1#AIG-CDISC_ADAMIG_C_CONDITIONAL> ;
	bd:typedAs <http://www.assero.co.uk/MDRAdamIg/CDISC/V1#AIG-CDISC_ADAMIG_DT_CHARACTER> ;
.
:AIG-CDISC_ADAMIGBDS_AENDT
	rdf:type <http://www.assero.co.uk/Tabulation#ADaMDatasetVariable> ;
	isoC:label "Analysis End Date"^^xsd:string ;
	bd:ordinal "25"^^xsd:positiveInteger ;
	bd:rule ""^^xsd:string ;
	bd:name "AENDT"^^xsd:string ;
	bd:ct ""^^xsd:string ;
	bd:ct_notes ""^^xsd:string ;
	bd:notes "The end date associated with AVAL and/or AVALC. See also ASTDT."^^xsd:string ;
	bd:compliance <http://www.assero.co.uk/MDRAdamIg/CDISC/V1#AIG-CDISC_ADAMIG_C_PERMISSIBLE> ;
	bd:typedAs <http://www.assero.co.uk/MDRAdamIg/CDISC/V1#AIG-CDISC_ADAMIG_DT_NUMERIC> ;
.
:AIG-CDISC_ADAMIGBDS_AENTM
	rdf:type <http://www.assero.co.uk/Tabulation#ADaMDatasetVariable> ;
	isoC:label "Analysis End Time"^^xsd:string ;
	bd:ordinal "26"^^xsd:positiveInteger ;
	bd:rule ""^^xsd:string ;
	bd:name "AENTM"^^xsd:string ;
	bd:ct ""^^xsd:string ;
	bd:ct_notes ""^^xsd:string ;
	bd:notes "The end time associated with AVAL and/or AVALC. See also ASTTM."^^xsd:string ;
	bd:compliance <http://www.assero.co.uk/MDRAdamIg/CDISC/V1#AIG-CDISC_ADAMIG_C_PERMISSIBLE> ;
	bd:typedAs <http://www.assero.co.uk/MDRAdamIg/CDISC/V1#AIG-CDISC_ADAMIG_DT_NUMERIC> ;
.
:AIG-CDISC_ADAMIGBDS_AENDTM
	rdf:type <http://www.assero.co.uk/Tabulation#ADaMDatasetVariable> ;
	isoC:label "Analysis End Date/Time"^^xsd:string ;
	bd:ordinal "27"^^xsd:positiveInteger ;
	bd:rule ""^^xsd:string ;
	bd:name "AENDTM"^^xsd:string ;
	bd:ct ""^^xsd:string ;
	bd:ct_notes ""^^xsd:string ;
	bd:notes "The end datetime associated with AVAL and/or AVALC. See also ASTDTM."^^xsd:string ;
	bd:compliance <http://www.assero.co.uk/MDRAdamIg/CDISC/V1#AIG-CDISC_ADAMIG_C_PERMISSIBLE> ;
	bd:typedAs <http://www.assero.co.uk/MDRAdamIg/CDISC/V1#AIG-CDISC_ADAMIG_DT_NUMERIC> ;
.
:AIG-CDISC_ADAMIGBDS_AENDY
	rdf:type <http://www.assero.co.uk/Tabulation#ADaMDatasetVariable> ;
	isoC:label "Analysis End Relative Day"^^xsd:string ;
	bd:ordinal "28"^^xsd:positiveInteger ;
	bd:rule ""^^xsd:string ;
	bd:name "AENDY"^^xsd:string ;
	bd:ct ""^^xsd:string ;
	bd:ct_notes ""^^xsd:string ;
	bd:notes "The number of days from a reference date (not necessarily DM.RFSTDTC) to AENDT. See also ASTDY."^^xsd:string ;
	bd:compliance <http://www.assero.co.uk/MDRAdamIg/CDISC/V1#AIG-CDISC_ADAMIG_C_PERMISSIBLE> ;
	bd:typedAs <http://www.assero.co.uk/MDRAdamIg/CDISC/V1#AIG-CDISC_ADAMIG_DT_NUMERIC> ;
.
:AIG-CDISC_ADAMIGBDS_AENDTF
	rdf:type <http://www.assero.co.uk/Tabulation#ADaMDatasetVariable> ;
	isoC:label "Analysis End Date Imputation Flag"^^xsd:string ;
	bd:ordinal "29"^^xsd:positiveInteger ;
	bd:rule ""^^xsd:string ;
	bd:name "AENDTF"^^xsd:string ;
	bd:ct "DATEFL"^^xsd:string ;
	bd:ct_notes ""^^xsd:string ;
	bd:notes "The level of imputation of AENDT based on the source SDTM DTC variable. See General Timing Variable Convention #6."^^xsd:string ;
	bd:compliance <http://www.assero.co.uk/MDRAdamIg/CDISC/V1#AIG-CDISC_ADAMIG_C_CONDITIONAL> ;
	bd:typedAs <http://www.assero.co.uk/MDRAdamIg/CDISC/V1#AIG-CDISC_ADAMIG_DT_CHARACTER> ;
.
:AIG-CDISC_ADAMIGBDS_AENTMF
	rdf:type <http://www.assero.co.uk/Tabulation#ADaMDatasetVariable> ;
	isoC:label "Analysis End Time Imputation Flag"^^xsd:string ;
	bd:ordinal "30"^^xsd:positiveInteger ;
	bd:rule ""^^xsd:string ;
	bd:name "AENTMF"^^xsd:string ;
	bd:ct "TIMEFL"^^xsd:string ;
	bd:ct_notes ""^^xsd:string ;
	bd:notes "The level of imputation of AENTM based on the source SDTM DTC variable. See General Timing Variable Convention #7."^^xsd:string ;
	bd:compliance <http://www.assero.co.uk/MDRAdamIg/CDISC/V1#AIG-CDISC_ADAMIG_C_CONDITIONAL> ;
	bd:typedAs <http://www.assero.co.uk/MDRAdamIg/CDISC/V1#AIG-CDISC_ADAMIG_DT_CHARACTER> ;
.
:AIG-CDISC_ADAMIGBDS_AVISIT
	rdf:type <http://www.assero.co.uk/Tabulation#ADaMDatasetVariable> ;
	isoC:label "Analysis Visit"^^xsd:string ;
	bd:ordinal "31"^^xsd:positiveInteger ;
	bd:rule ""^^xsd:string ;
	bd:name "AVISIT"^^xsd:string ;
	bd:ct ""^^xsd:string ;
	bd:ct_notes ""^^xsd:string ;
	bd:notes "AVISIT may contain the visit names as observe d (i.e., from SDTM VISIT), derived visit names, time window names, conceptual descriptions (such as Average, Endpoint, etc.), or a combination of any of these. AVISIT is a derived field and does not have to map to VISIT from the SDTM. AVISIT represents the analysis visit of the record, but it does not mean that the record was analyzed. There are often multiple records for the same subject and parameter that have the same value of AVISIT. ANLzzFL and other variables may be needed to identify the records selected for any given analysis. See Section 3.2.6 for metadata about flag variables. AVISIT should be unique for a given analysis visit window. In the event that a record does not fall within any predefined analysis timepoint window, AVISIT can be populated in any way that the sponsor chooses to indicate this fact (i.e., blank or 'Not Windowed'). The way that AVISIT is calculated, including the variables used in its derivation, should be indicated in the variable metadata for AVISIT. The values and the rules for deriving AVISIT may be different for different parameters within the same dataset. Values of AVISIT are sponsor-defined, and are often directly usable in Clinical Study Report displays."^^xsd:string ;
	bd:compliance <http://www.assero.co.uk/MDRAdamIg/CDISC/V1#AIG-CDISC_ADAMIG_C_CONDITIONAL> ;
	bd:typedAs <http://www.assero.co.uk/MDRAdamIg/CDISC/V1#AIG-CDISC_ADAMIG_DT_CHARACTER> ;
.
:AIG-CDISC_ADAMIGBDS_AVISITN
	rdf:type <http://www.assero.co.uk/Tabulation#ADaMDatasetVariable> ;
	isoC:label "Analysis Visit (N)"^^xsd:string ;
	bd:ordinal "32"^^xsd:positiveInteger ;
	bd:rule ""^^xsd:string ;
	bd:name "AVISITN"^^xsd:string ;
	bd:ct ""^^xsd:string ;
	bd:ct_notes ""^^xsd:string ;
	bd:notes "A numeric representation of AVISIT. This may be a protocol visit number, a week or cycle number, an analysis visit number, or any other number logically related to AVISIT or useful for sorting that is needed for analysis. Within a parameter, there is a one-to-one mapping between AVISITN and AVISIT so that AVISITN has the same value for each distinct AVISIT. In the event that a record does not fall within any predefined analysis timepoint window, AVISITN can be populated in any way that the sponsor chooses to indicate this fact (e.g., may be null). Values of AVISITN are sponsor-defined."^^xsd:string ;
	bd:compliance <http://www.assero.co.uk/MDRAdamIg/CDISC/V1#AIG-CDISC_ADAMIG_C_PERMISSIBLE> ;
	bd:typedAs <http://www.assero.co.uk/MDRAdamIg/CDISC/V1#AIG-CDISC_ADAMIG_DT_NUMERIC> ;
.
:AIG-CDISC_ADAMIGBDS_ATPT
	rdf:type <http://www.assero.co.uk/Tabulation#ADaMDatasetVariable> ;
	isoC:label "Analysis Timepoint"^^xsd:string ;
	bd:ordinal "33"^^xsd:positiveInteger ;
	bd:rule ""^^xsd:string ;
	bd:name "ATPT"^^xsd:string ;
	bd:ct ""^^xsd:string ;
	bd:ct_notes ""^^xsd:string ;
	bd:notes "The analysis time point description which is required if analysis times are derived. Timepoints are relative to ATPTREF. ATPT can be within an analysis visit (e.g., blood pressure assessments at 10 min, 20 min, and 30 min post-dose at AVISIT=Week 1) or can be unrelated to AVISIT (e.g., migraine symptoms 30 min, 60 min, and 120 min post-dose for attack 1)."^^xsd:string ;
	bd:compliance <http://www.assero.co.uk/MDRAdamIg/CDISC/V1#AIG-CDISC_ADAMIG_C_PERMISSIBLE> ;
	bd:typedAs <http://www.assero.co.uk/MDRAdamIg/CDISC/V1#AIG-CDISC_ADAMIG_DT_CHARACTER> ;
.
:AIG-CDISC_ADAMIGBDS_ATPTN
	rdf:type <http://www.assero.co.uk/Tabulation#ADaMDatasetVariable> ;
	isoC:label "Analysis Timepoint (N)"^^xsd:string ;
	bd:ordinal "34"^^xsd:positiveInteger ;
	bd:rule ""^^xsd:string ;
	bd:name "ATPTN"^^xsd:string ;
	bd:ct ""^^xsd:string ;
	bd:ct_notes ""^^xsd:string ;
	bd:notes "ATPTN provides a numeric representation of ATPT. Within the same parameter, there is a one-to-one mapping between ATPT and ATPTN."^^xsd:string ;
	bd:compliance <http://www.assero.co.uk/MDRAdamIg/CDISC/V1#AIG-CDISC_ADAMIG_C_PERMISSIBLE> ;
	bd:typedAs <http://www.assero.co.uk/MDRAdamIg/CDISC/V1#AIG-CDISC_ADAMIG_DT_NUMERIC> ;
.
:AIG-CDISC_ADAMIGBDS_ATPTREF
	rdf:type <http://www.assero.co.uk/Tabulation#ADaMDatasetVariable> ;
	isoC:label "Analysis Timepoint Reference"^^xsd:string ;
	bd:ordinal "35"^^xsd:positiveInteger ;
	bd:rule ""^^xsd:string ;
	bd:name "ATPTREF"^^xsd:string ;
	bd:ct ""^^xsd:string ;
	bd:ct_notes ""^^xsd:string ;
	bd:notes "Description of the fixed reference point referred to by ATPT/ATPTN."^^xsd:string ;
	bd:compliance <http://www.assero.co.uk/MDRAdamIg/CDISC/V1#AIG-CDISC_ADAMIG_C_PERMISSIBLE> ;
	bd:typedAs <http://www.assero.co.uk/MDRAdamIg/CDISC/V1#AIG-CDISC_ADAMIG_DT_CHARACTER> ;
.
:AIG-CDISC_ADAMIGBDS_APERIOD
	rdf:type <http://www.assero.co.uk/Tabulation#ADaMDatasetVariable> ;
	isoC:label "Period"^^xsd:string ;
	bd:ordinal "36"^^xsd:positiveInteger ;
	bd:rule ""^^xsd:string ;
	bd:name "APERIOD"^^xsd:string ;
	bd:ct ""^^xsd:string ;
	bd:ct_notes ""^^xsd:string ;
	bd:notes "The numeric value characterizing the period to which the record belongs. The value of APERIOD must be consistent with the xx value in TRTxxP, TRTxxA, and all variables whose names begin with TRxx and APxx."^^xsd:string ;
	bd:compliance <http://www.assero.co.uk/MDRAdamIg/CDISC/V1#AIG-CDISC_ADAMIG_C_PERMISSIBLE> ;
	bd:typedAs <http://www.assero.co.uk/MDRAdamIg/CDISC/V1#AIG-CDISC_ADAMIG_DT_NUMERIC> ;
.
:AIG-CDISC_ADAMIGBDS_APERIODC
	rdf:type <http://www.assero.co.uk/Tabulation#ADaMDatasetVariable> ;
	isoC:label "Period (C)"^^xsd:string ;
	bd:ordinal "37"^^xsd:positiveInteger ;
	bd:rule ""^^xsd:string ;
	bd:name "APERIODC"^^xsd:string ;
	bd:ct ""^^xsd:string ;
	bd:ct_notes ""^^xsd:string ;
	bd:notes "Text characterizing to which period the record belongs. One-to-one map to APERIOD."^^xsd:string ;
	bd:compliance <http://www.assero.co.uk/MDRAdamIg/CDISC/V1#AIG-CDISC_ADAMIG_C_PERMISSIBLE> ;
	bd:typedAs <http://www.assero.co.uk/MDRAdamIg/CDISC/V1#AIG-CDISC_ADAMIG_DT_CHARACTER> ;
.
:AIG-CDISC_ADAMIGBDS_APHASE
	rdf:type <http://www.assero.co.uk/Tabulation#ADaMDatasetVariable> ;
	isoC:label "Phase"^^xsd:string ;
	bd:ordinal "38"^^xsd:positiveInteger ;
	bd:rule ""^^xsd:string ;
	bd:name "APHASE"^^xsd:string ;
	bd:ct ""^^xsd:string ;
	bd:ct_notes ""^^xsd:string ;
	bd:notes "Generally, a higher-level categorization of APERIOD. Does not replace APERIOD, because APERIOD provides the indexing for the TRxx and APxx variables."^^xsd:string ;
	bd:compliance <http://www.assero.co.uk/MDRAdamIg/CDISC/V1#AIG-CDISC_ADAMIG_C_PERMISSIBLE> ;
	bd:typedAs <http://www.assero.co.uk/MDRAdamIg/CDISC/V1#AIG-CDISC_ADAMIG_DT_CHARACTER> ;
.
:AIG-CDISC_ADAMIGBDS_ARELTM
	rdf:type <http://www.assero.co.uk/Tabulation#ADaMDatasetVariable> ;
	isoC:label "Analysis Relative Time"^^xsd:string ;
	bd:ordinal "39"^^xsd:positiveInteger ;
	bd:rule ""^^xsd:string ;
	bd:name "ARELTM"^^xsd:string ;
	bd:ct ""^^xsd:string ;
	bd:ct_notes ""^^xsd:string ;
	bd:notes "The time relative to an anchor time. When ARELTM is present, the anchor time variable and ARELTMU must also be included in the dataset, and the anchor time variable must be identified in the metadata for ARELTM."^^xsd:string ;
	bd:compliance <http://www.assero.co.uk/MDRAdamIg/CDISC/V1#AIG-CDISC_ADAMIG_C_PERMISSIBLE> ;
	bd:typedAs <http://www.assero.co.uk/MDRAdamIg/CDISC/V1#AIG-CDISC_ADAMIG_DT_NUMERIC> ;
.
:AIG-CDISC_ADAMIGBDS_ARELTMU
	rdf:type <http://www.assero.co.uk/Tabulation#ADaMDatasetVariable> ;
	isoC:label "Analysis Relative Time Unit"^^xsd:string ;
	bd:ordinal "40"^^xsd:positiveInteger ;
	bd:rule ""^^xsd:string ;
	bd:name "ARELTMU"^^xsd:string ;
	bd:ct ""^^xsd:string ;
	bd:ct_notes ""^^xsd:string ;
	bd:notes "The units of ARELTM. For example, 'HOURS' or 'MINUTES.' ARELTMU is required if ARELTM is present."^^xsd:string ;
	bd:compliance <http://www.assero.co.uk/MDRAdamIg/CDISC/V1#AIG-CDISC_ADAMIG_C_CONDITIONAL> ;
	bd:typedAs <http://www.assero.co.uk/MDRAdamIg/CDISC/V1#AIG-CDISC_ADAMIG_DT_CHARACTER> ;
.
:AIG-CDISC_ADAMIGBDS_APERSDT
	rdf:type <http://www.assero.co.uk/Tabulation#ADaMDatasetVariable> ;
	isoC:label "Period Start Date"^^xsd:string ;
	bd:ordinal "41"^^xsd:positiveInteger ;
	bd:rule ""^^xsd:string ;
	bd:name "APERSDT"^^xsd:string ;
	bd:ct ""^^xsd:string ;
	bd:ct_notes ""^^xsd:string ;
	bd:notes "The starting date for the period defined by APERIOD."^^xsd:string ;
	bd:compliance <http://www.assero.co.uk/MDRAdamIg/CDISC/V1#AIG-CDISC_ADAMIG_C_PERMISSIBLE> ;
	bd:typedAs <http://www.assero.co.uk/MDRAdamIg/CDISC/V1#AIG-CDISC_ADAMIG_DT_NUMERIC> ;
.
:AIG-CDISC_ADAMIGBDS_APERSTM
	rdf:type <http://www.assero.co.uk/Tabulation#ADaMDatasetVariable> ;
	isoC:label "Period Start Time"^^xsd:string ;
	bd:ordinal "42"^^xsd:positiveInteger ;
	bd:rule ""^^xsd:string ;
	bd:name "APERSTM"^^xsd:string ;
	bd:ct ""^^xsd:string ;
	bd:ct_notes ""^^xsd:string ;
	bd:notes "The starting time for the period defined by APERIOD."^^xsd:string ;
	bd:compliance <http://www.assero.co.uk/MDRAdamIg/CDISC/V1#AIG-CDISC_ADAMIG_C_PERMISSIBLE> ;
	bd:typedAs <http://www.assero.co.uk/MDRAdamIg/CDISC/V1#AIG-CDISC_ADAMIG_DT_NUMERIC> ;
.
:AIG-CDISC_ADAMIGBDS_APERSDTM
	rdf:type <http://www.assero.co.uk/Tabulation#ADaMDatasetVariable> ;
	isoC:label "Period Start Date/Time"^^xsd:string ;
	bd:ordinal "43"^^xsd:positiveInteger ;
	bd:rule ""^^xsd:string ;
	bd:name "APERSDTM"^^xsd:string ;
	bd:ct ""^^xsd:string ;
	bd:ct_notes ""^^xsd:string ;
	bd:notes "The starting datetime for the period defined by APERIOD."^^xsd:string ;
	bd:compliance <http://www.assero.co.uk/MDRAdamIg/CDISC/V1#AIG-CDISC_ADAMIG_C_PERMISSIBLE> ;
	bd:typedAs <http://www.assero.co.uk/MDRAdamIg/CDISC/V1#AIG-CDISC_ADAMIG_DT_NUMERIC> ;
.
:AIG-CDISC_ADAMIGBDS_APERSDTF
	rdf:type <http://www.assero.co.uk/Tabulation#ADaMDatasetVariable> ;
	isoC:label "Period Start Date Imput. Flag"^^xsd:string ;
	bd:ordinal "44"^^xsd:positiveInteger ;
	bd:rule ""^^xsd:string ;
	bd:name "APERSDTF"^^xsd:string ;
	bd:ct "DATEFL"^^xsd:string ;
	bd:ct_notes ""^^xsd:string ;
	bd:notes "The level of imputation of APERSDT based on the source SDTM DTC variable. See General Timing Variable Convention #6."^^xsd:string ;
	bd:compliance <http://www.assero.co.uk/MDRAdamIg/CDISC/V1#AIG-CDISC_ADAMIG_C_CONDITIONAL> ;
	bd:typedAs <http://www.assero.co.uk/MDRAdamIg/CDISC/V1#AIG-CDISC_ADAMIG_DT_CHARACTER> ;
.
:AIG-CDISC_ADAMIGBDS_APERSTMF
	rdf:type <http://www.assero.co.uk/Tabulation#ADaMDatasetVariable> ;
	isoC:label "Period Start Time Imput. Flag"^^xsd:string ;
	bd:ordinal "45"^^xsd:positiveInteger ;
	bd:rule ""^^xsd:string ;
	bd:name "APERSTMF"^^xsd:string ;
	bd:ct "TIMEFL"^^xsd:string ;
	bd:ct_notes ""^^xsd:string ;
	bd:notes "The level of imputation of APERSTM based on the source SDTM DTC variable. See General Timing Variable Convention #7."^^xsd:string ;
	bd:compliance <http://www.assero.co.uk/MDRAdamIg/CDISC/V1#AIG-CDISC_ADAMIG_C_CONDITIONAL> ;
	bd:typedAs <http://www.assero.co.uk/MDRAdamIg/CDISC/V1#AIG-CDISC_ADAMIG_DT_CHARACTER> ;
.
:AIG-CDISC_ADAMIGBDS_APEREDT
	rdf:type <http://www.assero.co.uk/Tabulation#ADaMDatasetVariable> ;
	isoC:label "Period End Date"^^xsd:string ;
	bd:ordinal "46"^^xsd:positiveInteger ;
	bd:rule ""^^xsd:string ;
	bd:name "APEREDT"^^xsd:string ;
	bd:ct ""^^xsd:string ;
	bd:ct_notes ""^^xsd:string ;
	bd:notes "The ending date for the period defined by APERIOD."^^xsd:string ;
	bd:compliance <http://www.assero.co.uk/MDRAdamIg/CDISC/V1#AIG-CDISC_ADAMIG_C_PERMISSIBLE> ;
	bd:typedAs <http://www.assero.co.uk/MDRAdamIg/CDISC/V1#AIG-CDISC_ADAMIG_DT_NUMERIC> ;
.
:AIG-CDISC_ADAMIGBDS_APERETM
	rdf:type <http://www.assero.co.uk/Tabulation#ADaMDatasetVariable> ;
	isoC:label "Period End Time"^^xsd:string ;
	bd:ordinal "47"^^xsd:positiveInteger ;
	bd:rule ""^^xsd:string ;
	bd:name "APERETM"^^xsd:string ;
	bd:ct ""^^xsd:string ;
	bd:ct_notes ""^^xsd:string ;
	bd:notes "The ending time for the period defined by APERIOD."^^xsd:string ;
	bd:compliance <http://www.assero.co.uk/MDRAdamIg/CDISC/V1#AIG-CDISC_ADAMIG_C_PERMISSIBLE> ;
	bd:typedAs <http://www.assero.co.uk/MDRAdamIg/CDISC/V1#AIG-CDISC_ADAMIG_DT_NUMERIC> ;
.
:AIG-CDISC_ADAMIGBDS_APEREDTM
	rdf:type <http://www.assero.co.uk/Tabulation#ADaMDatasetVariable> ;
	isoC:label "Period End Date/Time"^^xsd:string ;
	bd:ordinal "48"^^xsd:positiveInteger ;
	bd:rule ""^^xsd:string ;
	bd:name "APEREDTM"^^xsd:string ;
	bd:ct ""^^xsd:string ;
	bd:ct_notes ""^^xsd:string ;
	bd:notes "The ending datetime for the period defined by APERIOD."^^xsd:string ;
	bd:compliance <http://www.assero.co.uk/MDRAdamIg/CDISC/V1#AIG-CDISC_ADAMIG_C_PERMISSIBLE> ;
	bd:typedAs <http://www.assero.co.uk/MDRAdamIg/CDISC/V1#AIG-CDISC_ADAMIG_DT_NUMERIC> ;
.
:AIG-CDISC_ADAMIGBDS_APEREDTF
	rdf:type <http://www.assero.co.uk/Tabulation#ADaMDatasetVariable> ;
	isoC:label "Period End Date Imput. Flag"^^xsd:string ;
	bd:ordinal "49"^^xsd:positiveInteger ;
	bd:rule ""^^xsd:string ;
	bd:name "APEREDTF"^^xsd:string ;
	bd:ct "DATEFL"^^xsd:string ;
	bd:ct_notes ""^^xsd:string ;
	bd:notes "The level of imputation of APEREDT based on the source SDTM DTC variable. See General Timing Variable Convention #6."^^xsd:string ;
	bd:compliance <http://www.assero.co.uk/MDRAdamIg/CDISC/V1#AIG-CDISC_ADAMIG_C_CONDITIONAL> ;
	bd:typedAs <http://www.assero.co.uk/MDRAdamIg/CDISC/V1#AIG-CDISC_ADAMIG_DT_CHARACTER> ;
.
:AIG-CDISC_ADAMIGBDS_APERETMF
	rdf:type <http://www.assero.co.uk/Tabulation#ADaMDatasetVariable> ;
	isoC:label "Period End Time Imput. Flag"^^xsd:string ;
	bd:ordinal "50"^^xsd:positiveInteger ;
	bd:rule ""^^xsd:string ;
	bd:name "APERETMF"^^xsd:string ;
	bd:ct "TIMEFL"^^xsd:string ;
	bd:ct_notes ""^^xsd:string ;
	bd:notes "The level of imputation of APERETM based on the source SDTM DTC variable. See General Timing Variable Convention #7."^^xsd:string ;
	bd:compliance <http://www.assero.co.uk/MDRAdamIg/CDISC/V1#AIG-CDISC_ADAMIG_C_CONDITIONAL> ;
	bd:typedAs <http://www.assero.co.uk/MDRAdamIg/CDISC/V1#AIG-CDISC_ADAMIG_DT_CHARACTER> ;
.
:AIG-CDISC_ADAMIGBDS_sDT
	rdf:type <http://www.assero.co.uk/Tabulation#ADaMDatasetVariable> ;
	isoC:label "Date of"^^xsd:string ;
	bd:ordinal "51"^^xsd:positiveInteger ;
	bd:rule ""^^xsd:string ;
	bd:name "sDT"^^xsd:string ;
	bd:ct ""^^xsd:string ;
	bd:ct_notes ""^^xsd:string ;
	bd:notes "Analysis date not directly characterizing AVAL and/or AVALC in numeric format."^^xsd:string ;
	bd:compliance <http://www.assero.co.uk/MDRAdamIg/CDISC/V1#AIG-CDISC_ADAMIG_C_PERMISSIBLE> ;
	bd:typedAs <http://www.assero.co.uk/MDRAdamIg/CDISC/V1#AIG-CDISC_ADAMIG_DT_NUMERIC> ;
.
:AIG-CDISC_ADAMIGBDS_sTM
	rdf:type <http://www.assero.co.uk/Tabulation#ADaMDatasetVariable> ;
	isoC:label "Time of"^^xsd:string ;
	bd:ordinal "52"^^xsd:positiveInteger ;
	bd:rule ""^^xsd:string ;
	bd:name "sTM"^^xsd:string ;
	bd:ct ""^^xsd:string ;
	bd:ct_notes ""^^xsd:string ;
	bd:notes "Analysis time not directly characterizing AVAL and/or AVALC in numeric format."^^xsd:string ;
	bd:compliance <http://www.assero.co.uk/MDRAdamIg/CDISC/V1#AIG-CDISC_ADAMIG_C_PERMISSIBLE> ;
	bd:typedAs <http://www.assero.co.uk/MDRAdamIg/CDISC/V1#AIG-CDISC_ADAMIG_DT_NUMERIC> ;
.
:AIG-CDISC_ADAMIGBDS_sDTM
	rdf:type <http://www.assero.co.uk/Tabulation#ADaMDatasetVariable> ;
	isoC:label "Date/Time of"^^xsd:string ;
	bd:ordinal "53"^^xsd:positiveInteger ;
	bd:rule ""^^xsd:string ;
	bd:name "sDTM"^^xsd:string ;
	bd:ct ""^^xsd:string ;
	bd:ct_notes ""^^xsd:string ;
	bd:notes "Analysis date/time not directly characterizing AVAL and/or AVALC in numeric format."^^xsd:string ;
	bd:compliance <http://www.assero.co.uk/MDRAdamIg/CDISC/V1#AIG-CDISC_ADAMIG_C_PERMISSIBLE> ;
	bd:typedAs <http://www.assero.co.uk/MDRAdamIg/CDISC/V1#AIG-CDISC_ADAMIG_DT_NUMERIC> ;
.
:AIG-CDISC_ADAMIGBDS_sADY
	rdf:type <http://www.assero.co.uk/Tabulation#ADaMDatasetVariable> ;
	isoC:label "Relative Day of"^^xsd:string ;
	bd:ordinal "54"^^xsd:positiveInteger ;
	bd:rule ""^^xsd:string ;
	bd:name "sADY"^^xsd:string ;
	bd:ct ""^^xsd:string ;
	bd:ct_notes ""^^xsd:string ;
	bd:notes "Analysis relative day not directly characterizing AVAL and/or AVALC."^^xsd:string ;
	bd:compliance <http://www.assero.co.uk/MDRAdamIg/CDISC/V1#AIG-CDISC_ADAMIG_C_PERMISSIBLE> ;
	bd:typedAs <http://www.assero.co.uk/MDRAdamIg/CDISC/V1#AIG-CDISC_ADAMIG_DT_NUMERIC> ;
.
:AIG-CDISC_ADAMIGBDS_sDTF
	rdf:type <http://www.assero.co.uk/Tabulation#ADaMDatasetVariable> ;
	isoC:label "Date Imputation Qual of"^^xsd:string ;
	bd:ordinal "55"^^xsd:positiveInteger ;
	bd:rule ""^^xsd:string ;
	bd:name "sDTF"^^xsd:string ;
	bd:ct "DATEFL"^^xsd:string ;
	bd:ct_notes ""^^xsd:string ;
	bd:notes "The level of imputation of *DT based on the source SDTM DTC variable. See General Timing Variable Convention #6."^^xsd:string ;
	bd:compliance <http://www.assero.co.uk/MDRAdamIg/CDISC/V1#AIG-CDISC_ADAMIG_C_CONDITIONAL> ;
	bd:typedAs <http://www.assero.co.uk/MDRAdamIg/CDISC/V1#AIG-CDISC_ADAMIG_DT_CHARACTER> ;
.
:AIG-CDISC_ADAMIGBDS_sTMF
	rdf:type <http://www.assero.co.uk/Tabulation#ADaMDatasetVariable> ;
	isoC:label "Time Imputation Flag of"^^xsd:string ;
	bd:ordinal "56"^^xsd:positiveInteger ;
	bd:rule ""^^xsd:string ;
	bd:name "sTMF"^^xsd:string ;
	bd:ct "TIMEFL"^^xsd:string ;
	bd:ct_notes ""^^xsd:string ;
	bd:notes "The level of imputation of *TM based on the source SDTM DTC variable. See General Timing Variable Convention #7."^^xsd:string ;
	bd:compliance <http://www.assero.co.uk/MDRAdamIg/CDISC/V1#AIG-CDISC_ADAMIG_C_CONDITIONAL> ;
	bd:typedAs <http://www.assero.co.uk/MDRAdamIg/CDISC/V1#AIG-CDISC_ADAMIG_DT_CHARACTER> ;
.
:AIG-CDISC_ADAMIGBDS_sSDT
	rdf:type <http://www.assero.co.uk/Tabulation#ADaMDatasetVariable> ;
	isoC:label "Start Date of"^^xsd:string ;
	bd:ordinal "57"^^xsd:positiveInteger ;
	bd:rule ""^^xsd:string ;
	bd:name "sSDT"^^xsd:string ;
	bd:ct ""^^xsd:string ;
	bd:ct_notes ""^^xsd:string ;
	bd:notes "Starting analysis date not directly characterizing AVAL and/or AVALC in numeric format."^^xsd:string ;
	bd:compliance <http://www.assero.co.uk/MDRAdamIg/CDISC/V1#AIG-CDISC_ADAMIG_C_PERMISSIBLE> ;
	bd:typedAs <http://www.assero.co.uk/MDRAdamIg/CDISC/V1#AIG-CDISC_ADAMIG_DT_NUMERIC> ;
.
:AIG-CDISC_ADAMIGBDS_sSTM
	rdf:type <http://www.assero.co.uk/Tabulation#ADaMDatasetVariable> ;
	isoC:label "Start Time of"^^xsd:string ;
	bd:ordinal "58"^^xsd:positiveInteger ;
	bd:rule ""^^xsd:string ;
	bd:name "sSTM"^^xsd:string ;
	bd:ct ""^^xsd:string ;
	bd:ct_notes ""^^xsd:string ;
	bd:notes "Starting analysis time not directly characterizing AVAL and/or AVALC in numeric format."^^xsd:string ;
	bd:compliance <http://www.assero.co.uk/MDRAdamIg/CDISC/V1#AIG-CDISC_ADAMIG_C_PERMISSIBLE> ;
	bd:typedAs <http://www.assero.co.uk/MDRAdamIg/CDISC/V1#AIG-CDISC_ADAMIG_DT_NUMERIC> ;
.
:AIG-CDISC_ADAMIGBDS_sSDTM
	rdf:type <http://www.assero.co.uk/Tabulation#ADaMDatasetVariable> ;
	isoC:label "Start Date/Time of"^^xsd:string ;
	bd:ordinal "59"^^xsd:positiveInteger ;
	bd:rule ""^^xsd:string ;
	bd:name "sSDTM"^^xsd:string ;
	bd:ct ""^^xsd:string ;
	bd:ct_notes ""^^xsd:string ;
	bd:notes "Starting analysis date/time not directly characterizing AVAL and/or AVALC in numeric format."^^xsd:string ;
	bd:compliance <http://www.assero.co.uk/MDRAdamIg/CDISC/V1#AIG-CDISC_ADAMIG_C_PERMISSIBLE> ;
	bd:typedAs <http://www.assero.co.uk/MDRAdamIg/CDISC/V1#AIG-CDISC_ADAMIG_DT_NUMERIC> ;
.
:AIG-CDISC_ADAMIGBDS_sSDY
	rdf:type <http://www.assero.co.uk/Tabulation#ADaMDatasetVariable> ;
	isoC:label "Relative Start Day of"^^xsd:string ;
	bd:ordinal "60"^^xsd:positiveInteger ;
	bd:rule ""^^xsd:string ;
	bd:name "sSDY"^^xsd:string ;
	bd:ct ""^^xsd:string ;
	bd:ct_notes ""^^xsd:string ;
	bd:notes "Starting analysis relative day not directly characterizing AVAL and/or AVALC."^^xsd:string ;
	bd:compliance <http://www.assero.co.uk/MDRAdamIg/CDISC/V1#AIG-CDISC_ADAMIG_C_PERMISSIBLE> ;
	bd:typedAs <http://www.assero.co.uk/MDRAdamIg/CDISC/V1#AIG-CDISC_ADAMIG_DT_NUMERIC> ;
.
:AIG-CDISC_ADAMIGBDS_sSDTF
	rdf:type <http://www.assero.co.uk/Tabulation#ADaMDatasetVariable> ;
	isoC:label "Start Date Imputation Flag of"^^xsd:string ;
	bd:ordinal "61"^^xsd:positiveInteger ;
	bd:rule ""^^xsd:string ;
	bd:name "sSDTF"^^xsd:string ;
	bd:ct "DATEFL"^^xsd:string ;
	bd:ct_notes ""^^xsd:string ;
	bd:notes "The level of imputation of *SDT based on the source SDTM DTC variable. See General Timing Variable Convention #6."^^xsd:string ;
	bd:compliance <http://www.assero.co.uk/MDRAdamIg/CDISC/V1#AIG-CDISC_ADAMIG_C_CONDITIONAL> ;
	bd:typedAs <http://www.assero.co.uk/MDRAdamIg/CDISC/V1#AIG-CDISC_ADAMIG_DT_CHARACTER> ;
.
:AIG-CDISC_ADAMIGBDS_sSTMF
	rdf:type <http://www.assero.co.uk/Tabulation#ADaMDatasetVariable> ;
	isoC:label "Start Time Imputation Qual of"^^xsd:string ;
	bd:ordinal "62"^^xsd:positiveInteger ;
	bd:rule ""^^xsd:string ;
	bd:name "sSTMF"^^xsd:string ;
	bd:ct "TIMEFL"^^xsd:string ;
	bd:ct_notes ""^^xsd:string ;
	bd:notes "The level of imputation of *STM based on the source SDTM DTC variable. See General Timing Variable Convention #7."^^xsd:string ;
	bd:compliance <http://www.assero.co.uk/MDRAdamIg/CDISC/V1#AIG-CDISC_ADAMIG_C_CONDITIONAL> ;
	bd:typedAs <http://www.assero.co.uk/MDRAdamIg/CDISC/V1#AIG-CDISC_ADAMIG_DT_CHARACTER> ;
.
:AIG-CDISC_ADAMIGBDS_sEDT
	rdf:type <http://www.assero.co.uk/Tabulation#ADaMDatasetVariable> ;
	isoC:label "End Date of"^^xsd:string ;
	bd:ordinal "63"^^xsd:positiveInteger ;
	bd:rule ""^^xsd:string ;
	bd:name "sEDT"^^xsd:string ;
	bd:ct ""^^xsd:string ;
	bd:ct_notes ""^^xsd:string ;
	bd:notes "Ending analysis date not directly characterizing AVAL and/or AVALC in numeric format."^^xsd:string ;
	bd:compliance <http://www.assero.co.uk/MDRAdamIg/CDISC/V1#AIG-CDISC_ADAMIG_C_PERMISSIBLE> ;
	bd:typedAs <http://www.assero.co.uk/MDRAdamIg/CDISC/V1#AIG-CDISC_ADAMIG_DT_NUMERIC> ;
.
:AIG-CDISC_ADAMIGBDS_sETM
	rdf:type <http://www.assero.co.uk/Tabulation#ADaMDatasetVariable> ;
	isoC:label "End Time of"^^xsd:string ;
	bd:ordinal "64"^^xsd:positiveInteger ;
	bd:rule ""^^xsd:string ;
	bd:name "sETM"^^xsd:string ;
	bd:ct ""^^xsd:string ;
	bd:ct_notes ""^^xsd:string ;
	bd:notes "Ending analysis time not directly characterizing AVAL and/or AVALC in numeric format."^^xsd:string ;
	bd:compliance <http://www.assero.co.uk/MDRAdamIg/CDISC/V1#AIG-CDISC_ADAMIG_C_PERMISSIBLE> ;
	bd:typedAs <http://www.assero.co.uk/MDRAdamIg/CDISC/V1#AIG-CDISC_ADAMIG_DT_NUMERIC> ;
.
:AIG-CDISC_ADAMIGBDS_sEDTM
	rdf:type <http://www.assero.co.uk/Tabulation#ADaMDatasetVariable> ;
	isoC:label "End Date/Time of"^^xsd:string ;
	bd:ordinal "65"^^xsd:positiveInteger ;
	bd:rule ""^^xsd:string ;
	bd:name "sEDTM"^^xsd:string ;
	bd:ct ""^^xsd:string ;
	bd:ct_notes ""^^xsd:string ;
	bd:notes "Ending analysis date/time not directly characterizing AVAL and/or AVALC in numeric format."^^xsd:string ;
	bd:compliance <http://www.assero.co.uk/MDRAdamIg/CDISC/V1#AIG-CDISC_ADAMIG_C_PERMISSIBLE> ;
	bd:typedAs <http://www.assero.co.uk/MDRAdamIg/CDISC/V1#AIG-CDISC_ADAMIG_DT_NUMERIC> ;
.
:AIG-CDISC_ADAMIGBDS_sEDY
	rdf:type <http://www.assero.co.uk/Tabulation#ADaMDatasetVariable> ;
	isoC:label "Relative End Day of"^^xsd:string ;
	bd:ordinal "66"^^xsd:positiveInteger ;
	bd:rule ""^^xsd:string ;
	bd:name "sEDY"^^xsd:string ;
	bd:ct ""^^xsd:string ;
	bd:ct_notes ""^^xsd:string ;
	bd:notes "Ending analysis relative day not directly characterizing AVAL and/or AVALC."^^xsd:string ;
	bd:compliance <http://www.assero.co.uk/MDRAdamIg/CDISC/V1#AIG-CDISC_ADAMIG_C_PERMISSIBLE> ;
	bd:typedAs <http://www.assero.co.uk/MDRAdamIg/CDISC/V1#AIG-CDISC_ADAMIG_DT_NUMERIC> ;
.
:AIG-CDISC_ADAMIGBDS_sEDTF
	rdf:type <http://www.assero.co.uk/Tabulation#ADaMDatasetVariable> ;
	isoC:label "End Date Imputation Flag of"^^xsd:string ;
	bd:ordinal "67"^^xsd:positiveInteger ;
	bd:rule ""^^xsd:string ;
	bd:name "sEDTF"^^xsd:string ;
	bd:ct "DATEFL"^^xsd:string ;
	bd:ct_notes ""^^xsd:string ;
	bd:notes "The level of imputation of *EDT based on the source SDTM DTC variable. See General Timing Variable Convention #6."^^xsd:string ;
	bd:compliance <http://www.assero.co.uk/MDRAdamIg/CDISC/V1#AIG-CDISC_ADAMIG_C_CONDITIONAL> ;
	bd:typedAs <http://www.assero.co.uk/MDRAdamIg/CDISC/V1#AIG-CDISC_ADAMIG_DT_CHARACTER> ;
.
:AIG-CDISC_ADAMIGBDS_sETMF
	rdf:type <http://www.assero.co.uk/Tabulation#ADaMDatasetVariable> ;
	isoC:label "End Time Imputation Flag of"^^xsd:string ;
	bd:ordinal "68"^^xsd:positiveInteger ;
	bd:rule ""^^xsd:string ;
	bd:name "sETMF"^^xsd:string ;
	bd:ct "TIMEFL"^^xsd:string ;
	bd:ct_notes ""^^xsd:string ;
	bd:notes "The level of imputation of *ETM based on the source SDTM DTC variable. See General Timing Variable Convention #7."^^xsd:string ;
	bd:compliance <http://www.assero.co.uk/MDRAdamIg/CDISC/V1#AIG-CDISC_ADAMIG_C_CONDITIONAL> ;
	bd:typedAs <http://www.assero.co.uk/MDRAdamIg/CDISC/V1#AIG-CDISC_ADAMIG_DT_CHARACTER> ;
.
:AIG-CDISC_ADAMIGBDS_PARAM
	rdf:type <http://www.assero.co.uk/Tabulation#ADaMDatasetVariable> ;
	isoC:label "Parameter"^^xsd:string ;
	bd:ordinal "69"^^xsd:positiveInteger ;
	bd:rule ""^^xsd:string ;
	bd:name "PARAM"^^xsd:string ;
	bd:ct ""^^xsd:string ;
	bd:ct_notes ""^^xsd:string ;
	bd:notes "The description of the analysis parameter. Examples include: 'Supine Systolic Blood Pressure (mm Hg)', 'Log10 (Weight (kg))', 'Time to First Hypertension Event (Days)', 'Estimated Tumor Growth Rate', etc. PARAM should be sufficient to describe unambiguously the contents of AVAL and/or AVALC. PARAM must include test, units (if appropriate), specimen type, location, position, and any other applicable qualifying information needed, any additional information such as transformation function, and indeed any text that is needed. PARAM may be longer than 40 characters in length. PARAM is often directly usable in Clinical Study Report displays. Note that in the ADaMIG, 'parameter' is a synonym of 'analysis parameter.'"^^xsd:string ;
	bd:compliance <http://www.assero.co.uk/MDRAdamIg/CDISC/V1#AIG-CDISC_ADAMIG_C_REQUIRED> ;
	bd:typedAs <http://www.assero.co.uk/MDRAdamIg/CDISC/V1#AIG-CDISC_ADAMIG_DT_CHARACTER> ;
.
:AIG-CDISC_ADAMIGBDS_PARAMCD
	rdf:type <http://www.assero.co.uk/Tabulation#ADaMDatasetVariable> ;
	isoC:label "Parameter Code"^^xsd:string ;
	bd:ordinal "70"^^xsd:positiveInteger ;
	bd:rule ""^^xsd:string ;
	bd:name "PARAMCD"^^xsd:string ;
	bd:ct ""^^xsd:string ;
	bd:ct_notes ""^^xsd:string ;
	bd:notes "The short name of the analysis parameter in PARAM. Values of PARAMCD should follow SAS 5 variable naming conventions (8 characters or less; starts with a letter; contains only letters and digits). There must be a one-to-one mapping with PARAM. Examples: SYSBP, LWEIGHT, HYPEREVT."^^xsd:string ;
	bd:compliance <http://www.assero.co.uk/MDRAdamIg/CDISC/V1#AIG-CDISC_ADAMIG_C_REQUIRED> ;
	bd:typedAs <http://www.assero.co.uk/MDRAdamIg/CDISC/V1#AIG-CDISC_ADAMIG_DT_CHARACTER> ;
.
:AIG-CDISC_ADAMIGBDS_PARAMN
	rdf:type <http://www.assero.co.uk/Tabulation#ADaMDatasetVariable> ;
	isoC:label "Parameter (N)"^^xsd:string ;
	bd:ordinal "71"^^xsd:positiveInteger ;
	bd:rule ""^^xsd:string ;
	bd:name "PARAMN"^^xsd:string ;
	bd:ct ""^^xsd:string ;
	bd:ct_notes ""^^xsd:string ;
	bd:notes "Useful for ordering and programmatic manipulation. There must be a one-to-one mapping with PARAM. Must be an integer."^^xsd:string ;
	bd:compliance <http://www.assero.co.uk/MDRAdamIg/CDISC/V1#AIG-CDISC_ADAMIG_C_PERMISSIBLE> ;
	bd:typedAs <http://www.assero.co.uk/MDRAdamIg/CDISC/V1#AIG-CDISC_ADAMIG_DT_NUMERIC> ;
.
:AIG-CDISC_ADAMIGBDS_PARAMTYP
	rdf:type <http://www.assero.co.uk/Tabulation#ADaMDatasetVariable> ;
	isoC:label "Parameter Type"^^xsd:string ;
	bd:ordinal "72"^^xsd:positiveInteger ;
	bd:rule ""^^xsd:string ;
	bd:name "PARAMTYP"^^xsd:string ;
	bd:ct "PARAMTYP"^^xsd:string ;
	bd:ct_notes ""^^xsd:string ;
	bd:notes "Indicator of whether the parameter is derived as a function of one or more other parameters. This should not be confused with DTYPE which is relevant to derived AVAL and/or AVALC values."^^xsd:string ;
	bd:compliance <http://www.assero.co.uk/MDRAdamIg/CDISC/V1#AIG-CDISC_ADAMIG_C_PERMISSIBLE> ;
	bd:typedAs <http://www.assero.co.uk/MDRAdamIg/CDISC/V1#AIG-CDISC_ADAMIG_DT_CHARACTER> ;
.
:AIG-CDISC_ADAMIGBDS_PARCATy
	rdf:type <http://www.assero.co.uk/Tabulation#ADaMDatasetVariable> ;
	isoC:label "Parameter Category y"^^xsd:string ;
	bd:ordinal "73"^^xsd:positiveInteger ;
	bd:rule ""^^xsd:string ;
	bd:name "PARCATy"^^xsd:string ;
	bd:ct ""^^xsd:string ;
	bd:ct_notes ""^^xsd:string ;
	bd:notes "A categorization of PARAM. For example, value of PARCAT1 might group the parameters having to do with a particular questionnaire, lab specimen type, or area of investigation."^^xsd:string ;
	bd:compliance <http://www.assero.co.uk/MDRAdamIg/CDISC/V1#AIG-CDISC_ADAMIG_C_PERMISSIBLE> ;
	bd:typedAs <http://www.assero.co.uk/MDRAdamIg/CDISC/V1#AIG-CDISC_ADAMIG_DT_CHARACTER> ;
.
:AIG-CDISC_ADAMIGBDS_PARCATyN
	rdf:type <http://www.assero.co.uk/Tabulation#ADaMDatasetVariable> ;
	isoC:label "Parameter Category y (N)"^^xsd:string ;
	bd:ordinal "74"^^xsd:positiveInteger ;
	bd:rule ""^^xsd:string ;
	bd:name "PARCATyN"^^xsd:string ;
	bd:ct ""^^xsd:string ;
	bd:ct_notes ""^^xsd:string ;
	bd:notes "A numeric representation of PARCATy. This can be used for operations on PARCATy. There should be a one to one relationship between PARCATy and PARCATyN."^^xsd:string ;
	bd:compliance <http://www.assero.co.uk/MDRAdamIg/CDISC/V1#AIG-CDISC_ADAMIG_C_PERMISSIBLE> ;
	bd:typedAs <http://www.assero.co.uk/MDRAdamIg/CDISC/V1#AIG-CDISC_ADAMIG_DT_NUMERIC> ;
.
:AIG-CDISC_ADAMIGBDS_AVAL
	rdf:type <http://www.assero.co.uk/Tabulation#ADaMDatasetVariable> ;
	isoC:label "Analysis Value"^^xsd:string ;
	bd:ordinal "75"^^xsd:positiveInteger ;
	bd:rule ""^^xsd:string ;
	bd:name "AVAL"^^xsd:string ;
	bd:ct ""^^xsd:string ;
	bd:ct_notes ""^^xsd:string ;
	bd:notes "Numeric analysis value described by PARAM."^^xsd:string ;
	bd:compliance <http://www.assero.co.uk/MDRAdamIg/CDISC/V1#AIG-CDISC_ADAMIG_C_REQUIRED> ;
	bd:typedAs <http://www.assero.co.uk/MDRAdamIg/CDISC/V1#AIG-CDISC_ADAMIG_DT_NUMERIC> ;
.
:AIG-CDISC_ADAMIGBDS_AVALC
	rdf:type <http://www.assero.co.uk/Tabulation#ADaMDatasetVariable> ;
	isoC:label "Analysis Value (C)"^^xsd:string ;
	bd:ordinal "76"^^xsd:positiveInteger ;
	bd:rule ""^^xsd:string ;
	bd:name "AVALC"^^xsd:string ;
	bd:ct ""^^xsd:string ;
	bd:ct_notes ""^^xsd:string ;
	bd:notes "Character analysis value described by PARAM. AVALC can be a character string mapping to AVAL, but if so there must be a one-to-one map between AVAL and AVALC within a given PARAM. AVALC should not be used to categorize the values of AVAL."^^xsd:string ;
	bd:compliance <http://www.assero.co.uk/MDRAdamIg/CDISC/V1#AIG-CDISC_ADAMIG_C_REQUIRED> ;
	bd:typedAs <http://www.assero.co.uk/MDRAdamIg/CDISC/V1#AIG-CDISC_ADAMIG_DT_CHARACTER> ;
.
:AIG-CDISC_ADAMIGBDS_AVALCATy
	rdf:type <http://www.assero.co.uk/Tabulation#ADaMDatasetVariable> ;
	isoC:label "Analysis Category y"^^xsd:string ;
	bd:ordinal "77"^^xsd:positiveInteger ;
	bd:rule ""^^xsd:string ;
	bd:name "AVALCATy"^^xsd:string ;
	bd:ct ""^^xsd:string ;
	bd:ct_notes ""^^xsd:string ;
	bd:notes "A categorical representation of AVAL and/or AVALC. Not necessarily a one-to-one mapping to AVAL and/or AVALC. For example, if PARAM is 'Headache Severity' and AVAL has values 0, 1, 2, or 3, AVALCAT1 can categorize AVAL into 'None or Mild' (for AVAL 1 or 2) and 'Moderate or Severe' (for AVAL 3 or 4)"^^xsd:string ;
	bd:compliance <http://www.assero.co.uk/MDRAdamIg/CDISC/V1#AIG-CDISC_ADAMIG_C_PERMISSIBLE> ;
	bd:typedAs <http://www.assero.co.uk/MDRAdamIg/CDISC/V1#AIG-CDISC_ADAMIG_DT_CHARACTER> ;
.
:AIG-CDISC_ADAMIGBDS_BASE
	rdf:type <http://www.assero.co.uk/Tabulation#ADaMDatasetVariable> ;
	isoC:label "Baseline Value"^^xsd:string ;
	bd:ordinal "78"^^xsd:positiveInteger ;
	bd:rule ""^^xsd:string ;
	bd:name "BASE"^^xsd:string ;
	bd:ct ""^^xsd:string ;
	bd:ct_notes ""^^xsd:string ;
	bd:notes "Baseline analysis value. Required if dataset supports analysis or review of baseline value or functions of baseline value. A baseline record may be derived (e.g., it may be an average) in which case DTYPE must also be populated. If BASE is populated for a parameter, and BASE is non-null for a subject for that parameter, then there must be a record flagged by ABLFL for that subject and parameter."^^xsd:string ;
	bd:compliance <http://www.assero.co.uk/MDRAdamIg/CDISC/V1#AIG-CDISC_ADAMIG_C_CONDITIONAL> ;
	bd:typedAs <http://www.assero.co.uk/MDRAdamIg/CDISC/V1#AIG-CDISC_ADAMIG_DT_NUMERIC> ;
.
:AIG-CDISC_ADAMIGBDS_BASEC
	rdf:type <http://www.assero.co.uk/Tabulation#ADaMDatasetVariable> ;
	isoC:label "Baseline Value (C)"^^xsd:string ;
	bd:ordinal "79"^^xsd:positiveInteger ;
	bd:rule ""^^xsd:string ;
	bd:name "BASEC"^^xsd:string ;
	bd:ct ""^^xsd:string ;
	bd:ct_notes ""^^xsd:string ;
	bd:notes "Baseline value of AVALC. May be needed when AVALC is of interest. There must be a one-to-one map between BASE and BASEC within a given PARAM if both are populated. The baseline record for AVALC must be the same as that for AVAL."^^xsd:string ;
	bd:compliance <http://www.assero.co.uk/MDRAdamIg/CDISC/V1#AIG-CDISC_ADAMIG_C_PERMISSIBLE> ;
	bd:typedAs <http://www.assero.co.uk/MDRAdamIg/CDISC/V1#AIG-CDISC_ADAMIG_DT_CHARACTER> ;
.
:AIG-CDISC_ADAMIGBDS_BASECATy
	rdf:type <http://www.assero.co.uk/Tabulation#ADaMDatasetVariable> ;
	isoC:label "Baseline Category y"^^xsd:string ;
	bd:ordinal "80"^^xsd:positiveInteger ;
	bd:rule ""^^xsd:string ;
	bd:name "BASECATy"^^xsd:string ;
	bd:ct ""^^xsd:string ;
	bd:ct_notes ""^^xsd:string ;
	bd:notes "A categorical representation of BASE. Not necessarily a one-to-one map to BASE. For example, if PARAM is 'Headache Severity' and AVAL has values 0, 1, 2, or 3, BASECAT1 can categorize BASE into 'None or Mild' (for BASE 1 or 2) and 'Moderate or Severe' (for BASE 3 or 4)"^^xsd:string ;
	bd:compliance <http://www.assero.co.uk/MDRAdamIg/CDISC/V1#AIG-CDISC_ADAMIG_C_PERMISSIBLE> ;
	bd:typedAs <http://www.assero.co.uk/MDRAdamIg/CDISC/V1#AIG-CDISC_ADAMIG_DT_CHARACTER> ;
.
:AIG-CDISC_ADAMIGBDS_BASETYPE
	rdf:type <http://www.assero.co.uk/Tabulation#ADaMDatasetVariable> ;
	isoC:label "Baseline Type"^^xsd:string ;
	bd:ordinal "81"^^xsd:positiveInteger ;
	bd:rule ""^^xsd:string ;
	bd:name "BASETYPE"^^xsd:string ;
	bd:ct ""^^xsd:string ;
	bd:ct_notes ""^^xsd:string ;
	bd:notes "Sponsor-defined text describing the definition of baseline relevant to the value of BASE on the current record. Required when there are multiple ways that baseline is defined. If used for a given PARAM, should be populated for all records of that PARAM. Refer to Section 4.2.1, Rule 6, for an example."^^xsd:string ;
	bd:compliance <http://www.assero.co.uk/MDRAdamIg/CDISC/V1#AIG-CDISC_ADAMIG_C_CONDITIONAL> ;
	bd:typedAs <http://www.assero.co.uk/MDRAdamIg/CDISC/V1#AIG-CDISC_ADAMIG_DT_CHARACTER> ;
.
:AIG-CDISC_ADAMIGBDS_CHG
	rdf:type <http://www.assero.co.uk/Tabulation#ADaMDatasetVariable> ;
	isoC:label "Change from Baseline"^^xsd:string ;
	bd:ordinal "82"^^xsd:positiveInteger ;
	bd:rule ""^^xsd:string ;
	bd:name "CHG"^^xsd:string ;
	bd:ct ""^^xsd:string ;
	bd:ct_notes ""^^xsd:string ;
	bd:notes "Change from baseline analysis value. Equal to AVAL-BASE. If used for a given PARAM, should be populated for all post-baseline records of that PARAM. The decision on how to populate pre-baseline and baseline values of CHG are left to sponsor choice."^^xsd:string ;
	bd:compliance <http://www.assero.co.uk/MDRAdamIg/CDISC/V1#AIG-CDISC_ADAMIG_C_PERMISSIBLE> ;
	bd:typedAs <http://www.assero.co.uk/MDRAdamIg/CDISC/V1#AIG-CDISC_ADAMIG_DT_NUMERIC> ;
.
:AIG-CDISC_ADAMIGBDS_CHGCATy
	rdf:type <http://www.assero.co.uk/Tabulation#ADaMDatasetVariable> ;
	isoC:label "Change from Baseline Category y"^^xsd:string ;
	bd:ordinal "83"^^xsd:positiveInteger ;
	bd:rule ""^^xsd:string ;
	bd:name "CHGCATy"^^xsd:string ;
	bd:ct ""^^xsd:string ;
	bd:ct_notes ""^^xsd:string ;
	bd:notes "A categorical representation of CHG. Not necessarily a one-to-one mapping to CHG. The definition of CHGCATy may vary by PARAM. For example, CHGCAT1 may be used to categorize CHG with respect to ranges of change in SYSBP; '-10 to -5 mm Hg', '-5 to 0 mm Hg' categories."^^xsd:string ;
	bd:compliance <http://www.assero.co.uk/MDRAdamIg/CDISC/V1#AIG-CDISC_ADAMIG_C_PERMISSIBLE> ;
	bd:typedAs <http://www.assero.co.uk/MDRAdamIg/CDISC/V1#AIG-CDISC_ADAMIG_DT_CHARACTER> ;
.
:AIG-CDISC_ADAMIGBDS_PCHG
	rdf:type <http://www.assero.co.uk/Tabulation#ADaMDatasetVariable> ;
	isoC:label "Percent Change from Baseline"^^xsd:string ;
	bd:ordinal "84"^^xsd:positiveInteger ;
	bd:rule ""^^xsd:string ;
	bd:name "PCHG"^^xsd:string ;
	bd:ct ""^^xsd:string ;
	bd:ct_notes ""^^xsd:string ;
	bd:notes "Percent change from baseline analysis value. Equal to ((AVAL-BASE)/BASE)*100. If used for a given PARAM, should be populated (when calculable) for all records of that PARAM. The decision on how to populate pre-baseline and baseline values of PCHG are left to sponsor choice."^^xsd:string ;
	bd:compliance <http://www.assero.co.uk/MDRAdamIg/CDISC/V1#AIG-CDISC_ADAMIG_C_PERMISSIBLE> ;
	bd:typedAs <http://www.assero.co.uk/MDRAdamIg/CDISC/V1#AIG-CDISC_ADAMIG_DT_NUMERIC> ;
.
:AIG-CDISC_ADAMIGBDS_PCHGCATy
	rdf:type <http://www.assero.co.uk/Tabulation#ADaMDatasetVariable> ;
	isoC:label "Percent Change from Baseline y"^^xsd:string ;
	bd:ordinal "85"^^xsd:positiveInteger ;
	bd:rule ""^^xsd:string ;
	bd:name "PCHGCATy"^^xsd:string ;
	bd:ct ""^^xsd:string ;
	bd:ct_notes ""^^xsd:string ;
	bd:notes "A categorical representation of PCHG. Not necessarily a one-to-one mapping to PCHG. The definition of PCHGCATy may vary by PARAM. For example, PCHGCAT1 may be used to categorize PCHG with respect to ranges of change in SYSBP; '>5%', '>10%' categories."^^xsd:string ;
	bd:compliance <http://www.assero.co.uk/MDRAdamIg/CDISC/V1#AIG-CDISC_ADAMIG_C_PERMISSIBLE> ;
	bd:typedAs <http://www.assero.co.uk/MDRAdamIg/CDISC/V1#AIG-CDISC_ADAMIG_DT_CHARACTER> ;
.
:AIG-CDISC_ADAMIGBDS_R2BASE
	rdf:type <http://www.assero.co.uk/Tabulation#ADaMDatasetVariable> ;
	isoC:label "Ratio to Baseline"^^xsd:string ;
	bd:ordinal "86"^^xsd:positiveInteger ;
	bd:rule ""^^xsd:string ;
	bd:name "R2BASE"^^xsd:string ;
	bd:ct ""^^xsd:string ;
	bd:ct_notes ""^^xsd:string ;
	bd:notes "AVAL / BASE"^^xsd:string ;
	bd:compliance <http://www.assero.co.uk/MDRAdamIg/CDISC/V1#AIG-CDISC_ADAMIG_C_PERMISSIBLE> ;
	bd:typedAs <http://www.assero.co.uk/MDRAdamIg/CDISC/V1#AIG-CDISC_ADAMIG_DT_NUMERIC> ;
.
:AIG-CDISC_ADAMIGBDS_R2AyLO
	rdf:type <http://www.assero.co.uk/Tabulation#ADaMDatasetVariable> ;
	isoC:label "Ratio to Analysis Range y Lower Limit"^^xsd:string ;
	bd:ordinal "87"^^xsd:positiveInteger ;
	bd:rule ""^^xsd:string ;
	bd:name "R2AyLO"^^xsd:string ;
	bd:ct ""^^xsd:string ;
	bd:ct_notes ""^^xsd:string ;
	bd:notes "AVAL / AyLO. AyLO must exist in the analysis dataset."^^xsd:string ;
	bd:compliance <http://www.assero.co.uk/MDRAdamIg/CDISC/V1#AIG-CDISC_ADAMIG_C_PERMISSIBLE> ;
	bd:typedAs <http://www.assero.co.uk/MDRAdamIg/CDISC/V1#AIG-CDISC_ADAMIG_DT_NUMERIC> ;
.
:AIG-CDISC_ADAMIGBDS_R2AyHI
	rdf:type <http://www.assero.co.uk/Tabulation#ADaMDatasetVariable> ;
	isoC:label "Ratio to Analysis Range y Upper Limit"^^xsd:string ;
	bd:ordinal "88"^^xsd:positiveInteger ;
	bd:rule ""^^xsd:string ;
	bd:name "R2AyHI"^^xsd:string ;
	bd:ct ""^^xsd:string ;
	bd:ct_notes ""^^xsd:string ;
	bd:notes "AVAL / AyHI. AyHI must exist in the analysis dataset."^^xsd:string ;
	bd:compliance <http://www.assero.co.uk/MDRAdamIg/CDISC/V1#AIG-CDISC_ADAMIG_C_PERMISSIBLE> ;
	bd:typedAs <http://www.assero.co.uk/MDRAdamIg/CDISC/V1#AIG-CDISC_ADAMIG_DT_NUMERIC> ;
.
:AIG-CDISC_ADAMIGBDS_SHIFTy
	rdf:type <http://www.assero.co.uk/Tabulation#ADaMDatasetVariable> ;
	isoC:label "Shift y"^^xsd:string ;
	bd:ordinal "89"^^xsd:positiveInteger ;
	bd:rule ""^^xsd:string ;
	bd:name "SHIFTy"^^xsd:string ;
	bd:ct ""^^xsd:string ;
	bd:ct_notes ""^^xsd:string ;
	bd:notes "A shift in values depending on the defined pairing for group 'y'. SHIFTy can be based on the change in value of any of the following pairs (BASECATy, AVALCATy), (BNRIND, ANRIND), (BTOXGR, ATOXGR), (BASE, AVAL) or (BASEC, AVALC). Useful for shift tables. For example, 'NORMAL to HIGH'. The decision on how to populate baseline and pre-baseline values of SHIFTy are left to sponsor choice."^^xsd:string ;
	bd:compliance <http://www.assero.co.uk/MDRAdamIg/CDISC/V1#AIG-CDISC_ADAMIG_C_PERMISSIBLE> ;
	bd:typedAs <http://www.assero.co.uk/MDRAdamIg/CDISC/V1#AIG-CDISC_ADAMIG_DT_CHARACTER> ;
.
:AIG-CDISC_ADAMIGBDS_SHIFTyN
	rdf:type <http://www.assero.co.uk/Tabulation#ADaMDatasetVariable> ;
	isoC:label "Shift y (N)"^^xsd:string ;
	bd:ordinal "90"^^xsd:positiveInteger ;
	bd:rule ""^^xsd:string ;
	bd:name "SHIFTyN"^^xsd:string ;
	bd:ct ""^^xsd:string ;
	bd:ct_notes ""^^xsd:string ;
	bd:notes "Numeric version of SHIFT. SHIFTN has a one-to-one mapping relationship with SHIFT. The decision on how to populate baseline and pre-baseline values of SHIFTN are left to sponsor choice."^^xsd:string ;
	bd:compliance <http://www.assero.co.uk/MDRAdamIg/CDISC/V1#AIG-CDISC_ADAMIG_C_PERMISSIBLE> ;
	bd:typedAs <http://www.assero.co.uk/MDRAdamIg/CDISC/V1#AIG-CDISC_ADAMIG_DT_NUMERIC> ;
.
:AIG-CDISC_ADAMIGBDS_CRITy
	rdf:type <http://www.assero.co.uk/Tabulation#ADaMDatasetVariable> ;
	isoC:label "Analysis Criterion y"^^xsd:string ;
	bd:ordinal "91"^^xsd:positiveInteger ;
	bd:rule ""^^xsd:string ;
	bd:name "CRITy"^^xsd:string ;
	bd:ct ""^^xsd:string ;
	bd:ct_notes ""^^xsd:string ;
	bd:notes "A text string identifying a pre-specified criterion, for example SYSBP > 90. In some cases, the presence of the text string indicates that the criterion is satisfied on this record, while a null value indicates that the criterion is not satisfied. In other cases, the text string identifies the criterion being evaluated, but whether or not the criterion is satisfied is indicated by the value of the variable CRITyFL. See CRITyFL and CRITyFN in Section 3.2.6. Refer to Section 4.7 for additional discussion of CRITy, CRITyFL and CRITyFN."^^xsd:string ;
	bd:compliance <http://www.assero.co.uk/MDRAdamIg/CDISC/V1#AIG-CDISC_ADAMIG_C_PERMISSIBLE> ;
	bd:typedAs <http://www.assero.co.uk/MDRAdamIg/CDISC/V1#AIG-CDISC_ADAMIG_DT_CHARACTER> ;
.
:AIG-CDISC_ADAMIGBDS_DTYPE
	rdf:type <http://www.assero.co.uk/Tabulation#ADaMDatasetVariable> ;
	isoC:label "Derivation Type"^^xsd:string ;
	bd:ordinal "92"^^xsd:positiveInteger ;
	bd:rule ""^^xsd:string ;
	bd:name "DTYPE"^^xsd:string ;
	bd:ct "DTYPE"^^xsd:string ;
	bd:ct_notes ""^^xsd:string ;
	bd:notes "Analysis value derivation method. DTYPE is used to denote, and is required to be populated, when the value of AVAL or AVALC (and thus the entire record) has been imputed, derived, or copied from other record(s). DTYPE is required to be populated even if AVAL and AVALC are null on the derived record. DTYPE is not used to denote that an analysis parameter is derived. PARAMTYP may be used to indicate that an entire parameter is derived. For each value of DTYPE, the precise derivation algorithm must be defined in analysis variable metadata, even for DTYPE values in the controlled terminology. See Section 4 for examples of the use of DTYPE. Examples of DTYPE values LOCF = last observation carried forward. WOCF = worst observation carried forward. AVERAGE = average of values."^^xsd:string ;
	bd:compliance <http://www.assero.co.uk/MDRAdamIg/CDISC/V1#AIG-CDISC_ADAMIG_C_CONDITIONAL> ;
	bd:typedAs <http://www.assero.co.uk/MDRAdamIg/CDISC/V1#AIG-CDISC_ADAMIG_DT_CHARACTER> ;
.
:AIG-CDISC_ADAMIGBDS_AWRANGE
	rdf:type <http://www.assero.co.uk/Tabulation#ADaMDatasetVariable> ;
	isoC:label "Analysis Window Valid Relative Range"^^xsd:string ;
	bd:ordinal "93"^^xsd:positiveInteger ;
	bd:rule ""^^xsd:string ;
	bd:name "AWRANGE"^^xsd:string ;
	bd:ct ""^^xsd:string ;
	bd:ct_notes ""^^xsd:string ;
	bd:notes "The range of values that are valid for a given analysis timepoint (a given value of AVISIT). For example, '5-9 DAYS'."^^xsd:string ;
	bd:compliance <http://www.assero.co.uk/MDRAdamIg/CDISC/V1#AIG-CDISC_ADAMIG_C_PERMISSIBLE> ;
	bd:typedAs <http://www.assero.co.uk/MDRAdamIg/CDISC/V1#AIG-CDISC_ADAMIG_DT_CHARACTER> ;
.
:AIG-CDISC_ADAMIGBDS_AWTARGET
	rdf:type <http://www.assero.co.uk/Tabulation#ADaMDatasetVariable> ;
	isoC:label "Analysis Window Target"^^xsd:string ;
	bd:ordinal "94"^^xsd:positiveInteger ;
	bd:rule ""^^xsd:string ;
	bd:name "AWTARGET"^^xsd:string ;
	bd:ct ""^^xsd:string ;
	bd:ct_notes ""^^xsd:string ;
	bd:notes "The target or most desired analysis relative day (ADY) value or analysis relative time (ARELTM) value for a given value of AVISIT."^^xsd:string ;
	bd:compliance <http://www.assero.co.uk/MDRAdamIg/CDISC/V1#AIG-CDISC_ADAMIG_C_PERMISSIBLE> ;
	bd:typedAs <http://www.assero.co.uk/MDRAdamIg/CDISC/V1#AIG-CDISC_ADAMIG_DT_NUMERIC> ;
.
:AIG-CDISC_ADAMIGBDS_AWTDIFF
	rdf:type <http://www.assero.co.uk/Tabulation#ADaMDatasetVariable> ;
	isoC:label "Analysis Window Diff from Target"^^xsd:string ;
	bd:ordinal "95"^^xsd:positiveInteger ;
	bd:rule ""^^xsd:string ;
	bd:name "AWTDIFF"^^xsd:string ;
	bd:ct ""^^xsd:string ;
	bd:ct_notes ""^^xsd:string ;
	bd:notes "Absolute difference between ADY or ARELTM and AWTARGET. It will be necessary to adjust for the fact that there is no day 0 in the event that ADY and AWTARGET are not of the same sign. If the sign of the difference is important, then AWTDIFF might have to be used in conjunction with ADY or ARELTM and possibly AWTARGET when choosing among records."^^xsd:string ;
	bd:compliance <http://www.assero.co.uk/MDRAdamIg/CDISC/V1#AIG-CDISC_ADAMIG_C_PERMISSIBLE> ;
	bd:typedAs <http://www.assero.co.uk/MDRAdamIg/CDISC/V1#AIG-CDISC_ADAMIG_DT_NUMERIC> ;
.
:AIG-CDISC_ADAMIGBDS_AWLO
	rdf:type <http://www.assero.co.uk/Tabulation#ADaMDatasetVariable> ;
	isoC:label "Analysis Window Beginning Timepoint"^^xsd:string ;
	bd:ordinal "96"^^xsd:positiveInteger ;
	bd:rule ""^^xsd:string ;
	bd:name "AWLO"^^xsd:string ;
	bd:ct ""^^xsd:string ;
	bd:ct_notes ""^^xsd:string ;
	bd:notes "The value of the beginning timepoint (inclusive) needs to be used in conjunction to AWRANGE. For example, if AWRANGE is'5-9 DAYS', then AWLO is '5'."^^xsd:string ;
	bd:compliance <http://www.assero.co.uk/MDRAdamIg/CDISC/V1#AIG-CDISC_ADAMIG_C_PERMISSIBLE> ;
	bd:typedAs <http://www.assero.co.uk/MDRAdamIg/CDISC/V1#AIG-CDISC_ADAMIG_DT_NUMERIC> ;
.
:AIG-CDISC_ADAMIGBDS_AWHI
	rdf:type <http://www.assero.co.uk/Tabulation#ADaMDatasetVariable> ;
	isoC:label "Analysis Window Ending Timepoint"^^xsd:string ;
	bd:ordinal "97"^^xsd:positiveInteger ;
	bd:rule ""^^xsd:string ;
	bd:name "AWHI"^^xsd:string ;
	bd:ct ""^^xsd:string ;
	bd:ct_notes ""^^xsd:string ;
	bd:notes "The value of the ending timepoint (inclusive) needs to be used in conjunction to AWRANGE. For example, if AWRANGE is'5-9 DAYS', then AWHI is '9'."^^xsd:string ;
	bd:compliance <http://www.assero.co.uk/MDRAdamIg/CDISC/V1#AIG-CDISC_ADAMIG_C_PERMISSIBLE> ;
	bd:typedAs <http://www.assero.co.uk/MDRAdamIg/CDISC/V1#AIG-CDISC_ADAMIG_DT_NUMERIC> ;
.
:AIG-CDISC_ADAMIGBDS_AWU
	rdf:type <http://www.assero.co.uk/Tabulation#ADaMDatasetVariable> ;
	isoC:label "Analysis Window Unit"^^xsd:string ;
	bd:ordinal "98"^^xsd:positiveInteger ;
	bd:rule ""^^xsd:string ;
	bd:name "AWU"^^xsd:string ;
	bd:ct ""^^xsd:string ;
	bd:ct_notes ""^^xsd:string ;
	bd:notes "Unit used for AWLO and AWHI. Examples: DAYS, HOURS."^^xsd:string ;
	bd:compliance <http://www.assero.co.uk/MDRAdamIg/CDISC/V1#AIG-CDISC_ADAMIG_C_PERMISSIBLE> ;
	bd:typedAs <http://www.assero.co.uk/MDRAdamIg/CDISC/V1#AIG-CDISC_ADAMIG_DT_CHARACTER> ;
.
:AIG-CDISC_ADAMIGBDS_STARTDT
	rdf:type <http://www.assero.co.uk/Tabulation#ADaMDatasetVariable> ;
	isoC:label "Time to Event Origin Date for Subject"^^xsd:string ;
	bd:ordinal "99"^^xsd:positiveInteger ;
	bd:rule ""^^xsd:string ;
	bd:name "STARTDT"^^xsd:string ;
	bd:ct ""^^xsd:string ;
	bd:ct_notes ""^^xsd:string ;
	bd:notes "The original date of risk for the time-to-event analysis. This is generally the time at which a subject is first at risk of the event of interest (as defined in the protocol or Statistical Analysis Plan). For example, this may be the randomization date or the date of first study therapy exposure."^^xsd:string ;
	bd:compliance <http://www.assero.co.uk/MDRAdamIg/CDISC/V1#AIG-CDISC_ADAMIG_C_PERMISSIBLE> ;
	bd:typedAs <http://www.assero.co.uk/MDRAdamIg/CDISC/V1#AIG-CDISC_ADAMIG_DT_NUMERIC> ;
.
:AIG-CDISC_ADAMIGBDS_CNSR
	rdf:type <http://www.assero.co.uk/Tabulation#ADaMDatasetVariable> ;
	isoC:label "Censor"^^xsd:string ;
	bd:ordinal "100"^^xsd:positiveInteger ;
	bd:rule ""^^xsd:string ;
	bd:name "CNSR"^^xsd:string ;
	bd:ct ""^^xsd:string ;
	bd:ct_notes ""^^xsd:string ;
	bd:notes "Defines whether the event was censored (period of observation truncated prior to event being observed). It is strongly recommended to use 0 as an event indicator and positive integers as censoring indicators. It is also recommended that unique positive integers be used to indicate coded descriptions of censoring reasons. CNSR is required for time-to-event parameters."^^xsd:string ;
	bd:compliance <http://www.assero.co.uk/MDRAdamIg/CDISC/V1#AIG-CDISC_ADAMIG_C_CONDITIONAL> ;
	bd:typedAs <http://www.assero.co.uk/MDRAdamIg/CDISC/V1#AIG-CDISC_ADAMIG_DT_NUMERIC> ;
.
:AIG-CDISC_ADAMIGBDS_EVNTDESC
	rdf:type <http://www.assero.co.uk/Tabulation#ADaMDatasetVariable> ;
	isoC:label "Event or Censoring Description"^^xsd:string ;
	bd:ordinal "101"^^xsd:positiveInteger ;
	bd:rule ""^^xsd:string ;
	bd:name "EVNTDESC"^^xsd:string ;
	bd:ct ""^^xsd:string ;
	bd:ct_notes ""^^xsd:string ;
	bd:notes "Description of the event of interest or censoring reason."^^xsd:string ;
	bd:compliance <http://www.assero.co.uk/MDRAdamIg/CDISC/V1#AIG-CDISC_ADAMIG_C_PERMISSIBLE> ;
	bd:typedAs <http://www.assero.co.uk/MDRAdamIg/CDISC/V1#AIG-CDISC_ADAMIG_DT_CHARACTER> ;
.
:AIG-CDISC_ADAMIGBDS_ATOXGR
	rdf:type <http://www.assero.co.uk/Tabulation#ADaMDatasetVariable> ;
	isoC:label "Analysis Toxicity Grade"^^xsd:string ;
	bd:ordinal "102"^^xsd:positiveInteger ;
	bd:rule ""^^xsd:string ;
	bd:name "ATOXGR"^^xsd:string ;
	bd:ct ""^^xsd:string ;
	bd:ct_notes ""^^xsd:string ;
	bd:notes "Toxicity grade for analysis; may be based on SDTM --TOXGR or an imputed or assigned value."^^xsd:string ;
	bd:compliance <http://www.assero.co.uk/MDRAdamIg/CDISC/V1#AIG-CDISC_ADAMIG_C_PERMISSIBLE> ;
	bd:typedAs <http://www.assero.co.uk/MDRAdamIg/CDISC/V1#AIG-CDISC_ADAMIG_DT_CHARACTER> ;
.
:AIG-CDISC_ADAMIGBDS_BTOXGR
	rdf:type <http://www.assero.co.uk/Tabulation#ADaMDatasetVariable> ;
	isoC:label "Baseline Toxicity Grade"^^xsd:string ;
	bd:ordinal "103"^^xsd:positiveInteger ;
	bd:rule ""^^xsd:string ;
	bd:name "BTOXGR"^^xsd:string ;
	bd:ct ""^^xsd:string ;
	bd:ct_notes ""^^xsd:string ;
	bd:notes "ATOXGR of the baseline record identified by ABLFL."^^xsd:string ;
	bd:compliance <http://www.assero.co.uk/MDRAdamIg/CDISC/V1#AIG-CDISC_ADAMIG_C_PERMISSIBLE> ;
	bd:typedAs <http://www.assero.co.uk/MDRAdamIg/CDISC/V1#AIG-CDISC_ADAMIG_DT_CHARACTER> ;
.
:AIG-CDISC_ADAMIGBDS_ANRIND
	rdf:type <http://www.assero.co.uk/Tabulation#ADaMDatasetVariable> ;
	isoC:label "Analysis Reference Range Indicator"^^xsd:string ;
	bd:ordinal "104"^^xsd:positiveInteger ;
	bd:rule ""^^xsd:string ;
	bd:name "ANRIND"^^xsd:string ;
	bd:ct ""^^xsd:string ;
	bd:ct_notes ""^^xsd:string ;
	bd:notes "Normal range indicator for analysis; may be based on SDTM --NRIND or an imputed or assigned value."^^xsd:string ;
	bd:compliance <http://www.assero.co.uk/MDRAdamIg/CDISC/V1#AIG-CDISC_ADAMIG_C_PERMISSIBLE> ;
	bd:typedAs <http://www.assero.co.uk/MDRAdamIg/CDISC/V1#AIG-CDISC_ADAMIG_DT_CHARACTER> ;
.
:AIG-CDISC_ADAMIGBDS_BNRIND
	rdf:type <http://www.assero.co.uk/Tabulation#ADaMDatasetVariable> ;
	isoC:label "Baseline Reference Range Indicator"^^xsd:string ;
	bd:ordinal "105"^^xsd:positiveInteger ;
	bd:rule ""^^xsd:string ;
	bd:name "BNRIND"^^xsd:string ;
	bd:ct ""^^xsd:string ;
	bd:ct_notes ""^^xsd:string ;
	bd:notes "ANRIND of the baseline record identified by ABLFL."^^xsd:string ;
	bd:compliance <http://www.assero.co.uk/MDRAdamIg/CDISC/V1#AIG-CDISC_ADAMIG_C_PERMISSIBLE> ;
	bd:typedAs <http://www.assero.co.uk/MDRAdamIg/CDISC/V1#AIG-CDISC_ADAMIG_DT_CHARACTER> ;
.
:AIG-CDISC_ADAMIGBDS_ANRLO
	rdf:type <http://www.assero.co.uk/Tabulation#ADaMDatasetVariable> ;
	isoC:label "Analysis Normal Range Lower Limit"^^xsd:string ;
	bd:ordinal "106"^^xsd:positiveInteger ;
	bd:rule ""^^xsd:string ;
	bd:name "ANRLO"^^xsd:string ;
	bd:ct ""^^xsd:string ;
	bd:ct_notes ""^^xsd:string ;
	bd:notes "Normal range lower limit for analysis; may be based on SDTM --NRLO or an imputed or assigned value."^^xsd:string ;
	bd:compliance <http://www.assero.co.uk/MDRAdamIg/CDISC/V1#AIG-CDISC_ADAMIG_C_PERMISSIBLE> ;
	bd:typedAs <http://www.assero.co.uk/MDRAdamIg/CDISC/V1#AIG-CDISC_ADAMIG_DT_CHARACTER> ;
.
:AIG-CDISC_ADAMIGBDS_ANRHI
	rdf:type <http://www.assero.co.uk/Tabulation#ADaMDatasetVariable> ;
	isoC:label "Analysis Normal Range Upper Limit"^^xsd:string ;
	bd:ordinal "107"^^xsd:positiveInteger ;
	bd:rule ""^^xsd:string ;
	bd:name "ANRHI"^^xsd:string ;
	bd:ct ""^^xsd:string ;
	bd:ct_notes ""^^xsd:string ;
	bd:notes "Normal range upper limit for analysis; may be based on SDTM --NRHI or an imputed or assigned value."^^xsd:string ;
	bd:compliance <http://www.assero.co.uk/MDRAdamIg/CDISC/V1#AIG-CDISC_ADAMIG_C_PERMISSIBLE> ;
	bd:typedAs <http://www.assero.co.uk/MDRAdamIg/CDISC/V1#AIG-CDISC_ADAMIG_DT_CHARACTER> ;
.
:AIG-CDISC_ADAMIGBDS_AyLO
	rdf:type <http://www.assero.co.uk/Tabulation#ADaMDatasetVariable> ;
	isoC:label "Analysis Range y Lower Limit"^^xsd:string ;
	bd:ordinal "108"^^xsd:positiveInteger ;
	bd:rule ""^^xsd:string ;
	bd:name "AyLO"^^xsd:string ;
	bd:ct ""^^xsd:string ;
	bd:ct_notes ""^^xsd:string ;
	bd:notes "AyLO and/or AyHI are used where there are multiple ranges used for analysis. AyLO and/or AyHI are created to capture the different levels of cutoff values used to determine whether an analysis is within a clinically acceptable value range or outside that value range. AyLO and/or AyHI are usually but not necessarily constants, parameter-specific constants, or subject-specific constants. AyLO must be included if R2AyLO is included in the dataset."^^xsd:string ;
	bd:compliance <http://www.assero.co.uk/MDRAdamIg/CDISC/V1#AIG-CDISC_ADAMIG_C_CONDITIONAL> ;
	bd:typedAs <http://www.assero.co.uk/MDRAdamIg/CDISC/V1#AIG-CDISC_ADAMIG_DT_CHARACTER> ;
.
:AIG-CDISC_ADAMIGBDS_AyHI
	rdf:type <http://www.assero.co.uk/Tabulation#ADaMDatasetVariable> ;
	isoC:label "Analysis Range y Upper Limit"^^xsd:string ;
	bd:ordinal "109"^^xsd:positiveInteger ;
	bd:rule ""^^xsd:string ;
	bd:name "AyHI"^^xsd:string ;
	bd:ct ""^^xsd:string ;
	bd:ct_notes ""^^xsd:string ;
	bd:notes "See AyLO. For example, if ECG QTc values are summarized based on values 450, values >480, and values >500, there is a need for 3 'hi value' range variables to calculate values against: A1HI=450, A2HI=480, A3HI=500. AyHI must be included if R2AyHI is included in the dataset."^^xsd:string ;
	bd:compliance <http://www.assero.co.uk/MDRAdamIg/CDISC/V1#AIG-CDISC_ADAMIG_C_CONDITIONAL> ;
	bd:typedAs <http://www.assero.co.uk/MDRAdamIg/CDISC/V1#AIG-CDISC_ADAMIG_DT_CHARACTER> ;
.
:AIG-CDISC_ADAMIGBDS_ABLFL
	rdf:type <http://www.assero.co.uk/Tabulation#ADaMDatasetVariable> ;
	isoC:label "Baseline Record Flag"^^xsd:string ;
	bd:ordinal "110"^^xsd:positiveInteger ;
	bd:rule ""^^xsd:string ;
	bd:name "ABLFL"^^xsd:string ;
	bd:ct ""^^xsd:string ;
	bd:ct_notes "Y"^^xsd:string ;
	bd:notes "Character indicator to identify the baseline record for each parameter, or if there is more than one baseline definition, for each parameter and baseline type (BASETYPE). See BASETYPE in Table 3.2.4.1. ABLFL is required if BASE is present in the dataset. A baseline record may be derived (e.g., it may be an average), in which case DTYPE must also be populated. If BASE is populated for a parameter, and BASE is non-null for a subject for that parameter, then there must be a record flagged by ABLFL for that subject and parameter."^^xsd:string ;
	bd:compliance <http://www.assero.co.uk/MDRAdamIg/CDISC/V1#AIG-CDISC_ADAMIG_C_CONDITIONAL> ;
	bd:typedAs <http://www.assero.co.uk/MDRAdamIg/CDISC/V1#AIG-CDISC_ADAMIG_DT_CHARACTER> ;
.
:AIG-CDISC_ADAMIGBDS_ABLFN
	rdf:type <http://www.assero.co.uk/Tabulation#ADaMDatasetVariable> ;
	isoC:label "Baseline Record Flag (N)"^^xsd:string ;
	bd:ordinal "111"^^xsd:positiveInteger ;
	bd:rule ""^^xsd:string ;
	bd:name "ABLFN"^^xsd:string ;
	bd:ct ""^^xsd:string ;
	bd:ct_notes "1"^^xsd:string ;
	bd:notes "Numeric indicator to identify the baseline record for each parameter, or if there is more than one baseline definition, for each parameter and baseline type (BASETYPE)."^^xsd:string ;
	bd:compliance <http://www.assero.co.uk/MDRAdamIg/CDISC/V1#AIG-CDISC_ADAMIG_C_PERMISSIBLE> ;
	bd:typedAs <http://www.assero.co.uk/MDRAdamIg/CDISC/V1#AIG-CDISC_ADAMIG_DT_CHARACTER> ;
.
:AIG-CDISC_ADAMIGBDS_ANLzzFL
	rdf:type <http://www.assero.co.uk/Tabulation#ADaMDatasetVariable> ;
	isoC:label "Analysis Record Flag zz"^^xsd:string ;
	bd:ordinal "112"^^xsd:positiveInteger ;
	bd:rule ""^^xsd:string ;
	bd:name "ANLzzFL"^^xsd:string ;
	bd:ct ""^^xsd:string ;
	bd:ct_notes "Y"^^xsd:string ;
	bd:notes "ANLzzFL is a conditionally required flag to be used in addition to other selection variables when the other selection variables in combination are insufficient to identify the exact set of records used for one or more analyses. Often one ANLzzFL will serve to support the accurate selection of records for more than one analysis. When one is defining the set of records used in a particular analysis or family of analyses, ANLzzFL is supplemental to, and is intended to be used in conjunction with, other selection variables, such as subject-level, parameter-level and record-level population flags, AVISIT, DTYPE, grouping variables such as SITEGRy, and others. Every record selection algorithm 'zz' (i.e., every algorithm for populating an ANLzzFL) must be defined in variable metadata. When the set of records that the algorithm 'zz' operates on is pre-filtered by application of other criteria, such as a record-level population flag, then the selection algorithm definition in the metadata must so specify. Note that the ANLzzFL value of Y indicates that the record fulfilled the requirements of the algorithm, but does not necessarily imply that the record was actually used in one or more analyses, as whether or not a record is used also depends on the other selection variables applied. The ANLzzFL flag is useful in many circumstances; an example is when there is more than one record for an analysis timepoint within a subject and parameter, as it can be used to identify the record chosen to represent the timepoint for an analysis. 'zz' is an index for a record selection algorithm, such as 'record closest to target relative day for the AVISIT, with ties broken by the latest record, for each AVISIT within <list of AVISITS>.'"^^xsd:string ;
	bd:compliance <http://www.assero.co.uk/MDRAdamIg/CDISC/V1#AIG-CDISC_ADAMIG_C_CONDITIONAL> ;
	bd:typedAs <http://www.assero.co.uk/MDRAdamIg/CDISC/V1#AIG-CDISC_ADAMIG_DT_CHARACTER> ;
.
:AIG-CDISC_ADAMIGBDS_ANLzzFN
	rdf:type <http://www.assero.co.uk/Tabulation#ADaMDatasetVariable> ;
	isoC:label "Analyzed Record Flag zz (N)"^^xsd:string ;
	bd:ordinal "113"^^xsd:positiveInteger ;
	bd:rule ""^^xsd:string ;
	bd:name "ANLzzFN"^^xsd:string ;
	bd:ct ""^^xsd:string ;
	bd:ct_notes "1"^^xsd:string ;
	bd:notes "Numeric version of ANLzzFL."^^xsd:string ;
	bd:compliance <http://www.assero.co.uk/MDRAdamIg/CDISC/V1#AIG-CDISC_ADAMIG_C_PERMISSIBLE> ;
	bd:typedAs <http://www.assero.co.uk/MDRAdamIg/CDISC/V1#AIG-CDISC_ADAMIG_DT_CHARACTER> ;
.
:AIG-CDISC_ADAMIGBDS_ONTRTFL
	rdf:type <http://www.assero.co.uk/Tabulation#ADaMDatasetVariable> ;
	isoC:label "On Treatment Record Flag"^^xsd:string ;
	bd:ordinal "114"^^xsd:positiveInteger ;
	bd:rule ""^^xsd:string ;
	bd:name "ONTRTFL"^^xsd:string ;
	bd:ct ""^^xsd:string ;
	bd:ct_notes "Y"^^xsd:string ;
	bd:notes "Character indicator of whether the observation occurred while the subject was on treatment."^^xsd:string ;
	bd:compliance <http://www.assero.co.uk/MDRAdamIg/CDISC/V1#AIG-CDISC_ADAMIG_C_PERMISSIBLE> ;
	bd:typedAs <http://www.assero.co.uk/MDRAdamIg/CDISC/V1#AIG-CDISC_ADAMIG_DT_CHARACTER> ;
.
:AIG-CDISC_ADAMIGBDS_ONTRTFN
	rdf:type <http://www.assero.co.uk/Tabulation#ADaMDatasetVariable> ;
	isoC:label "On Treatment Record Flag (N)"^^xsd:string ;
	bd:ordinal "115"^^xsd:positiveInteger ;
	bd:rule ""^^xsd:string ;
	bd:name "ONTRTFN"^^xsd:string ;
	bd:ct ""^^xsd:string ;
	bd:ct_notes "1"^^xsd:string ;
	bd:notes "Numeric indicator of whether the observation occurred while the subject was on treatment."^^xsd:string ;
	bd:compliance <http://www.assero.co.uk/MDRAdamIg/CDISC/V1#AIG-CDISC_ADAMIG_C_PERMISSIBLE> ;
	bd:typedAs <http://www.assero.co.uk/MDRAdamIg/CDISC/V1#AIG-CDISC_ADAMIG_DT_CHARACTER> ;
.
:AIG-CDISC_ADAMIGBDS_LVOTFL
	rdf:type <http://www.assero.co.uk/Tabulation#ADaMDatasetVariable> ;
	isoC:label "Last Value On Treatment Record Flag"^^xsd:string ;
	bd:ordinal "116"^^xsd:positiveInteger ;
	bd:rule ""^^xsd:string ;
	bd:name "LVOTFL"^^xsd:string ;
	bd:ct ""^^xsd:string ;
	bd:ct_notes "Y"^^xsd:string ;
	bd:notes "Character indicator of the last non-missing value on treatment for each parameter."^^xsd:string ;
	bd:compliance <http://www.assero.co.uk/MDRAdamIg/CDISC/V1#AIG-CDISC_ADAMIG_C_PERMISSIBLE> ;
	bd:typedAs <http://www.assero.co.uk/MDRAdamIg/CDISC/V1#AIG-CDISC_ADAMIG_DT_CHARACTER> ;
.
:AIG-CDISC_ADAMIGBDS_LVOTFN
	rdf:type <http://www.assero.co.uk/Tabulation#ADaMDatasetVariable> ;
	isoC:label "Last Value On Treatment Record Flag (N)"^^xsd:string ;
	bd:ordinal "117"^^xsd:positiveInteger ;
	bd:rule ""^^xsd:string ;
	bd:name "LVOTFN"^^xsd:string ;
	bd:ct ""^^xsd:string ;
	bd:ct_notes "1"^^xsd:string ;
	bd:notes "Numeric indicator of the last non-missing value on treatment for each parameter."^^xsd:string ;
	bd:compliance <http://www.assero.co.uk/MDRAdamIg/CDISC/V1#AIG-CDISC_ADAMIG_C_PERMISSIBLE> ;
	bd:typedAs <http://www.assero.co.uk/MDRAdamIg/CDISC/V1#AIG-CDISC_ADAMIG_DT_CHARACTER> ;
.
:AIG-CDISC_ADAMIGBDS_ITTRFL
	rdf:type <http://www.assero.co.uk/Tabulation#ADaMDatasetVariable> ;
	isoC:label "Intent-To-Treat Record-Level Flag"^^xsd:string ;
	bd:ordinal "118"^^xsd:positiveInteger ;
	bd:rule ""^^xsd:string ;
	bd:name "ITTRFL"^^xsd:string ;
	bd:ct ""^^xsd:string ;
	bd:ct_notes "Y"^^xsd:string ;
	bd:notes "Character indicator of whether the subject was in the intent-to-treat analysis for the specific record."^^xsd:string ;
	bd:compliance <http://www.assero.co.uk/MDRAdamIg/CDISC/V1#AIG-CDISC_ADAMIG_C_CONDITIONAL> ;
	bd:typedAs <http://www.assero.co.uk/MDRAdamIg/CDISC/V1#AIG-CDISC_ADAMIG_DT_CHARACTER> ;
.
:AIG-CDISC_ADAMIGBDS_ITTRFN
	rdf:type <http://www.assero.co.uk/Tabulation#ADaMDatasetVariable> ;
	isoC:label "Intent-To-Treat Record-Level Flag (N)"^^xsd:string ;
	bd:ordinal "119"^^xsd:positiveInteger ;
	bd:rule ""^^xsd:string ;
	bd:name "ITTRFN"^^xsd:string ;
	bd:ct ""^^xsd:string ;
	bd:ct_notes "1"^^xsd:string ;
	bd:notes "Numeric indicator of whether the subject was in the intent-to-treat analysis for the specific record."^^xsd:string ;
	bd:compliance <http://www.assero.co.uk/MDRAdamIg/CDISC/V1#AIG-CDISC_ADAMIG_C_PERMISSIBLE> ;
	bd:typedAs <http://www.assero.co.uk/MDRAdamIg/CDISC/V1#AIG-CDISC_ADAMIG_DT_CHARACTER> ;
.
:AIG-CDISC_ADAMIGBDS_ITTPFL
	rdf:type <http://www.assero.co.uk/Tabulation#ADaMDatasetVariable> ;
	isoC:label "Intent-To-Treat Parameter-Level Flag"^^xsd:string ;
	bd:ordinal "120"^^xsd:positiveInteger ;
	bd:rule ""^^xsd:string ;
	bd:name "ITTPFL"^^xsd:string ;
	bd:ct ""^^xsd:string ;
	bd:ct_notes "Y"^^xsd:string ;
	bd:notes "Character indicator of whether the subject was in the intent-to-treat analysis for the specific parameter."^^xsd:string ;
	bd:compliance <http://www.assero.co.uk/MDRAdamIg/CDISC/V1#AIG-CDISC_ADAMIG_C_CONDITIONAL> ;
	bd:typedAs <http://www.assero.co.uk/MDRAdamIg/CDISC/V1#AIG-CDISC_ADAMIG_DT_CHARACTER> ;
.
:AIG-CDISC_ADAMIGBDS_ITTPFN
	rdf:type <http://www.assero.co.uk/Tabulation#ADaMDatasetVariable> ;
	isoC:label "Intent-To-Treat Param-Level Flag (N)"^^xsd:string ;
	bd:ordinal "121"^^xsd:positiveInteger ;
	bd:rule ""^^xsd:string ;
	bd:name "ITTPFN"^^xsd:string ;
	bd:ct ""^^xsd:string ;
	bd:ct_notes "1"^^xsd:string ;
	bd:notes "Numeric indicator of whether the subject was in the intent-to-treat analysis for the specific parameter."^^xsd:string ;
	bd:compliance <http://www.assero.co.uk/MDRAdamIg/CDISC/V1#AIG-CDISC_ADAMIG_C_PERMISSIBLE> ;
	bd:typedAs <http://www.assero.co.uk/MDRAdamIg/CDISC/V1#AIG-CDISC_ADAMIG_DT_CHARACTER> ;
.
:AIG-CDISC_ADAMIGBDS_SAFRFL
	rdf:type <http://www.assero.co.uk/Tabulation#ADaMDatasetVariable> ;
	isoC:label "Safety Analysis Record-Level Flag"^^xsd:string ;
	bd:ordinal "122"^^xsd:positiveInteger ;
	bd:rule ""^^xsd:string ;
	bd:name "SAFRFL"^^xsd:string ;
	bd:ct ""^^xsd:string ;
	bd:ct_notes "Y"^^xsd:string ;
	bd:notes "Character indicator of whether the subject was in the safety analysis for the specific record."^^xsd:string ;
	bd:compliance <http://www.assero.co.uk/MDRAdamIg/CDISC/V1#AIG-CDISC_ADAMIG_C_CONDITIONAL> ;
	bd:typedAs <http://www.assero.co.uk/MDRAdamIg/CDISC/V1#AIG-CDISC_ADAMIG_DT_CHARACTER> ;
.
:AIG-CDISC_ADAMIGBDS_SAFRFN
	rdf:type <http://www.assero.co.uk/Tabulation#ADaMDatasetVariable> ;
	isoC:label "Safety Analysis Record-Level Flag (N)"^^xsd:string ;
	bd:ordinal "123"^^xsd:positiveInteger ;
	bd:rule ""^^xsd:string ;
	bd:name "SAFRFN"^^xsd:string ;
	bd:ct ""^^xsd:string ;
	bd:ct_notes "1"^^xsd:string ;
	bd:notes "Numeric indicator of whether the subject was in the safety analysis for the specific record."^^xsd:string ;
	bd:compliance <http://www.assero.co.uk/MDRAdamIg/CDISC/V1#AIG-CDISC_ADAMIG_C_PERMISSIBLE> ;
	bd:typedAs <http://www.assero.co.uk/MDRAdamIg/CDISC/V1#AIG-CDISC_ADAMIG_DT_CHARACTER> ;
.
:AIG-CDISC_ADAMIGBDS_SAFPFL
	rdf:type <http://www.assero.co.uk/Tabulation#ADaMDatasetVariable> ;
	isoC:label "Safety Analysis Parameter-Level Flag"^^xsd:string ;
	bd:ordinal "124"^^xsd:positiveInteger ;
	bd:rule ""^^xsd:string ;
	bd:name "SAFPFL"^^xsd:string ;
	bd:ct ""^^xsd:string ;
	bd:ct_notes "Y"^^xsd:string ;
	bd:notes "Character indicator of whether the subject was in the safety analysis for the specific parameter."^^xsd:string ;
	bd:compliance <http://www.assero.co.uk/MDRAdamIg/CDISC/V1#AIG-CDISC_ADAMIG_C_CONDITIONAL> ;
	bd:typedAs <http://www.assero.co.uk/MDRAdamIg/CDISC/V1#AIG-CDISC_ADAMIG_DT_CHARACTER> ;
.
:AIG-CDISC_ADAMIGBDS_SAFPFN
	rdf:type <http://www.assero.co.uk/Tabulation#ADaMDatasetVariable> ;
	isoC:label "Safety Analysis Param-Level Flag (N)"^^xsd:string ;
	bd:ordinal "125"^^xsd:positiveInteger ;
	bd:rule ""^^xsd:string ;
	bd:name "SAFPFN"^^xsd:string ;
	bd:ct ""^^xsd:string ;
	bd:ct_notes "1"^^xsd:string ;
	bd:notes "Numeric indicator of whether the subject was in the safety analysis for the specific parameter."^^xsd:string ;
	bd:compliance <http://www.assero.co.uk/MDRAdamIg/CDISC/V1#AIG-CDISC_ADAMIG_C_PERMISSIBLE> ;
	bd:typedAs <http://www.assero.co.uk/MDRAdamIg/CDISC/V1#AIG-CDISC_ADAMIG_DT_CHARACTER> ;
.
:AIG-CDISC_ADAMIGBDS_FASRFL
	rdf:type <http://www.assero.co.uk/Tabulation#ADaMDatasetVariable> ;
	isoC:label "Full Analysis Set Record-Level Flag"^^xsd:string ;
	bd:ordinal "126"^^xsd:positiveInteger ;
	bd:rule ""^^xsd:string ;
	bd:name "FASRFL"^^xsd:string ;
	bd:ct ""^^xsd:string ;
	bd:ct_notes "Y"^^xsd:string ;
	bd:notes "Character indicator of whether the subject was in the full analysis set analysis for the specific record."^^xsd:string ;
	bd:compliance <http://www.assero.co.uk/MDRAdamIg/CDISC/V1#AIG-CDISC_ADAMIG_C_CONDITIONAL> ;
	bd:typedAs <http://www.assero.co.uk/MDRAdamIg/CDISC/V1#AIG-CDISC_ADAMIG_DT_CHARACTER> ;
.
:AIG-CDISC_ADAMIGBDS_FASRFN
	rdf:type <http://www.assero.co.uk/Tabulation#ADaMDatasetVariable> ;
	isoC:label "Full Analysis Set Record-Level Flag (N)"^^xsd:string ;
	bd:ordinal "127"^^xsd:positiveInteger ;
	bd:rule ""^^xsd:string ;
	bd:name "FASRFN"^^xsd:string ;
	bd:ct ""^^xsd:string ;
	bd:ct_notes "1"^^xsd:string ;
	bd:notes "Numeric indicator of whether the subject was in the full analysis set analysis for the specific record."^^xsd:string ;
	bd:compliance <http://www.assero.co.uk/MDRAdamIg/CDISC/V1#AIG-CDISC_ADAMIG_C_PERMISSIBLE> ;
	bd:typedAs <http://www.assero.co.uk/MDRAdamIg/CDISC/V1#AIG-CDISC_ADAMIG_DT_CHARACTER> ;
.
:AIG-CDISC_ADAMIGBDS_FASPFL
	rdf:type <http://www.assero.co.uk/Tabulation#ADaMDatasetVariable> ;
	isoC:label "Full Analysis Set Parameter-Level Flag"^^xsd:string ;
	bd:ordinal "128"^^xsd:positiveInteger ;
	bd:rule ""^^xsd:string ;
	bd:name "FASPFL"^^xsd:string ;
	bd:ct ""^^xsd:string ;
	bd:ct_notes "Y"^^xsd:string ;
	bd:notes "Character indicator of whether the subject was in the full analysis set analysis for the specific parameter."^^xsd:string ;
	bd:compliance <http://www.assero.co.uk/MDRAdamIg/CDISC/V1#AIG-CDISC_ADAMIG_C_CONDITIONAL> ;
	bd:typedAs <http://www.assero.co.uk/MDRAdamIg/CDISC/V1#AIG-CDISC_ADAMIG_DT_CHARACTER> ;
.
:AIG-CDISC_ADAMIGBDS_FASPFN
	rdf:type <http://www.assero.co.uk/Tabulation#ADaMDatasetVariable> ;
	isoC:label "Full Analysis Set Param-Level Flag (N)"^^xsd:string ;
	bd:ordinal "129"^^xsd:positiveInteger ;
	bd:rule ""^^xsd:string ;
	bd:name "FASPFN"^^xsd:string ;
	bd:ct ""^^xsd:string ;
	bd:ct_notes "1"^^xsd:string ;
	bd:notes "Numeric indicator of whether the subject was in the full analysis set analysis for the specific parameter."^^xsd:string ;
	bd:compliance <http://www.assero.co.uk/MDRAdamIg/CDISC/V1#AIG-CDISC_ADAMIG_C_PERMISSIBLE> ;
	bd:typedAs <http://www.assero.co.uk/MDRAdamIg/CDISC/V1#AIG-CDISC_ADAMIG_DT_CHARACTER> ;
.
:AIG-CDISC_ADAMIGBDS_PPROTRFL
	rdf:type <http://www.assero.co.uk/Tabulation#ADaMDatasetVariable> ;
	isoC:label "Per-Protocol Record-Level Flag"^^xsd:string ;
	bd:ordinal "130"^^xsd:positiveInteger ;
	bd:rule ""^^xsd:string ;
	bd:name "PPROTRFL"^^xsd:string ;
	bd:ct ""^^xsd:string ;
	bd:ct_notes "Y"^^xsd:string ;
	bd:notes "Character indicator of whether the subject was in the per-protocol analysis for the specific record."^^xsd:string ;
	bd:compliance <http://www.assero.co.uk/MDRAdamIg/CDISC/V1#AIG-CDISC_ADAMIG_C_CONDITIONAL> ;
	bd:typedAs <http://www.assero.co.uk/MDRAdamIg/CDISC/V1#AIG-CDISC_ADAMIG_DT_CHARACTER> ;
.
:AIG-CDISC_ADAMIGBDS_PPROTRFN
	rdf:type <http://www.assero.co.uk/Tabulation#ADaMDatasetVariable> ;
	isoC:label "Per-Protocol Record-Level Flag (N)"^^xsd:string ;
	bd:ordinal "131"^^xsd:positiveInteger ;
	bd:rule ""^^xsd:string ;
	bd:name "PPROTRFN"^^xsd:string ;
	bd:ct ""^^xsd:string ;
	bd:ct_notes "1"^^xsd:string ;
	bd:notes "Numeric indicator of whether the subject was in the per-protocol analysis for the specific record."^^xsd:string ;
	bd:compliance <http://www.assero.co.uk/MDRAdamIg/CDISC/V1#AIG-CDISC_ADAMIG_C_PERMISSIBLE> ;
	bd:typedAs <http://www.assero.co.uk/MDRAdamIg/CDISC/V1#AIG-CDISC_ADAMIG_DT_CHARACTER> ;
.
:AIG-CDISC_ADAMIGBDS_PPROTPFL
	rdf:type <http://www.assero.co.uk/Tabulation#ADaMDatasetVariable> ;
	isoC:label "Per-Protocol Parameter-Level Flag"^^xsd:string ;
	bd:ordinal "132"^^xsd:positiveInteger ;
	bd:rule ""^^xsd:string ;
	bd:name "PPROTPFL"^^xsd:string ;
	bd:ct ""^^xsd:string ;
	bd:ct_notes "Y"^^xsd:string ;
	bd:notes "Character indicator of whether the subject was in the per-protocol analysis for the specific parameter."^^xsd:string ;
	bd:compliance <http://www.assero.co.uk/MDRAdamIg/CDISC/V1#AIG-CDISC_ADAMIG_C_CONDITIONAL> ;
	bd:typedAs <http://www.assero.co.uk/MDRAdamIg/CDISC/V1#AIG-CDISC_ADAMIG_DT_CHARACTER> ;
.
:AIG-CDISC_ADAMIGBDS_PPROTPFN
	rdf:type <http://www.assero.co.uk/Tabulation#ADaMDatasetVariable> ;
	isoC:label "Per-Protocol Parameter-Level Flag (N)"^^xsd:string ;
	bd:ordinal "133"^^xsd:positiveInteger ;
	bd:rule ""^^xsd:string ;
	bd:name "PPROTPFN"^^xsd:string ;
	bd:ct ""^^xsd:string ;
	bd:ct_notes "1"^^xsd:string ;
	bd:notes "Numeric indicator of whether the subject was in the per-protocol analysis for the specific parameter."^^xsd:string ;
	bd:compliance <http://www.assero.co.uk/MDRAdamIg/CDISC/V1#AIG-CDISC_ADAMIG_C_PERMISSIBLE> ;
	bd:typedAs <http://www.assero.co.uk/MDRAdamIg/CDISC/V1#AIG-CDISC_ADAMIG_DT_CHARACTER> ;
.
:AIG-CDISC_ADAMIGBDS_COMPRFL
	rdf:type <http://www.assero.co.uk/Tabulation#ADaMDatasetVariable> ;
	isoC:label "Completers Record-Level Flag"^^xsd:string ;
	bd:ordinal "134"^^xsd:positiveInteger ;
	bd:rule ""^^xsd:string ;
	bd:name "COMPRFL"^^xsd:string ;
	bd:ct ""^^xsd:string ;
	bd:ct_notes "Y"^^xsd:string ;
	bd:notes "Character indicator of whether the subject was in the completed subjects analysis for the specific record."^^xsd:string ;
	bd:compliance <http://www.assero.co.uk/MDRAdamIg/CDISC/V1#AIG-CDISC_ADAMIG_C_CONDITIONAL> ;
	bd:typedAs <http://www.assero.co.uk/MDRAdamIg/CDISC/V1#AIG-CDISC_ADAMIG_DT_CHARACTER> ;
.
:AIG-CDISC_ADAMIGBDS_COMPRFN
	rdf:type <http://www.assero.co.uk/Tabulation#ADaMDatasetVariable> ;
	isoC:label "Completers Record-Level Flag (N)"^^xsd:string ;
	bd:ordinal "135"^^xsd:positiveInteger ;
	bd:rule ""^^xsd:string ;
	bd:name "COMPRFN"^^xsd:string ;
	bd:ct ""^^xsd:string ;
	bd:ct_notes "1"^^xsd:string ;
	bd:notes "Numeric indicator of whether the subject was in the completed subjects analysis for the specific record."^^xsd:string ;
	bd:compliance <http://www.assero.co.uk/MDRAdamIg/CDISC/V1#AIG-CDISC_ADAMIG_C_PERMISSIBLE> ;
	bd:typedAs <http://www.assero.co.uk/MDRAdamIg/CDISC/V1#AIG-CDISC_ADAMIG_DT_CHARACTER> ;
.
:AIG-CDISC_ADAMIGBDS_COMPPFL
	rdf:type <http://www.assero.co.uk/Tabulation#ADaMDatasetVariable> ;
	isoC:label "Completers Parameter-Level Flag"^^xsd:string ;
	bd:ordinal "136"^^xsd:positiveInteger ;
	bd:rule ""^^xsd:string ;
	bd:name "COMPPFL"^^xsd:string ;
	bd:ct ""^^xsd:string ;
	bd:ct_notes "Y"^^xsd:string ;
	bd:notes "Character indicator of whether the subject was in the completed subjects analysis for the specific parameter."^^xsd:string ;
	bd:compliance <http://www.assero.co.uk/MDRAdamIg/CDISC/V1#AIG-CDISC_ADAMIG_C_CONDITIONAL> ;
	bd:typedAs <http://www.assero.co.uk/MDRAdamIg/CDISC/V1#AIG-CDISC_ADAMIG_DT_CHARACTER> ;
.
:AIG-CDISC_ADAMIGBDS_COMPPFN
	rdf:type <http://www.assero.co.uk/Tabulation#ADaMDatasetVariable> ;
	isoC:label "Completers Parameter-Level Flag (N)"^^xsd:string ;
	bd:ordinal "137"^^xsd:positiveInteger ;
	bd:rule ""^^xsd:string ;
	bd:name "COMPPFN"^^xsd:string ;
	bd:ct ""^^xsd:string ;
	bd:ct_notes "1"^^xsd:string ;
	bd:notes "Numeric indicator of whether the subject was in the completed subjects analysis for the specific parameter."^^xsd:string ;
	bd:compliance <http://www.assero.co.uk/MDRAdamIg/CDISC/V1#AIG-CDISC_ADAMIG_C_PERMISSIBLE> ;
	bd:typedAs <http://www.assero.co.uk/MDRAdamIg/CDISC/V1#AIG-CDISC_ADAMIG_DT_CHARACTER> ;
.
:AIG-CDISC_ADAMIGBDS_CRITyFL
	rdf:type <http://www.assero.co.uk/Tabulation#ADaMDatasetVariable> ;
	isoC:label "Criterion y Evaluation Result Flag"^^xsd:string ;
	bd:ordinal "138"^^xsd:positiveInteger ;
	bd:rule ""^^xsd:string ;
	bd:name "CRITyFL"^^xsd:string ;
	bd:ct ""^^xsd:string ;
	bd:ct_notes "N, Y"^^xsd:string ;
	bd:notes "Character indicator of whether the criterion defined in CRITy was met. See also CRITy in Section 3.2.4. Required if CRITy exists. Refer to Section 4.7 for additional discussion."^^xsd:string ;
	bd:compliance <http://www.assero.co.uk/MDRAdamIg/CDISC/V1#AIG-CDISC_ADAMIG_C_CONDITIONAL> ;
	bd:typedAs <http://www.assero.co.uk/MDRAdamIg/CDISC/V1#AIG-CDISC_ADAMIG_DT_CHARACTER> ;
.
:AIG-CDISC_ADAMIGBDS_CRITyFN
	rdf:type <http://www.assero.co.uk/Tabulation#ADaMDatasetVariable> ;
	isoC:label "Criterion y Evaluation Result Flag (N)"^^xsd:string ;
	bd:ordinal "139"^^xsd:positiveInteger ;
	bd:rule ""^^xsd:string ;
	bd:name "CRITyFN"^^xsd:string ;
	bd:ct ""^^xsd:string ;
	bd:ct_notes "0, 1"^^xsd:string ;
	bd:notes "Numeric indicator of whether the criterion defined in CRITy was met."^^xsd:string ;
	bd:compliance <http://www.assero.co.uk/MDRAdamIg/CDISC/V1#AIG-CDISC_ADAMIG_C_PERMISSIBLE> ;
	bd:typedAs <http://www.assero.co.uk/MDRAdamIg/CDISC/V1#AIG-CDISC_ADAMIG_DT_CHARACTER> ;
.
:AIG-CDISC_ADAMIGBDS_SRCDOM
	rdf:type <http://www.assero.co.uk/Tabulation#ADaMDatasetVariable> ;
	isoC:label "Source Domain"^^xsd:string ;
	bd:ordinal "140"^^xsd:positiveInteger ;
	bd:rule ""^^xsd:string ;
	bd:name "SRCDOM"^^xsd:string ;
	bd:ct ""^^xsd:string ;
	bd:ct_notes ""^^xsd:string ;
	bd:notes "The 2-character identifier of the SDTM domain that relates to AVAL or AVALC."^^xsd:string ;
	bd:compliance <http://www.assero.co.uk/MDRAdamIg/CDISC/V1#AIG-CDISC_ADAMIG_C_PERMISSIBLE> ;
	bd:typedAs <http://www.assero.co.uk/MDRAdamIg/CDISC/V1#AIG-CDISC_ADAMIG_DT_CHARACTER> ;
.
:AIG-CDISC_ADAMIGBDS_SRCVAR
	rdf:type <http://www.assero.co.uk/Tabulation#ADaMDatasetVariable> ;
	isoC:label "Source Variable"^^xsd:string ;
	bd:ordinal "141"^^xsd:positiveInteger ;
	bd:rule ""^^xsd:string ;
	bd:name "SRCVAR"^^xsd:string ;
	bd:ct ""^^xsd:string ;
	bd:ct_notes ""^^xsd:string ;
	bd:notes "The name of the column (in the SDTM domain identified by SRCDOM) that relates to AVAL or AVALC."^^xsd:string ;
	bd:compliance <http://www.assero.co.uk/MDRAdamIg/CDISC/V1#AIG-CDISC_ADAMIG_C_PERMISSIBLE> ;
	bd:typedAs <http://www.assero.co.uk/MDRAdamIg/CDISC/V1#AIG-CDISC_ADAMIG_DT_CHARACTER> ;
.
:AIG-CDISC_ADAMIGBDS_SRCSEQ
	rdf:type <http://www.assero.co.uk/Tabulation#ADaMDatasetVariable> ;
	isoC:label "Source Sequence Number"^^xsd:string ;
	bd:ordinal "142"^^xsd:positiveInteger ;
	bd:rule ""^^xsd:string ;
	bd:name "SRCSEQ"^^xsd:string ;
	bd:ct ""^^xsd:string ;
	bd:ct_notes ""^^xsd:string ;
	bd:notes "The sequence number SEQ of the row (in the SDTM domain identified by SRCDOM) that relates to AVAL or AVALC."^^xsd:string ;
	bd:compliance <http://www.assero.co.uk/MDRAdamIg/CDISC/V1#AIG-CDISC_ADAMIG_C_PERMISSIBLE> ;
	bd:typedAs <http://www.assero.co.uk/MDRAdamIg/CDISC/V1#AIG-CDISC_ADAMIG_DT_NUMERIC> ;
.