<html><head><style>h1 { font-family: Arial, "Helvetica Neue", Helvetica, sans-serif; font-size: 24pt; line-height: 34pt; }
h1.title { font-family: Arial, "Helvetica Neue", Helvetica, sans-serif; font-size: 24pt; line-height: 30pt; text-align: center; margin-top: 0; }
h2 { font-family: Arial, "Helvetica Neue", Helvetica, sans-serif; font-size: 18pt; line-height: 28pt; }
h2.title { font-family: Arial, "Helvetica Neue", Helvetica, sans-serif; font-size: 18pt; line-height: 24pt; text-align: center; margin-top: 0; }
h3 { font-family: Arial, "Helvetica Neue", Helvetica, sans-serif; font-size: 16pt; }
h4 { font-family: Arial, "Helvetica Neue", Helvetica, sans-serif; font-size: 14pt; }
h5 { font-family: Arial, "Helvetica Neue", Helvetica, sans-serif; font-size: 12pt; }
p { font-family: Arial, "Helvetica Neue", Helvetica, sans-serif; font-size: 10pt; }
table tr td { font-family: Arial, "Helvetica Neue", Helvetica, sans-serif; font-size: 10pt; text-align: left; vertical-align: top; padding: 5px;}
table.simple { border: 1px solid black; border-collapse: collapse; width: 100%;}
table.simple tr td { border: 1px solid black; font-family: Arial, "Helvetica Neue", Helvetica, sans-serif; font-size: 10pt; text-align: left; vertical-align: top; padding: 5px;}
table.simple tr th { border: 1px solid black; font-family: Arial, "Helvetica Neue", Helvetica, sans-serif; font-size: 10pt; text-align: left; vertical-align: top; padding: 5px;}
table.general { border: 1px solid black; border-collapse: collapse; width: 100%;}
table.general tr td { border: 1px solid black; font-family: Arial, "Helvetica Neue", Helvetica, sans-serif; font-size: 10pt; text-align: center; vertical-align: top; padding: 5px;}
table.general tr th { border: 1px solid black; font-family: Arial, "Helvetica Neue", Helvetica, sans-serif; font-size: 10pt; text-align: center; vertical-align: top; padding: 5px;}
table.general-left { border: 1px solid black; border-collapse: collapse; width: 100%;}
table.general-left tr td { border: 1px solid black; font-family: Arial, "Helvetica Neue", Helvetica, sans-serif; font-size: 10pt; text-align: left; vertical-align: top; padding: 5px;}
table.general-left tr th { border: 1px solid black; font-family: Arial, "Helvetica Neue", Helvetica, sans-serif; font-size: 10pt; text-align: left; vertical-align: top; padding: 5px;}
table.form_table { border: 1px solid black; width: 100%;}
table.form_table tr td { font-family: Arial, "Helvetica Neue", Helvetica, sans-serif; font-size: 10pt; text-align: left; vertical-align: top; padding: 5px;}
table.form_table h4 { vertical-align: middle;}
table.form_table td:first-child{ font: bold; }
table.form_repeat { border: 1px solid black; width: 100%;}
table.form_repeat th { font-family: Arial, "Helvetica Neue", Helvetica, sans-serif; font-size: 10pt; text-align: left; vertical-align: top; }
table.form_repeat tr td { font-family: Arial, "Helvetica Neue", Helvetica, sans-serif; font-size: 10pt; text-align: left; vertical-align: top;}
table.details tr td { font-family: Arial, "Helvetica Neue", Helvetica, sans-serif; font-size: 11pt; text-align: left; vertical-align: top; padding: 1px; }
table.ci { border: 1px solid black; width: 100%; border-collapse: collapse;}
table.ci tr td { font-family: Arial, "Helvetica Neue", Helvetica, sans-serif; font-size: 10pt; text-align: left; vertical-align: top; padding: 5px; border-bottom: 1pt solid black; }
.ci td table, .ci td table tbody, .ci td table td { border:none; }
table.note { border: 1px solid black; width: 100%;}
table.note tr td { font-family: Arial, "Helvetica Neue", Helvetica, sans-serif; font-size: 10pt; font: bold; text-align: left; vertical-align: top; }
table.input_field { border-left: 1px solid black; border-right: 1px solid black; border-bottom: 1px solid black;}
table.input_field tr td { font-family: Arial, "Helvetica Neue", Helvetica, sans-serif; font-size: 8pt; text-align: center; vertical-align: center; padding: 5px; }
table.input_field td:not(:last-child){border-right: 1px dashed}
table.cl_field tr td { font-family: Arial, "Helvetica Neue", Helvetica, sans-serif; font-size: 10pt; text-align: left; vertical-align: center; padding: 2px; }
table.cl_field td:first-child{ border: 1px solid black; }
tr.warning { background-color: #fcf8e3 !important; }
table, tr, td, th, tbody, thead, tfoot {page-break-inside: avoid !important;}</style></head><body><br><br><div style="text-align: center;"><img src="/Users/daveih/Documents/rails/Glandon/app/assets/images/acme.jpg" style="height:75px;"></div><h2 class="title">ACME Pharma</h2><br><br><br><br><br><br><br><br><br><br><h1 class="title">CDISC Submission Value Change Report<br></h1><br><br><br><br><br><br><br><br><br><br><br><br><br><br><br><br><br><br><br><br><br><br><br><br><br><br><br><br><br><br><br><br><br><br><br><br><br><br><br><br><table class="details" align="right"><tr><td>Run at:</td><td>2016-Dec-13, 20:45:45</td></tr><tr><td>Run by:</td><td>wicked@example.com</td></tr></table><p style='page-break-after:always;'></p><h3>Conventions</h3><p>In the following table each page contains two tables. The first table indicates when a change took place while the second table details the change. The changes are releated by the index thus [n].</p><h3>Changes</h3><table class="general"><thead><th>Code</th><th>Item</th><th>Label</th><th>Original Submission Value</th><th>2013-12-20</th><th>2014-03-28</th><th>2014-06-27</th></tr></thead><tbody><tr><td>C66737</td><td>C48660</td><td>Not Applicable</td><td>NA</td><td>&nbsp;</td><td>[1]</td><td>&nbsp;</td></tr><tr><td>C66728</td><td>C17998</td><td>Unknown</td><td>U</td><td>&nbsp;</td><td>[2]</td><td>&nbsp;</td></tr><tr><td>C112442</td><td>C112615</td><td>KFSS - Visual Function</td><td>KFSS1-Visual Function</td><td>&nbsp;</td><td>[3]</td><td>&nbsp;</td></tr><tr><td>C112442</td><td>C112612</td><td>KFSS - Brainstem Functions</td><td>KFSS1-Brainstem Functions</td><td>&nbsp;</td><td>[4]</td><td>&nbsp;</td></tr><tr><td>C66731</td><td>C45908</td><td>Intersex</td><td>UN</td><td>&nbsp;</td><td>[5]</td><td>&nbsp;</td></tr><tr><td>C85491</td><td>C86176</td><td>Bacteroides splanchnicus</td><td>BACTEROIDES SPLANCHNICUS</td><td>&nbsp;</td><td>[6]</td><td>&nbsp;</td></tr><tr><td>C112442</td><td>C112613</td><td>KFSS - Sensory Function</td><td>KFSS1-Sensory Function</td><td>&nbsp;</td><td>[7]</td><td>&nbsp;</td></tr><tr><td>C112442</td><td>C112614</td><td>KFSS - Bowel and Bladder Function</td><td>KFSS1-Bowel and Bladder Function</td><td>&nbsp;</td><td>[8]</td><td>&nbsp;</td></tr><tr><td>C66727</td><td>C48251</td><td>Protocol Violation</td><td>PROTOCOL VIOLATION</td><td>&nbsp;</td><td>[9]</td><td>&nbsp;</td></tr></tbody></table><br/><br/><table class="general-left"><thead><th>Index</th><th>From</th><th>To</th><tr></tr><tr><td>[1]</td><td>NA</td><td>NOT APPLICABLE</td></tr><tr></tr><tr></tr><tr><td>[2]</td><td>U</td><td>UNKNOWN</td></tr><tr></tr><tr></tr><tr><td>[3]</td><td>KFSS1-Visual Function</td><td>KFSS1-Visual or Optic Functions</td></tr><tr></tr><tr></tr><tr><td>[4]</td><td>KFSS1-Brainstem Functions</td><td>KFSS1-Brain Stem Functions</td></tr><tr></tr><tr></tr><tr><td>[5]</td><td>UN</td><td>UNDIFFERENTIATED</td></tr><tr></tr><tr></tr><tr><td>[6]</td><td>BACTEROIDES SPLANCHNICUS</td><td>ODORIBACTER SPLANCHNICUS</td></tr><tr></tr><tr></tr><tr><td>[7]</td><td>KFSS1-Sensory Function</td><td>KFSS1-Sensory Functions</td></tr><tr></tr><tr></tr><tr><td>[8]</td><td>KFSS1-Bowel and Bladder Function</td><td>KFSS1-Bowel and Bladder Functions</td></tr><tr></tr><tr></tr><tr><td>[9]</td><td>PROTOCOL VIOLATION</td><td>PROTOCOL DEVIATION</td></tr><tr></tr></tbody></table><p style='page-break-after:always;'></p><table class="general"><thead><th>Code</th><th>Item</th><th>Label</th><th>Original Submission Value</th><th>2013-12-20</th><th>2014-03-28</th><th>2014-06-27</th></tr></thead><tbody><tr><td>C71620</td><td>C102404</td><td>Application Dosing Unit</td><td>APPLICATION</td><td>&nbsp;</td><td>[1]</td><td>&nbsp;</td></tr><tr><td>C101857</td><td>C2271</td><td>Insulin</td><td>INSULIN</td><td>&nbsp;</td><td>[2]</td><td>&nbsp;</td></tr><tr><td>C71150</td><td>C111000</td><td>Supraventricular Tachycardia by ECG Finding</td><td>SUPRAVENTRICULAR TACHYCARDIA</td><td>&nbsp;</td><td>[3]</td><td>&nbsp;</td></tr><tr><td>C101859</td><td>C17998</td><td>Unknown</td><td>Unknown</td><td>&nbsp;</td><td>&nbsp;</td><td>[4]</td></tr><tr><td>C65047</td><td>C98869</td><td>Plasma Cell to Total Cell Ratio Measurement</td><td>PLSMCECE</td><td>&nbsp;</td><td>&nbsp;</td><td>[5]</td></tr><tr><td>C111109</td><td>C112361</td><td>Non-Study Device Issue</td><td>Non-Study Equipment Issue</td><td>&nbsp;</td><td>&nbsp;</td><td>[6]</td></tr><tr><td>C71152</td><td>C111238</td><td>Intraventricular and Intraatrial Conduction ECG Assessment</td><td>Intraventricular and Intraatrial Conduction</td><td>&nbsp;</td><td>&nbsp;</td><td>[7]</td></tr><tr><td>C101841</td><td>C100040</td><td>Thrombolysis in Myocardial Infarction Flow-0</td><td>TIMI-0</td><td>&nbsp;</td><td>&nbsp;</td><td>[8]</td></tr><tr><td>C101841</td><td>C100041</td><td>Thrombolysis in Myocardial Infarction Flow-1</td><td>TIMI-1</td><td>&nbsp;</td><td>&nbsp;</td><td>[9]</td></tr><tr><td>C101841</td><td>C100042</td><td>Thrombolysis in Myocardial Infarction Flow-2</td><td>TIMI-2</td><td>&nbsp;</td><td>&nbsp;</td><td>[10]</td></tr></tbody></table><br/><br/><table class="general-left"><thead><th>Index</th><th>From</th><th>To</th><tr></tr><tr><td>[1]</td><td>APPLICATION</td><td>[ *** Submission Value Deleted *** ]</td></tr><tr></tr><tr></tr><tr><td>[2]</td><td>INSULIN</td><td>[ *** Submission Value Deleted *** ]</td></tr><tr></tr><tr></tr><tr><td>[3]</td><td>SUPRAVENTRICULAR TACHYCARDIA</td><td>[ *** Submission Value Deleted *** ]</td></tr><tr></tr><tr></tr><tr></tr><tr><td>[4]</td><td>Unknown</td><td>UNKNOWN</td></tr><tr></tr><tr></tr><tr><td>[5]</td><td>PLSMCECE</td><td>PLSCECE</td></tr><tr></tr><tr></tr><tr><td>[6]</td><td>Non-Study Equipment Issue</td><td>NON-STUDY EQUIPMENT ISSUE</td></tr><tr></tr><tr></tr><tr><td>[7]</td><td>Intraventricular and Intraatrial Conduction</td><td>Intraventricular-Intraatrial Conduction</td></tr><tr></tr><tr></tr><tr><td>[8]</td><td>TIMI-0</td><td>GRADE 0</td></tr><tr></tr><tr></tr><tr><td>[9]</td><td>TIMI-1</td><td>GRADE 1</td></tr><tr></tr><tr></tr><tr><td>[10]</td><td>TIMI-2</td><td>GRADE 2</td></tr></tbody></table><p style='page-break-after:always;'></p><table class="general"><thead><th>Code</th><th>Item</th><th>Label</th><th>Original Submission Value</th><th>2013-12-20</th><th>2014-03-28</th><th>2014-06-27</th></tr></thead><tbody><tr><td>C111109</td><td>C62954</td><td>Medical Device Operational Issue</td><td>Device Operational Issue</td><td>&nbsp;</td><td>&nbsp;</td><td>[1]</td></tr><tr><td>C101841</td><td>C100043</td><td>Thrombolysis in Myocardial Infarction Flow-3</td><td>TIMI-3</td><td>&nbsp;</td><td>&nbsp;</td><td>[2]</td></tr><tr><td>C111114</td><td>C95942</td><td>Transposon</td><td>Transposon</td><td>&nbsp;</td><td>&nbsp;</td><td>[3]</td></tr><tr><td>C88025</td><td>C98800</td><td>Zymbal's Gland Adenoma</td><td>ADENOMA, ZYMBAL'S GLAND</td><td>&nbsp;</td><td>&nbsp;</td><td>[4]</td></tr><tr><td>C85494</td><td>C85710</td><td>Milligram per Liter per Milligram</td><td>mg/L/mg</td><td>&nbsp;</td><td>&nbsp;</td><td>[5]</td></tr><tr><td>C88025</td><td>C6878</td><td>Mixed Acinar-Neuroendocrine Carcinoma of the Pancreas</td><td>CARCINOMA, MIXED, ACINAR-ISLET CELL, MALIGNANT</td><td>&nbsp;</td><td>&nbsp;</td><td>[6]</td></tr><tr><td>C85492</td><td>C16805</td><td>Lymphangiogram</td><td>ANGIOGRAM</td><td>&nbsp;</td><td>&nbsp;</td><td>[7]</td></tr><tr><td>C74456</td><td>C91404</td><td>Proximal Muscle</td><td>MUSCLE, PROXIMAL</td><td>&nbsp;</td><td>&nbsp;</td><td>[8]</td></tr><tr><td>C74456</td><td>C91405</td><td>Distal Muscle</td><td>MUSCLE, DISTAL</td><td>&nbsp;</td><td>&nbsp;</td><td>[9]</td></tr><tr><td>C85491</td><td>C26431</td><td>Coronavirus</td><td>CORONAVIRUS</td><td>&nbsp;</td><td>&nbsp;</td><td>[10]</td></tr></tbody></table><br/><br/><table class="general-left"><thead><th>Index</th><th>From</th><th>To</th><tr></tr><tr></tr><tr><td>[1]</td><td>Device Operational Issue</td><td>DEVICE OPERATIONAL ISSUE</td></tr><tr></tr><tr></tr><tr><td>[2]</td><td>TIMI-3</td><td>GRADE 3</td></tr><tr></tr><tr></tr><tr><td>[3]</td><td>Transposon</td><td>TRANSPOSON</td></tr><tr></tr><tr></tr><tr><td>[4]</td><td>ADENOMA, ZYMBAL'S GLAND</td><td>ADENOMA, ZYMBAL'S GLAND, BENIGN</td></tr><tr></tr><tr></tr><tr><td>[5]</td><td>mg/L/mg</td><td>ug/mL/mg</td></tr><tr></tr><tr></tr><tr><td>[6]</td><td>CARCINOMA, MIXED, ACINAR-ISLET CELL, MALIGNANT</td><td>ACINAR-ISLET CELL TUMOR, MALIGNANT</td></tr><tr></tr><tr></tr><tr><td>[7]</td><td>ANGIOGRAM</td><td>[ *** Submission Value Deleted *** ]</td></tr><tr></tr><tr></tr><tr><td>[8]</td><td>MUSCLE, PROXIMAL</td><td>[ *** Submission Value Deleted *** ]</td></tr><tr></tr><tr></tr><tr><td>[9]</td><td>MUSCLE, DISTAL</td><td>[ *** Submission Value Deleted *** ]</td></tr><tr></tr><tr></tr><tr><td>[10]</td><td>CORONAVIRUS</td><td>[ *** Submission Value Deleted *** ]</td></tr></tbody></table><p style='page-break-after:always;'></p><table class="general"><thead><th>Code</th><th>Item</th><th>Label</th><th>Original Submission Value</th><th>2013-12-20</th><th>2014-03-28</th><th>2014-06-27</th></tr></thead><tbody><tr><td>C74456</td><td>C13307</td><td>Gastric</td><td>GASTRIC</td><td>&nbsp;</td><td>&nbsp;</td><td>[1]</td></tr><tr><td>C85494</td><td>C85620</td><td>Hour Times Milligram per Liter per Milligram</td><td>h*mg/L/mg</td><td>&nbsp;</td><td>&nbsp;</td><td>[2]</td></tr><tr><td>C85494</td><td>C85641</td><td>Hour Times Picomole per Milliliter per Milligram</td><td>h*nmol/L/g</td><td>&nbsp;</td><td>&nbsp;</td><td>[3]</td></tr><tr><td>C85494</td><td>C85634</td><td>Hour Times Nanomole per Milliliter per Milligram</td><td>h*umol/L/g</td><td>&nbsp;</td><td>&nbsp;</td><td>[4]</td></tr></tbody></table><table class="general-left"><thead><th>Index</th><th>From</th><th>To</th><tr></tr><tr></tr><tr><td>[1]</td><td>GASTRIC</td><td>[ *** Submission Value Deleted *** ]</td></tr><tr></tr><tr></tr><tr><td>[2]</td><td>h*mg/L/mg</td><td>[ *** Submission Value Deleted *** ]</td></tr><tr></tr><tr></tr><tr><td>[3]</td><td>h*nmol/L/g</td><td>[ *** Submission Value Deleted *** ]</td></tr><tr></tr><tr></tr><tr><td>[4]</td><td>h*umol/L/g</td><td>[ *** Submission Value Deleted *** ]</td></tr></tbody></table></body></html>