<http://www.assero.co.uk/MDRSdtmUD/ACME/V1#D-ACME_PEDomain> 			<http://www.w3.org/1999/02/22-rdf-syntax-ns#type> 			<http://www.assero.co.uk/BusinessDomain#UserDomain> . 
<http://www.assero.co.uk/MDRSdtmUD/ACME/V1#D-ACME_PEDomain> 			<http://www.w3.org/2000/01/rdf-schema#label> 			"PE Domain" . 
<http://www.assero.co.uk/MDRSdtmUD/ACME/V1#D-ACME_PEDomain> 			<http://www.assero.co.uk/ISO11179Types#creationDate> 			"2017-11-18T16:50:24+00:00" . 
<http://www.assero.co.uk/MDRSdtmUD/ACME/V1#D-ACME_PEDomain> 			<http://www.assero.co.uk/ISO11179Types#lastChangeDate> 			"2017-11-18T16:50:24+00:00" . 
<http://www.assero.co.uk/MDRSdtmUD/ACME/V1#D-ACME_PEDomain> 			<http://www.assero.co.uk/ISO11179Types#changeDescription> 			"" . 
<http://www.assero.co.uk/MDRSdtmUD/ACME/V1#D-ACME_PEDomain> 			<http://www.assero.co.uk/ISO11179Types#explanatoryComment> 			"" . 
<http://www.assero.co.uk/MDRSdtmUD/ACME/V1#D-ACME_PEDomain> 			<http://www.assero.co.uk/ISO11179Types#origin> 			"" . 
<http://www.assero.co.uk/MDRSdtmUD/ACME/V1#D-ACME_PEDomain> 			<http://www.assero.co.uk/ISO11179Identification#hasIdentifier> 			<http://www.assero.co.uk/MDRItems#SI-ACME_PEDomain-1> . 
<http://www.assero.co.uk/MDRSdtmUD/ACME/V1#D-ACME_PEDomain> 			<http://www.assero.co.uk/ISO11179Registration#hasState> 			<http://www.assero.co.uk/MDRItems#RS-ACME_PEDomain-1> . 
<http://www.assero.co.uk/MDRSdtmUD/ACME/V1#D-ACME_PEDomain> 			<http://www.assero.co.uk/BusinessDomain#includesColumn> 			<http://www.assero.co.uk/MDRSdtmUD/ACME/V1#D-ACME_PEDomain_V1> . 
<http://www.assero.co.uk/MDRSdtmUD/ACME/V1#D-ACME_PEDomain> 			<http://www.assero.co.uk/BusinessDomain#includesColumn> 			<http://www.assero.co.uk/MDRSdtmUD/ACME/V1#D-ACME_PEDomain_V2> . 
<http://www.assero.co.uk/MDRSdtmUD/ACME/V1#D-ACME_PEDomain> 			<http://www.assero.co.uk/BusinessDomain#includesColumn> 			<http://www.assero.co.uk/MDRSdtmUD/ACME/V1#D-ACME_PEDomain_V3> . 
<http://www.assero.co.uk/MDRSdtmUD/ACME/V1#D-ACME_PEDomain> 			<http://www.assero.co.uk/BusinessDomain#includesColumn> 			<http://www.assero.co.uk/MDRSdtmUD/ACME/V1#D-ACME_PEDomain_V4> . 
<http://www.assero.co.uk/MDRSdtmUD/ACME/V1#D-ACME_PEDomain> 			<http://www.assero.co.uk/BusinessDomain#includesColumn> 			<http://www.assero.co.uk/MDRSdtmUD/ACME/V1#D-ACME_PEDomain_V5> . 
<http://www.assero.co.uk/MDRSdtmUD/ACME/V1#D-ACME_PEDomain> 			<http://www.assero.co.uk/BusinessDomain#includesColumn> 			<http://www.assero.co.uk/MDRSdtmUD/ACME/V1#D-ACME_PEDomain_V6> . 
<http://www.assero.co.uk/MDRSdtmUD/ACME/V1#D-ACME_PEDomain> 			<http://www.assero.co.uk/BusinessDomain#includesColumn> 			<http://www.assero.co.uk/MDRSdtmUD/ACME/V1#D-ACME_PEDomain_V7> . 
<http://www.assero.co.uk/MDRSdtmUD/ACME/V1#D-ACME_PEDomain> 			<http://www.assero.co.uk/BusinessDomain#includesColumn> 			<http://www.assero.co.uk/MDRSdtmUD/ACME/V1#D-ACME_PEDomain_V8> . 
<http://www.assero.co.uk/MDRSdtmUD/ACME/V1#D-ACME_PEDomain> 			<http://www.assero.co.uk/BusinessDomain#includesColumn> 			<http://www.assero.co.uk/MDRSdtmUD/ACME/V1#D-ACME_PEDomain_V9> . 
<http://www.assero.co.uk/MDRSdtmUD/ACME/V1#D-ACME_PEDomain> 			<http://www.assero.co.uk/BusinessDomain#includesColumn> 			<http://www.assero.co.uk/MDRSdtmUD/ACME/V1#D-ACME_PEDomain_V10> . 
<http://www.assero.co.uk/MDRSdtmUD/ACME/V1#D-ACME_PEDomain> 			<http://www.assero.co.uk/BusinessDomain#includesColumn> 			<http://www.assero.co.uk/MDRSdtmUD/ACME/V1#D-ACME_PEDomain_V11> . 
<http://www.assero.co.uk/MDRSdtmUD/ACME/V1#D-ACME_PEDomain> 			<http://www.assero.co.uk/BusinessDomain#includesColumn> 			<http://www.assero.co.uk/MDRSdtmUD/ACME/V1#D-ACME_PEDomain_V12> . 
<http://www.assero.co.uk/MDRSdtmUD/ACME/V1#D-ACME_PEDomain> 			<http://www.assero.co.uk/BusinessDomain#includesColumn> 			<http://www.assero.co.uk/MDRSdtmUD/ACME/V1#D-ACME_PEDomain_V13> . 
<http://www.assero.co.uk/MDRSdtmUD/ACME/V1#D-ACME_PEDomain> 			<http://www.assero.co.uk/BusinessDomain#includesColumn> 			<http://www.assero.co.uk/MDRSdtmUD/ACME/V1#D-ACME_PEDomain_V14> . 
<http://www.assero.co.uk/MDRSdtmUD/ACME/V1#D-ACME_PEDomain> 			<http://www.assero.co.uk/BusinessDomain#includesColumn> 			<http://www.assero.co.uk/MDRSdtmUD/ACME/V1#D-ACME_PEDomain_V15> . 
<http://www.assero.co.uk/MDRSdtmUD/ACME/V1#D-ACME_PEDomain> 			<http://www.assero.co.uk/BusinessDomain#includesColumn> 			<http://www.assero.co.uk/MDRSdtmUD/ACME/V1#D-ACME_PEDomain_V16> . 
<http://www.assero.co.uk/MDRSdtmUD/ACME/V1#D-ACME_PEDomain> 			<http://www.assero.co.uk/BusinessDomain#includesColumn> 			<http://www.assero.co.uk/MDRSdtmUD/ACME/V1#D-ACME_PEDomain_V17> . 
<http://www.assero.co.uk/MDRSdtmUD/ACME/V1#D-ACME_PEDomain> 			<http://www.assero.co.uk/BusinessDomain#includesColumn> 			<http://www.assero.co.uk/MDRSdtmUD/ACME/V1#D-ACME_PEDomain_V18> . 
<http://www.assero.co.uk/MDRSdtmUD/ACME/V1#D-ACME_PEDomain> 			<http://www.assero.co.uk/BusinessDomain#includesColumn> 			<http://www.assero.co.uk/MDRSdtmUD/ACME/V1#D-ACME_PEDomain_V19> . 
<http://www.assero.co.uk/MDRSdtmUD/ACME/V1#D-ACME_PEDomain> 			<http://www.assero.co.uk/BusinessDomain#includesColumn> 			<http://www.assero.co.uk/MDRSdtmUD/ACME/V1#D-ACME_PEDomain_V20> . 
<http://www.assero.co.uk/MDRSdtmUD/ACME/V1#D-ACME_PEDomain> 			<http://www.assero.co.uk/BusinessDomain#includesColumn> 			<http://www.assero.co.uk/MDRSdtmUD/ACME/V1#D-ACME_PEDomain_V21> . 
<http://www.assero.co.uk/MDRSdtmUD/ACME/V1#D-ACME_PEDomain> 			<http://www.assero.co.uk/BusinessDomain#includesColumn> 			<http://www.assero.co.uk/MDRSdtmUD/ACME/V1#D-ACME_PEDomain_V22> . 
<http://www.assero.co.uk/MDRSdtmUD/ACME/V1#D-ACME_PEDomain> 			<http://www.assero.co.uk/BusinessDomain#includesColumn> 			<http://www.assero.co.uk/MDRSdtmUD/ACME/V1#D-ACME_PEDomain_V23> . 
<http://www.assero.co.uk/MDRSdtmUD/ACME/V1#D-ACME_PEDomain> 			<http://www.assero.co.uk/BusinessDomain#includesColumn> 			<http://www.assero.co.uk/MDRSdtmUD/ACME/V1#D-ACME_PEDomain_V24> . 
<http://www.assero.co.uk/MDRSdtmUD/ACME/V1#D-ACME_PEDomain> 			<http://www.assero.co.uk/BusinessDomain#includesColumn> 			<http://www.assero.co.uk/MDRSdtmUD/ACME/V1#D-ACME_PEDomain_V25> . 
<http://www.assero.co.uk/MDRSdtmUD/ACME/V1#D-ACME_PEDomain> 			<http://www.assero.co.uk/BusinessDomain#basedOnDomain> 			<http://www.assero.co.uk/MDRSdtmUD/ACME/V1#D-ACME_PEDomain_IGD1> . 
<http://www.assero.co.uk/MDRSdtmUD/ACME/V1#D-ACME_PEDomain> 			<http://www.assero.co.uk/BusinessDomain#basedOnDomain> 			<http://www.assero.co.uk/MDRSdtmUD/ACME/V1#D-ACME_PEDomain_MD1> . 
<http://www.assero.co.uk/MDRSdtmUD/ACME/V1#D-ACME_PEDomain> 			<http://www.assero.co.uk/BusinessDomain#rule> 			"" . 
<http://www.assero.co.uk/MDRSdtmUD/ACME/V1#D-ACME_PEDomain> 			<http://www.assero.co.uk/BusinessDomain#ordinal> 			"1" . 
<http://www.assero.co.uk/MDRSdtmUD/ACME/V1#D-ACME_PEDomain> 			<http://www.assero.co.uk/BusinessDomain#notes> 			"" . 
<http://www.assero.co.uk/MDRSdtmUD/ACME/V1#D-ACME_PEDomain> 			<http://www.assero.co.uk/BusinessDomain#prefix> 			"PE" . 
<http://www.assero.co.uk/MDRSdtmUD/ACME/V1#D-ACME_PEDomain> 			<http://www.assero.co.uk/BusinessDomain#structure> 			"" . 
<http://www.assero.co.uk/MDRSdtmUD/ACME/V1#D-ACME_PEDomain_V1> 			<http://www.w3.org/1999/02/22-rdf-syntax-ns#type> 			<http://www.assero.co.uk/BusinessDomain#UserVariable> . 
<http://www.assero.co.uk/MDRSdtmUD/ACME/V1#D-ACME_PEDomain_V1> 			<http://www.w3.org/2000/01/rdf-schema#label> 			"Study Identifier" . 
<http://www.assero.co.uk/MDRSdtmUD/ACME/V1#D-ACME_PEDomain_V1> 			<http://www.assero.co.uk/BusinessDomain#basedOnVariable> 			<http://www.assero.co.uk/MDRSdtmUD/ACME/V1#D-ACME_PEDomain_V1_IGV1> . 
<http://www.assero.co.uk/MDRSdtmUD/ACME/V1#D-ACME_PEDomain_V1> 			<http://www.assero.co.uk/BusinessDomain#classifiedAs> 			<http://www.assero.co.uk/MDRSdtmM/CDISC/V2#M-CDISC_SDTMMODEL_C_IDENTIFIER> . 
<http://www.assero.co.uk/MDRSdtmUD/ACME/V1#D-ACME_PEDomain_V1> 			<http://www.assero.co.uk/BusinessDomain#typedAs> 			<http://www.assero.co.uk/MDRSdtmM/CDISC/V2#M-CDISC_SDTMMODEL_DT_CHAR> . 
<http://www.assero.co.uk/MDRSdtmUD/ACME/V1#D-ACME_PEDomain_V1> 			<http://www.assero.co.uk/BusinessDomain#compliance> 			<http://www.assero.co.uk/MDRSdtmIgD/CDISC/V2#IG-CDISC_SDTMIGPE_C_REQUIRED> . 
<http://www.assero.co.uk/MDRSdtmUD/ACME/V1#D-ACME_PEDomain_V1> 			<http://www.assero.co.uk/BusinessDomain#rule> 			"" . 
<http://www.assero.co.uk/MDRSdtmUD/ACME/V1#D-ACME_PEDomain_V1> 			<http://www.assero.co.uk/BusinessDomain#ordinal> 			"1" . 
<http://www.assero.co.uk/MDRSdtmUD/ACME/V1#D-ACME_PEDomain_V1> 			<http://www.assero.co.uk/BusinessDomain#name> 			"STUDYID" . 
<http://www.assero.co.uk/MDRSdtmUD/ACME/V1#D-ACME_PEDomain_V1> 			<http://www.assero.co.uk/BusinessDomain#notes> 			"" . 
<http://www.assero.co.uk/MDRSdtmUD/ACME/V1#D-ACME_PEDomain_V1> 			<http://www.assero.co.uk/BusinessDomain#format> 			"" . 
<http://www.assero.co.uk/MDRSdtmUD/ACME/V1#D-ACME_PEDomain_V1> 			<http://www.assero.co.uk/BusinessDomain#ct> 			"" . 
<http://www.assero.co.uk/MDRSdtmUD/ACME/V1#D-ACME_PEDomain_V1> 			<http://www.assero.co.uk/BusinessDomain#length> 			"0" . 
<http://www.assero.co.uk/MDRSdtmUD/ACME/V1#D-ACME_PEDomain_V1> 			<http://www.assero.co.uk/BusinessDomain#comment> 			"" . 
<http://www.assero.co.uk/MDRSdtmUD/ACME/V1#D-ACME_PEDomain_V1> 			<http://www.assero.co.uk/BusinessDomain#non_standard> 			"false" . 
<http://www.assero.co.uk/MDRSdtmUD/ACME/V1#D-ACME_PEDomain_V1> 			<http://www.assero.co.uk/BusinessDomain#used> 			"true" . 
<http://www.assero.co.uk/MDRSdtmUD/ACME/V1#D-ACME_PEDomain_V1> 			<http://www.assero.co.uk/BusinessDomain#key_ordinal> 			"0" . 
<http://www.assero.co.uk/MDRSdtmUD/ACME/V1#D-ACME_PEDomain_V1_IGV1> 			<http://www.w3.org/1999/02/22-rdf-syntax-ns#type> 			<http://www.assero.co.uk/BusinessOperational#CReference> . 
<http://www.assero.co.uk/MDRSdtmUD/ACME/V1#D-ACME_PEDomain_V1_IGV1> 			<http://www.w3.org/2000/01/rdf-schema#label> 			"Based on Variable Reference" . 
<http://www.assero.co.uk/MDRSdtmUD/ACME/V1#D-ACME_PEDomain_V1_IGV1> 			<http://www.assero.co.uk/BusinessOperational#hasColumn> 			<http://www.assero.co.uk/MDRSdtmIgD/CDISC/V2#IG-CDISC_SDTMIGPE_STUDYID> . 
<http://www.assero.co.uk/MDRSdtmUD/ACME/V1#D-ACME_PEDomain_V1_IGV1> 			<http://www.assero.co.uk/BusinessOperational#ordinal> 			"1" . 
<http://www.assero.co.uk/MDRSdtmUD/ACME/V1#D-ACME_PEDomain_V1_IGV1> 			<http://www.assero.co.uk/BusinessOperational#enabled> 			"true" . 
<http://www.assero.co.uk/MDRSdtmUD/ACME/V1#D-ACME_PEDomain_V1_IGV1> 			<http://www.assero.co.uk/BusinessOperational#optional> 			"false" . 
<http://www.assero.co.uk/MDRSdtmUD/ACME/V1#D-ACME_PEDomain_V1_IGV1> 			<http://www.assero.co.uk/BusinessOperational#local_label> 			"" . 
<http://www.assero.co.uk/MDRSdtmUD/ACME/V1#D-ACME_PEDomain_V2> 			<http://www.w3.org/1999/02/22-rdf-syntax-ns#type> 			<http://www.assero.co.uk/BusinessDomain#UserVariable> . 
<http://www.assero.co.uk/MDRSdtmUD/ACME/V1#D-ACME_PEDomain_V2> 			<http://www.w3.org/2000/01/rdf-schema#label> 			"Domain Abbreviation" . 
<http://www.assero.co.uk/MDRSdtmUD/ACME/V1#D-ACME_PEDomain_V2> 			<http://www.assero.co.uk/BusinessDomain#basedOnVariable> 			<http://www.assero.co.uk/MDRSdtmUD/ACME/V1#D-ACME_PEDomain_V2_IGV1> . 
<http://www.assero.co.uk/MDRSdtmUD/ACME/V1#D-ACME_PEDomain_V2> 			<http://www.assero.co.uk/BusinessDomain#classifiedAs> 			<http://www.assero.co.uk/MDRSdtmM/CDISC/V2#M-CDISC_SDTMMODEL_C_IDENTIFIER> . 
<http://www.assero.co.uk/MDRSdtmUD/ACME/V1#D-ACME_PEDomain_V2> 			<http://www.assero.co.uk/BusinessDomain#typedAs> 			<http://www.assero.co.uk/MDRSdtmM/CDISC/V2#M-CDISC_SDTMMODEL_DT_CHAR> . 
<http://www.assero.co.uk/MDRSdtmUD/ACME/V1#D-ACME_PEDomain_V2> 			<http://www.assero.co.uk/BusinessDomain#compliance> 			<http://www.assero.co.uk/MDRSdtmIgD/CDISC/V2#IG-CDISC_SDTMIGPE_C_REQUIRED> . 
<http://www.assero.co.uk/MDRSdtmUD/ACME/V1#D-ACME_PEDomain_V2> 			<http://www.assero.co.uk/BusinessDomain#rule> 			"" . 
<http://www.assero.co.uk/MDRSdtmUD/ACME/V1#D-ACME_PEDomain_V2> 			<http://www.assero.co.uk/BusinessDomain#ordinal> 			"2" . 
<http://www.assero.co.uk/MDRSdtmUD/ACME/V1#D-ACME_PEDomain_V2> 			<http://www.assero.co.uk/BusinessDomain#name> 			"DOMAIN" . 
<http://www.assero.co.uk/MDRSdtmUD/ACME/V1#D-ACME_PEDomain_V2> 			<http://www.assero.co.uk/BusinessDomain#notes> 			"" . 
<http://www.assero.co.uk/MDRSdtmUD/ACME/V1#D-ACME_PEDomain_V2> 			<http://www.assero.co.uk/BusinessDomain#format> 			"" . 
<http://www.assero.co.uk/MDRSdtmUD/ACME/V1#D-ACME_PEDomain_V2> 			<http://www.assero.co.uk/BusinessDomain#ct> 			"DOMAIN" . 
<http://www.assero.co.uk/MDRSdtmUD/ACME/V1#D-ACME_PEDomain_V2> 			<http://www.assero.co.uk/BusinessDomain#length> 			"0" . 
<http://www.assero.co.uk/MDRSdtmUD/ACME/V1#D-ACME_PEDomain_V2> 			<http://www.assero.co.uk/BusinessDomain#comment> 			"" . 
<http://www.assero.co.uk/MDRSdtmUD/ACME/V1#D-ACME_PEDomain_V2> 			<http://www.assero.co.uk/BusinessDomain#non_standard> 			"false" . 
<http://www.assero.co.uk/MDRSdtmUD/ACME/V1#D-ACME_PEDomain_V2> 			<http://www.assero.co.uk/BusinessDomain#used> 			"true" . 
<http://www.assero.co.uk/MDRSdtmUD/ACME/V1#D-ACME_PEDomain_V2> 			<http://www.assero.co.uk/BusinessDomain#key_ordinal> 			"0" . 
<http://www.assero.co.uk/MDRSdtmUD/ACME/V1#D-ACME_PEDomain_V2_IGV1> 			<http://www.w3.org/1999/02/22-rdf-syntax-ns#type> 			<http://www.assero.co.uk/BusinessOperational#CReference> . 
<http://www.assero.co.uk/MDRSdtmUD/ACME/V1#D-ACME_PEDomain_V2_IGV1> 			<http://www.w3.org/2000/01/rdf-schema#label> 			"Based on Variable Reference" . 
<http://www.assero.co.uk/MDRSdtmUD/ACME/V1#D-ACME_PEDomain_V2_IGV1> 			<http://www.assero.co.uk/BusinessOperational#hasColumn> 			<http://www.assero.co.uk/MDRSdtmIgD/CDISC/V2#IG-CDISC_SDTMIGPE_DOMAIN> . 
<http://www.assero.co.uk/MDRSdtmUD/ACME/V1#D-ACME_PEDomain_V2_IGV1> 			<http://www.assero.co.uk/BusinessOperational#ordinal> 			"1" . 
<http://www.assero.co.uk/MDRSdtmUD/ACME/V1#D-ACME_PEDomain_V2_IGV1> 			<http://www.assero.co.uk/BusinessOperational#enabled> 			"true" . 
<http://www.assero.co.uk/MDRSdtmUD/ACME/V1#D-ACME_PEDomain_V2_IGV1> 			<http://www.assero.co.uk/BusinessOperational#optional> 			"false" . 
<http://www.assero.co.uk/MDRSdtmUD/ACME/V1#D-ACME_PEDomain_V2_IGV1> 			<http://www.assero.co.uk/BusinessOperational#local_label> 			"" . 
<http://www.assero.co.uk/MDRSdtmUD/ACME/V1#D-ACME_PEDomain_V3> 			<http://www.w3.org/1999/02/22-rdf-syntax-ns#type> 			<http://www.assero.co.uk/BusinessDomain#UserVariable> . 
<http://www.assero.co.uk/MDRSdtmUD/ACME/V1#D-ACME_PEDomain_V3> 			<http://www.w3.org/2000/01/rdf-schema#label> 			"Unique Subject Identifier" . 
<http://www.assero.co.uk/MDRSdtmUD/ACME/V1#D-ACME_PEDomain_V3> 			<http://www.assero.co.uk/BusinessDomain#basedOnVariable> 			<http://www.assero.co.uk/MDRSdtmUD/ACME/V1#D-ACME_PEDomain_V3_IGV1> . 
<http://www.assero.co.uk/MDRSdtmUD/ACME/V1#D-ACME_PEDomain_V3> 			<http://www.assero.co.uk/BusinessDomain#classifiedAs> 			<http://www.assero.co.uk/MDRSdtmM/CDISC/V2#M-CDISC_SDTMMODEL_C_IDENTIFIER> . 
<http://www.assero.co.uk/MDRSdtmUD/ACME/V1#D-ACME_PEDomain_V3> 			<http://www.assero.co.uk/BusinessDomain#typedAs> 			<http://www.assero.co.uk/MDRSdtmM/CDISC/V2#M-CDISC_SDTMMODEL_DT_CHAR> . 
<http://www.assero.co.uk/MDRSdtmUD/ACME/V1#D-ACME_PEDomain_V3> 			<http://www.assero.co.uk/BusinessDomain#compliance> 			<http://www.assero.co.uk/MDRSdtmIgD/CDISC/V2#IG-CDISC_SDTMIGPE_C_REQUIRED> . 
<http://www.assero.co.uk/MDRSdtmUD/ACME/V1#D-ACME_PEDomain_V3> 			<http://www.assero.co.uk/BusinessDomain#rule> 			"" . 
<http://www.assero.co.uk/MDRSdtmUD/ACME/V1#D-ACME_PEDomain_V3> 			<http://www.assero.co.uk/BusinessDomain#ordinal> 			"3" . 
<http://www.assero.co.uk/MDRSdtmUD/ACME/V1#D-ACME_PEDomain_V3> 			<http://www.assero.co.uk/BusinessDomain#name> 			"USUBJID" . 
<http://www.assero.co.uk/MDRSdtmUD/ACME/V1#D-ACME_PEDomain_V3> 			<http://www.assero.co.uk/BusinessDomain#notes> 			"" . 
<http://www.assero.co.uk/MDRSdtmUD/ACME/V1#D-ACME_PEDomain_V3> 			<http://www.assero.co.uk/BusinessDomain#format> 			"" . 
<http://www.assero.co.uk/MDRSdtmUD/ACME/V1#D-ACME_PEDomain_V3> 			<http://www.assero.co.uk/BusinessDomain#ct> 			"" . 
<http://www.assero.co.uk/MDRSdtmUD/ACME/V1#D-ACME_PEDomain_V3> 			<http://www.assero.co.uk/BusinessDomain#length> 			"0" . 
<http://www.assero.co.uk/MDRSdtmUD/ACME/V1#D-ACME_PEDomain_V3> 			<http://www.assero.co.uk/BusinessDomain#comment> 			"" . 
<http://www.assero.co.uk/MDRSdtmUD/ACME/V1#D-ACME_PEDomain_V3> 			<http://www.assero.co.uk/BusinessDomain#non_standard> 			"false" . 
<http://www.assero.co.uk/MDRSdtmUD/ACME/V1#D-ACME_PEDomain_V3> 			<http://www.assero.co.uk/BusinessDomain#used> 			"true" . 
<http://www.assero.co.uk/MDRSdtmUD/ACME/V1#D-ACME_PEDomain_V3> 			<http://www.assero.co.uk/BusinessDomain#key_ordinal> 			"0" . 
<http://www.assero.co.uk/MDRSdtmUD/ACME/V1#D-ACME_PEDomain_V3_IGV1> 			<http://www.w3.org/1999/02/22-rdf-syntax-ns#type> 			<http://www.assero.co.uk/BusinessOperational#CReference> . 
<http://www.assero.co.uk/MDRSdtmUD/ACME/V1#D-ACME_PEDomain_V3_IGV1> 			<http://www.w3.org/2000/01/rdf-schema#label> 			"Based on Variable Reference" . 
<http://www.assero.co.uk/MDRSdtmUD/ACME/V1#D-ACME_PEDomain_V3_IGV1> 			<http://www.assero.co.uk/BusinessOperational#hasColumn> 			<http://www.assero.co.uk/MDRSdtmIgD/CDISC/V2#IG-CDISC_SDTMIGPE_USUBJID> . 
<http://www.assero.co.uk/MDRSdtmUD/ACME/V1#D-ACME_PEDomain_V3_IGV1> 			<http://www.assero.co.uk/BusinessOperational#ordinal> 			"1" . 
<http://www.assero.co.uk/MDRSdtmUD/ACME/V1#D-ACME_PEDomain_V3_IGV1> 			<http://www.assero.co.uk/BusinessOperational#enabled> 			"true" . 
<http://www.assero.co.uk/MDRSdtmUD/ACME/V1#D-ACME_PEDomain_V3_IGV1> 			<http://www.assero.co.uk/BusinessOperational#optional> 			"false" . 
<http://www.assero.co.uk/MDRSdtmUD/ACME/V1#D-ACME_PEDomain_V3_IGV1> 			<http://www.assero.co.uk/BusinessOperational#local_label> 			"" . 
<http://www.assero.co.uk/MDRSdtmUD/ACME/V1#D-ACME_PEDomain_V4> 			<http://www.w3.org/1999/02/22-rdf-syntax-ns#type> 			<http://www.assero.co.uk/BusinessDomain#UserVariable> . 
<http://www.assero.co.uk/MDRSdtmUD/ACME/V1#D-ACME_PEDomain_V4> 			<http://www.w3.org/2000/01/rdf-schema#label> 			"Sequence Number" . 
<http://www.assero.co.uk/MDRSdtmUD/ACME/V1#D-ACME_PEDomain_V4> 			<http://www.assero.co.uk/BusinessDomain#basedOnVariable> 			<http://www.assero.co.uk/MDRSdtmUD/ACME/V1#D-ACME_PEDomain_V4_IGV1> . 
<http://www.assero.co.uk/MDRSdtmUD/ACME/V1#D-ACME_PEDomain_V4> 			<http://www.assero.co.uk/BusinessDomain#classifiedAs> 			<http://www.assero.co.uk/MDRSdtmM/CDISC/V2#M-CDISC_SDTMMODEL_C_IDENTIFIER> . 
<http://www.assero.co.uk/MDRSdtmUD/ACME/V1#D-ACME_PEDomain_V4> 			<http://www.assero.co.uk/BusinessDomain#typedAs> 			<http://www.assero.co.uk/MDRSdtmM/CDISC/V2#M-CDISC_SDTMMODEL_DT_NUM> . 
<http://www.assero.co.uk/MDRSdtmUD/ACME/V1#D-ACME_PEDomain_V4> 			<http://www.assero.co.uk/BusinessDomain#compliance> 			<http://www.assero.co.uk/MDRSdtmIgD/CDISC/V2#IG-CDISC_SDTMIGPE_C_REQUIRED> . 
<http://www.assero.co.uk/MDRSdtmUD/ACME/V1#D-ACME_PEDomain_V4> 			<http://www.assero.co.uk/BusinessDomain#rule> 			"" . 
<http://www.assero.co.uk/MDRSdtmUD/ACME/V1#D-ACME_PEDomain_V4> 			<http://www.assero.co.uk/BusinessDomain#ordinal> 			"4" . 
<http://www.assero.co.uk/MDRSdtmUD/ACME/V1#D-ACME_PEDomain_V4> 			<http://www.assero.co.uk/BusinessDomain#name> 			"PESEQ" . 
<http://www.assero.co.uk/MDRSdtmUD/ACME/V1#D-ACME_PEDomain_V4> 			<http://www.assero.co.uk/BusinessDomain#notes> 			"" . 
<http://www.assero.co.uk/MDRSdtmUD/ACME/V1#D-ACME_PEDomain_V4> 			<http://www.assero.co.uk/BusinessDomain#format> 			"" . 
<http://www.assero.co.uk/MDRSdtmUD/ACME/V1#D-ACME_PEDomain_V4> 			<http://www.assero.co.uk/BusinessDomain#ct> 			"" . 
<http://www.assero.co.uk/MDRSdtmUD/ACME/V1#D-ACME_PEDomain_V4> 			<http://www.assero.co.uk/BusinessDomain#length> 			"0" . 
<http://www.assero.co.uk/MDRSdtmUD/ACME/V1#D-ACME_PEDomain_V4> 			<http://www.assero.co.uk/BusinessDomain#comment> 			"" . 
<http://www.assero.co.uk/MDRSdtmUD/ACME/V1#D-ACME_PEDomain_V4> 			<http://www.assero.co.uk/BusinessDomain#non_standard> 			"false" . 
<http://www.assero.co.uk/MDRSdtmUD/ACME/V1#D-ACME_PEDomain_V4> 			<http://www.assero.co.uk/BusinessDomain#used> 			"true" . 
<http://www.assero.co.uk/MDRSdtmUD/ACME/V1#D-ACME_PEDomain_V4> 			<http://www.assero.co.uk/BusinessDomain#key_ordinal> 			"0" . 
<http://www.assero.co.uk/MDRSdtmUD/ACME/V1#D-ACME_PEDomain_V4_IGV1> 			<http://www.w3.org/1999/02/22-rdf-syntax-ns#type> 			<http://www.assero.co.uk/BusinessOperational#CReference> . 
<http://www.assero.co.uk/MDRSdtmUD/ACME/V1#D-ACME_PEDomain_V4_IGV1> 			<http://www.w3.org/2000/01/rdf-schema#label> 			"Based on Variable Reference" . 
<http://www.assero.co.uk/MDRSdtmUD/ACME/V1#D-ACME_PEDomain_V4_IGV1> 			<http://www.assero.co.uk/BusinessOperational#hasColumn> 			<http://www.assero.co.uk/MDRSdtmIgD/CDISC/V2#IG-CDISC_SDTMIGPE_PESEQ> . 
<http://www.assero.co.uk/MDRSdtmUD/ACME/V1#D-ACME_PEDomain_V4_IGV1> 			<http://www.assero.co.uk/BusinessOperational#ordinal> 			"1" . 
<http://www.assero.co.uk/MDRSdtmUD/ACME/V1#D-ACME_PEDomain_V4_IGV1> 			<http://www.assero.co.uk/BusinessOperational#enabled> 			"true" . 
<http://www.assero.co.uk/MDRSdtmUD/ACME/V1#D-ACME_PEDomain_V4_IGV1> 			<http://www.assero.co.uk/BusinessOperational#optional> 			"false" . 
<http://www.assero.co.uk/MDRSdtmUD/ACME/V1#D-ACME_PEDomain_V4_IGV1> 			<http://www.assero.co.uk/BusinessOperational#local_label> 			"" . 
<http://www.assero.co.uk/MDRSdtmUD/ACME/V1#D-ACME_PEDomain_V5> 			<http://www.w3.org/1999/02/22-rdf-syntax-ns#type> 			<http://www.assero.co.uk/BusinessDomain#UserVariable> . 
<http://www.assero.co.uk/MDRSdtmUD/ACME/V1#D-ACME_PEDomain_V5> 			<http://www.w3.org/2000/01/rdf-schema#label> 			"Group ID" . 
<http://www.assero.co.uk/MDRSdtmUD/ACME/V1#D-ACME_PEDomain_V5> 			<http://www.assero.co.uk/BusinessDomain#basedOnVariable> 			<http://www.assero.co.uk/MDRSdtmUD/ACME/V1#D-ACME_PEDomain_V5_IGV1> . 
<http://www.assero.co.uk/MDRSdtmUD/ACME/V1#D-ACME_PEDomain_V5> 			<http://www.assero.co.uk/BusinessDomain#classifiedAs> 			<http://www.assero.co.uk/MDRSdtmM/CDISC/V2#M-CDISC_SDTMMODEL_C_IDENTIFIER> . 
<http://www.assero.co.uk/MDRSdtmUD/ACME/V1#D-ACME_PEDomain_V5> 			<http://www.assero.co.uk/BusinessDomain#typedAs> 			<http://www.assero.co.uk/MDRSdtmM/CDISC/V2#M-CDISC_SDTMMODEL_DT_CHAR> . 
<http://www.assero.co.uk/MDRSdtmUD/ACME/V1#D-ACME_PEDomain_V5> 			<http://www.assero.co.uk/BusinessDomain#compliance> 			<http://www.assero.co.uk/MDRSdtmIgD/CDISC/V2#IG-CDISC_SDTMIGPE_C_PERMISSIBLE> . 
<http://www.assero.co.uk/MDRSdtmUD/ACME/V1#D-ACME_PEDomain_V5> 			<http://www.assero.co.uk/BusinessDomain#rule> 			"" . 
<http://www.assero.co.uk/MDRSdtmUD/ACME/V1#D-ACME_PEDomain_V5> 			<http://www.assero.co.uk/BusinessDomain#ordinal> 			"5" . 
<http://www.assero.co.uk/MDRSdtmUD/ACME/V1#D-ACME_PEDomain_V5> 			<http://www.assero.co.uk/BusinessDomain#name> 			"PEGRPID" . 
<http://www.assero.co.uk/MDRSdtmUD/ACME/V1#D-ACME_PEDomain_V5> 			<http://www.assero.co.uk/BusinessDomain#notes> 			"" . 
<http://www.assero.co.uk/MDRSdtmUD/ACME/V1#D-ACME_PEDomain_V5> 			<http://www.assero.co.uk/BusinessDomain#format> 			"" . 
<http://www.assero.co.uk/MDRSdtmUD/ACME/V1#D-ACME_PEDomain_V5> 			<http://www.assero.co.uk/BusinessDomain#ct> 			"" . 
<http://www.assero.co.uk/MDRSdtmUD/ACME/V1#D-ACME_PEDomain_V5> 			<http://www.assero.co.uk/BusinessDomain#length> 			"0" . 
<http://www.assero.co.uk/MDRSdtmUD/ACME/V1#D-ACME_PEDomain_V5> 			<http://www.assero.co.uk/BusinessDomain#comment> 			"" . 
<http://www.assero.co.uk/MDRSdtmUD/ACME/V1#D-ACME_PEDomain_V5> 			<http://www.assero.co.uk/BusinessDomain#non_standard> 			"false" . 
<http://www.assero.co.uk/MDRSdtmUD/ACME/V1#D-ACME_PEDomain_V5> 			<http://www.assero.co.uk/BusinessDomain#used> 			"true" . 
<http://www.assero.co.uk/MDRSdtmUD/ACME/V1#D-ACME_PEDomain_V5> 			<http://www.assero.co.uk/BusinessDomain#key_ordinal> 			"0" . 
<http://www.assero.co.uk/MDRSdtmUD/ACME/V1#D-ACME_PEDomain_V5_IGV1> 			<http://www.w3.org/1999/02/22-rdf-syntax-ns#type> 			<http://www.assero.co.uk/BusinessOperational#CReference> . 
<http://www.assero.co.uk/MDRSdtmUD/ACME/V1#D-ACME_PEDomain_V5_IGV1> 			<http://www.w3.org/2000/01/rdf-schema#label> 			"Based on Variable Reference" . 
<http://www.assero.co.uk/MDRSdtmUD/ACME/V1#D-ACME_PEDomain_V5_IGV1> 			<http://www.assero.co.uk/BusinessOperational#hasColumn> 			<http://www.assero.co.uk/MDRSdtmIgD/CDISC/V2#IG-CDISC_SDTMIGPE_PEGRPID> . 
<http://www.assero.co.uk/MDRSdtmUD/ACME/V1#D-ACME_PEDomain_V5_IGV1> 			<http://www.assero.co.uk/BusinessOperational#ordinal> 			"1" . 
<http://www.assero.co.uk/MDRSdtmUD/ACME/V1#D-ACME_PEDomain_V5_IGV1> 			<http://www.assero.co.uk/BusinessOperational#enabled> 			"true" . 
<http://www.assero.co.uk/MDRSdtmUD/ACME/V1#D-ACME_PEDomain_V5_IGV1> 			<http://www.assero.co.uk/BusinessOperational#optional> 			"false" . 
<http://www.assero.co.uk/MDRSdtmUD/ACME/V1#D-ACME_PEDomain_V5_IGV1> 			<http://www.assero.co.uk/BusinessOperational#local_label> 			"" . 
<http://www.assero.co.uk/MDRSdtmUD/ACME/V1#D-ACME_PEDomain_V6> 			<http://www.w3.org/1999/02/22-rdf-syntax-ns#type> 			<http://www.assero.co.uk/BusinessDomain#UserVariable> . 
<http://www.assero.co.uk/MDRSdtmUD/ACME/V1#D-ACME_PEDomain_V6> 			<http://www.w3.org/2000/01/rdf-schema#label> 			"Sponsor-Defined Identifier" . 
<http://www.assero.co.uk/MDRSdtmUD/ACME/V1#D-ACME_PEDomain_V6> 			<http://www.assero.co.uk/BusinessDomain#basedOnVariable> 			<http://www.assero.co.uk/MDRSdtmUD/ACME/V1#D-ACME_PEDomain_V6_IGV1> . 
<http://www.assero.co.uk/MDRSdtmUD/ACME/V1#D-ACME_PEDomain_V6> 			<http://www.assero.co.uk/BusinessDomain#classifiedAs> 			<http://www.assero.co.uk/MDRSdtmM/CDISC/V2#M-CDISC_SDTMMODEL_C_IDENTIFIER> . 
<http://www.assero.co.uk/MDRSdtmUD/ACME/V1#D-ACME_PEDomain_V6> 			<http://www.assero.co.uk/BusinessDomain#typedAs> 			<http://www.assero.co.uk/MDRSdtmM/CDISC/V2#M-CDISC_SDTMMODEL_DT_CHAR> . 
<http://www.assero.co.uk/MDRSdtmUD/ACME/V1#D-ACME_PEDomain_V6> 			<http://www.assero.co.uk/BusinessDomain#compliance> 			<http://www.assero.co.uk/MDRSdtmIgD/CDISC/V2#IG-CDISC_SDTMIGPE_C_PERMISSIBLE> . 
<http://www.assero.co.uk/MDRSdtmUD/ACME/V1#D-ACME_PEDomain_V6> 			<http://www.assero.co.uk/BusinessDomain#rule> 			"" . 
<http://www.assero.co.uk/MDRSdtmUD/ACME/V1#D-ACME_PEDomain_V6> 			<http://www.assero.co.uk/BusinessDomain#ordinal> 			"6" . 
<http://www.assero.co.uk/MDRSdtmUD/ACME/V1#D-ACME_PEDomain_V6> 			<http://www.assero.co.uk/BusinessDomain#name> 			"PESPID" . 
<http://www.assero.co.uk/MDRSdtmUD/ACME/V1#D-ACME_PEDomain_V6> 			<http://www.assero.co.uk/BusinessDomain#notes> 			"" . 
<http://www.assero.co.uk/MDRSdtmUD/ACME/V1#D-ACME_PEDomain_V6> 			<http://www.assero.co.uk/BusinessDomain#format> 			"" . 
<http://www.assero.co.uk/MDRSdtmUD/ACME/V1#D-ACME_PEDomain_V6> 			<http://www.assero.co.uk/BusinessDomain#ct> 			"" . 
<http://www.assero.co.uk/MDRSdtmUD/ACME/V1#D-ACME_PEDomain_V6> 			<http://www.assero.co.uk/BusinessDomain#length> 			"0" . 
<http://www.assero.co.uk/MDRSdtmUD/ACME/V1#D-ACME_PEDomain_V6> 			<http://www.assero.co.uk/BusinessDomain#comment> 			"" . 
<http://www.assero.co.uk/MDRSdtmUD/ACME/V1#D-ACME_PEDomain_V6> 			<http://www.assero.co.uk/BusinessDomain#non_standard> 			"false" . 
<http://www.assero.co.uk/MDRSdtmUD/ACME/V1#D-ACME_PEDomain_V6> 			<http://www.assero.co.uk/BusinessDomain#used> 			"true" . 
<http://www.assero.co.uk/MDRSdtmUD/ACME/V1#D-ACME_PEDomain_V6> 			<http://www.assero.co.uk/BusinessDomain#key_ordinal> 			"0" . 
<http://www.assero.co.uk/MDRSdtmUD/ACME/V1#D-ACME_PEDomain_V6_IGV1> 			<http://www.w3.org/1999/02/22-rdf-syntax-ns#type> 			<http://www.assero.co.uk/BusinessOperational#CReference> . 
<http://www.assero.co.uk/MDRSdtmUD/ACME/V1#D-ACME_PEDomain_V6_IGV1> 			<http://www.w3.org/2000/01/rdf-schema#label> 			"Based on Variable Reference" . 
<http://www.assero.co.uk/MDRSdtmUD/ACME/V1#D-ACME_PEDomain_V6_IGV1> 			<http://www.assero.co.uk/BusinessOperational#hasColumn> 			<http://www.assero.co.uk/MDRSdtmIgD/CDISC/V2#IG-CDISC_SDTMIGPE_PESPID> . 
<http://www.assero.co.uk/MDRSdtmUD/ACME/V1#D-ACME_PEDomain_V6_IGV1> 			<http://www.assero.co.uk/BusinessOperational#ordinal> 			"1" . 
<http://www.assero.co.uk/MDRSdtmUD/ACME/V1#D-ACME_PEDomain_V6_IGV1> 			<http://www.assero.co.uk/BusinessOperational#enabled> 			"true" . 
<http://www.assero.co.uk/MDRSdtmUD/ACME/V1#D-ACME_PEDomain_V6_IGV1> 			<http://www.assero.co.uk/BusinessOperational#optional> 			"false" . 
<http://www.assero.co.uk/MDRSdtmUD/ACME/V1#D-ACME_PEDomain_V6_IGV1> 			<http://www.assero.co.uk/BusinessOperational#local_label> 			"" . 
<http://www.assero.co.uk/MDRSdtmUD/ACME/V1#D-ACME_PEDomain_V7> 			<http://www.w3.org/1999/02/22-rdf-syntax-ns#type> 			<http://www.assero.co.uk/BusinessDomain#UserVariable> . 
<http://www.assero.co.uk/MDRSdtmUD/ACME/V1#D-ACME_PEDomain_V7> 			<http://www.w3.org/2000/01/rdf-schema#label> 			"Body System Examined Short Name" . 
<http://www.assero.co.uk/MDRSdtmUD/ACME/V1#D-ACME_PEDomain_V7> 			<http://www.assero.co.uk/BusinessDomain#basedOnVariable> 			<http://www.assero.co.uk/MDRSdtmUD/ACME/V1#D-ACME_PEDomain_V7_IGV1> . 
<http://www.assero.co.uk/MDRSdtmUD/ACME/V1#D-ACME_PEDomain_V7> 			<http://www.assero.co.uk/BusinessDomain#classifiedAs> 			<http://www.assero.co.uk/MDRSdtmM/CDISC/V2#M-CDISC_SDTMMODEL_C_TOPIC> . 
<http://www.assero.co.uk/MDRSdtmUD/ACME/V1#D-ACME_PEDomain_V7> 			<http://www.assero.co.uk/BusinessDomain#typedAs> 			<http://www.assero.co.uk/MDRSdtmM/CDISC/V2#M-CDISC_SDTMMODEL_DT_CHAR> . 
<http://www.assero.co.uk/MDRSdtmUD/ACME/V1#D-ACME_PEDomain_V7> 			<http://www.assero.co.uk/BusinessDomain#compliance> 			<http://www.assero.co.uk/MDRSdtmIgD/CDISC/V2#IG-CDISC_SDTMIGPE_C_REQUIRED> . 
<http://www.assero.co.uk/MDRSdtmUD/ACME/V1#D-ACME_PEDomain_V7> 			<http://www.assero.co.uk/BusinessDomain#rule> 			"" . 
<http://www.assero.co.uk/MDRSdtmUD/ACME/V1#D-ACME_PEDomain_V7> 			<http://www.assero.co.uk/BusinessDomain#ordinal> 			"7" . 
<http://www.assero.co.uk/MDRSdtmUD/ACME/V1#D-ACME_PEDomain_V7> 			<http://www.assero.co.uk/BusinessDomain#name> 			"PETESTCD" . 
<http://www.assero.co.uk/MDRSdtmUD/ACME/V1#D-ACME_PEDomain_V7> 			<http://www.assero.co.uk/BusinessDomain#notes> 			"" . 
<http://www.assero.co.uk/MDRSdtmUD/ACME/V1#D-ACME_PEDomain_V7> 			<http://www.assero.co.uk/BusinessDomain#format> 			"" . 
<http://www.assero.co.uk/MDRSdtmUD/ACME/V1#D-ACME_PEDomain_V7> 			<http://www.assero.co.uk/BusinessDomain#ct> 			"" . 
<http://www.assero.co.uk/MDRSdtmUD/ACME/V1#D-ACME_PEDomain_V7> 			<http://www.assero.co.uk/BusinessDomain#length> 			"0" . 
<http://www.assero.co.uk/MDRSdtmUD/ACME/V1#D-ACME_PEDomain_V7> 			<http://www.assero.co.uk/BusinessDomain#comment> 			"" . 
<http://www.assero.co.uk/MDRSdtmUD/ACME/V1#D-ACME_PEDomain_V7> 			<http://www.assero.co.uk/BusinessDomain#non_standard> 			"false" . 
<http://www.assero.co.uk/MDRSdtmUD/ACME/V1#D-ACME_PEDomain_V7> 			<http://www.assero.co.uk/BusinessDomain#used> 			"true" . 
<http://www.assero.co.uk/MDRSdtmUD/ACME/V1#D-ACME_PEDomain_V7> 			<http://www.assero.co.uk/BusinessDomain#key_ordinal> 			"0" . 
<http://www.assero.co.uk/MDRSdtmUD/ACME/V1#D-ACME_PEDomain_V7_IGV1> 			<http://www.w3.org/1999/02/22-rdf-syntax-ns#type> 			<http://www.assero.co.uk/BusinessOperational#CReference> . 
<http://www.assero.co.uk/MDRSdtmUD/ACME/V1#D-ACME_PEDomain_V7_IGV1> 			<http://www.w3.org/2000/01/rdf-schema#label> 			"Based on Variable Reference" . 
<http://www.assero.co.uk/MDRSdtmUD/ACME/V1#D-ACME_PEDomain_V7_IGV1> 			<http://www.assero.co.uk/BusinessOperational#hasColumn> 			<http://www.assero.co.uk/MDRSdtmIgD/CDISC/V2#IG-CDISC_SDTMIGPE_PETESTCD> . 
<http://www.assero.co.uk/MDRSdtmUD/ACME/V1#D-ACME_PEDomain_V7_IGV1> 			<http://www.assero.co.uk/BusinessOperational#ordinal> 			"1" . 
<http://www.assero.co.uk/MDRSdtmUD/ACME/V1#D-ACME_PEDomain_V7_IGV1> 			<http://www.assero.co.uk/BusinessOperational#enabled> 			"true" . 
<http://www.assero.co.uk/MDRSdtmUD/ACME/V1#D-ACME_PEDomain_V7_IGV1> 			<http://www.assero.co.uk/BusinessOperational#optional> 			"false" . 
<http://www.assero.co.uk/MDRSdtmUD/ACME/V1#D-ACME_PEDomain_V7_IGV1> 			<http://www.assero.co.uk/BusinessOperational#local_label> 			"" . 
<http://www.assero.co.uk/MDRSdtmUD/ACME/V1#D-ACME_PEDomain_V8> 			<http://www.w3.org/1999/02/22-rdf-syntax-ns#type> 			<http://www.assero.co.uk/BusinessDomain#UserVariable> . 
<http://www.assero.co.uk/MDRSdtmUD/ACME/V1#D-ACME_PEDomain_V8> 			<http://www.w3.org/2000/01/rdf-schema#label> 			"Body System Examined" . 
<http://www.assero.co.uk/MDRSdtmUD/ACME/V1#D-ACME_PEDomain_V8> 			<http://www.assero.co.uk/BusinessDomain#basedOnVariable> 			<http://www.assero.co.uk/MDRSdtmUD/ACME/V1#D-ACME_PEDomain_V8_IGV1> . 
<http://www.assero.co.uk/MDRSdtmUD/ACME/V1#D-ACME_PEDomain_V8> 			<http://www.assero.co.uk/BusinessDomain#classifiedAs> 			<http://www.assero.co.uk/MDRSdtmM/CDISC/V2#M-CDISC_SDTMMODEL_SC_SYNONYMQUALIFIER> . 
<http://www.assero.co.uk/MDRSdtmUD/ACME/V1#D-ACME_PEDomain_V8> 			<http://www.assero.co.uk/BusinessDomain#typedAs> 			<http://www.assero.co.uk/MDRSdtmM/CDISC/V2#M-CDISC_SDTMMODEL_DT_CHAR> . 
<http://www.assero.co.uk/MDRSdtmUD/ACME/V1#D-ACME_PEDomain_V8> 			<http://www.assero.co.uk/BusinessDomain#compliance> 			<http://www.assero.co.uk/MDRSdtmIgD/CDISC/V2#IG-CDISC_SDTMIGPE_C_REQUIRED> . 
<http://www.assero.co.uk/MDRSdtmUD/ACME/V1#D-ACME_PEDomain_V8> 			<http://www.assero.co.uk/BusinessDomain#rule> 			"" . 
<http://www.assero.co.uk/MDRSdtmUD/ACME/V1#D-ACME_PEDomain_V8> 			<http://www.assero.co.uk/BusinessDomain#ordinal> 			"8" . 
<http://www.assero.co.uk/MDRSdtmUD/ACME/V1#D-ACME_PEDomain_V8> 			<http://www.assero.co.uk/BusinessDomain#name> 			"PETEST" . 
<http://www.assero.co.uk/MDRSdtmUD/ACME/V1#D-ACME_PEDomain_V8> 			<http://www.assero.co.uk/BusinessDomain#notes> 			"" . 
<http://www.assero.co.uk/MDRSdtmUD/ACME/V1#D-ACME_PEDomain_V8> 			<http://www.assero.co.uk/BusinessDomain#format> 			"" . 
<http://www.assero.co.uk/MDRSdtmUD/ACME/V1#D-ACME_PEDomain_V8> 			<http://www.assero.co.uk/BusinessDomain#ct> 			"" . 
<http://www.assero.co.uk/MDRSdtmUD/ACME/V1#D-ACME_PEDomain_V8> 			<http://www.assero.co.uk/BusinessDomain#length> 			"0" . 
<http://www.assero.co.uk/MDRSdtmUD/ACME/V1#D-ACME_PEDomain_V8> 			<http://www.assero.co.uk/BusinessDomain#comment> 			"" . 
<http://www.assero.co.uk/MDRSdtmUD/ACME/V1#D-ACME_PEDomain_V8> 			<http://www.assero.co.uk/BusinessDomain#non_standard> 			"false" . 
<http://www.assero.co.uk/MDRSdtmUD/ACME/V1#D-ACME_PEDomain_V8> 			<http://www.assero.co.uk/BusinessDomain#used> 			"true" . 
<http://www.assero.co.uk/MDRSdtmUD/ACME/V1#D-ACME_PEDomain_V8> 			<http://www.assero.co.uk/BusinessDomain#key_ordinal> 			"0" . 
<http://www.assero.co.uk/MDRSdtmUD/ACME/V1#D-ACME_PEDomain_V8_IGV1> 			<http://www.w3.org/1999/02/22-rdf-syntax-ns#type> 			<http://www.assero.co.uk/BusinessOperational#CReference> . 
<http://www.assero.co.uk/MDRSdtmUD/ACME/V1#D-ACME_PEDomain_V8_IGV1> 			<http://www.w3.org/2000/01/rdf-schema#label> 			"Based on Variable Reference" . 
<http://www.assero.co.uk/MDRSdtmUD/ACME/V1#D-ACME_PEDomain_V8_IGV1> 			<http://www.assero.co.uk/BusinessOperational#hasColumn> 			<http://www.assero.co.uk/MDRSdtmIgD/CDISC/V2#IG-CDISC_SDTMIGPE_PETEST> . 
<http://www.assero.co.uk/MDRSdtmUD/ACME/V1#D-ACME_PEDomain_V8_IGV1> 			<http://www.assero.co.uk/BusinessOperational#ordinal> 			"1" . 
<http://www.assero.co.uk/MDRSdtmUD/ACME/V1#D-ACME_PEDomain_V8_IGV1> 			<http://www.assero.co.uk/BusinessOperational#enabled> 			"true" . 
<http://www.assero.co.uk/MDRSdtmUD/ACME/V1#D-ACME_PEDomain_V8_IGV1> 			<http://www.assero.co.uk/BusinessOperational#optional> 			"false" . 
<http://www.assero.co.uk/MDRSdtmUD/ACME/V1#D-ACME_PEDomain_V8_IGV1> 			<http://www.assero.co.uk/BusinessOperational#local_label> 			"" . 
<http://www.assero.co.uk/MDRSdtmUD/ACME/V1#D-ACME_PEDomain_V9> 			<http://www.w3.org/1999/02/22-rdf-syntax-ns#type> 			<http://www.assero.co.uk/BusinessDomain#UserVariable> . 
<http://www.assero.co.uk/MDRSdtmUD/ACME/V1#D-ACME_PEDomain_V9> 			<http://www.w3.org/2000/01/rdf-schema#label> 			"Modified Reported Term" . 
<http://www.assero.co.uk/MDRSdtmUD/ACME/V1#D-ACME_PEDomain_V9> 			<http://www.assero.co.uk/BusinessDomain#basedOnVariable> 			<http://www.assero.co.uk/MDRSdtmUD/ACME/V1#D-ACME_PEDomain_V9_IGV1> . 
<http://www.assero.co.uk/MDRSdtmUD/ACME/V1#D-ACME_PEDomain_V9> 			<http://www.assero.co.uk/BusinessDomain#classifiedAs> 			<http://www.assero.co.uk/MDRSdtmM/CDISC/V2#M-CDISC_SDTMMODEL_SC_SYNONYMQUALIFIER> . 
<http://www.assero.co.uk/MDRSdtmUD/ACME/V1#D-ACME_PEDomain_V9> 			<http://www.assero.co.uk/BusinessDomain#typedAs> 			<http://www.assero.co.uk/MDRSdtmM/CDISC/V2#M-CDISC_SDTMMODEL_DT_CHAR> . 
<http://www.assero.co.uk/MDRSdtmUD/ACME/V1#D-ACME_PEDomain_V9> 			<http://www.assero.co.uk/BusinessDomain#compliance> 			<http://www.assero.co.uk/MDRSdtmIgD/CDISC/V2#IG-CDISC_SDTMIGPE_C_PERMISSIBLE> . 
<http://www.assero.co.uk/MDRSdtmUD/ACME/V1#D-ACME_PEDomain_V9> 			<http://www.assero.co.uk/BusinessDomain#rule> 			"" . 
<http://www.assero.co.uk/MDRSdtmUD/ACME/V1#D-ACME_PEDomain_V9> 			<http://www.assero.co.uk/BusinessDomain#ordinal> 			"9" . 
<http://www.assero.co.uk/MDRSdtmUD/ACME/V1#D-ACME_PEDomain_V9> 			<http://www.assero.co.uk/BusinessDomain#name> 			"PEMODIFY" . 
<http://www.assero.co.uk/MDRSdtmUD/ACME/V1#D-ACME_PEDomain_V9> 			<http://www.assero.co.uk/BusinessDomain#notes> 			"" . 
<http://www.assero.co.uk/MDRSdtmUD/ACME/V1#D-ACME_PEDomain_V9> 			<http://www.assero.co.uk/BusinessDomain#format> 			"" . 
<http://www.assero.co.uk/MDRSdtmUD/ACME/V1#D-ACME_PEDomain_V9> 			<http://www.assero.co.uk/BusinessDomain#ct> 			"" . 
<http://www.assero.co.uk/MDRSdtmUD/ACME/V1#D-ACME_PEDomain_V9> 			<http://www.assero.co.uk/BusinessDomain#length> 			"0" . 
<http://www.assero.co.uk/MDRSdtmUD/ACME/V1#D-ACME_PEDomain_V9> 			<http://www.assero.co.uk/BusinessDomain#comment> 			"" . 
<http://www.assero.co.uk/MDRSdtmUD/ACME/V1#D-ACME_PEDomain_V9> 			<http://www.assero.co.uk/BusinessDomain#non_standard> 			"false" . 
<http://www.assero.co.uk/MDRSdtmUD/ACME/V1#D-ACME_PEDomain_V9> 			<http://www.assero.co.uk/BusinessDomain#used> 			"true" . 
<http://www.assero.co.uk/MDRSdtmUD/ACME/V1#D-ACME_PEDomain_V9> 			<http://www.assero.co.uk/BusinessDomain#key_ordinal> 			"0" . 
<http://www.assero.co.uk/MDRSdtmUD/ACME/V1#D-ACME_PEDomain_V9_IGV1> 			<http://www.w3.org/1999/02/22-rdf-syntax-ns#type> 			<http://www.assero.co.uk/BusinessOperational#CReference> . 
<http://www.assero.co.uk/MDRSdtmUD/ACME/V1#D-ACME_PEDomain_V9_IGV1> 			<http://www.w3.org/2000/01/rdf-schema#label> 			"Based on Variable Reference" . 
<http://www.assero.co.uk/MDRSdtmUD/ACME/V1#D-ACME_PEDomain_V9_IGV1> 			<http://www.assero.co.uk/BusinessOperational#hasColumn> 			<http://www.assero.co.uk/MDRSdtmIgD/CDISC/V2#IG-CDISC_SDTMIGPE_PEMODIFY> . 
<http://www.assero.co.uk/MDRSdtmUD/ACME/V1#D-ACME_PEDomain_V9_IGV1> 			<http://www.assero.co.uk/BusinessOperational#ordinal> 			"1" . 
<http://www.assero.co.uk/MDRSdtmUD/ACME/V1#D-ACME_PEDomain_V9_IGV1> 			<http://www.assero.co.uk/BusinessOperational#enabled> 			"true" . 
<http://www.assero.co.uk/MDRSdtmUD/ACME/V1#D-ACME_PEDomain_V9_IGV1> 			<http://www.assero.co.uk/BusinessOperational#optional> 			"false" . 
<http://www.assero.co.uk/MDRSdtmUD/ACME/V1#D-ACME_PEDomain_V9_IGV1> 			<http://www.assero.co.uk/BusinessOperational#local_label> 			"" . 
<http://www.assero.co.uk/MDRSdtmUD/ACME/V1#D-ACME_PEDomain_V10> 			<http://www.w3.org/1999/02/22-rdf-syntax-ns#type> 			<http://www.assero.co.uk/BusinessDomain#UserVariable> . 
<http://www.assero.co.uk/MDRSdtmUD/ACME/V1#D-ACME_PEDomain_V10> 			<http://www.w3.org/2000/01/rdf-schema#label> 			"Category for Examination" . 
<http://www.assero.co.uk/MDRSdtmUD/ACME/V1#D-ACME_PEDomain_V10> 			<http://www.assero.co.uk/BusinessDomain#basedOnVariable> 			<http://www.assero.co.uk/MDRSdtmUD/ACME/V1#D-ACME_PEDomain_V10_IGV1> . 
<http://www.assero.co.uk/MDRSdtmUD/ACME/V1#D-ACME_PEDomain_V10> 			<http://www.assero.co.uk/BusinessDomain#classifiedAs> 			<http://www.assero.co.uk/MDRSdtmM/CDISC/V2#M-CDISC_SDTMMODEL_SC_GROUPINGQUALIFIER> . 
<http://www.assero.co.uk/MDRSdtmUD/ACME/V1#D-ACME_PEDomain_V10> 			<http://www.assero.co.uk/BusinessDomain#typedAs> 			<http://www.assero.co.uk/MDRSdtmM/CDISC/V2#M-CDISC_SDTMMODEL_DT_CHAR> . 
<http://www.assero.co.uk/MDRSdtmUD/ACME/V1#D-ACME_PEDomain_V10> 			<http://www.assero.co.uk/BusinessDomain#compliance> 			<http://www.assero.co.uk/MDRSdtmIgD/CDISC/V2#IG-CDISC_SDTMIGPE_C_PERMISSIBLE> . 
<http://www.assero.co.uk/MDRSdtmUD/ACME/V1#D-ACME_PEDomain_V10> 			<http://www.assero.co.uk/BusinessDomain#rule> 			"" . 
<http://www.assero.co.uk/MDRSdtmUD/ACME/V1#D-ACME_PEDomain_V10> 			<http://www.assero.co.uk/BusinessDomain#ordinal> 			"10" . 
<http://www.assero.co.uk/MDRSdtmUD/ACME/V1#D-ACME_PEDomain_V10> 			<http://www.assero.co.uk/BusinessDomain#name> 			"PECAT" . 
<http://www.assero.co.uk/MDRSdtmUD/ACME/V1#D-ACME_PEDomain_V10> 			<http://www.assero.co.uk/BusinessDomain#notes> 			"" . 
<http://www.assero.co.uk/MDRSdtmUD/ACME/V1#D-ACME_PEDomain_V10> 			<http://www.assero.co.uk/BusinessDomain#format> 			"" . 
<http://www.assero.co.uk/MDRSdtmUD/ACME/V1#D-ACME_PEDomain_V10> 			<http://www.assero.co.uk/BusinessDomain#ct> 			"" . 
<http://www.assero.co.uk/MDRSdtmUD/ACME/V1#D-ACME_PEDomain_V10> 			<http://www.assero.co.uk/BusinessDomain#length> 			"0" . 
<http://www.assero.co.uk/MDRSdtmUD/ACME/V1#D-ACME_PEDomain_V10> 			<http://www.assero.co.uk/BusinessDomain#comment> 			"" . 
<http://www.assero.co.uk/MDRSdtmUD/ACME/V1#D-ACME_PEDomain_V10> 			<http://www.assero.co.uk/BusinessDomain#non_standard> 			"false" . 
<http://www.assero.co.uk/MDRSdtmUD/ACME/V1#D-ACME_PEDomain_V10> 			<http://www.assero.co.uk/BusinessDomain#used> 			"true" . 
<http://www.assero.co.uk/MDRSdtmUD/ACME/V1#D-ACME_PEDomain_V10> 			<http://www.assero.co.uk/BusinessDomain#key_ordinal> 			"0" . 
<http://www.assero.co.uk/MDRSdtmUD/ACME/V1#D-ACME_PEDomain_V10_IGV1> 			<http://www.w3.org/1999/02/22-rdf-syntax-ns#type> 			<http://www.assero.co.uk/BusinessOperational#CReference> . 
<http://www.assero.co.uk/MDRSdtmUD/ACME/V1#D-ACME_PEDomain_V10_IGV1> 			<http://www.w3.org/2000/01/rdf-schema#label> 			"Based on Variable Reference" . 
<http://www.assero.co.uk/MDRSdtmUD/ACME/V1#D-ACME_PEDomain_V10_IGV1> 			<http://www.assero.co.uk/BusinessOperational#hasColumn> 			<http://www.assero.co.uk/MDRSdtmIgD/CDISC/V2#IG-CDISC_SDTMIGPE_PECAT> . 
<http://www.assero.co.uk/MDRSdtmUD/ACME/V1#D-ACME_PEDomain_V10_IGV1> 			<http://www.assero.co.uk/BusinessOperational#ordinal> 			"1" . 
<http://www.assero.co.uk/MDRSdtmUD/ACME/V1#D-ACME_PEDomain_V10_IGV1> 			<http://www.assero.co.uk/BusinessOperational#enabled> 			"true" . 
<http://www.assero.co.uk/MDRSdtmUD/ACME/V1#D-ACME_PEDomain_V10_IGV1> 			<http://www.assero.co.uk/BusinessOperational#optional> 			"false" . 
<http://www.assero.co.uk/MDRSdtmUD/ACME/V1#D-ACME_PEDomain_V10_IGV1> 			<http://www.assero.co.uk/BusinessOperational#local_label> 			"" . 
<http://www.assero.co.uk/MDRSdtmUD/ACME/V1#D-ACME_PEDomain_V11> 			<http://www.w3.org/1999/02/22-rdf-syntax-ns#type> 			<http://www.assero.co.uk/BusinessDomain#UserVariable> . 
<http://www.assero.co.uk/MDRSdtmUD/ACME/V1#D-ACME_PEDomain_V11> 			<http://www.w3.org/2000/01/rdf-schema#label> 			"Subcategory for Examination" . 
<http://www.assero.co.uk/MDRSdtmUD/ACME/V1#D-ACME_PEDomain_V11> 			<http://www.assero.co.uk/BusinessDomain#basedOnVariable> 			<http://www.assero.co.uk/MDRSdtmUD/ACME/V1#D-ACME_PEDomain_V11_IGV1> . 
<http://www.assero.co.uk/MDRSdtmUD/ACME/V1#D-ACME_PEDomain_V11> 			<http://www.assero.co.uk/BusinessDomain#classifiedAs> 			<http://www.assero.co.uk/MDRSdtmM/CDISC/V2#M-CDISC_SDTMMODEL_SC_GROUPINGQUALIFIER> . 
<http://www.assero.co.uk/MDRSdtmUD/ACME/V1#D-ACME_PEDomain_V11> 			<http://www.assero.co.uk/BusinessDomain#typedAs> 			<http://www.assero.co.uk/MDRSdtmM/CDISC/V2#M-CDISC_SDTMMODEL_DT_CHAR> . 
<http://www.assero.co.uk/MDRSdtmUD/ACME/V1#D-ACME_PEDomain_V11> 			<http://www.assero.co.uk/BusinessDomain#compliance> 			<http://www.assero.co.uk/MDRSdtmIgD/CDISC/V2#IG-CDISC_SDTMIGPE_C_PERMISSIBLE> . 
<http://www.assero.co.uk/MDRSdtmUD/ACME/V1#D-ACME_PEDomain_V11> 			<http://www.assero.co.uk/BusinessDomain#rule> 			"" . 
<http://www.assero.co.uk/MDRSdtmUD/ACME/V1#D-ACME_PEDomain_V11> 			<http://www.assero.co.uk/BusinessDomain#ordinal> 			"11" . 
<http://www.assero.co.uk/MDRSdtmUD/ACME/V1#D-ACME_PEDomain_V11> 			<http://www.assero.co.uk/BusinessDomain#name> 			"PESCAT" . 
<http://www.assero.co.uk/MDRSdtmUD/ACME/V1#D-ACME_PEDomain_V11> 			<http://www.assero.co.uk/BusinessDomain#notes> 			"" . 
<http://www.assero.co.uk/MDRSdtmUD/ACME/V1#D-ACME_PEDomain_V11> 			<http://www.assero.co.uk/BusinessDomain#format> 			"" . 
<http://www.assero.co.uk/MDRSdtmUD/ACME/V1#D-ACME_PEDomain_V11> 			<http://www.assero.co.uk/BusinessDomain#ct> 			"" . 
<http://www.assero.co.uk/MDRSdtmUD/ACME/V1#D-ACME_PEDomain_V11> 			<http://www.assero.co.uk/BusinessDomain#length> 			"0" . 
<http://www.assero.co.uk/MDRSdtmUD/ACME/V1#D-ACME_PEDomain_V11> 			<http://www.assero.co.uk/BusinessDomain#comment> 			"" . 
<http://www.assero.co.uk/MDRSdtmUD/ACME/V1#D-ACME_PEDomain_V11> 			<http://www.assero.co.uk/BusinessDomain#non_standard> 			"false" . 
<http://www.assero.co.uk/MDRSdtmUD/ACME/V1#D-ACME_PEDomain_V11> 			<http://www.assero.co.uk/BusinessDomain#used> 			"true" . 
<http://www.assero.co.uk/MDRSdtmUD/ACME/V1#D-ACME_PEDomain_V11> 			<http://www.assero.co.uk/BusinessDomain#key_ordinal> 			"0" . 
<http://www.assero.co.uk/MDRSdtmUD/ACME/V1#D-ACME_PEDomain_V11_IGV1> 			<http://www.w3.org/1999/02/22-rdf-syntax-ns#type> 			<http://www.assero.co.uk/BusinessOperational#CReference> . 
<http://www.assero.co.uk/MDRSdtmUD/ACME/V1#D-ACME_PEDomain_V11_IGV1> 			<http://www.w3.org/2000/01/rdf-schema#label> 			"Based on Variable Reference" . 
<http://www.assero.co.uk/MDRSdtmUD/ACME/V1#D-ACME_PEDomain_V11_IGV1> 			<http://www.assero.co.uk/BusinessOperational#hasColumn> 			<http://www.assero.co.uk/MDRSdtmIgD/CDISC/V2#IG-CDISC_SDTMIGPE_PESCAT> . 
<http://www.assero.co.uk/MDRSdtmUD/ACME/V1#D-ACME_PEDomain_V11_IGV1> 			<http://www.assero.co.uk/BusinessOperational#ordinal> 			"1" . 
<http://www.assero.co.uk/MDRSdtmUD/ACME/V1#D-ACME_PEDomain_V11_IGV1> 			<http://www.assero.co.uk/BusinessOperational#enabled> 			"true" . 
<http://www.assero.co.uk/MDRSdtmUD/ACME/V1#D-ACME_PEDomain_V11_IGV1> 			<http://www.assero.co.uk/BusinessOperational#optional> 			"false" . 
<http://www.assero.co.uk/MDRSdtmUD/ACME/V1#D-ACME_PEDomain_V11_IGV1> 			<http://www.assero.co.uk/BusinessOperational#local_label> 			"" . 
<http://www.assero.co.uk/MDRSdtmUD/ACME/V1#D-ACME_PEDomain_V12> 			<http://www.w3.org/1999/02/22-rdf-syntax-ns#type> 			<http://www.assero.co.uk/BusinessDomain#UserVariable> . 
<http://www.assero.co.uk/MDRSdtmUD/ACME/V1#D-ACME_PEDomain_V12> 			<http://www.w3.org/2000/01/rdf-schema#label> 			"Body System or Organ Class" . 
<http://www.assero.co.uk/MDRSdtmUD/ACME/V1#D-ACME_PEDomain_V12> 			<http://www.assero.co.uk/BusinessDomain#basedOnVariable> 			<http://www.assero.co.uk/MDRSdtmUD/ACME/V1#D-ACME_PEDomain_V12_IGV1> . 
<http://www.assero.co.uk/MDRSdtmUD/ACME/V1#D-ACME_PEDomain_V12> 			<http://www.assero.co.uk/BusinessDomain#classifiedAs> 			<http://www.assero.co.uk/MDRSdtmM/CDISC/V2#M-CDISC_SDTMMODEL_SC_RECORDQUALIFIER> . 
<http://www.assero.co.uk/MDRSdtmUD/ACME/V1#D-ACME_PEDomain_V12> 			<http://www.assero.co.uk/BusinessDomain#typedAs> 			<http://www.assero.co.uk/MDRSdtmM/CDISC/V2#M-CDISC_SDTMMODEL_DT_CHAR> . 
<http://www.assero.co.uk/MDRSdtmUD/ACME/V1#D-ACME_PEDomain_V12> 			<http://www.assero.co.uk/BusinessDomain#compliance> 			<http://www.assero.co.uk/MDRSdtmIgD/CDISC/V2#IG-CDISC_SDTMIGPE_C_PERMISSIBLE> . 
<http://www.assero.co.uk/MDRSdtmUD/ACME/V1#D-ACME_PEDomain_V12> 			<http://www.assero.co.uk/BusinessDomain#rule> 			"" . 
<http://www.assero.co.uk/MDRSdtmUD/ACME/V1#D-ACME_PEDomain_V12> 			<http://www.assero.co.uk/BusinessDomain#ordinal> 			"12" . 
<http://www.assero.co.uk/MDRSdtmUD/ACME/V1#D-ACME_PEDomain_V12> 			<http://www.assero.co.uk/BusinessDomain#name> 			"PEBODSYS" . 
<http://www.assero.co.uk/MDRSdtmUD/ACME/V1#D-ACME_PEDomain_V12> 			<http://www.assero.co.uk/BusinessDomain#notes> 			"" . 
<http://www.assero.co.uk/MDRSdtmUD/ACME/V1#D-ACME_PEDomain_V12> 			<http://www.assero.co.uk/BusinessDomain#format> 			"" . 
<http://www.assero.co.uk/MDRSdtmUD/ACME/V1#D-ACME_PEDomain_V12> 			<http://www.assero.co.uk/BusinessDomain#ct> 			"" . 
<http://www.assero.co.uk/MDRSdtmUD/ACME/V1#D-ACME_PEDomain_V12> 			<http://www.assero.co.uk/BusinessDomain#length> 			"0" . 
<http://www.assero.co.uk/MDRSdtmUD/ACME/V1#D-ACME_PEDomain_V12> 			<http://www.assero.co.uk/BusinessDomain#comment> 			"" . 
<http://www.assero.co.uk/MDRSdtmUD/ACME/V1#D-ACME_PEDomain_V12> 			<http://www.assero.co.uk/BusinessDomain#non_standard> 			"false" . 
<http://www.assero.co.uk/MDRSdtmUD/ACME/V1#D-ACME_PEDomain_V12> 			<http://www.assero.co.uk/BusinessDomain#used> 			"true" . 
<http://www.assero.co.uk/MDRSdtmUD/ACME/V1#D-ACME_PEDomain_V12> 			<http://www.assero.co.uk/BusinessDomain#key_ordinal> 			"0" . 
<http://www.assero.co.uk/MDRSdtmUD/ACME/V1#D-ACME_PEDomain_V12_IGV1> 			<http://www.w3.org/1999/02/22-rdf-syntax-ns#type> 			<http://www.assero.co.uk/BusinessOperational#CReference> . 
<http://www.assero.co.uk/MDRSdtmUD/ACME/V1#D-ACME_PEDomain_V12_IGV1> 			<http://www.w3.org/2000/01/rdf-schema#label> 			"Based on Variable Reference" . 
<http://www.assero.co.uk/MDRSdtmUD/ACME/V1#D-ACME_PEDomain_V12_IGV1> 			<http://www.assero.co.uk/BusinessOperational#hasColumn> 			<http://www.assero.co.uk/MDRSdtmIgD/CDISC/V2#IG-CDISC_SDTMIGPE_PEBODSYS> . 
<http://www.assero.co.uk/MDRSdtmUD/ACME/V1#D-ACME_PEDomain_V12_IGV1> 			<http://www.assero.co.uk/BusinessOperational#ordinal> 			"1" . 
<http://www.assero.co.uk/MDRSdtmUD/ACME/V1#D-ACME_PEDomain_V12_IGV1> 			<http://www.assero.co.uk/BusinessOperational#enabled> 			"true" . 
<http://www.assero.co.uk/MDRSdtmUD/ACME/V1#D-ACME_PEDomain_V12_IGV1> 			<http://www.assero.co.uk/BusinessOperational#optional> 			"false" . 
<http://www.assero.co.uk/MDRSdtmUD/ACME/V1#D-ACME_PEDomain_V12_IGV1> 			<http://www.assero.co.uk/BusinessOperational#local_label> 			"" . 
<http://www.assero.co.uk/MDRSdtmUD/ACME/V1#D-ACME_PEDomain_V13> 			<http://www.w3.org/1999/02/22-rdf-syntax-ns#type> 			<http://www.assero.co.uk/BusinessDomain#UserVariable> . 
<http://www.assero.co.uk/MDRSdtmUD/ACME/V1#D-ACME_PEDomain_V13> 			<http://www.w3.org/2000/01/rdf-schema#label> 			"Verbatim Examination Finding" . 
<http://www.assero.co.uk/MDRSdtmUD/ACME/V1#D-ACME_PEDomain_V13> 			<http://www.assero.co.uk/BusinessDomain#basedOnVariable> 			<http://www.assero.co.uk/MDRSdtmUD/ACME/V1#D-ACME_PEDomain_V13_IGV1> . 
<http://www.assero.co.uk/MDRSdtmUD/ACME/V1#D-ACME_PEDomain_V13> 			<http://www.assero.co.uk/BusinessDomain#classifiedAs> 			<http://www.assero.co.uk/MDRSdtmM/CDISC/V2#M-CDISC_SDTMMODEL_SC_RESULTQUALIFIER> . 
<http://www.assero.co.uk/MDRSdtmUD/ACME/V1#D-ACME_PEDomain_V13> 			<http://www.assero.co.uk/BusinessDomain#typedAs> 			<http://www.assero.co.uk/MDRSdtmM/CDISC/V2#M-CDISC_SDTMMODEL_DT_CHAR> . 
<http://www.assero.co.uk/MDRSdtmUD/ACME/V1#D-ACME_PEDomain_V13> 			<http://www.assero.co.uk/BusinessDomain#compliance> 			<http://www.assero.co.uk/MDRSdtmIgD/CDISC/V2#IG-CDISC_SDTMIGPE_C_EXPECTED> . 
<http://www.assero.co.uk/MDRSdtmUD/ACME/V1#D-ACME_PEDomain_V13> 			<http://www.assero.co.uk/BusinessDomain#rule> 			"" . 
<http://www.assero.co.uk/MDRSdtmUD/ACME/V1#D-ACME_PEDomain_V13> 			<http://www.assero.co.uk/BusinessDomain#ordinal> 			"13" . 
<http://www.assero.co.uk/MDRSdtmUD/ACME/V1#D-ACME_PEDomain_V13> 			<http://www.assero.co.uk/BusinessDomain#name> 			"PEORRES" . 
<http://www.assero.co.uk/MDRSdtmUD/ACME/V1#D-ACME_PEDomain_V13> 			<http://www.assero.co.uk/BusinessDomain#notes> 			"" . 
<http://www.assero.co.uk/MDRSdtmUD/ACME/V1#D-ACME_PEDomain_V13> 			<http://www.assero.co.uk/BusinessDomain#format> 			"" . 
<http://www.assero.co.uk/MDRSdtmUD/ACME/V1#D-ACME_PEDomain_V13> 			<http://www.assero.co.uk/BusinessDomain#ct> 			"" . 
<http://www.assero.co.uk/MDRSdtmUD/ACME/V1#D-ACME_PEDomain_V13> 			<http://www.assero.co.uk/BusinessDomain#length> 			"0" . 
<http://www.assero.co.uk/MDRSdtmUD/ACME/V1#D-ACME_PEDomain_V13> 			<http://www.assero.co.uk/BusinessDomain#comment> 			"" . 
<http://www.assero.co.uk/MDRSdtmUD/ACME/V1#D-ACME_PEDomain_V13> 			<http://www.assero.co.uk/BusinessDomain#non_standard> 			"false" . 
<http://www.assero.co.uk/MDRSdtmUD/ACME/V1#D-ACME_PEDomain_V13> 			<http://www.assero.co.uk/BusinessDomain#used> 			"true" . 
<http://www.assero.co.uk/MDRSdtmUD/ACME/V1#D-ACME_PEDomain_V13> 			<http://www.assero.co.uk/BusinessDomain#key_ordinal> 			"0" . 
<http://www.assero.co.uk/MDRSdtmUD/ACME/V1#D-ACME_PEDomain_V13_IGV1> 			<http://www.w3.org/1999/02/22-rdf-syntax-ns#type> 			<http://www.assero.co.uk/BusinessOperational#CReference> . 
<http://www.assero.co.uk/MDRSdtmUD/ACME/V1#D-ACME_PEDomain_V13_IGV1> 			<http://www.w3.org/2000/01/rdf-schema#label> 			"Based on Variable Reference" . 
<http://www.assero.co.uk/MDRSdtmUD/ACME/V1#D-ACME_PEDomain_V13_IGV1> 			<http://www.assero.co.uk/BusinessOperational#hasColumn> 			<http://www.assero.co.uk/MDRSdtmIgD/CDISC/V2#IG-CDISC_SDTMIGPE_PEORRES> . 
<http://www.assero.co.uk/MDRSdtmUD/ACME/V1#D-ACME_PEDomain_V13_IGV1> 			<http://www.assero.co.uk/BusinessOperational#ordinal> 			"1" . 
<http://www.assero.co.uk/MDRSdtmUD/ACME/V1#D-ACME_PEDomain_V13_IGV1> 			<http://www.assero.co.uk/BusinessOperational#enabled> 			"true" . 
<http://www.assero.co.uk/MDRSdtmUD/ACME/V1#D-ACME_PEDomain_V13_IGV1> 			<http://www.assero.co.uk/BusinessOperational#optional> 			"false" . 
<http://www.assero.co.uk/MDRSdtmUD/ACME/V1#D-ACME_PEDomain_V13_IGV1> 			<http://www.assero.co.uk/BusinessOperational#local_label> 			"" . 
<http://www.assero.co.uk/MDRSdtmUD/ACME/V1#D-ACME_PEDomain_V14> 			<http://www.w3.org/1999/02/22-rdf-syntax-ns#type> 			<http://www.assero.co.uk/BusinessDomain#UserVariable> . 
<http://www.assero.co.uk/MDRSdtmUD/ACME/V1#D-ACME_PEDomain_V14> 			<http://www.w3.org/2000/01/rdf-schema#label> 			"Original Units" . 
<http://www.assero.co.uk/MDRSdtmUD/ACME/V1#D-ACME_PEDomain_V14> 			<http://www.assero.co.uk/BusinessDomain#basedOnVariable> 			<http://www.assero.co.uk/MDRSdtmUD/ACME/V1#D-ACME_PEDomain_V14_IGV1> . 
<http://www.assero.co.uk/MDRSdtmUD/ACME/V1#D-ACME_PEDomain_V14> 			<http://www.assero.co.uk/BusinessDomain#classifiedAs> 			<http://www.assero.co.uk/MDRSdtmM/CDISC/V2#M-CDISC_SDTMMODEL_SC_VARIABLEQUALIFIER> . 
<http://www.assero.co.uk/MDRSdtmUD/ACME/V1#D-ACME_PEDomain_V14> 			<http://www.assero.co.uk/BusinessDomain#typedAs> 			<http://www.assero.co.uk/MDRSdtmM/CDISC/V2#M-CDISC_SDTMMODEL_DT_CHAR> . 
<http://www.assero.co.uk/MDRSdtmUD/ACME/V1#D-ACME_PEDomain_V14> 			<http://www.assero.co.uk/BusinessDomain#compliance> 			<http://www.assero.co.uk/MDRSdtmIgD/CDISC/V2#IG-CDISC_SDTMIGPE_C_PERMISSIBLE> . 
<http://www.assero.co.uk/MDRSdtmUD/ACME/V1#D-ACME_PEDomain_V14> 			<http://www.assero.co.uk/BusinessDomain#rule> 			"" . 
<http://www.assero.co.uk/MDRSdtmUD/ACME/V1#D-ACME_PEDomain_V14> 			<http://www.assero.co.uk/BusinessDomain#ordinal> 			"14" . 
<http://www.assero.co.uk/MDRSdtmUD/ACME/V1#D-ACME_PEDomain_V14> 			<http://www.assero.co.uk/BusinessDomain#name> 			"PEORRESU" . 
<http://www.assero.co.uk/MDRSdtmUD/ACME/V1#D-ACME_PEDomain_V14> 			<http://www.assero.co.uk/BusinessDomain#notes> 			"" . 
<http://www.assero.co.uk/MDRSdtmUD/ACME/V1#D-ACME_PEDomain_V14> 			<http://www.assero.co.uk/BusinessDomain#format> 			"" . 
<http://www.assero.co.uk/MDRSdtmUD/ACME/V1#D-ACME_PEDomain_V14> 			<http://www.assero.co.uk/BusinessDomain#ct> 			"UNIT" . 
<http://www.assero.co.uk/MDRSdtmUD/ACME/V1#D-ACME_PEDomain_V14> 			<http://www.assero.co.uk/BusinessDomain#length> 			"0" . 
<http://www.assero.co.uk/MDRSdtmUD/ACME/V1#D-ACME_PEDomain_V14> 			<http://www.assero.co.uk/BusinessDomain#comment> 			"" . 
<http://www.assero.co.uk/MDRSdtmUD/ACME/V1#D-ACME_PEDomain_V14> 			<http://www.assero.co.uk/BusinessDomain#non_standard> 			"false" . 
<http://www.assero.co.uk/MDRSdtmUD/ACME/V1#D-ACME_PEDomain_V14> 			<http://www.assero.co.uk/BusinessDomain#used> 			"true" . 
<http://www.assero.co.uk/MDRSdtmUD/ACME/V1#D-ACME_PEDomain_V14> 			<http://www.assero.co.uk/BusinessDomain#key_ordinal> 			"0" . 
<http://www.assero.co.uk/MDRSdtmUD/ACME/V1#D-ACME_PEDomain_V14_IGV1> 			<http://www.w3.org/1999/02/22-rdf-syntax-ns#type> 			<http://www.assero.co.uk/BusinessOperational#CReference> . 
<http://www.assero.co.uk/MDRSdtmUD/ACME/V1#D-ACME_PEDomain_V14_IGV1> 			<http://www.w3.org/2000/01/rdf-schema#label> 			"Based on Variable Reference" . 
<http://www.assero.co.uk/MDRSdtmUD/ACME/V1#D-ACME_PEDomain_V14_IGV1> 			<http://www.assero.co.uk/BusinessOperational#hasColumn> 			<http://www.assero.co.uk/MDRSdtmIgD/CDISC/V2#IG-CDISC_SDTMIGPE_PEORRESU> . 
<http://www.assero.co.uk/MDRSdtmUD/ACME/V1#D-ACME_PEDomain_V14_IGV1> 			<http://www.assero.co.uk/BusinessOperational#ordinal> 			"1" . 
<http://www.assero.co.uk/MDRSdtmUD/ACME/V1#D-ACME_PEDomain_V14_IGV1> 			<http://www.assero.co.uk/BusinessOperational#enabled> 			"true" . 
<http://www.assero.co.uk/MDRSdtmUD/ACME/V1#D-ACME_PEDomain_V14_IGV1> 			<http://www.assero.co.uk/BusinessOperational#optional> 			"false" . 
<http://www.assero.co.uk/MDRSdtmUD/ACME/V1#D-ACME_PEDomain_V14_IGV1> 			<http://www.assero.co.uk/BusinessOperational#local_label> 			"" . 
<http://www.assero.co.uk/MDRSdtmUD/ACME/V1#D-ACME_PEDomain_V15> 			<http://www.w3.org/1999/02/22-rdf-syntax-ns#type> 			<http://www.assero.co.uk/BusinessDomain#UserVariable> . 
<http://www.assero.co.uk/MDRSdtmUD/ACME/V1#D-ACME_PEDomain_V15> 			<http://www.w3.org/2000/01/rdf-schema#label> 			"Character Result/Finding in Std Format" . 
<http://www.assero.co.uk/MDRSdtmUD/ACME/V1#D-ACME_PEDomain_V15> 			<http://www.assero.co.uk/BusinessDomain#basedOnVariable> 			<http://www.assero.co.uk/MDRSdtmUD/ACME/V1#D-ACME_PEDomain_V15_IGV1> . 
<http://www.assero.co.uk/MDRSdtmUD/ACME/V1#D-ACME_PEDomain_V15> 			<http://www.assero.co.uk/BusinessDomain#classifiedAs> 			<http://www.assero.co.uk/MDRSdtmM/CDISC/V2#M-CDISC_SDTMMODEL_SC_RESULTQUALIFIER> . 
<http://www.assero.co.uk/MDRSdtmUD/ACME/V1#D-ACME_PEDomain_V15> 			<http://www.assero.co.uk/BusinessDomain#typedAs> 			<http://www.assero.co.uk/MDRSdtmM/CDISC/V2#M-CDISC_SDTMMODEL_DT_CHAR> . 
<http://www.assero.co.uk/MDRSdtmUD/ACME/V1#D-ACME_PEDomain_V15> 			<http://www.assero.co.uk/BusinessDomain#compliance> 			<http://www.assero.co.uk/MDRSdtmIgD/CDISC/V2#IG-CDISC_SDTMIGPE_C_EXPECTED> . 
<http://www.assero.co.uk/MDRSdtmUD/ACME/V1#D-ACME_PEDomain_V15> 			<http://www.assero.co.uk/BusinessDomain#rule> 			"" . 
<http://www.assero.co.uk/MDRSdtmUD/ACME/V1#D-ACME_PEDomain_V15> 			<http://www.assero.co.uk/BusinessDomain#ordinal> 			"15" . 
<http://www.assero.co.uk/MDRSdtmUD/ACME/V1#D-ACME_PEDomain_V15> 			<http://www.assero.co.uk/BusinessDomain#name> 			"PESTRESC" . 
<http://www.assero.co.uk/MDRSdtmUD/ACME/V1#D-ACME_PEDomain_V15> 			<http://www.assero.co.uk/BusinessDomain#notes> 			"" . 
<http://www.assero.co.uk/MDRSdtmUD/ACME/V1#D-ACME_PEDomain_V15> 			<http://www.assero.co.uk/BusinessDomain#format> 			"" . 
<http://www.assero.co.uk/MDRSdtmUD/ACME/V1#D-ACME_PEDomain_V15> 			<http://www.assero.co.uk/BusinessDomain#ct> 			"" . 
<http://www.assero.co.uk/MDRSdtmUD/ACME/V1#D-ACME_PEDomain_V15> 			<http://www.assero.co.uk/BusinessDomain#length> 			"0" . 
<http://www.assero.co.uk/MDRSdtmUD/ACME/V1#D-ACME_PEDomain_V15> 			<http://www.assero.co.uk/BusinessDomain#comment> 			"" . 
<http://www.assero.co.uk/MDRSdtmUD/ACME/V1#D-ACME_PEDomain_V15> 			<http://www.assero.co.uk/BusinessDomain#non_standard> 			"false" . 
<http://www.assero.co.uk/MDRSdtmUD/ACME/V1#D-ACME_PEDomain_V15> 			<http://www.assero.co.uk/BusinessDomain#used> 			"true" . 
<http://www.assero.co.uk/MDRSdtmUD/ACME/V1#D-ACME_PEDomain_V15> 			<http://www.assero.co.uk/BusinessDomain#key_ordinal> 			"0" . 
<http://www.assero.co.uk/MDRSdtmUD/ACME/V1#D-ACME_PEDomain_V15_IGV1> 			<http://www.w3.org/1999/02/22-rdf-syntax-ns#type> 			<http://www.assero.co.uk/BusinessOperational#CReference> . 
<http://www.assero.co.uk/MDRSdtmUD/ACME/V1#D-ACME_PEDomain_V15_IGV1> 			<http://www.w3.org/2000/01/rdf-schema#label> 			"Based on Variable Reference" . 
<http://www.assero.co.uk/MDRSdtmUD/ACME/V1#D-ACME_PEDomain_V15_IGV1> 			<http://www.assero.co.uk/BusinessOperational#hasColumn> 			<http://www.assero.co.uk/MDRSdtmIgD/CDISC/V2#IG-CDISC_SDTMIGPE_PESTRESC> . 
<http://www.assero.co.uk/MDRSdtmUD/ACME/V1#D-ACME_PEDomain_V15_IGV1> 			<http://www.assero.co.uk/BusinessOperational#ordinal> 			"1" . 
<http://www.assero.co.uk/MDRSdtmUD/ACME/V1#D-ACME_PEDomain_V15_IGV1> 			<http://www.assero.co.uk/BusinessOperational#enabled> 			"true" . 
<http://www.assero.co.uk/MDRSdtmUD/ACME/V1#D-ACME_PEDomain_V15_IGV1> 			<http://www.assero.co.uk/BusinessOperational#optional> 			"false" . 
<http://www.assero.co.uk/MDRSdtmUD/ACME/V1#D-ACME_PEDomain_V15_IGV1> 			<http://www.assero.co.uk/BusinessOperational#local_label> 			"" . 
<http://www.assero.co.uk/MDRSdtmUD/ACME/V1#D-ACME_PEDomain_V16> 			<http://www.w3.org/1999/02/22-rdf-syntax-ns#type> 			<http://www.assero.co.uk/BusinessDomain#UserVariable> . 
<http://www.assero.co.uk/MDRSdtmUD/ACME/V1#D-ACME_PEDomain_V16> 			<http://www.w3.org/2000/01/rdf-schema#label> 			"Completion Status" . 
<http://www.assero.co.uk/MDRSdtmUD/ACME/V1#D-ACME_PEDomain_V16> 			<http://www.assero.co.uk/BusinessDomain#basedOnVariable> 			<http://www.assero.co.uk/MDRSdtmUD/ACME/V1#D-ACME_PEDomain_V16_IGV1> . 
<http://www.assero.co.uk/MDRSdtmUD/ACME/V1#D-ACME_PEDomain_V16> 			<http://www.assero.co.uk/BusinessDomain#classifiedAs> 			<http://www.assero.co.uk/MDRSdtmM/CDISC/V2#M-CDISC_SDTMMODEL_SC_RECORDQUALIFIER> . 
<http://www.assero.co.uk/MDRSdtmUD/ACME/V1#D-ACME_PEDomain_V16> 			<http://www.assero.co.uk/BusinessDomain#typedAs> 			<http://www.assero.co.uk/MDRSdtmM/CDISC/V2#M-CDISC_SDTMMODEL_DT_CHAR> . 
<http://www.assero.co.uk/MDRSdtmUD/ACME/V1#D-ACME_PEDomain_V16> 			<http://www.assero.co.uk/BusinessDomain#compliance> 			<http://www.assero.co.uk/MDRSdtmIgD/CDISC/V2#IG-CDISC_SDTMIGPE_C_PERMISSIBLE> . 
<http://www.assero.co.uk/MDRSdtmUD/ACME/V1#D-ACME_PEDomain_V16> 			<http://www.assero.co.uk/BusinessDomain#rule> 			"" . 
<http://www.assero.co.uk/MDRSdtmUD/ACME/V1#D-ACME_PEDomain_V16> 			<http://www.assero.co.uk/BusinessDomain#ordinal> 			"16" . 
<http://www.assero.co.uk/MDRSdtmUD/ACME/V1#D-ACME_PEDomain_V16> 			<http://www.assero.co.uk/BusinessDomain#name> 			"PESTAT" . 
<http://www.assero.co.uk/MDRSdtmUD/ACME/V1#D-ACME_PEDomain_V16> 			<http://www.assero.co.uk/BusinessDomain#notes> 			"" . 
<http://www.assero.co.uk/MDRSdtmUD/ACME/V1#D-ACME_PEDomain_V16> 			<http://www.assero.co.uk/BusinessDomain#format> 			"" . 
<http://www.assero.co.uk/MDRSdtmUD/ACME/V1#D-ACME_PEDomain_V16> 			<http://www.assero.co.uk/BusinessDomain#ct> 			"ND" . 
<http://www.assero.co.uk/MDRSdtmUD/ACME/V1#D-ACME_PEDomain_V16> 			<http://www.assero.co.uk/BusinessDomain#length> 			"0" . 
<http://www.assero.co.uk/MDRSdtmUD/ACME/V1#D-ACME_PEDomain_V16> 			<http://www.assero.co.uk/BusinessDomain#comment> 			"" . 
<http://www.assero.co.uk/MDRSdtmUD/ACME/V1#D-ACME_PEDomain_V16> 			<http://www.assero.co.uk/BusinessDomain#non_standard> 			"false" . 
<http://www.assero.co.uk/MDRSdtmUD/ACME/V1#D-ACME_PEDomain_V16> 			<http://www.assero.co.uk/BusinessDomain#used> 			"true" . 
<http://www.assero.co.uk/MDRSdtmUD/ACME/V1#D-ACME_PEDomain_V16> 			<http://www.assero.co.uk/BusinessDomain#key_ordinal> 			"0" . 
<http://www.assero.co.uk/MDRSdtmUD/ACME/V1#D-ACME_PEDomain_V16_IGV1> 			<http://www.w3.org/1999/02/22-rdf-syntax-ns#type> 			<http://www.assero.co.uk/BusinessOperational#CReference> . 
<http://www.assero.co.uk/MDRSdtmUD/ACME/V1#D-ACME_PEDomain_V16_IGV1> 			<http://www.w3.org/2000/01/rdf-schema#label> 			"Based on Variable Reference" . 
<http://www.assero.co.uk/MDRSdtmUD/ACME/V1#D-ACME_PEDomain_V16_IGV1> 			<http://www.assero.co.uk/BusinessOperational#hasColumn> 			<http://www.assero.co.uk/MDRSdtmIgD/CDISC/V2#IG-CDISC_SDTMIGPE_PESTAT> . 
<http://www.assero.co.uk/MDRSdtmUD/ACME/V1#D-ACME_PEDomain_V16_IGV1> 			<http://www.assero.co.uk/BusinessOperational#ordinal> 			"1" . 
<http://www.assero.co.uk/MDRSdtmUD/ACME/V1#D-ACME_PEDomain_V16_IGV1> 			<http://www.assero.co.uk/BusinessOperational#enabled> 			"true" . 
<http://www.assero.co.uk/MDRSdtmUD/ACME/V1#D-ACME_PEDomain_V16_IGV1> 			<http://www.assero.co.uk/BusinessOperational#optional> 			"false" . 
<http://www.assero.co.uk/MDRSdtmUD/ACME/V1#D-ACME_PEDomain_V16_IGV1> 			<http://www.assero.co.uk/BusinessOperational#local_label> 			"" . 
<http://www.assero.co.uk/MDRSdtmUD/ACME/V1#D-ACME_PEDomain_V17> 			<http://www.w3.org/1999/02/22-rdf-syntax-ns#type> 			<http://www.assero.co.uk/BusinessDomain#UserVariable> . 
<http://www.assero.co.uk/MDRSdtmUD/ACME/V1#D-ACME_PEDomain_V17> 			<http://www.w3.org/2000/01/rdf-schema#label> 			"Reason Not Examined" . 
<http://www.assero.co.uk/MDRSdtmUD/ACME/V1#D-ACME_PEDomain_V17> 			<http://www.assero.co.uk/BusinessDomain#basedOnVariable> 			<http://www.assero.co.uk/MDRSdtmUD/ACME/V1#D-ACME_PEDomain_V17_IGV1> . 
<http://www.assero.co.uk/MDRSdtmUD/ACME/V1#D-ACME_PEDomain_V17> 			<http://www.assero.co.uk/BusinessDomain#classifiedAs> 			<http://www.assero.co.uk/MDRSdtmM/CDISC/V2#M-CDISC_SDTMMODEL_SC_RECORDQUALIFIER> . 
<http://www.assero.co.uk/MDRSdtmUD/ACME/V1#D-ACME_PEDomain_V17> 			<http://www.assero.co.uk/BusinessDomain#typedAs> 			<http://www.assero.co.uk/MDRSdtmM/CDISC/V2#M-CDISC_SDTMMODEL_DT_CHAR> . 
<http://www.assero.co.uk/MDRSdtmUD/ACME/V1#D-ACME_PEDomain_V17> 			<http://www.assero.co.uk/BusinessDomain#compliance> 			<http://www.assero.co.uk/MDRSdtmIgD/CDISC/V2#IG-CDISC_SDTMIGPE_C_PERMISSIBLE> . 
<http://www.assero.co.uk/MDRSdtmUD/ACME/V1#D-ACME_PEDomain_V17> 			<http://www.assero.co.uk/BusinessDomain#rule> 			"" . 
<http://www.assero.co.uk/MDRSdtmUD/ACME/V1#D-ACME_PEDomain_V17> 			<http://www.assero.co.uk/BusinessDomain#ordinal> 			"17" . 
<http://www.assero.co.uk/MDRSdtmUD/ACME/V1#D-ACME_PEDomain_V17> 			<http://www.assero.co.uk/BusinessDomain#name> 			"PEREASND" . 
<http://www.assero.co.uk/MDRSdtmUD/ACME/V1#D-ACME_PEDomain_V17> 			<http://www.assero.co.uk/BusinessDomain#notes> 			"" . 
<http://www.assero.co.uk/MDRSdtmUD/ACME/V1#D-ACME_PEDomain_V17> 			<http://www.assero.co.uk/BusinessDomain#format> 			"" . 
<http://www.assero.co.uk/MDRSdtmUD/ACME/V1#D-ACME_PEDomain_V17> 			<http://www.assero.co.uk/BusinessDomain#ct> 			"" . 
<http://www.assero.co.uk/MDRSdtmUD/ACME/V1#D-ACME_PEDomain_V17> 			<http://www.assero.co.uk/BusinessDomain#length> 			"0" . 
<http://www.assero.co.uk/MDRSdtmUD/ACME/V1#D-ACME_PEDomain_V17> 			<http://www.assero.co.uk/BusinessDomain#comment> 			"" . 
<http://www.assero.co.uk/MDRSdtmUD/ACME/V1#D-ACME_PEDomain_V17> 			<http://www.assero.co.uk/BusinessDomain#non_standard> 			"false" . 
<http://www.assero.co.uk/MDRSdtmUD/ACME/V1#D-ACME_PEDomain_V17> 			<http://www.assero.co.uk/BusinessDomain#used> 			"true" . 
<http://www.assero.co.uk/MDRSdtmUD/ACME/V1#D-ACME_PEDomain_V17> 			<http://www.assero.co.uk/BusinessDomain#key_ordinal> 			"0" . 
<http://www.assero.co.uk/MDRSdtmUD/ACME/V1#D-ACME_PEDomain_V17_IGV1> 			<http://www.w3.org/1999/02/22-rdf-syntax-ns#type> 			<http://www.assero.co.uk/BusinessOperational#CReference> . 
<http://www.assero.co.uk/MDRSdtmUD/ACME/V1#D-ACME_PEDomain_V17_IGV1> 			<http://www.w3.org/2000/01/rdf-schema#label> 			"Based on Variable Reference" . 
<http://www.assero.co.uk/MDRSdtmUD/ACME/V1#D-ACME_PEDomain_V17_IGV1> 			<http://www.assero.co.uk/BusinessOperational#hasColumn> 			<http://www.assero.co.uk/MDRSdtmIgD/CDISC/V2#IG-CDISC_SDTMIGPE_PEREASND> . 
<http://www.assero.co.uk/MDRSdtmUD/ACME/V1#D-ACME_PEDomain_V17_IGV1> 			<http://www.assero.co.uk/BusinessOperational#ordinal> 			"1" . 
<http://www.assero.co.uk/MDRSdtmUD/ACME/V1#D-ACME_PEDomain_V17_IGV1> 			<http://www.assero.co.uk/BusinessOperational#enabled> 			"true" . 
<http://www.assero.co.uk/MDRSdtmUD/ACME/V1#D-ACME_PEDomain_V17_IGV1> 			<http://www.assero.co.uk/BusinessOperational#optional> 			"false" . 
<http://www.assero.co.uk/MDRSdtmUD/ACME/V1#D-ACME_PEDomain_V17_IGV1> 			<http://www.assero.co.uk/BusinessOperational#local_label> 			"" . 
<http://www.assero.co.uk/MDRSdtmUD/ACME/V1#D-ACME_PEDomain_V18> 			<http://www.w3.org/1999/02/22-rdf-syntax-ns#type> 			<http://www.assero.co.uk/BusinessDomain#UserVariable> . 
<http://www.assero.co.uk/MDRSdtmUD/ACME/V1#D-ACME_PEDomain_V18> 			<http://www.w3.org/2000/01/rdf-schema#label> 			"Location of Physical Exam Finding" . 
<http://www.assero.co.uk/MDRSdtmUD/ACME/V1#D-ACME_PEDomain_V18> 			<http://www.assero.co.uk/BusinessDomain#basedOnVariable> 			<http://www.assero.co.uk/MDRSdtmUD/ACME/V1#D-ACME_PEDomain_V18_IGV1> . 
<http://www.assero.co.uk/MDRSdtmUD/ACME/V1#D-ACME_PEDomain_V18> 			<http://www.assero.co.uk/BusinessDomain#classifiedAs> 			<http://www.assero.co.uk/MDRSdtmM/CDISC/V2#M-CDISC_SDTMMODEL_SC_RECORDQUALIFIER> . 
<http://www.assero.co.uk/MDRSdtmUD/ACME/V1#D-ACME_PEDomain_V18> 			<http://www.assero.co.uk/BusinessDomain#typedAs> 			<http://www.assero.co.uk/MDRSdtmM/CDISC/V2#M-CDISC_SDTMMODEL_DT_CHAR> . 
<http://www.assero.co.uk/MDRSdtmUD/ACME/V1#D-ACME_PEDomain_V18> 			<http://www.assero.co.uk/BusinessDomain#compliance> 			<http://www.assero.co.uk/MDRSdtmIgD/CDISC/V2#IG-CDISC_SDTMIGPE_C_PERMISSIBLE> . 
<http://www.assero.co.uk/MDRSdtmUD/ACME/V1#D-ACME_PEDomain_V18> 			<http://www.assero.co.uk/BusinessDomain#rule> 			"" . 
<http://www.assero.co.uk/MDRSdtmUD/ACME/V1#D-ACME_PEDomain_V18> 			<http://www.assero.co.uk/BusinessDomain#ordinal> 			"18" . 
<http://www.assero.co.uk/MDRSdtmUD/ACME/V1#D-ACME_PEDomain_V18> 			<http://www.assero.co.uk/BusinessDomain#name> 			"PELOC" . 
<http://www.assero.co.uk/MDRSdtmUD/ACME/V1#D-ACME_PEDomain_V18> 			<http://www.assero.co.uk/BusinessDomain#notes> 			"" . 
<http://www.assero.co.uk/MDRSdtmUD/ACME/V1#D-ACME_PEDomain_V18> 			<http://www.assero.co.uk/BusinessDomain#format> 			"" . 
<http://www.assero.co.uk/MDRSdtmUD/ACME/V1#D-ACME_PEDomain_V18> 			<http://www.assero.co.uk/BusinessDomain#ct> 			"LOC" . 
<http://www.assero.co.uk/MDRSdtmUD/ACME/V1#D-ACME_PEDomain_V18> 			<http://www.assero.co.uk/BusinessDomain#length> 			"0" . 
<http://www.assero.co.uk/MDRSdtmUD/ACME/V1#D-ACME_PEDomain_V18> 			<http://www.assero.co.uk/BusinessDomain#comment> 			"" . 
<http://www.assero.co.uk/MDRSdtmUD/ACME/V1#D-ACME_PEDomain_V18> 			<http://www.assero.co.uk/BusinessDomain#non_standard> 			"false" . 
<http://www.assero.co.uk/MDRSdtmUD/ACME/V1#D-ACME_PEDomain_V18> 			<http://www.assero.co.uk/BusinessDomain#used> 			"true" . 
<http://www.assero.co.uk/MDRSdtmUD/ACME/V1#D-ACME_PEDomain_V18> 			<http://www.assero.co.uk/BusinessDomain#key_ordinal> 			"0" . 
<http://www.assero.co.uk/MDRSdtmUD/ACME/V1#D-ACME_PEDomain_V18_IGV1> 			<http://www.w3.org/1999/02/22-rdf-syntax-ns#type> 			<http://www.assero.co.uk/BusinessOperational#CReference> . 
<http://www.assero.co.uk/MDRSdtmUD/ACME/V1#D-ACME_PEDomain_V18_IGV1> 			<http://www.w3.org/2000/01/rdf-schema#label> 			"Based on Variable Reference" . 
<http://www.assero.co.uk/MDRSdtmUD/ACME/V1#D-ACME_PEDomain_V18_IGV1> 			<http://www.assero.co.uk/BusinessOperational#hasColumn> 			<http://www.assero.co.uk/MDRSdtmIgD/CDISC/V2#IG-CDISC_SDTMIGPE_PELOC> . 
<http://www.assero.co.uk/MDRSdtmUD/ACME/V1#D-ACME_PEDomain_V18_IGV1> 			<http://www.assero.co.uk/BusinessOperational#ordinal> 			"1" . 
<http://www.assero.co.uk/MDRSdtmUD/ACME/V1#D-ACME_PEDomain_V18_IGV1> 			<http://www.assero.co.uk/BusinessOperational#enabled> 			"true" . 
<http://www.assero.co.uk/MDRSdtmUD/ACME/V1#D-ACME_PEDomain_V18_IGV1> 			<http://www.assero.co.uk/BusinessOperational#optional> 			"false" . 
<http://www.assero.co.uk/MDRSdtmUD/ACME/V1#D-ACME_PEDomain_V18_IGV1> 			<http://www.assero.co.uk/BusinessOperational#local_label> 			"" . 
<http://www.assero.co.uk/MDRSdtmUD/ACME/V1#D-ACME_PEDomain_V19> 			<http://www.w3.org/1999/02/22-rdf-syntax-ns#type> 			<http://www.assero.co.uk/BusinessDomain#UserVariable> . 
<http://www.assero.co.uk/MDRSdtmUD/ACME/V1#D-ACME_PEDomain_V19> 			<http://www.w3.org/2000/01/rdf-schema#label> 			"Method of Test or Examination" . 
<http://www.assero.co.uk/MDRSdtmUD/ACME/V1#D-ACME_PEDomain_V19> 			<http://www.assero.co.uk/BusinessDomain#basedOnVariable> 			<http://www.assero.co.uk/MDRSdtmUD/ACME/V1#D-ACME_PEDomain_V19_IGV1> . 
<http://www.assero.co.uk/MDRSdtmUD/ACME/V1#D-ACME_PEDomain_V19> 			<http://www.assero.co.uk/BusinessDomain#classifiedAs> 			<http://www.assero.co.uk/MDRSdtmM/CDISC/V2#M-CDISC_SDTMMODEL_SC_RECORDQUALIFIER> . 
<http://www.assero.co.uk/MDRSdtmUD/ACME/V1#D-ACME_PEDomain_V19> 			<http://www.assero.co.uk/BusinessDomain#typedAs> 			<http://www.assero.co.uk/MDRSdtmM/CDISC/V2#M-CDISC_SDTMMODEL_DT_CHAR> . 
<http://www.assero.co.uk/MDRSdtmUD/ACME/V1#D-ACME_PEDomain_V19> 			<http://www.assero.co.uk/BusinessDomain#compliance> 			<http://www.assero.co.uk/MDRSdtmIgD/CDISC/V2#IG-CDISC_SDTMIGPE_C_PERMISSIBLE> . 
<http://www.assero.co.uk/MDRSdtmUD/ACME/V1#D-ACME_PEDomain_V19> 			<http://www.assero.co.uk/BusinessDomain#rule> 			"" . 
<http://www.assero.co.uk/MDRSdtmUD/ACME/V1#D-ACME_PEDomain_V19> 			<http://www.assero.co.uk/BusinessDomain#ordinal> 			"19" . 
<http://www.assero.co.uk/MDRSdtmUD/ACME/V1#D-ACME_PEDomain_V19> 			<http://www.assero.co.uk/BusinessDomain#name> 			"PEMETHOD" . 
<http://www.assero.co.uk/MDRSdtmUD/ACME/V1#D-ACME_PEDomain_V19> 			<http://www.assero.co.uk/BusinessDomain#notes> 			"" . 
<http://www.assero.co.uk/MDRSdtmUD/ACME/V1#D-ACME_PEDomain_V19> 			<http://www.assero.co.uk/BusinessDomain#format> 			"" . 
<http://www.assero.co.uk/MDRSdtmUD/ACME/V1#D-ACME_PEDomain_V19> 			<http://www.assero.co.uk/BusinessDomain#ct> 			"" . 
<http://www.assero.co.uk/MDRSdtmUD/ACME/V1#D-ACME_PEDomain_V19> 			<http://www.assero.co.uk/BusinessDomain#length> 			"0" . 
<http://www.assero.co.uk/MDRSdtmUD/ACME/V1#D-ACME_PEDomain_V19> 			<http://www.assero.co.uk/BusinessDomain#comment> 			"" . 
<http://www.assero.co.uk/MDRSdtmUD/ACME/V1#D-ACME_PEDomain_V19> 			<http://www.assero.co.uk/BusinessDomain#non_standard> 			"false" . 
<http://www.assero.co.uk/MDRSdtmUD/ACME/V1#D-ACME_PEDomain_V19> 			<http://www.assero.co.uk/BusinessDomain#used> 			"true" . 
<http://www.assero.co.uk/MDRSdtmUD/ACME/V1#D-ACME_PEDomain_V19> 			<http://www.assero.co.uk/BusinessDomain#key_ordinal> 			"0" . 
<http://www.assero.co.uk/MDRSdtmUD/ACME/V1#D-ACME_PEDomain_V19_IGV1> 			<http://www.w3.org/1999/02/22-rdf-syntax-ns#type> 			<http://www.assero.co.uk/BusinessOperational#CReference> . 
<http://www.assero.co.uk/MDRSdtmUD/ACME/V1#D-ACME_PEDomain_V19_IGV1> 			<http://www.w3.org/2000/01/rdf-schema#label> 			"Based on Variable Reference" . 
<http://www.assero.co.uk/MDRSdtmUD/ACME/V1#D-ACME_PEDomain_V19_IGV1> 			<http://www.assero.co.uk/BusinessOperational#hasColumn> 			<http://www.assero.co.uk/MDRSdtmIgD/CDISC/V2#IG-CDISC_SDTMIGPE_PEMETHOD> . 
<http://www.assero.co.uk/MDRSdtmUD/ACME/V1#D-ACME_PEDomain_V19_IGV1> 			<http://www.assero.co.uk/BusinessOperational#ordinal> 			"1" . 
<http://www.assero.co.uk/MDRSdtmUD/ACME/V1#D-ACME_PEDomain_V19_IGV1> 			<http://www.assero.co.uk/BusinessOperational#enabled> 			"true" . 
<http://www.assero.co.uk/MDRSdtmUD/ACME/V1#D-ACME_PEDomain_V19_IGV1> 			<http://www.assero.co.uk/BusinessOperational#optional> 			"false" . 
<http://www.assero.co.uk/MDRSdtmUD/ACME/V1#D-ACME_PEDomain_V19_IGV1> 			<http://www.assero.co.uk/BusinessOperational#local_label> 			"" . 
<http://www.assero.co.uk/MDRSdtmUD/ACME/V1#D-ACME_PEDomain_V20> 			<http://www.w3.org/1999/02/22-rdf-syntax-ns#type> 			<http://www.assero.co.uk/BusinessDomain#UserVariable> . 
<http://www.assero.co.uk/MDRSdtmUD/ACME/V1#D-ACME_PEDomain_V20> 			<http://www.w3.org/2000/01/rdf-schema#label> 			"Evaluator" . 
<http://www.assero.co.uk/MDRSdtmUD/ACME/V1#D-ACME_PEDomain_V20> 			<http://www.assero.co.uk/BusinessDomain#basedOnVariable> 			<http://www.assero.co.uk/MDRSdtmUD/ACME/V1#D-ACME_PEDomain_V20_IGV1> . 
<http://www.assero.co.uk/MDRSdtmUD/ACME/V1#D-ACME_PEDomain_V20> 			<http://www.assero.co.uk/BusinessDomain#classifiedAs> 			<http://www.assero.co.uk/MDRSdtmM/CDISC/V2#M-CDISC_SDTMMODEL_SC_RECORDQUALIFIER> . 
<http://www.assero.co.uk/MDRSdtmUD/ACME/V1#D-ACME_PEDomain_V20> 			<http://www.assero.co.uk/BusinessDomain#typedAs> 			<http://www.assero.co.uk/MDRSdtmM/CDISC/V2#M-CDISC_SDTMMODEL_DT_CHAR> . 
<http://www.assero.co.uk/MDRSdtmUD/ACME/V1#D-ACME_PEDomain_V20> 			<http://www.assero.co.uk/BusinessDomain#compliance> 			<http://www.assero.co.uk/MDRSdtmIgD/CDISC/V2#IG-CDISC_SDTMIGPE_C_PERMISSIBLE> . 
<http://www.assero.co.uk/MDRSdtmUD/ACME/V1#D-ACME_PEDomain_V20> 			<http://www.assero.co.uk/BusinessDomain#rule> 			"" . 
<http://www.assero.co.uk/MDRSdtmUD/ACME/V1#D-ACME_PEDomain_V20> 			<http://www.assero.co.uk/BusinessDomain#ordinal> 			"20" . 
<http://www.assero.co.uk/MDRSdtmUD/ACME/V1#D-ACME_PEDomain_V20> 			<http://www.assero.co.uk/BusinessDomain#name> 			"PEEVAL" . 
<http://www.assero.co.uk/MDRSdtmUD/ACME/V1#D-ACME_PEDomain_V20> 			<http://www.assero.co.uk/BusinessDomain#notes> 			"" . 
<http://www.assero.co.uk/MDRSdtmUD/ACME/V1#D-ACME_PEDomain_V20> 			<http://www.assero.co.uk/BusinessDomain#format> 			"" . 
<http://www.assero.co.uk/MDRSdtmUD/ACME/V1#D-ACME_PEDomain_V20> 			<http://www.assero.co.uk/BusinessDomain#ct> 			"" . 
<http://www.assero.co.uk/MDRSdtmUD/ACME/V1#D-ACME_PEDomain_V20> 			<http://www.assero.co.uk/BusinessDomain#length> 			"0" . 
<http://www.assero.co.uk/MDRSdtmUD/ACME/V1#D-ACME_PEDomain_V20> 			<http://www.assero.co.uk/BusinessDomain#comment> 			"" . 
<http://www.assero.co.uk/MDRSdtmUD/ACME/V1#D-ACME_PEDomain_V20> 			<http://www.assero.co.uk/BusinessDomain#non_standard> 			"false" . 
<http://www.assero.co.uk/MDRSdtmUD/ACME/V1#D-ACME_PEDomain_V20> 			<http://www.assero.co.uk/BusinessDomain#used> 			"true" . 
<http://www.assero.co.uk/MDRSdtmUD/ACME/V1#D-ACME_PEDomain_V20> 			<http://www.assero.co.uk/BusinessDomain#key_ordinal> 			"0" . 
<http://www.assero.co.uk/MDRSdtmUD/ACME/V1#D-ACME_PEDomain_V20_IGV1> 			<http://www.w3.org/1999/02/22-rdf-syntax-ns#type> 			<http://www.assero.co.uk/BusinessOperational#CReference> . 
<http://www.assero.co.uk/MDRSdtmUD/ACME/V1#D-ACME_PEDomain_V20_IGV1> 			<http://www.w3.org/2000/01/rdf-schema#label> 			"Based on Variable Reference" . 
<http://www.assero.co.uk/MDRSdtmUD/ACME/V1#D-ACME_PEDomain_V20_IGV1> 			<http://www.assero.co.uk/BusinessOperational#hasColumn> 			<http://www.assero.co.uk/MDRSdtmIgD/CDISC/V2#IG-CDISC_SDTMIGPE_PEEVAL> . 
<http://www.assero.co.uk/MDRSdtmUD/ACME/V1#D-ACME_PEDomain_V20_IGV1> 			<http://www.assero.co.uk/BusinessOperational#ordinal> 			"1" . 
<http://www.assero.co.uk/MDRSdtmUD/ACME/V1#D-ACME_PEDomain_V20_IGV1> 			<http://www.assero.co.uk/BusinessOperational#enabled> 			"true" . 
<http://www.assero.co.uk/MDRSdtmUD/ACME/V1#D-ACME_PEDomain_V20_IGV1> 			<http://www.assero.co.uk/BusinessOperational#optional> 			"false" . 
<http://www.assero.co.uk/MDRSdtmUD/ACME/V1#D-ACME_PEDomain_V20_IGV1> 			<http://www.assero.co.uk/BusinessOperational#local_label> 			"" . 
<http://www.assero.co.uk/MDRSdtmUD/ACME/V1#D-ACME_PEDomain_V21> 			<http://www.w3.org/1999/02/22-rdf-syntax-ns#type> 			<http://www.assero.co.uk/BusinessDomain#UserVariable> . 
<http://www.assero.co.uk/MDRSdtmUD/ACME/V1#D-ACME_PEDomain_V21> 			<http://www.w3.org/2000/01/rdf-schema#label> 			"Visit Number" . 
<http://www.assero.co.uk/MDRSdtmUD/ACME/V1#D-ACME_PEDomain_V21> 			<http://www.assero.co.uk/BusinessDomain#basedOnVariable> 			<http://www.assero.co.uk/MDRSdtmUD/ACME/V1#D-ACME_PEDomain_V21_IGV1> . 
<http://www.assero.co.uk/MDRSdtmUD/ACME/V1#D-ACME_PEDomain_V21> 			<http://www.assero.co.uk/BusinessDomain#classifiedAs> 			<http://www.assero.co.uk/MDRSdtmM/CDISC/V2#M-CDISC_SDTMMODEL_C_TIMING> . 
<http://www.assero.co.uk/MDRSdtmUD/ACME/V1#D-ACME_PEDomain_V21> 			<http://www.assero.co.uk/BusinessDomain#typedAs> 			<http://www.assero.co.uk/MDRSdtmM/CDISC/V2#M-CDISC_SDTMMODEL_DT_NUM> . 
<http://www.assero.co.uk/MDRSdtmUD/ACME/V1#D-ACME_PEDomain_V21> 			<http://www.assero.co.uk/BusinessDomain#compliance> 			<http://www.assero.co.uk/MDRSdtmIgD/CDISC/V2#IG-CDISC_SDTMIGPE_C_EXPECTED> . 
<http://www.assero.co.uk/MDRSdtmUD/ACME/V1#D-ACME_PEDomain_V21> 			<http://www.assero.co.uk/BusinessDomain#rule> 			"" . 
<http://www.assero.co.uk/MDRSdtmUD/ACME/V1#D-ACME_PEDomain_V21> 			<http://www.assero.co.uk/BusinessDomain#ordinal> 			"21" . 
<http://www.assero.co.uk/MDRSdtmUD/ACME/V1#D-ACME_PEDomain_V21> 			<http://www.assero.co.uk/BusinessDomain#name> 			"VISITNUM" . 
<http://www.assero.co.uk/MDRSdtmUD/ACME/V1#D-ACME_PEDomain_V21> 			<http://www.assero.co.uk/BusinessDomain#notes> 			"" . 
<http://www.assero.co.uk/MDRSdtmUD/ACME/V1#D-ACME_PEDomain_V21> 			<http://www.assero.co.uk/BusinessDomain#format> 			"" . 
<http://www.assero.co.uk/MDRSdtmUD/ACME/V1#D-ACME_PEDomain_V21> 			<http://www.assero.co.uk/BusinessDomain#ct> 			"" . 
<http://www.assero.co.uk/MDRSdtmUD/ACME/V1#D-ACME_PEDomain_V21> 			<http://www.assero.co.uk/BusinessDomain#length> 			"0" . 
<http://www.assero.co.uk/MDRSdtmUD/ACME/V1#D-ACME_PEDomain_V21> 			<http://www.assero.co.uk/BusinessDomain#comment> 			"" . 
<http://www.assero.co.uk/MDRSdtmUD/ACME/V1#D-ACME_PEDomain_V21> 			<http://www.assero.co.uk/BusinessDomain#non_standard> 			"false" . 
<http://www.assero.co.uk/MDRSdtmUD/ACME/V1#D-ACME_PEDomain_V21> 			<http://www.assero.co.uk/BusinessDomain#used> 			"true" . 
<http://www.assero.co.uk/MDRSdtmUD/ACME/V1#D-ACME_PEDomain_V21> 			<http://www.assero.co.uk/BusinessDomain#key_ordinal> 			"0" . 
<http://www.assero.co.uk/MDRSdtmUD/ACME/V1#D-ACME_PEDomain_V21_IGV1> 			<http://www.w3.org/1999/02/22-rdf-syntax-ns#type> 			<http://www.assero.co.uk/BusinessOperational#CReference> . 
<http://www.assero.co.uk/MDRSdtmUD/ACME/V1#D-ACME_PEDomain_V21_IGV1> 			<http://www.w3.org/2000/01/rdf-schema#label> 			"Based on Variable Reference" . 
<http://www.assero.co.uk/MDRSdtmUD/ACME/V1#D-ACME_PEDomain_V21_IGV1> 			<http://www.assero.co.uk/BusinessOperational#hasColumn> 			<http://www.assero.co.uk/MDRSdtmIgD/CDISC/V2#IG-CDISC_SDTMIGPE_VISITNUM> . 
<http://www.assero.co.uk/MDRSdtmUD/ACME/V1#D-ACME_PEDomain_V21_IGV1> 			<http://www.assero.co.uk/BusinessOperational#ordinal> 			"1" . 
<http://www.assero.co.uk/MDRSdtmUD/ACME/V1#D-ACME_PEDomain_V21_IGV1> 			<http://www.assero.co.uk/BusinessOperational#enabled> 			"true" . 
<http://www.assero.co.uk/MDRSdtmUD/ACME/V1#D-ACME_PEDomain_V21_IGV1> 			<http://www.assero.co.uk/BusinessOperational#optional> 			"false" . 
<http://www.assero.co.uk/MDRSdtmUD/ACME/V1#D-ACME_PEDomain_V21_IGV1> 			<http://www.assero.co.uk/BusinessOperational#local_label> 			"" . 
<http://www.assero.co.uk/MDRSdtmUD/ACME/V1#D-ACME_PEDomain_V22> 			<http://www.w3.org/1999/02/22-rdf-syntax-ns#type> 			<http://www.assero.co.uk/BusinessDomain#UserVariable> . 
<http://www.assero.co.uk/MDRSdtmUD/ACME/V1#D-ACME_PEDomain_V22> 			<http://www.w3.org/2000/01/rdf-schema#label> 			"Visit Name" . 
<http://www.assero.co.uk/MDRSdtmUD/ACME/V1#D-ACME_PEDomain_V22> 			<http://www.assero.co.uk/BusinessDomain#basedOnVariable> 			<http://www.assero.co.uk/MDRSdtmUD/ACME/V1#D-ACME_PEDomain_V22_IGV1> . 
<http://www.assero.co.uk/MDRSdtmUD/ACME/V1#D-ACME_PEDomain_V22> 			<http://www.assero.co.uk/BusinessDomain#classifiedAs> 			<http://www.assero.co.uk/MDRSdtmM/CDISC/V2#M-CDISC_SDTMMODEL_C_TIMING> . 
<http://www.assero.co.uk/MDRSdtmUD/ACME/V1#D-ACME_PEDomain_V22> 			<http://www.assero.co.uk/BusinessDomain#typedAs> 			<http://www.assero.co.uk/MDRSdtmM/CDISC/V2#M-CDISC_SDTMMODEL_DT_CHAR> . 
<http://www.assero.co.uk/MDRSdtmUD/ACME/V1#D-ACME_PEDomain_V22> 			<http://www.assero.co.uk/BusinessDomain#compliance> 			<http://www.assero.co.uk/MDRSdtmIgD/CDISC/V2#IG-CDISC_SDTMIGPE_C_PERMISSIBLE> . 
<http://www.assero.co.uk/MDRSdtmUD/ACME/V1#D-ACME_PEDomain_V22> 			<http://www.assero.co.uk/BusinessDomain#rule> 			"" . 
<http://www.assero.co.uk/MDRSdtmUD/ACME/V1#D-ACME_PEDomain_V22> 			<http://www.assero.co.uk/BusinessDomain#ordinal> 			"22" . 
<http://www.assero.co.uk/MDRSdtmUD/ACME/V1#D-ACME_PEDomain_V22> 			<http://www.assero.co.uk/BusinessDomain#name> 			"VISIT" . 
<http://www.assero.co.uk/MDRSdtmUD/ACME/V1#D-ACME_PEDomain_V22> 			<http://www.assero.co.uk/BusinessDomain#notes> 			"" . 
<http://www.assero.co.uk/MDRSdtmUD/ACME/V1#D-ACME_PEDomain_V22> 			<http://www.assero.co.uk/BusinessDomain#format> 			"" . 
<http://www.assero.co.uk/MDRSdtmUD/ACME/V1#D-ACME_PEDomain_V22> 			<http://www.assero.co.uk/BusinessDomain#ct> 			"" . 
<http://www.assero.co.uk/MDRSdtmUD/ACME/V1#D-ACME_PEDomain_V22> 			<http://www.assero.co.uk/BusinessDomain#length> 			"0" . 
<http://www.assero.co.uk/MDRSdtmUD/ACME/V1#D-ACME_PEDomain_V22> 			<http://www.assero.co.uk/BusinessDomain#comment> 			"" . 
<http://www.assero.co.uk/MDRSdtmUD/ACME/V1#D-ACME_PEDomain_V22> 			<http://www.assero.co.uk/BusinessDomain#non_standard> 			"false" . 
<http://www.assero.co.uk/MDRSdtmUD/ACME/V1#D-ACME_PEDomain_V22> 			<http://www.assero.co.uk/BusinessDomain#used> 			"true" . 
<http://www.assero.co.uk/MDRSdtmUD/ACME/V1#D-ACME_PEDomain_V22> 			<http://www.assero.co.uk/BusinessDomain#key_ordinal> 			"0" . 
<http://www.assero.co.uk/MDRSdtmUD/ACME/V1#D-ACME_PEDomain_V22_IGV1> 			<http://www.w3.org/1999/02/22-rdf-syntax-ns#type> 			<http://www.assero.co.uk/BusinessOperational#CReference> . 
<http://www.assero.co.uk/MDRSdtmUD/ACME/V1#D-ACME_PEDomain_V22_IGV1> 			<http://www.w3.org/2000/01/rdf-schema#label> 			"Based on Variable Reference" . 
<http://www.assero.co.uk/MDRSdtmUD/ACME/V1#D-ACME_PEDomain_V22_IGV1> 			<http://www.assero.co.uk/BusinessOperational#hasColumn> 			<http://www.assero.co.uk/MDRSdtmIgD/CDISC/V2#IG-CDISC_SDTMIGPE_VISIT> . 
<http://www.assero.co.uk/MDRSdtmUD/ACME/V1#D-ACME_PEDomain_V22_IGV1> 			<http://www.assero.co.uk/BusinessOperational#ordinal> 			"1" . 
<http://www.assero.co.uk/MDRSdtmUD/ACME/V1#D-ACME_PEDomain_V22_IGV1> 			<http://www.assero.co.uk/BusinessOperational#enabled> 			"true" . 
<http://www.assero.co.uk/MDRSdtmUD/ACME/V1#D-ACME_PEDomain_V22_IGV1> 			<http://www.assero.co.uk/BusinessOperational#optional> 			"false" . 
<http://www.assero.co.uk/MDRSdtmUD/ACME/V1#D-ACME_PEDomain_V22_IGV1> 			<http://www.assero.co.uk/BusinessOperational#local_label> 			"" . 
<http://www.assero.co.uk/MDRSdtmUD/ACME/V1#D-ACME_PEDomain_V23> 			<http://www.w3.org/1999/02/22-rdf-syntax-ns#type> 			<http://www.assero.co.uk/BusinessDomain#UserVariable> . 
<http://www.assero.co.uk/MDRSdtmUD/ACME/V1#D-ACME_PEDomain_V23> 			<http://www.w3.org/2000/01/rdf-schema#label> 			"Planned Study Day of Visit" . 
<http://www.assero.co.uk/MDRSdtmUD/ACME/V1#D-ACME_PEDomain_V23> 			<http://www.assero.co.uk/BusinessDomain#basedOnVariable> 			<http://www.assero.co.uk/MDRSdtmUD/ACME/V1#D-ACME_PEDomain_V23_IGV1> . 
<http://www.assero.co.uk/MDRSdtmUD/ACME/V1#D-ACME_PEDomain_V23> 			<http://www.assero.co.uk/BusinessDomain#classifiedAs> 			<http://www.assero.co.uk/MDRSdtmM/CDISC/V2#M-CDISC_SDTMMODEL_C_TIMING> . 
<http://www.assero.co.uk/MDRSdtmUD/ACME/V1#D-ACME_PEDomain_V23> 			<http://www.assero.co.uk/BusinessDomain#typedAs> 			<http://www.assero.co.uk/MDRSdtmM/CDISC/V2#M-CDISC_SDTMMODEL_DT_NUM> . 
<http://www.assero.co.uk/MDRSdtmUD/ACME/V1#D-ACME_PEDomain_V23> 			<http://www.assero.co.uk/BusinessDomain#compliance> 			<http://www.assero.co.uk/MDRSdtmIgD/CDISC/V2#IG-CDISC_SDTMIGPE_C_PERMISSIBLE> . 
<http://www.assero.co.uk/MDRSdtmUD/ACME/V1#D-ACME_PEDomain_V23> 			<http://www.assero.co.uk/BusinessDomain#rule> 			"" . 
<http://www.assero.co.uk/MDRSdtmUD/ACME/V1#D-ACME_PEDomain_V23> 			<http://www.assero.co.uk/BusinessDomain#ordinal> 			"23" . 
<http://www.assero.co.uk/MDRSdtmUD/ACME/V1#D-ACME_PEDomain_V23> 			<http://www.assero.co.uk/BusinessDomain#name> 			"VISITDY" . 
<http://www.assero.co.uk/MDRSdtmUD/ACME/V1#D-ACME_PEDomain_V23> 			<http://www.assero.co.uk/BusinessDomain#notes> 			"" . 
<http://www.assero.co.uk/MDRSdtmUD/ACME/V1#D-ACME_PEDomain_V23> 			<http://www.assero.co.uk/BusinessDomain#format> 			"" . 
<http://www.assero.co.uk/MDRSdtmUD/ACME/V1#D-ACME_PEDomain_V23> 			<http://www.assero.co.uk/BusinessDomain#ct> 			"" . 
<http://www.assero.co.uk/MDRSdtmUD/ACME/V1#D-ACME_PEDomain_V23> 			<http://www.assero.co.uk/BusinessDomain#length> 			"0" . 
<http://www.assero.co.uk/MDRSdtmUD/ACME/V1#D-ACME_PEDomain_V23> 			<http://www.assero.co.uk/BusinessDomain#comment> 			"" . 
<http://www.assero.co.uk/MDRSdtmUD/ACME/V1#D-ACME_PEDomain_V23> 			<http://www.assero.co.uk/BusinessDomain#non_standard> 			"false" . 
<http://www.assero.co.uk/MDRSdtmUD/ACME/V1#D-ACME_PEDomain_V23> 			<http://www.assero.co.uk/BusinessDomain#used> 			"true" . 
<http://www.assero.co.uk/MDRSdtmUD/ACME/V1#D-ACME_PEDomain_V23> 			<http://www.assero.co.uk/BusinessDomain#key_ordinal> 			"0" . 
<http://www.assero.co.uk/MDRSdtmUD/ACME/V1#D-ACME_PEDomain_V23_IGV1> 			<http://www.w3.org/1999/02/22-rdf-syntax-ns#type> 			<http://www.assero.co.uk/BusinessOperational#CReference> . 
<http://www.assero.co.uk/MDRSdtmUD/ACME/V1#D-ACME_PEDomain_V23_IGV1> 			<http://www.w3.org/2000/01/rdf-schema#label> 			"Based on Variable Reference" . 
<http://www.assero.co.uk/MDRSdtmUD/ACME/V1#D-ACME_PEDomain_V23_IGV1> 			<http://www.assero.co.uk/BusinessOperational#hasColumn> 			<http://www.assero.co.uk/MDRSdtmIgD/CDISC/V2#IG-CDISC_SDTMIGPE_VISITDY> . 
<http://www.assero.co.uk/MDRSdtmUD/ACME/V1#D-ACME_PEDomain_V23_IGV1> 			<http://www.assero.co.uk/BusinessOperational#ordinal> 			"1" . 
<http://www.assero.co.uk/MDRSdtmUD/ACME/V1#D-ACME_PEDomain_V23_IGV1> 			<http://www.assero.co.uk/BusinessOperational#enabled> 			"true" . 
<http://www.assero.co.uk/MDRSdtmUD/ACME/V1#D-ACME_PEDomain_V23_IGV1> 			<http://www.assero.co.uk/BusinessOperational#optional> 			"false" . 
<http://www.assero.co.uk/MDRSdtmUD/ACME/V1#D-ACME_PEDomain_V23_IGV1> 			<http://www.assero.co.uk/BusinessOperational#local_label> 			"" . 
<http://www.assero.co.uk/MDRSdtmUD/ACME/V1#D-ACME_PEDomain_V24> 			<http://www.w3.org/1999/02/22-rdf-syntax-ns#type> 			<http://www.assero.co.uk/BusinessDomain#UserVariable> . 
<http://www.assero.co.uk/MDRSdtmUD/ACME/V1#D-ACME_PEDomain_V24> 			<http://www.w3.org/2000/01/rdf-schema#label> 			"Date/Time of Examination" . 
<http://www.assero.co.uk/MDRSdtmUD/ACME/V1#D-ACME_PEDomain_V24> 			<http://www.assero.co.uk/BusinessDomain#basedOnVariable> 			<http://www.assero.co.uk/MDRSdtmUD/ACME/V1#D-ACME_PEDomain_V24_IGV1> . 
<http://www.assero.co.uk/MDRSdtmUD/ACME/V1#D-ACME_PEDomain_V24> 			<http://www.assero.co.uk/BusinessDomain#classifiedAs> 			<http://www.assero.co.uk/MDRSdtmM/CDISC/V2#M-CDISC_SDTMMODEL_C_TIMING> . 
<http://www.assero.co.uk/MDRSdtmUD/ACME/V1#D-ACME_PEDomain_V24> 			<http://www.assero.co.uk/BusinessDomain#typedAs> 			<http://www.assero.co.uk/MDRSdtmM/CDISC/V2#M-CDISC_SDTMMODEL_DT_CHAR> . 
<http://www.assero.co.uk/MDRSdtmUD/ACME/V1#D-ACME_PEDomain_V24> 			<http://www.assero.co.uk/BusinessDomain#compliance> 			<http://www.assero.co.uk/MDRSdtmIgD/CDISC/V2#IG-CDISC_SDTMIGPE_C_EXPECTED> . 
<http://www.assero.co.uk/MDRSdtmUD/ACME/V1#D-ACME_PEDomain_V24> 			<http://www.assero.co.uk/BusinessDomain#rule> 			"" . 
<http://www.assero.co.uk/MDRSdtmUD/ACME/V1#D-ACME_PEDomain_V24> 			<http://www.assero.co.uk/BusinessDomain#ordinal> 			"24" . 
<http://www.assero.co.uk/MDRSdtmUD/ACME/V1#D-ACME_PEDomain_V24> 			<http://www.assero.co.uk/BusinessDomain#name> 			"PEDTC" . 
<http://www.assero.co.uk/MDRSdtmUD/ACME/V1#D-ACME_PEDomain_V24> 			<http://www.assero.co.uk/BusinessDomain#notes> 			"" . 
<http://www.assero.co.uk/MDRSdtmUD/ACME/V1#D-ACME_PEDomain_V24> 			<http://www.assero.co.uk/BusinessDomain#format> 			"ISO 8601" . 
<http://www.assero.co.uk/MDRSdtmUD/ACME/V1#D-ACME_PEDomain_V24> 			<http://www.assero.co.uk/BusinessDomain#ct> 			"" . 
<http://www.assero.co.uk/MDRSdtmUD/ACME/V1#D-ACME_PEDomain_V24> 			<http://www.assero.co.uk/BusinessDomain#length> 			"0" . 
<http://www.assero.co.uk/MDRSdtmUD/ACME/V1#D-ACME_PEDomain_V24> 			<http://www.assero.co.uk/BusinessDomain#comment> 			"" . 
<http://www.assero.co.uk/MDRSdtmUD/ACME/V1#D-ACME_PEDomain_V24> 			<http://www.assero.co.uk/BusinessDomain#non_standard> 			"false" . 
<http://www.assero.co.uk/MDRSdtmUD/ACME/V1#D-ACME_PEDomain_V24> 			<http://www.assero.co.uk/BusinessDomain#used> 			"true" . 
<http://www.assero.co.uk/MDRSdtmUD/ACME/V1#D-ACME_PEDomain_V24> 			<http://www.assero.co.uk/BusinessDomain#key_ordinal> 			"0" . 
<http://www.assero.co.uk/MDRSdtmUD/ACME/V1#D-ACME_PEDomain_V24_IGV1> 			<http://www.w3.org/1999/02/22-rdf-syntax-ns#type> 			<http://www.assero.co.uk/BusinessOperational#CReference> . 
<http://www.assero.co.uk/MDRSdtmUD/ACME/V1#D-ACME_PEDomain_V24_IGV1> 			<http://www.w3.org/2000/01/rdf-schema#label> 			"Based on Variable Reference" . 
<http://www.assero.co.uk/MDRSdtmUD/ACME/V1#D-ACME_PEDomain_V24_IGV1> 			<http://www.assero.co.uk/BusinessOperational#hasColumn> 			<http://www.assero.co.uk/MDRSdtmIgD/CDISC/V2#IG-CDISC_SDTMIGPE_PEDTC> . 
<http://www.assero.co.uk/MDRSdtmUD/ACME/V1#D-ACME_PEDomain_V24_IGV1> 			<http://www.assero.co.uk/BusinessOperational#ordinal> 			"1" . 
<http://www.assero.co.uk/MDRSdtmUD/ACME/V1#D-ACME_PEDomain_V24_IGV1> 			<http://www.assero.co.uk/BusinessOperational#enabled> 			"true" . 
<http://www.assero.co.uk/MDRSdtmUD/ACME/V1#D-ACME_PEDomain_V24_IGV1> 			<http://www.assero.co.uk/BusinessOperational#optional> 			"false" . 
<http://www.assero.co.uk/MDRSdtmUD/ACME/V1#D-ACME_PEDomain_V24_IGV1> 			<http://www.assero.co.uk/BusinessOperational#local_label> 			"" . 
<http://www.assero.co.uk/MDRSdtmUD/ACME/V1#D-ACME_PEDomain_V25> 			<http://www.w3.org/1999/02/22-rdf-syntax-ns#type> 			<http://www.assero.co.uk/BusinessDomain#UserVariable> . 
<http://www.assero.co.uk/MDRSdtmUD/ACME/V1#D-ACME_PEDomain_V25> 			<http://www.w3.org/2000/01/rdf-schema#label> 			"Study Day of Examination" . 
<http://www.assero.co.uk/MDRSdtmUD/ACME/V1#D-ACME_PEDomain_V25> 			<http://www.assero.co.uk/BusinessDomain#basedOnVariable> 			<http://www.assero.co.uk/MDRSdtmUD/ACME/V1#D-ACME_PEDomain_V25_IGV1> . 
<http://www.assero.co.uk/MDRSdtmUD/ACME/V1#D-ACME_PEDomain_V25> 			<http://www.assero.co.uk/BusinessDomain#classifiedAs> 			<http://www.assero.co.uk/MDRSdtmM/CDISC/V2#M-CDISC_SDTMMODEL_C_TIMING> . 
<http://www.assero.co.uk/MDRSdtmUD/ACME/V1#D-ACME_PEDomain_V25> 			<http://www.assero.co.uk/BusinessDomain#typedAs> 			<http://www.assero.co.uk/MDRSdtmM/CDISC/V2#M-CDISC_SDTMMODEL_DT_NUM> . 
<http://www.assero.co.uk/MDRSdtmUD/ACME/V1#D-ACME_PEDomain_V25> 			<http://www.assero.co.uk/BusinessDomain#compliance> 			<http://www.assero.co.uk/MDRSdtmIgD/CDISC/V2#IG-CDISC_SDTMIGPE_C_PERMISSIBLE> . 
<http://www.assero.co.uk/MDRSdtmUD/ACME/V1#D-ACME_PEDomain_V25> 			<http://www.assero.co.uk/BusinessDomain#rule> 			"" . 
<http://www.assero.co.uk/MDRSdtmUD/ACME/V1#D-ACME_PEDomain_V25> 			<http://www.assero.co.uk/BusinessDomain#ordinal> 			"25" . 
<http://www.assero.co.uk/MDRSdtmUD/ACME/V1#D-ACME_PEDomain_V25> 			<http://www.assero.co.uk/BusinessDomain#name> 			"PEDY" . 
<http://www.assero.co.uk/MDRSdtmUD/ACME/V1#D-ACME_PEDomain_V25> 			<http://www.assero.co.uk/BusinessDomain#notes> 			"" . 
<http://www.assero.co.uk/MDRSdtmUD/ACME/V1#D-ACME_PEDomain_V25> 			<http://www.assero.co.uk/BusinessDomain#format> 			"" . 
<http://www.assero.co.uk/MDRSdtmUD/ACME/V1#D-ACME_PEDomain_V25> 			<http://www.assero.co.uk/BusinessDomain#ct> 			"" . 
<http://www.assero.co.uk/MDRSdtmUD/ACME/V1#D-ACME_PEDomain_V25> 			<http://www.assero.co.uk/BusinessDomain#length> 			"0" . 
<http://www.assero.co.uk/MDRSdtmUD/ACME/V1#D-ACME_PEDomain_V25> 			<http://www.assero.co.uk/BusinessDomain#comment> 			"" . 
<http://www.assero.co.uk/MDRSdtmUD/ACME/V1#D-ACME_PEDomain_V25> 			<http://www.assero.co.uk/BusinessDomain#non_standard> 			"false" . 
<http://www.assero.co.uk/MDRSdtmUD/ACME/V1#D-ACME_PEDomain_V25> 			<http://www.assero.co.uk/BusinessDomain#used> 			"true" . 
<http://www.assero.co.uk/MDRSdtmUD/ACME/V1#D-ACME_PEDomain_V25> 			<http://www.assero.co.uk/BusinessDomain#key_ordinal> 			"0" . 
<http://www.assero.co.uk/MDRSdtmUD/ACME/V1#D-ACME_PEDomain_V25_IGV1> 			<http://www.w3.org/1999/02/22-rdf-syntax-ns#type> 			<http://www.assero.co.uk/BusinessOperational#CReference> . 
<http://www.assero.co.uk/MDRSdtmUD/ACME/V1#D-ACME_PEDomain_V25_IGV1> 			<http://www.w3.org/2000/01/rdf-schema#label> 			"Based on Variable Reference" . 
<http://www.assero.co.uk/MDRSdtmUD/ACME/V1#D-ACME_PEDomain_V25_IGV1> 			<http://www.assero.co.uk/BusinessOperational#hasColumn> 			<http://www.assero.co.uk/MDRSdtmIgD/CDISC/V2#IG-CDISC_SDTMIGPE_PEDY> . 
<http://www.assero.co.uk/MDRSdtmUD/ACME/V1#D-ACME_PEDomain_V25_IGV1> 			<http://www.assero.co.uk/BusinessOperational#ordinal> 			"1" . 
<http://www.assero.co.uk/MDRSdtmUD/ACME/V1#D-ACME_PEDomain_V25_IGV1> 			<http://www.assero.co.uk/BusinessOperational#enabled> 			"true" . 
<http://www.assero.co.uk/MDRSdtmUD/ACME/V1#D-ACME_PEDomain_V25_IGV1> 			<http://www.assero.co.uk/BusinessOperational#optional> 			"false" . 
<http://www.assero.co.uk/MDRSdtmUD/ACME/V1#D-ACME_PEDomain_V25_IGV1> 			<http://www.assero.co.uk/BusinessOperational#local_label> 			"" . 
<http://www.assero.co.uk/MDRSdtmUD/ACME/V1#D-ACME_PEDomain_IGD1> 			<http://www.w3.org/1999/02/22-rdf-syntax-ns#type> 			<http://www.assero.co.uk/BusinessOperational#TReference> . 
<http://www.assero.co.uk/MDRSdtmUD/ACME/V1#D-ACME_PEDomain_IGD1> 			<http://www.w3.org/2000/01/rdf-schema#label> 			"Based on Domain Reference" . 
<http://www.assero.co.uk/MDRSdtmUD/ACME/V1#D-ACME_PEDomain_IGD1> 			<http://www.assero.co.uk/BusinessOperational#hasTabulation> 			<http://www.assero.co.uk/MDRSdtmIgD/CDISC/V2#IG-CDISC_SDTMIGPE> . 
<http://www.assero.co.uk/MDRSdtmUD/ACME/V1#D-ACME_PEDomain_IGD1> 			<http://www.assero.co.uk/BusinessOperational#ordinal> 			"1" . 
<http://www.assero.co.uk/MDRSdtmUD/ACME/V1#D-ACME_PEDomain_IGD1> 			<http://www.assero.co.uk/BusinessOperational#enabled> 			"true" . 
<http://www.assero.co.uk/MDRSdtmUD/ACME/V1#D-ACME_PEDomain_IGD1> 			<http://www.assero.co.uk/BusinessOperational#optional> 			"false" . 
<http://www.assero.co.uk/MDRSdtmUD/ACME/V1#D-ACME_PEDomain_IGD1> 			<http://www.assero.co.uk/BusinessOperational#local_label> 			"" . 
<http://www.assero.co.uk/MDRSdtmUD/ACME/V1#D-ACME_PEDomain_MD1> 			<http://www.w3.org/1999/02/22-rdf-syntax-ns#type> 			<http://www.assero.co.uk/BusinessOperational#TReference> . 
<http://www.assero.co.uk/MDRSdtmUD/ACME/V1#D-ACME_PEDomain_MD1> 			<http://www.w3.org/2000/01/rdf-schema#label> 			"Based on Domain Reference" . 
<http://www.assero.co.uk/MDRSdtmUD/ACME/V1#D-ACME_PEDomain_MD1> 			<http://www.assero.co.uk/BusinessOperational#hasTabulation> 			<http://www.assero.co.uk/MDRSdtmMd/CDISC/V2#M-CDISC_SDTMMODEL_FINDINGS> . 
<http://www.assero.co.uk/MDRSdtmUD/ACME/V1#D-ACME_PEDomain_MD1> 			<http://www.assero.co.uk/BusinessOperational#ordinal> 			"1" . 
<http://www.assero.co.uk/MDRSdtmUD/ACME/V1#D-ACME_PEDomain_MD1> 			<http://www.assero.co.uk/BusinessOperational#enabled> 			"true" . 
<http://www.assero.co.uk/MDRSdtmUD/ACME/V1#D-ACME_PEDomain_MD1> 			<http://www.assero.co.uk/BusinessOperational#optional> 			"false" . 
<http://www.assero.co.uk/MDRSdtmUD/ACME/V1#D-ACME_PEDomain_MD1> 			<http://www.assero.co.uk/BusinessOperational#local_label> 			"" . 
<http://www.assero.co.uk/MDRItems#SI-ACME_PEDomain-1> 			<http://www.w3.org/1999/02/22-rdf-syntax-ns#type> 			<http://www.assero.co.uk/ISO11179Identification#ScopedIdentifier> . 
<http://www.assero.co.uk/MDRItems#SI-ACME_PEDomain-1> 			<http://www.assero.co.uk/ISO11179Identification#hasScope> 			<http://www.assero.co.uk/MDRItems#NS-ACME> . 
<http://www.assero.co.uk/MDRItems#SI-ACME_PEDomain-1> 			<http://www.assero.co.uk/ISO11179Identification#identifier> 			"PE Domain" . 
<http://www.assero.co.uk/MDRItems#SI-ACME_PEDomain-1> 			<http://www.assero.co.uk/ISO11179Identification#version> 			"1" . 
<http://www.assero.co.uk/MDRItems#SI-ACME_PEDomain-1> 			<http://www.assero.co.uk/ISO11179Identification#semantic_version> 			"0.1.0" . 
<http://www.assero.co.uk/MDRItems#SI-ACME_PEDomain-1> 			<http://www.assero.co.uk/ISO11179Identification#versionLabel> 			"" . 
<http://www.assero.co.uk/MDRItems#RS-ACME_PEDomain-1> 			<http://www.w3.org/1999/02/22-rdf-syntax-ns#type> 			<http://www.assero.co.uk/ISO11179Registration#RegistrationState> . 
<http://www.assero.co.uk/MDRItems#RS-ACME_PEDomain-1> 			<http://www.assero.co.uk/ISO11179Registration#byAuthority> 			<http://www.assero.co.uk/MDRItems#RA-123456789> . 
<http://www.assero.co.uk/MDRItems#RS-ACME_PEDomain-1> 			<http://www.assero.co.uk/ISO11179Registration#registrationStatus> 			"Incomplete" . 
<http://www.assero.co.uk/MDRItems#RS-ACME_PEDomain-1> 			<http://www.assero.co.uk/ISO11179Registration#effectiveDate> 			"2016-01-01T00:00:00+00:00" . 
<http://www.assero.co.uk/MDRItems#RS-ACME_PEDomain-1> 			<http://www.assero.co.uk/ISO11179Registration#untilDate> 			"2016-01-01T00:00:00+00:00" . 
<http://www.assero.co.uk/MDRItems#RS-ACME_PEDomain-1> 			<http://www.assero.co.uk/ISO11179Registration#administrativeNote> 			"" . 
<http://www.assero.co.uk/MDRItems#RS-ACME_PEDomain-1> 			<http://www.assero.co.uk/ISO11179Registration#unresolvedIssue> 			"" . 
<http://www.assero.co.uk/MDRItems#RS-ACME_PEDomain-1> 			<http://www.assero.co.uk/ISO11179Registration#administrativeStatus> 			"" . 
<http://www.assero.co.uk/MDRItems#RS-ACME_PEDomain-1> 			<http://www.assero.co.uk/ISO11179Registration#previousState> 			"Incomplete" . 
