<http://www.assero.co.uk/MDRSdtmUD/ACME/V1#D-ACME_DSDomain> 			<http://www.w3.org/1999/02/22-rdf-syntax-ns#type> 			<http://www.assero.co.uk/BusinessDomain#UserDomain> . 
<http://www.assero.co.uk/MDRSdtmUD/ACME/V1#D-ACME_DSDomain> 			<http://www.w3.org/2000/01/rdf-schema#label> 			"Disposition" . 
<http://www.assero.co.uk/MDRSdtmUD/ACME/V1#D-ACME_DSDomain> 			<http://www.assero.co.uk/ISO11179Types#creationDate> 			"2017-12-14T19:43:36+00:00" . 
<http://www.assero.co.uk/MDRSdtmUD/ACME/V1#D-ACME_DSDomain> 			<http://www.assero.co.uk/ISO11179Types#lastChangeDate> 			"2017-12-14T19:43:36+00:00" . 
<http://www.assero.co.uk/MDRSdtmUD/ACME/V1#D-ACME_DSDomain> 			<http://www.assero.co.uk/ISO11179Types#changeDescription> 			"" . 
<http://www.assero.co.uk/MDRSdtmUD/ACME/V1#D-ACME_DSDomain> 			<http://www.assero.co.uk/ISO11179Types#explanatoryComment> 			"" . 
<http://www.assero.co.uk/MDRSdtmUD/ACME/V1#D-ACME_DSDomain> 			<http://www.assero.co.uk/ISO11179Types#origin> 			"" . 
<http://www.assero.co.uk/MDRSdtmUD/ACME/V1#D-ACME_DSDomain> 			<http://www.assero.co.uk/ISO11179Types#hasIdentifier> 			<http://www.assero.co.uk/MDRItems#SI-ACME_DSDomain-1> . 
<http://www.assero.co.uk/MDRSdtmUD/ACME/V1#D-ACME_DSDomain> 			<http://www.assero.co.uk/ISO11179Types#hasState> 			<http://www.assero.co.uk/MDRItems#RS-ACME_DSDomain-1> . 
<http://www.assero.co.uk/MDRSdtmUD/ACME/V1#D-ACME_DSDomain> 			<http://www.assero.co.uk/BusinessDomain#includesColumn> 			<http://www.assero.co.uk/MDRSdtmUD/ACME/V1#D-ACME_DSDomain_V1> . 
<http://www.assero.co.uk/MDRSdtmUD/ACME/V1#D-ACME_DSDomain> 			<http://www.assero.co.uk/BusinessDomain#includesColumn> 			<http://www.assero.co.uk/MDRSdtmUD/ACME/V1#D-ACME_DSDomain_V2> . 
<http://www.assero.co.uk/MDRSdtmUD/ACME/V1#D-ACME_DSDomain> 			<http://www.assero.co.uk/BusinessDomain#includesColumn> 			<http://www.assero.co.uk/MDRSdtmUD/ACME/V1#D-ACME_DSDomain_V3> . 
<http://www.assero.co.uk/MDRSdtmUD/ACME/V1#D-ACME_DSDomain> 			<http://www.assero.co.uk/BusinessDomain#includesColumn> 			<http://www.assero.co.uk/MDRSdtmUD/ACME/V1#D-ACME_DSDomain_V4> . 
<http://www.assero.co.uk/MDRSdtmUD/ACME/V1#D-ACME_DSDomain> 			<http://www.assero.co.uk/BusinessDomain#includesColumn> 			<http://www.assero.co.uk/MDRSdtmUD/ACME/V1#D-ACME_DSDomain_V5> . 
<http://www.assero.co.uk/MDRSdtmUD/ACME/V1#D-ACME_DSDomain> 			<http://www.assero.co.uk/BusinessDomain#includesColumn> 			<http://www.assero.co.uk/MDRSdtmUD/ACME/V1#D-ACME_DSDomain_V6> . 
<http://www.assero.co.uk/MDRSdtmUD/ACME/V1#D-ACME_DSDomain> 			<http://www.assero.co.uk/BusinessDomain#includesColumn> 			<http://www.assero.co.uk/MDRSdtmUD/ACME/V1#D-ACME_DSDomain_V7> . 
<http://www.assero.co.uk/MDRSdtmUD/ACME/V1#D-ACME_DSDomain> 			<http://www.assero.co.uk/BusinessDomain#includesColumn> 			<http://www.assero.co.uk/MDRSdtmUD/ACME/V1#D-ACME_DSDomain_V8> . 
<http://www.assero.co.uk/MDRSdtmUD/ACME/V1#D-ACME_DSDomain> 			<http://www.assero.co.uk/BusinessDomain#includesColumn> 			<http://www.assero.co.uk/MDRSdtmUD/ACME/V1#D-ACME_DSDomain_V9> . 
<http://www.assero.co.uk/MDRSdtmUD/ACME/V1#D-ACME_DSDomain> 			<http://www.assero.co.uk/BusinessDomain#includesColumn> 			<http://www.assero.co.uk/MDRSdtmUD/ACME/V1#D-ACME_DSDomain_V10> . 
<http://www.assero.co.uk/MDRSdtmUD/ACME/V1#D-ACME_DSDomain> 			<http://www.assero.co.uk/BusinessDomain#includesColumn> 			<http://www.assero.co.uk/MDRSdtmUD/ACME/V1#D-ACME_DSDomain_V11> . 
<http://www.assero.co.uk/MDRSdtmUD/ACME/V1#D-ACME_DSDomain> 			<http://www.assero.co.uk/BusinessDomain#includesColumn> 			<http://www.assero.co.uk/MDRSdtmUD/ACME/V1#D-ACME_DSDomain_V12> . 
<http://www.assero.co.uk/MDRSdtmUD/ACME/V1#D-ACME_DSDomain> 			<http://www.assero.co.uk/BusinessDomain#includesColumn> 			<http://www.assero.co.uk/MDRSdtmUD/ACME/V1#D-ACME_DSDomain_V13> . 
<http://www.assero.co.uk/MDRSdtmUD/ACME/V1#D-ACME_DSDomain> 			<http://www.assero.co.uk/BusinessDomain#includesColumn> 			<http://www.assero.co.uk/MDRSdtmUD/ACME/V1#D-ACME_DSDomain_V14> . 
<http://www.assero.co.uk/MDRSdtmUD/ACME/V1#D-ACME_DSDomain> 			<http://www.assero.co.uk/BusinessDomain#includesColumn> 			<http://www.assero.co.uk/MDRSdtmUD/ACME/V1#D-ACME_DSDomain_V15> . 
<http://www.assero.co.uk/MDRSdtmUD/ACME/V1#D-ACME_DSDomain> 			<http://www.assero.co.uk/BusinessDomain#basedOnDomain> 			<http://www.assero.co.uk/MDRSdtmUD/ACME/V1#D-ACME_DSDomain_IGD1> . 
<http://www.assero.co.uk/MDRSdtmUD/ACME/V1#D-ACME_DSDomain> 			<http://www.assero.co.uk/BusinessDomain#basedOnDomain> 			<http://www.assero.co.uk/MDRSdtmUD/ACME/V1#D-ACME_DSDomain_MD1> . 
<http://www.assero.co.uk/MDRSdtmUD/ACME/V1#D-ACME_DSDomain> 			<http://www.assero.co.uk/BusinessDomain#rule> 			"" . 
<http://www.assero.co.uk/MDRSdtmUD/ACME/V1#D-ACME_DSDomain> 			<http://www.assero.co.uk/BusinessDomain#ordinal> 			"1" . 
<http://www.assero.co.uk/MDRSdtmUD/ACME/V1#D-ACME_DSDomain> 			<http://www.assero.co.uk/BusinessDomain#notes> 			"" . 
<http://www.assero.co.uk/MDRSdtmUD/ACME/V1#D-ACME_DSDomain> 			<http://www.assero.co.uk/BusinessDomain#prefix> 			"DS" . 
<http://www.assero.co.uk/MDRSdtmUD/ACME/V1#D-ACME_DSDomain> 			<http://www.assero.co.uk/BusinessDomain#structure> 			"" . 
<http://www.assero.co.uk/MDRSdtmUD/ACME/V1#D-ACME_DSDomain_V1> 			<http://www.w3.org/1999/02/22-rdf-syntax-ns#type> 			<http://www.assero.co.uk/BusinessDomain#UserVariable> . 
<http://www.assero.co.uk/MDRSdtmUD/ACME/V1#D-ACME_DSDomain_V1> 			<http://www.w3.org/2000/01/rdf-schema#label> 			"Study Identifier" . 
<http://www.assero.co.uk/MDRSdtmUD/ACME/V1#D-ACME_DSDomain_V1> 			<http://www.assero.co.uk/BusinessDomain#basedOnVariable> 			<http://www.assero.co.uk/MDRSdtmUD/ACME/V1#D-ACME_DSDomain_V1_IGV1> . 
<http://www.assero.co.uk/MDRSdtmUD/ACME/V1#D-ACME_DSDomain_V1> 			<http://www.assero.co.uk/BusinessDomain#classifiedAs> 			<http://www.assero.co.uk/MDRSdtmM/CDISC/V3#M-CDISC_SDTMMODEL_C_IDENTIFIER> . 
<http://www.assero.co.uk/MDRSdtmUD/ACME/V1#D-ACME_DSDomain_V1> 			<http://www.assero.co.uk/BusinessDomain#typedAs> 			<http://www.assero.co.uk/MDRSdtmM/CDISC/V3#M-CDISC_SDTMMODEL_DT_CHAR> . 
<http://www.assero.co.uk/MDRSdtmUD/ACME/V1#D-ACME_DSDomain_V1> 			<http://www.assero.co.uk/BusinessDomain#compliance> 			<http://www.assero.co.uk/MDRSdtmIg/CDISC/V3#IG-CDISC_SDTMIG_C_REQUIRED> . 
<http://www.assero.co.uk/MDRSdtmUD/ACME/V1#D-ACME_DSDomain_V1> 			<http://www.assero.co.uk/BusinessDomain#rule> 			"" . 
<http://www.assero.co.uk/MDRSdtmUD/ACME/V1#D-ACME_DSDomain_V1> 			<http://www.assero.co.uk/BusinessDomain#ordinal> 			"1" . 
<http://www.assero.co.uk/MDRSdtmUD/ACME/V1#D-ACME_DSDomain_V1> 			<http://www.assero.co.uk/BusinessDomain#name> 			"STUDYID" . 
<http://www.assero.co.uk/MDRSdtmUD/ACME/V1#D-ACME_DSDomain_V1> 			<http://www.assero.co.uk/BusinessDomain#notes> 			"" . 
<http://www.assero.co.uk/MDRSdtmUD/ACME/V1#D-ACME_DSDomain_V1> 			<http://www.assero.co.uk/BusinessDomain#format> 			"" . 
<http://www.assero.co.uk/MDRSdtmUD/ACME/V1#D-ACME_DSDomain_V1> 			<http://www.assero.co.uk/BusinessDomain#ct> 			"" . 
<http://www.assero.co.uk/MDRSdtmUD/ACME/V1#D-ACME_DSDomain_V1> 			<http://www.assero.co.uk/BusinessDomain#length> 			"0" . 
<http://www.assero.co.uk/MDRSdtmUD/ACME/V1#D-ACME_DSDomain_V1> 			<http://www.assero.co.uk/BusinessDomain#comment> 			"" . 
<http://www.assero.co.uk/MDRSdtmUD/ACME/V1#D-ACME_DSDomain_V1> 			<http://www.assero.co.uk/BusinessDomain#non_standard> 			"false" . 
<http://www.assero.co.uk/MDRSdtmUD/ACME/V1#D-ACME_DSDomain_V1> 			<http://www.assero.co.uk/BusinessDomain#used> 			"true" . 
<http://www.assero.co.uk/MDRSdtmUD/ACME/V1#D-ACME_DSDomain_V1> 			<http://www.assero.co.uk/BusinessDomain#key_ordinal> 			"0" . 
<http://www.assero.co.uk/MDRSdtmUD/ACME/V1#D-ACME_DSDomain_V1_IGV1> 			<http://www.w3.org/1999/02/22-rdf-syntax-ns#type> 			<http://www.assero.co.uk/BusinessOperational#CReference> . 
<http://www.assero.co.uk/MDRSdtmUD/ACME/V1#D-ACME_DSDomain_V1_IGV1> 			<http://www.w3.org/2000/01/rdf-schema#label> 			"Based on Variable Reference" . 
<http://www.assero.co.uk/MDRSdtmUD/ACME/V1#D-ACME_DSDomain_V1_IGV1> 			<http://www.assero.co.uk/BusinessOperational#hasColumn> 			<http://www.assero.co.uk/MDRSdtmIgD/CDISC/V3#IG-CDISC_SDTMIGDS_STUDYID> . 
<http://www.assero.co.uk/MDRSdtmUD/ACME/V1#D-ACME_DSDomain_V1_IGV1> 			<http://www.assero.co.uk/BusinessOperational#ordinal> 			"1" . 
<http://www.assero.co.uk/MDRSdtmUD/ACME/V1#D-ACME_DSDomain_V1_IGV1> 			<http://www.assero.co.uk/BusinessOperational#enabled> 			"true" . 
<http://www.assero.co.uk/MDRSdtmUD/ACME/V1#D-ACME_DSDomain_V1_IGV1> 			<http://www.assero.co.uk/BusinessOperational#optional> 			"false" . 
<http://www.assero.co.uk/MDRSdtmUD/ACME/V1#D-ACME_DSDomain_V1_IGV1> 			<http://www.assero.co.uk/BusinessOperational#local_label> 			"" . 
<http://www.assero.co.uk/MDRSdtmUD/ACME/V1#D-ACME_DSDomain_V2> 			<http://www.w3.org/1999/02/22-rdf-syntax-ns#type> 			<http://www.assero.co.uk/BusinessDomain#UserVariable> . 
<http://www.assero.co.uk/MDRSdtmUD/ACME/V1#D-ACME_DSDomain_V2> 			<http://www.w3.org/2000/01/rdf-schema#label> 			"Domain Abbreviation" . 
<http://www.assero.co.uk/MDRSdtmUD/ACME/V1#D-ACME_DSDomain_V2> 			<http://www.assero.co.uk/BusinessDomain#basedOnVariable> 			<http://www.assero.co.uk/MDRSdtmUD/ACME/V1#D-ACME_DSDomain_V2_IGV1> . 
<http://www.assero.co.uk/MDRSdtmUD/ACME/V1#D-ACME_DSDomain_V2> 			<http://www.assero.co.uk/BusinessDomain#classifiedAs> 			<http://www.assero.co.uk/MDRSdtmM/CDISC/V3#M-CDISC_SDTMMODEL_C_IDENTIFIER> . 
<http://www.assero.co.uk/MDRSdtmUD/ACME/V1#D-ACME_DSDomain_V2> 			<http://www.assero.co.uk/BusinessDomain#typedAs> 			<http://www.assero.co.uk/MDRSdtmM/CDISC/V3#M-CDISC_SDTMMODEL_DT_CHAR> . 
<http://www.assero.co.uk/MDRSdtmUD/ACME/V1#D-ACME_DSDomain_V2> 			<http://www.assero.co.uk/BusinessDomain#compliance> 			<http://www.assero.co.uk/MDRSdtmIg/CDISC/V3#IG-CDISC_SDTMIG_C_REQUIRED> . 
<http://www.assero.co.uk/MDRSdtmUD/ACME/V1#D-ACME_DSDomain_V2> 			<http://www.assero.co.uk/BusinessDomain#rule> 			"" . 
<http://www.assero.co.uk/MDRSdtmUD/ACME/V1#D-ACME_DSDomain_V2> 			<http://www.assero.co.uk/BusinessDomain#ordinal> 			"2" . 
<http://www.assero.co.uk/MDRSdtmUD/ACME/V1#D-ACME_DSDomain_V2> 			<http://www.assero.co.uk/BusinessDomain#name> 			"DOMAIN" . 
<http://www.assero.co.uk/MDRSdtmUD/ACME/V1#D-ACME_DSDomain_V2> 			<http://www.assero.co.uk/BusinessDomain#notes> 			"" . 
<http://www.assero.co.uk/MDRSdtmUD/ACME/V1#D-ACME_DSDomain_V2> 			<http://www.assero.co.uk/BusinessDomain#format> 			"" . 
<http://www.assero.co.uk/MDRSdtmUD/ACME/V1#D-ACME_DSDomain_V2> 			<http://www.assero.co.uk/BusinessDomain#ct> 			"DOMAIN" . 
<http://www.assero.co.uk/MDRSdtmUD/ACME/V1#D-ACME_DSDomain_V2> 			<http://www.assero.co.uk/BusinessDomain#length> 			"0" . 
<http://www.assero.co.uk/MDRSdtmUD/ACME/V1#D-ACME_DSDomain_V2> 			<http://www.assero.co.uk/BusinessDomain#comment> 			"" . 
<http://www.assero.co.uk/MDRSdtmUD/ACME/V1#D-ACME_DSDomain_V2> 			<http://www.assero.co.uk/BusinessDomain#non_standard> 			"false" . 
<http://www.assero.co.uk/MDRSdtmUD/ACME/V1#D-ACME_DSDomain_V2> 			<http://www.assero.co.uk/BusinessDomain#used> 			"true" . 
<http://www.assero.co.uk/MDRSdtmUD/ACME/V1#D-ACME_DSDomain_V2> 			<http://www.assero.co.uk/BusinessDomain#key_ordinal> 			"0" . 
<http://www.assero.co.uk/MDRSdtmUD/ACME/V1#D-ACME_DSDomain_V2_IGV1> 			<http://www.w3.org/1999/02/22-rdf-syntax-ns#type> 			<http://www.assero.co.uk/BusinessOperational#CReference> . 
<http://www.assero.co.uk/MDRSdtmUD/ACME/V1#D-ACME_DSDomain_V2_IGV1> 			<http://www.w3.org/2000/01/rdf-schema#label> 			"Based on Variable Reference" . 
<http://www.assero.co.uk/MDRSdtmUD/ACME/V1#D-ACME_DSDomain_V2_IGV1> 			<http://www.assero.co.uk/BusinessOperational#hasColumn> 			<http://www.assero.co.uk/MDRSdtmIgD/CDISC/V3#IG-CDISC_SDTMIGDS_DOMAIN> . 
<http://www.assero.co.uk/MDRSdtmUD/ACME/V1#D-ACME_DSDomain_V2_IGV1> 			<http://www.assero.co.uk/BusinessOperational#ordinal> 			"1" . 
<http://www.assero.co.uk/MDRSdtmUD/ACME/V1#D-ACME_DSDomain_V2_IGV1> 			<http://www.assero.co.uk/BusinessOperational#enabled> 			"true" . 
<http://www.assero.co.uk/MDRSdtmUD/ACME/V1#D-ACME_DSDomain_V2_IGV1> 			<http://www.assero.co.uk/BusinessOperational#optional> 			"false" . 
<http://www.assero.co.uk/MDRSdtmUD/ACME/V1#D-ACME_DSDomain_V2_IGV1> 			<http://www.assero.co.uk/BusinessOperational#local_label> 			"" . 
<http://www.assero.co.uk/MDRSdtmUD/ACME/V1#D-ACME_DSDomain_V3> 			<http://www.w3.org/1999/02/22-rdf-syntax-ns#type> 			<http://www.assero.co.uk/BusinessDomain#UserVariable> . 
<http://www.assero.co.uk/MDRSdtmUD/ACME/V1#D-ACME_DSDomain_V3> 			<http://www.w3.org/2000/01/rdf-schema#label> 			"Unique Subject Identifier" . 
<http://www.assero.co.uk/MDRSdtmUD/ACME/V1#D-ACME_DSDomain_V3> 			<http://www.assero.co.uk/BusinessDomain#basedOnVariable> 			<http://www.assero.co.uk/MDRSdtmUD/ACME/V1#D-ACME_DSDomain_V3_IGV1> . 
<http://www.assero.co.uk/MDRSdtmUD/ACME/V1#D-ACME_DSDomain_V3> 			<http://www.assero.co.uk/BusinessDomain#classifiedAs> 			<http://www.assero.co.uk/MDRSdtmM/CDISC/V3#M-CDISC_SDTMMODEL_C_IDENTIFIER> . 
<http://www.assero.co.uk/MDRSdtmUD/ACME/V1#D-ACME_DSDomain_V3> 			<http://www.assero.co.uk/BusinessDomain#typedAs> 			<http://www.assero.co.uk/MDRSdtmM/CDISC/V3#M-CDISC_SDTMMODEL_DT_CHAR> . 
<http://www.assero.co.uk/MDRSdtmUD/ACME/V1#D-ACME_DSDomain_V3> 			<http://www.assero.co.uk/BusinessDomain#compliance> 			<http://www.assero.co.uk/MDRSdtmIg/CDISC/V3#IG-CDISC_SDTMIG_C_REQUIRED> . 
<http://www.assero.co.uk/MDRSdtmUD/ACME/V1#D-ACME_DSDomain_V3> 			<http://www.assero.co.uk/BusinessDomain#rule> 			"" . 
<http://www.assero.co.uk/MDRSdtmUD/ACME/V1#D-ACME_DSDomain_V3> 			<http://www.assero.co.uk/BusinessDomain#ordinal> 			"3" . 
<http://www.assero.co.uk/MDRSdtmUD/ACME/V1#D-ACME_DSDomain_V3> 			<http://www.assero.co.uk/BusinessDomain#name> 			"USUBJID" . 
<http://www.assero.co.uk/MDRSdtmUD/ACME/V1#D-ACME_DSDomain_V3> 			<http://www.assero.co.uk/BusinessDomain#notes> 			"" . 
<http://www.assero.co.uk/MDRSdtmUD/ACME/V1#D-ACME_DSDomain_V3> 			<http://www.assero.co.uk/BusinessDomain#format> 			"" . 
<http://www.assero.co.uk/MDRSdtmUD/ACME/V1#D-ACME_DSDomain_V3> 			<http://www.assero.co.uk/BusinessDomain#ct> 			"" . 
<http://www.assero.co.uk/MDRSdtmUD/ACME/V1#D-ACME_DSDomain_V3> 			<http://www.assero.co.uk/BusinessDomain#length> 			"0" . 
<http://www.assero.co.uk/MDRSdtmUD/ACME/V1#D-ACME_DSDomain_V3> 			<http://www.assero.co.uk/BusinessDomain#comment> 			"" . 
<http://www.assero.co.uk/MDRSdtmUD/ACME/V1#D-ACME_DSDomain_V3> 			<http://www.assero.co.uk/BusinessDomain#non_standard> 			"false" . 
<http://www.assero.co.uk/MDRSdtmUD/ACME/V1#D-ACME_DSDomain_V3> 			<http://www.assero.co.uk/BusinessDomain#used> 			"true" . 
<http://www.assero.co.uk/MDRSdtmUD/ACME/V1#D-ACME_DSDomain_V3> 			<http://www.assero.co.uk/BusinessDomain#key_ordinal> 			"0" . 
<http://www.assero.co.uk/MDRSdtmUD/ACME/V1#D-ACME_DSDomain_V3_IGV1> 			<http://www.w3.org/1999/02/22-rdf-syntax-ns#type> 			<http://www.assero.co.uk/BusinessOperational#CReference> . 
<http://www.assero.co.uk/MDRSdtmUD/ACME/V1#D-ACME_DSDomain_V3_IGV1> 			<http://www.w3.org/2000/01/rdf-schema#label> 			"Based on Variable Reference" . 
<http://www.assero.co.uk/MDRSdtmUD/ACME/V1#D-ACME_DSDomain_V3_IGV1> 			<http://www.assero.co.uk/BusinessOperational#hasColumn> 			<http://www.assero.co.uk/MDRSdtmIgD/CDISC/V3#IG-CDISC_SDTMIGDS_USUBJID> . 
<http://www.assero.co.uk/MDRSdtmUD/ACME/V1#D-ACME_DSDomain_V3_IGV1> 			<http://www.assero.co.uk/BusinessOperational#ordinal> 			"1" . 
<http://www.assero.co.uk/MDRSdtmUD/ACME/V1#D-ACME_DSDomain_V3_IGV1> 			<http://www.assero.co.uk/BusinessOperational#enabled> 			"true" . 
<http://www.assero.co.uk/MDRSdtmUD/ACME/V1#D-ACME_DSDomain_V3_IGV1> 			<http://www.assero.co.uk/BusinessOperational#optional> 			"false" . 
<http://www.assero.co.uk/MDRSdtmUD/ACME/V1#D-ACME_DSDomain_V3_IGV1> 			<http://www.assero.co.uk/BusinessOperational#local_label> 			"" . 
<http://www.assero.co.uk/MDRSdtmUD/ACME/V1#D-ACME_DSDomain_V4> 			<http://www.w3.org/1999/02/22-rdf-syntax-ns#type> 			<http://www.assero.co.uk/BusinessDomain#UserVariable> . 
<http://www.assero.co.uk/MDRSdtmUD/ACME/V1#D-ACME_DSDomain_V4> 			<http://www.w3.org/2000/01/rdf-schema#label> 			"Sequence Number" . 
<http://www.assero.co.uk/MDRSdtmUD/ACME/V1#D-ACME_DSDomain_V4> 			<http://www.assero.co.uk/BusinessDomain#basedOnVariable> 			<http://www.assero.co.uk/MDRSdtmUD/ACME/V1#D-ACME_DSDomain_V4_IGV1> . 
<http://www.assero.co.uk/MDRSdtmUD/ACME/V1#D-ACME_DSDomain_V4> 			<http://www.assero.co.uk/BusinessDomain#classifiedAs> 			<http://www.assero.co.uk/MDRSdtmM/CDISC/V3#M-CDISC_SDTMMODEL_C_IDENTIFIER> . 
<http://www.assero.co.uk/MDRSdtmUD/ACME/V1#D-ACME_DSDomain_V4> 			<http://www.assero.co.uk/BusinessDomain#typedAs> 			<http://www.assero.co.uk/MDRSdtmM/CDISC/V3#M-CDISC_SDTMMODEL_DT_NUM> . 
<http://www.assero.co.uk/MDRSdtmUD/ACME/V1#D-ACME_DSDomain_V4> 			<http://www.assero.co.uk/BusinessDomain#compliance> 			<http://www.assero.co.uk/MDRSdtmIg/CDISC/V3#IG-CDISC_SDTMIG_C_REQUIRED> . 
<http://www.assero.co.uk/MDRSdtmUD/ACME/V1#D-ACME_DSDomain_V4> 			<http://www.assero.co.uk/BusinessDomain#rule> 			"" . 
<http://www.assero.co.uk/MDRSdtmUD/ACME/V1#D-ACME_DSDomain_V4> 			<http://www.assero.co.uk/BusinessDomain#ordinal> 			"4" . 
<http://www.assero.co.uk/MDRSdtmUD/ACME/V1#D-ACME_DSDomain_V4> 			<http://www.assero.co.uk/BusinessDomain#name> 			"DSSEQ" . 
<http://www.assero.co.uk/MDRSdtmUD/ACME/V1#D-ACME_DSDomain_V4> 			<http://www.assero.co.uk/BusinessDomain#notes> 			"" . 
<http://www.assero.co.uk/MDRSdtmUD/ACME/V1#D-ACME_DSDomain_V4> 			<http://www.assero.co.uk/BusinessDomain#format> 			"" . 
<http://www.assero.co.uk/MDRSdtmUD/ACME/V1#D-ACME_DSDomain_V4> 			<http://www.assero.co.uk/BusinessDomain#ct> 			"" . 
<http://www.assero.co.uk/MDRSdtmUD/ACME/V1#D-ACME_DSDomain_V4> 			<http://www.assero.co.uk/BusinessDomain#length> 			"0" . 
<http://www.assero.co.uk/MDRSdtmUD/ACME/V1#D-ACME_DSDomain_V4> 			<http://www.assero.co.uk/BusinessDomain#comment> 			"" . 
<http://www.assero.co.uk/MDRSdtmUD/ACME/V1#D-ACME_DSDomain_V4> 			<http://www.assero.co.uk/BusinessDomain#non_standard> 			"false" . 
<http://www.assero.co.uk/MDRSdtmUD/ACME/V1#D-ACME_DSDomain_V4> 			<http://www.assero.co.uk/BusinessDomain#used> 			"true" . 
<http://www.assero.co.uk/MDRSdtmUD/ACME/V1#D-ACME_DSDomain_V4> 			<http://www.assero.co.uk/BusinessDomain#key_ordinal> 			"0" . 
<http://www.assero.co.uk/MDRSdtmUD/ACME/V1#D-ACME_DSDomain_V4_IGV1> 			<http://www.w3.org/1999/02/22-rdf-syntax-ns#type> 			<http://www.assero.co.uk/BusinessOperational#CReference> . 
<http://www.assero.co.uk/MDRSdtmUD/ACME/V1#D-ACME_DSDomain_V4_IGV1> 			<http://www.w3.org/2000/01/rdf-schema#label> 			"Based on Variable Reference" . 
<http://www.assero.co.uk/MDRSdtmUD/ACME/V1#D-ACME_DSDomain_V4_IGV1> 			<http://www.assero.co.uk/BusinessOperational#hasColumn> 			<http://www.assero.co.uk/MDRSdtmIgD/CDISC/V3#IG-CDISC_SDTMIGDS_DSSEQ> . 
<http://www.assero.co.uk/MDRSdtmUD/ACME/V1#D-ACME_DSDomain_V4_IGV1> 			<http://www.assero.co.uk/BusinessOperational#ordinal> 			"1" . 
<http://www.assero.co.uk/MDRSdtmUD/ACME/V1#D-ACME_DSDomain_V4_IGV1> 			<http://www.assero.co.uk/BusinessOperational#enabled> 			"true" . 
<http://www.assero.co.uk/MDRSdtmUD/ACME/V1#D-ACME_DSDomain_V4_IGV1> 			<http://www.assero.co.uk/BusinessOperational#optional> 			"false" . 
<http://www.assero.co.uk/MDRSdtmUD/ACME/V1#D-ACME_DSDomain_V4_IGV1> 			<http://www.assero.co.uk/BusinessOperational#local_label> 			"" . 
<http://www.assero.co.uk/MDRSdtmUD/ACME/V1#D-ACME_DSDomain_V5> 			<http://www.w3.org/1999/02/22-rdf-syntax-ns#type> 			<http://www.assero.co.uk/BusinessDomain#UserVariable> . 
<http://www.assero.co.uk/MDRSdtmUD/ACME/V1#D-ACME_DSDomain_V5> 			<http://www.w3.org/2000/01/rdf-schema#label> 			"Group ID" . 
<http://www.assero.co.uk/MDRSdtmUD/ACME/V1#D-ACME_DSDomain_V5> 			<http://www.assero.co.uk/BusinessDomain#basedOnVariable> 			<http://www.assero.co.uk/MDRSdtmUD/ACME/V1#D-ACME_DSDomain_V5_IGV1> . 
<http://www.assero.co.uk/MDRSdtmUD/ACME/V1#D-ACME_DSDomain_V5> 			<http://www.assero.co.uk/BusinessDomain#classifiedAs> 			<http://www.assero.co.uk/MDRSdtmM/CDISC/V3#M-CDISC_SDTMMODEL_C_IDENTIFIER> . 
<http://www.assero.co.uk/MDRSdtmUD/ACME/V1#D-ACME_DSDomain_V5> 			<http://www.assero.co.uk/BusinessDomain#typedAs> 			<http://www.assero.co.uk/MDRSdtmM/CDISC/V3#M-CDISC_SDTMMODEL_DT_CHAR> . 
<http://www.assero.co.uk/MDRSdtmUD/ACME/V1#D-ACME_DSDomain_V5> 			<http://www.assero.co.uk/BusinessDomain#compliance> 			<http://www.assero.co.uk/MDRSdtmIg/CDISC/V3#IG-CDISC_SDTMIG_C_PERMISSIBLE> . 
<http://www.assero.co.uk/MDRSdtmUD/ACME/V1#D-ACME_DSDomain_V5> 			<http://www.assero.co.uk/BusinessDomain#rule> 			"" . 
<http://www.assero.co.uk/MDRSdtmUD/ACME/V1#D-ACME_DSDomain_V5> 			<http://www.assero.co.uk/BusinessDomain#ordinal> 			"5" . 
<http://www.assero.co.uk/MDRSdtmUD/ACME/V1#D-ACME_DSDomain_V5> 			<http://www.assero.co.uk/BusinessDomain#name> 			"DSGRPID" . 
<http://www.assero.co.uk/MDRSdtmUD/ACME/V1#D-ACME_DSDomain_V5> 			<http://www.assero.co.uk/BusinessDomain#notes> 			"" . 
<http://www.assero.co.uk/MDRSdtmUD/ACME/V1#D-ACME_DSDomain_V5> 			<http://www.assero.co.uk/BusinessDomain#format> 			"" . 
<http://www.assero.co.uk/MDRSdtmUD/ACME/V1#D-ACME_DSDomain_V5> 			<http://www.assero.co.uk/BusinessDomain#ct> 			"" . 
<http://www.assero.co.uk/MDRSdtmUD/ACME/V1#D-ACME_DSDomain_V5> 			<http://www.assero.co.uk/BusinessDomain#length> 			"0" . 
<http://www.assero.co.uk/MDRSdtmUD/ACME/V1#D-ACME_DSDomain_V5> 			<http://www.assero.co.uk/BusinessDomain#comment> 			"" . 
<http://www.assero.co.uk/MDRSdtmUD/ACME/V1#D-ACME_DSDomain_V5> 			<http://www.assero.co.uk/BusinessDomain#non_standard> 			"false" . 
<http://www.assero.co.uk/MDRSdtmUD/ACME/V1#D-ACME_DSDomain_V5> 			<http://www.assero.co.uk/BusinessDomain#used> 			"true" . 
<http://www.assero.co.uk/MDRSdtmUD/ACME/V1#D-ACME_DSDomain_V5> 			<http://www.assero.co.uk/BusinessDomain#key_ordinal> 			"0" . 
<http://www.assero.co.uk/MDRSdtmUD/ACME/V1#D-ACME_DSDomain_V5_IGV1> 			<http://www.w3.org/1999/02/22-rdf-syntax-ns#type> 			<http://www.assero.co.uk/BusinessOperational#CReference> . 
<http://www.assero.co.uk/MDRSdtmUD/ACME/V1#D-ACME_DSDomain_V5_IGV1> 			<http://www.w3.org/2000/01/rdf-schema#label> 			"Based on Variable Reference" . 
<http://www.assero.co.uk/MDRSdtmUD/ACME/V1#D-ACME_DSDomain_V5_IGV1> 			<http://www.assero.co.uk/BusinessOperational#hasColumn> 			<http://www.assero.co.uk/MDRSdtmIgD/CDISC/V3#IG-CDISC_SDTMIGDS_DSGRPID> . 
<http://www.assero.co.uk/MDRSdtmUD/ACME/V1#D-ACME_DSDomain_V5_IGV1> 			<http://www.assero.co.uk/BusinessOperational#ordinal> 			"1" . 
<http://www.assero.co.uk/MDRSdtmUD/ACME/V1#D-ACME_DSDomain_V5_IGV1> 			<http://www.assero.co.uk/BusinessOperational#enabled> 			"true" . 
<http://www.assero.co.uk/MDRSdtmUD/ACME/V1#D-ACME_DSDomain_V5_IGV1> 			<http://www.assero.co.uk/BusinessOperational#optional> 			"false" . 
<http://www.assero.co.uk/MDRSdtmUD/ACME/V1#D-ACME_DSDomain_V5_IGV1> 			<http://www.assero.co.uk/BusinessOperational#local_label> 			"" . 
<http://www.assero.co.uk/MDRSdtmUD/ACME/V1#D-ACME_DSDomain_V6> 			<http://www.w3.org/1999/02/22-rdf-syntax-ns#type> 			<http://www.assero.co.uk/BusinessDomain#UserVariable> . 
<http://www.assero.co.uk/MDRSdtmUD/ACME/V1#D-ACME_DSDomain_V6> 			<http://www.w3.org/2000/01/rdf-schema#label> 			"Reference ID" . 
<http://www.assero.co.uk/MDRSdtmUD/ACME/V1#D-ACME_DSDomain_V6> 			<http://www.assero.co.uk/BusinessDomain#basedOnVariable> 			<http://www.assero.co.uk/MDRSdtmUD/ACME/V1#D-ACME_DSDomain_V6_IGV1> . 
<http://www.assero.co.uk/MDRSdtmUD/ACME/V1#D-ACME_DSDomain_V6> 			<http://www.assero.co.uk/BusinessDomain#classifiedAs> 			<http://www.assero.co.uk/MDRSdtmM/CDISC/V3#M-CDISC_SDTMMODEL_C_IDENTIFIER> . 
<http://www.assero.co.uk/MDRSdtmUD/ACME/V1#D-ACME_DSDomain_V6> 			<http://www.assero.co.uk/BusinessDomain#typedAs> 			<http://www.assero.co.uk/MDRSdtmM/CDISC/V3#M-CDISC_SDTMMODEL_DT_CHAR> . 
<http://www.assero.co.uk/MDRSdtmUD/ACME/V1#D-ACME_DSDomain_V6> 			<http://www.assero.co.uk/BusinessDomain#compliance> 			<http://www.assero.co.uk/MDRSdtmIg/CDISC/V3#IG-CDISC_SDTMIG_C_PERMISSIBLE> . 
<http://www.assero.co.uk/MDRSdtmUD/ACME/V1#D-ACME_DSDomain_V6> 			<http://www.assero.co.uk/BusinessDomain#rule> 			"" . 
<http://www.assero.co.uk/MDRSdtmUD/ACME/V1#D-ACME_DSDomain_V6> 			<http://www.assero.co.uk/BusinessDomain#ordinal> 			"6" . 
<http://www.assero.co.uk/MDRSdtmUD/ACME/V1#D-ACME_DSDomain_V6> 			<http://www.assero.co.uk/BusinessDomain#name> 			"DSREFID" . 
<http://www.assero.co.uk/MDRSdtmUD/ACME/V1#D-ACME_DSDomain_V6> 			<http://www.assero.co.uk/BusinessDomain#notes> 			"" . 
<http://www.assero.co.uk/MDRSdtmUD/ACME/V1#D-ACME_DSDomain_V6> 			<http://www.assero.co.uk/BusinessDomain#format> 			"" . 
<http://www.assero.co.uk/MDRSdtmUD/ACME/V1#D-ACME_DSDomain_V6> 			<http://www.assero.co.uk/BusinessDomain#ct> 			"" . 
<http://www.assero.co.uk/MDRSdtmUD/ACME/V1#D-ACME_DSDomain_V6> 			<http://www.assero.co.uk/BusinessDomain#length> 			"0" . 
<http://www.assero.co.uk/MDRSdtmUD/ACME/V1#D-ACME_DSDomain_V6> 			<http://www.assero.co.uk/BusinessDomain#comment> 			"" . 
<http://www.assero.co.uk/MDRSdtmUD/ACME/V1#D-ACME_DSDomain_V6> 			<http://www.assero.co.uk/BusinessDomain#non_standard> 			"false" . 
<http://www.assero.co.uk/MDRSdtmUD/ACME/V1#D-ACME_DSDomain_V6> 			<http://www.assero.co.uk/BusinessDomain#used> 			"true" . 
<http://www.assero.co.uk/MDRSdtmUD/ACME/V1#D-ACME_DSDomain_V6> 			<http://www.assero.co.uk/BusinessDomain#key_ordinal> 			"0" . 
<http://www.assero.co.uk/MDRSdtmUD/ACME/V1#D-ACME_DSDomain_V6_IGV1> 			<http://www.w3.org/1999/02/22-rdf-syntax-ns#type> 			<http://www.assero.co.uk/BusinessOperational#CReference> . 
<http://www.assero.co.uk/MDRSdtmUD/ACME/V1#D-ACME_DSDomain_V6_IGV1> 			<http://www.w3.org/2000/01/rdf-schema#label> 			"Based on Variable Reference" . 
<http://www.assero.co.uk/MDRSdtmUD/ACME/V1#D-ACME_DSDomain_V6_IGV1> 			<http://www.assero.co.uk/BusinessOperational#hasColumn> 			<http://www.assero.co.uk/MDRSdtmIgD/CDISC/V3#IG-CDISC_SDTMIGDS_DSREFID> . 
<http://www.assero.co.uk/MDRSdtmUD/ACME/V1#D-ACME_DSDomain_V6_IGV1> 			<http://www.assero.co.uk/BusinessOperational#ordinal> 			"1" . 
<http://www.assero.co.uk/MDRSdtmUD/ACME/V1#D-ACME_DSDomain_V6_IGV1> 			<http://www.assero.co.uk/BusinessOperational#enabled> 			"true" . 
<http://www.assero.co.uk/MDRSdtmUD/ACME/V1#D-ACME_DSDomain_V6_IGV1> 			<http://www.assero.co.uk/BusinessOperational#optional> 			"false" . 
<http://www.assero.co.uk/MDRSdtmUD/ACME/V1#D-ACME_DSDomain_V6_IGV1> 			<http://www.assero.co.uk/BusinessOperational#local_label> 			"" . 
<http://www.assero.co.uk/MDRSdtmUD/ACME/V1#D-ACME_DSDomain_V7> 			<http://www.w3.org/1999/02/22-rdf-syntax-ns#type> 			<http://www.assero.co.uk/BusinessDomain#UserVariable> . 
<http://www.assero.co.uk/MDRSdtmUD/ACME/V1#D-ACME_DSDomain_V7> 			<http://www.w3.org/2000/01/rdf-schema#label> 			"Sponsor-Defined Identifier" . 
<http://www.assero.co.uk/MDRSdtmUD/ACME/V1#D-ACME_DSDomain_V7> 			<http://www.assero.co.uk/BusinessDomain#basedOnVariable> 			<http://www.assero.co.uk/MDRSdtmUD/ACME/V1#D-ACME_DSDomain_V7_IGV1> . 
<http://www.assero.co.uk/MDRSdtmUD/ACME/V1#D-ACME_DSDomain_V7> 			<http://www.assero.co.uk/BusinessDomain#classifiedAs> 			<http://www.assero.co.uk/MDRSdtmM/CDISC/V3#M-CDISC_SDTMMODEL_C_IDENTIFIER> . 
<http://www.assero.co.uk/MDRSdtmUD/ACME/V1#D-ACME_DSDomain_V7> 			<http://www.assero.co.uk/BusinessDomain#typedAs> 			<http://www.assero.co.uk/MDRSdtmM/CDISC/V3#M-CDISC_SDTMMODEL_DT_CHAR> . 
<http://www.assero.co.uk/MDRSdtmUD/ACME/V1#D-ACME_DSDomain_V7> 			<http://www.assero.co.uk/BusinessDomain#compliance> 			<http://www.assero.co.uk/MDRSdtmIg/CDISC/V3#IG-CDISC_SDTMIG_C_PERMISSIBLE> . 
<http://www.assero.co.uk/MDRSdtmUD/ACME/V1#D-ACME_DSDomain_V7> 			<http://www.assero.co.uk/BusinessDomain#rule> 			"" . 
<http://www.assero.co.uk/MDRSdtmUD/ACME/V1#D-ACME_DSDomain_V7> 			<http://www.assero.co.uk/BusinessDomain#ordinal> 			"7" . 
<http://www.assero.co.uk/MDRSdtmUD/ACME/V1#D-ACME_DSDomain_V7> 			<http://www.assero.co.uk/BusinessDomain#name> 			"DSSPID" . 
<http://www.assero.co.uk/MDRSdtmUD/ACME/V1#D-ACME_DSDomain_V7> 			<http://www.assero.co.uk/BusinessDomain#notes> 			"" . 
<http://www.assero.co.uk/MDRSdtmUD/ACME/V1#D-ACME_DSDomain_V7> 			<http://www.assero.co.uk/BusinessDomain#format> 			"" . 
<http://www.assero.co.uk/MDRSdtmUD/ACME/V1#D-ACME_DSDomain_V7> 			<http://www.assero.co.uk/BusinessDomain#ct> 			"" . 
<http://www.assero.co.uk/MDRSdtmUD/ACME/V1#D-ACME_DSDomain_V7> 			<http://www.assero.co.uk/BusinessDomain#length> 			"0" . 
<http://www.assero.co.uk/MDRSdtmUD/ACME/V1#D-ACME_DSDomain_V7> 			<http://www.assero.co.uk/BusinessDomain#comment> 			"" . 
<http://www.assero.co.uk/MDRSdtmUD/ACME/V1#D-ACME_DSDomain_V7> 			<http://www.assero.co.uk/BusinessDomain#non_standard> 			"false" . 
<http://www.assero.co.uk/MDRSdtmUD/ACME/V1#D-ACME_DSDomain_V7> 			<http://www.assero.co.uk/BusinessDomain#used> 			"true" . 
<http://www.assero.co.uk/MDRSdtmUD/ACME/V1#D-ACME_DSDomain_V7> 			<http://www.assero.co.uk/BusinessDomain#key_ordinal> 			"0" . 
<http://www.assero.co.uk/MDRSdtmUD/ACME/V1#D-ACME_DSDomain_V7_IGV1> 			<http://www.w3.org/1999/02/22-rdf-syntax-ns#type> 			<http://www.assero.co.uk/BusinessOperational#CReference> . 
<http://www.assero.co.uk/MDRSdtmUD/ACME/V1#D-ACME_DSDomain_V7_IGV1> 			<http://www.w3.org/2000/01/rdf-schema#label> 			"Based on Variable Reference" . 
<http://www.assero.co.uk/MDRSdtmUD/ACME/V1#D-ACME_DSDomain_V7_IGV1> 			<http://www.assero.co.uk/BusinessOperational#hasColumn> 			<http://www.assero.co.uk/MDRSdtmIgD/CDISC/V3#IG-CDISC_SDTMIGDS_DSSPID> . 
<http://www.assero.co.uk/MDRSdtmUD/ACME/V1#D-ACME_DSDomain_V7_IGV1> 			<http://www.assero.co.uk/BusinessOperational#ordinal> 			"1" . 
<http://www.assero.co.uk/MDRSdtmUD/ACME/V1#D-ACME_DSDomain_V7_IGV1> 			<http://www.assero.co.uk/BusinessOperational#enabled> 			"true" . 
<http://www.assero.co.uk/MDRSdtmUD/ACME/V1#D-ACME_DSDomain_V7_IGV1> 			<http://www.assero.co.uk/BusinessOperational#optional> 			"false" . 
<http://www.assero.co.uk/MDRSdtmUD/ACME/V1#D-ACME_DSDomain_V7_IGV1> 			<http://www.assero.co.uk/BusinessOperational#local_label> 			"" . 
<http://www.assero.co.uk/MDRSdtmUD/ACME/V1#D-ACME_DSDomain_V8> 			<http://www.w3.org/1999/02/22-rdf-syntax-ns#type> 			<http://www.assero.co.uk/BusinessDomain#UserVariable> . 
<http://www.assero.co.uk/MDRSdtmUD/ACME/V1#D-ACME_DSDomain_V8> 			<http://www.w3.org/2000/01/rdf-schema#label> 			"Reported Term for the Disposition Event" . 
<http://www.assero.co.uk/MDRSdtmUD/ACME/V1#D-ACME_DSDomain_V8> 			<http://www.assero.co.uk/BusinessDomain#basedOnVariable> 			<http://www.assero.co.uk/MDRSdtmUD/ACME/V1#D-ACME_DSDomain_V8_IGV1> . 
<http://www.assero.co.uk/MDRSdtmUD/ACME/V1#D-ACME_DSDomain_V8> 			<http://www.assero.co.uk/BusinessDomain#classifiedAs> 			<http://www.assero.co.uk/MDRSdtmM/CDISC/V3#M-CDISC_SDTMMODEL_C_TOPIC> . 
<http://www.assero.co.uk/MDRSdtmUD/ACME/V1#D-ACME_DSDomain_V8> 			<http://www.assero.co.uk/BusinessDomain#typedAs> 			<http://www.assero.co.uk/MDRSdtmM/CDISC/V3#M-CDISC_SDTMMODEL_DT_CHAR> . 
<http://www.assero.co.uk/MDRSdtmUD/ACME/V1#D-ACME_DSDomain_V8> 			<http://www.assero.co.uk/BusinessDomain#compliance> 			<http://www.assero.co.uk/MDRSdtmIg/CDISC/V3#IG-CDISC_SDTMIG_C_REQUIRED> . 
<http://www.assero.co.uk/MDRSdtmUD/ACME/V1#D-ACME_DSDomain_V8> 			<http://www.assero.co.uk/BusinessDomain#rule> 			"" . 
<http://www.assero.co.uk/MDRSdtmUD/ACME/V1#D-ACME_DSDomain_V8> 			<http://www.assero.co.uk/BusinessDomain#ordinal> 			"8" . 
<http://www.assero.co.uk/MDRSdtmUD/ACME/V1#D-ACME_DSDomain_V8> 			<http://www.assero.co.uk/BusinessDomain#name> 			"DSTERM" . 
<http://www.assero.co.uk/MDRSdtmUD/ACME/V1#D-ACME_DSDomain_V8> 			<http://www.assero.co.uk/BusinessDomain#notes> 			"" . 
<http://www.assero.co.uk/MDRSdtmUD/ACME/V1#D-ACME_DSDomain_V8> 			<http://www.assero.co.uk/BusinessDomain#format> 			"" . 
<http://www.assero.co.uk/MDRSdtmUD/ACME/V1#D-ACME_DSDomain_V8> 			<http://www.assero.co.uk/BusinessDomain#ct> 			"" . 
<http://www.assero.co.uk/MDRSdtmUD/ACME/V1#D-ACME_DSDomain_V8> 			<http://www.assero.co.uk/BusinessDomain#length> 			"0" . 
<http://www.assero.co.uk/MDRSdtmUD/ACME/V1#D-ACME_DSDomain_V8> 			<http://www.assero.co.uk/BusinessDomain#comment> 			"" . 
<http://www.assero.co.uk/MDRSdtmUD/ACME/V1#D-ACME_DSDomain_V8> 			<http://www.assero.co.uk/BusinessDomain#non_standard> 			"false" . 
<http://www.assero.co.uk/MDRSdtmUD/ACME/V1#D-ACME_DSDomain_V8> 			<http://www.assero.co.uk/BusinessDomain#used> 			"true" . 
<http://www.assero.co.uk/MDRSdtmUD/ACME/V1#D-ACME_DSDomain_V8> 			<http://www.assero.co.uk/BusinessDomain#key_ordinal> 			"0" . 
<http://www.assero.co.uk/MDRSdtmUD/ACME/V1#D-ACME_DSDomain_V8_IGV1> 			<http://www.w3.org/1999/02/22-rdf-syntax-ns#type> 			<http://www.assero.co.uk/BusinessOperational#CReference> . 
<http://www.assero.co.uk/MDRSdtmUD/ACME/V1#D-ACME_DSDomain_V8_IGV1> 			<http://www.w3.org/2000/01/rdf-schema#label> 			"Based on Variable Reference" . 
<http://www.assero.co.uk/MDRSdtmUD/ACME/V1#D-ACME_DSDomain_V8_IGV1> 			<http://www.assero.co.uk/BusinessOperational#hasColumn> 			<http://www.assero.co.uk/MDRSdtmIgD/CDISC/V3#IG-CDISC_SDTMIGDS_DSTERM> . 
<http://www.assero.co.uk/MDRSdtmUD/ACME/V1#D-ACME_DSDomain_V8_IGV1> 			<http://www.assero.co.uk/BusinessOperational#ordinal> 			"1" . 
<http://www.assero.co.uk/MDRSdtmUD/ACME/V1#D-ACME_DSDomain_V8_IGV1> 			<http://www.assero.co.uk/BusinessOperational#enabled> 			"true" . 
<http://www.assero.co.uk/MDRSdtmUD/ACME/V1#D-ACME_DSDomain_V8_IGV1> 			<http://www.assero.co.uk/BusinessOperational#optional> 			"false" . 
<http://www.assero.co.uk/MDRSdtmUD/ACME/V1#D-ACME_DSDomain_V8_IGV1> 			<http://www.assero.co.uk/BusinessOperational#local_label> 			"" . 
<http://www.assero.co.uk/MDRSdtmUD/ACME/V1#D-ACME_DSDomain_V9> 			<http://www.w3.org/1999/02/22-rdf-syntax-ns#type> 			<http://www.assero.co.uk/BusinessDomain#UserVariable> . 
<http://www.assero.co.uk/MDRSdtmUD/ACME/V1#D-ACME_DSDomain_V9> 			<http://www.w3.org/2000/01/rdf-schema#label> 			"Standardized Disposition Term" . 
<http://www.assero.co.uk/MDRSdtmUD/ACME/V1#D-ACME_DSDomain_V9> 			<http://www.assero.co.uk/BusinessDomain#basedOnVariable> 			<http://www.assero.co.uk/MDRSdtmUD/ACME/V1#D-ACME_DSDomain_V9_IGV1> . 
<http://www.assero.co.uk/MDRSdtmUD/ACME/V1#D-ACME_DSDomain_V9> 			<http://www.assero.co.uk/BusinessDomain#classifiedAs> 			<http://www.assero.co.uk/MDRSdtmM/CDISC/V3#M-CDISC_SDTMMODEL_C_QUALIFIER_SC_SYNONYMQUALIFIER> . 
<http://www.assero.co.uk/MDRSdtmUD/ACME/V1#D-ACME_DSDomain_V9> 			<http://www.assero.co.uk/BusinessDomain#typedAs> 			<http://www.assero.co.uk/MDRSdtmM/CDISC/V3#M-CDISC_SDTMMODEL_DT_CHAR> . 
<http://www.assero.co.uk/MDRSdtmUD/ACME/V1#D-ACME_DSDomain_V9> 			<http://www.assero.co.uk/BusinessDomain#compliance> 			<http://www.assero.co.uk/MDRSdtmIg/CDISC/V3#IG-CDISC_SDTMIG_C_REQUIRED> . 
<http://www.assero.co.uk/MDRSdtmUD/ACME/V1#D-ACME_DSDomain_V9> 			<http://www.assero.co.uk/BusinessDomain#rule> 			"" . 
<http://www.assero.co.uk/MDRSdtmUD/ACME/V1#D-ACME_DSDomain_V9> 			<http://www.assero.co.uk/BusinessDomain#ordinal> 			"9" . 
<http://www.assero.co.uk/MDRSdtmUD/ACME/V1#D-ACME_DSDomain_V9> 			<http://www.assero.co.uk/BusinessDomain#name> 			"DSDECOD" . 
<http://www.assero.co.uk/MDRSdtmUD/ACME/V1#D-ACME_DSDomain_V9> 			<http://www.assero.co.uk/BusinessDomain#notes> 			"" . 
<http://www.assero.co.uk/MDRSdtmUD/ACME/V1#D-ACME_DSDomain_V9> 			<http://www.assero.co.uk/BusinessDomain#format> 			"" . 
<http://www.assero.co.uk/MDRSdtmUD/ACME/V1#D-ACME_DSDomain_V9> 			<http://www.assero.co.uk/BusinessDomain#ct> 			"NCOMPLT" . 
<http://www.assero.co.uk/MDRSdtmUD/ACME/V1#D-ACME_DSDomain_V9> 			<http://www.assero.co.uk/BusinessDomain#length> 			"0" . 
<http://www.assero.co.uk/MDRSdtmUD/ACME/V1#D-ACME_DSDomain_V9> 			<http://www.assero.co.uk/BusinessDomain#comment> 			"" . 
<http://www.assero.co.uk/MDRSdtmUD/ACME/V1#D-ACME_DSDomain_V9> 			<http://www.assero.co.uk/BusinessDomain#non_standard> 			"false" . 
<http://www.assero.co.uk/MDRSdtmUD/ACME/V1#D-ACME_DSDomain_V9> 			<http://www.assero.co.uk/BusinessDomain#used> 			"true" . 
<http://www.assero.co.uk/MDRSdtmUD/ACME/V1#D-ACME_DSDomain_V9> 			<http://www.assero.co.uk/BusinessDomain#key_ordinal> 			"0" . 
<http://www.assero.co.uk/MDRSdtmUD/ACME/V1#D-ACME_DSDomain_V9_IGV1> 			<http://www.w3.org/1999/02/22-rdf-syntax-ns#type> 			<http://www.assero.co.uk/BusinessOperational#CReference> . 
<http://www.assero.co.uk/MDRSdtmUD/ACME/V1#D-ACME_DSDomain_V9_IGV1> 			<http://www.w3.org/2000/01/rdf-schema#label> 			"Based on Variable Reference" . 
<http://www.assero.co.uk/MDRSdtmUD/ACME/V1#D-ACME_DSDomain_V9_IGV1> 			<http://www.assero.co.uk/BusinessOperational#hasColumn> 			<http://www.assero.co.uk/MDRSdtmIgD/CDISC/V3#IG-CDISC_SDTMIGDS_DSDECOD> . 
<http://www.assero.co.uk/MDRSdtmUD/ACME/V1#D-ACME_DSDomain_V9_IGV1> 			<http://www.assero.co.uk/BusinessOperational#ordinal> 			"1" . 
<http://www.assero.co.uk/MDRSdtmUD/ACME/V1#D-ACME_DSDomain_V9_IGV1> 			<http://www.assero.co.uk/BusinessOperational#enabled> 			"true" . 
<http://www.assero.co.uk/MDRSdtmUD/ACME/V1#D-ACME_DSDomain_V9_IGV1> 			<http://www.assero.co.uk/BusinessOperational#optional> 			"false" . 
<http://www.assero.co.uk/MDRSdtmUD/ACME/V1#D-ACME_DSDomain_V9_IGV1> 			<http://www.assero.co.uk/BusinessOperational#local_label> 			"" . 
<http://www.assero.co.uk/MDRSdtmUD/ACME/V1#D-ACME_DSDomain_V10> 			<http://www.w3.org/1999/02/22-rdf-syntax-ns#type> 			<http://www.assero.co.uk/BusinessDomain#UserVariable> . 
<http://www.assero.co.uk/MDRSdtmUD/ACME/V1#D-ACME_DSDomain_V10> 			<http://www.w3.org/2000/01/rdf-schema#label> 			"Category for Disposition Event" . 
<http://www.assero.co.uk/MDRSdtmUD/ACME/V1#D-ACME_DSDomain_V10> 			<http://www.assero.co.uk/BusinessDomain#basedOnVariable> 			<http://www.assero.co.uk/MDRSdtmUD/ACME/V1#D-ACME_DSDomain_V10_IGV1> . 
<http://www.assero.co.uk/MDRSdtmUD/ACME/V1#D-ACME_DSDomain_V10> 			<http://www.assero.co.uk/BusinessDomain#classifiedAs> 			<http://www.assero.co.uk/MDRSdtmM/CDISC/V3#M-CDISC_SDTMMODEL_C_QUALIFIER_SC_GROUPINGQUALIFIER> . 
<http://www.assero.co.uk/MDRSdtmUD/ACME/V1#D-ACME_DSDomain_V10> 			<http://www.assero.co.uk/BusinessDomain#typedAs> 			<http://www.assero.co.uk/MDRSdtmM/CDISC/V3#M-CDISC_SDTMMODEL_DT_CHAR> . 
<http://www.assero.co.uk/MDRSdtmUD/ACME/V1#D-ACME_DSDomain_V10> 			<http://www.assero.co.uk/BusinessDomain#compliance> 			<http://www.assero.co.uk/MDRSdtmIg/CDISC/V3#IG-CDISC_SDTMIG_C_EXPECTED> . 
<http://www.assero.co.uk/MDRSdtmUD/ACME/V1#D-ACME_DSDomain_V10> 			<http://www.assero.co.uk/BusinessDomain#rule> 			"" . 
<http://www.assero.co.uk/MDRSdtmUD/ACME/V1#D-ACME_DSDomain_V10> 			<http://www.assero.co.uk/BusinessDomain#ordinal> 			"10" . 
<http://www.assero.co.uk/MDRSdtmUD/ACME/V1#D-ACME_DSDomain_V10> 			<http://www.assero.co.uk/BusinessDomain#name> 			"DSCAT" . 
<http://www.assero.co.uk/MDRSdtmUD/ACME/V1#D-ACME_DSDomain_V10> 			<http://www.assero.co.uk/BusinessDomain#notes> 			"" . 
<http://www.assero.co.uk/MDRSdtmUD/ACME/V1#D-ACME_DSDomain_V10> 			<http://www.assero.co.uk/BusinessDomain#format> 			"" . 
<http://www.assero.co.uk/MDRSdtmUD/ACME/V1#D-ACME_DSDomain_V10> 			<http://www.assero.co.uk/BusinessDomain#ct> 			"DSCAT" . 
<http://www.assero.co.uk/MDRSdtmUD/ACME/V1#D-ACME_DSDomain_V10> 			<http://www.assero.co.uk/BusinessDomain#length> 			"0" . 
<http://www.assero.co.uk/MDRSdtmUD/ACME/V1#D-ACME_DSDomain_V10> 			<http://www.assero.co.uk/BusinessDomain#comment> 			"" . 
<http://www.assero.co.uk/MDRSdtmUD/ACME/V1#D-ACME_DSDomain_V10> 			<http://www.assero.co.uk/BusinessDomain#non_standard> 			"false" . 
<http://www.assero.co.uk/MDRSdtmUD/ACME/V1#D-ACME_DSDomain_V10> 			<http://www.assero.co.uk/BusinessDomain#used> 			"true" . 
<http://www.assero.co.uk/MDRSdtmUD/ACME/V1#D-ACME_DSDomain_V10> 			<http://www.assero.co.uk/BusinessDomain#key_ordinal> 			"0" . 
<http://www.assero.co.uk/MDRSdtmUD/ACME/V1#D-ACME_DSDomain_V10_IGV1> 			<http://www.w3.org/1999/02/22-rdf-syntax-ns#type> 			<http://www.assero.co.uk/BusinessOperational#CReference> . 
<http://www.assero.co.uk/MDRSdtmUD/ACME/V1#D-ACME_DSDomain_V10_IGV1> 			<http://www.w3.org/2000/01/rdf-schema#label> 			"Based on Variable Reference" . 
<http://www.assero.co.uk/MDRSdtmUD/ACME/V1#D-ACME_DSDomain_V10_IGV1> 			<http://www.assero.co.uk/BusinessOperational#hasColumn> 			<http://www.assero.co.uk/MDRSdtmIgD/CDISC/V3#IG-CDISC_SDTMIGDS_DSCAT> . 
<http://www.assero.co.uk/MDRSdtmUD/ACME/V1#D-ACME_DSDomain_V10_IGV1> 			<http://www.assero.co.uk/BusinessOperational#ordinal> 			"1" . 
<http://www.assero.co.uk/MDRSdtmUD/ACME/V1#D-ACME_DSDomain_V10_IGV1> 			<http://www.assero.co.uk/BusinessOperational#enabled> 			"true" . 
<http://www.assero.co.uk/MDRSdtmUD/ACME/V1#D-ACME_DSDomain_V10_IGV1> 			<http://www.assero.co.uk/BusinessOperational#optional> 			"false" . 
<http://www.assero.co.uk/MDRSdtmUD/ACME/V1#D-ACME_DSDomain_V10_IGV1> 			<http://www.assero.co.uk/BusinessOperational#local_label> 			"" . 
<http://www.assero.co.uk/MDRSdtmUD/ACME/V1#D-ACME_DSDomain_V11> 			<http://www.w3.org/1999/02/22-rdf-syntax-ns#type> 			<http://www.assero.co.uk/BusinessDomain#UserVariable> . 
<http://www.assero.co.uk/MDRSdtmUD/ACME/V1#D-ACME_DSDomain_V11> 			<http://www.w3.org/2000/01/rdf-schema#label> 			"Subcategory for Disposition Event" . 
<http://www.assero.co.uk/MDRSdtmUD/ACME/V1#D-ACME_DSDomain_V11> 			<http://www.assero.co.uk/BusinessDomain#basedOnVariable> 			<http://www.assero.co.uk/MDRSdtmUD/ACME/V1#D-ACME_DSDomain_V11_IGV1> . 
<http://www.assero.co.uk/MDRSdtmUD/ACME/V1#D-ACME_DSDomain_V11> 			<http://www.assero.co.uk/BusinessDomain#classifiedAs> 			<http://www.assero.co.uk/MDRSdtmM/CDISC/V3#M-CDISC_SDTMMODEL_C_QUALIFIER_SC_GROUPINGQUALIFIER> . 
<http://www.assero.co.uk/MDRSdtmUD/ACME/V1#D-ACME_DSDomain_V11> 			<http://www.assero.co.uk/BusinessDomain#typedAs> 			<http://www.assero.co.uk/MDRSdtmM/CDISC/V3#M-CDISC_SDTMMODEL_DT_CHAR> . 
<http://www.assero.co.uk/MDRSdtmUD/ACME/V1#D-ACME_DSDomain_V11> 			<http://www.assero.co.uk/BusinessDomain#compliance> 			<http://www.assero.co.uk/MDRSdtmIg/CDISC/V3#IG-CDISC_SDTMIG_C_PERMISSIBLE> . 
<http://www.assero.co.uk/MDRSdtmUD/ACME/V1#D-ACME_DSDomain_V11> 			<http://www.assero.co.uk/BusinessDomain#rule> 			"" . 
<http://www.assero.co.uk/MDRSdtmUD/ACME/V1#D-ACME_DSDomain_V11> 			<http://www.assero.co.uk/BusinessDomain#ordinal> 			"11" . 
<http://www.assero.co.uk/MDRSdtmUD/ACME/V1#D-ACME_DSDomain_V11> 			<http://www.assero.co.uk/BusinessDomain#name> 			"DSSCAT" . 
<http://www.assero.co.uk/MDRSdtmUD/ACME/V1#D-ACME_DSDomain_V11> 			<http://www.assero.co.uk/BusinessDomain#notes> 			"" . 
<http://www.assero.co.uk/MDRSdtmUD/ACME/V1#D-ACME_DSDomain_V11> 			<http://www.assero.co.uk/BusinessDomain#format> 			"" . 
<http://www.assero.co.uk/MDRSdtmUD/ACME/V1#D-ACME_DSDomain_V11> 			<http://www.assero.co.uk/BusinessDomain#ct> 			"" . 
<http://www.assero.co.uk/MDRSdtmUD/ACME/V1#D-ACME_DSDomain_V11> 			<http://www.assero.co.uk/BusinessDomain#length> 			"0" . 
<http://www.assero.co.uk/MDRSdtmUD/ACME/V1#D-ACME_DSDomain_V11> 			<http://www.assero.co.uk/BusinessDomain#comment> 			"" . 
<http://www.assero.co.uk/MDRSdtmUD/ACME/V1#D-ACME_DSDomain_V11> 			<http://www.assero.co.uk/BusinessDomain#non_standard> 			"false" . 
<http://www.assero.co.uk/MDRSdtmUD/ACME/V1#D-ACME_DSDomain_V11> 			<http://www.assero.co.uk/BusinessDomain#used> 			"true" . 
<http://www.assero.co.uk/MDRSdtmUD/ACME/V1#D-ACME_DSDomain_V11> 			<http://www.assero.co.uk/BusinessDomain#key_ordinal> 			"0" . 
<http://www.assero.co.uk/MDRSdtmUD/ACME/V1#D-ACME_DSDomain_V11_IGV1> 			<http://www.w3.org/1999/02/22-rdf-syntax-ns#type> 			<http://www.assero.co.uk/BusinessOperational#CReference> . 
<http://www.assero.co.uk/MDRSdtmUD/ACME/V1#D-ACME_DSDomain_V11_IGV1> 			<http://www.w3.org/2000/01/rdf-schema#label> 			"Based on Variable Reference" . 
<http://www.assero.co.uk/MDRSdtmUD/ACME/V1#D-ACME_DSDomain_V11_IGV1> 			<http://www.assero.co.uk/BusinessOperational#hasColumn> 			<http://www.assero.co.uk/MDRSdtmIgD/CDISC/V3#IG-CDISC_SDTMIGDS_DSSCAT> . 
<http://www.assero.co.uk/MDRSdtmUD/ACME/V1#D-ACME_DSDomain_V11_IGV1> 			<http://www.assero.co.uk/BusinessOperational#ordinal> 			"1" . 
<http://www.assero.co.uk/MDRSdtmUD/ACME/V1#D-ACME_DSDomain_V11_IGV1> 			<http://www.assero.co.uk/BusinessOperational#enabled> 			"true" . 
<http://www.assero.co.uk/MDRSdtmUD/ACME/V1#D-ACME_DSDomain_V11_IGV1> 			<http://www.assero.co.uk/BusinessOperational#optional> 			"false" . 
<http://www.assero.co.uk/MDRSdtmUD/ACME/V1#D-ACME_DSDomain_V11_IGV1> 			<http://www.assero.co.uk/BusinessOperational#local_label> 			"" . 
<http://www.assero.co.uk/MDRSdtmUD/ACME/V1#D-ACME_DSDomain_V12> 			<http://www.w3.org/1999/02/22-rdf-syntax-ns#type> 			<http://www.assero.co.uk/BusinessDomain#UserVariable> . 
<http://www.assero.co.uk/MDRSdtmUD/ACME/V1#D-ACME_DSDomain_V12> 			<http://www.w3.org/2000/01/rdf-schema#label> 			"Epoch" . 
<http://www.assero.co.uk/MDRSdtmUD/ACME/V1#D-ACME_DSDomain_V12> 			<http://www.assero.co.uk/BusinessDomain#basedOnVariable> 			<http://www.assero.co.uk/MDRSdtmUD/ACME/V1#D-ACME_DSDomain_V12_IGV1> . 
<http://www.assero.co.uk/MDRSdtmUD/ACME/V1#D-ACME_DSDomain_V12> 			<http://www.assero.co.uk/BusinessDomain#classifiedAs> 			<http://www.assero.co.uk/MDRSdtmM/CDISC/V3#M-CDISC_SDTMMODEL_C_TIMING> . 
<http://www.assero.co.uk/MDRSdtmUD/ACME/V1#D-ACME_DSDomain_V12> 			<http://www.assero.co.uk/BusinessDomain#typedAs> 			<http://www.assero.co.uk/MDRSdtmM/CDISC/V3#M-CDISC_SDTMMODEL_DT_CHAR> . 
<http://www.assero.co.uk/MDRSdtmUD/ACME/V1#D-ACME_DSDomain_V12> 			<http://www.assero.co.uk/BusinessDomain#compliance> 			<http://www.assero.co.uk/MDRSdtmIg/CDISC/V3#IG-CDISC_SDTMIG_C_PERMISSIBLE> . 
<http://www.assero.co.uk/MDRSdtmUD/ACME/V1#D-ACME_DSDomain_V12> 			<http://www.assero.co.uk/BusinessDomain#rule> 			"" . 
<http://www.assero.co.uk/MDRSdtmUD/ACME/V1#D-ACME_DSDomain_V12> 			<http://www.assero.co.uk/BusinessDomain#ordinal> 			"12" . 
<http://www.assero.co.uk/MDRSdtmUD/ACME/V1#D-ACME_DSDomain_V12> 			<http://www.assero.co.uk/BusinessDomain#name> 			"EPOCH" . 
<http://www.assero.co.uk/MDRSdtmUD/ACME/V1#D-ACME_DSDomain_V12> 			<http://www.assero.co.uk/BusinessDomain#notes> 			"" . 
<http://www.assero.co.uk/MDRSdtmUD/ACME/V1#D-ACME_DSDomain_V12> 			<http://www.assero.co.uk/BusinessDomain#format> 			"" . 
<http://www.assero.co.uk/MDRSdtmUD/ACME/V1#D-ACME_DSDomain_V12> 			<http://www.assero.co.uk/BusinessDomain#ct> 			"EPOCH" . 
<http://www.assero.co.uk/MDRSdtmUD/ACME/V1#D-ACME_DSDomain_V12> 			<http://www.assero.co.uk/BusinessDomain#length> 			"0" . 
<http://www.assero.co.uk/MDRSdtmUD/ACME/V1#D-ACME_DSDomain_V12> 			<http://www.assero.co.uk/BusinessDomain#comment> 			"" . 
<http://www.assero.co.uk/MDRSdtmUD/ACME/V1#D-ACME_DSDomain_V12> 			<http://www.assero.co.uk/BusinessDomain#non_standard> 			"false" . 
<http://www.assero.co.uk/MDRSdtmUD/ACME/V1#D-ACME_DSDomain_V12> 			<http://www.assero.co.uk/BusinessDomain#used> 			"true" . 
<http://www.assero.co.uk/MDRSdtmUD/ACME/V1#D-ACME_DSDomain_V12> 			<http://www.assero.co.uk/BusinessDomain#key_ordinal> 			"0" . 
<http://www.assero.co.uk/MDRSdtmUD/ACME/V1#D-ACME_DSDomain_V12_IGV1> 			<http://www.w3.org/1999/02/22-rdf-syntax-ns#type> 			<http://www.assero.co.uk/BusinessOperational#CReference> . 
<http://www.assero.co.uk/MDRSdtmUD/ACME/V1#D-ACME_DSDomain_V12_IGV1> 			<http://www.w3.org/2000/01/rdf-schema#label> 			"Based on Variable Reference" . 
<http://www.assero.co.uk/MDRSdtmUD/ACME/V1#D-ACME_DSDomain_V12_IGV1> 			<http://www.assero.co.uk/BusinessOperational#hasColumn> 			<http://www.assero.co.uk/MDRSdtmIgD/CDISC/V3#IG-CDISC_SDTMIGDS_EPOCH> . 
<http://www.assero.co.uk/MDRSdtmUD/ACME/V1#D-ACME_DSDomain_V12_IGV1> 			<http://www.assero.co.uk/BusinessOperational#ordinal> 			"1" . 
<http://www.assero.co.uk/MDRSdtmUD/ACME/V1#D-ACME_DSDomain_V12_IGV1> 			<http://www.assero.co.uk/BusinessOperational#enabled> 			"true" . 
<http://www.assero.co.uk/MDRSdtmUD/ACME/V1#D-ACME_DSDomain_V12_IGV1> 			<http://www.assero.co.uk/BusinessOperational#optional> 			"false" . 
<http://www.assero.co.uk/MDRSdtmUD/ACME/V1#D-ACME_DSDomain_V12_IGV1> 			<http://www.assero.co.uk/BusinessOperational#local_label> 			"" . 
<http://www.assero.co.uk/MDRSdtmUD/ACME/V1#D-ACME_DSDomain_V13> 			<http://www.w3.org/1999/02/22-rdf-syntax-ns#type> 			<http://www.assero.co.uk/BusinessDomain#UserVariable> . 
<http://www.assero.co.uk/MDRSdtmUD/ACME/V1#D-ACME_DSDomain_V13> 			<http://www.w3.org/2000/01/rdf-schema#label> 			"Date/Time of Collection" . 
<http://www.assero.co.uk/MDRSdtmUD/ACME/V1#D-ACME_DSDomain_V13> 			<http://www.assero.co.uk/BusinessDomain#basedOnVariable> 			<http://www.assero.co.uk/MDRSdtmUD/ACME/V1#D-ACME_DSDomain_V13_IGV1> . 
<http://www.assero.co.uk/MDRSdtmUD/ACME/V1#D-ACME_DSDomain_V13> 			<http://www.assero.co.uk/BusinessDomain#classifiedAs> 			<http://www.assero.co.uk/MDRSdtmM/CDISC/V3#M-CDISC_SDTMMODEL_C_TIMING> . 
<http://www.assero.co.uk/MDRSdtmUD/ACME/V1#D-ACME_DSDomain_V13> 			<http://www.assero.co.uk/BusinessDomain#typedAs> 			<http://www.assero.co.uk/MDRSdtmM/CDISC/V3#M-CDISC_SDTMMODEL_DT_CHAR> . 
<http://www.assero.co.uk/MDRSdtmUD/ACME/V1#D-ACME_DSDomain_V13> 			<http://www.assero.co.uk/BusinessDomain#compliance> 			<http://www.assero.co.uk/MDRSdtmIg/CDISC/V3#IG-CDISC_SDTMIG_C_PERMISSIBLE> . 
<http://www.assero.co.uk/MDRSdtmUD/ACME/V1#D-ACME_DSDomain_V13> 			<http://www.assero.co.uk/BusinessDomain#rule> 			"" . 
<http://www.assero.co.uk/MDRSdtmUD/ACME/V1#D-ACME_DSDomain_V13> 			<http://www.assero.co.uk/BusinessDomain#ordinal> 			"13" . 
<http://www.assero.co.uk/MDRSdtmUD/ACME/V1#D-ACME_DSDomain_V13> 			<http://www.assero.co.uk/BusinessDomain#name> 			"DSDTC" . 
<http://www.assero.co.uk/MDRSdtmUD/ACME/V1#D-ACME_DSDomain_V13> 			<http://www.assero.co.uk/BusinessDomain#notes> 			"" . 
<http://www.assero.co.uk/MDRSdtmUD/ACME/V1#D-ACME_DSDomain_V13> 			<http://www.assero.co.uk/BusinessDomain#format> 			"ISO 8601" . 
<http://www.assero.co.uk/MDRSdtmUD/ACME/V1#D-ACME_DSDomain_V13> 			<http://www.assero.co.uk/BusinessDomain#ct> 			"" . 
<http://www.assero.co.uk/MDRSdtmUD/ACME/V1#D-ACME_DSDomain_V13> 			<http://www.assero.co.uk/BusinessDomain#length> 			"0" . 
<http://www.assero.co.uk/MDRSdtmUD/ACME/V1#D-ACME_DSDomain_V13> 			<http://www.assero.co.uk/BusinessDomain#comment> 			"" . 
<http://www.assero.co.uk/MDRSdtmUD/ACME/V1#D-ACME_DSDomain_V13> 			<http://www.assero.co.uk/BusinessDomain#non_standard> 			"false" . 
<http://www.assero.co.uk/MDRSdtmUD/ACME/V1#D-ACME_DSDomain_V13> 			<http://www.assero.co.uk/BusinessDomain#used> 			"true" . 
<http://www.assero.co.uk/MDRSdtmUD/ACME/V1#D-ACME_DSDomain_V13> 			<http://www.assero.co.uk/BusinessDomain#key_ordinal> 			"0" . 
<http://www.assero.co.uk/MDRSdtmUD/ACME/V1#D-ACME_DSDomain_V13_IGV1> 			<http://www.w3.org/1999/02/22-rdf-syntax-ns#type> 			<http://www.assero.co.uk/BusinessOperational#CReference> . 
<http://www.assero.co.uk/MDRSdtmUD/ACME/V1#D-ACME_DSDomain_V13_IGV1> 			<http://www.w3.org/2000/01/rdf-schema#label> 			"Based on Variable Reference" . 
<http://www.assero.co.uk/MDRSdtmUD/ACME/V1#D-ACME_DSDomain_V13_IGV1> 			<http://www.assero.co.uk/BusinessOperational#hasColumn> 			<http://www.assero.co.uk/MDRSdtmIgD/CDISC/V3#IG-CDISC_SDTMIGDS_DSDTC> . 
<http://www.assero.co.uk/MDRSdtmUD/ACME/V1#D-ACME_DSDomain_V13_IGV1> 			<http://www.assero.co.uk/BusinessOperational#ordinal> 			"1" . 
<http://www.assero.co.uk/MDRSdtmUD/ACME/V1#D-ACME_DSDomain_V13_IGV1> 			<http://www.assero.co.uk/BusinessOperational#enabled> 			"true" . 
<http://www.assero.co.uk/MDRSdtmUD/ACME/V1#D-ACME_DSDomain_V13_IGV1> 			<http://www.assero.co.uk/BusinessOperational#optional> 			"false" . 
<http://www.assero.co.uk/MDRSdtmUD/ACME/V1#D-ACME_DSDomain_V13_IGV1> 			<http://www.assero.co.uk/BusinessOperational#local_label> 			"" . 
<http://www.assero.co.uk/MDRSdtmUD/ACME/V1#D-ACME_DSDomain_V14> 			<http://www.w3.org/1999/02/22-rdf-syntax-ns#type> 			<http://www.assero.co.uk/BusinessDomain#UserVariable> . 
<http://www.assero.co.uk/MDRSdtmUD/ACME/V1#D-ACME_DSDomain_V14> 			<http://www.w3.org/2000/01/rdf-schema#label> 			"Start Date/Time of Disposition Event" . 
<http://www.assero.co.uk/MDRSdtmUD/ACME/V1#D-ACME_DSDomain_V14> 			<http://www.assero.co.uk/BusinessDomain#basedOnVariable> 			<http://www.assero.co.uk/MDRSdtmUD/ACME/V1#D-ACME_DSDomain_V14_IGV1> . 
<http://www.assero.co.uk/MDRSdtmUD/ACME/V1#D-ACME_DSDomain_V14> 			<http://www.assero.co.uk/BusinessDomain#classifiedAs> 			<http://www.assero.co.uk/MDRSdtmM/CDISC/V3#M-CDISC_SDTMMODEL_C_TIMING> . 
<http://www.assero.co.uk/MDRSdtmUD/ACME/V1#D-ACME_DSDomain_V14> 			<http://www.assero.co.uk/BusinessDomain#typedAs> 			<http://www.assero.co.uk/MDRSdtmM/CDISC/V3#M-CDISC_SDTMMODEL_DT_CHAR> . 
<http://www.assero.co.uk/MDRSdtmUD/ACME/V1#D-ACME_DSDomain_V14> 			<http://www.assero.co.uk/BusinessDomain#compliance> 			<http://www.assero.co.uk/MDRSdtmIg/CDISC/V3#IG-CDISC_SDTMIG_C_EXPECTED> . 
<http://www.assero.co.uk/MDRSdtmUD/ACME/V1#D-ACME_DSDomain_V14> 			<http://www.assero.co.uk/BusinessDomain#rule> 			"" . 
<http://www.assero.co.uk/MDRSdtmUD/ACME/V1#D-ACME_DSDomain_V14> 			<http://www.assero.co.uk/BusinessDomain#ordinal> 			"14" . 
<http://www.assero.co.uk/MDRSdtmUD/ACME/V1#D-ACME_DSDomain_V14> 			<http://www.assero.co.uk/BusinessDomain#name> 			"DSSTDTC" . 
<http://www.assero.co.uk/MDRSdtmUD/ACME/V1#D-ACME_DSDomain_V14> 			<http://www.assero.co.uk/BusinessDomain#notes> 			"" . 
<http://www.assero.co.uk/MDRSdtmUD/ACME/V1#D-ACME_DSDomain_V14> 			<http://www.assero.co.uk/BusinessDomain#format> 			"ISO 8601" . 
<http://www.assero.co.uk/MDRSdtmUD/ACME/V1#D-ACME_DSDomain_V14> 			<http://www.assero.co.uk/BusinessDomain#ct> 			"" . 
<http://www.assero.co.uk/MDRSdtmUD/ACME/V1#D-ACME_DSDomain_V14> 			<http://www.assero.co.uk/BusinessDomain#length> 			"0" . 
<http://www.assero.co.uk/MDRSdtmUD/ACME/V1#D-ACME_DSDomain_V14> 			<http://www.assero.co.uk/BusinessDomain#comment> 			"" . 
<http://www.assero.co.uk/MDRSdtmUD/ACME/V1#D-ACME_DSDomain_V14> 			<http://www.assero.co.uk/BusinessDomain#non_standard> 			"false" . 
<http://www.assero.co.uk/MDRSdtmUD/ACME/V1#D-ACME_DSDomain_V14> 			<http://www.assero.co.uk/BusinessDomain#used> 			"true" . 
<http://www.assero.co.uk/MDRSdtmUD/ACME/V1#D-ACME_DSDomain_V14> 			<http://www.assero.co.uk/BusinessDomain#key_ordinal> 			"0" . 
<http://www.assero.co.uk/MDRSdtmUD/ACME/V1#D-ACME_DSDomain_V14_IGV1> 			<http://www.w3.org/1999/02/22-rdf-syntax-ns#type> 			<http://www.assero.co.uk/BusinessOperational#CReference> . 
<http://www.assero.co.uk/MDRSdtmUD/ACME/V1#D-ACME_DSDomain_V14_IGV1> 			<http://www.w3.org/2000/01/rdf-schema#label> 			"Based on Variable Reference" . 
<http://www.assero.co.uk/MDRSdtmUD/ACME/V1#D-ACME_DSDomain_V14_IGV1> 			<http://www.assero.co.uk/BusinessOperational#hasColumn> 			<http://www.assero.co.uk/MDRSdtmIgD/CDISC/V3#IG-CDISC_SDTMIGDS_DSSTDTC> . 
<http://www.assero.co.uk/MDRSdtmUD/ACME/V1#D-ACME_DSDomain_V14_IGV1> 			<http://www.assero.co.uk/BusinessOperational#ordinal> 			"1" . 
<http://www.assero.co.uk/MDRSdtmUD/ACME/V1#D-ACME_DSDomain_V14_IGV1> 			<http://www.assero.co.uk/BusinessOperational#enabled> 			"true" . 
<http://www.assero.co.uk/MDRSdtmUD/ACME/V1#D-ACME_DSDomain_V14_IGV1> 			<http://www.assero.co.uk/BusinessOperational#optional> 			"false" . 
<http://www.assero.co.uk/MDRSdtmUD/ACME/V1#D-ACME_DSDomain_V14_IGV1> 			<http://www.assero.co.uk/BusinessOperational#local_label> 			"" . 
<http://www.assero.co.uk/MDRSdtmUD/ACME/V1#D-ACME_DSDomain_V15> 			<http://www.w3.org/1999/02/22-rdf-syntax-ns#type> 			<http://www.assero.co.uk/BusinessDomain#UserVariable> . 
<http://www.assero.co.uk/MDRSdtmUD/ACME/V1#D-ACME_DSDomain_V15> 			<http://www.w3.org/2000/01/rdf-schema#label> 			"Study Day of Start of Disposition Event" . 
<http://www.assero.co.uk/MDRSdtmUD/ACME/V1#D-ACME_DSDomain_V15> 			<http://www.assero.co.uk/BusinessDomain#basedOnVariable> 			<http://www.assero.co.uk/MDRSdtmUD/ACME/V1#D-ACME_DSDomain_V15_IGV1> . 
<http://www.assero.co.uk/MDRSdtmUD/ACME/V1#D-ACME_DSDomain_V15> 			<http://www.assero.co.uk/BusinessDomain#classifiedAs> 			<http://www.assero.co.uk/MDRSdtmM/CDISC/V3#M-CDISC_SDTMMODEL_C_TIMING> . 
<http://www.assero.co.uk/MDRSdtmUD/ACME/V1#D-ACME_DSDomain_V15> 			<http://www.assero.co.uk/BusinessDomain#typedAs> 			<http://www.assero.co.uk/MDRSdtmM/CDISC/V3#M-CDISC_SDTMMODEL_DT_NUM> . 
<http://www.assero.co.uk/MDRSdtmUD/ACME/V1#D-ACME_DSDomain_V15> 			<http://www.assero.co.uk/BusinessDomain#compliance> 			<http://www.assero.co.uk/MDRSdtmIg/CDISC/V3#IG-CDISC_SDTMIG_C_PERMISSIBLE> . 
<http://www.assero.co.uk/MDRSdtmUD/ACME/V1#D-ACME_DSDomain_V15> 			<http://www.assero.co.uk/BusinessDomain#rule> 			"" . 
<http://www.assero.co.uk/MDRSdtmUD/ACME/V1#D-ACME_DSDomain_V15> 			<http://www.assero.co.uk/BusinessDomain#ordinal> 			"15" . 
<http://www.assero.co.uk/MDRSdtmUD/ACME/V1#D-ACME_DSDomain_V15> 			<http://www.assero.co.uk/BusinessDomain#name> 			"DSSTDY" . 
<http://www.assero.co.uk/MDRSdtmUD/ACME/V1#D-ACME_DSDomain_V15> 			<http://www.assero.co.uk/BusinessDomain#notes> 			"" . 
<http://www.assero.co.uk/MDRSdtmUD/ACME/V1#D-ACME_DSDomain_V15> 			<http://www.assero.co.uk/BusinessDomain#format> 			"" . 
<http://www.assero.co.uk/MDRSdtmUD/ACME/V1#D-ACME_DSDomain_V15> 			<http://www.assero.co.uk/BusinessDomain#ct> 			"" . 
<http://www.assero.co.uk/MDRSdtmUD/ACME/V1#D-ACME_DSDomain_V15> 			<http://www.assero.co.uk/BusinessDomain#length> 			"0" . 
<http://www.assero.co.uk/MDRSdtmUD/ACME/V1#D-ACME_DSDomain_V15> 			<http://www.assero.co.uk/BusinessDomain#comment> 			"" . 
<http://www.assero.co.uk/MDRSdtmUD/ACME/V1#D-ACME_DSDomain_V15> 			<http://www.assero.co.uk/BusinessDomain#non_standard> 			"false" . 
<http://www.assero.co.uk/MDRSdtmUD/ACME/V1#D-ACME_DSDomain_V15> 			<http://www.assero.co.uk/BusinessDomain#used> 			"true" . 
<http://www.assero.co.uk/MDRSdtmUD/ACME/V1#D-ACME_DSDomain_V15> 			<http://www.assero.co.uk/BusinessDomain#key_ordinal> 			"0" . 
<http://www.assero.co.uk/MDRSdtmUD/ACME/V1#D-ACME_DSDomain_V15_IGV1> 			<http://www.w3.org/1999/02/22-rdf-syntax-ns#type> 			<http://www.assero.co.uk/BusinessOperational#CReference> . 
<http://www.assero.co.uk/MDRSdtmUD/ACME/V1#D-ACME_DSDomain_V15_IGV1> 			<http://www.w3.org/2000/01/rdf-schema#label> 			"Based on Variable Reference" . 
<http://www.assero.co.uk/MDRSdtmUD/ACME/V1#D-ACME_DSDomain_V15_IGV1> 			<http://www.assero.co.uk/BusinessOperational#hasColumn> 			<http://www.assero.co.uk/MDRSdtmIgD/CDISC/V3#IG-CDISC_SDTMIGDS_DSSTDY> . 
<http://www.assero.co.uk/MDRSdtmUD/ACME/V1#D-ACME_DSDomain_V15_IGV1> 			<http://www.assero.co.uk/BusinessOperational#ordinal> 			"1" . 
<http://www.assero.co.uk/MDRSdtmUD/ACME/V1#D-ACME_DSDomain_V15_IGV1> 			<http://www.assero.co.uk/BusinessOperational#enabled> 			"true" . 
<http://www.assero.co.uk/MDRSdtmUD/ACME/V1#D-ACME_DSDomain_V15_IGV1> 			<http://www.assero.co.uk/BusinessOperational#optional> 			"false" . 
<http://www.assero.co.uk/MDRSdtmUD/ACME/V1#D-ACME_DSDomain_V15_IGV1> 			<http://www.assero.co.uk/BusinessOperational#local_label> 			"" . 
<http://www.assero.co.uk/MDRSdtmUD/ACME/V1#D-ACME_DSDomain_IGD1> 			<http://www.w3.org/1999/02/22-rdf-syntax-ns#type> 			<http://www.assero.co.uk/BusinessOperational#TReference> . 
<http://www.assero.co.uk/MDRSdtmUD/ACME/V1#D-ACME_DSDomain_IGD1> 			<http://www.w3.org/2000/01/rdf-schema#label> 			"Based on Domain Reference" . 
<http://www.assero.co.uk/MDRSdtmUD/ACME/V1#D-ACME_DSDomain_IGD1> 			<http://www.assero.co.uk/BusinessOperational#hasTabulation> 			<http://www.assero.co.uk/MDRSdtmIgD/CDISC/V3#IG-CDISC_SDTMIGDS> . 
<http://www.assero.co.uk/MDRSdtmUD/ACME/V1#D-ACME_DSDomain_IGD1> 			<http://www.assero.co.uk/BusinessOperational#ordinal> 			"1" . 
<http://www.assero.co.uk/MDRSdtmUD/ACME/V1#D-ACME_DSDomain_IGD1> 			<http://www.assero.co.uk/BusinessOperational#enabled> 			"true" . 
<http://www.assero.co.uk/MDRSdtmUD/ACME/V1#D-ACME_DSDomain_IGD1> 			<http://www.assero.co.uk/BusinessOperational#optional> 			"false" . 
<http://www.assero.co.uk/MDRSdtmUD/ACME/V1#D-ACME_DSDomain_IGD1> 			<http://www.assero.co.uk/BusinessOperational#local_label> 			"" . 
<http://www.assero.co.uk/MDRSdtmUD/ACME/V1#D-ACME_DSDomain_MD1> 			<http://www.w3.org/1999/02/22-rdf-syntax-ns#type> 			<http://www.assero.co.uk/BusinessOperational#TReference> . 
<http://www.assero.co.uk/MDRSdtmUD/ACME/V1#D-ACME_DSDomain_MD1> 			<http://www.w3.org/2000/01/rdf-schema#label> 			"Based on Domain Reference" . 
<http://www.assero.co.uk/MDRSdtmUD/ACME/V1#D-ACME_DSDomain_MD1> 			<http://www.assero.co.uk/BusinessOperational#hasTabulation> 			<http://www.assero.co.uk/MDRSdtmMd/CDISC/V3#M-CDISC_SDTMMODELEVENTS> . 
<http://www.assero.co.uk/MDRSdtmUD/ACME/V1#D-ACME_DSDomain_MD1> 			<http://www.assero.co.uk/BusinessOperational#ordinal> 			"1" . 
<http://www.assero.co.uk/MDRSdtmUD/ACME/V1#D-ACME_DSDomain_MD1> 			<http://www.assero.co.uk/BusinessOperational#enabled> 			"true" . 
<http://www.assero.co.uk/MDRSdtmUD/ACME/V1#D-ACME_DSDomain_MD1> 			<http://www.assero.co.uk/BusinessOperational#optional> 			"false" . 
<http://www.assero.co.uk/MDRSdtmUD/ACME/V1#D-ACME_DSDomain_MD1> 			<http://www.assero.co.uk/BusinessOperational#local_label> 			"" . 
<http://www.assero.co.uk/MDRItems#SI-ACME_DSDomain-1> 			<http://www.w3.org/1999/02/22-rdf-syntax-ns#type> 			<http://www.assero.co.uk/ISO11179Identification#ScopedIdentifier> . 
<http://www.assero.co.uk/MDRItems#SI-ACME_DSDomain-1> 			<http://www.assero.co.uk/ISO11179Identification#hasScope> 			<http://www.assero.co.uk/NS#ACME> . 
<http://www.assero.co.uk/MDRItems#SI-ACME_DSDomain-1> 			<http://www.assero.co.uk/ISO11179Identification#identifier> 			"DS Domain" . 
<http://www.assero.co.uk/MDRItems#SI-ACME_DSDomain-1> 			<http://www.assero.co.uk/ISO11179Identification#version> 			"1" . 
<http://www.assero.co.uk/MDRItems#SI-ACME_DSDomain-1> 			<http://www.assero.co.uk/ISO11179Identification#semanticVersion> 			"0.1.0" . 
<http://www.assero.co.uk/MDRItems#SI-ACME_DSDomain-1> 			<http://www.assero.co.uk/ISO11179Identification#versionLabel> 			"" . 
<http://www.assero.co.uk/MDRItems#RS-ACME_DSDomain-1> 			<http://www.w3.org/1999/02/22-rdf-syntax-ns#type> 			<http://www.assero.co.uk/ISO11179Registration#RegistrationState> . 
<http://www.assero.co.uk/MDRItems#RS-ACME_DSDomain-1> 			<http://www.assero.co.uk/ISO11179Registration#byAuthority> 			<http://www.assero.co.uk/RA#DUNS123456789> . 
<http://www.assero.co.uk/MDRItems#RS-ACME_DSDomain-1> 			<http://www.assero.co.uk/ISO11179Registration#registrationStatus> 			"Incomplete" . 
<http://www.assero.co.uk/MDRItems#RS-ACME_DSDomain-1> 			<http://www.assero.co.uk/ISO11179Registration#effectiveDate> 			"2016-01-01T00:00:00+00:00" . 
<http://www.assero.co.uk/MDRItems#RS-ACME_DSDomain-1> 			<http://www.assero.co.uk/ISO11179Registration#untilDate> 			"2016-01-01T00:00:00+00:00" . 
<http://www.assero.co.uk/MDRItems#RS-ACME_DSDomain-1> 			<http://www.assero.co.uk/ISO11179Registration#administrativeNote> 			"" . 
<http://www.assero.co.uk/MDRItems#RS-ACME_DSDomain-1> 			<http://www.assero.co.uk/ISO11179Registration#unresolvedIssue> 			"" . 
<http://www.assero.co.uk/MDRItems#RS-ACME_DSDomain-1> 			<http://www.assero.co.uk/ISO11179Registration#administrativeStatus> 			"" . 
<http://www.assero.co.uk/MDRItems#RS-ACME_DSDomain-1> 			<http://www.assero.co.uk/ISO11179Registration#previousState> 			"Incomplete" . 
