---
- :type: MODEL
  :order: 1
  :instance:
    :operation:
      :action: CREATE
      :new_version: '1'
      :new_semantic_version: 0.1.0
      :new_state: Standard
      :identifier_edit: true
    :managed_item:
      :type: http://www.assero.co.uk/BusinessDomain#Model
      :id: ''
      :namespace: ''
      :label: SDTM Model 2017-01-01
      :extension_properties: []
      :origin: ''
      :change_description: ''
      :creation_date: '2017-01-01'
      :last_changed_date: '2017-10-19T07:37:43+01:00'
      :explanatory_comment: ''
      :registration_state:
        :namespace: http://www.assero.co.uk/MDRItems
        :id: ''
        :registration_authority:
          :id: ''
          :number: "<Not Set>"
          :scheme: DUNS
          :owner: false
          :namespace:
            :namespace: ''
            :id: ''
            :name: ''
            :shortName: ''
        :registration_status: Not_Set
        :administrative_note: ''
        :effective_date: '2016-01-01T00:00:00+00:00'
        :until_date: '2016-01-01T00:00:00+00:00'
        :current: false
        :unresolved_issue: ''
        :administrative_status: ''
        :previous_state: Not_Set
      :scoped_identifier:
        :id: ''
        :identifier: SDTM MODEL
        :version_label: Version Label
        :version: 0
        :semantic_version: 0.0.0
        :namespace:
          :namespace: ''
          :id: ''
          :name: ''
          :shortName: ''
      :ordinal: 0
      :rule: ''
      :children:
      - :type: http://www.assero.co.uk/BusinessDomain#ModelVariable
        :id: ''
        :namespace: ''
        :label: Study Identifier
        :extension_properties: []
        :ordinal: '1'
        :rule: ''
        :name: STUDYID
        :prefixed: false
        :description: Unique identifier for a study.
        :datatype:
          :type: http://www.assero.co.uk/BusinessDomain#VariableType
          :id: ''
          :namespace: ''
          :label: Char
          :extension_properties: []
        :classification:
          :type: http://www.assero.co.uk/BusinessDomain#VariableClassification
          :id: ''
          :namespace: ''
          :label: Identifier
          :extension_properties: []
        :sub_classification:
          :type: http://www.assero.co.uk/BusinessDomain#VariableClassification
          :id: ''
          :namespace: ''
          :label: Not Applicable
          :extension_properties: []
      - :type: http://www.assero.co.uk/BusinessDomain#ModelVariable
        :id: ''
        :namespace: ''
        :label: Domain Abbreviation
        :extension_properties: []
        :ordinal: '2'
        :rule: ''
        :name: DOMAIN
        :prefixed: false
        :description: Two-character abbreviation for the domain most relevant to the
          observation. The Domain abbreviation is also used as a prefix for variables
          to ensure uniqueness when datasets are merged.
        :datatype:
          :type: http://www.assero.co.uk/BusinessDomain#VariableType
          :id: ''
          :namespace: ''
          :label: Char
          :extension_properties: []
        :classification:
          :type: http://www.assero.co.uk/BusinessDomain#VariableClassification
          :id: ''
          :namespace: ''
          :label: Identifier
          :extension_properties: []
        :sub_classification:
          :type: http://www.assero.co.uk/BusinessDomain#VariableClassification
          :id: ''
          :namespace: ''
          :label: Not Applicable
          :extension_properties: []
      - :type: http://www.assero.co.uk/BusinessDomain#ModelVariable
        :id: ''
        :namespace: ''
        :label: Unique Subject Identifier
        :extension_properties: []
        :ordinal: '3'
        :rule: ''
        :name: USUBJID
        :prefixed: false
        :description: Identifier used to uniquely identify a subject across all studies
          for all applications or submissions involving the product.
        :datatype:
          :type: http://www.assero.co.uk/BusinessDomain#VariableType
          :id: ''
          :namespace: ''
          :label: Char
          :extension_properties: []
        :classification:
          :type: http://www.assero.co.uk/BusinessDomain#VariableClassification
          :id: ''
          :namespace: ''
          :label: Identifier
          :extension_properties: []
        :sub_classification:
          :type: http://www.assero.co.uk/BusinessDomain#VariableClassification
          :id: ''
          :namespace: ''
          :label: Not Applicable
          :extension_properties: []
      - :type: http://www.assero.co.uk/BusinessDomain#ModelVariable
        :id: ''
        :namespace: ''
        :label: Pool Identifier
        :extension_properties: []
        :ordinal: '4'
        :rule: ''
        :name: POOLID
        :prefixed: false
        :description: An identifier used to identify a result from a group of subjects
          that is not assignable to a specific subject.
        :datatype:
          :type: http://www.assero.co.uk/BusinessDomain#VariableType
          :id: ''
          :namespace: ''
          :label: Char
          :extension_properties: []
        :classification:
          :type: http://www.assero.co.uk/BusinessDomain#VariableClassification
          :id: ''
          :namespace: ''
          :label: Identifier
          :extension_properties: []
        :sub_classification:
          :type: http://www.assero.co.uk/BusinessDomain#VariableClassification
          :id: ''
          :namespace: ''
          :label: Not Applicable
          :extension_properties: []
      - :type: http://www.assero.co.uk/BusinessDomain#ModelVariable
        :id: ''
        :namespace: ''
        :label: Sponsor Device Identifier
        :extension_properties: []
        :ordinal: '5'
        :rule: ''
        :name: SPDEVID
        :prefixed: false
        :description: Sponsor-defined identifier for a device
        :datatype:
          :type: http://www.assero.co.uk/BusinessDomain#VariableType
          :id: ''
          :namespace: ''
          :label: Char
          :extension_properties: []
        :classification:
          :type: http://www.assero.co.uk/BusinessDomain#VariableClassification
          :id: ''
          :namespace: ''
          :label: Identifier
          :extension_properties: []
        :sub_classification:
          :type: http://www.assero.co.uk/BusinessDomain#VariableClassification
          :id: ''
          :namespace: ''
          :label: Not Applicable
          :extension_properties: []
      - :type: http://www.assero.co.uk/BusinessDomain#ModelVariable
        :id: ''
        :namespace: ''
        :label: Sequence Number
        :extension_properties: []
        :ordinal: '6'
        :rule: ''
        :name: "--SEQ"
        :prefixed: true
        :description: Sequence number to ensure uniqueness of records within a dataset
          for a subject (or within a parameter, in the case of the Trial Summary domain).
          May be any valid number (including decimals) and does not have to start
          at 1.
        :datatype:
          :type: http://www.assero.co.uk/BusinessDomain#VariableType
          :id: ''
          :namespace: ''
          :label: Num
          :extension_properties: []
        :classification:
          :type: http://www.assero.co.uk/BusinessDomain#VariableClassification
          :id: ''
          :namespace: ''
          :label: Identifier
          :extension_properties: []
        :sub_classification:
          :type: http://www.assero.co.uk/BusinessDomain#VariableClassification
          :id: ''
          :namespace: ''
          :label: Not Applicable
          :extension_properties: []
      - :type: http://www.assero.co.uk/BusinessDomain#ModelVariable
        :id: ''
        :namespace: ''
        :label: Group ID
        :extension_properties: []
        :ordinal: '7'
        :rule: ''
        :name: "--GRPID"
        :prefixed: true
        :description: Optional group identifier, used to link together a block of
          related records within a subject in a domain. Also used to link together
          a block of related records in the Trial Summary dataset (Section 3.4).
        :datatype:
          :type: http://www.assero.co.uk/BusinessDomain#VariableType
          :id: ''
          :namespace: ''
          :label: Char
          :extension_properties: []
        :classification:
          :type: http://www.assero.co.uk/BusinessDomain#VariableClassification
          :id: ''
          :namespace: ''
          :label: Identifier
          :extension_properties: []
        :sub_classification:
          :type: http://www.assero.co.uk/BusinessDomain#VariableClassification
          :id: ''
          :namespace: ''
          :label: Not Applicable
          :extension_properties: []
      - :type: http://www.assero.co.uk/BusinessDomain#ModelVariable
        :id: ''
        :namespace: ''
        :label: Reference ID
        :extension_properties: []
        :ordinal: '8'
        :rule: ''
        :name: "--REFID"
        :prefixed: true
        :description: Optional internal or external identifier such as lab specimen
          ID, or UUID for an ECG waveform or a medical image.
        :datatype:
          :type: http://www.assero.co.uk/BusinessDomain#VariableType
          :id: ''
          :namespace: ''
          :label: Char
          :extension_properties: []
        :classification:
          :type: http://www.assero.co.uk/BusinessDomain#VariableClassification
          :id: ''
          :namespace: ''
          :label: Identifier
          :extension_properties: []
        :sub_classification:
          :type: http://www.assero.co.uk/BusinessDomain#VariableClassification
          :id: ''
          :namespace: ''
          :label: Not Applicable
          :extension_properties: []
      - :type: http://www.assero.co.uk/BusinessDomain#ModelVariable
        :id: ''
        :namespace: ''
        :label: Sponsor-Defined Identifier
        :extension_properties: []
        :ordinal: '9'
        :rule: ''
        :name: "--SPID"
        :prefixed: true
        :description: 'Sponsor-defined identifier. Example: pre-printed line identifier
          on a Concomitant Medications page.'
        :datatype:
          :type: http://www.assero.co.uk/BusinessDomain#VariableType
          :id: ''
          :namespace: ''
          :label: Char
          :extension_properties: []
        :classification:
          :type: http://www.assero.co.uk/BusinessDomain#VariableClassification
          :id: ''
          :namespace: ''
          :label: Identifier
          :extension_properties: []
        :sub_classification:
          :type: http://www.assero.co.uk/BusinessDomain#VariableClassification
          :id: ''
          :namespace: ''
          :label: Not Applicable
          :extension_properties: []
      - :type: http://www.assero.co.uk/BusinessDomain#ModelVariable
        :id: ''
        :namespace: ''
        :label: Link ID
        :extension_properties: []
        :ordinal: '10'
        :rule: ''
        :name: "--LNKID"
        :prefixed: true
        :description: 'Identifier used to link related records across domains. This
          may be a one-to-one or a one-to-many relationship. For Example: A single
          tumor may have multiple measurements/assessments performed at each study
          visit.'
        :datatype:
          :type: http://www.assero.co.uk/BusinessDomain#VariableType
          :id: ''
          :namespace: ''
          :label: Char
          :extension_properties: []
        :classification:
          :type: http://www.assero.co.uk/BusinessDomain#VariableClassification
          :id: ''
          :namespace: ''
          :label: Identifier
          :extension_properties: []
        :sub_classification:
          :type: http://www.assero.co.uk/BusinessDomain#VariableClassification
          :id: ''
          :namespace: ''
          :label: Not Applicable
          :extension_properties: []
      - :type: http://www.assero.co.uk/BusinessDomain#ModelVariable
        :id: ''
        :namespace: ''
        :label: Link Group ID
        :extension_properties: []
        :ordinal: '11'
        :rule: ''
        :name: "--LNKGRP"
        :prefixed: true
        :description: 'Identifier used to link related records across domains. This
          will usually be a many-to-one relationship. For example: Multiple tumor
          measurements/assessments will contribute to a single response to therapy
          determination record.'
        :datatype:
          :type: http://www.assero.co.uk/BusinessDomain#VariableType
          :id: ''
          :namespace: ''
          :label: Char
          :extension_properties: []
        :classification:
          :type: http://www.assero.co.uk/BusinessDomain#VariableClassification
          :id: ''
          :namespace: ''
          :label: Identifier
          :extension_properties: []
        :sub_classification:
          :type: http://www.assero.co.uk/BusinessDomain#VariableClassification
          :id: ''
          :namespace: ''
          :label: Not Applicable
          :extension_properties: []
      - :type: http://www.assero.co.uk/BusinessDomain#ModelVariable
        :id: ''
        :namespace: ''
        :label: Visit Number
        :extension_properties: []
        :ordinal: '12'
        :rule: ''
        :name: VISITNUM
        :prefixed: false
        :description: Clinical encounter number. Numeric version of VISIT, used for
          sorting.
        :datatype:
          :type: http://www.assero.co.uk/BusinessDomain#VariableType
          :id: ''
          :namespace: ''
          :label: Num
          :extension_properties: []
        :classification:
          :type: http://www.assero.co.uk/BusinessDomain#VariableClassification
          :id: ''
          :namespace: ''
          :label: Timing
          :extension_properties: []
        :sub_classification:
          :type: http://www.assero.co.uk/BusinessDomain#VariableClassification
          :id: ''
          :namespace: ''
          :label: Not Applicable
          :extension_properties: []
      - :type: http://www.assero.co.uk/BusinessDomain#ModelVariable
        :id: ''
        :namespace: ''
        :label: Visit Name
        :extension_properties: []
        :ordinal: '13'
        :rule: ''
        :name: VISIT
        :prefixed: false
        :description: Protocol-defined description of a clinical encounter.
        :datatype:
          :type: http://www.assero.co.uk/BusinessDomain#VariableType
          :id: ''
          :namespace: ''
          :label: Char
          :extension_properties: []
        :classification:
          :type: http://www.assero.co.uk/BusinessDomain#VariableClassification
          :id: ''
          :namespace: ''
          :label: Timing
          :extension_properties: []
        :sub_classification:
          :type: http://www.assero.co.uk/BusinessDomain#VariableClassification
          :id: ''
          :namespace: ''
          :label: Not Applicable
          :extension_properties: []
      - :type: http://www.assero.co.uk/BusinessDomain#ModelVariable
        :id: ''
        :namespace: ''
        :label: Planned Study Day of Visit
        :extension_properties: []
        :ordinal: '14'
        :rule: ''
        :name: VISITDY
        :prefixed: false
        :description: Planned study day of VISIT. Should be an integer.
        :datatype:
          :type: http://www.assero.co.uk/BusinessDomain#VariableType
          :id: ''
          :namespace: ''
          :label: Num
          :extension_properties: []
        :classification:
          :type: http://www.assero.co.uk/BusinessDomain#VariableClassification
          :id: ''
          :namespace: ''
          :label: Timing
          :extension_properties: []
        :sub_classification:
          :type: http://www.assero.co.uk/BusinessDomain#VariableClassification
          :id: ''
          :namespace: ''
          :label: Not Applicable
          :extension_properties: []
      - :type: http://www.assero.co.uk/BusinessDomain#ModelVariable
        :id: ''
        :namespace: ''
        :label: Planned Order of Element within Arm
        :extension_properties: []
        :ordinal: '15'
        :rule: ''
        :name: TAETORD
        :prefixed: false
        :description: Number that gives the planned order of the Element within the
          Arm (see Trial Arms, Section 3.2.2 ).
        :datatype:
          :type: http://www.assero.co.uk/BusinessDomain#VariableType
          :id: ''
          :namespace: ''
          :label: Num
          :extension_properties: []
        :classification:
          :type: http://www.assero.co.uk/BusinessDomain#VariableClassification
          :id: ''
          :namespace: ''
          :label: Timing
          :extension_properties: []
        :sub_classification:
          :type: http://www.assero.co.uk/BusinessDomain#VariableClassification
          :id: ''
          :namespace: ''
          :label: Not Applicable
          :extension_properties: []
      - :type: http://www.assero.co.uk/BusinessDomain#ModelVariable
        :id: ''
        :namespace: ''
        :label: Epoch
        :extension_properties: []
        :ordinal: '16'
        :rule: ''
        :name: EPOCH
        :prefixed: false
        :description: Epoch associated with the start date/time of the observation,
          or the date/time of collection if start date/time is not collected. (See
          Section 3.2.2).
        :datatype:
          :type: http://www.assero.co.uk/BusinessDomain#VariableType
          :id: ''
          :namespace: ''
          :label: Char
          :extension_properties: []
        :classification:
          :type: http://www.assero.co.uk/BusinessDomain#VariableClassification
          :id: ''
          :namespace: ''
          :label: Timing
          :extension_properties: []
        :sub_classification:
          :type: http://www.assero.co.uk/BusinessDomain#VariableClassification
          :id: ''
          :namespace: ''
          :label: Not Applicable
          :extension_properties: []
      - :type: http://www.assero.co.uk/BusinessDomain#ModelVariable
        :id: ''
        :namespace: ''
        :label: Date/Time of Collection
        :extension_properties: []
        :ordinal: '17'
        :rule: ''
        :name: "--DTC"
        :prefixed: true
        :description: Collection date and time of an observation represented in IS0
          8601 character format.
        :datatype:
          :type: http://www.assero.co.uk/BusinessDomain#VariableType
          :id: ''
          :namespace: ''
          :label: Char
          :extension_properties: []
        :classification:
          :type: http://www.assero.co.uk/BusinessDomain#VariableClassification
          :id: ''
          :namespace: ''
          :label: Timing
          :extension_properties: []
        :sub_classification:
          :type: http://www.assero.co.uk/BusinessDomain#VariableClassification
          :id: ''
          :namespace: ''
          :label: Not Applicable
          :extension_properties: []
      - :type: http://www.assero.co.uk/BusinessDomain#ModelVariable
        :id: ''
        :namespace: ''
        :label: Start Date/Time of Observation
        :extension_properties: []
        :ordinal: '18'
        :rule: ''
        :name: "--STDTC"
        :prefixed: true
        :description: Start date/time of an observation represented in IS0 8601 character
          format.
        :datatype:
          :type: http://www.assero.co.uk/BusinessDomain#VariableType
          :id: ''
          :namespace: ''
          :label: Char
          :extension_properties: []
        :classification:
          :type: http://www.assero.co.uk/BusinessDomain#VariableClassification
          :id: ''
          :namespace: ''
          :label: Timing
          :extension_properties: []
        :sub_classification:
          :type: http://www.assero.co.uk/BusinessDomain#VariableClassification
          :id: ''
          :namespace: ''
          :label: Not Applicable
          :extension_properties: []
      - :type: http://www.assero.co.uk/BusinessDomain#ModelVariable
        :id: ''
        :namespace: ''
        :label: End Date/Time of Observation
        :extension_properties: []
        :ordinal: '19'
        :rule: ''
        :name: "--ENDTC"
        :prefixed: true
        :description: End date/time of the observation represented in IS0 8601 character
          format.
        :datatype:
          :type: http://www.assero.co.uk/BusinessDomain#VariableType
          :id: ''
          :namespace: ''
          :label: Char
          :extension_properties: []
        :classification:
          :type: http://www.assero.co.uk/BusinessDomain#VariableClassification
          :id: ''
          :namespace: ''
          :label: Timing
          :extension_properties: []
        :sub_classification:
          :type: http://www.assero.co.uk/BusinessDomain#VariableClassification
          :id: ''
          :namespace: ''
          :label: Not Applicable
          :extension_properties: []
      - :type: http://www.assero.co.uk/BusinessDomain#ModelVariable
        :id: ''
        :namespace: ''
        :label: Study Day of Visit/Collection/Exam
        :extension_properties: []
        :ordinal: '20'
        :rule: ''
        :name: "--DY"
        :prefixed: true
        :description: Actual study day of visit/collection/exam expressed in integer
          days relative to the sponsor-defined RFSTDTC in Demographics.
        :datatype:
          :type: http://www.assero.co.uk/BusinessDomain#VariableType
          :id: ''
          :namespace: ''
          :label: Num
          :extension_properties: []
        :classification:
          :type: http://www.assero.co.uk/BusinessDomain#VariableClassification
          :id: ''
          :namespace: ''
          :label: Timing
          :extension_properties: []
        :sub_classification:
          :type: http://www.assero.co.uk/BusinessDomain#VariableClassification
          :id: ''
          :namespace: ''
          :label: Not Applicable
          :extension_properties: []
      - :type: http://www.assero.co.uk/BusinessDomain#ModelVariable
        :id: ''
        :namespace: ''
        :label: Study Day of Start of Observation
        :extension_properties: []
        :ordinal: '21'
        :rule: ''
        :name: "--STDY"
        :prefixed: true
        :description: Actual study day of start of observation expressed in integer
          days relative to the sponsor-defined RFSTDTC in Demographics.
        :datatype:
          :type: http://www.assero.co.uk/BusinessDomain#VariableType
          :id: ''
          :namespace: ''
          :label: Num
          :extension_properties: []
        :classification:
          :type: http://www.assero.co.uk/BusinessDomain#VariableClassification
          :id: ''
          :namespace: ''
          :label: Timing
          :extension_properties: []
        :sub_classification:
          :type: http://www.assero.co.uk/BusinessDomain#VariableClassification
          :id: ''
          :namespace: ''
          :label: Not Applicable
          :extension_properties: []
      - :type: http://www.assero.co.uk/BusinessDomain#ModelVariable
        :id: ''
        :namespace: ''
        :label: Study Day of End of Observation
        :extension_properties: []
        :ordinal: '22'
        :rule: ''
        :name: "--ENDY"
        :prefixed: true
        :description: Actual study day of end of observation expressed in integer
          days relative to the sponsor-defined RFSTDTC in Demographics.
        :datatype:
          :type: http://www.assero.co.uk/BusinessDomain#VariableType
          :id: ''
          :namespace: ''
          :label: Num
          :extension_properties: []
        :classification:
          :type: http://www.assero.co.uk/BusinessDomain#VariableClassification
          :id: ''
          :namespace: ''
          :label: Timing
          :extension_properties: []
        :sub_classification:
          :type: http://www.assero.co.uk/BusinessDomain#VariableClassification
          :id: ''
          :namespace: ''
          :label: Not Applicable
          :extension_properties: []
      - :type: http://www.assero.co.uk/BusinessDomain#ModelVariable
        :id: ''
        :namespace: ''
        :label: Duration
        :extension_properties: []
        :ordinal: '23'
        :rule: ''
        :name: "--DUR"
        :prefixed: true
        :description: Collected duration of an event, intervention, or finding represented
          in ISO 8601 character format. Used only if collected on the CRF and not
          derived.
        :datatype:
          :type: http://www.assero.co.uk/BusinessDomain#VariableType
          :id: ''
          :namespace: ''
          :label: Char
          :extension_properties: []
        :classification:
          :type: http://www.assero.co.uk/BusinessDomain#VariableClassification
          :id: ''
          :namespace: ''
          :label: Timing
          :extension_properties: []
        :sub_classification:
          :type: http://www.assero.co.uk/BusinessDomain#VariableClassification
          :id: ''
          :namespace: ''
          :label: Not Applicable
          :extension_properties: []
      - :type: http://www.assero.co.uk/BusinessDomain#ModelVariable
        :id: ''
        :namespace: ''
        :label: Planned Time Point Name
        :extension_properties: []
        :ordinal: '24'
        :rule: ''
        :name: "--TPT"
        :prefixed: true
        :description: Text description of time when a measurement or observation should
          be taken as defined in the protocol. This may be represented as an elapsed
          time relative to a fixed reference point, such as time of last dose. See
          --TPTNUM and --TPTREF.
        :datatype:
          :type: http://www.assero.co.uk/BusinessDomain#VariableType
          :id: ''
          :namespace: ''
          :label: Char
          :extension_properties: []
        :classification:
          :type: http://www.assero.co.uk/BusinessDomain#VariableClassification
          :id: ''
          :namespace: ''
          :label: Timing
          :extension_properties: []
        :sub_classification:
          :type: http://www.assero.co.uk/BusinessDomain#VariableClassification
          :id: ''
          :namespace: ''
          :label: Not Applicable
          :extension_properties: []
      - :type: http://www.assero.co.uk/BusinessDomain#ModelVariable
        :id: ''
        :namespace: ''
        :label: Planned Time Point Number
        :extension_properties: []
        :ordinal: '25'
        :rule: ''
        :name: "--TPTNUM"
        :prefixed: true
        :description: Numeric version of planned time point used in sorting.
        :datatype:
          :type: http://www.assero.co.uk/BusinessDomain#VariableType
          :id: ''
          :namespace: ''
          :label: Num
          :extension_properties: []
        :classification:
          :type: http://www.assero.co.uk/BusinessDomain#VariableClassification
          :id: ''
          :namespace: ''
          :label: Timing
          :extension_properties: []
        :sub_classification:
          :type: http://www.assero.co.uk/BusinessDomain#VariableClassification
          :id: ''
          :namespace: ''
          :label: Not Applicable
          :extension_properties: []
      - :type: http://www.assero.co.uk/BusinessDomain#ModelVariable
        :id: ''
        :namespace: ''
        :label: Planned Elapsed Time from Time Point Ref
        :extension_properties: []
        :ordinal: '26'
        :rule: ''
        :name: "--ELTM"
        :prefixed: true
        :description: Planned Elapsed time in ISO 8601 character format relative to
          a planned fixed reference (--TPTREF) such as “Previous Dose” or “Previous
          Meal”. This variable is useful where there are repetitive measures. Not
          a clock time or a date/time variable, but an interval, represented as ISO
          duration.
        :datatype:
          :type: http://www.assero.co.uk/BusinessDomain#VariableType
          :id: ''
          :namespace: ''
          :label: Char
          :extension_properties: []
        :classification:
          :type: http://www.assero.co.uk/BusinessDomain#VariableClassification
          :id: ''
          :namespace: ''
          :label: Timing
          :extension_properties: []
        :sub_classification:
          :type: http://www.assero.co.uk/BusinessDomain#VariableClassification
          :id: ''
          :namespace: ''
          :label: Not Applicable
          :extension_properties: []
      - :type: http://www.assero.co.uk/BusinessDomain#ModelVariable
        :id: ''
        :namespace: ''
        :label: Time Point Reference
        :extension_properties: []
        :ordinal: '27'
        :rule: ''
        :name: "--TPTREF"
        :prefixed: true
        :description: 'Description of the fixed reference point referred to by --ELTM,
          --TPTNUM, and --TPT. Examples: PREVIOUS DOSE, PREVIOUS MEAL.'
        :datatype:
          :type: http://www.assero.co.uk/BusinessDomain#VariableType
          :id: ''
          :namespace: ''
          :label: Char
          :extension_properties: []
        :classification:
          :type: http://www.assero.co.uk/BusinessDomain#VariableClassification
          :id: ''
          :namespace: ''
          :label: Timing
          :extension_properties: []
        :sub_classification:
          :type: http://www.assero.co.uk/BusinessDomain#VariableClassification
          :id: ''
          :namespace: ''
          :label: Not Applicable
          :extension_properties: []
      - :type: http://www.assero.co.uk/BusinessDomain#ModelVariable
        :id: ''
        :namespace: ''
        :label: Date/Time of Reference Time Point
        :extension_properties: []
        :ordinal: '28'
        :rule: ''
        :name: "--RFTDTC"
        :prefixed: true
        :description: Date/time for a fixed reference time point defined by --TPTREF
          in ISO 8601 character format.
        :datatype:
          :type: http://www.assero.co.uk/BusinessDomain#VariableType
          :id: ''
          :namespace: ''
          :label: Char
          :extension_properties: []
        :classification:
          :type: http://www.assero.co.uk/BusinessDomain#VariableClassification
          :id: ''
          :namespace: ''
          :label: Timing
          :extension_properties: []
        :sub_classification:
          :type: http://www.assero.co.uk/BusinessDomain#VariableClassification
          :id: ''
          :namespace: ''
          :label: Not Applicable
          :extension_properties: []
      - :type: http://www.assero.co.uk/BusinessDomain#ModelVariable
        :id: ''
        :namespace: ''
        :label: Start Relative to Reference Period
        :extension_properties: []
        :ordinal: '29'
        :rule: ''
        :name: "--STRF"
        :prefixed: true
        :description: "Identifies the start of the observation as being before, during,
          or after the sponsor-defined reference period. The sponsor-defined reference
          period is a continuous period of time defined by a discrete starting point
          and a discrete ending point represented by RFSTDTC and RFENDTC in Demographics.
          \nNote: This variable will be deprecated (phased out) in a future (post
          SDTM v1.4) release. The functionality of this variable can be replaced by
          the use of --STRTPT with --STTPT = RFSTDTC."
        :datatype:
          :type: http://www.assero.co.uk/BusinessDomain#VariableType
          :id: ''
          :namespace: ''
          :label: Char
          :extension_properties: []
        :classification:
          :type: http://www.assero.co.uk/BusinessDomain#VariableClassification
          :id: ''
          :namespace: ''
          :label: Timing
          :extension_properties: []
        :sub_classification:
          :type: http://www.assero.co.uk/BusinessDomain#VariableClassification
          :id: ''
          :namespace: ''
          :label: Not Applicable
          :extension_properties: []
      - :type: http://www.assero.co.uk/BusinessDomain#ModelVariable
        :id: ''
        :namespace: ''
        :label: End Relative to Reference Period
        :extension_properties: []
        :ordinal: '30'
        :rule: ''
        :name: "--ENRF"
        :prefixed: true
        :description: "Identifies the end of the observation as being before, during
          or after the sponsor-defined reference period. The sponsor-defined reference
          period is a continuous period of time defined by a discrete starting point
          and a discrete ending point represented by RFSTDTC and RFENDTC in Demographics.
          \nNote: This variable will be deprecated (phased out) in a future (post
          SDTM v1.4) release. The functionality of this variable can be replaced by
          the use of --ENRTPT with --ENTPT = RFENDTC."
        :datatype:
          :type: http://www.assero.co.uk/BusinessDomain#VariableType
          :id: ''
          :namespace: ''
          :label: Char
          :extension_properties: []
        :classification:
          :type: http://www.assero.co.uk/BusinessDomain#VariableClassification
          :id: ''
          :namespace: ''
          :label: Timing
          :extension_properties: []
        :sub_classification:
          :type: http://www.assero.co.uk/BusinessDomain#VariableClassification
          :id: ''
          :namespace: ''
          :label: Not Applicable
          :extension_properties: []
      - :type: http://www.assero.co.uk/BusinessDomain#ModelVariable
        :id: ''
        :namespace: ''
        :label: Evaluation Interval
        :extension_properties: []
        :ordinal: '31'
        :rule: ''
        :name: "--EVLINT"
        :prefixed: true
        :description: 'Duration of interval associated with an observation such as
          a finding --TESTCD, represented in ISO 8601 character format. Example: -P2M
          to represent a period of the past 2 months as the evaluation interval for
          a question from a questionnaire such as SF-36.'
        :datatype:
          :type: http://www.assero.co.uk/BusinessDomain#VariableType
          :id: ''
          :namespace: ''
          :label: Char
          :extension_properties: []
        :classification:
          :type: http://www.assero.co.uk/BusinessDomain#VariableClassification
          :id: ''
          :namespace: ''
          :label: Timing
          :extension_properties: []
        :sub_classification:
          :type: http://www.assero.co.uk/BusinessDomain#VariableClassification
          :id: ''
          :namespace: ''
          :label: Not Applicable
          :extension_properties: []
      - :type: http://www.assero.co.uk/BusinessDomain#ModelVariable
        :id: ''
        :namespace: ''
        :label: Evaluation Interval Text
        :extension_properties: []
        :ordinal: '32'
        :rule: ''
        :name: "--EVINTX"
        :prefixed: true
        :description: 'Evaluation interval associated with an observation, where the
          interval is not able to be represented in ISO 8601 format. Examples: LIFETIME,
          LAST NIGHT, RECENTLY, OVER THE LAST FEW WEEKS.'
        :datatype:
          :type: http://www.assero.co.uk/BusinessDomain#VariableType
          :id: ''
          :namespace: ''
          :label: Char
          :extension_properties: []
        :classification:
          :type: http://www.assero.co.uk/BusinessDomain#VariableClassification
          :id: ''
          :namespace: ''
          :label: Timing
          :extension_properties: []
        :sub_classification:
          :type: http://www.assero.co.uk/BusinessDomain#VariableClassification
          :id: ''
          :namespace: ''
          :label: Not Applicable
          :extension_properties: []
      - :type: http://www.assero.co.uk/BusinessDomain#ModelVariable
        :id: ''
        :namespace: ''
        :label: Start Relative to Reference Time Point
        :extension_properties: []
        :ordinal: '33'
        :rule: ''
        :name: "--STRTPT"
        :prefixed: true
        :description: Identifies the start of the observation as being before or after
          the sponsor-defined reference time point defined by variable --STTPT.
        :datatype:
          :type: http://www.assero.co.uk/BusinessDomain#VariableType
          :id: ''
          :namespace: ''
          :label: Char
          :extension_properties: []
        :classification:
          :type: http://www.assero.co.uk/BusinessDomain#VariableClassification
          :id: ''
          :namespace: ''
          :label: Timing
          :extension_properties: []
        :sub_classification:
          :type: http://www.assero.co.uk/BusinessDomain#VariableClassification
          :id: ''
          :namespace: ''
          :label: Not Applicable
          :extension_properties: []
      - :type: http://www.assero.co.uk/BusinessDomain#ModelVariable
        :id: ''
        :namespace: ''
        :label: Start Reference Time Point
        :extension_properties: []
        :ordinal: '34'
        :rule: ''
        :name: "--STTPT"
        :prefixed: true
        :description: 'Description or date/time in ISO 8601 or other character format
          of the sponsor-defined reference point referred to by --STRTPT. Examples:
          "2003-12-15" or "VISIT 1".'
        :datatype:
          :type: http://www.assero.co.uk/BusinessDomain#VariableType
          :id: ''
          :namespace: ''
          :label: Char
          :extension_properties: []
        :classification:
          :type: http://www.assero.co.uk/BusinessDomain#VariableClassification
          :id: ''
          :namespace: ''
          :label: Timing
          :extension_properties: []
        :sub_classification:
          :type: http://www.assero.co.uk/BusinessDomain#VariableClassification
          :id: ''
          :namespace: ''
          :label: Not Applicable
          :extension_properties: []
      - :type: http://www.assero.co.uk/BusinessDomain#ModelVariable
        :id: ''
        :namespace: ''
        :label: End Relative to Reference Time Point
        :extension_properties: []
        :ordinal: '35'
        :rule: ''
        :name: "--ENRTPT"
        :prefixed: true
        :description: Identifies the end of the observation as being before or after
          the sponsor-defined reference time point defined by variable --ENTPT.
        :datatype:
          :type: http://www.assero.co.uk/BusinessDomain#VariableType
          :id: ''
          :namespace: ''
          :label: Char
          :extension_properties: []
        :classification:
          :type: http://www.assero.co.uk/BusinessDomain#VariableClassification
          :id: ''
          :namespace: ''
          :label: Timing
          :extension_properties: []
        :sub_classification:
          :type: http://www.assero.co.uk/BusinessDomain#VariableClassification
          :id: ''
          :namespace: ''
          :label: Not Applicable
          :extension_properties: []
      - :type: http://www.assero.co.uk/BusinessDomain#ModelVariable
        :id: ''
        :namespace: ''
        :label: End Reference Time Point
        :extension_properties: []
        :ordinal: '36'
        :rule: ''
        :name: "--ENTPT"
        :prefixed: true
        :description: 'Description or date/time in ISO 8601 or other character format
          of the sponsor-defined reference point referred to by --ENRTPT. Examples:
          "2003-12-25" or "VISIT 2".'
        :datatype:
          :type: http://www.assero.co.uk/BusinessDomain#VariableType
          :id: ''
          :namespace: ''
          :label: Char
          :extension_properties: []
        :classification:
          :type: http://www.assero.co.uk/BusinessDomain#VariableClassification
          :id: ''
          :namespace: ''
          :label: Timing
          :extension_properties: []
        :sub_classification:
          :type: http://www.assero.co.uk/BusinessDomain#VariableClassification
          :id: ''
          :namespace: ''
          :label: Not Applicable
          :extension_properties: []
      - :type: http://www.assero.co.uk/BusinessDomain#ModelVariable
        :id: ''
        :namespace: ''
        :label: Planned Start of Assessment Interval
        :extension_properties: []
        :ordinal: '37'
        :rule: ''
        :name: "--STINT"
        :prefixed: true
        :description: The start of a planned evaluation or assessment interval in
          ISO 8601 character format relative to the Time Point Reference (--TPTREF).
        :datatype:
          :type: http://www.assero.co.uk/BusinessDomain#VariableType
          :id: ''
          :namespace: ''
          :label: Char
          :extension_properties: []
        :classification:
          :type: http://www.assero.co.uk/BusinessDomain#VariableClassification
          :id: ''
          :namespace: ''
          :label: Timing
          :extension_properties: []
        :sub_classification:
          :type: http://www.assero.co.uk/BusinessDomain#VariableClassification
          :id: ''
          :namespace: ''
          :label: Not Applicable
          :extension_properties: []
      - :type: http://www.assero.co.uk/BusinessDomain#ModelVariable
        :id: ''
        :namespace: ''
        :label: Planned End of Assessment Interval
        :extension_properties: []
        :ordinal: '38'
        :rule: ''
        :name: "--ENINT"
        :prefixed: true
        :description: The end of a planned evaluation or assessment interval in ISO
          8601 character format relative to the Time Point Reference (--TPTREF).
        :datatype:
          :type: http://www.assero.co.uk/BusinessDomain#VariableType
          :id: ''
          :namespace: ''
          :label: Char
          :extension_properties: []
        :classification:
          :type: http://www.assero.co.uk/BusinessDomain#VariableClassification
          :id: ''
          :namespace: ''
          :label: Timing
          :extension_properties: []
        :sub_classification:
          :type: http://www.assero.co.uk/BusinessDomain#VariableClassification
          :id: ''
          :namespace: ''
          :label: Not Applicable
          :extension_properties: []
      - :type: http://www.assero.co.uk/BusinessDomain#ModelVariable
        :id: ''
        :namespace: ''
        :label: Time in Days to Detection
        :extension_properties: []
        :ordinal: '39'
        :rule: ''
        :name: "--DETECT"
        :prefixed: true
        :description: The number of days from the start of dosing to the earliest
          detection of a condition or pathogen.
        :datatype:
          :type: http://www.assero.co.uk/BusinessDomain#VariableType
          :id: ''
          :namespace: ''
          :label: Num
          :extension_properties: []
        :classification:
          :type: http://www.assero.co.uk/BusinessDomain#VariableClassification
          :id: ''
          :namespace: ''
          :label: Timing
          :extension_properties: []
        :sub_classification:
          :type: http://www.assero.co.uk/BusinessDomain#VariableClassification
          :id: ''
          :namespace: ''
          :label: Not Applicable
          :extension_properties: []
      - :type: http://www.assero.co.uk/BusinessDomain#ModelVariable
        :id: ''
        :namespace: ''
        :label: Associated Persons Identifier
        :extension_properties: []
        :ordinal: '1'
        :rule: ''
        :name: APID
        :prefixed: false
        :description: Identifier for a single associated person, a group of associated
          persons, or a pool of associated persons. If APID identifies a pool, POOLDEF
          records must exist for each associated person.
        :datatype:
          :type: http://www.assero.co.uk/BusinessDomain#VariableType
          :id: ''
          :namespace: ''
          :label: Char
          :extension_properties: []
        :classification:
          :type: http://www.assero.co.uk/BusinessDomain#VariableClassification
          :id: ''
          :namespace: ''
          :label: Identifier
          :extension_properties: []
        :sub_classification:
          :type: http://www.assero.co.uk/BusinessDomain#VariableClassification
          :id: ''
          :namespace: ''
          :label: Not Applicable
          :extension_properties: []
      - :type: http://www.assero.co.uk/BusinessDomain#ModelVariable
        :id: ''
        :namespace: ''
        :label: Related Subject
        :extension_properties: []
        :ordinal: '2'
        :rule: ''
        :name: RSUBJID
        :prefixed: false
        :description: |-
          Identifier for a related study subject or pool of study subjects. The subject(s) may be human or animal. RSUBJID will be populated with the USUBJID of the related subject or the POOLID of the related pool.
          RSUBJID will be null for data about associated persons who are related to the study but not to any of the study subjects.
        :datatype:
          :type: http://www.assero.co.uk/BusinessDomain#VariableType
          :id: ''
          :namespace: ''
          :label: Char
          :extension_properties: []
        :classification:
          :type: http://www.assero.co.uk/BusinessDomain#VariableClassification
          :id: ''
          :namespace: ''
          :label: Identifier
          :extension_properties: []
        :sub_classification:
          :type: http://www.assero.co.uk/BusinessDomain#VariableClassification
          :id: ''
          :namespace: ''
          :label: Not Applicable
          :extension_properties: []
      - :type: http://www.assero.co.uk/BusinessDomain#ModelVariable
        :id: ''
        :namespace: ''
        :label: Related Device
        :extension_properties: []
        :ordinal: '3'
        :rule: ''
        :name: RDEVID
        :prefixed: false
        :description: Identifier for a related device. RDEVID will be populated with
          the SPDEVID of the related device
        :datatype:
          :type: http://www.assero.co.uk/BusinessDomain#VariableType
          :id: ''
          :namespace: ''
          :label: Char
          :extension_properties: []
        :classification:
          :type: http://www.assero.co.uk/BusinessDomain#VariableClassification
          :id: ''
          :namespace: ''
          :label: Identifier
          :extension_properties: []
        :sub_classification:
          :type: http://www.assero.co.uk/BusinessDomain#VariableClassification
          :id: ''
          :namespace: ''
          :label: Not Applicable
          :extension_properties: []
      - :type: http://www.assero.co.uk/BusinessDomain#ModelVariable
        :id: ''
        :namespace: ''
        :label: Subject, Device, or Study Relationship
        :extension_properties: []
        :ordinal: '4'
        :rule: ''
        :name: SREL
        :prefixed: false
        :description: "If RSUBJID is populated, describes the relationship of the
          associated person(s) identified in APID to the subject or pool identified
          in RSUBJID.\nIf RDEVID is populated, describes the relationship of the associated
          person(s) identified in APID to the device identified in RDEVID. \nIf RSUBJID
          and RDEVID are null, SREL describes the relationship of the associated person(s)
          identified in APID to the study identified in STUDYID."
        :datatype:
          :type: http://www.assero.co.uk/BusinessDomain#VariableType
          :id: ''
          :namespace: ''
          :label: Char
          :extension_properties: []
        :classification:
          :type: http://www.assero.co.uk/BusinessDomain#VariableClassification
          :id: ''
          :namespace: ''
          :label: Qualifier
          :extension_properties: []
        :sub_classification:
          :type: http://www.assero.co.uk/BusinessDomain#VariableClassification
          :id: ''
          :namespace: ''
          :label: Record Qualifier
          :extension_properties: []
      - :type: http://www.assero.co.uk/BusinessDomain#ModelVariable
        :id: ''
        :namespace: ''
        :label: Reported Term
        :extension_properties: []
        :ordinal: '1'
        :rule: ''
        :name: "--TERM"
        :prefixed: true
        :description: Topic variable for an event observation, which is the verbatim
          or pre-specified name of the event.
        :datatype:
          :type: http://www.assero.co.uk/BusinessDomain#VariableType
          :id: ''
          :namespace: ''
          :label: Char
          :extension_properties: []
        :classification:
          :type: http://www.assero.co.uk/BusinessDomain#VariableClassification
          :id: ''
          :namespace: ''
          :label: Topic
          :extension_properties: []
        :sub_classification:
          :type: http://www.assero.co.uk/BusinessDomain#VariableClassification
          :id: ''
          :namespace: ''
          :label: Not Applicable
          :extension_properties: []
      - :type: http://www.assero.co.uk/BusinessDomain#ModelVariable
        :id: ''
        :namespace: ''
        :label: Modified Reported Term
        :extension_properties: []
        :ordinal: '2'
        :rule: ''
        :name: "--MODIFY"
        :prefixed: true
        :description: If the value for --TERM is modified for coding purposes, then
          the modified text is placed here.
        :datatype:
          :type: http://www.assero.co.uk/BusinessDomain#VariableType
          :id: ''
          :namespace: ''
          :label: Char
          :extension_properties: []
        :classification:
          :type: http://www.assero.co.uk/BusinessDomain#VariableClassification
          :id: ''
          :namespace: ''
          :label: Qualifier
          :extension_properties: []
        :sub_classification:
          :type: http://www.assero.co.uk/BusinessDomain#VariableClassification
          :id: ''
          :namespace: ''
          :label: Synonym Qualifier
          :extension_properties: []
      - :type: http://www.assero.co.uk/BusinessDomain#ModelVariable
        :id: ''
        :namespace: ''
        :label: Lowest Level Term
        :extension_properties: []
        :ordinal: '3'
        :rule: ''
        :name: "--LLT"
        :prefixed: true
        :description: MedDRA Lowest Level Term.
        :datatype:
          :type: http://www.assero.co.uk/BusinessDomain#VariableType
          :id: ''
          :namespace: ''
          :label: Char
          :extension_properties: []
        :classification:
          :type: http://www.assero.co.uk/BusinessDomain#VariableClassification
          :id: ''
          :namespace: ''
          :label: Qualifier
          :extension_properties: []
        :sub_classification:
          :type: http://www.assero.co.uk/BusinessDomain#VariableClassification
          :id: ''
          :namespace: ''
          :label: Variable Qualifier
          :extension_properties: []
      - :type: http://www.assero.co.uk/BusinessDomain#ModelVariable
        :id: ''
        :namespace: ''
        :label: Lowest Level Term Code
        :extension_properties: []
        :ordinal: '4'
        :rule: ''
        :name: "--LLTCD"
        :prefixed: true
        :description: MedDRA Lowest Level Term code.
        :datatype:
          :type: http://www.assero.co.uk/BusinessDomain#VariableType
          :id: ''
          :namespace: ''
          :label: Num
          :extension_properties: []
        :classification:
          :type: http://www.assero.co.uk/BusinessDomain#VariableClassification
          :id: ''
          :namespace: ''
          :label: Qualifier
          :extension_properties: []
        :sub_classification:
          :type: http://www.assero.co.uk/BusinessDomain#VariableClassification
          :id: ''
          :namespace: ''
          :label: Variable Qualifier
          :extension_properties: []
      - :type: http://www.assero.co.uk/BusinessDomain#ModelVariable
        :id: ''
        :namespace: ''
        :label: Dictionary-Derived Term
        :extension_properties: []
        :ordinal: '5'
        :rule: ''
        :name: "--DECOD"
        :prefixed: true
        :description: Dictionary or sponsor-defined derived text description of the
          topic variable, --TERM, or the modified topic variable (--MODIFY), if applicable.
          Equivalent to the Preferred Term (PT in MedDRA).
        :datatype:
          :type: http://www.assero.co.uk/BusinessDomain#VariableType
          :id: ''
          :namespace: ''
          :label: Char
          :extension_properties: []
        :classification:
          :type: http://www.assero.co.uk/BusinessDomain#VariableClassification
          :id: ''
          :namespace: ''
          :label: Qualifier
          :extension_properties: []
        :sub_classification:
          :type: http://www.assero.co.uk/BusinessDomain#VariableClassification
          :id: ''
          :namespace: ''
          :label: Synonym Qualifier
          :extension_properties: []
      - :type: http://www.assero.co.uk/BusinessDomain#ModelVariable
        :id: ''
        :namespace: ''
        :label: Preferred Term Code
        :extension_properties: []
        :ordinal: '6'
        :rule: ''
        :name: "--PTCD"
        :prefixed: true
        :description: MedDRA Preferred Term code.
        :datatype:
          :type: http://www.assero.co.uk/BusinessDomain#VariableType
          :id: ''
          :namespace: ''
          :label: Num
          :extension_properties: []
        :classification:
          :type: http://www.assero.co.uk/BusinessDomain#VariableClassification
          :id: ''
          :namespace: ''
          :label: Qualifier
          :extension_properties: []
        :sub_classification:
          :type: http://www.assero.co.uk/BusinessDomain#VariableClassification
          :id: ''
          :namespace: ''
          :label: Variable Qualifier
          :extension_properties: []
      - :type: http://www.assero.co.uk/BusinessDomain#ModelVariable
        :id: ''
        :namespace: ''
        :label: High Level Term
        :extension_properties: []
        :ordinal: '7'
        :rule: ''
        :name: "--HLT"
        :prefixed: true
        :description: MedDRA High Level Term from the primary path.
        :datatype:
          :type: http://www.assero.co.uk/BusinessDomain#VariableType
          :id: ''
          :namespace: ''
          :label: Char
          :extension_properties: []
        :classification:
          :type: http://www.assero.co.uk/BusinessDomain#VariableClassification
          :id: ''
          :namespace: ''
          :label: Qualifier
          :extension_properties: []
        :sub_classification:
          :type: http://www.assero.co.uk/BusinessDomain#VariableClassification
          :id: ''
          :namespace: ''
          :label: Variable Qualifier
          :extension_properties: []
      - :type: http://www.assero.co.uk/BusinessDomain#ModelVariable
        :id: ''
        :namespace: ''
        :label: High Level Term Code
        :extension_properties: []
        :ordinal: '8'
        :rule: ''
        :name: "--HLTCD"
        :prefixed: true
        :description: MedDRA High Level Term code from the primary path.
        :datatype:
          :type: http://www.assero.co.uk/BusinessDomain#VariableType
          :id: ''
          :namespace: ''
          :label: Num
          :extension_properties: []
        :classification:
          :type: http://www.assero.co.uk/BusinessDomain#VariableClassification
          :id: ''
          :namespace: ''
          :label: Qualifier
          :extension_properties: []
        :sub_classification:
          :type: http://www.assero.co.uk/BusinessDomain#VariableClassification
          :id: ''
          :namespace: ''
          :label: Variable Qualifier
          :extension_properties: []
      - :type: http://www.assero.co.uk/BusinessDomain#ModelVariable
        :id: ''
        :namespace: ''
        :label: High Level Group Term
        :extension_properties: []
        :ordinal: '9'
        :rule: ''
        :name: "--HLGT"
        :prefixed: true
        :description: MedDRA High Level Group Term from the primary path.
        :datatype:
          :type: http://www.assero.co.uk/BusinessDomain#VariableType
          :id: ''
          :namespace: ''
          :label: Char
          :extension_properties: []
        :classification:
          :type: http://www.assero.co.uk/BusinessDomain#VariableClassification
          :id: ''
          :namespace: ''
          :label: Qualifier
          :extension_properties: []
        :sub_classification:
          :type: http://www.assero.co.uk/BusinessDomain#VariableClassification
          :id: ''
          :namespace: ''
          :label: Variable Qualifier
          :extension_properties: []
      - :type: http://www.assero.co.uk/BusinessDomain#ModelVariable
        :id: ''
        :namespace: ''
        :label: High Level Group Term Code
        :extension_properties: []
        :ordinal: '10'
        :rule: ''
        :name: "--HLGTCD"
        :prefixed: true
        :description: MedDRA High Level Group Term code from the primary path.
        :datatype:
          :type: http://www.assero.co.uk/BusinessDomain#VariableType
          :id: ''
          :namespace: ''
          :label: Num
          :extension_properties: []
        :classification:
          :type: http://www.assero.co.uk/BusinessDomain#VariableClassification
          :id: ''
          :namespace: ''
          :label: Qualifier
          :extension_properties: []
        :sub_classification:
          :type: http://www.assero.co.uk/BusinessDomain#VariableClassification
          :id: ''
          :namespace: ''
          :label: Variable Qualifier
          :extension_properties: []
      - :type: http://www.assero.co.uk/BusinessDomain#ModelVariable
        :id: ''
        :namespace: ''
        :label: Category
        :extension_properties: []
        :ordinal: '11'
        :rule: ''
        :name: "--CAT"
        :prefixed: true
        :description: Used to define a category of topic-variable values.
        :datatype:
          :type: http://www.assero.co.uk/BusinessDomain#VariableType
          :id: ''
          :namespace: ''
          :label: Char
          :extension_properties: []
        :classification:
          :type: http://www.assero.co.uk/BusinessDomain#VariableClassification
          :id: ''
          :namespace: ''
          :label: Qualifier
          :extension_properties: []
        :sub_classification:
          :type: http://www.assero.co.uk/BusinessDomain#VariableClassification
          :id: ''
          :namespace: ''
          :label: Grouping Qualifier
          :extension_properties: []
      - :type: http://www.assero.co.uk/BusinessDomain#ModelVariable
        :id: ''
        :namespace: ''
        :label: Subcategory
        :extension_properties: []
        :ordinal: '12'
        :rule: ''
        :name: "--SCAT"
        :prefixed: true
        :description: Used to define a further categorization of --CAT values.
        :datatype:
          :type: http://www.assero.co.uk/BusinessDomain#VariableType
          :id: ''
          :namespace: ''
          :label: Char
          :extension_properties: []
        :classification:
          :type: http://www.assero.co.uk/BusinessDomain#VariableClassification
          :id: ''
          :namespace: ''
          :label: Qualifier
          :extension_properties: []
        :sub_classification:
          :type: http://www.assero.co.uk/BusinessDomain#VariableClassification
          :id: ''
          :namespace: ''
          :label: Grouping Qualifier
          :extension_properties: []
      - :type: http://www.assero.co.uk/BusinessDomain#ModelVariable
        :id: ''
        :namespace: ''
        :label: Pre-specified
        :extension_properties: []
        :ordinal: '13'
        :rule: ''
        :name: "--PRESP"
        :prefixed: true
        :description: Used to indicate whether the event described by --TERM was pre-specified
          on a CRF. Value is Y for pre-specified events, null for spontaneously reported
          events.
        :datatype:
          :type: http://www.assero.co.uk/BusinessDomain#VariableType
          :id: ''
          :namespace: ''
          :label: Char
          :extension_properties: []
        :classification:
          :type: http://www.assero.co.uk/BusinessDomain#VariableClassification
          :id: ''
          :namespace: ''
          :label: Qualifier
          :extension_properties: []
        :sub_classification:
          :type: http://www.assero.co.uk/BusinessDomain#VariableClassification
          :id: ''
          :namespace: ''
          :label: Variable Qualifier
          :extension_properties: []
      - :type: http://www.assero.co.uk/BusinessDomain#ModelVariable
        :id: ''
        :namespace: ''
        :label: Occurrence
        :extension_properties: []
        :ordinal: '14'
        :rule: ''
        :name: "--OCCUR"
        :prefixed: true
        :description: Used to record whether a pre-specified event occurred when information
          about the occurrence of a specific event is solicited.
        :datatype:
          :type: http://www.assero.co.uk/BusinessDomain#VariableType
          :id: ''
          :namespace: ''
          :label: Char
          :extension_properties: []
        :classification:
          :type: http://www.assero.co.uk/BusinessDomain#VariableClassification
          :id: ''
          :namespace: ''
          :label: Qualifier
          :extension_properties: []
        :sub_classification:
          :type: http://www.assero.co.uk/BusinessDomain#VariableClassification
          :id: ''
          :namespace: ''
          :label: Record Qualifier
          :extension_properties: []
      - :type: http://www.assero.co.uk/BusinessDomain#ModelVariable
        :id: ''
        :namespace: ''
        :label: Completion Status
        :extension_properties: []
        :ordinal: '15'
        :rule: ''
        :name: "--STAT"
        :prefixed: true
        :description: Used to indicate when a question about the occurrence of a pre-specified
          event was not answered. Should be null or have a value of NOT DONE.
        :datatype:
          :type: http://www.assero.co.uk/BusinessDomain#VariableType
          :id: ''
          :namespace: ''
          :label: Char
          :extension_properties: []
        :classification:
          :type: http://www.assero.co.uk/BusinessDomain#VariableClassification
          :id: ''
          :namespace: ''
          :label: Qualifier
          :extension_properties: []
        :sub_classification:
          :type: http://www.assero.co.uk/BusinessDomain#VariableClassification
          :id: ''
          :namespace: ''
          :label: Record Qualifier
          :extension_properties: []
      - :type: http://www.assero.co.uk/BusinessDomain#ModelVariable
        :id: ''
        :namespace: ''
        :label: Reason Not Done
        :extension_properties: []
        :ordinal: '16'
        :rule: ''
        :name: "--REASND"
        :prefixed: true
        :description: Reason not done. Used in conjunction with --STAT when its value
          is NOT DONE.
        :datatype:
          :type: http://www.assero.co.uk/BusinessDomain#VariableType
          :id: ''
          :namespace: ''
          :label: Char
          :extension_properties: []
        :classification:
          :type: http://www.assero.co.uk/BusinessDomain#VariableClassification
          :id: ''
          :namespace: ''
          :label: Qualifier
          :extension_properties: []
        :sub_classification:
          :type: http://www.assero.co.uk/BusinessDomain#VariableClassification
          :id: ''
          :namespace: ''
          :label: Record Qualifier
          :extension_properties: []
      - :type: http://www.assero.co.uk/BusinessDomain#ModelVariable
        :id: ''
        :namespace: ''
        :label: Body System or Organ Class
        :extension_properties: []
        :ordinal: '17'
        :rule: ''
        :name: "--BODSYS"
        :prefixed: true
        :description: 'Body system or system organ class assigned for analysis from
          a standard hierarchy (e.g. MedDRA) associated with an event. Example: GASTROINTESTINAL
          DISORDERS.'
        :datatype:
          :type: http://www.assero.co.uk/BusinessDomain#VariableType
          :id: ''
          :namespace: ''
          :label: Char
          :extension_properties: []
        :classification:
          :type: http://www.assero.co.uk/BusinessDomain#VariableClassification
          :id: ''
          :namespace: ''
          :label: Qualifier
          :extension_properties: []
        :sub_classification:
          :type: http://www.assero.co.uk/BusinessDomain#VariableClassification
          :id: ''
          :namespace: ''
          :label: Record Qualifier
          :extension_properties: []
      - :type: http://www.assero.co.uk/BusinessDomain#ModelVariable
        :id: ''
        :namespace: ''
        :label: Body System or Organ Class Code
        :extension_properties: []
        :ordinal: '18'
        :rule: ''
        :name: "--BDSYCD"
        :prefixed: true
        :description: MedDRA System Organ Class code corresponding to --BODSYS assigned
          for analysis.
        :datatype:
          :type: http://www.assero.co.uk/BusinessDomain#VariableType
          :id: ''
          :namespace: ''
          :label: Num
          :extension_properties: []
        :classification:
          :type: http://www.assero.co.uk/BusinessDomain#VariableClassification
          :id: ''
          :namespace: ''
          :label: Qualifier
          :extension_properties: []
        :sub_classification:
          :type: http://www.assero.co.uk/BusinessDomain#VariableClassification
          :id: ''
          :namespace: ''
          :label: Variable Qualifier
          :extension_properties: []
      - :type: http://www.assero.co.uk/BusinessDomain#ModelVariable
        :id: ''
        :namespace: ''
        :label: Primary System Organ Class
        :extension_properties: []
        :ordinal: '19'
        :rule: ''
        :name: "--SOC"
        :prefixed: true
        :description: MedDRA primary System Organ Class associated with the event.
        :datatype:
          :type: http://www.assero.co.uk/BusinessDomain#VariableType
          :id: ''
          :namespace: ''
          :label: Char
          :extension_properties: []
        :classification:
          :type: http://www.assero.co.uk/BusinessDomain#VariableClassification
          :id: ''
          :namespace: ''
          :label: Qualifier
          :extension_properties: []
        :sub_classification:
          :type: http://www.assero.co.uk/BusinessDomain#VariableClassification
          :id: ''
          :namespace: ''
          :label: Variable Qualifier
          :extension_properties: []
      - :type: http://www.assero.co.uk/BusinessDomain#ModelVariable
        :id: ''
        :namespace: ''
        :label: Primary System Organ Class Code
        :extension_properties: []
        :ordinal: '20'
        :rule: ''
        :name: "--SOCCD"
        :prefixed: true
        :description: MedDRA primary System Organ Class code.
        :datatype:
          :type: http://www.assero.co.uk/BusinessDomain#VariableType
          :id: ''
          :namespace: ''
          :label: Num
          :extension_properties: []
        :classification:
          :type: http://www.assero.co.uk/BusinessDomain#VariableClassification
          :id: ''
          :namespace: ''
          :label: Qualifier
          :extension_properties: []
        :sub_classification:
          :type: http://www.assero.co.uk/BusinessDomain#VariableClassification
          :id: ''
          :namespace: ''
          :label: Variable Qualifier
          :extension_properties: []
      - :type: http://www.assero.co.uk/BusinessDomain#ModelVariable
        :id: ''
        :namespace: ''
        :label: Location of Event
        :extension_properties: []
        :ordinal: '21'
        :rule: ''
        :name: "--LOC"
        :prefixed: true
        :description: 'Describes anatomical location relevant for the event. Example:
          ARM for skin rash.'
        :datatype:
          :type: http://www.assero.co.uk/BusinessDomain#VariableType
          :id: ''
          :namespace: ''
          :label: Char
          :extension_properties: []
        :classification:
          :type: http://www.assero.co.uk/BusinessDomain#VariableClassification
          :id: ''
          :namespace: ''
          :label: Qualifier
          :extension_properties: []
        :sub_classification:
          :type: http://www.assero.co.uk/BusinessDomain#VariableClassification
          :id: ''
          :namespace: ''
          :label: Record Qualifier
          :extension_properties: []
      - :type: http://www.assero.co.uk/BusinessDomain#ModelVariable
        :id: ''
        :namespace: ''
        :label: Laterality
        :extension_properties: []
        :ordinal: '22'
        :rule: ''
        :name: "--LAT"
        :prefixed: true
        :description: 'Qualifier for anatomical location further detailing laterality.
          Examples: RIGHT, LEFT, BILATERAL'
        :datatype:
          :type: http://www.assero.co.uk/BusinessDomain#VariableType
          :id: ''
          :namespace: ''
          :label: Char
          :extension_properties: []
        :classification:
          :type: http://www.assero.co.uk/BusinessDomain#VariableClassification
          :id: ''
          :namespace: ''
          :label: Qualifier
          :extension_properties: []
        :sub_classification:
          :type: http://www.assero.co.uk/BusinessDomain#VariableClassification
          :id: ''
          :namespace: ''
          :label: Variable Qualifier
          :extension_properties: []
      - :type: http://www.assero.co.uk/BusinessDomain#ModelVariable
        :id: ''
        :namespace: ''
        :label: Directionality
        :extension_properties: []
        :ordinal: '23'
        :rule: ''
        :name: "--DIR"
        :prefixed: true
        :description: 'Qualifier for anatomical location further detailing directionality.
          Examples: ANTERIOR, LOWER, PROXIMAL'
        :datatype:
          :type: http://www.assero.co.uk/BusinessDomain#VariableType
          :id: ''
          :namespace: ''
          :label: Char
          :extension_properties: []
        :classification:
          :type: http://www.assero.co.uk/BusinessDomain#VariableClassification
          :id: ''
          :namespace: ''
          :label: Qualifier
          :extension_properties: []
        :sub_classification:
          :type: http://www.assero.co.uk/BusinessDomain#VariableClassification
          :id: ''
          :namespace: ''
          :label: Variable Qualifier
          :extension_properties: []
      - :type: http://www.assero.co.uk/BusinessDomain#ModelVariable
        :id: ''
        :namespace: ''
        :label: Portion or Totality
        :extension_properties: []
        :ordinal: '24'
        :rule: ''
        :name: "--PORTOT"
        :prefixed: true
        :description: 'Qualifier for anatomical location further detailing the distribution,
          which means arrangement of, apportioning of. Examples: ENTIRE, SINGLE, SEGMENT,
          MANY.'
        :datatype:
          :type: http://www.assero.co.uk/BusinessDomain#VariableType
          :id: ''
          :namespace: ''
          :label: Char
          :extension_properties: []
        :classification:
          :type: http://www.assero.co.uk/BusinessDomain#VariableClassification
          :id: ''
          :namespace: ''
          :label: Qualifier
          :extension_properties: []
        :sub_classification:
          :type: http://www.assero.co.uk/BusinessDomain#VariableClassification
          :id: ''
          :namespace: ''
          :label: Variable Qualifier
          :extension_properties: []
      - :type: http://www.assero.co.uk/BusinessDomain#ModelVariable
        :id: ''
        :namespace: ''
        :label: Accountable Party
        :extension_properties: []
        :ordinal: '25'
        :rule: ''
        :name: "--PARTY"
        :prefixed: true
        :description: Party accountable for the transferable object (e.g. device,
          specimen) as a result of the activity performed in the associated --TERM
          variable. The party could be an individual (e.g., subject), an organization
          (e.g., sponsor), or a location that is a proxy for an individual or organization
          (e.g., site). It is usually a somewhat general term that is further identified
          in the --PRTYID variable.
        :datatype:
          :type: http://www.assero.co.uk/BusinessDomain#VariableType
          :id: ''
          :namespace: ''
          :label: Char
          :extension_properties: []
        :classification:
          :type: http://www.assero.co.uk/BusinessDomain#VariableClassification
          :id: ''
          :namespace: ''
          :label: Qualifier
          :extension_properties: []
        :sub_classification:
          :type: http://www.assero.co.uk/BusinessDomain#VariableClassification
          :id: ''
          :namespace: ''
          :label: Record Qualifier
          :extension_properties: []
      - :type: http://www.assero.co.uk/BusinessDomain#ModelVariable
        :id: ''
        :namespace: ''
        :label: Identification of Accountable Party
        :extension_properties: []
        :ordinal: '26'
        :rule: ''
        :name: "--PRTYID"
        :prefixed: true
        :description: Identification of the specific party accountable for the transferable
          object (e.g. device, specimen) after the action in --TERM is taken. Used
          in conjunction with --PARTY.
        :datatype:
          :type: http://www.assero.co.uk/BusinessDomain#VariableType
          :id: ''
          :namespace: ''
          :label: Char
          :extension_properties: []
        :classification:
          :type: http://www.assero.co.uk/BusinessDomain#VariableClassification
          :id: ''
          :namespace: ''
          :label: Qualifier
          :extension_properties: []
        :sub_classification:
          :type: http://www.assero.co.uk/BusinessDomain#VariableClassification
          :id: ''
          :namespace: ''
          :label: Record Qualifier
          :extension_properties: []
      - :type: http://www.assero.co.uk/BusinessDomain#ModelVariable
        :id: ''
        :namespace: ''
        :label: Severity/Intensity
        :extension_properties: []
        :ordinal: '27'
        :rule: ''
        :name: "--SEV"
        :prefixed: true
        :description: 'The severity or intensity of the event. Examples: MILD, MODERATE,
          SEVERE.'
        :datatype:
          :type: http://www.assero.co.uk/BusinessDomain#VariableType
          :id: ''
          :namespace: ''
          :label: Char
          :extension_properties: []
        :classification:
          :type: http://www.assero.co.uk/BusinessDomain#VariableClassification
          :id: ''
          :namespace: ''
          :label: Qualifier
          :extension_properties: []
        :sub_classification:
          :type: http://www.assero.co.uk/BusinessDomain#VariableClassification
          :id: ''
          :namespace: ''
          :label: Record Qualifier
          :extension_properties: []
      - :type: http://www.assero.co.uk/BusinessDomain#ModelVariable
        :id: ''
        :namespace: ''
        :label: Serious Event
        :extension_properties: []
        :ordinal: '28'
        :rule: ''
        :name: "--SER"
        :prefixed: true
        :description: Is this is a serious event? Valid values are “Y” and “N”.
        :datatype:
          :type: http://www.assero.co.uk/BusinessDomain#VariableType
          :id: ''
          :namespace: ''
          :label: Char
          :extension_properties: []
        :classification:
          :type: http://www.assero.co.uk/BusinessDomain#VariableClassification
          :id: ''
          :namespace: ''
          :label: Qualifier
          :extension_properties: []
        :sub_classification:
          :type: http://www.assero.co.uk/BusinessDomain#VariableClassification
          :id: ''
          :namespace: ''
          :label: Record Qualifier
          :extension_properties: []
      - :type: http://www.assero.co.uk/BusinessDomain#ModelVariable
        :id: ''
        :namespace: ''
        :label: Action Taken with Study Treatment
        :extension_properties: []
        :ordinal: '29'
        :rule: ''
        :name: "--ACN"
        :prefixed: true
        :description: 'Describes changes made to the study treatment as a result of
          the event. Examples: DOSE INCREASED, DOSE NOT CHANGED.'
        :datatype:
          :type: http://www.assero.co.uk/BusinessDomain#VariableType
          :id: ''
          :namespace: ''
          :label: Char
          :extension_properties: []
        :classification:
          :type: http://www.assero.co.uk/BusinessDomain#VariableClassification
          :id: ''
          :namespace: ''
          :label: Qualifier
          :extension_properties: []
        :sub_classification:
          :type: http://www.assero.co.uk/BusinessDomain#VariableClassification
          :id: ''
          :namespace: ''
          :label: Record Qualifier
          :extension_properties: []
      - :type: http://www.assero.co.uk/BusinessDomain#ModelVariable
        :id: ''
        :namespace: ''
        :label: Other Action Taken
        :extension_properties: []
        :ordinal: '30'
        :rule: ''
        :name: "--ACNOTH"
        :prefixed: true
        :description: Describes other actions taken as a result of the event that
          are unrelated to dose adjustments of study treatment.
        :datatype:
          :type: http://www.assero.co.uk/BusinessDomain#VariableType
          :id: ''
          :namespace: ''
          :label: Char
          :extension_properties: []
        :classification:
          :type: http://www.assero.co.uk/BusinessDomain#VariableClassification
          :id: ''
          :namespace: ''
          :label: Qualifier
          :extension_properties: []
        :sub_classification:
          :type: http://www.assero.co.uk/BusinessDomain#VariableClassification
          :id: ''
          :namespace: ''
          :label: Record Qualifier
          :extension_properties: []
      - :type: http://www.assero.co.uk/BusinessDomain#ModelVariable
        :id: ''
        :namespace: ''
        :label: Action Taken with Device
        :extension_properties: []
        :ordinal: '31'
        :rule: ''
        :name: "--ACNDEV"
        :prefixed: true
        :description: Action taken with respect to a device in a study, which may
          or may not be the device under study
        :datatype:
          :type: http://www.assero.co.uk/BusinessDomain#VariableType
          :id: ''
          :namespace: ''
          :label: Char
          :extension_properties: []
        :classification:
          :type: http://www.assero.co.uk/BusinessDomain#VariableClassification
          :id: ''
          :namespace: ''
          :label: Qualifier
          :extension_properties: []
        :sub_classification:
          :type: http://www.assero.co.uk/BusinessDomain#VariableClassification
          :id: ''
          :namespace: ''
          :label: Record Qualifier
          :extension_properties: []
      - :type: http://www.assero.co.uk/BusinessDomain#ModelVariable
        :id: ''
        :namespace: ''
        :label: Causality
        :extension_properties: []
        :ordinal: '32'
        :rule: ''
        :name: "--REL"
        :prefixed: true
        :description: Records the investigator's opinion as to the causality of the
          event to the treatment. ICH E2A and E2B examples include NOT RELATED, UNLIKELY
          RELATED, POSSIBLY RELATED, RELATED.
        :datatype:
          :type: http://www.assero.co.uk/BusinessDomain#VariableType
          :id: ''
          :namespace: ''
          :label: Char
          :extension_properties: []
        :classification:
          :type: http://www.assero.co.uk/BusinessDomain#VariableClassification
          :id: ''
          :namespace: ''
          :label: Qualifier
          :extension_properties: []
        :sub_classification:
          :type: http://www.assero.co.uk/BusinessDomain#VariableClassification
          :id: ''
          :namespace: ''
          :label: Record Qualifier
          :extension_properties: []
      - :type: http://www.assero.co.uk/BusinessDomain#ModelVariable
        :id: ''
        :namespace: ''
        :label: Relationship to Non-Study Treatment
        :extension_properties: []
        :ordinal: '33'
        :rule: ''
        :name: "--RELNST"
        :prefixed: true
        :description: 'An opinion as to whether the event may have been due to a treatment
          other than study drug. Example: "MORE LIKELY RELATED TO ASPIRIN USE."'
        :datatype:
          :type: http://www.assero.co.uk/BusinessDomain#VariableType
          :id: ''
          :namespace: ''
          :label: Char
          :extension_properties: []
        :classification:
          :type: http://www.assero.co.uk/BusinessDomain#VariableClassification
          :id: ''
          :namespace: ''
          :label: Qualifier
          :extension_properties: []
        :sub_classification:
          :type: http://www.assero.co.uk/BusinessDomain#VariableClassification
          :id: ''
          :namespace: ''
          :label: Record Qualifier
          :extension_properties: []
      - :type: http://www.assero.co.uk/BusinessDomain#ModelVariable
        :id: ''
        :namespace: ''
        :label: Pattern of Event
        :extension_properties: []
        :ordinal: '34'
        :rule: ''
        :name: "--PATT"
        :prefixed: true
        :description: 'Used to indicate the pattern of the event over time. Examples:
          INTERMITTENT, CONTINUOUS, SINGLE EVENT.'
        :datatype:
          :type: http://www.assero.co.uk/BusinessDomain#VariableType
          :id: ''
          :namespace: ''
          :label: Char
          :extension_properties: []
        :classification:
          :type: http://www.assero.co.uk/BusinessDomain#VariableClassification
          :id: ''
          :namespace: ''
          :label: Qualifier
          :extension_properties: []
        :sub_classification:
          :type: http://www.assero.co.uk/BusinessDomain#VariableClassification
          :id: ''
          :namespace: ''
          :label: Record Qualifier
          :extension_properties: []
      - :type: http://www.assero.co.uk/BusinessDomain#ModelVariable
        :id: ''
        :namespace: ''
        :label: Outcome of Event
        :extension_properties: []
        :ordinal: '35'
        :rule: ''
        :name: "--OUT"
        :prefixed: true
        :description: 'Description of the outcome of an event. Examples: RECOVERED/RESOLVED,
          FATAL.'
        :datatype:
          :type: http://www.assero.co.uk/BusinessDomain#VariableType
          :id: ''
          :namespace: ''
          :label: Char
          :extension_properties: []
        :classification:
          :type: http://www.assero.co.uk/BusinessDomain#VariableClassification
          :id: ''
          :namespace: ''
          :label: Qualifier
          :extension_properties: []
        :sub_classification:
          :type: http://www.assero.co.uk/BusinessDomain#VariableClassification
          :id: ''
          :namespace: ''
          :label: Record Qualifier
          :extension_properties: []
      - :type: http://www.assero.co.uk/BusinessDomain#ModelVariable
        :id: ''
        :namespace: ''
        :label: Involves Cancer
        :extension_properties: []
        :ordinal: '36'
        :rule: ''
        :name: "--SCAN"
        :prefixed: true
        :description: Was the event associated with the development of cancer? Valid
          values are “Y” and “N”.
        :datatype:
          :type: http://www.assero.co.uk/BusinessDomain#VariableType
          :id: ''
          :namespace: ''
          :label: Char
          :extension_properties: []
        :classification:
          :type: http://www.assero.co.uk/BusinessDomain#VariableClassification
          :id: ''
          :namespace: ''
          :label: Qualifier
          :extension_properties: []
        :sub_classification:
          :type: http://www.assero.co.uk/BusinessDomain#VariableClassification
          :id: ''
          :namespace: ''
          :label: Record Qualifier
          :extension_properties: []
      - :type: http://www.assero.co.uk/BusinessDomain#ModelVariable
        :id: ''
        :namespace: ''
        :label: Congenital Anomaly or Birth Defect
        :extension_properties: []
        :ordinal: '37'
        :rule: ''
        :name: "--SCONG"
        :prefixed: true
        :description: Was the event associated with congenital anomaly or birth defect?
          Valid values are “Y” and “N”.
        :datatype:
          :type: http://www.assero.co.uk/BusinessDomain#VariableType
          :id: ''
          :namespace: ''
          :label: Char
          :extension_properties: []
        :classification:
          :type: http://www.assero.co.uk/BusinessDomain#VariableClassification
          :id: ''
          :namespace: ''
          :label: Qualifier
          :extension_properties: []
        :sub_classification:
          :type: http://www.assero.co.uk/BusinessDomain#VariableClassification
          :id: ''
          :namespace: ''
          :label: Record Qualifier
          :extension_properties: []
      - :type: http://www.assero.co.uk/BusinessDomain#ModelVariable
        :id: ''
        :namespace: ''
        :label: Persist or Signif Disability/Incapacity
        :extension_properties: []
        :ordinal: '38'
        :rule: ''
        :name: "--SDISAB"
        :prefixed: true
        :description: Did the event result in persistent or significant disability/incapacity?
          Valid values are “Y” and “N”.
        :datatype:
          :type: http://www.assero.co.uk/BusinessDomain#VariableType
          :id: ''
          :namespace: ''
          :label: Char
          :extension_properties: []
        :classification:
          :type: http://www.assero.co.uk/BusinessDomain#VariableClassification
          :id: ''
          :namespace: ''
          :label: Qualifier
          :extension_properties: []
        :sub_classification:
          :type: http://www.assero.co.uk/BusinessDomain#VariableClassification
          :id: ''
          :namespace: ''
          :label: Record Qualifier
          :extension_properties: []
      - :type: http://www.assero.co.uk/BusinessDomain#ModelVariable
        :id: ''
        :namespace: ''
        :label: Results in Death
        :extension_properties: []
        :ordinal: '39'
        :rule: ''
        :name: "--SDTH"
        :prefixed: true
        :description: Did the event result in death? Valid values are “Y” and “N”.
        :datatype:
          :type: http://www.assero.co.uk/BusinessDomain#VariableType
          :id: ''
          :namespace: ''
          :label: Char
          :extension_properties: []
        :classification:
          :type: http://www.assero.co.uk/BusinessDomain#VariableClassification
          :id: ''
          :namespace: ''
          :label: Qualifier
          :extension_properties: []
        :sub_classification:
          :type: http://www.assero.co.uk/BusinessDomain#VariableClassification
          :id: ''
          :namespace: ''
          :label: Record Qualifier
          :extension_properties: []
      - :type: http://www.assero.co.uk/BusinessDomain#ModelVariable
        :id: ''
        :namespace: ''
        :label: Requires or Prolongs Hospitalization
        :extension_properties: []
        :ordinal: '40'
        :rule: ''
        :name: "--SHOSP"
        :prefixed: true
        :description: Did the event require or prolong hospitalization? Valid values
          are “Y” and “N”.
        :datatype:
          :type: http://www.assero.co.uk/BusinessDomain#VariableType
          :id: ''
          :namespace: ''
          :label: Char
          :extension_properties: []
        :classification:
          :type: http://www.assero.co.uk/BusinessDomain#VariableClassification
          :id: ''
          :namespace: ''
          :label: Qualifier
          :extension_properties: []
        :sub_classification:
          :type: http://www.assero.co.uk/BusinessDomain#VariableClassification
          :id: ''
          :namespace: ''
          :label: Record Qualifier
          :extension_properties: []
      - :type: http://www.assero.co.uk/BusinessDomain#ModelVariable
        :id: ''
        :namespace: ''
        :label: Is Life Threatening
        :extension_properties: []
        :ordinal: '41'
        :rule: ''
        :name: "--SLIFE"
        :prefixed: true
        :description: Was the event life threatening? Valid values are “Y” and “N”.
        :datatype:
          :type: http://www.assero.co.uk/BusinessDomain#VariableType
          :id: ''
          :namespace: ''
          :label: Char
          :extension_properties: []
        :classification:
          :type: http://www.assero.co.uk/BusinessDomain#VariableClassification
          :id: ''
          :namespace: ''
          :label: Qualifier
          :extension_properties: []
        :sub_classification:
          :type: http://www.assero.co.uk/BusinessDomain#VariableClassification
          :id: ''
          :namespace: ''
          :label: Record Qualifier
          :extension_properties: []
      - :type: http://www.assero.co.uk/BusinessDomain#ModelVariable
        :id: ''
        :namespace: ''
        :label: Occurred with Overdose
        :extension_properties: []
        :ordinal: '42'
        :rule: ''
        :name: "--SOD"
        :prefixed: true
        :description: Did the event occur with an overdose? Valid values are “Y” and
          “N”.
        :datatype:
          :type: http://www.assero.co.uk/BusinessDomain#VariableType
          :id: ''
          :namespace: ''
          :label: Char
          :extension_properties: []
        :classification:
          :type: http://www.assero.co.uk/BusinessDomain#VariableClassification
          :id: ''
          :namespace: ''
          :label: Qualifier
          :extension_properties: []
        :sub_classification:
          :type: http://www.assero.co.uk/BusinessDomain#VariableClassification
          :id: ''
          :namespace: ''
          :label: Record Qualifier
          :extension_properties: []
      - :type: http://www.assero.co.uk/BusinessDomain#ModelVariable
        :id: ''
        :namespace: ''
        :label: Other Medically Important Serious Event
        :extension_properties: []
        :ordinal: '43'
        :rule: ''
        :name: "--SMIE"
        :prefixed: true
        :description: Do additional categories for seriousness apply? Valid values
          are “Y” and “N”.
        :datatype:
          :type: http://www.assero.co.uk/BusinessDomain#VariableType
          :id: ''
          :namespace: ''
          :label: Char
          :extension_properties: []
        :classification:
          :type: http://www.assero.co.uk/BusinessDomain#VariableClassification
          :id: ''
          :namespace: ''
          :label: Qualifier
          :extension_properties: []
        :sub_classification:
          :type: http://www.assero.co.uk/BusinessDomain#VariableClassification
          :id: ''
          :namespace: ''
          :label: Record Qualifier
          :extension_properties: []
      - :type: http://www.assero.co.uk/BusinessDomain#ModelVariable
        :id: ''
        :namespace: ''
        :label: Concomitant or Additional Trtmnt Given
        :extension_properties: []
        :ordinal: '44'
        :rule: ''
        :name: "--CONTRT"
        :prefixed: true
        :description: Was another treatment given because of the occurrence of the
          event? Valid values are “Y” and “N”.
        :datatype:
          :type: http://www.assero.co.uk/BusinessDomain#VariableType
          :id: ''
          :namespace: ''
          :label: Char
          :extension_properties: []
        :classification:
          :type: http://www.assero.co.uk/BusinessDomain#VariableClassification
          :id: ''
          :namespace: ''
          :label: Qualifier
          :extension_properties: []
        :sub_classification:
          :type: http://www.assero.co.uk/BusinessDomain#VariableClassification
          :id: ''
          :namespace: ''
          :label: Record Qualifier
          :extension_properties: []
      - :type: http://www.assero.co.uk/BusinessDomain#ModelVariable
        :id: ''
        :namespace: ''
        :label: Toxicity
        :extension_properties: []
        :ordinal: '45'
        :rule: ''
        :name: "--TOX"
        :prefixed: true
        :description: 'Description of toxicity quantified by --TOXGR such as NCI CTCAE
          Short Name. Examples: HYPERCALCEMIA, HYPOCALCEMIA. Sponsor should specify
          which scale and version is used in the Sponsor Comments column of the Define-XML
          document.'
        :datatype:
          :type: http://www.assero.co.uk/BusinessDomain#VariableType
          :id: ''
          :namespace: ''
          :label: Char
          :extension_properties: []
        :classification:
          :type: http://www.assero.co.uk/BusinessDomain#VariableClassification
          :id: ''
          :namespace: ''
          :label: Qualifier
          :extension_properties: []
        :sub_classification:
          :type: http://www.assero.co.uk/BusinessDomain#VariableClassification
          :id: ''
          :namespace: ''
          :label: Variable Qualifier
          :extension_properties: []
      - :type: http://www.assero.co.uk/BusinessDomain#ModelVariable
        :id: ''
        :namespace: ''
        :label: Toxicity Grade
        :extension_properties: []
        :ordinal: '46'
        :rule: ''
        :name: "--TOXGR"
        :prefixed: true
        :description: Records toxicity grade using a standard toxicity scale (such
          as the NCI CTCAE). Sponsor should specify which scale and version is used
          in the Sponsor Comments column of the Define-XML document.
        :datatype:
          :type: http://www.assero.co.uk/BusinessDomain#VariableType
          :id: ''
          :namespace: ''
          :label: Char
          :extension_properties: []
        :classification:
          :type: http://www.assero.co.uk/BusinessDomain#VariableClassification
          :id: ''
          :namespace: ''
          :label: Qualifier
          :extension_properties: []
        :sub_classification:
          :type: http://www.assero.co.uk/BusinessDomain#VariableClassification
          :id: ''
          :namespace: ''
          :label: Record Qualifier
          :extension_properties: []
      - :type: http://www.assero.co.uk/BusinessDomain#ModelVariable
        :id: ''
        :namespace: ''
        :label: Object of the Observation
        :extension_properties: []
        :ordinal: '1'
        :rule: ''
        :name: "--OBJ"
        :prefixed: true
        :description: 'Used in domains modeled as Findings About Events or Findings
          About Interventions. Describes the event or intervention whose property
          is being measured in --TESTCD/--TEST. Example: an event of vomiting which
          has findings, where --OBJ = “VOMIT” and the volume of VOMIT is being measured
          where --TESTCD = "VOLUME".'
        :datatype:
          :type: http://www.assero.co.uk/BusinessDomain#VariableType
          :id: ''
          :namespace: ''
          :label: Char
          :extension_properties: []
        :classification:
          :type: http://www.assero.co.uk/BusinessDomain#VariableClassification
          :id: ''
          :namespace: ''
          :label: Qualifier
          :extension_properties: []
        :sub_classification:
          :type: http://www.assero.co.uk/BusinessDomain#VariableClassification
          :id: ''
          :namespace: ''
          :label: Record Qualifier
          :extension_properties: []
      - :type: http://www.assero.co.uk/BusinessDomain#ModelVariable
        :id: ''
        :namespace: ''
        :label: Short Name of Measurement, Test or Examination
        :extension_properties: []
        :ordinal: '1'
        :rule: ''
        :name: "--TESTCD"
        :prefixed: true
        :description: 'Short character value for --TEST used as a column name when
          converting a dataset from a vertical format to a horizontal format. The
          short value can be up to 8 characters. Examples: PLAT, SYSBP, RRMIN, EYEEXAM.'
        :datatype:
          :type: http://www.assero.co.uk/BusinessDomain#VariableType
          :id: ''
          :namespace: ''
          :label: Char
          :extension_properties: []
        :classification:
          :type: http://www.assero.co.uk/BusinessDomain#VariableClassification
          :id: ''
          :namespace: ''
          :label: Topic
          :extension_properties: []
        :sub_classification:
          :type: http://www.assero.co.uk/BusinessDomain#VariableClassification
          :id: ''
          :namespace: ''
          :label: Not Applicable
          :extension_properties: []
      - :type: http://www.assero.co.uk/BusinessDomain#ModelVariable
        :id: ''
        :namespace: ''
        :label: Name of Measurement, Test or Examination
        :extension_properties: []
        :ordinal: '2'
        :rule: ''
        :name: "--TEST"
        :prefixed: true
        :description: 'Long name For --TESTCD. Examples: Platelet, Systolic Blood
          Pressure, Summary (Min) RR Duration, Eye Examination.'
        :datatype:
          :type: http://www.assero.co.uk/BusinessDomain#VariableType
          :id: ''
          :namespace: ''
          :label: Char
          :extension_properties: []
        :classification:
          :type: http://www.assero.co.uk/BusinessDomain#VariableClassification
          :id: ''
          :namespace: ''
          :label: Qualifier
          :extension_properties: []
        :sub_classification:
          :type: http://www.assero.co.uk/BusinessDomain#VariableClassification
          :id: ''
          :namespace: ''
          :label: Synonym Qualifier
          :extension_properties: []
      - :type: http://www.assero.co.uk/BusinessDomain#ModelVariable
        :id: ''
        :namespace: ''
        :label: Modified Term
        :extension_properties: []
        :ordinal: '3'
        :rule: ''
        :name: "--MODIFY"
        :prefixed: true
        :description: If the value of --ORRES is modified for coding purposes, then
          the modified text is placed here.
        :datatype:
          :type: http://www.assero.co.uk/BusinessDomain#VariableType
          :id: ''
          :namespace: ''
          :label: Char
          :extension_properties: []
        :classification:
          :type: http://www.assero.co.uk/BusinessDomain#VariableClassification
          :id: ''
          :namespace: ''
          :label: Qualifier
          :extension_properties: []
        :sub_classification:
          :type: http://www.assero.co.uk/BusinessDomain#VariableClassification
          :id: ''
          :namespace: ''
          :label: Synonym Qualifier
          :extension_properties: []
      - :type: http://www.assero.co.uk/BusinessDomain#ModelVariable
        :id: ''
        :namespace: ''
        :label: Measurement, Test or Examination Detail
        :extension_properties: []
        :ordinal: '4'
        :rule: ''
        :name: "--TSTDTL"
        :prefixed: true
        :description: 'Further description of --TESTCD and --TEST. Example: “The percentage
          of cells with +1 intensity of staining” when MITESTCD = TTF1.'
        :datatype:
          :type: http://www.assero.co.uk/BusinessDomain#VariableType
          :id: ''
          :namespace: ''
          :label: Char
          :extension_properties: []
        :classification:
          :type: http://www.assero.co.uk/BusinessDomain#VariableClassification
          :id: ''
          :namespace: ''
          :label: Qualifier
          :extension_properties: []
        :sub_classification:
          :type: http://www.assero.co.uk/BusinessDomain#VariableClassification
          :id: ''
          :namespace: ''
          :label: Variable Qualifier
          :extension_properties: []
      - :type: http://www.assero.co.uk/BusinessDomain#ModelVariable
        :id: ''
        :namespace: ''
        :label: Category
        :extension_properties: []
        :ordinal: '5'
        :rule: ''
        :name: "--CAT"
        :prefixed: true
        :description: 'Used to define a category of topic-variable values. Examples:
          HEMATOLOGY, URINALYSIS, CHEMISTRY, HAMILTON DEPRESSION SCALE, SF36, MICRO
          ARRAY, EGFR MUTATION ANALYSIS'
        :datatype:
          :type: http://www.assero.co.uk/BusinessDomain#VariableType
          :id: ''
          :namespace: ''
          :label: Char
          :extension_properties: []
        :classification:
          :type: http://www.assero.co.uk/BusinessDomain#VariableClassification
          :id: ''
          :namespace: ''
          :label: Qualifier
          :extension_properties: []
        :sub_classification:
          :type: http://www.assero.co.uk/BusinessDomain#VariableClassification
          :id: ''
          :namespace: ''
          :label: Grouping Qualifier
          :extension_properties: []
      - :type: http://www.assero.co.uk/BusinessDomain#ModelVariable
        :id: ''
        :namespace: ''
        :label: Subcategory
        :extension_properties: []
        :ordinal: '6'
        :rule: ''
        :name: "--SCAT"
        :prefixed: true
        :description: 'Used to define a further categorization of --CAT values. Example:
          DIFFERENTIAL.'
        :datatype:
          :type: http://www.assero.co.uk/BusinessDomain#VariableType
          :id: ''
          :namespace: ''
          :label: Char
          :extension_properties: []
        :classification:
          :type: http://www.assero.co.uk/BusinessDomain#VariableClassification
          :id: ''
          :namespace: ''
          :label: Qualifier
          :extension_properties: []
        :sub_classification:
          :type: http://www.assero.co.uk/BusinessDomain#VariableClassification
          :id: ''
          :namespace: ''
          :label: Grouping Qualifier
          :extension_properties: []
      - :type: http://www.assero.co.uk/BusinessDomain#ModelVariable
        :id: ''
        :namespace: ''
        :label: Position of Subject During Observation
        :extension_properties: []
        :ordinal: '7'
        :rule: ''
        :name: "--POS"
        :prefixed: true
        :description: 'Position of the subject during a measurement or examination.
          Examples: SUPINE, STANDING, SITTING.'
        :datatype:
          :type: http://www.assero.co.uk/BusinessDomain#VariableType
          :id: ''
          :namespace: ''
          :label: Char
          :extension_properties: []
        :classification:
          :type: http://www.assero.co.uk/BusinessDomain#VariableClassification
          :id: ''
          :namespace: ''
          :label: Qualifier
          :extension_properties: []
        :sub_classification:
          :type: http://www.assero.co.uk/BusinessDomain#VariableClassification
          :id: ''
          :namespace: ''
          :label: Record Qualifier
          :extension_properties: []
      - :type: http://www.assero.co.uk/BusinessDomain#ModelVariable
        :id: ''
        :namespace: ''
        :label: Body System or Organ Class
        :extension_properties: []
        :ordinal: '8'
        :rule: ''
        :name: "--BODSYS"
        :prefixed: true
        :description: 'Body System or Organ Class that is involved for a finding from
          the standard hierarchy for dictionary-coded results. Example: MedDRA SOC.'
        :datatype:
          :type: http://www.assero.co.uk/BusinessDomain#VariableType
          :id: ''
          :namespace: ''
          :label: Char
          :extension_properties: []
        :classification:
          :type: http://www.assero.co.uk/BusinessDomain#VariableClassification
          :id: ''
          :namespace: ''
          :label: Qualifier
          :extension_properties: []
        :sub_classification:
          :type: http://www.assero.co.uk/BusinessDomain#VariableClassification
          :id: ''
          :namespace: ''
          :label: Record Qualifier
          :extension_properties: []
      - :type: http://www.assero.co.uk/BusinessDomain#ModelVariable
        :id: ''
        :namespace: ''
        :label: Result or Finding in Original Units
        :extension_properties: []
        :ordinal: '9'
        :rule: ''
        :name: "--ORRES"
        :prefixed: true
        :description: 'Result of the measurement or finding as originally received
          or collected. Examples: 120, <1, POS.'
        :datatype:
          :type: http://www.assero.co.uk/BusinessDomain#VariableType
          :id: ''
          :namespace: ''
          :label: Char
          :extension_properties: []
        :classification:
          :type: http://www.assero.co.uk/BusinessDomain#VariableClassification
          :id: ''
          :namespace: ''
          :label: Qualifier
          :extension_properties: []
        :sub_classification:
          :type: http://www.assero.co.uk/BusinessDomain#VariableClassification
          :id: ''
          :namespace: ''
          :label: Result Qualifier
          :extension_properties: []
      - :type: http://www.assero.co.uk/BusinessDomain#ModelVariable
        :id: ''
        :namespace: ''
        :label: Original Units
        :extension_properties: []
        :ordinal: '10'
        :rule: ''
        :name: "--ORRESU"
        :prefixed: true
        :description: 'Unit for --ORRES. Examples: IN, LB, kg/L.'
        :datatype:
          :type: http://www.assero.co.uk/BusinessDomain#VariableType
          :id: ''
          :namespace: ''
          :label: Char
          :extension_properties: []
        :classification:
          :type: http://www.assero.co.uk/BusinessDomain#VariableClassification
          :id: ''
          :namespace: ''
          :label: Qualifier
          :extension_properties: []
        :sub_classification:
          :type: http://www.assero.co.uk/BusinessDomain#VariableClassification
          :id: ''
          :namespace: ''
          :label: Variable Qualifier
          :extension_properties: []
      - :type: http://www.assero.co.uk/BusinessDomain#ModelVariable
        :id: ''
        :namespace: ''
        :label: Normal Range Lower Limit-Original Units
        :extension_properties: []
        :ordinal: '11'
        :rule: ''
        :name: "--ORNRLO"
        :prefixed: true
        :description: Lower end of normal range or reference range for results stored
          in --ORRES.
        :datatype:
          :type: http://www.assero.co.uk/BusinessDomain#VariableType
          :id: ''
          :namespace: ''
          :label: Char
          :extension_properties: []
        :classification:
          :type: http://www.assero.co.uk/BusinessDomain#VariableClassification
          :id: ''
          :namespace: ''
          :label: Qualifier
          :extension_properties: []
        :sub_classification:
          :type: http://www.assero.co.uk/BusinessDomain#VariableClassification
          :id: ''
          :namespace: ''
          :label: Variable Qualifier
          :extension_properties: []
      - :type: http://www.assero.co.uk/BusinessDomain#ModelVariable
        :id: ''
        :namespace: ''
        :label: Normal Range Upper Limit-Original Units
        :extension_properties: []
        :ordinal: '12'
        :rule: ''
        :name: "--ORNRHI"
        :prefixed: true
        :description: Upper end of normal range or reference range for results stored
          in --ORRES.
        :datatype:
          :type: http://www.assero.co.uk/BusinessDomain#VariableType
          :id: ''
          :namespace: ''
          :label: Char
          :extension_properties: []
        :classification:
          :type: http://www.assero.co.uk/BusinessDomain#VariableClassification
          :id: ''
          :namespace: ''
          :label: Qualifier
          :extension_properties: []
        :sub_classification:
          :type: http://www.assero.co.uk/BusinessDomain#VariableClassification
          :id: ''
          :namespace: ''
          :label: Variable Qualifier
          :extension_properties: []
      - :type: http://www.assero.co.uk/BusinessDomain#ModelVariable
        :id: ''
        :namespace: ''
        :label: Result or Finding in Standard Format
        :extension_properties: []
        :ordinal: '13'
        :rule: ''
        :name: "--STRESC"
        :prefixed: true
        :description: Contains the result value for all findings, copied or derived
          from --ORRES in a standard format or in standard units. --STRESC should
          store all results or findings in character format; if results are numeric,
          they should also be stored in numeric format in --STRESN. For example, if
          various tests have results “NONE”, “NEG”, and “NEGATIVE” in --ORRES and
          these results effectively have the same meaning, they could be represented
          in standard format in --STRESC as "NEGATIVE".
        :datatype:
          :type: http://www.assero.co.uk/BusinessDomain#VariableType
          :id: ''
          :namespace: ''
          :label: Char
          :extension_properties: []
        :classification:
          :type: http://www.assero.co.uk/BusinessDomain#VariableClassification
          :id: ''
          :namespace: ''
          :label: Qualifier
          :extension_properties: []
        :sub_classification:
          :type: http://www.assero.co.uk/BusinessDomain#VariableClassification
          :id: ''
          :namespace: ''
          :label: Result Qualifier
          :extension_properties: []
      - :type: http://www.assero.co.uk/BusinessDomain#ModelVariable
        :id: ''
        :namespace: ''
        :label: Numeric Result/Finding in Standard Units
        :extension_properties: []
        :ordinal: '14'
        :rule: ''
        :name: "--STRESN"
        :prefixed: true
        :description: Used for continuous or numeric results or findings in standard
          format; copied in numeric format from --STRESC. --STRESN should store all
          numeric test results or findings.
        :datatype:
          :type: http://www.assero.co.uk/BusinessDomain#VariableType
          :id: ''
          :namespace: ''
          :label: Num
          :extension_properties: []
        :classification:
          :type: http://www.assero.co.uk/BusinessDomain#VariableClassification
          :id: ''
          :namespace: ''
          :label: Qualifier
          :extension_properties: []
        :sub_classification:
          :type: http://www.assero.co.uk/BusinessDomain#VariableClassification
          :id: ''
          :namespace: ''
          :label: Result Qualifier
          :extension_properties: []
      - :type: http://www.assero.co.uk/BusinessDomain#ModelVariable
        :id: ''
        :namespace: ''
        :label: Standard Units
        :extension_properties: []
        :ordinal: '15'
        :rule: ''
        :name: "--STRESU"
        :prefixed: true
        :description: 'Standardized units used for --STRESC and --STRESN. Example:
          mol/L.'
        :datatype:
          :type: http://www.assero.co.uk/BusinessDomain#VariableType
          :id: ''
          :namespace: ''
          :label: Char
          :extension_properties: []
        :classification:
          :type: http://www.assero.co.uk/BusinessDomain#VariableClassification
          :id: ''
          :namespace: ''
          :label: Qualifier
          :extension_properties: []
        :sub_classification:
          :type: http://www.assero.co.uk/BusinessDomain#VariableClassification
          :id: ''
          :namespace: ''
          :label: Variable Qualifier
          :extension_properties: []
      - :type: http://www.assero.co.uk/BusinessDomain#ModelVariable
        :id: ''
        :namespace: ''
        :label: Normal Range Lower Limit-Standard Units
        :extension_properties: []
        :ordinal: '16'
        :rule: ''
        :name: "--STNRLO"
        :prefixed: true
        :description: Lower end of normal range or reference range for standardized
          results (e.g., --STRESC, --STRESN) represented in standardized units (--STRESU).
        :datatype:
          :type: http://www.assero.co.uk/BusinessDomain#VariableType
          :id: ''
          :namespace: ''
          :label: Num
          :extension_properties: []
        :classification:
          :type: http://www.assero.co.uk/BusinessDomain#VariableClassification
          :id: ''
          :namespace: ''
          :label: Qualifier
          :extension_properties: []
        :sub_classification:
          :type: http://www.assero.co.uk/BusinessDomain#VariableClassification
          :id: ''
          :namespace: ''
          :label: Variable Qualifier
          :extension_properties: []
      - :type: http://www.assero.co.uk/BusinessDomain#ModelVariable
        :id: ''
        :namespace: ''
        :label: Normal Range Upper Limit-Standard Units
        :extension_properties: []
        :ordinal: '17'
        :rule: ''
        :name: "--STNRHI"
        :prefixed: true
        :description: Upper end of normal range or reference range for standardized
          results (e.g., --STRESC, --STRESN) represented in standardized units (--STRESU).
        :datatype:
          :type: http://www.assero.co.uk/BusinessDomain#VariableType
          :id: ''
          :namespace: ''
          :label: Num
          :extension_properties: []
        :classification:
          :type: http://www.assero.co.uk/BusinessDomain#VariableClassification
          :id: ''
          :namespace: ''
          :label: Qualifier
          :extension_properties: []
        :sub_classification:
          :type: http://www.assero.co.uk/BusinessDomain#VariableClassification
          :id: ''
          :namespace: ''
          :label: Variable Qualifier
          :extension_properties: []
      - :type: http://www.assero.co.uk/BusinessDomain#ModelVariable
        :id: ''
        :namespace: ''
        :label: Normal Range for Character Results
        :extension_properties: []
        :ordinal: '18'
        :rule: ''
        :name: "--STNRC"
        :prefixed: true
        :description: 'Normal range or reference range for results stored in --STRESC
          that are character in ordinal or categorical scale. Example: Negative to
          Trace.'
        :datatype:
          :type: http://www.assero.co.uk/BusinessDomain#VariableType
          :id: ''
          :namespace: ''
          :label: Char
          :extension_properties: []
        :classification:
          :type: http://www.assero.co.uk/BusinessDomain#VariableClassification
          :id: ''
          :namespace: ''
          :label: Qualifier
          :extension_properties: []
        :sub_classification:
          :type: http://www.assero.co.uk/BusinessDomain#VariableClassification
          :id: ''
          :namespace: ''
          :label: Variable Qualifier
          :extension_properties: []
      - :type: http://www.assero.co.uk/BusinessDomain#ModelVariable
        :id: ''
        :namespace: ''
        :label: Normal/Reference Range Indicator
        :extension_properties: []
        :ordinal: '19'
        :rule: ''
        :name: "--NRIND"
        :prefixed: true
        :description: 'Used to indicate the value is outside the normal range or reference
          range. May be defined by --ORNRLO and --ORNRHI or other objective criteria.
          Examples: Y, N; HIGH, LOW; NORMAL; ABNORMAL.'
        :datatype:
          :type: http://www.assero.co.uk/BusinessDomain#VariableType
          :id: ''
          :namespace: ''
          :label: Char
          :extension_properties: []
        :classification:
          :type: http://www.assero.co.uk/BusinessDomain#VariableClassification
          :id: ''
          :namespace: ''
          :label: Qualifier
          :extension_properties: []
        :sub_classification:
          :type: http://www.assero.co.uk/BusinessDomain#VariableClassification
          :id: ''
          :namespace: ''
          :label: Variable Qualifier
          :extension_properties: []
      - :type: http://www.assero.co.uk/BusinessDomain#ModelVariable
        :id: ''
        :namespace: ''
        :label: Result Category
        :extension_properties: []
        :ordinal: '20'
        :rule: ''
        :name: "--RESCAT"
        :prefixed: true
        :description: 'Used to categorize the result of a finding. Example: MALIGNANT
          or BENIGN for tumor findings. RESISTANCE VARIANT for genetic variation.'
        :datatype:
          :type: http://www.assero.co.uk/BusinessDomain#VariableType
          :id: ''
          :namespace: ''
          :label: Char
          :extension_properties: []
        :classification:
          :type: http://www.assero.co.uk/BusinessDomain#VariableClassification
          :id: ''
          :namespace: ''
          :label: Qualifier
          :extension_properties: []
        :sub_classification:
          :type: http://www.assero.co.uk/BusinessDomain#VariableClassification
          :id: ''
          :namespace: ''
          :label: Variable Qualifier
          :extension_properties: []
      - :type: http://www.assero.co.uk/BusinessDomain#ModelVariable
        :id: ''
        :namespace: ''
        :label: Completion Status
        :extension_properties: []
        :ordinal: '21'
        :rule: ''
        :name: "--STAT"
        :prefixed: true
        :description: Used to indicate that a question was not asked or a test was
          not done, or a test was attempted but did not generate a result. Should
          be null or have a value of NOT DONE.
        :datatype:
          :type: http://www.assero.co.uk/BusinessDomain#VariableType
          :id: ''
          :namespace: ''
          :label: Char
          :extension_properties: []
        :classification:
          :type: http://www.assero.co.uk/BusinessDomain#VariableClassification
          :id: ''
          :namespace: ''
          :label: Qualifier
          :extension_properties: []
        :sub_classification:
          :type: http://www.assero.co.uk/BusinessDomain#VariableClassification
          :id: ''
          :namespace: ''
          :label: Record Qualifier
          :extension_properties: []
      - :type: http://www.assero.co.uk/BusinessDomain#ModelVariable
        :id: ''
        :namespace: ''
        :label: Reason Not Done
        :extension_properties: []
        :ordinal: '22'
        :rule: ''
        :name: "--REASND"
        :prefixed: true
        :description: Reason not done. Used in conjunction with --STAT when value
          is NOT DONE.
        :datatype:
          :type: http://www.assero.co.uk/BusinessDomain#VariableType
          :id: ''
          :namespace: ''
          :label: Char
          :extension_properties: []
        :classification:
          :type: http://www.assero.co.uk/BusinessDomain#VariableClassification
          :id: ''
          :namespace: ''
          :label: Qualifier
          :extension_properties: []
        :sub_classification:
          :type: http://www.assero.co.uk/BusinessDomain#VariableClassification
          :id: ''
          :namespace: ''
          :label: Record Qualifier
          :extension_properties: []
      - :type: http://www.assero.co.uk/BusinessDomain#ModelVariable
        :id: ''
        :namespace: ''
        :label: External File Path
        :extension_properties: []
        :ordinal: '23'
        :rule: ''
        :name: "--XFN"
        :prefixed: true
        :description: Filename for an external file, such as one for an ECG waveform
          or a medical image.
        :datatype:
          :type: http://www.assero.co.uk/BusinessDomain#VariableType
          :id: ''
          :namespace: ''
          :label: Char
          :extension_properties: []
        :classification:
          :type: http://www.assero.co.uk/BusinessDomain#VariableClassification
          :id: ''
          :namespace: ''
          :label: Qualifier
          :extension_properties: []
        :sub_classification:
          :type: http://www.assero.co.uk/BusinessDomain#VariableClassification
          :id: ''
          :namespace: ''
          :label: Record Qualifier
          :extension_properties: []
      - :type: http://www.assero.co.uk/BusinessDomain#ModelVariable
        :id: ''
        :namespace: ''
        :label: Laboratory/Vendor Name
        :extension_properties: []
        :ordinal: '24'
        :rule: ''
        :name: "--NAM"
        :prefixed: true
        :description: Name or identifier of the vendor (e.g., laboratory) that provided
          the test results.
        :datatype:
          :type: http://www.assero.co.uk/BusinessDomain#VariableType
          :id: ''
          :namespace: ''
          :label: Char
          :extension_properties: []
        :classification:
          :type: http://www.assero.co.uk/BusinessDomain#VariableClassification
          :id: ''
          :namespace: ''
          :label: Qualifier
          :extension_properties: []
        :sub_classification:
          :type: http://www.assero.co.uk/BusinessDomain#VariableClassification
          :id: ''
          :namespace: ''
          :label: Record Qualifier
          :extension_properties: []
      - :type: http://www.assero.co.uk/BusinessDomain#ModelVariable
        :id: ''
        :namespace: ''
        :label: LOINC Code
        :extension_properties: []
        :ordinal: '25'
        :rule: ''
        :name: "--LOINC"
        :prefixed: true
        :description: Logical Observation Identifiers Names and Codes (LOINC) code
          for the topic variable such as a lab test.
        :datatype:
          :type: http://www.assero.co.uk/BusinessDomain#VariableType
          :id: ''
          :namespace: ''
          :label: Char
          :extension_properties: []
        :classification:
          :type: http://www.assero.co.uk/BusinessDomain#VariableClassification
          :id: ''
          :namespace: ''
          :label: Qualifier
          :extension_properties: []
        :sub_classification:
          :type: http://www.assero.co.uk/BusinessDomain#VariableClassification
          :id: ''
          :namespace: ''
          :label: Synonym Qualifier
          :extension_properties: []
      - :type: http://www.assero.co.uk/BusinessDomain#ModelVariable
        :id: ''
        :namespace: ''
        :label: Specimen Material Type
        :extension_properties: []
        :ordinal: '26'
        :rule: ''
        :name: "--SPEC"
        :prefixed: true
        :description: 'Defines the type of specimen used for a measurement. Examples:
          SERUM, PLASMA, URINE, DNA, RNA.'
        :datatype:
          :type: http://www.assero.co.uk/BusinessDomain#VariableType
          :id: ''
          :namespace: ''
          :label: Char
          :extension_properties: []
        :classification:
          :type: http://www.assero.co.uk/BusinessDomain#VariableClassification
          :id: ''
          :namespace: ''
          :label: Qualifier
          :extension_properties: []
        :sub_classification:
          :type: http://www.assero.co.uk/BusinessDomain#VariableClassification
          :id: ''
          :namespace: ''
          :label: Record Qualifier
          :extension_properties: []
      - :type: http://www.assero.co.uk/BusinessDomain#ModelVariable
        :id: ''
        :namespace: ''
        :label: Anatomical Region
        :extension_properties: []
        :ordinal: '27'
        :rule: ''
        :name: "--ANTREG"
        :prefixed: true
        :description: 'Defines the specific anatomical or biological region of a tissue,
          organ specimen or the region from which the specimen is obtained, as defined
          in the protocol, such as a section or part of what is described in the --SPEC
          variable. Examples: CORTEX, MEDULLA, MUCOSA'
        :datatype:
          :type: http://www.assero.co.uk/BusinessDomain#VariableType
          :id: ''
          :namespace: ''
          :label: Char
          :extension_properties: []
        :classification:
          :type: http://www.assero.co.uk/BusinessDomain#VariableClassification
          :id: ''
          :namespace: ''
          :label: Qualifier
          :extension_properties: []
        :sub_classification:
          :type: http://www.assero.co.uk/BusinessDomain#VariableClassification
          :id: ''
          :namespace: ''
          :label: Variable Qualifier
          :extension_properties: []
      - :type: http://www.assero.co.uk/BusinessDomain#ModelVariable
        :id: ''
        :namespace: ''
        :label: Specimen Condition
        :extension_properties: []
        :ordinal: '28'
        :rule: ''
        :name: "--SPCCND"
        :prefixed: true
        :description: 'Defines the condition of the specimen. Example: CLOUDY.'
        :datatype:
          :type: http://www.assero.co.uk/BusinessDomain#VariableType
          :id: ''
          :namespace: ''
          :label: Char
          :extension_properties: []
        :classification:
          :type: http://www.assero.co.uk/BusinessDomain#VariableClassification
          :id: ''
          :namespace: ''
          :label: Qualifier
          :extension_properties: []
        :sub_classification:
          :type: http://www.assero.co.uk/BusinessDomain#VariableClassification
          :id: ''
          :namespace: ''
          :label: Record Qualifier
          :extension_properties: []
      - :type: http://www.assero.co.uk/BusinessDomain#ModelVariable
        :id: ''
        :namespace: ''
        :label: Specimen Usability for the Test
        :extension_properties: []
        :ordinal: '29'
        :rule: ''
        :name: "--SPCUFL"
        :prefixed: true
        :description: Describes the usability of the specimen for the test. The value
          will be N if the specimen is not usable, and null if the specimen is usable.
        :datatype:
          :type: http://www.assero.co.uk/BusinessDomain#VariableType
          :id: ''
          :namespace: ''
          :label: Char
          :extension_properties: []
        :classification:
          :type: http://www.assero.co.uk/BusinessDomain#VariableClassification
          :id: ''
          :namespace: ''
          :label: Qualifier
          :extension_properties: []
        :sub_classification:
          :type: http://www.assero.co.uk/BusinessDomain#VariableClassification
          :id: ''
          :namespace: ''
          :label: Record Qualifier
          :extension_properties: []
      - :type: http://www.assero.co.uk/BusinessDomain#ModelVariable
        :id: ''
        :namespace: ''
        :label: Location Used for the Measurement
        :extension_properties: []
        :ordinal: '30'
        :rule: ''
        :name: "--LOC"
        :prefixed: true
        :description: 'Anatomical location of the subject relevant to the collection
          of the measurement. Examples: RECTAL for temperature, ARM for blood pressure.'
        :datatype:
          :type: http://www.assero.co.uk/BusinessDomain#VariableType
          :id: ''
          :namespace: ''
          :label: Char
          :extension_properties: []
        :classification:
          :type: http://www.assero.co.uk/BusinessDomain#VariableClassification
          :id: ''
          :namespace: ''
          :label: Qualifier
          :extension_properties: []
        :sub_classification:
          :type: http://www.assero.co.uk/BusinessDomain#VariableClassification
          :id: ''
          :namespace: ''
          :label: Record Qualifier
          :extension_properties: []
      - :type: http://www.assero.co.uk/BusinessDomain#ModelVariable
        :id: ''
        :namespace: ''
        :label: Laterality
        :extension_properties: []
        :ordinal: '31'
        :rule: ''
        :name: "--LAT"
        :prefixed: true
        :description: 'Qualifier for anatomical location or specimen further detailing
          laterality. Examples: RIGHT, LEFT, BILATERAL'
        :datatype:
          :type: http://www.assero.co.uk/BusinessDomain#VariableType
          :id: ''
          :namespace: ''
          :label: Char
          :extension_properties: []
        :classification:
          :type: http://www.assero.co.uk/BusinessDomain#VariableClassification
          :id: ''
          :namespace: ''
          :label: Qualifier
          :extension_properties: []
        :sub_classification:
          :type: http://www.assero.co.uk/BusinessDomain#VariableClassification
          :id: ''
          :namespace: ''
          :label: Variable Qualifier
          :extension_properties: []
      - :type: http://www.assero.co.uk/BusinessDomain#ModelVariable
        :id: ''
        :namespace: ''
        :label: Directionality
        :extension_properties: []
        :ordinal: '32'
        :rule: ''
        :name: "--DIR"
        :prefixed: true
        :description: 'Qualifier for anatomical location or specimen further detailing
          directionality. Examples: ANTERIOR, LOWER, PROXIMAL'
        :datatype:
          :type: http://www.assero.co.uk/BusinessDomain#VariableType
          :id: ''
          :namespace: ''
          :label: Char
          :extension_properties: []
        :classification:
          :type: http://www.assero.co.uk/BusinessDomain#VariableClassification
          :id: ''
          :namespace: ''
          :label: Qualifier
          :extension_properties: []
        :sub_classification:
          :type: http://www.assero.co.uk/BusinessDomain#VariableClassification
          :id: ''
          :namespace: ''
          :label: Variable Qualifier
          :extension_properties: []
      - :type: http://www.assero.co.uk/BusinessDomain#ModelVariable
        :id: ''
        :namespace: ''
        :label: Portion or Totality
        :extension_properties: []
        :ordinal: '33'
        :rule: ''
        :name: "--PORTOT"
        :prefixed: true
        :description: 'Qualifier for anatomical location or specimen further detailing
          the distribution, which means arrangement of, apportioning of. . Examples:
          ENTIRE, SINGLE, SEGMENT, MANY.'
        :datatype:
          :type: http://www.assero.co.uk/BusinessDomain#VariableType
          :id: ''
          :namespace: ''
          :label: Char
          :extension_properties: []
        :classification:
          :type: http://www.assero.co.uk/BusinessDomain#VariableClassification
          :id: ''
          :namespace: ''
          :label: Qualifier
          :extension_properties: []
        :sub_classification:
          :type: http://www.assero.co.uk/BusinessDomain#VariableClassification
          :id: ''
          :namespace: ''
          :label: Variable Qualifier
          :extension_properties: []
      - :type: http://www.assero.co.uk/BusinessDomain#ModelVariable
        :id: ''
        :namespace: ''
        :label: Method of Test or Examination
        :extension_properties: []
        :ordinal: '34'
        :rule: ''
        :name: "--METHOD"
        :prefixed: true
        :description: 'Method of the test or examination. Examples: EIA (Enzyme Immunoassay),
          ELECTROPHORESIS, DIPSTICK'
        :datatype:
          :type: http://www.assero.co.uk/BusinessDomain#VariableType
          :id: ''
          :namespace: ''
          :label: Char
          :extension_properties: []
        :classification:
          :type: http://www.assero.co.uk/BusinessDomain#VariableClassification
          :id: ''
          :namespace: ''
          :label: Qualifier
          :extension_properties: []
        :sub_classification:
          :type: http://www.assero.co.uk/BusinessDomain#VariableClassification
          :id: ''
          :namespace: ''
          :label: Record Qualifier
          :extension_properties: []
      - :type: http://www.assero.co.uk/BusinessDomain#ModelVariable
        :id: ''
        :namespace: ''
        :label: Run ID
        :extension_properties: []
        :ordinal: '35'
        :rule: ''
        :name: "--RUNID"
        :prefixed: true
        :description: A unique identifier for a particular run of a test on a particular
          batch of samples.
        :datatype:
          :type: http://www.assero.co.uk/BusinessDomain#VariableType
          :id: ''
          :namespace: ''
          :label: Char
          :extension_properties: []
        :classification:
          :type: http://www.assero.co.uk/BusinessDomain#VariableClassification
          :id: ''
          :namespace: ''
          :label: Qualifier
          :extension_properties: []
        :sub_classification:
          :type: http://www.assero.co.uk/BusinessDomain#VariableClassification
          :id: ''
          :namespace: ''
          :label: Record Qualifier
          :extension_properties: []
      - :type: http://www.assero.co.uk/BusinessDomain#ModelVariable
        :id: ''
        :namespace: ''
        :label: Analysis Method
        :extension_properties: []
        :ordinal: '36'
        :rule: ''
        :name: "--ANMETH"
        :prefixed: true
        :description: Analysis method applied to obtain a summarized result. Analysis
          method describes the method of secondary processing applied to a complex
          observation result (e.g. an image or a genetic sequence).
        :datatype:
          :type: http://www.assero.co.uk/BusinessDomain#VariableType
          :id: ''
          :namespace: ''
          :label: Char
          :extension_properties: []
        :classification:
          :type: http://www.assero.co.uk/BusinessDomain#VariableClassification
          :id: ''
          :namespace: ''
          :label: Qualifier
          :extension_properties: []
        :sub_classification:
          :type: http://www.assero.co.uk/BusinessDomain#VariableClassification
          :id: ''
          :namespace: ''
          :label: Record Qualifier
          :extension_properties: []
      - :type: http://www.assero.co.uk/BusinessDomain#ModelVariable
        :id: ''
        :namespace: ''
        :label: Lead Identified to Collect Measurements
        :extension_properties: []
        :ordinal: '37'
        :rule: ''
        :name: "--LEAD"
        :prefixed: true
        :description: 'Lead or leads identified to capture the measurement for a test
          from an instrument. Examples: LEAD I, LEAD V2, LEAD CM5.'
        :datatype:
          :type: http://www.assero.co.uk/BusinessDomain#VariableType
          :id: ''
          :namespace: ''
          :label: Char
          :extension_properties: []
        :classification:
          :type: http://www.assero.co.uk/BusinessDomain#VariableClassification
          :id: ''
          :namespace: ''
          :label: Qualifier
          :extension_properties: []
        :sub_classification:
          :type: http://www.assero.co.uk/BusinessDomain#VariableClassification
          :id: ''
          :namespace: ''
          :label: Record Qualifier
          :extension_properties: []
      - :type: http://www.assero.co.uk/BusinessDomain#ModelVariable
        :id: ''
        :namespace: ''
        :label: Consciousness State
        :extension_properties: []
        :ordinal: '38'
        :rule: ''
        :name: "--CSTATE"
        :prefixed: true
        :description: 'The consciousness state of the subject at the time of measurement.
          Examples: CONSCIOUS, SEMI-CONSCIOUS, UNCONSCIOUS'
        :datatype:
          :type: http://www.assero.co.uk/BusinessDomain#VariableType
          :id: ''
          :namespace: ''
          :label: Char
          :extension_properties: []
        :classification:
          :type: http://www.assero.co.uk/BusinessDomain#VariableClassification
          :id: ''
          :namespace: ''
          :label: Qualifier
          :extension_properties: []
        :sub_classification:
          :type: http://www.assero.co.uk/BusinessDomain#VariableClassification
          :id: ''
          :namespace: ''
          :label: Record Qualifier
          :extension_properties: []
      - :type: http://www.assero.co.uk/BusinessDomain#ModelVariable
        :id: ''
        :namespace: ''
        :label: Baseline Flag
        :extension_properties: []
        :ordinal: '39'
        :rule: ''
        :name: "--BLFL"
        :prefixed: true
        :description: Indicator used to identify a baseline value. Should be Y or
          null.
        :datatype:
          :type: http://www.assero.co.uk/BusinessDomain#VariableType
          :id: ''
          :namespace: ''
          :label: Char
          :extension_properties: []
        :classification:
          :type: http://www.assero.co.uk/BusinessDomain#VariableClassification
          :id: ''
          :namespace: ''
          :label: Qualifier
          :extension_properties: []
        :sub_classification:
          :type: http://www.assero.co.uk/BusinessDomain#VariableClassification
          :id: ''
          :namespace: ''
          :label: Record Qualifier
          :extension_properties: []
      - :type: http://www.assero.co.uk/BusinessDomain#ModelVariable
        :id: ''
        :namespace: ''
        :label: Fasting Status
        :extension_properties: []
        :ordinal: '40'
        :rule: ''
        :name: "--FAST"
        :prefixed: true
        :description: Indicator used to identify fasting status. Valid values include
          Y, N, U or null if not relevant.
        :datatype:
          :type: http://www.assero.co.uk/BusinessDomain#VariableType
          :id: ''
          :namespace: ''
          :label: Char
          :extension_properties: []
        :classification:
          :type: http://www.assero.co.uk/BusinessDomain#VariableClassification
          :id: ''
          :namespace: ''
          :label: Qualifier
          :extension_properties: []
        :sub_classification:
          :type: http://www.assero.co.uk/BusinessDomain#VariableClassification
          :id: ''
          :namespace: ''
          :label: Record Qualifier
          :extension_properties: []
      - :type: http://www.assero.co.uk/BusinessDomain#ModelVariable
        :id: ''
        :namespace: ''
        :label: Derived Flag
        :extension_properties: []
        :ordinal: '41'
        :rule: ''
        :name: "--DRVFL"
        :prefixed: true
        :description: Used to indicate a derived record (e.g., a record that represents
          the average of other records such as a computed baseline). Should be Y or
          null.
        :datatype:
          :type: http://www.assero.co.uk/BusinessDomain#VariableType
          :id: ''
          :namespace: ''
          :label: Char
          :extension_properties: []
        :classification:
          :type: http://www.assero.co.uk/BusinessDomain#VariableClassification
          :id: ''
          :namespace: ''
          :label: Qualifier
          :extension_properties: []
        :sub_classification:
          :type: http://www.assero.co.uk/BusinessDomain#VariableClassification
          :id: ''
          :namespace: ''
          :label: Record Qualifier
          :extension_properties: []
      - :type: http://www.assero.co.uk/BusinessDomain#ModelVariable
        :id: ''
        :namespace: ''
        :label: Evaluator
        :extension_properties: []
        :ordinal: '42'
        :rule: ''
        :name: "--EVAL"
        :prefixed: true
        :description: 'Role of the person who provided the evaluation. Used only for
          results that are subjective (e.g., assigned by a person or a group). Examples:
          ADJUDICATION COMMITTEE, INDEPENDENT ASSESSOR, RADIOLOGIST.'
        :datatype:
          :type: http://www.assero.co.uk/BusinessDomain#VariableType
          :id: ''
          :namespace: ''
          :label: Char
          :extension_properties: []
        :classification:
          :type: http://www.assero.co.uk/BusinessDomain#VariableClassification
          :id: ''
          :namespace: ''
          :label: Qualifier
          :extension_properties: []
        :sub_classification:
          :type: http://www.assero.co.uk/BusinessDomain#VariableClassification
          :id: ''
          :namespace: ''
          :label: Record Qualifier
          :extension_properties: []
      - :type: http://www.assero.co.uk/BusinessDomain#ModelVariable
        :id: ''
        :namespace: ''
        :label: Evaluator Identifier
        :extension_properties: []
        :ordinal: '43'
        :rule: ''
        :name: "--EVALID"
        :prefixed: true
        :description: 'Used to distinguish multiple evaluators with the same role
          recorded in --EVAL. Examples: RADIOLOGIST1 or RADIOLOGIST2'
        :datatype:
          :type: http://www.assero.co.uk/BusinessDomain#VariableType
          :id: ''
          :namespace: ''
          :label: Char
          :extension_properties: []
        :classification:
          :type: http://www.assero.co.uk/BusinessDomain#VariableClassification
          :id: ''
          :namespace: ''
          :label: Qualifier
          :extension_properties: []
        :sub_classification:
          :type: http://www.assero.co.uk/BusinessDomain#VariableClassification
          :id: ''
          :namespace: ''
          :label: Variable Qualifier
          :extension_properties: []
      - :type: http://www.assero.co.uk/BusinessDomain#ModelVariable
        :id: ''
        :namespace: ''
        :label: Accepted Record Flag
        :extension_properties: []
        :ordinal: '44'
        :rule: ''
        :name: "--ACPTFL"
        :prefixed: true
        :description: In cases where more than one assessor provides an evaluation
          of a result or response, this flag identifies the record that is considered,
          by an independent assessor, to be the accepted evaluation. Expected to be
          Y or null.
        :datatype:
          :type: http://www.assero.co.uk/BusinessDomain#VariableType
          :id: ''
          :namespace: ''
          :label: Char
          :extension_properties: []
        :classification:
          :type: http://www.assero.co.uk/BusinessDomain#VariableClassification
          :id: ''
          :namespace: ''
          :label: Qualifier
          :extension_properties: []
        :sub_classification:
          :type: http://www.assero.co.uk/BusinessDomain#VariableClassification
          :id: ''
          :namespace: ''
          :label: Record Qualifier
          :extension_properties: []
      - :type: http://www.assero.co.uk/BusinessDomain#ModelVariable
        :id: ''
        :namespace: ''
        :label: Toxicity
        :extension_properties: []
        :ordinal: '45'
        :rule: ''
        :name: "--TOX"
        :prefixed: true
        :description: 'Description of toxicity quantified by --TOXGR such as NCI CTCAE
          Short Name. Examples: HYPERCALCEMIA, HYPOCALCEMIA. Sponsor should specify
          which scale and version is used in the Sponsor Comments column of the Define-XML
          document.'
        :datatype:
          :type: http://www.assero.co.uk/BusinessDomain#VariableType
          :id: ''
          :namespace: ''
          :label: Char
          :extension_properties: []
        :classification:
          :type: http://www.assero.co.uk/BusinessDomain#VariableClassification
          :id: ''
          :namespace: ''
          :label: Qualifier
          :extension_properties: []
        :sub_classification:
          :type: http://www.assero.co.uk/BusinessDomain#VariableClassification
          :id: ''
          :namespace: ''
          :label: Variable Qualifier
          :extension_properties: []
      - :type: http://www.assero.co.uk/BusinessDomain#ModelVariable
        :id: ''
        :namespace: ''
        :label: Toxicity Grade
        :extension_properties: []
        :ordinal: '46'
        :rule: ''
        :name: "--TOXGR"
        :prefixed: true
        :description: 'Records toxicity grade using a standard toxicity scale (such
          as the NCI CTCAE). Sponsor should specify which scale and version is used
          in the Sponsor Comments column of the Define data definition document. Example:
          2.'
        :datatype:
          :type: http://www.assero.co.uk/BusinessDomain#VariableType
          :id: ''
          :namespace: ''
          :label: Char
          :extension_properties: []
        :classification:
          :type: http://www.assero.co.uk/BusinessDomain#VariableClassification
          :id: ''
          :namespace: ''
          :label: Qualifier
          :extension_properties: []
        :sub_classification:
          :type: http://www.assero.co.uk/BusinessDomain#VariableClassification
          :id: ''
          :namespace: ''
          :label: Record Qualifier
          :extension_properties: []
      - :type: http://www.assero.co.uk/BusinessDomain#ModelVariable
        :id: ''
        :namespace: ''
        :label: Severity
        :extension_properties: []
        :ordinal: '47'
        :rule: ''
        :name: "--SEV"
        :prefixed: true
        :description: 'Describes the severity or intensity of a particular finding.
          Examples: MILD, MODERATE, SEVERE.'
        :datatype:
          :type: http://www.assero.co.uk/BusinessDomain#VariableType
          :id: ''
          :namespace: ''
          :label: Char
          :extension_properties: []
        :classification:
          :type: http://www.assero.co.uk/BusinessDomain#VariableClassification
          :id: ''
          :namespace: ''
          :label: Qualifier
          :extension_properties: []
        :sub_classification:
          :type: http://www.assero.co.uk/BusinessDomain#VariableClassification
          :id: ''
          :namespace: ''
          :label: Record Qualifier
          :extension_properties: []
      - :type: http://www.assero.co.uk/BusinessDomain#ModelVariable
        :id: ''
        :namespace: ''
        :label: Relationship to Death
        :extension_properties: []
        :ordinal: '48'
        :rule: ''
        :name: "--DTHREL"
        :prefixed: true
        :description: 'Describes the relationship of a particular finding to the death
          of a subject. Examples: Y, N or U.'
        :datatype:
          :type: http://www.assero.co.uk/BusinessDomain#VariableType
          :id: ''
          :namespace: ''
          :label: Char
          :extension_properties: []
        :classification:
          :type: http://www.assero.co.uk/BusinessDomain#VariableClassification
          :id: ''
          :namespace: ''
          :label: Qualifier
          :extension_properties: []
        :sub_classification:
          :type: http://www.assero.co.uk/BusinessDomain#VariableClassification
          :id: ''
          :namespace: ''
          :label: Record Qualifier
          :extension_properties: []
      - :type: http://www.assero.co.uk/BusinessDomain#ModelVariable
        :id: ''
        :namespace: ''
        :label: Lower Limit of Quantitation
        :extension_properties: []
        :ordinal: '49'
        :rule: ''
        :name: "--LLOQ"
        :prefixed: true
        :description: Indicates the lower limit of quantitation for an assay. Units
          will be those used for --STRESU.
        :datatype:
          :type: http://www.assero.co.uk/BusinessDomain#VariableType
          :id: ''
          :namespace: ''
          :label: Num
          :extension_properties: []
        :classification:
          :type: http://www.assero.co.uk/BusinessDomain#VariableClassification
          :id: ''
          :namespace: ''
          :label: Qualifier
          :extension_properties: []
        :sub_classification:
          :type: http://www.assero.co.uk/BusinessDomain#VariableClassification
          :id: ''
          :namespace: ''
          :label: Variable Qualifier
          :extension_properties: []
      - :type: http://www.assero.co.uk/BusinessDomain#ModelVariable
        :id: ''
        :namespace: ''
        :label: Upper Limit of Quantitation
        :extension_properties: []
        :ordinal: '50'
        :rule: ''
        :name: "--ULOQ"
        :prefixed: true
        :description: Indicates the upper limit of quantitation for an assay. Units
          will be those used for --STRESU.
        :datatype:
          :type: http://www.assero.co.uk/BusinessDomain#VariableType
          :id: ''
          :namespace: ''
          :label: Num
          :extension_properties: []
        :classification:
          :type: http://www.assero.co.uk/BusinessDomain#VariableClassification
          :id: ''
          :namespace: ''
          :label: Qualifier
          :extension_properties: []
        :sub_classification:
          :type: http://www.assero.co.uk/BusinessDomain#VariableClassification
          :id: ''
          :namespace: ''
          :label: Variable Qualifier
          :extension_properties: []
      - :type: http://www.assero.co.uk/BusinessDomain#ModelVariable
        :id: ''
        :namespace: ''
        :label: Exclude from Statistics
        :extension_properties: []
        :ordinal: '51'
        :rule: ''
        :name: "--EXCLFL"
        :prefixed: true
        :description: Indicates whether the values in the result variables for this
          record should be excluded from summary statistical calculations such as
          Mean, Standard Deviation, and Count (and others). Expected to be Y or null.
          --EXCLFL should not be used when --STAT is NOT DONE. Not to be used with
          human clinical trials.
        :datatype:
          :type: http://www.assero.co.uk/BusinessDomain#VariableType
          :id: ''
          :namespace: ''
          :label: Char
          :extension_properties: []
        :classification:
          :type: http://www.assero.co.uk/BusinessDomain#VariableClassification
          :id: ''
          :namespace: ''
          :label: Qualifier
          :extension_properties: []
        :sub_classification:
          :type: http://www.assero.co.uk/BusinessDomain#VariableClassification
          :id: ''
          :namespace: ''
          :label: Record Qualifier
          :extension_properties: []
      - :type: http://www.assero.co.uk/BusinessDomain#ModelVariable
        :id: ''
        :namespace: ''
        :label: Reason for Exclusion from Statistics
        :extension_properties: []
        :ordinal: '52'
        :rule: ''
        :name: "--REASEX"
        :prefixed: true
        :description: Reason excluded from statistics. Used in conjunction with --EXCLFL
          when its value is Y. Not to be used with human clinical trials
        :datatype:
          :type: http://www.assero.co.uk/BusinessDomain#VariableType
          :id: ''
          :namespace: ''
          :label: Char
          :extension_properties: []
        :classification:
          :type: http://www.assero.co.uk/BusinessDomain#VariableClassification
          :id: ''
          :namespace: ''
          :label: Qualifier
          :extension_properties: []
        :sub_classification:
          :type: http://www.assero.co.uk/BusinessDomain#VariableClassification
          :id: ''
          :namespace: ''
          :label: Record Qualifier
          :extension_properties: []
      - :type: http://www.assero.co.uk/BusinessDomain#ModelVariable
        :id: ''
        :namespace: ''
        :label: Name of Treatment
        :extension_properties: []
        :ordinal: '1'
        :rule: ''
        :name: "--TRT"
        :prefixed: true
        :description: The topic for the intervention observation, usually the verbatim
          name of the treatment, drug, medicine, or therapy given during the dosing
          interval for the observation.
        :datatype:
          :type: http://www.assero.co.uk/BusinessDomain#VariableType
          :id: ''
          :namespace: ''
          :label: Char
          :extension_properties: []
        :classification:
          :type: http://www.assero.co.uk/BusinessDomain#VariableClassification
          :id: ''
          :namespace: ''
          :label: Topic
          :extension_properties: []
        :sub_classification:
          :type: http://www.assero.co.uk/BusinessDomain#VariableClassification
          :id: ''
          :namespace: ''
          :label: Not Applicable
          :extension_properties: []
      - :type: http://www.assero.co.uk/BusinessDomain#ModelVariable
        :id: ''
        :namespace: ''
        :label: Modified Treatment Name
        :extension_properties: []
        :ordinal: '2'
        :rule: ''
        :name: "--MODIFY"
        :prefixed: true
        :description: If the value for --TRT is modified for coding purposes, then
          the modified text is placed here.
        :datatype:
          :type: http://www.assero.co.uk/BusinessDomain#VariableType
          :id: ''
          :namespace: ''
          :label: Char
          :extension_properties: []
        :classification:
          :type: http://www.assero.co.uk/BusinessDomain#VariableClassification
          :id: ''
          :namespace: ''
          :label: Qualifier
          :extension_properties: []
        :sub_classification:
          :type: http://www.assero.co.uk/BusinessDomain#VariableClassification
          :id: ''
          :namespace: ''
          :label: Synonym Qualifier
          :extension_properties: []
      - :type: http://www.assero.co.uk/BusinessDomain#ModelVariable
        :id: ''
        :namespace: ''
        :label: Standardized Treatment Name
        :extension_properties: []
        :ordinal: '3'
        :rule: ''
        :name: "--DECOD"
        :prefixed: true
        :description: Standardized or dictionary-derived name of the topic variable,
          --TRT, or the modified topic variable (--MODIFY), if applicable. Equivalent
          to the generic drug name in WHO Drug, or a term in SNOMED, ICD9, or other
          published or sponsor-defined dictionaries.
        :datatype:
          :type: http://www.assero.co.uk/BusinessDomain#VariableType
          :id: ''
          :namespace: ''
          :label: Char
          :extension_properties: []
        :classification:
          :type: http://www.assero.co.uk/BusinessDomain#VariableClassification
          :id: ''
          :namespace: ''
          :label: Qualifier
          :extension_properties: []
        :sub_classification:
          :type: http://www.assero.co.uk/BusinessDomain#VariableClassification
          :id: ''
          :namespace: ''
          :label: Synonym Qualifier
          :extension_properties: []
      - :type: http://www.assero.co.uk/BusinessDomain#ModelVariable
        :id: ''
        :namespace: ''
        :label: Mood
        :extension_properties: []
        :ordinal: '4'
        :rule: ''
        :name: "--MOOD"
        :prefixed: true
        :description: Mode or condition of the record (e.g., SCHEDULED, PERFORMED).
        :datatype:
          :type: http://www.assero.co.uk/BusinessDomain#VariableType
          :id: ''
          :namespace: ''
          :label: Char
          :extension_properties: []
        :classification:
          :type: http://www.assero.co.uk/BusinessDomain#VariableClassification
          :id: ''
          :namespace: ''
          :label: Qualifier
          :extension_properties: []
        :sub_classification:
          :type: http://www.assero.co.uk/BusinessDomain#VariableClassification
          :id: ''
          :namespace: ''
          :label: Record Qualifier
          :extension_properties: []
      - :type: http://www.assero.co.uk/BusinessDomain#ModelVariable
        :id: ''
        :namespace: ''
        :label: Category
        :extension_properties: []
        :ordinal: '5'
        :rule: ''
        :name: "--CAT"
        :prefixed: true
        :description: Used to define a category of topic-variable values.
        :datatype:
          :type: http://www.assero.co.uk/BusinessDomain#VariableType
          :id: ''
          :namespace: ''
          :label: Char
          :extension_properties: []
        :classification:
          :type: http://www.assero.co.uk/BusinessDomain#VariableClassification
          :id: ''
          :namespace: ''
          :label: Qualifier
          :extension_properties: []
        :sub_classification:
          :type: http://www.assero.co.uk/BusinessDomain#VariableClassification
          :id: ''
          :namespace: ''
          :label: Grouping Qualifier
          :extension_properties: []
      - :type: http://www.assero.co.uk/BusinessDomain#ModelVariable
        :id: ''
        :namespace: ''
        :label: Subcategory
        :extension_properties: []
        :ordinal: '6'
        :rule: ''
        :name: "--SCAT"
        :prefixed: true
        :description: Used to define a further categorization of --CAT values.
        :datatype:
          :type: http://www.assero.co.uk/BusinessDomain#VariableType
          :id: ''
          :namespace: ''
          :label: Char
          :extension_properties: []
        :classification:
          :type: http://www.assero.co.uk/BusinessDomain#VariableClassification
          :id: ''
          :namespace: ''
          :label: Qualifier
          :extension_properties: []
        :sub_classification:
          :type: http://www.assero.co.uk/BusinessDomain#VariableClassification
          :id: ''
          :namespace: ''
          :label: Grouping Qualifier
          :extension_properties: []
      - :type: http://www.assero.co.uk/BusinessDomain#ModelVariable
        :id: ''
        :namespace: ''
        :label: Pre-specified
        :extension_properties: []
        :ordinal: '7'
        :rule: ''
        :name: "--PRESP"
        :prefixed: true
        :description: Used when a specific intervention is pre-specified on a CRF.
          Values should be “Y” or null.
        :datatype:
          :type: http://www.assero.co.uk/BusinessDomain#VariableType
          :id: ''
          :namespace: ''
          :label: Char
          :extension_properties: []
        :classification:
          :type: http://www.assero.co.uk/BusinessDomain#VariableClassification
          :id: ''
          :namespace: ''
          :label: Qualifier
          :extension_properties: []
        :sub_classification:
          :type: http://www.assero.co.uk/BusinessDomain#VariableClassification
          :id: ''
          :namespace: ''
          :label: Variable Qualifier
          :extension_properties: []
      - :type: http://www.assero.co.uk/BusinessDomain#ModelVariable
        :id: ''
        :namespace: ''
        :label: Occurrence
        :extension_properties: []
        :ordinal: '8'
        :rule: ''
        :name: "--OCCUR"
        :prefixed: true
        :description: Used to record whether a pre-specified intervention occurred
          when information about the occurrence of a specific intervention is solicited.
        :datatype:
          :type: http://www.assero.co.uk/BusinessDomain#VariableType
          :id: ''
          :namespace: ''
          :label: Char
          :extension_properties: []
        :classification:
          :type: http://www.assero.co.uk/BusinessDomain#VariableClassification
          :id: ''
          :namespace: ''
          :label: Qualifier
          :extension_properties: []
        :sub_classification:
          :type: http://www.assero.co.uk/BusinessDomain#VariableClassification
          :id: ''
          :namespace: ''
          :label: Record Qualifier
          :extension_properties: []
      - :type: http://www.assero.co.uk/BusinessDomain#ModelVariable
        :id: ''
        :namespace: ''
        :label: Completion Status
        :extension_properties: []
        :ordinal: '9'
        :rule: ''
        :name: "--STAT"
        :prefixed: true
        :description: Used to indicate when a question about the occurrence of a pre-specified
          intervention was not answered. Should be null or have a value of NOT DONE.
        :datatype:
          :type: http://www.assero.co.uk/BusinessDomain#VariableType
          :id: ''
          :namespace: ''
          :label: Char
          :extension_properties: []
        :classification:
          :type: http://www.assero.co.uk/BusinessDomain#VariableClassification
          :id: ''
          :namespace: ''
          :label: Qualifier
          :extension_properties: []
        :sub_classification:
          :type: http://www.assero.co.uk/BusinessDomain#VariableClassification
          :id: ''
          :namespace: ''
          :label: Record Qualifier
          :extension_properties: []
      - :type: http://www.assero.co.uk/BusinessDomain#ModelVariable
        :id: ''
        :namespace: ''
        :label: Reason Not Done
        :extension_properties: []
        :ordinal: '10'
        :rule: ''
        :name: "--REASND"
        :prefixed: true
        :description: Reason not done. Used in conjunction with --STAT when value
          is NOT DONE.
        :datatype:
          :type: http://www.assero.co.uk/BusinessDomain#VariableType
          :id: ''
          :namespace: ''
          :label: Char
          :extension_properties: []
        :classification:
          :type: http://www.assero.co.uk/BusinessDomain#VariableClassification
          :id: ''
          :namespace: ''
          :label: Qualifier
          :extension_properties: []
        :sub_classification:
          :type: http://www.assero.co.uk/BusinessDomain#VariableClassification
          :id: ''
          :namespace: ''
          :label: Record Qualifier
          :extension_properties: []
      - :type: http://www.assero.co.uk/BusinessDomain#ModelVariable
        :id: ''
        :namespace: ''
        :label: Indication
        :extension_properties: []
        :ordinal: '11'
        :rule: ''
        :name: "--INDC"
        :prefixed: true
        :description: Denotes the indication for the intervention (e.g., why the therapy
          was taken or administered).
        :datatype:
          :type: http://www.assero.co.uk/BusinessDomain#VariableType
          :id: ''
          :namespace: ''
          :label: Char
          :extension_properties: []
        :classification:
          :type: http://www.assero.co.uk/BusinessDomain#VariableClassification
          :id: ''
          :namespace: ''
          :label: Qualifier
          :extension_properties: []
        :sub_classification:
          :type: http://www.assero.co.uk/BusinessDomain#VariableClassification
          :id: ''
          :namespace: ''
          :label: Record Qualifier
          :extension_properties: []
      - :type: http://www.assero.co.uk/BusinessDomain#ModelVariable
        :id: ''
        :namespace: ''
        :label: Class
        :extension_properties: []
        :ordinal: '12'
        :rule: ''
        :name: "--CLAS"
        :prefixed: true
        :description: Class for a medication or treatment, often obtained from a coding
          dictionary.
        :datatype:
          :type: http://www.assero.co.uk/BusinessDomain#VariableType
          :id: ''
          :namespace: ''
          :label: Char
          :extension_properties: []
        :classification:
          :type: http://www.assero.co.uk/BusinessDomain#VariableClassification
          :id: ''
          :namespace: ''
          :label: Qualifier
          :extension_properties: []
        :sub_classification:
          :type: http://www.assero.co.uk/BusinessDomain#VariableClassification
          :id: ''
          :namespace: ''
          :label: Variable Qualifier
          :extension_properties: []
      - :type: http://www.assero.co.uk/BusinessDomain#ModelVariable
        :id: ''
        :namespace: ''
        :label: Class Code
        :extension_properties: []
        :ordinal: '13'
        :rule: ''
        :name: "--CLASCD"
        :prefixed: true
        :description: Used to represent code for --CLAS.
        :datatype:
          :type: http://www.assero.co.uk/BusinessDomain#VariableType
          :id: ''
          :namespace: ''
          :label: Char
          :extension_properties: []
        :classification:
          :type: http://www.assero.co.uk/BusinessDomain#VariableClassification
          :id: ''
          :namespace: ''
          :label: Qualifier
          :extension_properties: []
        :sub_classification:
          :type: http://www.assero.co.uk/BusinessDomain#VariableClassification
          :id: ''
          :namespace: ''
          :label: Variable Qualifier
          :extension_properties: []
      - :type: http://www.assero.co.uk/BusinessDomain#ModelVariable
        :id: ''
        :namespace: ''
        :label: Dose
        :extension_properties: []
        :ordinal: '14'
        :rule: ''
        :name: "--DOSE"
        :prefixed: true
        :description: Amount of --TRT given. Not populated when --DOSTXT is populated.
        :datatype:
          :type: http://www.assero.co.uk/BusinessDomain#VariableType
          :id: ''
          :namespace: ''
          :label: Num
          :extension_properties: []
        :classification:
          :type: http://www.assero.co.uk/BusinessDomain#VariableClassification
          :id: ''
          :namespace: ''
          :label: Qualifier
          :extension_properties: []
        :sub_classification:
          :type: http://www.assero.co.uk/BusinessDomain#VariableClassification
          :id: ''
          :namespace: ''
          :label: Record Qualifier
          :extension_properties: []
      - :type: http://www.assero.co.uk/BusinessDomain#ModelVariable
        :id: ''
        :namespace: ''
        :label: Dose Description
        :extension_properties: []
        :ordinal: '15'
        :rule: ''
        :name: "--DOSTXT"
        :prefixed: true
        :description: 'Dosing information collected in text form. Examples: <1 per
          day, 200-400. Not populated when --DOSE is populated.'
        :datatype:
          :type: http://www.assero.co.uk/BusinessDomain#VariableType
          :id: ''
          :namespace: ''
          :label: Char
          :extension_properties: []
        :classification:
          :type: http://www.assero.co.uk/BusinessDomain#VariableClassification
          :id: ''
          :namespace: ''
          :label: Qualifier
          :extension_properties: []
        :sub_classification:
          :type: http://www.assero.co.uk/BusinessDomain#VariableClassification
          :id: ''
          :namespace: ''
          :label: Record Qualifier
          :extension_properties: []
      - :type: http://www.assero.co.uk/BusinessDomain#ModelVariable
        :id: ''
        :namespace: ''
        :label: Dose Units
        :extension_properties: []
        :ordinal: '16'
        :rule: ''
        :name: "--DOSU"
        :prefixed: true
        :description: 'Units for --DOSE, --DOSTOT, or --DOSTXT (Examples: ng, mg,
          mg/kg).'
        :datatype:
          :type: http://www.assero.co.uk/BusinessDomain#VariableType
          :id: ''
          :namespace: ''
          :label: Char
          :extension_properties: []
        :classification:
          :type: http://www.assero.co.uk/BusinessDomain#VariableClassification
          :id: ''
          :namespace: ''
          :label: Qualifier
          :extension_properties: []
        :sub_classification:
          :type: http://www.assero.co.uk/BusinessDomain#VariableClassification
          :id: ''
          :namespace: ''
          :label: Variable Qualifier
          :extension_properties: []
      - :type: http://www.assero.co.uk/BusinessDomain#ModelVariable
        :id: ''
        :namespace: ''
        :label: Dose Form
        :extension_properties: []
        :ordinal: '17'
        :rule: ''
        :name: "--DOSFRM"
        :prefixed: true
        :description: 'Dose form for the treatment. Examples: TABLET, CAPSULE.'
        :datatype:
          :type: http://www.assero.co.uk/BusinessDomain#VariableType
          :id: ''
          :namespace: ''
          :label: Char
          :extension_properties: []
        :classification:
          :type: http://www.assero.co.uk/BusinessDomain#VariableClassification
          :id: ''
          :namespace: ''
          :label: Qualifier
          :extension_properties: []
        :sub_classification:
          :type: http://www.assero.co.uk/BusinessDomain#VariableClassification
          :id: ''
          :namespace: ''
          :label: Variable Qualifier
          :extension_properties: []
      - :type: http://www.assero.co.uk/BusinessDomain#ModelVariable
        :id: ''
        :namespace: ''
        :label: Dosing Frequency per Interval
        :extension_properties: []
        :ordinal: '18'
        :rule: ''
        :name: "--DOSFRQ"
        :prefixed: true
        :description: 'Usually expressed as the number of doses given per a specific
          interval. Examples: Q2H, QD, PRN.'
        :datatype:
          :type: http://www.assero.co.uk/BusinessDomain#VariableType
          :id: ''
          :namespace: ''
          :label: Char
          :extension_properties: []
        :classification:
          :type: http://www.assero.co.uk/BusinessDomain#VariableClassification
          :id: ''
          :namespace: ''
          :label: Qualifier
          :extension_properties: []
        :sub_classification:
          :type: http://www.assero.co.uk/BusinessDomain#VariableClassification
          :id: ''
          :namespace: ''
          :label: Variable Qualifier
          :extension_properties: []
      - :type: http://www.assero.co.uk/BusinessDomain#ModelVariable
        :id: ''
        :namespace: ''
        :label: Total Daily Dose
        :extension_properties: []
        :ordinal: '19'
        :rule: ''
        :name: "--DOSTOT"
        :prefixed: true
        :description: Total daily dose of --TRT using the units in --DOSU. Used when
          dosing is collected as Total Daily Dose.
        :datatype:
          :type: http://www.assero.co.uk/BusinessDomain#VariableType
          :id: ''
          :namespace: ''
          :label: Num
          :extension_properties: []
        :classification:
          :type: http://www.assero.co.uk/BusinessDomain#VariableClassification
          :id: ''
          :namespace: ''
          :label: Qualifier
          :extension_properties: []
        :sub_classification:
          :type: http://www.assero.co.uk/BusinessDomain#VariableClassification
          :id: ''
          :namespace: ''
          :label: Record Qualifier
          :extension_properties: []
      - :type: http://www.assero.co.uk/BusinessDomain#ModelVariable
        :id: ''
        :namespace: ''
        :label: Intended Dose Regimen
        :extension_properties: []
        :ordinal: '20'
        :rule: ''
        :name: "--DOSRGM"
        :prefixed: true
        :description: 'Text description of the (intended) schedule or regimen for
          the Intervention. Example: TWO WEEKS ON, TWO WEEKS OFF.'
        :datatype:
          :type: http://www.assero.co.uk/BusinessDomain#VariableType
          :id: ''
          :namespace: ''
          :label: Char
          :extension_properties: []
        :classification:
          :type: http://www.assero.co.uk/BusinessDomain#VariableClassification
          :id: ''
          :namespace: ''
          :label: Qualifier
          :extension_properties: []
        :sub_classification:
          :type: http://www.assero.co.uk/BusinessDomain#VariableClassification
          :id: ''
          :namespace: ''
          :label: Variable Qualifier
          :extension_properties: []
      - :type: http://www.assero.co.uk/BusinessDomain#ModelVariable
        :id: ''
        :namespace: ''
        :label: Route of Administration
        :extension_properties: []
        :ordinal: '21'
        :rule: ''
        :name: "--ROUTE"
        :prefixed: true
        :description: 'Route of administration for the intervention. Examples: ORAL,
          INTRAVENOUS.'
        :datatype:
          :type: http://www.assero.co.uk/BusinessDomain#VariableType
          :id: ''
          :namespace: ''
          :label: Char
          :extension_properties: []
        :classification:
          :type: http://www.assero.co.uk/BusinessDomain#VariableClassification
          :id: ''
          :namespace: ''
          :label: Qualifier
          :extension_properties: []
        :sub_classification:
          :type: http://www.assero.co.uk/BusinessDomain#VariableClassification
          :id: ''
          :namespace: ''
          :label: Variable Qualifier
          :extension_properties: []
      - :type: http://www.assero.co.uk/BusinessDomain#ModelVariable
        :id: ''
        :namespace: ''
        :label: Lot Number
        :extension_properties: []
        :ordinal: '22'
        :rule: ''
        :name: "--LOT"
        :prefixed: true
        :description: Lot number for the intervention described in --TRT.
        :datatype:
          :type: http://www.assero.co.uk/BusinessDomain#VariableType
          :id: ''
          :namespace: ''
          :label: Char
          :extension_properties: []
        :classification:
          :type: http://www.assero.co.uk/BusinessDomain#VariableClassification
          :id: ''
          :namespace: ''
          :label: Qualifier
          :extension_properties: []
        :sub_classification:
          :type: http://www.assero.co.uk/BusinessDomain#VariableClassification
          :id: ''
          :namespace: ''
          :label: Record Qualifier
          :extension_properties: []
      - :type: http://www.assero.co.uk/BusinessDomain#ModelVariable
        :id: ''
        :namespace: ''
        :label: Location of Dose Administration
        :extension_properties: []
        :ordinal: '23'
        :rule: ''
        :name: "--LOC"
        :prefixed: true
        :description: 'Anatomical location of an intervention, such as an injection
          site. Example: ARM for an injection.'
        :datatype:
          :type: http://www.assero.co.uk/BusinessDomain#VariableType
          :id: ''
          :namespace: ''
          :label: Char
          :extension_properties: []
        :classification:
          :type: http://www.assero.co.uk/BusinessDomain#VariableClassification
          :id: ''
          :namespace: ''
          :label: Qualifier
          :extension_properties: []
        :sub_classification:
          :type: http://www.assero.co.uk/BusinessDomain#VariableClassification
          :id: ''
          :namespace: ''
          :label: Record Qualifier
          :extension_properties: []
      - :type: http://www.assero.co.uk/BusinessDomain#ModelVariable
        :id: ''
        :namespace: ''
        :label: Laterality
        :extension_properties: []
        :ordinal: '24'
        :rule: ''
        :name: "--LAT"
        :prefixed: true
        :description: 'Qualifier for anatomical location further detailing laterality
          of intervention administration. Examples: RIGHT, LEFT, BILATERAL'
        :datatype:
          :type: http://www.assero.co.uk/BusinessDomain#VariableType
          :id: ''
          :namespace: ''
          :label: Char
          :extension_properties: []
        :classification:
          :type: http://www.assero.co.uk/BusinessDomain#VariableClassification
          :id: ''
          :namespace: ''
          :label: Qualifier
          :extension_properties: []
        :sub_classification:
          :type: http://www.assero.co.uk/BusinessDomain#VariableClassification
          :id: ''
          :namespace: ''
          :label: Variable Qualifier
          :extension_properties: []
      - :type: http://www.assero.co.uk/BusinessDomain#ModelVariable
        :id: ''
        :namespace: ''
        :label: Directionality
        :extension_properties: []
        :ordinal: '25'
        :rule: ''
        :name: "--DIR"
        :prefixed: true
        :description: 'Qualifier for anatomical location further detailing directionality
          of intervention administration. Examples: ANTERIOR, LOWER, PROXIMAL'
        :datatype:
          :type: http://www.assero.co.uk/BusinessDomain#VariableType
          :id: ''
          :namespace: ''
          :label: Char
          :extension_properties: []
        :classification:
          :type: http://www.assero.co.uk/BusinessDomain#VariableClassification
          :id: ''
          :namespace: ''
          :label: Qualifier
          :extension_properties: []
        :sub_classification:
          :type: http://www.assero.co.uk/BusinessDomain#VariableClassification
          :id: ''
          :namespace: ''
          :label: Variable Qualifier
          :extension_properties: []
      - :type: http://www.assero.co.uk/BusinessDomain#ModelVariable
        :id: ''
        :namespace: ''
        :label: Portion or Totality
        :extension_properties: []
        :ordinal: '26'
        :rule: ''
        :name: "--PORTOT"
        :prefixed: true
        :description: 'Qualifier for anatomical location further detailing the distribution,
          which means arrangement of, apportioning of the intervention administration.
          Examples: ENTIRE, SINGLE, SEGMENT, MANY.'
        :datatype:
          :type: http://www.assero.co.uk/BusinessDomain#VariableType
          :id: ''
          :namespace: ''
          :label: Char
          :extension_properties: []
        :classification:
          :type: http://www.assero.co.uk/BusinessDomain#VariableClassification
          :id: ''
          :namespace: ''
          :label: Qualifier
          :extension_properties: []
        :sub_classification:
          :type: http://www.assero.co.uk/BusinessDomain#VariableClassification
          :id: ''
          :namespace: ''
          :label: Variable Qualifier
          :extension_properties: []
      - :type: http://www.assero.co.uk/BusinessDomain#ModelVariable
        :id: ''
        :namespace: ''
        :label: Fasting Status
        :extension_properties: []
        :ordinal: '27'
        :rule: ''
        :name: "--FAST"
        :prefixed: true
        :description: Indicator used to identify fasting status. Valid values include
          Y, N, U or null if not relevant.
        :datatype:
          :type: http://www.assero.co.uk/BusinessDomain#VariableType
          :id: ''
          :namespace: ''
          :label: Char
          :extension_properties: []
        :classification:
          :type: http://www.assero.co.uk/BusinessDomain#VariableClassification
          :id: ''
          :namespace: ''
          :label: Qualifier
          :extension_properties: []
        :sub_classification:
          :type: http://www.assero.co.uk/BusinessDomain#VariableClassification
          :id: ''
          :namespace: ''
          :label: Record Qualifier
          :extension_properties: []
      - :type: http://www.assero.co.uk/BusinessDomain#ModelVariable
        :id: ''
        :namespace: ''
        :label: Pharmaceutical Strength
        :extension_properties: []
        :ordinal: '28'
        :rule: ''
        :name: "--PSTRG"
        :prefixed: true
        :description: 'Amount of an active ingredient expressed quantitatively per
          dosage unit, per unit of volume, or per unit of weight, according to the
          pharmaceutical dose form. Example: 50 mg/TABLET, 300 mg/L'
        :datatype:
          :type: http://www.assero.co.uk/BusinessDomain#VariableType
          :id: ''
          :namespace: ''
          :label: Num
          :extension_properties: []
        :classification:
          :type: http://www.assero.co.uk/BusinessDomain#VariableClassification
          :id: ''
          :namespace: ''
          :label: Qualifier
          :extension_properties: []
        :sub_classification:
          :type: http://www.assero.co.uk/BusinessDomain#VariableClassification
          :id: ''
          :namespace: ''
          :label: Variable Qualifier
          :extension_properties: []
      - :type: http://www.assero.co.uk/BusinessDomain#ModelVariable
        :id: ''
        :namespace: ''
        :label: Pharmaceutical Strength Units
        :extension_properties: []
        :ordinal: '29'
        :rule: ''
        :name: "--PSTRGU"
        :prefixed: true
        :description: 'Unit for --PSTRG. Example: mg/TABLET, mg/mL'
        :datatype:
          :type: http://www.assero.co.uk/BusinessDomain#VariableType
          :id: ''
          :namespace: ''
          :label: Char
          :extension_properties: []
        :classification:
          :type: http://www.assero.co.uk/BusinessDomain#VariableClassification
          :id: ''
          :namespace: ''
          :label: Qualifier
          :extension_properties: []
        :sub_classification:
          :type: http://www.assero.co.uk/BusinessDomain#VariableClassification
          :id: ''
          :namespace: ''
          :label: Variable Qualifier
          :extension_properties: []
      - :type: http://www.assero.co.uk/BusinessDomain#ModelVariable
        :id: ''
        :namespace: ''
        :label: Treatment Vehicle
        :extension_properties: []
        :ordinal: '30'
        :rule: ''
        :name: "--TRTV"
        :prefixed: true
        :description: 'Vehicle for administration of treatment, such as a liquid in
          which the treatment drug is dissolved. Example: SALINE.'
        :datatype:
          :type: http://www.assero.co.uk/BusinessDomain#VariableType
          :id: ''
          :namespace: ''
          :label: Char
          :extension_properties: []
        :classification:
          :type: http://www.assero.co.uk/BusinessDomain#VariableClassification
          :id: ''
          :namespace: ''
          :label: Qualifier
          :extension_properties: []
        :sub_classification:
          :type: http://www.assero.co.uk/BusinessDomain#VariableClassification
          :id: ''
          :namespace: ''
          :label: Record Qualifier
          :extension_properties: []
      - :type: http://www.assero.co.uk/BusinessDomain#ModelVariable
        :id: ''
        :namespace: ''
        :label: Treatment Vehicle Amount
        :extension_properties: []
        :ordinal: '31'
        :rule: ''
        :name: "--VAMT"
        :prefixed: true
        :description: 'Amount of the prepared product (treatment + vehicle) administered
          or given. Note: should not be diluent amount alone.'
        :datatype:
          :type: http://www.assero.co.uk/BusinessDomain#VariableType
          :id: ''
          :namespace: ''
          :label: Num
          :extension_properties: []
        :classification:
          :type: http://www.assero.co.uk/BusinessDomain#VariableClassification
          :id: ''
          :namespace: ''
          :label: Qualifier
          :extension_properties: []
        :sub_classification:
          :type: http://www.assero.co.uk/BusinessDomain#VariableClassification
          :id: ''
          :namespace: ''
          :label: Record Qualifier
          :extension_properties: []
      - :type: http://www.assero.co.uk/BusinessDomain#ModelVariable
        :id: ''
        :namespace: ''
        :label: Treatment Vehicle Amount Units
        :extension_properties: []
        :ordinal: '32'
        :rule: ''
        :name: "--VAMTU"
        :prefixed: true
        :description: 'Units for the prepared product (treatment + vehicle). Examples:
          mL, mg.'
        :datatype:
          :type: http://www.assero.co.uk/BusinessDomain#VariableType
          :id: ''
          :namespace: ''
          :label: Char
          :extension_properties: []
        :classification:
          :type: http://www.assero.co.uk/BusinessDomain#VariableClassification
          :id: ''
          :namespace: ''
          :label: Qualifier
          :extension_properties: []
        :sub_classification:
          :type: http://www.assero.co.uk/BusinessDomain#VariableClassification
          :id: ''
          :namespace: ''
          :label: Variable Qualifier
          :extension_properties: []
      - :type: http://www.assero.co.uk/BusinessDomain#ModelVariable
        :id: ''
        :namespace: ''
        :label: Reason for Dose Adjustment
        :extension_properties: []
        :ordinal: '33'
        :rule: ''
        :name: "--ADJ"
        :prefixed: true
        :description: Describes reason or explanation of why a dose is adjusted. Examples
          ADVERSE EVENT, INSUFFICIENT RESPONSE, NON-MEDICAL REASON.
        :datatype:
          :type: http://www.assero.co.uk/BusinessDomain#VariableType
          :id: ''
          :namespace: ''
          :label: Char
          :extension_properties: []
        :classification:
          :type: http://www.assero.co.uk/BusinessDomain#VariableClassification
          :id: ''
          :namespace: ''
          :label: Qualifier
          :extension_properties: []
        :sub_classification:
          :type: http://www.assero.co.uk/BusinessDomain#VariableClassification
          :id: ''
          :namespace: ''
          :label: Record Qualifier
          :extension_properties: []
      - :type: http://www.assero.co.uk/BusinessDomain#ModelVariable
        :id: ''
        :namespace: ''
        :label: Subject Identifier for the Study
        :extension_properties: []
        :ordinal: '1'
        :rule: ''
        :name: SUBJID
        :prefixed: false
        :description: Subject identifier, which must be unique within the study. Often
          the ID of the subject as recorded on a CRF.
        :datatype:
          :type: http://www.assero.co.uk/BusinessDomain#VariableType
          :id: ''
          :namespace: ''
          :label: Char
          :extension_properties: []
        :classification:
          :type: http://www.assero.co.uk/BusinessDomain#VariableClassification
          :id: ''
          :namespace: ''
          :label: Topic
          :extension_properties: []
        :sub_classification:
          :type: http://www.assero.co.uk/BusinessDomain#VariableClassification
          :id: ''
          :namespace: ''
          :label: Not Applicable
          :extension_properties: []
      - :type: http://www.assero.co.uk/BusinessDomain#ModelVariable
        :id: ''
        :namespace: ''
        :label: Subject Reference Start Date/Time
        :extension_properties: []
        :ordinal: '2'
        :rule: ''
        :name: RFSTDTC
        :prefixed: false
        :description: Reference Start Date/time for the subject in ISO 8601 character
          format. Usually equivalent to date/time when subject was first exposed to
          study treatment. Required for all randomized subjects; will be null for
          all subjects who did not meet the milestone the date requires, such as screen
          failures or unassigned subjects.
        :datatype:
          :type: http://www.assero.co.uk/BusinessDomain#VariableType
          :id: ''
          :namespace: ''
          :label: Char
          :extension_properties: []
        :classification:
          :type: http://www.assero.co.uk/BusinessDomain#VariableClassification
          :id: ''
          :namespace: ''
          :label: Qualifier
          :extension_properties: []
        :sub_classification:
          :type: http://www.assero.co.uk/BusinessDomain#VariableClassification
          :id: ''
          :namespace: ''
          :label: Record Qualifier
          :extension_properties: []
      - :type: http://www.assero.co.uk/BusinessDomain#ModelVariable
        :id: ''
        :namespace: ''
        :label: Subject Reference End Date/Time
        :extension_properties: []
        :ordinal: '3'
        :rule: ''
        :name: RFENDTC
        :prefixed: false
        :description: Reference End Date/time for the subject in ISO 8601 character
          format. Usually equivalent to the date/time when subject was determined
          to have ended the trial, and often equivalent to date/time of last exposure
          to study treatment. Required for all randomized subjects; null for screen
          failures or unassigned subjects.
        :datatype:
          :type: http://www.assero.co.uk/BusinessDomain#VariableType
          :id: ''
          :namespace: ''
          :label: Char
          :extension_properties: []
        :classification:
          :type: http://www.assero.co.uk/BusinessDomain#VariableClassification
          :id: ''
          :namespace: ''
          :label: Qualifier
          :extension_properties: []
        :sub_classification:
          :type: http://www.assero.co.uk/BusinessDomain#VariableClassification
          :id: ''
          :namespace: ''
          :label: Record Qualifier
          :extension_properties: []
      - :type: http://www.assero.co.uk/BusinessDomain#ModelVariable
        :id: ''
        :namespace: ''
        :label: Date/Time of First Study Treatment
        :extension_properties: []
        :ordinal: '4'
        :rule: ''
        :name: RFXSTDTC
        :prefixed: false
        :description: First date/time of exposure to any protocol-specified treatment
          or therapy for the subject in ISO 8601 character format.
        :datatype:
          :type: http://www.assero.co.uk/BusinessDomain#VariableType
          :id: ''
          :namespace: ''
          :label: Char
          :extension_properties: []
        :classification:
          :type: http://www.assero.co.uk/BusinessDomain#VariableClassification
          :id: ''
          :namespace: ''
          :label: Qualifier
          :extension_properties: []
        :sub_classification:
          :type: http://www.assero.co.uk/BusinessDomain#VariableClassification
          :id: ''
          :namespace: ''
          :label: Record Qualifier
          :extension_properties: []
      - :type: http://www.assero.co.uk/BusinessDomain#ModelVariable
        :id: ''
        :namespace: ''
        :label: Date/Time of Last Study Treatment
        :extension_properties: []
        :ordinal: '5'
        :rule: ''
        :name: RFXENDTC
        :prefixed: false
        :description: Last date/time of exposure to any protocol-specified treatment
          or therapy for the subject in ISO 8601 character format.
        :datatype:
          :type: http://www.assero.co.uk/BusinessDomain#VariableType
          :id: ''
          :namespace: ''
          :label: Char
          :extension_properties: []
        :classification:
          :type: http://www.assero.co.uk/BusinessDomain#VariableClassification
          :id: ''
          :namespace: ''
          :label: Qualifier
          :extension_properties: []
        :sub_classification:
          :type: http://www.assero.co.uk/BusinessDomain#VariableClassification
          :id: ''
          :namespace: ''
          :label: Record Qualifier
          :extension_properties: []
      - :type: http://www.assero.co.uk/BusinessDomain#ModelVariable
        :id: ''
        :namespace: ''
        :label: Date/Time of Informed Consent
        :extension_properties: []
        :ordinal: '6'
        :rule: ''
        :name: RFICDTC
        :prefixed: false
        :description: Date/time of informed consent in ISO 8601 character format.
        :datatype:
          :type: http://www.assero.co.uk/BusinessDomain#VariableType
          :id: ''
          :namespace: ''
          :label: Char
          :extension_properties: []
        :classification:
          :type: http://www.assero.co.uk/BusinessDomain#VariableClassification
          :id: ''
          :namespace: ''
          :label: Qualifier
          :extension_properties: []
        :sub_classification:
          :type: http://www.assero.co.uk/BusinessDomain#VariableClassification
          :id: ''
          :namespace: ''
          :label: Record Qualifier
          :extension_properties: []
      - :type: http://www.assero.co.uk/BusinessDomain#ModelVariable
        :id: ''
        :namespace: ''
        :label: Date/Time of End of Participation
        :extension_properties: []
        :ordinal: '7'
        :rule: ''
        :name: RFPENDTC
        :prefixed: false
        :description: Date/time when subject ended participation or follow-up in a
          trial, in ISO 8601 character format. Should correspond to the last known
          date of contact.
        :datatype:
          :type: http://www.assero.co.uk/BusinessDomain#VariableType
          :id: ''
          :namespace: ''
          :label: Char
          :extension_properties: []
        :classification:
          :type: http://www.assero.co.uk/BusinessDomain#VariableClassification
          :id: ''
          :namespace: ''
          :label: Qualifier
          :extension_properties: []
        :sub_classification:
          :type: http://www.assero.co.uk/BusinessDomain#VariableClassification
          :id: ''
          :namespace: ''
          :label: Record Qualifier
          :extension_properties: []
      - :type: http://www.assero.co.uk/BusinessDomain#ModelVariable
        :id: ''
        :namespace: ''
        :label: Date/Time of Death
        :extension_properties: []
        :ordinal: '8'
        :rule: ''
        :name: DTHDTC
        :prefixed: false
        :description: Date/time of death for any subject who died, in ISO 8601 format.
          Should represent the date/time that is captured in the clinical-trial database.
        :datatype:
          :type: http://www.assero.co.uk/BusinessDomain#VariableType
          :id: ''
          :namespace: ''
          :label: Char
          :extension_properties: []
        :classification:
          :type: http://www.assero.co.uk/BusinessDomain#VariableClassification
          :id: ''
          :namespace: ''
          :label: Qualifier
          :extension_properties: []
        :sub_classification:
          :type: http://www.assero.co.uk/BusinessDomain#VariableClassification
          :id: ''
          :namespace: ''
          :label: Record Qualifier
          :extension_properties: []
      - :type: http://www.assero.co.uk/BusinessDomain#ModelVariable
        :id: ''
        :namespace: ''
        :label: Subject Death Flag
        :extension_properties: []
        :ordinal: '9'
        :rule: ''
        :name: DTHFL
        :prefixed: false
        :description: A value of ‘Y’ indicates the subject died. Should be Y or null.
          Should be populated even when the death date is unknown.
        :datatype:
          :type: http://www.assero.co.uk/BusinessDomain#VariableType
          :id: ''
          :namespace: ''
          :label: Char
          :extension_properties: []
        :classification:
          :type: http://www.assero.co.uk/BusinessDomain#VariableClassification
          :id: ''
          :namespace: ''
          :label: Qualifier
          :extension_properties: []
        :sub_classification:
          :type: http://www.assero.co.uk/BusinessDomain#VariableClassification
          :id: ''
          :namespace: ''
          :label: Record Qualifier
          :extension_properties: []
      - :type: http://www.assero.co.uk/BusinessDomain#ModelVariable
        :id: ''
        :namespace: ''
        :label: Study Site Identifier
        :extension_properties: []
        :ordinal: '10'
        :rule: ''
        :name: SITEID
        :prefixed: false
        :description: Unique identifier for a site within a study.
        :datatype:
          :type: http://www.assero.co.uk/BusinessDomain#VariableType
          :id: ''
          :namespace: ''
          :label: Char
          :extension_properties: []
        :classification:
          :type: http://www.assero.co.uk/BusinessDomain#VariableClassification
          :id: ''
          :namespace: ''
          :label: Qualifier
          :extension_properties: []
        :sub_classification:
          :type: http://www.assero.co.uk/BusinessDomain#VariableClassification
          :id: ''
          :namespace: ''
          :label: Record Qualifier
          :extension_properties: []
      - :type: http://www.assero.co.uk/BusinessDomain#ModelVariable
        :id: ''
        :namespace: ''
        :label: Investigator Identifier
        :extension_properties: []
        :ordinal: '11'
        :rule: ''
        :name: INVID
        :prefixed: false
        :description: An identifier to describe the Investigator for the study. May
          be used in addition to the SITEID. Not needed if SITEID is equivalent to
          INVID.
        :datatype:
          :type: http://www.assero.co.uk/BusinessDomain#VariableType
          :id: ''
          :namespace: ''
          :label: Char
          :extension_properties: []
        :classification:
          :type: http://www.assero.co.uk/BusinessDomain#VariableClassification
          :id: ''
          :namespace: ''
          :label: Qualifier
          :extension_properties: []
        :sub_classification:
          :type: http://www.assero.co.uk/BusinessDomain#VariableClassification
          :id: ''
          :namespace: ''
          :label: Record Qualifier
          :extension_properties: []
      - :type: http://www.assero.co.uk/BusinessDomain#ModelVariable
        :id: ''
        :namespace: ''
        :label: Investigator Name
        :extension_properties: []
        :ordinal: '12'
        :rule: ''
        :name: INVNAM
        :prefixed: false
        :description: Name of the investigator for a site.
        :datatype:
          :type: http://www.assero.co.uk/BusinessDomain#VariableType
          :id: ''
          :namespace: ''
          :label: Char
          :extension_properties: []
        :classification:
          :type: http://www.assero.co.uk/BusinessDomain#VariableClassification
          :id: ''
          :namespace: ''
          :label: Qualifier
          :extension_properties: []
        :sub_classification:
          :type: http://www.assero.co.uk/BusinessDomain#VariableClassification
          :id: ''
          :namespace: ''
          :label: Record Qualifier
          :extension_properties: []
      - :type: http://www.assero.co.uk/BusinessDomain#ModelVariable
        :id: ''
        :namespace: ''
        :label: Date/Time of Birth
        :extension_properties: []
        :ordinal: '13'
        :rule: ''
        :name: BRTHDTC
        :prefixed: false
        :description: Date/time of birth of the subject in ISO 8601 character format.
        :datatype:
          :type: http://www.assero.co.uk/BusinessDomain#VariableType
          :id: ''
          :namespace: ''
          :label: Char
          :extension_properties: []
        :classification:
          :type: http://www.assero.co.uk/BusinessDomain#VariableClassification
          :id: ''
          :namespace: ''
          :label: Qualifier
          :extension_properties: []
        :sub_classification:
