---
type: http://www.assero.co.uk/BusinessDomain#IgDomain
id: IG-CDISC_SDTMIGRS
namespace: http://www.assero.co.uk/MDRSdtmIgD/CDISC/V3
label: Disease Response
extension_properties: []
origin: ''
change_description: ''
creation_date: '2013-11-26T00:00:00+00:00'
last_changed_date: '2016-09-02T23:34:05+01:00'
explanatory_comment: ''
registration_state:
  namespace: http://www.assero.co.uk/MDRItems
  id: RS-CDISC_SDTMIGRS-3
  registration_authority:
    id: RA-084433759
    number: 084433759
    scheme: DUNS
    owner: false
    namespace:
      namespace: http://www.assero.co.uk/MDRItems
      id: NS-CDISC
      name: Clinical Data Interchange Standards Consortium
      shortName: CDISC
  registration_status: Standard
  administrative_note: ''
  effective_date: '2016-01-01T00:00:00Z'
  until_date: '2016-01-01T00:00:00Z'
  current: false
  unresolved_issue: ''
  administrative_status: ''
  previous_state: Standard
scoped_identifier:
  id: SI-CDISC_SDTMIGRS-3
  identifier: SDTM IG RS
  version_label: '3.2'
  version: 3
  semantic_version: 0.0.0
  namespace:
    namespace: http://www.assero.co.uk/MDRItems
    id: NS-CDISC
    name: Clinical Data Interchange Standards Consortium
    shortName: CDISC
ordinal: 0
rule: ''
prefix: RS
structure: ''
model_ref:
  type: http://www.assero.co.uk/BusinessOperational#TReference
  id: IG-CDISC_SDTMIGRS_CLR
  namespace: http://www.assero.co.uk/MDRSdtmIgD/CDISC/V3
  label: ''
  extension_properties: []
  enabled: true
  optional: false
  ordinal: 1
  local_label: ''
  subject_ref:
    namespace: http://www.assero.co.uk/MDRSdtmMd/CDISC/V3
    id: M-CDISC_SDTMMODEL_FINDINGS
children:
- type: http://www.assero.co.uk/BusinessDomain#IgVariable
  id: IG-CDISC_SDTMIGRS_EPOCH
  namespace: http://www.assero.co.uk/MDRSdtmIgD/CDISC/V3
  label: Epoch
  extension_properties: []
  ordinal: 24
  rule: ''
  name: EPOCH
  notes: Epoch associated with the Element in the planned sequence of Elements for
    the ARM to which the subject was assigned
  controlled_term_or_format: ''
  compliance:
    type: http://www.assero.co.uk/BusinessDomain#VariableCompliance
    id: IG-CDISC_SDTMIGRS_C_PERMISSIBLE
    namespace: http://www.assero.co.uk/MDRSdtmIgD/CDISC/V3
    label: Permissible
    extension_properties: []
  variable_ref:
    type: http://www.assero.co.uk/BusinessOperational#CReference
    id: IG-CDISC_SDTMIGRS_EPOCH_VR
    namespace: http://www.assero.co.uk/MDRSdtmIgD/CDISC/V3
    label: ''
    extension_properties: []
    enabled: true
    optional: false
    ordinal: 1
    local_label: ''
    subject_ref:
      namespace: http://www.assero.co.uk/MDRSdtmMd/CDISC/V3
      id: M-CDISC_SDTMMODEL_FINDINGS_EPOCH
    subject_data:
      type: http://www.assero.co.uk/BusinessDomain#ClassVariable
      id: M-CDISC_SDTMMODEL_FINDINGS_EPOCH
      namespace: http://www.assero.co.uk/MDRSdtmMd/CDISC/V3
      label: Epoch
      extension_properties: []
      ordinal: 68
      rule: ''
      variable_ref:
        type: http://www.assero.co.uk/BusinessOperational#CReference
        id: M-CDISC_SDTMMODEL_FINDINGS_EPOCH_CR
        namespace: http://www.assero.co.uk/MDRSdtmMd/CDISC/V3
        label: ''
        extension_properties: []
        enabled: true
        optional: false
        ordinal: 68
        local_label: ''
        subject_ref:
          namespace: http://www.assero.co.uk/MDRSdtmM/CDISC/V3
          id: M-CDISC_SDTMMODEL_EPOCH
        subject_data:
          type: http://www.assero.co.uk/BusinessDomain#ModelVariable
          id: M-CDISC_SDTMMODEL_EPOCH
          namespace: http://www.assero.co.uk/MDRSdtmM/CDISC/V3
          label: Epoch
          extension_properties: []
          ordinal: 16
          rule: ''
          name: EPOCH
          prefixed: false
          description: Epoch associated with the start date/time of the observation,
            or the date/time of collection if start date/time is not collected. (See
            Section 3.2.2).
          datatype:
            type: http://www.assero.co.uk/BusinessDomain#VariableType
            id: M-CDISC_SDTMMODEL_DT_CHAR
            namespace: http://www.assero.co.uk/MDRSdtmM/CDISC/V3
            label: Char
            extension_properties: []
          classification:
            type: http://www.assero.co.uk/BusinessDomain#VariableClassification
            id: M-CDISC_SDTMMODEL_C_TIMING
            namespace: http://www.assero.co.uk/MDRSdtmM/CDISC/V3
            label: Timing
            extension_properties: []
- type: http://www.assero.co.uk/BusinessDomain#IgVariable
  id: IG-CDISC_SDTMIGRS_RSDTC
  namespace: http://www.assero.co.uk/MDRSdtmIgD/CDISC/V3
  label: Date/Time of Response Assessment
  extension_properties: []
  ordinal: 25
  rule: ''
  name: RSDTC
  notes: RSDTC may be derived from the dates of scans/images/physical exams which
    may be performed on different dates. However, if all assessments are performed
    on the same date, RSDTC may be consistent with the TUDTC and TRDTC. Note the physical
    exam date may correspond to the visit date.
  controlled_term_or_format: ISO 8601
  compliance:
    type: http://www.assero.co.uk/BusinessDomain#VariableCompliance
    id: IG-CDISC_SDTMIGRS_C_EXPECTED
    namespace: http://www.assero.co.uk/MDRSdtmIgD/CDISC/V3
    label: Expected
    extension_properties: []
  variable_ref:
    type: http://www.assero.co.uk/BusinessOperational#CReference
    id: IG-CDISC_SDTMIGRS_RSDTC_VR
    namespace: http://www.assero.co.uk/MDRSdtmIgD/CDISC/V3
    label: ''
    extension_properties: []
    enabled: true
    optional: false
    ordinal: 1
    local_label: ''
    subject_ref:
      namespace: http://www.assero.co.uk/MDRSdtmMd/CDISC/V3
      id: M-CDISC_SDTMMODEL_FINDINGS_xxDTC
    subject_data:
      type: http://www.assero.co.uk/BusinessDomain#ClassVariable
      id: M-CDISC_SDTMMODEL_FINDINGS_xxDTC
      namespace: http://www.assero.co.uk/MDRSdtmMd/CDISC/V3
      label: Date/Time of Collection
      extension_properties: []
      ordinal: 69
      rule: ''
      variable_ref:
        type: http://www.assero.co.uk/BusinessOperational#CReference
        id: M-CDISC_SDTMMODEL_FINDINGS_xxDTC_CR
        namespace: http://www.assero.co.uk/MDRSdtmMd/CDISC/V3
        label: ''
        extension_properties: []
        enabled: true
        optional: false
        ordinal: 69
        local_label: ''
        subject_ref:
          namespace: http://www.assero.co.uk/MDRSdtmM/CDISC/V3
          id: M-CDISC_SDTMMODEL_xxDTC
        subject_data:
          type: http://www.assero.co.uk/BusinessDomain#ModelVariable
          id: M-CDISC_SDTMMODEL_xxDTC
          namespace: http://www.assero.co.uk/MDRSdtmM/CDISC/V3
          label: Date/Time of Collection
          extension_properties: []
          ordinal: 17
          rule: ''
          name: "--DTC"
          prefixed: true
          description: Collection date and time of an observation represented in IS0
            8601 character format.
          datatype:
            type: http://www.assero.co.uk/BusinessDomain#VariableType
            id: M-CDISC_SDTMMODEL_DT_CHAR
            namespace: http://www.assero.co.uk/MDRSdtmM/CDISC/V3
            label: Char
            extension_properties: []
          classification:
            type: http://www.assero.co.uk/BusinessDomain#VariableClassification
            id: M-CDISC_SDTMMODEL_C_TIMING
            namespace: http://www.assero.co.uk/MDRSdtmM/CDISC/V3
            label: Timing
            extension_properties: []
- type: http://www.assero.co.uk/BusinessDomain#IgVariable
  id: IG-CDISC_SDTMIGRS_RSACPTFL
  namespace: http://www.assero.co.uk/MDRSdtmIgD/CDISC/V3
  label: Accepted Record Flag
  extension_properties: []
  ordinal: 20
  rule: ''
  name: RSACPTFL
  notes: In cases where more than one independent assessor (e.g. RADIOLOGIST 1, RADIOLOGIST
    2, ADJUDICATOR) provides an evaluation of response this flag identifies the record
    that is considered to be the accepted evaluation.
  controlled_term_or_format: "(NY)"
  compliance:
    type: http://www.assero.co.uk/BusinessDomain#VariableCompliance
    id: IG-CDISC_SDTMIGRS_C_PERMISSIBLE
    namespace: http://www.assero.co.uk/MDRSdtmIgD/CDISC/V3
    label: Permissible
    extension_properties: []
  variable_ref:
    type: http://www.assero.co.uk/BusinessOperational#CReference
    id: IG-CDISC_SDTMIGRS_RSACPTFL_VR
    namespace: http://www.assero.co.uk/MDRSdtmIgD/CDISC/V3
    label: ''
    extension_properties: []
    enabled: true
    optional: false
    ordinal: 1
    local_label: ''
    subject_ref:
      namespace: http://www.assero.co.uk/MDRSdtmMd/CDISC/V3
      id: M-CDISC_SDTMMODEL_FINDINGS_xxACPTFL
    subject_data:
      type: http://www.assero.co.uk/BusinessDomain#ClassVariable
      id: M-CDISC_SDTMMODEL_FINDINGS_xxACPTFL
      namespace: http://www.assero.co.uk/MDRSdtmMd/CDISC/V3
      label: Accepted Record Flag
      extension_properties: []
      ordinal: 55
      rule: ''
      variable_ref:
        type: http://www.assero.co.uk/BusinessOperational#CReference
        id: M-CDISC_SDTMMODEL_FINDINGS_xxACPTFL_CR
        namespace: http://www.assero.co.uk/MDRSdtmMd/CDISC/V3
        label: ''
        extension_properties: []
        enabled: true
        optional: false
        ordinal: 55
        local_label: ''
        subject_ref:
          namespace: http://www.assero.co.uk/MDRSdtmM/CDISC/V3
          id: M-CDISC_SDTMMODEL_xxACPTFL
        subject_data:
          type: http://www.assero.co.uk/BusinessDomain#ModelVariable
          id: M-CDISC_SDTMMODEL_xxACPTFL
          namespace: http://www.assero.co.uk/MDRSdtmM/CDISC/V3
          label: Accepted Record Flag
          extension_properties: []
          ordinal: 44
          rule: ''
          name: "--ACPTFL"
          prefixed: true
          description: In cases where more than one assessor provides an evaluation
            of a result or response, this flag identifies the record that is considered,
            by an independent assessor, to be the accepted evaluation. Expected to
            be Y or null.
          datatype:
            type: http://www.assero.co.uk/BusinessDomain#VariableType
            id: M-CDISC_SDTMMODEL_DT_CHAR
            namespace: http://www.assero.co.uk/MDRSdtmM/CDISC/V3
            label: Char
            extension_properties: []
          classification:
            type: http://www.assero.co.uk/BusinessDomain#VariableClassification
            id: M-CDISC_SDTMMODEL_C_QUALIFIER
            namespace: http://www.assero.co.uk/MDRSdtmM/CDISC/V3
            label: Qualifier
            extension_properties: []
          sub_classification:
            type: http://www.assero.co.uk/BusinessDomain#VariableClassification
            id: M-CDISC_SDTMMODEL_SC_RECORDQUALIFIER
            namespace: http://www.assero.co.uk/MDRSdtmM/CDISC/V3
            label: Record Qualifier
            extension_properties: []
- type: http://www.assero.co.uk/BusinessDomain#IgVariable
  id: IG-CDISC_SDTMIGRS_RSORRES
  namespace: http://www.assero.co.uk/MDRSdtmIgD/CDISC/V3
  label: Response Assessment Original Result
  extension_properties: []
  ordinal: 13
  rule: ''
  name: RSORRES
  notes: Result of the Response assessment as originally received, collected, or calculated.
  controlled_term_or_format: ''
  compliance:
    type: http://www.assero.co.uk/BusinessDomain#VariableCompliance
    id: IG-CDISC_SDTMIGRS_C_EXPECTED
    namespace: http://www.assero.co.uk/MDRSdtmIgD/CDISC/V3
    label: Expected
    extension_properties: []
  variable_ref:
    type: http://www.assero.co.uk/BusinessOperational#CReference
    id: IG-CDISC_SDTMIGRS_RSORRES_VR
    namespace: http://www.assero.co.uk/MDRSdtmIgD/CDISC/V3
    label: ''
    extension_properties: []
    enabled: true
    optional: false
    ordinal: 1
    local_label: ''
    subject_ref:
      namespace: http://www.assero.co.uk/MDRSdtmMd/CDISC/V3
      id: M-CDISC_SDTMMODEL_FINDINGS_xxORRES
    subject_data:
      type: http://www.assero.co.uk/BusinessDomain#ClassVariable
      id: M-CDISC_SDTMMODEL_FINDINGS_xxORRES
      namespace: http://www.assero.co.uk/MDRSdtmMd/CDISC/V3
      label: Result or Finding in Original Units
      extension_properties: []
      ordinal: 20
      rule: ''
      variable_ref:
        type: http://www.assero.co.uk/BusinessOperational#CReference
        id: M-CDISC_SDTMMODEL_FINDINGS_xxORRES_CR
        namespace: http://www.assero.co.uk/MDRSdtmMd/CDISC/V3
        label: ''
        extension_properties: []
        enabled: true
        optional: false
        ordinal: 20
        local_label: ''
        subject_ref:
          namespace: http://www.assero.co.uk/MDRSdtmM/CDISC/V3
          id: M-CDISC_SDTMMODEL_xxORRES
        subject_data:
          type: http://www.assero.co.uk/BusinessDomain#ModelVariable
          id: M-CDISC_SDTMMODEL_xxORRES
          namespace: http://www.assero.co.uk/MDRSdtmM/CDISC/V3
          label: Result or Finding in Original Units
          extension_properties: []
          ordinal: 9
          rule: ''
          name: "--ORRES"
          prefixed: true
          description: 'Result of the measurement or finding as originally received
            or collected. Examples: 120, <1, POS.'
          datatype:
            type: http://www.assero.co.uk/BusinessDomain#VariableType
            id: M-CDISC_SDTMMODEL_DT_CHAR
            namespace: http://www.assero.co.uk/MDRSdtmM/CDISC/V3
            label: Char
            extension_properties: []
          classification:
            type: http://www.assero.co.uk/BusinessDomain#VariableClassification
            id: M-CDISC_SDTMMODEL_C_QUALIFIER
            namespace: http://www.assero.co.uk/MDRSdtmM/CDISC/V3
            label: Qualifier
            extension_properties: []
          sub_classification:
            type: http://www.assero.co.uk/BusinessDomain#VariableClassification
            id: M-CDISC_SDTMMODEL_SC_RESULTQUALIFIER
            namespace: http://www.assero.co.uk/MDRSdtmM/CDISC/V3
            label: Result Qualifier
            extension_properties: []
- type: http://www.assero.co.uk/BusinessDomain#IgVariable
  id: IG-CDISC_SDTMIGRS_RSNAM
  namespace: http://www.assero.co.uk/MDRSdtmIgD/CDISC/V3
  label: Vendor Name
  extension_properties: []
  ordinal: 17
  rule: ''
  name: RSNAM
  notes: The name or identifier of the vendor that performed the response assessment.
    This column can be left Null when the Investigator provides the complete set of
    data in the domain.
  controlled_term_or_format: ''
  compliance:
    type: http://www.assero.co.uk/BusinessDomain#VariableCompliance
    id: IG-CDISC_SDTMIGRS_C_PERMISSIBLE
    namespace: http://www.assero.co.uk/MDRSdtmIgD/CDISC/V3
    label: Permissible
    extension_properties: []
  variable_ref:
    type: http://www.assero.co.uk/BusinessOperational#CReference
    id: IG-CDISC_SDTMIGRS_RSNAM_VR
    namespace: http://www.assero.co.uk/MDRSdtmIgD/CDISC/V3
    label: ''
    extension_properties: []
    enabled: true
    optional: false
    ordinal: 1
    local_label: ''
    subject_ref:
      namespace: http://www.assero.co.uk/MDRSdtmMd/CDISC/V3
      id: M-CDISC_SDTMMODEL_FINDINGS_xxNAM
    subject_data:
      type: http://www.assero.co.uk/BusinessDomain#ClassVariable
      id: M-CDISC_SDTMMODEL_FINDINGS_xxNAM
      namespace: http://www.assero.co.uk/MDRSdtmMd/CDISC/V3
      label: Laboratory/Vendor Name
      extension_properties: []
      ordinal: 35
      rule: ''
      variable_ref:
        type: http://www.assero.co.uk/BusinessOperational#CReference
        id: M-CDISC_SDTMMODEL_FINDINGS_xxNAM_CR
        namespace: http://www.assero.co.uk/MDRSdtmMd/CDISC/V3
        label: ''
        extension_properties: []
        enabled: true
        optional: false
        ordinal: 35
        local_label: ''
        subject_ref:
          namespace: http://www.assero.co.uk/MDRSdtmM/CDISC/V3
          id: M-CDISC_SDTMMODEL_xxNAM
        subject_data:
          type: http://www.assero.co.uk/BusinessDomain#ModelVariable
          id: M-CDISC_SDTMMODEL_xxNAM
          namespace: http://www.assero.co.uk/MDRSdtmM/CDISC/V3
          label: Laboratory/Vendor Name
          extension_properties: []
          ordinal: 24
          rule: ''
          name: "--NAM"
          prefixed: true
          description: Name or identifier of the vendor (e.g., laboratory) that provided
            the test results.
          datatype:
            type: http://www.assero.co.uk/BusinessDomain#VariableType
            id: M-CDISC_SDTMMODEL_DT_CHAR
            namespace: http://www.assero.co.uk/MDRSdtmM/CDISC/V3
            label: Char
            extension_properties: []
          classification:
            type: http://www.assero.co.uk/BusinessDomain#VariableClassification
            id: M-CDISC_SDTMMODEL_C_QUALIFIER
            namespace: http://www.assero.co.uk/MDRSdtmM/CDISC/V3
            label: Qualifier
            extension_properties: []
          sub_classification:
            type: http://www.assero.co.uk/BusinessDomain#VariableClassification
            id: M-CDISC_SDTMMODEL_SC_RECORDQUALIFIER
            namespace: http://www.assero.co.uk/MDRSdtmM/CDISC/V3
            label: Record Qualifier
            extension_properties: []
- type: http://www.assero.co.uk/BusinessDomain#IgVariable
  id: IG-CDISC_SDTMIGRS_RSSTRESC
  namespace: http://www.assero.co.uk/MDRSdtmIgD/CDISC/V3
  label: Response Assessment Result in Std Format
  extension_properties: []
  ordinal: 14
  rule: ''
  name: RSSTRESC
  notes: Contains the result value for the response assessment, copied or derived
    from RSORRES in a standard format or standard units. RSSTRESC should store all
    results or findings in character format;
  controlled_term_or_format: ''
  compliance:
    type: http://www.assero.co.uk/BusinessDomain#VariableCompliance
    id: IG-CDISC_SDTMIGRS_C_EXPECTED
    namespace: http://www.assero.co.uk/MDRSdtmIgD/CDISC/V3
    label: Expected
    extension_properties: []
  variable_ref:
    type: http://www.assero.co.uk/BusinessOperational#CReference
    id: IG-CDISC_SDTMIGRS_RSSTRESC_VR
    namespace: http://www.assero.co.uk/MDRSdtmIgD/CDISC/V3
    label: ''
    extension_properties: []
    enabled: true
    optional: false
    ordinal: 1
    local_label: ''
    subject_ref:
      namespace: http://www.assero.co.uk/MDRSdtmMd/CDISC/V3
      id: M-CDISC_SDTMMODEL_FINDINGS_xxSTRESC
    subject_data:
      type: http://www.assero.co.uk/BusinessDomain#ClassVariable
      id: M-CDISC_SDTMMODEL_FINDINGS_xxSTRESC
      namespace: http://www.assero.co.uk/MDRSdtmMd/CDISC/V3
      label: Result or Finding in Standard Format
      extension_properties: []
      ordinal: 24
      rule: ''
      variable_ref:
        type: http://www.assero.co.uk/BusinessOperational#CReference
        id: M-CDISC_SDTMMODEL_FINDINGS_xxSTRESC_CR
        namespace: http://www.assero.co.uk/MDRSdtmMd/CDISC/V3
        label: ''
        extension_properties: []
        enabled: true
        optional: false
        ordinal: 24
        local_label: ''
        subject_ref:
          namespace: http://www.assero.co.uk/MDRSdtmM/CDISC/V3
          id: M-CDISC_SDTMMODEL_xxSTRESC
        subject_data:
          type: http://www.assero.co.uk/BusinessDomain#ModelVariable
          id: M-CDISC_SDTMMODEL_xxSTRESC
          namespace: http://www.assero.co.uk/MDRSdtmM/CDISC/V3
          label: Result or Finding in Standard Format
          extension_properties: []
          ordinal: 13
          rule: ''
          name: "--STRESC"
          prefixed: true
          description: Contains the result value for all findings, copied or derived
            from --ORRES in a standard format or in standard units. --STRESC should
            store all results or findings in character format; if results are numeric,
            they should also be stored in numeric format in --STRESN. For example,
            if various tests have results “NONE”, “NEG”, and “NEGATIVE” in --ORRES
            and these results effectively have the same meaning, they could be represented
            in standard format in --STRESC as "NEGATIVE".
          datatype:
            type: http://www.assero.co.uk/BusinessDomain#VariableType
            id: M-CDISC_SDTMMODEL_DT_CHAR
            namespace: http://www.assero.co.uk/MDRSdtmM/CDISC/V3
            label: Char
            extension_properties: []
          classification:
            type: http://www.assero.co.uk/BusinessDomain#VariableClassification
            id: M-CDISC_SDTMMODEL_C_QUALIFIER
            namespace: http://www.assero.co.uk/MDRSdtmM/CDISC/V3
            label: Qualifier
            extension_properties: []
          sub_classification:
            type: http://www.assero.co.uk/BusinessDomain#VariableClassification
            id: M-CDISC_SDTMMODEL_SC_RESULTQUALIFIER
            namespace: http://www.assero.co.uk/MDRSdtmM/CDISC/V3
            label: Result Qualifier
            extension_properties: []
- type: http://www.assero.co.uk/BusinessDomain#IgVariable
  id: IG-CDISC_SDTMIGRS_RSDY
  namespace: http://www.assero.co.uk/MDRSdtmIgD/CDISC/V3
  label: Study Day of Response Assessment
  extension_properties: []
  ordinal: 26
  rule: ''
  name: RSDY
  notes: 1. Study day of the response assessment, measured as integer days. 2. Algorithm
    for calculations must be relative to the sponsor-defined RFSTDTC variable in Demographics.
  controlled_term_or_format: ''
  compliance:
    type: http://www.assero.co.uk/BusinessDomain#VariableCompliance
    id: IG-CDISC_SDTMIGRS_C_PERMISSIBLE
    namespace: http://www.assero.co.uk/MDRSdtmIgD/CDISC/V3
    label: Permissible
    extension_properties: []
  variable_ref:
    type: http://www.assero.co.uk/BusinessOperational#CReference
    id: IG-CDISC_SDTMIGRS_RSDY_VR
    namespace: http://www.assero.co.uk/MDRSdtmIgD/CDISC/V3
    label: ''
    extension_properties: []
    enabled: true
    optional: false
    ordinal: 1
    local_label: ''
    subject_ref:
      namespace: http://www.assero.co.uk/MDRSdtmMd/CDISC/V3
      id: M-CDISC_SDTMMODEL_FINDINGS_xxDY
    subject_data:
      type: http://www.assero.co.uk/BusinessDomain#ClassVariable
      id: M-CDISC_SDTMMODEL_FINDINGS_xxDY
      namespace: http://www.assero.co.uk/MDRSdtmMd/CDISC/V3
      label: Study Day of Visit/Collection/Exam
      extension_properties: []
      ordinal: 72
      rule: ''
      variable_ref:
        type: http://www.assero.co.uk/BusinessOperational#CReference
        id: M-CDISC_SDTMMODEL_FINDINGS_xxDY_CR
        namespace: http://www.assero.co.uk/MDRSdtmMd/CDISC/V3
        label: ''
        extension_properties: []
        enabled: true
        optional: false
        ordinal: 72
        local_label: ''
        subject_ref:
          namespace: http://www.assero.co.uk/MDRSdtmM/CDISC/V3
          id: M-CDISC_SDTMMODEL_xxDY
        subject_data:
          type: http://www.assero.co.uk/BusinessDomain#ModelVariable
          id: M-CDISC_SDTMMODEL_xxDY
          namespace: http://www.assero.co.uk/MDRSdtmM/CDISC/V3
          label: Study Day of Visit/Collection/Exam
          extension_properties: []
          ordinal: 20
          rule: ''
          name: "--DY"
          prefixed: true
          description: Actual study day of visit/collection/exam expressed in integer
            days relative to the sponsor-defined RFSTDTC in Demographics.
          datatype:
            type: http://www.assero.co.uk/BusinessDomain#VariableType
            id: M-CDISC_SDTMMODEL_DT_NUM
            namespace: http://www.assero.co.uk/MDRSdtmM/CDISC/V3
            label: Num
            extension_properties: []
          classification:
            type: http://www.assero.co.uk/BusinessDomain#VariableClassification
            id: M-CDISC_SDTMMODEL_C_TIMING
            namespace: http://www.assero.co.uk/MDRSdtmM/CDISC/V3
            label: Timing
            extension_properties: []
- type: http://www.assero.co.uk/BusinessDomain#IgVariable
  id: IG-CDISC_SDTMIGRS_RSREFID
  namespace: http://www.assero.co.uk/MDRSdtmIgD/CDISC/V3
  label: Reference ID
  extension_properties: []
  ordinal: 6
  rule: ''
  name: RSREFID
  notes: Internal or external identifier.
  controlled_term_or_format: ''
  compliance:
    type: http://www.assero.co.uk/BusinessDomain#VariableCompliance
    id: IG-CDISC_SDTMIGRS_C_PERMISSIBLE
    namespace: http://www.assero.co.uk/MDRSdtmIgD/CDISC/V3
    label: Permissible
    extension_properties: []
  variable_ref:
    type: http://www.assero.co.uk/BusinessOperational#CReference
    id: IG-CDISC_SDTMIGRS_RSREFID_VR
    namespace: http://www.assero.co.uk/MDRSdtmIgD/CDISC/V3
    label: ''
    extension_properties: []
    enabled: true
    optional: false
    ordinal: 1
    local_label: ''
    subject_ref:
      namespace: http://www.assero.co.uk/MDRSdtmMd/CDISC/V3
      id: M-CDISC_SDTMMODEL_FINDINGS_xxREFID
    subject_data:
      type: http://www.assero.co.uk/BusinessDomain#ClassVariable
      id: M-CDISC_SDTMMODEL_FINDINGS_xxREFID
      namespace: http://www.assero.co.uk/MDRSdtmMd/CDISC/V3
      label: Reference ID
      extension_properties: []
      ordinal: 8
      rule: ''
      variable_ref:
        type: http://www.assero.co.uk/BusinessOperational#CReference
        id: M-CDISC_SDTMMODEL_FINDINGS_xxREFID_CR
        namespace: http://www.assero.co.uk/MDRSdtmMd/CDISC/V3
        label: ''
        extension_properties: []
        enabled: true
        optional: false
        ordinal: 8
        local_label: ''
        subject_ref:
          namespace: http://www.assero.co.uk/MDRSdtmM/CDISC/V3
          id: M-CDISC_SDTMMODEL_xxREFID
        subject_data:
          type: http://www.assero.co.uk/BusinessDomain#ModelVariable
          id: M-CDISC_SDTMMODEL_xxREFID
          namespace: http://www.assero.co.uk/MDRSdtmM/CDISC/V3
          label: Reference ID
          extension_properties: []
          ordinal: 8
          rule: ''
          name: "--REFID"
          prefixed: true
          description: Optional internal or external identifier such as lab specimen
            ID, or UUID for an ECG waveform or a medical image.
          datatype:
            type: http://www.assero.co.uk/BusinessDomain#VariableType
            id: M-CDISC_SDTMMODEL_DT_CHAR
            namespace: http://www.assero.co.uk/MDRSdtmM/CDISC/V3
            label: Char
            extension_properties: []
          classification:
            type: http://www.assero.co.uk/BusinessDomain#VariableClassification
            id: M-CDISC_SDTMMODEL_C_IDENTIFIER
            namespace: http://www.assero.co.uk/MDRSdtmM/CDISC/V3
            label: Identifier
            extension_properties: []
- type: http://www.assero.co.uk/BusinessDomain#IgVariable
  id: IG-CDISC_SDTMIGRS_VISIT
  namespace: http://www.assero.co.uk/MDRSdtmIgD/CDISC/V3
  label: Visit Name
  extension_properties: []
  ordinal: 22
  rule: ''
  name: VISIT
  notes: "1. Protocol-defined description of clinical encounter. \n2. May be used
    in addition to VISITNUM and/or VISITDY."
  controlled_term_or_format: ''
  compliance:
    type: http://www.assero.co.uk/BusinessDomain#VariableCompliance
    id: IG-CDISC_SDTMIGRS_C_PERMISSIBLE
    namespace: http://www.assero.co.uk/MDRSdtmIgD/CDISC/V3
    label: Permissible
    extension_properties: []
  variable_ref:
    type: http://www.assero.co.uk/BusinessOperational#CReference
    id: IG-CDISC_SDTMIGRS_VISIT_VR
    namespace: http://www.assero.co.uk/MDRSdtmIgD/CDISC/V3
    label: ''
    extension_properties: []
    enabled: true
    optional: false
    ordinal: 1
    local_label: ''
    subject_ref:
      namespace: http://www.assero.co.uk/MDRSdtmMd/CDISC/V3
      id: M-CDISC_SDTMMODEL_FINDINGS_VISIT
    subject_data:
      type: http://www.assero.co.uk/BusinessDomain#ClassVariable
      id: M-CDISC_SDTMMODEL_FINDINGS_VISIT
      namespace: http://www.assero.co.uk/MDRSdtmMd/CDISC/V3
      label: Visit Name
      extension_properties: []
      ordinal: 65
      rule: ''
      variable_ref:
        type: http://www.assero.co.uk/BusinessOperational#CReference
        id: M-CDISC_SDTMMODEL_FINDINGS_VISIT_CR
        namespace: http://www.assero.co.uk/MDRSdtmMd/CDISC/V3
        label: ''
        extension_properties: []
        enabled: true
        optional: false
        ordinal: 65
        local_label: ''
        subject_ref:
          namespace: http://www.assero.co.uk/MDRSdtmM/CDISC/V3
          id: M-CDISC_SDTMMODEL_VISIT
        subject_data:
          type: http://www.assero.co.uk/BusinessDomain#ModelVariable
          id: M-CDISC_SDTMMODEL_VISIT
          namespace: http://www.assero.co.uk/MDRSdtmM/CDISC/V3
          label: Visit Name
          extension_properties: []
          ordinal: 13
          rule: ''
          name: VISIT
          prefixed: false
          description: Protocol-defined description of a clinical encounter.
          datatype:
            type: http://www.assero.co.uk/BusinessDomain#VariableType
            id: M-CDISC_SDTMMODEL_DT_CHAR
            namespace: http://www.assero.co.uk/MDRSdtmM/CDISC/V3
            label: Char
            extension_properties: []
          classification:
            type: http://www.assero.co.uk/BusinessDomain#VariableClassification
            id: M-CDISC_SDTMMODEL_C_TIMING
            namespace: http://www.assero.co.uk/MDRSdtmM/CDISC/V3
            label: Timing
            extension_properties: []
- type: http://www.assero.co.uk/BusinessDomain#IgVariable
  id: IG-CDISC_SDTMIGRS_VISITNUM
  namespace: http://www.assero.co.uk/MDRSdtmIgD/CDISC/V3
  label: Visit Number
  extension_properties: []
  ordinal: 21
  rule: ''
  name: VISITNUM
  notes: "1. Clinical encounter number. \n2. Numeric version of VISIT, used for sorting."
  controlled_term_or_format: ''
  compliance:
    type: http://www.assero.co.uk/BusinessDomain#VariableCompliance
    id: IG-CDISC_SDTMIGRS_C_EXPECTED
    namespace: http://www.assero.co.uk/MDRSdtmIgD/CDISC/V3
    label: Expected
    extension_properties: []
  variable_ref:
    type: http://www.assero.co.uk/BusinessOperational#CReference
    id: IG-CDISC_SDTMIGRS_VISITNUM_VR
    namespace: http://www.assero.co.uk/MDRSdtmIgD/CDISC/V3
    label: ''
    extension_properties: []
    enabled: true
    optional: false
    ordinal: 1
    local_label: ''
    subject_ref:
      namespace: http://www.assero.co.uk/MDRSdtmMd/CDISC/V3
      id: M-CDISC_SDTMMODEL_FINDINGS_VISITNUM
    subject_data:
      type: http://www.assero.co.uk/BusinessDomain#ClassVariable
      id: M-CDISC_SDTMMODEL_FINDINGS_VISITNUM
      namespace: http://www.assero.co.uk/MDRSdtmMd/CDISC/V3
      label: Visit Number
      extension_properties: []
      ordinal: 64
      rule: ''
      variable_ref:
        type: http://www.assero.co.uk/BusinessOperational#CReference
        id: M-CDISC_SDTMMODEL_FINDINGS_VISITNUM_CR
        namespace: http://www.assero.co.uk/MDRSdtmMd/CDISC/V3
        label: ''
        extension_properties: []
        enabled: true
        optional: false
        ordinal: 64
        local_label: ''
        subject_ref:
          namespace: http://www.assero.co.uk/MDRSdtmM/CDISC/V3
          id: M-CDISC_SDTMMODEL_VISITNUM
        subject_data:
          type: http://www.assero.co.uk/BusinessDomain#ModelVariable
          id: M-CDISC_SDTMMODEL_VISITNUM
          namespace: http://www.assero.co.uk/MDRSdtmM/CDISC/V3
          label: Visit Number
          extension_properties: []
          ordinal: 12
          rule: ''
          name: VISITNUM
          prefixed: false
          description: Clinical encounter number. Numeric version of VISIT, used for
            sorting.
          datatype:
            type: http://www.assero.co.uk/BusinessDomain#VariableType
            id: M-CDISC_SDTMMODEL_DT_NUM
            namespace: http://www.assero.co.uk/MDRSdtmM/CDISC/V3
            label: Num
            extension_properties: []
          classification:
            type: http://www.assero.co.uk/BusinessDomain#VariableClassification
            id: M-CDISC_SDTMMODEL_C_TIMING
            namespace: http://www.assero.co.uk/MDRSdtmM/CDISC/V3
            label: Timing
            extension_properties: []
- type: http://www.assero.co.uk/BusinessDomain#IgVariable
  id: IG-CDISC_SDTMIGRS_RSLNKID
  namespace: http://www.assero.co.uk/MDRSdtmIgD/CDISC/V3
  label: Link ID
  extension_properties: []
  ordinal: 8
  rule: ''
  name: RSLNKID
  notes: Used to link the response assessment to the appropriate measurement records
    (in TR) for same tumor that was used to determine the response result.
  controlled_term_or_format: ''
  compliance:
    type: http://www.assero.co.uk/BusinessDomain#VariableCompliance
    id: IG-CDISC_SDTMIGRS_C_PERMISSIBLE
    namespace: http://www.assero.co.uk/MDRSdtmIgD/CDISC/V3
    label: Permissible
    extension_properties: []
  variable_ref:
    type: http://www.assero.co.uk/BusinessOperational#CReference
    id: IG-CDISC_SDTMIGRS_RSLNKID_VR
    namespace: http://www.assero.co.uk/MDRSdtmIgD/CDISC/V3
    label: ''
    extension_properties: []
    enabled: true
    optional: false
    ordinal: 1
    local_label: ''
    subject_ref:
      namespace: http://www.assero.co.uk/MDRSdtmMd/CDISC/V3
      id: M-CDISC_SDTMMODEL_FINDINGS_xxLNKID
    subject_data:
      type: http://www.assero.co.uk/BusinessDomain#ClassVariable
      id: M-CDISC_SDTMMODEL_FINDINGS_xxLNKID
      namespace: http://www.assero.co.uk/MDRSdtmMd/CDISC/V3
      label: Link ID
      extension_properties: []
      ordinal: 10
      rule: ''
      variable_ref:
        type: http://www.assero.co.uk/BusinessOperational#CReference
        id: M-CDISC_SDTMMODEL_FINDINGS_xxLNKID_CR
        namespace: http://www.assero.co.uk/MDRSdtmMd/CDISC/V3
        label: ''
        extension_properties: []
        enabled: true
        optional: false
        ordinal: 10
        local_label: ''
        subject_ref:
          namespace: http://www.assero.co.uk/MDRSdtmM/CDISC/V3
          id: M-CDISC_SDTMMODEL_xxLNKID
        subject_data:
          type: http://www.assero.co.uk/BusinessDomain#ModelVariable
          id: M-CDISC_SDTMMODEL_xxLNKID
          namespace: http://www.assero.co.uk/MDRSdtmM/CDISC/V3
          label: Link ID
          extension_properties: []
          ordinal: 10
          rule: ''
          name: "--LNKID"
          prefixed: true
          description: 'Identifier used to link related records across domains. This
            may be a one-to-one or a one-to-many relationship. For Example: A single
            tumor may have multiple measurements/assessments performed at each study
            visit.'
          datatype:
            type: http://www.assero.co.uk/BusinessDomain#VariableType
            id: M-CDISC_SDTMMODEL_DT_CHAR
            namespace: http://www.assero.co.uk/MDRSdtmM/CDISC/V3
            label: Char
            extension_properties: []
          classification:
            type: http://www.assero.co.uk/BusinessDomain#VariableClassification
            id: M-CDISC_SDTMMODEL_C_IDENTIFIER
            namespace: http://www.assero.co.uk/MDRSdtmM/CDISC/V3
            label: Identifier
            extension_properties: []
- type: http://www.assero.co.uk/BusinessDomain#IgVariable
  id: IG-CDISC_SDTMIGRS_RSLNKGRP
  namespace: http://www.assero.co.uk/MDRSdtmIgD/CDISC/V3
  label: Link Group
  extension_properties: []
  ordinal: 9
  rule: ''
  name: RSLNKGRP
  notes: Used to link the response assessment to the all of the measurement/assessment
    records in the TR domain which were used in the assessment of the response.
  controlled_term_or_format: ''
  compliance:
    type: http://www.assero.co.uk/BusinessDomain#VariableCompliance
    id: IG-CDISC_SDTMIGRS_C_PERMISSIBLE
    namespace: http://www.assero.co.uk/MDRSdtmIgD/CDISC/V3
    label: Permissible
    extension_properties: []
  variable_ref:
    type: http://www.assero.co.uk/BusinessOperational#CReference
    id: IG-CDISC_SDTMIGRS_RSLNKGRP_VR
    namespace: http://www.assero.co.uk/MDRSdtmIgD/CDISC/V3
    label: ''
    extension_properties: []
    enabled: true
    optional: false
    ordinal: 1
    local_label: ''
    subject_ref:
      namespace: http://www.assero.co.uk/MDRSdtmMd/CDISC/V3
      id: M-CDISC_SDTMMODEL_FINDINGS_xxLNKGRP
    subject_data:
      type: http://www.assero.co.uk/BusinessDomain#ClassVariable
      id: M-CDISC_SDTMMODEL_FINDINGS_xxLNKGRP
      namespace: http://www.assero.co.uk/MDRSdtmMd/CDISC/V3
      label: Link Group ID
      extension_properties: []
      ordinal: 11
      rule: ''
      variable_ref:
        type: http://www.assero.co.uk/BusinessOperational#CReference
        id: M-CDISC_SDTMMODEL_FINDINGS_xxLNKGRP_CR
        namespace: http://www.assero.co.uk/MDRSdtmMd/CDISC/V3
        label: ''
        extension_properties: []
        enabled: true
        optional: false
        ordinal: 11
        local_label: ''
        subject_ref:
          namespace: http://www.assero.co.uk/MDRSdtmM/CDISC/V3
          id: M-CDISC_SDTMMODEL_xxLNKGRP
        subject_data:
          type: http://www.assero.co.uk/BusinessDomain#ModelVariable
          id: M-CDISC_SDTMMODEL_xxLNKGRP
          namespace: http://www.assero.co.uk/MDRSdtmM/CDISC/V3
          label: Link Group ID
          extension_properties: []
          ordinal: 11
          rule: ''
          name: "--LNKGRP"
          prefixed: true
          description: 'Identifier used to link related records across domains. This
            will usually be a many-to-one relationship. For example: Multiple tumor
            measurements/assessments will contribute to a single response to therapy
            determination record.'
          datatype:
            type: http://www.assero.co.uk/BusinessDomain#VariableType
            id: M-CDISC_SDTMMODEL_DT_CHAR
            namespace: http://www.assero.co.uk/MDRSdtmM/CDISC/V3
            label: Char
            extension_properties: []
          classification:
            type: http://www.assero.co.uk/BusinessDomain#VariableClassification
            id: M-CDISC_SDTMMODEL_C_IDENTIFIER
            namespace: http://www.assero.co.uk/MDRSdtmM/CDISC/V3
            label: Identifier
            extension_properties: []
- type: http://www.assero.co.uk/BusinessDomain#IgVariable
  id: IG-CDISC_SDTMIGRS_USUBJID
  namespace: http://www.assero.co.uk/MDRSdtmIgD/CDISC/V3
  label: Unique Subject Identifier
  extension_properties: []
  ordinal: 3
  rule: ''
  name: USUBJID
  notes: Identifier used to uniquely identify a subject across all studies for all
    applications or submissions involving the product.
  controlled_term_or_format: ''
  compliance:
    type: http://www.assero.co.uk/BusinessDomain#VariableCompliance
    id: IG-CDISC_SDTMIGRS_C_REQUIRED
    namespace: http://www.assero.co.uk/MDRSdtmIgD/CDISC/V3
    label: Required
    extension_properties: []
  variable_ref:
    type: http://www.assero.co.uk/BusinessOperational#CReference
    id: IG-CDISC_SDTMIGRS_USUBJID_VR
    namespace: http://www.assero.co.uk/MDRSdtmIgD/CDISC/V3
    label: ''
    extension_properties: []
    enabled: true
    optional: false
    ordinal: 1
    local_label: ''
    subject_ref:
      namespace: http://www.assero.co.uk/MDRSdtmMd/CDISC/V3
      id: M-CDISC_SDTMMODEL_FINDINGS_USUBJID
    subject_data:
      type: http://www.assero.co.uk/BusinessDomain#ClassVariable
      id: M-CDISC_SDTMMODEL_FINDINGS_USUBJID
      namespace: http://www.assero.co.uk/MDRSdtmMd/CDISC/V3
      label: Unique Subject Identifier
      extension_properties: []
      ordinal: 3
      rule: ''
      variable_ref:
        type: http://www.assero.co.uk/BusinessOperational#CReference
        id: M-CDISC_SDTMMODEL_FINDINGS_USUBJID_CR
        namespace: http://www.assero.co.uk/MDRSdtmMd/CDISC/V3
        label: ''
        extension_properties: []
        enabled: true
        optional: false
        ordinal: 3
        local_label: ''
        subject_ref:
          namespace: http://www.assero.co.uk/MDRSdtmM/CDISC/V3
          id: M-CDISC_SDTMMODEL_USUBJID
        subject_data:
          type: http://www.assero.co.uk/BusinessDomain#ModelVariable
          id: M-CDISC_SDTMMODEL_USUBJID
          namespace: http://www.assero.co.uk/MDRSdtmM/CDISC/V3
          label: Unique Subject Identifier
          extension_properties: []
          ordinal: 3
          rule: ''
          name: USUBJID
          prefixed: false
          description: Identifier used to uniquely identify a subject across all studies
            for all applications or submissions involving the product.
          datatype:
            type: http://www.assero.co.uk/BusinessDomain#VariableType
            id: M-CDISC_SDTMMODEL_DT_CHAR
            namespace: http://www.assero.co.uk/MDRSdtmM/CDISC/V3
            label: Char
            extension_properties: []
          classification:
            type: http://www.assero.co.uk/BusinessDomain#VariableClassification
            id: M-CDISC_SDTMMODEL_C_IDENTIFIER
            namespace: http://www.assero.co.uk/MDRSdtmM/CDISC/V3
            label: Identifier
            extension_properties: []
- type: http://www.assero.co.uk/BusinessDomain#IgVariable
  id: IG-CDISC_SDTMIGRS_RSSEQ
  namespace: http://www.assero.co.uk/MDRSdtmIgD/CDISC/V3
  label: Sequence Number
  extension_properties: []
  ordinal: 4
  rule: ''
  name: RSSEQ
  notes: Sequence number given to ensure uniqueness within a dataset for a subject.
    May be any valid number.
  controlled_term_or_format: ''
  compliance:
    type: http://www.assero.co.uk/BusinessDomain#VariableCompliance
    id: IG-CDISC_SDTMIGRS_C_REQUIRED
    namespace: http://www.assero.co.uk/MDRSdtmIgD/CDISC/V3
    label: Required
    extension_properties: []
  variable_ref:
    type: http://www.assero.co.uk/BusinessOperational#CReference
    id: IG-CDISC_SDTMIGRS_RSSEQ_VR
    namespace: http://www.assero.co.uk/MDRSdtmIgD/CDISC/V3
    label: ''
    extension_properties: []
    enabled: true
    optional: false
    ordinal: 1
    local_label: ''
    subject_ref:
      namespace: http://www.assero.co.uk/MDRSdtmMd/CDISC/V3
      id: M-CDISC_SDTMMODEL_FINDINGS_xxSEQ
    subject_data:
      type: http://www.assero.co.uk/BusinessDomain#ClassVariable
      id: M-CDISC_SDTMMODEL_FINDINGS_xxSEQ
      namespace: http://www.assero.co.uk/MDRSdtmMd/CDISC/V3
      label: Sequence Number
      extension_properties: []
      ordinal: 6
      rule: ''
      variable_ref:
        type: http://www.assero.co.uk/BusinessOperational#CReference
        id: M-CDISC_SDTMMODEL_FINDINGS_xxSEQ_CR
        namespace: http://www.assero.co.uk/MDRSdtmMd/CDISC/V3
        label: ''
        extension_properties: []
        enabled: true
        optional: false
        ordinal: 6
        local_label: ''
        subject_ref:
          namespace: http://www.assero.co.uk/MDRSdtmM/CDISC/V3
          id: M-CDISC_SDTMMODEL_xxSEQ
        subject_data:
          type: http://www.assero.co.uk/BusinessDomain#ModelVariable
          id: M-CDISC_SDTMMODEL_xxSEQ
          namespace: http://www.assero.co.uk/MDRSdtmM/CDISC/V3
          label: Sequence Number
          extension_properties: []
          ordinal: 6
          rule: ''
          name: "--SEQ"
          prefixed: true
          description: Sequence number to ensure uniqueness of records within a dataset
            for a subject (or within a parameter, in the case of the Trial Summary
            domain). May be any valid number (including decimals) and does not have
            to start at 1.
          datatype:
            type: http://www.assero.co.uk/BusinessDomain#VariableType
            id: M-CDISC_SDTMMODEL_DT_NUM
            namespace: http://www.assero.co.uk/MDRSdtmM/CDISC/V3
            label: Num
            extension_properties: []
          classification:
            type: http://www.assero.co.uk/BusinessDomain#VariableClassification
            id: M-CDISC_SDTMMODEL_C_IDENTIFIER
            namespace: http://www.assero.co.uk/MDRSdtmM/CDISC/V3
            label: Identifier
            extension_properties: []
- type: http://www.assero.co.uk/BusinessDomain#IgVariable
  id: IG-CDISC_SDTMIGRS_RSSTAT
  namespace: http://www.assero.co.uk/MDRSdtmIgD/CDISC/V3
  label: Completion Status
  extension_properties: []
  ordinal: 15
  rule: ''
  name: RSSTAT
  notes: Used to indicate the response assessment was not performed. Should be Null
    if a result exists in RSORRES.
  controlled_term_or_format: "(ND)"
  compliance:
    type: http://www.assero.co.uk/BusinessDomain#VariableCompliance
    id: IG-CDISC_SDTMIGRS_C_PERMISSIBLE
    namespace: http://www.assero.co.uk/MDRSdtmIgD/CDISC/V3
    label: Permissible
    extension_properties: []
  variable_ref:
    type: http://www.assero.co.uk/BusinessOperational#CReference
    id: IG-CDISC_SDTMIGRS_RSSTAT_VR
    namespace: http://www.assero.co.uk/MDRSdtmIgD/CDISC/V3
    label: ''
    extension_properties: []
    enabled: true
    optional: false
    ordinal: 1
    local_label: ''
    subject_ref:
      namespace: http://www.assero.co.uk/MDRSdtmMd/CDISC/V3
      id: M-CDISC_SDTMMODEL_FINDINGS_xxSTAT
    subject_data:
      type: http://www.assero.co.uk/BusinessDomain#ClassVariable
      id: M-CDISC_SDTMMODEL_FINDINGS_xxSTAT
      namespace: http://www.assero.co.uk/MDRSdtmMd/CDISC/V3
      label: Completion Status
      extension_properties: []
      ordinal: 32
      rule: ''
      variable_ref:
        type: http://www.assero.co.uk/BusinessOperational#CReference
        id: M-CDISC_SDTMMODEL_FINDINGS_xxSTAT_CR
        namespace: http://www.assero.co.uk/MDRSdtmMd/CDISC/V3
        label: ''
        extension_properties: []
        enabled: true
        optional: false
        ordinal: 32
        local_label: ''
        subject_ref:
          namespace: http://www.assero.co.uk/MDRSdtmM/CDISC/V3
          id: M-CDISC_SDTMMODEL_xxSTAT
        subject_data:
          type: http://www.assero.co.uk/BusinessDomain#ModelVariable
          id: M-CDISC_SDTMMODEL_xxSTAT
          namespace: http://www.assero.co.uk/MDRSdtmM/CDISC/V3
          label: Completion Status
          extension_properties: []
          ordinal: 21
          rule: ''
          name: "--STAT"
          prefixed: true
          description: Used to indicate when a question about the occurrence of a
            pre-specified event was not answered. Should be null or have a value of
            NOT DONE.
          datatype:
            type: http://www.assero.co.uk/BusinessDomain#VariableType
            id: M-CDISC_SDTMMODEL_DT_CHAR
            namespace: http://www.assero.co.uk/MDRSdtmM/CDISC/V3
            label: Char
            extension_properties: []
          classification:
            type: http://www.assero.co.uk/BusinessDomain#VariableClassification
            id: M-CDISC_SDTMMODEL_C_QUALIFIER
            namespace: http://www.assero.co.uk/MDRSdtmM/CDISC/V3
            label: Qualifier
            extension_properties: []
          sub_classification:
            type: http://www.assero.co.uk/BusinessDomain#VariableClassification
            id: M-CDISC_SDTMMODEL_SC_RECORDQUALIFIER
            namespace: http://www.assero.co.uk/MDRSdtmM/CDISC/V3
            label: Record Qualifier
            extension_properties: []
- type: http://www.assero.co.uk/BusinessDomain#IgVariable
  id: IG-CDISC_SDTMIGRS_RSTESTCD
  namespace: http://www.assero.co.uk/MDRSdtmIgD/CDISC/V3
  label: Response Assessment Short Name
  extension_properties: []
  ordinal: 10
  rule: ''
  name: RSTESTCD
  notes: 'Short name of the TEST in RSTEST. RSTESTCD cannot contain characters other
    than letters, numbers, or underscores. Examples: TRGRESP, NTRGRESP, OVRRESP, BESTRESP,
    NRADPROG'
  controlled_term_or_format: "(RSTESTCD)"
  compliance:
    type: http://www.assero.co.uk/BusinessDomain#VariableCompliance
    id: IG-CDISC_SDTMIGRS_C_REQUIRED
    namespace: http://www.assero.co.uk/MDRSdtmIgD/CDISC/V3
    label: Required
    extension_properties: []
  variable_ref:
    type: http://www.assero.co.uk/BusinessOperational#CReference
    id: IG-CDISC_SDTMIGRS_RSTESTCD_VR
    namespace: http://www.assero.co.uk/MDRSdtmIgD/CDISC/V3
    label: ''
    extension_properties: []
    enabled: true
    optional: false
    ordinal: 1
    local_label: ''
    subject_ref:
      namespace: http://www.assero.co.uk/MDRSdtmMd/CDISC/V3
      id: M-CDISC_SDTMMODEL_FINDINGS_xxTESTCD
    subject_data:
      type: http://www.assero.co.uk/BusinessDomain#ClassVariable
      id: M-CDISC_SDTMMODEL_FINDINGS_xxTESTCD
      namespace: http://www.assero.co.uk/MDRSdtmMd/CDISC/V3
      label: Short Name of Measurement, Test or Examination
      extension_properties: []
      ordinal: 12
      rule: ''
      variable_ref:
        type: http://www.assero.co.uk/BusinessOperational#CReference
        id: M-CDISC_SDTMMODEL_FINDINGS_xxTESTCD_CR
        namespace: http://www.assero.co.uk/MDRSdtmMd/CDISC/V3
        label: ''
        extension_properties: []
        enabled: true
        optional: false
        ordinal: 12
        local_label: ''
        subject_ref:
          namespace: http://www.assero.co.uk/MDRSdtmM/CDISC/V3
          id: M-CDISC_SDTMMODEL_xxTESTCD
        subject_data:
          type: http://www.assero.co.uk/BusinessDomain#ModelVariable
          id: M-CDISC_SDTMMODEL_xxTESTCD
          namespace: http://www.assero.co.uk/MDRSdtmM/CDISC/V3
          label: Short Name of Measurement, Test or Examination
          extension_properties: []
          ordinal: 1
          rule: ''
          name: "--TESTCD"
          prefixed: true
          description: 'Short character value for --TEST used as a column name when
            converting a dataset from a vertical format to a horizontal format. The
            short value can be up to 8 characters. Examples: PLAT, SYSBP, RRMIN, EYEEXAM.'
          datatype:
            type: http://www.assero.co.uk/BusinessDomain#VariableType
            id: M-CDISC_SDTMMODEL_DT_CHAR
            namespace: http://www.assero.co.uk/MDRSdtmM/CDISC/V3
            label: Char
            extension_properties: []
          classification:
            type: http://www.assero.co.uk/BusinessDomain#VariableClassification
            id: M-CDISC_SDTMMODEL_C_TOPIC
            namespace: http://www.assero.co.uk/MDRSdtmM/CDISC/V3
            label: Topic
            extension_properties: []
- type: http://www.assero.co.uk/BusinessDomain#IgVariable
  id: IG-CDISC_SDTMIGRS_RSREASND
  namespace: http://www.assero.co.uk/MDRSdtmIgD/CDISC/V3
  label: Reason Response Assessment Not Performed
  extension_properties: []
  ordinal: 16
  rule: ''
  name: RSREASND
  notes: 'Describes why a response assessment was not performed. Examples: All target
    tumors not evaluated, Subject does not have non-target tumors. Used in conjunction
    with TRSTAT when value is NOT DONE.'
  controlled_term_or_format: ''
  compliance:
    type: http://www.assero.co.uk/BusinessDomain#VariableCompliance
    id: IG-CDISC_SDTMIGRS_C_PERMISSIBLE
    namespace: http://www.assero.co.uk/MDRSdtmIgD/CDISC/V3
    label: Permissible
    extension_properties: []
  variable_ref:
    type: http://www.assero.co.uk/BusinessOperational#CReference
    id: IG-CDISC_SDTMIGRS_RSREASND_VR
    namespace: http://www.assero.co.uk/MDRSdtmIgD/CDISC/V3
    label: ''
    extension_properties: []
    enabled: true
    optional: false
    ordinal: 1
    local_label: ''
    subject_ref:
      namespace: http://www.assero.co.uk/MDRSdtmMd/CDISC/V3
      id: M-CDISC_SDTMMODEL_FINDINGS_xxREASND
    subject_data:
      type: http://www.assero.co.uk/BusinessDomain#ClassVariable
      id: M-CDISC_SDTMMODEL_FINDINGS_xxREASND
      namespace: http://www.assero.co.uk/MDRSdtmMd/CDISC/V3
      label: Reason Not Done
      extension_properties: []
      ordinal: 33
      rule: ''
      variable_ref:
        type: http://www.assero.co.uk/BusinessOperational#CReference
        id: M-CDISC_SDTMMODEL_FINDINGS_xxREASND_CR
        namespace: http://www.assero.co.uk/MDRSdtmMd/CDISC/V3
        label: ''
        extension_properties: []
        enabled: true
        optional: false
        ordinal: 33
        local_label: ''
        subject_ref:
          namespace: http://www.assero.co.uk/MDRSdtmM/CDISC/V3
          id: M-CDISC_SDTMMODEL_xxREASND
        subject_data:
          type: http://www.assero.co.uk/BusinessDomain#ModelVariable
          id: M-CDISC_SDTMMODEL_xxREASND
          namespace: http://www.assero.co.uk/MDRSdtmM/CDISC/V3
          label: Reason Not Done
          extension_properties: []
          ordinal: 22
          rule: ''
          name: "--REASND"
          prefixed: true
          description: Reason not done. Used in conjunction with --STAT when its value
            is NOT DONE.
          datatype:
            type: http://www.assero.co.uk/BusinessDomain#VariableType
            id: M-CDISC_SDTMMODEL_DT_CHAR
            namespace: http://www.assero.co.uk/MDRSdtmM/CDISC/V3
            label: Char
            extension_properties: []
          classification:
            type: http://www.assero.co.uk/BusinessDomain#VariableClassification
            id: M-CDISC_SDTMMODEL_C_QUALIFIER
            namespace: http://www.assero.co.uk/MDRSdtmM/CDISC/V3
            label: Qualifier
            extension_properties: []
          sub_classification:
            type: http://www.assero.co.uk/BusinessDomain#VariableClassification
            id: M-CDISC_SDTMMODEL_SC_RECORDQUALIFIER
            namespace: http://www.assero.co.uk/MDRSdtmM/CDISC/V3
            label: Record Qualifier
            extension_properties: []
- type: http://www.assero.co.uk/BusinessDomain#IgVariable
  id: IG-CDISC_SDTMIGRS_RSCAT
  namespace: http://www.assero.co.uk/MDRSdtmIgD/CDISC/V3
  label: Category for Response Assessment
  extension_properties: []
  ordinal: 12
  rule: ''
  name: RSCAT
  notes: RSCAT is used to identify the criteria used in the assessment of response
    and a version number if appropriate
  controlled_term_or_format: ''
  compliance:
    type: http://www.assero.co.uk/BusinessDomain#VariableCompliance
    id: IG-CDISC_SDTMIGRS_C_EXPECTED
    namespace: http://www.assero.co.uk/MDRSdtmIgD/CDISC/V3
    label: Expected
    extension_properties: []
  variable_ref:
    type: http://www.assero.co.uk/BusinessOperational#CReference
    id: IG-CDISC_SDTMIGRS_RSCAT_VR
    namespace: http://www.assero.co.uk/MDRSdtmIgD/CDISC/V3
    label: ''
    extension_properties: []
    enabled: true
    optional: false
    ordinal: 1
    local_label: ''
    subject_ref:
      namespace: http://www.assero.co.uk/MDRSdtmMd/CDISC/V3
      id: M-CDISC_SDTMMODEL_FINDINGS_xxCAT
    subject_data:
      type: http://www.assero.co.uk/BusinessDomain#ClassVariable
      id: M-CDISC_SDTMMODEL_FINDINGS_xxCAT
      namespace: http://www.assero.co.uk/MDRSdtmMd/CDISC/V3
      label: Category
      extension_properties: []
      ordinal: 16
      rule: ''
      variable_ref:
        type: http://www.assero.co.uk/BusinessOperational#CReference
        id: M-CDISC_SDTMMODEL_FINDINGS_xxCAT_CR
        namespace: http://www.assero.co.uk/MDRSdtmMd/CDISC/V3
        label: ''
        extension_properties: []
        enabled: true
        optional: false
        ordinal: 16
        local_label: ''
        subject_ref:
          namespace: http://www.assero.co.uk/MDRSdtmM/CDISC/V3
          id: M-CDISC_SDTMMODEL_xxCAT
        subject_data:
          type: http://www.assero.co.uk/BusinessDomain#ModelVariable
          id: M-CDISC_SDTMMODEL_xxCAT
          namespace: http://www.assero.co.uk/MDRSdtmM/CDISC/V3
          label: Category
          extension_properties: []
          ordinal: 11
          rule: ''
          name: "--CAT"
          prefixed: true
          description: 'Used to define a category of topic-variable values. Examples:
            HEMATOLOGY, URINALYSIS, CHEMISTRY, HAMILTON DEPRESSION SCALE, SF36, MICRO
            ARRAY, EGFR MUTATION ANALYSIS'
          datatype:
            type: http://www.assero.co.uk/BusinessDomain#VariableType
            id: M-CDISC_SDTMMODEL_DT_CHAR
            namespace: http://www.assero.co.uk/MDRSdtmM/CDISC/V3
            label: Char
            extension_properties: []
          classification:
            type: http://www.assero.co.uk/BusinessDomain#VariableClassification
            id: M-CDISC_SDTMMODEL_C_QUALIFIER
            namespace: http://www.assero.co.uk/MDRSdtmM/CDISC/V3
            label: Qualifier
            extension_properties: []
          sub_classification:
            type: http://www.assero.co.uk/BusinessDomain#VariableClassification
            id: M-CDISC_SDTMMODEL_SC_GROUPINGQUALIFIER
            namespace: http://www.assero.co.uk/MDRSdtmM/CDISC/V3
            label: Grouping Qualifier
            extension_properties: []
- type: http://www.assero.co.uk/BusinessDomain#IgVariable
  id: IG-CDISC_SDTMIGRS_RSEVALID
  namespace: http://www.assero.co.uk/MDRSdtmIgD/CDISC/V3
  label: Evaluator Identifier
  extension_properties: []
  ordinal: 19
  rule: ''
  name: RSEVALID
  notes: 'The Evaluator Specified variable is used in conjunction with RSEVAL to provide
    an additional level of detail. When multiple assessors play the role identified
    in RSEVAL, values of RSEVALID will attribute a row of data to a particular assessor.
    RSEVALID should not contain the names of the assessors, or a code identifier for
    a specific assessor. The RSEVALID variable is subject to CDISC Controlled Terminology.
    Examples: RADIOLOGIST, RADIOLOGIST 1 or RADIOLOGIST 2. See Assumption 4'
  controlled_term_or_format: "(MEDEVAL)"
  compliance:
    type: http://www.assero.co.uk/BusinessDomain#VariableCompliance
    id: IG-CDISC_SDTMIGRS_C_PERMISSIBLE
    namespace: http://www.assero.co.uk/MDRSdtmIgD/CDISC/V3
    label: Permissible
    extension_properties: []
  variable_ref:
    type: http://www.assero.co.uk/BusinessOperational#CReference
    id: IG-CDISC_SDTMIGRS_RSEVALID_VR
    namespace: http://www.assero.co.uk/MDRSdtmIgD/CDISC/V3
    label: ''
    extension_properties: []
    enabled: true
    optional: false
    ordinal: 1
    local_label: ''
    subject_ref:
      namespace: http://www.assero.co.uk/MDRSdtmMd/CDISC/V3
      id: M-CDISC_SDTMMODEL_FINDINGS_xxEVALID
    subject_data:
      type: http://www.assero.co.uk/BusinessDomain#ClassVariable
      id: M-CDISC_SDTMMODEL_FINDINGS_xxEVALID
      namespace: http://www.assero.co.uk/MDRSdtmMd/CDISC/V3
      label: Evaluator Identifier
      extension_properties: []
      ordinal: 54
      rule: ''
      variable_ref:
        type: http://www.assero.co.uk/BusinessOperational#CReference
        id: M-CDISC_SDTMMODEL_FINDINGS_xxEVALID_CR
        namespace: http://www.assero.co.uk/MDRSdtmMd/CDISC/V3
        label: ''
        extension_properties: []
        enabled: true
        optional: false
        ordinal: 54
        local_label: ''
        subject_ref:
          namespace: http://www.assero.co.uk/MDRSdtmM/CDISC/V3
          id: M-CDISC_SDTMMODEL_xxEVALID
        subject_data:
          type: http://www.assero.co.uk/BusinessDomain#ModelVariable
          id: M-CDISC_SDTMMODEL_xxEVALID
          namespace: http://www.assero.co.uk/MDRSdtmM/CDISC/V3
          label: Evaluator Identifier
          extension_properties: []
          ordinal: 43
          rule: ''
          name: "--EVALID"
          prefixed: true
          description: 'Used to distinguish multiple evaluators with the same role
            recorded in --EVAL. Examples: RADIOLOGIST1 or RADIOLOGIST2'
          datatype:
            type: http://www.assero.co.uk/BusinessDomain#VariableType
            id: M-CDISC_SDTMMODEL_DT_CHAR
            namespace: http://www.assero.co.uk/MDRSdtmM/CDISC/V3
            label: Char
            extension_properties: []
          classification:
            type: http://www.assero.co.uk/BusinessDomain#VariableClassification
            id: M-CDISC_SDTMMODEL_C_QUALIFIER
            namespace: http://www.assero.co.uk/MDRSdtmM/CDISC/V3
            label: Qualifier
            extension_properties: []
          sub_classification:
            type: http://www.assero.co.uk/BusinessDomain#VariableClassification
            id: M-CDISC_SDTMMODEL_SC_VARIABLEQUALIFIER
            namespace: http://www.assero.co.uk/MDRSdtmM/CDISC/V3
            label: Variable Qualifier
            extension_properties: []
- type: http://www.assero.co.uk/BusinessDomain#IgVariable
  id: IG-CDISC_SDTMIGRS_RSEVAL
  namespace: http://www.assero.co.uk/MDRSdtmIgD/CDISC/V3
  label: Evaluator
  extension_properties: []
  ordinal: 18
  rule: ''
  name: RSEVAL
  notes: |-
    Role of the person who provided the evaluation. Examples: INVESTIGATOR, INDEPENDENT ASSESSOR.
    This column can be left Null when the Investigator provides the complete set of data in the domain. However the column should contain no Null values when data from one or more independent assessors is included meaning that the rows attributed to the Investigator should contain a value of INVESTIGATOR.
  controlled_term_or_format: "(EVAL)"
  compliance:
    type: http://www.assero.co.uk/BusinessDomain#VariableCompliance
    id: IG-CDISC_SDTMIGRS_C_EXPECTED
    namespace: http://www.assero.co.uk/MDRSdtmIgD/CDISC/V3
    label: Expected
    extension_properties: []
  variable_ref:
    type: http://www.assero.co.uk/BusinessOperational#CReference
    id: IG-CDISC_SDTMIGRS_RSEVAL_VR
    namespace: http://www.assero.co.uk/MDRSdtmIgD/CDISC/V3
    label: ''
    extension_properties: []
    enabled: true
    optional: false
    ordinal: 1
    local_label: ''
    subject_ref:
      namespace: http://www.assero.co.uk/MDRSdtmMd/CDISC/V3
      id: M-CDISC_SDTMMODEL_FINDINGS_xxEVAL
    subject_data:
      type: http://www.assero.co.uk/BusinessDomain#ClassVariable
      id: M-CDISC_SDTMMODEL_FINDINGS_xxEVAL
      namespace: http://www.assero.co.uk/MDRSdtmMd/CDISC/V3
      label: Evaluator
      extension_properties: []
      ordinal: 53
      rule: ''
      variable_ref:
        type: http://www.assero.co.uk/BusinessOperational#CReference
        id: M-CDISC_SDTMMODEL_FINDINGS_xxEVAL_CR
        namespace: http://www.assero.co.uk/MDRSdtmMd/CDISC/V3
        label: ''
        extension_properties: []
        enabled: true
        optional: false
        ordinal: 53
        local_label: ''
        subject_ref:
          namespace: http://www.assero.co.uk/MDRSdtmM/CDISC/V3
          id: M-CDISC_SDTMMODEL_xxEVAL
        subject_data:
          type: http://www.assero.co.uk/BusinessDomain#ModelVariable
          id: M-CDISC_SDTMMODEL_xxEVAL
          namespace: http://www.assero.co.uk/MDRSdtmM/CDISC/V3
          label: Evaluator
          extension_properties: []
          ordinal: 42
          rule: ''
          name: "--EVAL"
          prefixed: true
          description: 'Role of the person who provided the evaluation. Used only
            for results that are subjective (e.g., assigned by a person or a group).
            Examples: ADJUDICATION COMMITTEE, INDEPENDENT ASSESSOR, RADIOLOGIST.'
          datatype:
            type: http://www.assero.co.uk/BusinessDomain#VariableType
            id: M-CDISC_SDTMMODEL_DT_CHAR
            namespace: http://www.assero.co.uk/MDRSdtmM/CDISC/V3
            label: Char
            extension_properties: []
          classification:
            type: http://www.assero.co.uk/BusinessDomain#VariableClassification
            id: M-CDISC_SDTMMODEL_C_QUALIFIER
            namespace: http://www.assero.co.uk/MDRSdtmM/CDISC/V3
            label: Qualifier
            extension_properties: []
          sub_classification:
            type: http://www.assero.co.uk/BusinessDomain#VariableClassification
            id: M-CDISC_SDTMMODEL_SC_RECORDQUALIFIER
            namespace: http://www.assero.co.uk/MDRSdtmM/CDISC/V3
            label: Record Qualifier
            extension_properties: []
- type: http://www.assero.co.uk/BusinessDomain#IgVariable
  id: IG-CDISC_SDTMIGRS_RSSPID
  namespace: http://www.assero.co.uk/MDRSdtmIgD/CDISC/V3
  label: Sponsor-Defined Identifier
  extension_properties: []
  ordinal: 7
  rule: ''
  name: RSSPID
  notes: Sponsor-defined identifier.
  controlled_term_or_format: ''
  compliance:
    type: http://www.assero.co.uk/BusinessDomain#VariableCompliance
    id: IG-CDISC_SDTMIGRS_C_PERMISSIBLE
    namespace: http://www.assero.co.uk/MDRSdtmIgD/CDISC/V3
    label: Permissible
    extension_properties: []
  variable_ref:
    type: http://www.assero.co.uk/BusinessOperational#CReference
    id: IG-CDISC_SDTMIGRS_RSSPID_VR
    namespace: http://www.assero.co.uk/MDRSdtmIgD/CDISC/V3
    label: ''
    extension_properties: []
    enabled: true
    optional: false
    ordinal: 1
    local_label: ''
    subject_ref:
      namespace: http://www.assero.co.uk/MDRSdtmMd/CDISC/V3
      id: M-CDISC_SDTMMODEL_FINDINGS_xxSPID
    subject_data:
      type: http://www.assero.co.uk/BusinessDomain#ClassVariable
      id: M-CDISC_SDTMMODEL_FINDINGS_xxSPID
      namespace: http://www.assero.co.uk/MDRSdtmMd/CDISC/V3
      label: Sponsor-Defined Identifier
      extension_properties: []
      ordinal: 9
      rule: ''
      variable_ref:
        type: http://www.assero.co.uk/BusinessOperational#CReference
        id: M-CDISC_SDTMMODEL_FINDINGS_xxSPID_CR
        namespace: http://www.assero.co.uk/MDRSdtmMd/CDISC/V3
        label: ''
        extension_properties: []
        enabled: true
        optional: false
        ordinal: 9
        local_label: ''
        subject_ref:
          namespace: http://www.assero.co.uk/MDRSdtmM/CDISC/V3
          id: M-CDISC_SDTMMODEL_xxSPID
        subject_data:
          type: http://www.assero.co.uk/BusinessDomain#ModelVariable
          id: M-CDISC_SDTMMODEL_xxSPID
          namespace: http://www.assero.co.uk/MDRSdtmM/CDISC/V3
          label: Sponsor-Defined Identifier
          extension_properties: []
          ordinal: 9
          rule: ''
          name: "--SPID"
          prefixed: true
          description: 'Sponsor-defined identifier. Example: pre-printed line identifier
            on a Concomitant Medications page.'
          datatype:
            type: http://www.assero.co.uk/BusinessDomain#VariableType
            id: M-CDISC_SDTMMODEL_DT_CHAR
            namespace: http://www.assero.co.uk/MDRSdtmM/CDISC/V3
            label: Char
            extension_properties: []
          classification:
            type: http://www.assero.co.uk/BusinessDomain#VariableClassification
            id: M-CDISC_SDTMMODEL_C_IDENTIFIER
            namespace: http://www.assero.co.uk/MDRSdtmM/CDISC/V3
            label: Identifier
            extension_properties: []
- type: http://www.assero.co.uk/BusinessDomain#IgVariable
  id: IG-CDISC_SDTMIGRS_DOMAIN
  namespace: http://www.assero.co.uk/MDRSdtmIgD/CDISC/V3
  label: Domain Abbreviation
  extension_properties: []
  ordinal: 2
  rule: ''
  name: DOMAIN
  notes: Two-character abbreviation for the domain.
  controlled_term_or_format: "(DOMAIN)"
  compliance:
    type: http://www.assero.co.uk/BusinessDomain#VariableCompliance
    id: IG-CDISC_SDTMIGRS_C_REQUIRED
    namespace: http://www.assero.co.uk/MDRSdtmIgD/CDISC/V3
    label: Required
    extension_properties: []
  variable_ref:
    type: http://www.assero.co.uk/BusinessOperational#CReference
    id: IG-CDISC_SDTMIGRS_DOMAIN_VR
    namespace: http://www.assero.co.uk/MDRSdtmIgD/CDISC/V3
    label: ''
    extension_properties: []
    enabled: true
    optional: false
    ordinal: 1
    local_label: ''
    subject_ref:
      namespace: http://www.assero.co.uk/MDRSdtmMd/CDISC/V3
      id: M-CDISC_SDTMMODEL_FINDINGS_DOMAIN
    subject_data:
      type: http://www.assero.co.uk/BusinessDomain#ClassVariable
      id: M-CDISC_SDTMMODEL_FINDINGS_DOMAIN
      namespace: http://www.assero.co.uk/MDRSdtmMd/CDISC/V3
      label: Domain Abbreviation
      extension_properties: []
      ordinal: 2
      rule: ''
      variable_ref:
        type: http://www.assero.co.uk/BusinessOperational#CReference
        id: M-CDISC_SDTMMODEL_FINDINGS_DOMAIN_CR
        namespace: http://www.assero.co.uk/MDRSdtmMd/CDISC/V3
        label: ''
        extension_properties: []
        enabled: true
        optional: false
        ordinal: 2
        local_label: ''
        subject_ref:
          namespace: http://www.assero.co.uk/MDRSdtmM/CDISC/V3
          id: M-CDISC_SDTMMODEL_DOMAIN
        subject_data:
          type: http://www.assero.co.uk/BusinessDomain#ModelVariable
          id: M-CDISC_SDTMMODEL_DOMAIN
          namespace: http://www.assero.co.uk/MDRSdtmM/CDISC/V3
          label: Domain Abbreviation
          extension_properties: []
          ordinal: 2
          rule: ''
          name: DOMAIN
          prefixed: false
          description: Two-character abbreviation for the domain most relevant to
            the observation. The Domain abbreviation is also used as a prefix for
            variables to ensure uniqueness when datasets are merged.
          datatype:
            type: http://www.assero.co.uk/BusinessDomain#VariableType
            id: M-CDISC_SDTMMODEL_DT_CHAR
            namespace: http://www.assero.co.uk/MDRSdtmM/CDISC/V3
            label: Char
            extension_properties: []
          classification:
            type: http://www.assero.co.uk/BusinessDomain#VariableClassification
            id: M-CDISC_SDTMMODEL_C_IDENTIFIER
            namespace: http://www.assero.co.uk/MDRSdtmM/CDISC/V3
            label: Identifier
            extension_properties: []
- type: http://www.assero.co.uk/BusinessDomain#IgVariable
  id: IG-CDISC_SDTMIGRS_STUDYID
  namespace: http://www.assero.co.uk/MDRSdtmIgD/CDISC/V3
  label: Study Identifier
  extension_properties: []
  ordinal: 1
  rule: ''
  name: STUDYID
  notes: Unique identifier for a study.
  controlled_term_or_format: ''
  compliance:
    type: http://www.assero.co.uk/BusinessDomain#VariableCompliance
    id: IG-CDISC_SDTMIGRS_C_REQUIRED
    namespace: http://www.assero.co.uk/MDRSdtmIgD/CDISC/V3
    label: Required
    extension_properties: []
  variable_ref:
    type: http://www.assero.co.uk/BusinessOperational#CReference
    id: IG-CDISC_SDTMIGRS_STUDYID_VR
    namespace: http://www.assero.co.uk/MDRSdtmIgD/CDISC/V3
    label: ''
    extension_properties: []
    enabled: true
    optional: false
    ordinal: 1
    local_label: ''
    subject_ref:
      namespace: http://www.assero.co.uk/MDRSdtmMd/CDISC/V3
      id: M-CDISC_SDTMMODEL_FINDINGS_STUDYID
    subject_data:
      type: http://www.assero.co.uk/BusinessDomain#ClassVariable
      id: M-CDISC_SDTMMODEL_FINDINGS_STUDYID
      namespace: http://www.assero.co.uk/MDRSdtmMd/CDISC/V3
      label: Study Identifier
      extension_properties: []
      ordinal: 1
      rule: ''
      variable_ref:
        type: http://www.assero.co.uk/BusinessOperational#CReference
        id: M-CDISC_SDTMMODEL_FINDINGS_STUDYID_CR
        namespace: http://www.assero.co.uk/MDRSdtmMd/CDISC/V3
        label: ''
        extension_properties: []
        enabled: true
        optional: false
        ordinal: 1
        local_label: ''
        subject_ref:
          namespace: http://www.assero.co.uk/MDRSdtmM/CDISC/V3
          id: M-CDISC_SDTMMODEL_STUDYID
        subject_data:
          type: http://www.assero.co.uk/BusinessDomain#ModelVariable
          id: M-CDISC_SDTMMODEL_STUDYID
          namespace: http://www.assero.co.uk/MDRSdtmM/CDISC/V3
          label: Study Identifier
          extension_properties: []
          ordinal: 1
          rule: ''
          name: STUDYID
          prefixed: false
          description: Unique identifier for a study.
          datatype:
            type: http://www.assero.co.uk/BusinessDomain#VariableType
            id: M-CDISC_SDTMMODEL_DT_CHAR
            namespace: http://www.assero.co.uk/MDRSdtmM/CDISC/V3
            label: Char
            extension_properties: []
          classification:
            type: http://www.assero.co.uk/BusinessDomain#VariableClassification
            id: M-CDISC_SDTMMODEL_C_IDENTIFIER
            namespace: http://www.assero.co.uk/MDRSdtmM/CDISC/V3
            label: Identifier
            extension_properties: []
- type: http://www.assero.co.uk/BusinessDomain#IgVariable
  id: IG-CDISC_SDTMIGRS_RSGRPID
  namespace: http://www.assero.co.uk/MDRSdtmIgD/CDISC/V3
  label: Group ID
  extension_properties: []
  ordinal: 5
  rule: ''
  name: RSGRPID
  notes: Used to link together a block of related records within a subject in a domain.
  controlled_term_or_format: ''
  compliance:
    type: http://www.assero.co.uk/BusinessDomain#VariableCompliance
    id: IG-CDISC_SDTMIGRS_C_PERMISSIBLE
    namespace: http://www.assero.co.uk/MDRSdtmIgD/CDISC/V3
    label: Permissible
    extension_properties: []
  variable_ref:
    type: http://www.assero.co.uk/BusinessOperational#CReference
    id: IG-CDISC_SDTMIGRS_RSGRPID_VR
    namespace: http://www.assero.co.uk/MDRSdtmIgD/CDISC/V3
    label: ''
    extension_properties: []
    enabled: true
    optional: false
    ordinal: 1
    local_label: ''
    subject_ref:
      namespace: http://www.assero.co.uk/MDRSdtmMd/CDISC/V3
      id: M-CDISC_SDTMMODEL_FINDINGS_xxGRPID
    subject_data:
      type: http://www.assero.co.uk/BusinessDomain#ClassVariable
      id: M-CDISC_SDTMMODEL_FINDINGS_xxGRPID
      namespace: http://www.assero.co.uk/MDRSdtmMd/CDISC/V3
      label: Group ID
      extension_properties: []
      ordinal: 7
      rule: ''
      variable_ref:
        type: http://www.assero.co.uk/BusinessOperational#CReference
        id: M-CDISC_SDTMMODEL_FINDINGS_xxGRPID_CR
        namespace: http://www.assero.co.uk/MDRSdtmMd/CDISC/V3
        label: ''
        extension_properties: []
        enabled: true
        optional: false
        ordinal: 7
        local_label: ''
        subject_ref:
          namespace: http://www.assero.co.uk/MDRSdtmM/CDISC/V3
          id: M-CDISC_SDTMMODEL_xxGRPID
        subject_data:
          type: http://www.assero.co.uk/BusinessDomain#ModelVariable
          id: M-CDISC_SDTMMODEL_xxGRPID
          namespace: http://www.assero.co.uk/MDRSdtmM/CDISC/V3
          label: Group ID
          extension_properties: []
          ordinal: 7
          rule: ''
          name: "--GRPID"
          prefixed: true
          description: Optional group identifier, used to link together a block of
            related records within a subject in a domain. Also used to link together
            a block of related records in the Trial Summary dataset (Section 3.4).
          datatype:
            type: http://www.assero.co.uk/BusinessDomain#VariableType
            id: M-CDISC_SDTMMODEL_DT_CHAR
            namespace: http://www.assero.co.uk/MDRSdtmM/CDISC/V3
            label: Char
            extension_properties: []
          classification:
            type: http://www.assero.co.uk/BusinessDomain#VariableClassification
            id: M-CDISC_SDTMMODEL_C_IDENTIFIER
            namespace: http://www.assero.co.uk/MDRSdtmM/CDISC/V3
            label: Identifier
            extension_properties: []
- type: http://www.assero.co.uk/BusinessDomain#IgVariable
  id: IG-CDISC_SDTMIGRS_VISITDY
  namespace: http://www.assero.co.uk/MDRSdtmIgD/CDISC/V3
  label: Planned Study Day of Visit
  extension_properties: []
  ordinal: 23
  rule: ''
  name: VISITDY
  notes: ''
  controlled_term_or_format: ''
  compliance:
    type: http://www.assero.co.uk/BusinessDomain#VariableCompliance
    id: IG-CDISC_SDTMIGRS_C_PERMISSIBLE
    namespace: http://www.assero.co.uk/MDRSdtmIgD/CDISC/V3
    label: Permissible
    extension_properties: []
  variable_ref:
    type: http://www.assero.co.uk/BusinessOperational#CReference
    id: IG-CDISC_SDTMIGRS_VISITDY_VR
    namespace: http://www.assero.co.uk/MDRSdtmIgD/CDISC/V3
    label: ''
    extension_properties: []
    enabled: true
    optional: false
    ordinal: 1
    local_label: ''
    subject_ref:
      namespace: http://www.assero.co.uk/MDRSdtmMd/CDISC/V3
      id: M-CDISC_SDTMMODEL_FINDINGS_VISITDY
    subject_data:
      type: http://www.assero.co.uk/BusinessDomain#ClassVariable
      id: M-CDISC_SDTMMODEL_FINDINGS_VISITDY
      namespace: http://www.assero.co.uk/MDRSdtmMd/CDISC/V3
      label: Planned Study Day of Visit
      extension_properties: []
      ordinal: 66
      rule: ''
      variable_ref:
        type: http://www.assero.co.uk/BusinessOperational#CReference
        id: M-CDISC_SDTMMODEL_FINDINGS_VISITDY_CR
        namespace: http://www.assero.co.uk/MDRSdtmMd/CDISC/V3
        label: ''
        extension_properties: []
        enabled: true
        optional: false
        ordinal: 66
        local_label: ''
        subject_ref:
          namespace: http://www.assero.co.uk/MDRSdtmM/CDISC/V3
          id: M-CDISC_SDTMMODEL_VISITDY
        subject_data:
          type: http://www.assero.co.uk/BusinessDomain#ModelVariable
          id: M-CDISC_SDTMMODEL_VISITDY
          namespace: http://www.assero.co.uk/MDRSdtmM/CDISC/V3
          label: Planned Study Day of Visit
          extension_properties: []
          ordinal: 14
          rule: ''
          name: VISITDY
          prefixed: false
          description: Planned study day of VISIT. Should be an integer.
          datatype:
            type: http://www.assero.co.uk/BusinessDomain#VariableType
            id: M-CDISC_SDTMMODEL_DT_NUM
            namespace: http://www.assero.co.uk/MDRSdtmM/CDISC/V3
            label: Num
            extension_properties: []
          classification:
            type: http://www.assero.co.uk/BusinessDomain#VariableClassification
            id: M-CDISC_SDTMMODEL_C_TIMING
            namespace: http://www.assero.co.uk/MDRSdtmM/CDISC/V3
            label: Timing
            extension_properties: []
- type: http://www.assero.co.uk/BusinessDomain#IgVariable
  id: IG-CDISC_SDTMIGRS_RSTEST
  namespace: http://www.assero.co.uk/MDRSdtmIgD/CDISC/V3
  label: Response Assessment Name
  extension_properties: []
  ordinal: 11
  rule: ''
  name: RSTEST
  notes: 'Verbatim name of the response assessment. The value in RSTEST cannot be
    longer than 40 characters. Examples: Target Response, Non-target Response, Overall
    Response, Best Overall Response, Non-radiological progression (i.e. Symptomatic
    deterioration)'
  controlled_term_or_format: "(RSTEST)"
  compliance:
    type: http://www.assero.co.uk/BusinessDomain#VariableCompliance
    id: IG-CDISC_SDTMIGRS_C_REQUIRED
    namespace: http://www.assero.co.uk/MDRSdtmIgD/CDISC/V3
    label: Required
    extension_properties: []
  variable_ref:
    type: http://www.assero.co.uk/BusinessOperational#CReference
    id: IG-CDISC_SDTMIGRS_RSTEST_VR
    namespace: http://www.assero.co.uk/MDRSdtmIgD/CDISC/V3
    label: ''
    extension_properties: []
    enabled: true
    optional: false
    ordinal: 1
    local_label: ''
    subject_ref:
      namespace: http://www.assero.co.uk/MDRSdtmMd/CDISC/V3
      id: M-CDISC_SDTMMODEL_FINDINGS_xxTEST
    subject_data:
      type: http://www.assero.co.uk/BusinessDomain#ClassVariable
      id: M-CDISC_SDTMMODEL_FINDINGS_xxTEST
      namespace: http://www.assero.co.uk/MDRSdtmMd/CDISC/V3
      label: Name of Measurement, Test or Examination
      extension_properties: []
      ordinal: 13
      rule: ''
      variable_ref:
        type: http://www.assero.co.uk/BusinessOperational#CReference
        id: M-CDISC_SDTMMODEL_FINDINGS_xxTEST_CR
        namespace: http://www.assero.co.uk/MDRSdtmMd/CDISC/V3
        label: ''
        extension_properties: []
        enabled: true
        optional: false
        ordinal: 13
        local_label: ''
        subject_ref:
          namespace: http://www.assero.co.uk/MDRSdtmM/CDISC/V3
          id: M-CDISC_SDTMMODEL_xxTEST
        subject_data:
          type: http://www.assero.co.uk/BusinessDomain#ModelVariable
          id: M-CDISC_SDTMMODEL_xxTEST
          namespace: http://www.assero.co.uk/MDRSdtmM/CDISC/V3
          label: Name of Measurement, Test or Examination
          extension_properties: []
          ordinal: 2
          rule: ''
          name: "--TEST"
          prefixed: true
          description: 'Long name For --TESTCD. Examples: Platelet, Systolic Blood
            Pressure, Summary (Min) RR Duration, Eye Examination.'
          datatype:
            type: http://www.assero.co.uk/BusinessDomain#VariableType
            id: M-CDISC_SDTMMODEL_DT_CHAR
            namespace: http://www.assero.co.uk/MDRSdtmM/CDISC/V3
            label: Char
            extension_properties: []
          classification:
            type: http://www.assero.co.uk/BusinessDomain#VariableClassification
            id: M-CDISC_SDTMMODEL_C_QUALIFIER
            namespace: http://www.assero.co.uk/MDRSdtmM/CDISC/V3
            label: Qualifier
            extension_properties: []
          sub_classification:
            type: http://www.assero.co.uk/BusinessDomain#VariableClassification
            id: M-CDISC_SDTMMODEL_SC_SYNONYMQUALIFIER
            namespace: http://www.assero.co.uk/MDRSdtmM/CDISC/V3
            label: Synonym Qualifier
            extension_properties: []
