---
:created:
- :identifier: :C156673
  :label: Covi Anxiety Scale Clinical Classification Test Code
  :notation: COVI01TC
  :id: aHR0cDovL3d3dy5jZGlzYy5vcmcvQzE1NjY3My9WNTgjQzE1NjY3Mw==
  :last_id: aHR0cDovL3d3dy5jZGlzYy5vcmcvQzE1NjY3My9WNTgjQzE1NjY3Mw==
- :identifier: :C156672
  :label: Covi Anxiety Scale Clinical Classification Test Name
  :notation: COVI01TN
  :id: aHR0cDovL3d3dy5jZGlzYy5vcmcvQzE1NjY3Mi9WNTgjQzE1NjY3Mg==
  :last_id: aHR0cDovL3d3dy5jZGlzYy5vcmcvQzE1NjY3Mi9WNTgjQzE1NjY3Mg==
- :identifier: :C158115
  :label: Geriatric Depression Scale Short Form Questionnaire Parameter Name
  :notation: GDS02PN
  :id: aHR0cDovL3d3dy5jZGlzYy5vcmcvQzE1ODExNS9WNTkjQzE1ODExNQ==
  :last_id: ''
- :identifier: :C158117
  :label: Challenge Agent Parameter Long Name
  :notation: ACPARM
  :id: aHR0cDovL3d3dy5jZGlzYy5vcmcvQzE1ODExNy9WNTkjQzE1ODExNw==
  :last_id: ''
- :identifier: :C158113
  :label: QRS Method
  :notation: QRSMTHOD
  :id: aHR0cDovL3d3dy5jZGlzYy5vcmcvQzE1ODExMy9WNTkjQzE1ODExMw==
  :last_id: ''
- :identifier: :C157726
  :label: Patient Health Questionnaire - 2 Item Questionnaire Test Name
  :notation: PHQ04TN
  :id: aHR0cDovL3d3dy5jZGlzYy5vcmcvQzE1NzcyNi9WNTkjQzE1NzcyNg==
  :last_id: ''
- :identifier: :C158119
  :label: Biological Challenge Agent Category Response
  :notation: BACAT
  :id: aHR0cDovL3d3dy5jZGlzYy5vcmcvQzE1ODExOS9WNTkjQzE1ODExOQ==
  :last_id: ''
- :identifier: :C158114
  :label: Geriatric Depression Scale Short Form Questionnaire Parameter Code
  :notation: GDS02PC
  :id: aHR0cDovL3d3dy5jZGlzYy5vcmcvQzE1ODExNC9WNTkjQzE1ODExNA==
  :last_id: ''
- :identifier: :C158116
  :label: Challenge Agent Parameter Code
  :notation: ACPARMCD
  :id: aHR0cDovL3d3dy5jZGlzYy5vcmcvQzE1ODExNi9WNTkjQzE1ODExNg==
  :last_id: ''
- :identifier: :C157727
  :label: Patient Health Questionnaire - 2 Item Questionnaire Test Code
  :notation: PHQ04TC
  :id: aHR0cDovL3d3dy5jZGlzYy5vcmcvQzE1NzcyNy9WNTkjQzE1NzcyNw==
  :last_id: ''
- :identifier: :C158118
  :label: Age Estimation Method Response
  :notation: AGESMETH
  :id: aHR0cDovL3d3dy5jZGlzYy5vcmcvQzE1ODExOC9WNTkjQzE1ODExOA==
  :last_id: ''
- :identifier: :C158120
  :label: Challenge Agent Category Response
  :notation: CAGTCAT
  :id: aHR0cDovL3d3dy5jZGlzYy5vcmcvQzE1ODEyMC9WNTkjQzE1ODEyMA==
  :last_id: ''
- :identifier: :C158123
  :label: Restraint Mode Response
  :notation: RSTMODRS
  :id: aHR0cDovL3d3dy5jZGlzYy5vcmcvQzE1ODEyMy9WNTkjQzE1ODEyMw==
  :last_id: ''
- :identifier: :C158121
  :label: Rad/Nuc Agent Ionizing Radiation Type Response
  :notation: RNAIOTYP
  :id: aHR0cDovL3d3dy5jZGlzYy5vcmcvQzE1ODEyMS9WNTkjQzE1ODEyMQ==
  :last_id: ''
- :identifier: :C158124
  :label: Sexual Maturity Status Response
  :notation: SEXMAT
  :id: aHR0cDovL3d3dy5jZGlzYy5vcmcvQzE1ODEyNC9WNTkjQzE1ODEyNA==
  :last_id: ''
- :identifier: :C158125
  :label: Study Report Status Response
  :notation: STRPSTAT
  :id: aHR0cDovL3d3dy5jZGlzYy5vcmcvQzE1ODEyNS9WNTkjQzE1ODEyNQ==
  :last_id: ''
- :identifier: :C158122
  :label: Rad/Nuc Agent Source Response
  :notation: RNASRC
  :id: aHR0cDovL3d3dy5jZGlzYy5vcmcvQzE1ODEyMi9WNTkjQzE1ODEyMg==
  :last_id: ''
- :identifier: :C161624
  :label: Brief Psychiatric Rating Scale 1988 Version Clinical Classification Test
    Name
  :notation: BPR02TN
  :id: aHR0cDovL3d3dy5jZGlzYy5vcmcvQzE2MTYyNC9WNjAjQzE2MTYyNA==
  :last_id: ''
- :identifier: :C161622
  :label: Alert Verbal Painful Unresponsive Scale Clinical Classification Test Name
  :notation: AVPU01TN
  :id: aHR0cDovL3d3dy5jZGlzYy5vcmcvQzE2MTYyMi9WNjAjQzE2MTYyMg==
  :last_id: ''
- :identifier: :C161626
  :label: Emory Treatment Resistance Interview for PTSD Clinical Classification Test
    Name
  :notation: ETRP01TN
  :id: aHR0cDovL3d3dy5jZGlzYy5vcmcvQzE2MTYyNi9WNjAjQzE2MTYyNg==
  :last_id: ''
- :identifier: :C161620
  :label: Diabetes Distress Scale for Adults with Type 1 Diabetes Questionnaire Test
    Name
  :notation: DDS01TN
  :id: aHR0cDovL3d3dy5jZGlzYy5vcmcvQzE2MTYyMC9WNjAjQzE2MTYyMA==
  :last_id: ''
- :identifier: :C160926
  :label: FDA Technical Specification Response
  :notation: FDATSRS
  :id: aHR0cDovL3d3dy5jZGlzYy5vcmcvQzE2MDkyNi9WNjAjQzE2MDkyNg==
  :last_id: ''
- :identifier: :C161617
  :label: European Organisation for the Research and Treatment of Cancer Quality of
    Life Questionnaire - Paliative Care Version 1.0 Questionnaire Test Code
  :notation: EOR02TC
  :id: aHR0cDovL3d3dy5jZGlzYy5vcmcvQzE2MTYxNy9WNjAjQzE2MTYxNw==
  :last_id: ''
- :identifier: :C160922
  :label: Laboratory Analytical Method Calculation Formula
  :notation: LBANMET
  :id: aHR0cDovL3d3dy5jZGlzYy5vcmcvQzE2MDkyMi9WNjAjQzE2MDkyMg==
  :last_id: ''
- :identifier: :C120537
  :label: SEND Vital Signs Test Name
  :notation: SVSTST
  :id: aHR0cDovL3d3dy5jZGlzYy5vcmcvQzEyMDUzNy9WNjAjQzEyMDUzNw==
  :last_id: ''
- :identifier: :C160931
  :label: Genus and Species Response
  :notation: GENUSSPC
  :id: aHR0cDovL3d3dy5jZGlzYy5vcmcvQzE2MDkzMS9WNjAjQzE2MDkzMQ==
  :last_id: ''
- :identifier: :C161621
  :label: Diabetes Distress Scale for Adults with Type 1 Diabetes Questionnaire Test
    Code
  :notation: DDS01TC
  :id: aHR0cDovL3d3dy5jZGlzYy5vcmcvQzE2MTYyMS9WNjAjQzE2MTYyMQ==
  :last_id: ''
- :identifier: :C160927
  :label: Body Irradiation Model Response
  :notation: BIRRMRS
  :id: aHR0cDovL3d3dy5jZGlzYy5vcmcvQzE2MDkyNy9WNjAjQzE2MDkyNw==
  :last_id: ''
- :identifier: :C161619
  :label: European Organisation for the Research and Treatment of Cancer Quality of
    Life Questionnaire - Core 30 Version 3.0 Questionnaire Test Code
  :notation: EOR01TC
  :id: aHR0cDovL3d3dy5jZGlzYy5vcmcvQzE2MTYxOS9WNjAjQzE2MTYxOQ==
  :last_id: ''
- :identifier: :C160929
  :label: Expected Onset of Rad/Nuc Targeted Injury Response
  :notation: EORNTI
  :id: aHR0cDovL3d3dy5jZGlzYy5vcmcvQzE2MDkyOS9WNjAjQzE2MDkyOQ==
  :last_id: ''
- :identifier: :C161625
  :label: Brief Psychiatric Rating Scale 1988 Version Clinical Classification Test
    Code
  :notation: BPR02TC
  :id: aHR0cDovL3d3dy5jZGlzYy5vcmcvQzE2MTYyNS9WNjAjQzE2MTYyNQ==
  :last_id: ''
- :identifier: :C161616
  :label: European Organisation for the Research and Treatment of Cancer Quality of
    Life Questionnaire - Paliative Care Version 1.0 Questionnaire Test Name
  :notation: EOR02TN
  :id: aHR0cDovL3d3dy5jZGlzYy5vcmcvQzE2MTYxNi9WNjAjQzE2MTYxNg==
  :last_id: ''
- :identifier: :C161623
  :label: Alert Verbal Painful Unresponsive Scale Clinical Classification Test Code
  :notation: AVPU01TC
  :id: aHR0cDovL3d3dy5jZGlzYy5vcmcvQzE2MTYyMy9WNjAjQzE2MTYyMw==
  :last_id: ''
- :identifier: :C160930
  :label: Chemical Challenge Agent Name Response
  :notation: CHAGNAMR
  :id: aHR0cDovL3d3dy5jZGlzYy5vcmcvQzE2MDkzMC9WNjAjQzE2MDkzMA==
  :last_id: ''
- :identifier: :C161627
  :label: Emory Treatment Resistance Interview for PTSD Clinical Classification Test
    Code
  :notation: ETRP01TC
  :id: aHR0cDovL3d3dy5jZGlzYy5vcmcvQzE2MTYyNy9WNjAjQzE2MTYyNw==
  :last_id: ''
- :identifier: :C160923
  :label: SDTM Version Response
  :notation: SDTMVRS
  :id: aHR0cDovL3d3dy5jZGlzYy5vcmcvQzE2MDkyMy9WNjAjQzE2MDkyMw==
  :last_id: ''
- :identifier: :C161618
  :label: European Organisation for the Research and Treatment of Cancer Quality of
    Life Questionnaire - Core 30 Version 3.0 Questionnaire Test Name
  :notation: EOR01TN
  :id: aHR0cDovL3d3dy5jZGlzYy5vcmcvQzE2MTYxOC9WNjAjQzE2MTYxOA==
  :last_id: ''
- :identifier: :C160924
  :label: SDTM IG Version Response
  :notation: SDTMIGRS
  :id: aHR0cDovL3d3dy5jZGlzYy5vcmcvQzE2MDkyNC9WNjAjQzE2MDkyNA==
  :last_id: ''
- :identifier: :C160925
  :label: CDISC Therapeutic Area User Guide Response
  :notation: CTAUGRS
  :id: aHR0cDovL3d3dy5jZGlzYy5vcmcvQzE2MDkyNS9WNjAjQzE2MDkyNQ==
  :last_id: ''
- :identifier: :C160921
  :label: Study Population Attribute Terminology
  :notation: Study Population Attribute Terminology
  :id: aHR0cDovL3d3dy5jZGlzYy5vcmcvQzE2MDkyMS9WNjAjQzE2MDkyMQ==
  :last_id: ''
- :identifier: :C120536
  :label: SEND Vital Signs Test Code
  :notation: SVSTSTCD
  :id: aHR0cDovL3d3dy5jZGlzYy5vcmcvQzEyMDUzNi9WNjAjQzEyMDUzNg==
  :last_id: ''
- :identifier: :C160928
  :label: Rad/Nuc Targeted Injury Model Response
  :notation: RNTIMRS
  :id: aHR0cDovL3d3dy5jZGlzYy5vcmcvQzE2MDkyOC9WNjAjQzE2MDkyOA==
  :last_id: ''
:deleted:
- :identifier: :C124662
  :label: Tanner Scale Boy Clinical Classification Test Code
  :notation: TANN02TC
  :id: aHR0cDovL3d3dy5jZGlzYy5vcmcvQzEyNDY2Mi9WNDcjQzEyNDY2Mg==
  :last_id: ''
- :identifier: :C135684
  :label: Clinical Global Impression Questionnaire Test Code
  :notation: CGGUY1TC
  :id: aHR0cDovL3d3dy5jZGlzYy5vcmcvQzEzNTY4NC9WNTIjQzEzNTY4NA==
  :last_id: ''
- :identifier: :C124663
  :label: Tanner Scale Girl Clinical Classification Test Name
  :notation: TANN01TN
  :id: aHR0cDovL3d3dy5jZGlzYy5vcmcvQzEyNDY2My9WNDcjQzEyNDY2Mw==
  :last_id: ''
- :identifier: :C124661
  :label: Tanner Scale Boy Clinical Classification Test Name
  :notation: TANN02TN
  :id: aHR0cDovL3d3dy5jZGlzYy5vcmcvQzEyNDY2MS9WNDcjQzEyNDY2MQ==
  :last_id: ''
- :identifier: :C124664
  :label: Tanner Scale Girl Clinical Classification Test Code
  :notation: TANN01TC
  :id: aHR0cDovL3d3dy5jZGlzYy5vcmcvQzEyNDY2NC9WNDcjQzEyNDY2NA==
  :last_id: ''
- :identifier: :C135683
  :label: Clinical Global Impression Questionnaire Test Name
  :notation: CGGUY1TN
  :id: aHR0cDovL3d3dy5jZGlzYy5vcmcvQzEzNTY4My9WNTIjQzEzNTY4Mw==
  :last_id: ''
- :identifier: :C66787
  :label: Diagnosis Group Response
  :notation: TDIGRP
  :id: aHR0cDovL3d3dy5jZGlzYy5vcmcvQzY2Nzg3L1Y1MCNDNjY3ODc=
  :last_id: ''
:updated:
- :identifier: :C128690
  :label: Ethnicity As Collected
  :notation: ETHNICC
  :id: aHR0cDovL3d3dy5jZGlzYy5vcmcvQzEyODY5MC9WNTgjQzEyODY5MA==
  :last_id: aHR0cDovL3d3dy5jZGlzYy5vcmcvQzEyODY5MC9WNTkjQzEyODY5MA==
- :identifier: :C101858
  :label: Procedure
  :notation: PROCEDUR
  :id: aHR0cDovL3d3dy5jZGlzYy5vcmcvQzEwMTg1OC9WNTgjQzEwMTg1OA==
  :last_id: aHR0cDovL3d3dy5jZGlzYy5vcmcvQzEwMTg1OC9WNTkjQzEwMTg1OA==
- :identifier: :C120522
  :label: Holter ECG Results
  :notation: HESTRESC
  :id: aHR0cDovL3d3dy5jZGlzYy5vcmcvQzEyMDUyMi9WNTQjQzEyMDUyMg==
  :last_id: aHR0cDovL3d3dy5jZGlzYy5vcmcvQzEyMDUyMi9WNjAjQzEyMDUyMg==
- :identifier: :C74456
  :label: Anatomical Location
  :notation: LOC
  :id: aHR0cDovL3d3dy5jZGlzYy5vcmcvQzc0NDU2L1Y1OCNDNzQ0NTY=
  :last_id: aHR0cDovL3d3dy5jZGlzYy5vcmcvQzc0NDU2L1Y2MCNDNzQ0NTY=
- :identifier: :C119069
  :label: Dermatology Life Quality Index Questionnaire Test Name
  :notation: DLQI1TN
  :id: aHR0cDovL3d3dy5jZGlzYy5vcmcvQzExOTA2OS9WNDcjQzExOTA2OQ==
  :last_id: aHR0cDovL3d3dy5jZGlzYy5vcmcvQzExOTA2OS9WNjAjQzExOTA2OQ==
- :identifier: :C106655
  :label: Baseline Dyspnea Index Questionnaire Test Code
  :notation: BDI01TC
  :id: aHR0cDovL3d3dy5jZGlzYy5vcmcvQzEwNjY1NS9WNDcjQzEwNjY1NQ==
  :last_id: aHR0cDovL3d3dy5jZGlzYy5vcmcvQzEwNjY1NS9WNjAjQzEwNjY1NQ==
- :identifier: :C112436
  :label: Disease Steps Questionnaire Test Name
  :notation: DS01TN
  :id: aHR0cDovL3d3dy5jZGlzYy5vcmcvQzExMjQzNi9WNDcjQzExMjQzNg==
  :last_id: aHR0cDovL3d3dy5jZGlzYy5vcmcvQzExMjQzNi9WNjAjQzExMjQzNg==
- :identifier: :C96783
  :label: Tumor or Lesion Identification Test Name
  :notation: TUTEST
  :id: aHR0cDovL3d3dy5jZGlzYy5vcmcvQzk2NzgzL1Y1NyNDOTY3ODM=
  :last_id: aHR0cDovL3d3dy5jZGlzYy5vcmcvQzk2NzgzL1Y2MCNDOTY3ODM=
- :identifier: :C111107
  :label: Respiratory Test Name
  :notation: RETEST
  :id: aHR0cDovL3d3dy5jZGlzYy5vcmcvQzExMTEwNy9WNTgjQzExMTEwNw==
  :last_id: aHR0cDovL3d3dy5jZGlzYy5vcmcvQzExMTEwNy9WNjAjQzExMTEwNw==
- :identifier: :C116104
  :label: Nervous System Findings Test Code
  :notation: NVTESTCD
  :id: aHR0cDovL3d3dy5jZGlzYy5vcmcvQzExNjEwNC9WNTgjQzExNjEwNA==
  :last_id: aHR0cDovL3d3dy5jZGlzYy5vcmcvQzExNjEwNC9WNTkjQzExNjEwNA==
- :identifier: :C100130
  :label: Relationship to Subject
  :notation: RELSUB
  :id: aHR0cDovL3d3dy5jZGlzYy5vcmcvQzEwMDEzMC9WNTcjQzEwMDEzMA==
  :last_id: aHR0cDovL3d3dy5jZGlzYy5vcmcvQzEwMDEzMC9WNjAjQzEwMDEzMA==
- :identifier: :C101806
  :label: Abnormal Involuntary Movement Scale Questionnaire Test Name
  :notation: AIMS01TN
  :id: aHR0cDovL3d3dy5jZGlzYy5vcmcvQzEwMTgwNi9WNDcjQzEwMTgwNg==
  :last_id: aHR0cDovL3d3dy5jZGlzYy5vcmcvQzEwMTgwNi9WNjAjQzEwMTgwNg==
- :identifier: :C67154
  :label: Laboratory Test Name
  :notation: LBTEST
  :id: aHR0cDovL3d3dy5jZGlzYy5vcmcvQzY3MTU0L1Y1OCNDNjcxNTQ=
  :last_id: aHR0cDovL3d3dy5jZGlzYy5vcmcvQzY3MTU0L1Y2MCNDNjcxNTQ=
- :identifier: :C127269
  :label: Musculoskeletal System Finding Test Code
  :notation: MUSCTSCD
  :id: aHR0cDovL3d3dy5jZGlzYy5vcmcvQzEyNzI2OS9WNTgjQzEyNzI2OQ==
  :last_id: aHR0cDovL3d3dy5jZGlzYy5vcmcvQzEyNzI2OS9WNTkjQzEyNzI2OQ==
- :identifier: :C100129
  :label: Category of Questionnaire
  :notation: QSCAT
  :id: aHR0cDovL3d3dy5jZGlzYy5vcmcvQzEwMDEyOS9WNTcjQzEwMDEyOQ==
  :last_id: aHR0cDovL3d3dy5jZGlzYy5vcmcvQzEwMDEyOS9WNjAjQzEwMDEyOQ==
- :identifier: :C120527
  :label: Microbiology Test Code
  :notation: MBTESTCD
  :id: aHR0cDovL3d3dy5jZGlzYy5vcmcvQzEyMDUyNy9WNTgjQzEyMDUyNw==
  :last_id: aHR0cDovL3d3dy5jZGlzYy5vcmcvQzEyMDUyNy9WNjAjQzEyMDUyNw==
- :identifier: :C96785
  :label: Oncology Response Assessment Result
  :notation: ONCRSR
  :id: aHR0cDovL3d3dy5jZGlzYy5vcmcvQzk2Nzg1L1Y1NiNDOTY3ODU=
  :last_id: aHR0cDovL3d3dy5jZGlzYy5vcmcvQzk2Nzg1L1Y2MCNDOTY3ODU=
- :identifier: :C66739
  :label: Trial Type Response
  :notation: TTYPE
  :id: aHR0cDovL3d3dy5jZGlzYy5vcmcvQzY2NzM5L1Y1MyNDNjY3Mzk=
  :last_id: aHR0cDovL3d3dy5jZGlzYy5vcmcvQzY2NzM5L1Y2MCNDNjY3Mzk=
- :identifier: :C99074
  :label: Directionality
  :notation: DIR
  :id: aHR0cDovL3d3dy5jZGlzYy5vcmcvQzk5MDc0L1Y1NSNDOTkwNzQ=
  :last_id: aHR0cDovL3d3dy5jZGlzYy5vcmcvQzk5MDc0L1Y2MCNDOTkwNzQ=
- :identifier: :C124309
  :label: Tumor or Lesion Properties Test Result
  :notation: TRPROPRS
  :id: aHR0cDovL3d3dy5jZGlzYy5vcmcvQzEyNDMwOS9WNTgjQzEyNDMwOQ==
  :last_id: aHR0cDovL3d3dy5jZGlzYy5vcmcvQzEyNDMwOS9WNjAjQzEyNDMwOQ==
- :identifier: :C119070
  :label: Dermatology Life Quality Index Questionnaire Test Code
  :notation: DLQI1TC
  :id: aHR0cDovL3d3dy5jZGlzYy5vcmcvQzExOTA3MC9WNDcjQzExOTA3MA==
  :last_id: aHR0cDovL3d3dy5jZGlzYy5vcmcvQzExOTA3MC9WNjAjQzExOTA3MA==
- :identifier: :C127265
  :label: Mode of Disease Transmission
  :notation: MODTRN
  :id: aHR0cDovL3d3dy5jZGlzYy5vcmcvQzEyNzI2NS9WNTgjQzEyNzI2NQ==
  :last_id: aHR0cDovL3d3dy5jZGlzYy5vcmcvQzEyNzI2NS9WNTkjQzEyNzI2NQ==
- :identifier: :C112437
  :label: Disease Steps Questionnaire Test Code
  :notation: DS01TC
  :id: aHR0cDovL3d3dy5jZGlzYy5vcmcvQzExMjQzNy9WNDcjQzExMjQzNw==
  :last_id: aHR0cDovL3d3dy5jZGlzYy5vcmcvQzExMjQzNy9WNjAjQzExMjQzNw==
- :identifier: :C96784
  :label: Tumor or Lesion Identification Test Code
  :notation: TUTESTCD
  :id: aHR0cDovL3d3dy5jZGlzYy5vcmcvQzk2Nzg0L1Y1NyNDOTY3ODQ=
  :last_id: aHR0cDovL3d3dy5jZGlzYy5vcmcvQzk2Nzg0L1Y2MCNDOTY3ODQ=
- :identifier: :C111106
  :label: Respiratory Test Code
  :notation: RETESTCD
  :id: aHR0cDovL3d3dy5jZGlzYy5vcmcvQzExMTEwNi9WNTgjQzExMTEwNg==
  :last_id: aHR0cDovL3d3dy5jZGlzYy5vcmcvQzExMTEwNi9WNjAjQzExMTEwNg==
- :identifier: :C106656
  :label: Transition Dyspnea Index Questionnaire Test Name
  :notation: TDI01TN
  :id: aHR0cDovL3d3dy5jZGlzYy5vcmcvQzEwNjY1Ni9WNDcjQzEwNjY1Ng==
  :last_id: aHR0cDovL3d3dy5jZGlzYy5vcmcvQzEwNjY1Ni9WNjAjQzEwNjY1Ng==
- :identifier: :C117742
  :label: Ophthalmic Exam Test Name
  :notation: OETEST
  :id: aHR0cDovL3d3dy5jZGlzYy5vcmcvQzExNzc0Mi9WNTUjQzExNzc0Mg==
  :last_id: aHR0cDovL3d3dy5jZGlzYy5vcmcvQzExNzc0Mi9WNTkjQzExNzc0Mg==
- :identifier: :C120528
  :label: Microbiology Test Name
  :notation: MBTEST
  :id: aHR0cDovL3d3dy5jZGlzYy5vcmcvQzEyMDUyOC9WNTgjQzEyMDUyOA==
  :last_id: aHR0cDovL3d3dy5jZGlzYy5vcmcvQzEyMDUyOC9WNjAjQzEyMDUyOA==
- :identifier: :C128689
  :label: Race As Collected
  :notation: RACEC
  :id: aHR0cDovL3d3dy5jZGlzYy5vcmcvQzEyODY4OS9WNTgjQzEyODY4OQ==
  :last_id: aHR0cDovL3d3dy5jZGlzYy5vcmcvQzEyODY4OS9WNjAjQzEyODY4OQ==
- :identifier: :C85491
  :label: Microorganism
  :notation: MICROORG
  :id: aHR0cDovL3d3dy5jZGlzYy5vcmcvQzg1NDkxL1Y1NiNDODU0OTE=
  :last_id: aHR0cDovL3d3dy5jZGlzYy5vcmcvQzg1NDkxL1Y2MCNDODU0OTE=
- :identifier: :C71113
  :label: Frequency
  :notation: FREQ
  :id: aHR0cDovL3d3dy5jZGlzYy5vcmcvQzcxMTEzL1Y1OCNDNzExMTM=
  :last_id: aHR0cDovL3d3dy5jZGlzYy5vcmcvQzcxMTEzL1Y2MCNDNzExMTM=
- :identifier: :C142179
  :label: Arm Null Reason
  :notation: ARMNULRS
  :id: aHR0cDovL3d3dy5jZGlzYy5vcmcvQzE0MjE3OS9WNTQjQzE0MjE3OQ==
  :last_id: aHR0cDovL3d3dy5jZGlzYy5vcmcvQzE0MjE3OS9WNjAjQzE0MjE3OQ==
- :identifier: :C101805
  :label: Abnormal Involuntary Movement Scale Questionnaire Test Code
  :notation: AIMS01TC
  :id: aHR0cDovL3d3dy5jZGlzYy5vcmcvQzEwMTgwNS9WNDcjQzEwMTgwNQ==
  :last_id: aHR0cDovL3d3dy5jZGlzYy5vcmcvQzEwMTgwNS9WNjAjQzEwMTgwNQ==
- :identifier: :C65047
  :label: Laboratory Test Code
  :notation: LBTESTCD
  :id: aHR0cDovL3d3dy5jZGlzYy5vcmcvQzY1MDQ3L1Y1OCNDNjUwNDc=
  :last_id: aHR0cDovL3d3dy5jZGlzYy5vcmcvQzY1MDQ3L1Y2MCNDNjUwNDc=
- :identifier: :C78733
  :label: Specimen Condition
  :notation: SPECCOND
  :id: aHR0cDovL3d3dy5jZGlzYy5vcmcvQzc4NzMzL1Y1NiNDNzg3MzM=
  :last_id: aHR0cDovL3d3dy5jZGlzYy5vcmcvQzc4NzMzL1Y1OSNDNzg3MzM=
- :identifier: :C74559
  :label: Subject Characteristic Test Code
  :notation: SCTESTCD
  :id: aHR0cDovL3d3dy5jZGlzYy5vcmcvQzc0NTU5L1Y1OCNDNzQ1NTk=
  :last_id: aHR0cDovL3d3dy5jZGlzYy5vcmcvQzc0NTU5L1Y1OSNDNzQ1NTk=
- :identifier: :C127270
  :label: Musculoskeletal System Finding Test Name
  :notation: MUSCTS
  :id: aHR0cDovL3d3dy5jZGlzYy5vcmcvQzEyNzI3MC9WNTgjQzEyNzI3MA==
  :last_id: aHR0cDovL3d3dy5jZGlzYy5vcmcvQzEyNzI3MC9WNTkjQzEyNzI3MA==
- :identifier: :C150813
  :label: CDAD Findings About Test Name
  :notation: CDFATS
  :id: aHR0cDovL3d3dy5jZGlzYy5vcmcvQzE1MDgxMy9WNTYjQzE1MDgxMw==
  :last_id: aHR0cDovL3d3dy5jZGlzYy5vcmcvQzE1MDgxMy9WNjAjQzE1MDgxMw==
- :identifier: :C103462
  :label: Epworth Sleepiness Scale Questionnaire Test Name
  :notation: ESS01TN
  :id: aHR0cDovL3d3dy5jZGlzYy5vcmcvQzEwMzQ2Mi9WNDcjQzEwMzQ2Mg==
  :last_id: aHR0cDovL3d3dy5jZGlzYy5vcmcvQzEwMzQ2Mi9WNTkjQzEwMzQ2Mg==
- :identifier: :C67153
  :label: Vital Signs Test Name
  :notation: VSTEST
  :id: aHR0cDovL3d3dy5jZGlzYy5vcmcvQzY3MTUzL1Y1OCNDNjcxNTM=
  :last_id: aHR0cDovL3d3dy5jZGlzYy5vcmcvQzY3MTUzL1Y1OSNDNjcxNTM=
- :identifier: :C103330
  :label: Subject Characteristic Test Name
  :notation: SCTEST
  :id: aHR0cDovL3d3dy5jZGlzYy5vcmcvQzEwMzMzMC9WNTgjQzEwMzMzMA==
  :last_id: aHR0cDovL3d3dy5jZGlzYy5vcmcvQzEwMzMzMC9WNTkjQzEwMzMzMA==
- :identifier: :C66738
  :label: Trial Summary Parameter Test Code
  :notation: TSPARMCD
  :id: aHR0cDovL3d3dy5jZGlzYy5vcmcvQzY2NzM4L1Y1OCNDNjY3Mzg=
  :last_id: aHR0cDovL3d3dy5jZGlzYy5vcmcvQzY2NzM4L1Y2MCNDNjY3Mzg=
- :identifier: :C123650
  :label: Tumor or Lesion Identification Test Results
  :notation: TUIDRS
  :id: aHR0cDovL3d3dy5jZGlzYy5vcmcvQzEyMzY1MC9WNTYjQzEyMzY1MA==
  :last_id: aHR0cDovL3d3dy5jZGlzYy5vcmcvQzEyMzY1MC9WNjAjQzEyMzY1MA==
- :identifier: :C66734
  :label: SDTM Domain Abbreviation
  :notation: DOMAIN
  :id: aHR0cDovL3d3dy5jZGlzYy5vcmcvQzY2NzM0L1Y1OCNDNjY3MzQ=
  :last_id: aHR0cDovL3d3dy5jZGlzYy5vcmcvQzY2NzM0L1Y2MCNDNjY3MzQ=
- :identifier: :C115304
  :label: Category of Functional Test
  :notation: FTCAT
  :id: aHR0cDovL3d3dy5jZGlzYy5vcmcvQzExNTMwNC9WNTYjQzExNTMwNA==
  :last_id: aHR0cDovL3d3dy5jZGlzYy5vcmcvQzExNTMwNC9WNjAjQzExNTMwNA==
- :identifier: :C67152
  :label: Trial Summary Parameter Test Name
  :notation: TSPARM
  :id: aHR0cDovL3d3dy5jZGlzYy5vcmcvQzY3MTUyL1Y1OCNDNjcxNTI=
  :last_id: aHR0cDovL3d3dy5jZGlzYy5vcmcvQzY3MTUyL1Y2MCNDNjcxNTI=
- :identifier: :C78419
  :label: Concomitant Medication Dosing Frequency per Interval
  :notation: CMDOSFRQ
  :id: aHR0cDovL3d3dy5jZGlzYy5vcmcvQzc4NDE5L1Y1NiNDNzg0MTk=
  :last_id: aHR0cDovL3d3dy5jZGlzYy5vcmcvQzc4NDE5L1Y2MCNDNzg0MTk=
- :identifier: :C120526
  :label: Immunogenicity Specimen Assessments Test Name
  :notation: ISTEST
  :id: aHR0cDovL3d3dy5jZGlzYy5vcmcvQzEyMDUyNi9WNTYjQzEyMDUyNg==
  :last_id: aHR0cDovL3d3dy5jZGlzYy5vcmcvQzEyMDUyNi9WNjAjQzEyMDUyNg==
- :identifier: :C71151
  :label: ECG Test Method
  :notation: EGMETHOD
  :id: aHR0cDovL3d3dy5jZGlzYy5vcmcvQzcxMTUxL1Y1NyNDNzExNTE=
  :last_id: aHR0cDovL3d3dy5jZGlzYy5vcmcvQzcxMTUxL1Y1OSNDNzExNTE=
- :identifier: :C124298
  :label: Category of Oncology Response Assessment
  :notation: ONCRSCAT
  :id: aHR0cDovL3d3dy5jZGlzYy5vcmcvQzEyNDI5OC9WNTgjQzEyNDI5OA==
  :last_id: aHR0cDovL3d3dy5jZGlzYy5vcmcvQzEyNDI5OC9WNjAjQzEyNDI5OA==
- :identifier: :C106657
  :label: Transition Dyspnea Index Questionnaire Test Code
  :notation: TDI01TC
  :id: aHR0cDovL3d3dy5jZGlzYy5vcmcvQzEwNjY1Ny9WNDcjQzEwNjY1Nw==
  :last_id: aHR0cDovL3d3dy5jZGlzYy5vcmcvQzEwNjY1Ny9WNjAjQzEwNjY1Nw==
- :identifier: :C85494
  :label: PK Units of Measure
  :notation: PKUNIT
  :id: aHR0cDovL3d3dy5jZGlzYy5vcmcvQzg1NDk0L1Y1NSNDODU0OTQ=
  :last_id: aHR0cDovL3d3dy5jZGlzYy5vcmcvQzg1NDk0L1Y2MCNDODU0OTQ=
- :identifier: :C71620
  :label: Unit
  :notation: UNIT
  :id: aHR0cDovL3d3dy5jZGlzYy5vcmcvQzcxNjIwL1Y1OCNDNzE2MjA=
  :last_id: aHR0cDovL3d3dy5jZGlzYy5vcmcvQzcxNjIwL1Y2MCNDNzE2MjA=
- :identifier: :C71152
  :label: ECG Test Name
  :notation: EGTEST
  :id: aHR0cDovL3d3dy5jZGlzYy5vcmcvQzcxMTUyL1Y1MyNDNzExNTI=
  :last_id: aHR0cDovL3d3dy5jZGlzYy5vcmcvQzcxMTUyL1Y2MCNDNzExNTI=
- :identifier: :C106479
  :label: Reproductive System Findings Test Code
  :notation: RPTESTCD
  :id: aHR0cDovL3d3dy5jZGlzYy5vcmcvQzEwNjQ3OS9WNTgjQzEwNjQ3OQ==
  :last_id: aHR0cDovL3d3dy5jZGlzYy5vcmcvQzEwNjQ3OS9WNTkjQzEwNjQ3OQ==
- :identifier: :C66770
  :label: Units for Vital Signs Results
  :notation: VSRESU
  :id: aHR0cDovL3d3dy5jZGlzYy5vcmcvQzY2NzcwL1Y1OCNDNjY3NzA=
  :last_id: aHR0cDovL3d3dy5jZGlzYy5vcmcvQzY2NzcwL1Y1OSNDNjY3NzA=
- :identifier: :C106478
  :label: Reproductive System Findings Test Name
  :notation: RPTEST
  :id: aHR0cDovL3d3dy5jZGlzYy5vcmcvQzEwNjQ3OC9WNTgjQzEwNjQ3OA==
  :last_id: aHR0cDovL3d3dy5jZGlzYy5vcmcvQzEwNjQ3OC9WNTkjQzEwNjQ3OA==
- :identifier: :C101816
  :label: Eastern Cooperative Oncology Group Performance Status Questionnaire Test
    Name
  :notation: ECOG1TN
  :id: aHR0cDovL3d3dy5jZGlzYy5vcmcvQzEwMTgxNi9WNDcjQzEwMTgxNg==
  :last_id: aHR0cDovL3d3dy5jZGlzYy5vcmcvQzEwMTgxNi9WNjAjQzEwMTgxNg==
- :identifier: :C116103
  :label: Nervous System Findings Test Name
  :notation: NVTEST
  :id: aHR0cDovL3d3dy5jZGlzYy5vcmcvQzExNjEwMy9WNTgjQzExNjEwMw==
  :last_id: aHR0cDovL3d3dy5jZGlzYy5vcmcvQzExNjEwMy9WNTkjQzExNjEwMw==
- :identifier: :C150812
  :label: CDAD Findings About Test Code
  :notation: CDFATSCD
  :id: aHR0cDovL3d3dy5jZGlzYy5vcmcvQzE1MDgxMi9WNTYjQzE1MDgxMg==
  :last_id: aHR0cDovL3d3dy5jZGlzYy5vcmcvQzE1MDgxMi9WNjAjQzE1MDgxMg==
- :identifier: :C66726
  :label: Pharmaceutical Dosage Form
  :notation: FRM
  :id: aHR0cDovL3d3dy5jZGlzYy5vcmcvQzY2NzI2L1Y1OCNDNjY3MjY=
  :last_id: aHR0cDovL3d3dy5jZGlzYy5vcmcvQzY2NzI2L1Y2MCNDNjY3MjY=
- :identifier: :C103463
  :label: Epworth Sleepiness Scale Questionnaire Test Code
  :notation: ESS01TC
  :id: aHR0cDovL3d3dy5jZGlzYy5vcmcvQzEwMzQ2My9WNDcjQzEwMzQ2Mw==
  :last_id: aHR0cDovL3d3dy5jZGlzYy5vcmcvQzEwMzQ2My9WNTkjQzEwMzQ2Mw==
- :identifier: :C125922
  :label: Microscopic Findings Test Details
  :notation: MIFTSDTL
  :id: aHR0cDovL3d3dy5jZGlzYy5vcmcvQzEyNTkyMi9WNTcjQzEyNTkyMg==
  :last_id: aHR0cDovL3d3dy5jZGlzYy5vcmcvQzEyNTkyMi9WNTkjQzEyNTkyMg==
- :identifier: :C114118
  :label: Protocol Milestone
  :notation: PROTMLST
  :id: aHR0cDovL3d3dy5jZGlzYy5vcmcvQzExNDExOC9WNTUjQzExNDExOA==
  :last_id: aHR0cDovL3d3dy5jZGlzYy5vcmcvQzExNDExOC9WNjAjQzExNDExOA==
- :identifier: :C128688
  :label: Microbiology Susceptibility Test Code
  :notation: MSTESTCD
  :id: aHR0cDovL3d3dy5jZGlzYy5vcmcvQzEyODY4OC9WNTgjQzEyODY4OA==
  :last_id: aHR0cDovL3d3dy5jZGlzYy5vcmcvQzEyODY4OC9WNTkjQzEyODY4OA==
- :identifier: :C85493
  :label: PK Parameters
  :notation: PKPARM
  :id: aHR0cDovL3d3dy5jZGlzYy5vcmcvQzg1NDkzL1Y1OCNDODU0OTM=
  :last_id: aHR0cDovL3d3dy5jZGlzYy5vcmcvQzg1NDkzL1Y2MCNDODU0OTM=
- :identifier: :C111111
  :label: Device Properties Test Code
  :notation: DOTESTCD
  :id: aHR0cDovL3d3dy5jZGlzYy5vcmcvQzExMTExMS9WNTgjQzExMTExMQ==
  :last_id: aHR0cDovL3d3dy5jZGlzYy5vcmcvQzExMTExMS9WNjAjQzExMTExMQ==
- :identifier: :C128687
  :label: Microbiology Susceptibility Test Name
  :notation: MSTEST
  :id: aHR0cDovL3d3dy5jZGlzYy5vcmcvQzEyODY4Ny9WNTgjQzEyODY4Nw==
  :last_id: aHR0cDovL3d3dy5jZGlzYy5vcmcvQzEyODY4Ny9WNTkjQzEyODY4Nw==
- :identifier: :C120525
  :label: Immunogenicity Specimen Assessments Test Code
  :notation: ISTESTCD
  :id: aHR0cDovL3d3dy5jZGlzYy5vcmcvQzEyMDUyNS9WNTYjQzEyMDUyNQ==
  :last_id: aHR0cDovL3d3dy5jZGlzYy5vcmcvQzEyMDUyNS9WNjAjQzEyMDUyNQ==
- :identifier: :C111112
  :label: Device Properties Test Name
  :notation: DOTEST
  :id: aHR0cDovL3d3dy5jZGlzYy5vcmcvQzExMTExMi9WNTgjQzExMTExMg==
  :last_id: aHR0cDovL3d3dy5jZGlzYy5vcmcvQzExMTExMi9WNjAjQzExMTExMg==
- :identifier: :C78745
  :label: Exposure Dosing Frequency per Interval
  :notation: EXDOSFRQ
  :id: aHR0cDovL3d3dy5jZGlzYy5vcmcvQzc4NzQ1L1Y1NiNDNzg3NDU=
  :last_id: aHR0cDovL3d3dy5jZGlzYy5vcmcvQzc4NzQ1L1Y2MCNDNzg3NDU=
- :identifier: :C66741
  :label: Vital Signs Test Code
  :notation: VSTESTCD
  :id: aHR0cDovL3d3dy5jZGlzYy5vcmcvQzY2NzQxL1Y1OCNDNjY3NDE=
  :last_id: aHR0cDovL3d3dy5jZGlzYy5vcmcvQzY2NzQxL1Y1OSNDNjY3NDE=
- :identifier: :C118971
  :label: Category of Clinical Classification
  :notation: CCCAT
  :id: aHR0cDovL3d3dy5jZGlzYy5vcmcvQzExODk3MS9WNTgjQzExODk3MQ==
  :last_id: aHR0cDovL3d3dy5jZGlzYy5vcmcvQzExODk3MS9WNjAjQzExODk3MQ==
- :identifier: :C78734
  :label: Specimen Type
  :notation: SPECTYPE
  :id: aHR0cDovL3d3dy5jZGlzYy5vcmcvQzc4NzM0L1Y1OCNDNzg3MzQ=
  :last_id: aHR0cDovL3d3dy5jZGlzYy5vcmcvQzc4NzM0L1Y2MCNDNzg3MzQ=
- :identifier: :C71153
  :label: ECG Test Code
  :notation: EGTESTCD
  :id: aHR0cDovL3d3dy5jZGlzYy5vcmcvQzcxMTUzL1Y1MyNDNzExNTM=
  :last_id: aHR0cDovL3d3dy5jZGlzYy5vcmcvQzcxMTUzL1Y2MCNDNzExNTM=
- :identifier: :C85839
  :label: PK Parameters Code
  :notation: PKPARMCD
  :id: aHR0cDovL3d3dy5jZGlzYy5vcmcvQzg1ODM5L1Y1OCNDODU4Mzk=
  :last_id: aHR0cDovL3d3dy5jZGlzYy5vcmcvQzg1ODM5L1Y2MCNDODU4Mzk=
- :identifier: :C85492
  :label: Method
  :notation: METHOD
  :id: aHR0cDovL3d3dy5jZGlzYy5vcmcvQzg1NDkyL1Y1OCNDODU0OTI=
  :last_id: aHR0cDovL3d3dy5jZGlzYy5vcmcvQzg1NDkyL1Y2MCNDODU0OTI=
- :identifier: :C71150
  :label: ECG Result
  :notation: EGSTRESC
  :id: aHR0cDovL3d3dy5jZGlzYy5vcmcvQzcxMTUwL1Y1NCNDNzExNTA=
  :last_id: aHR0cDovL3d3dy5jZGlzYy5vcmcvQzcxMTUwL1Y2MCNDNzExNTA=
- :identifier: :C66727
  :label: Completion/Reason for Non-Completion
  :notation: NCOMPLT
  :id: aHR0cDovL3d3dy5jZGlzYy5vcmcvQzY2NzI3L1Y1OCNDNjY3Mjc=
  :last_id: aHR0cDovL3d3dy5jZGlzYy5vcmcvQzY2NzI3L1Y2MCNDNjY3Mjc=
- :identifier: :C106654
  :label: Baseline Dyspnea Index Questionnaire Test Name
  :notation: BDI01TN
  :id: aHR0cDovL3d3dy5jZGlzYy5vcmcvQzEwNjY1NC9WNDcjQzEwNjY1NA==
  :last_id: aHR0cDovL3d3dy5jZGlzYy5vcmcvQzEwNjY1NC9WNjAjQzEwNjY1NA==
- :identifier: :C101815
  :label: Eastern Cooperative Oncology Group Performance Status Questionnaire Test
    Code
  :notation: ECOG1TC
  :id: aHR0cDovL3d3dy5jZGlzYy5vcmcvQzEwMTgxNS9WNDcjQzEwMTgxNQ==
  :last_id: aHR0cDovL3d3dy5jZGlzYy5vcmcvQzEwMTgxNS9WNjAjQzEwMTgxNQ==
- :identifier: :C106483
  :label: Device-In-Use Test Code
  :notation: DUTESTCD
  :id: aHR0cDovL3d3dy5jZGlzYy5vcmcvQzEwNjQ4My9WNTgjQzEwNjQ4Mw==
  :last_id: aHR0cDovL3d3dy5jZGlzYy5vcmcvQzEwNjQ4My9WNTkjQzEwNjQ4Mw==
- :identifier: :C106482
  :label: Device-In-Use Test Name
  :notation: DUTEST
  :id: aHR0cDovL3d3dy5jZGlzYy5vcmcvQzEwNjQ4Mi9WNTgjQzEwNjQ4Mg==
  :last_id: aHR0cDovL3d3dy5jZGlzYy5vcmcvQzEwNjQ4Mi9WNTkjQzEwNjQ4Mg==
- :identifier: :C117743
  :label: Ophthalmic Exam Test Code
  :notation: OETESTCD
  :id: aHR0cDovL3d3dy5jZGlzYy5vcmcvQzExNzc0My9WNTUjQzExNzc0Mw==
  :last_id: aHR0cDovL3d3dy5jZGlzYy5vcmcvQzExNzc0My9WNTkjQzExNzc0Mw==
- :identifier: :C89971
  :label: Macroscopic Findings Test Name
  :notation: MATEST
  :id: aHR0cDovL3d3dy5jZGlzYy5vcmcvQzg5OTcxL1Y0NyNDODk5NzE=
  :last_id: aHR0cDovL3d3dy5jZGlzYy5vcmcvQzg5OTcxL1Y2MCNDODk5NzE=
- :identifier: :C124310
  :label: Fetal Pathology Findings Result
  :notation: FXFINDRS
  :id: aHR0cDovL3d3dy5jZGlzYy5vcmcvQzEyNDMxMC9WNTMjQzEyNDMxMA==
  :last_id: aHR0cDovL3d3dy5jZGlzYy5vcmcvQzEyNDMxMC9WNjAjQzEyNDMxMA==
- :identifier: :C89980
  :label: SEND Subject Characteristics Test Name
  :notation: SBCSND
  :id: aHR0cDovL3d3dy5jZGlzYy5vcmcvQzg5OTgwL1YzNiNDODk5ODA=
  :last_id: aHR0cDovL3d3dy5jZGlzYy5vcmcvQzg5OTgwL1Y1OSNDODk5ODA=
- :identifier: :C132310
  :label: Protocol Entity Terminology
  :notation: Protocol Entity Terminology
  :id: aHR0cDovL3d3dy5jZGlzYy5vcmcvQzEzMjMxMC9WNTcjQzEzMjMxMA==
  :last_id: aHR0cDovL3d3dy5jZGlzYy5vcmcvQzEzMjMxMC9WNjAjQzEzMjMxMA==
- :identifier: :C66786
  :label: Country
  :notation: COUNTRY
  :id: aHR0cDovL3d3dy5jZGlzYy5vcmcvQzY2Nzg2L1Y1MSNDNjY3ODY=
  :last_id: aHR0cDovL3d3dy5jZGlzYy5vcmcvQzY2Nzg2L1Y2MCNDNjY3ODY=
- :identifier: :C88025
  :label: Neoplasm Type
  :notation: NEOPLASM
  :id: aHR0cDovL3d3dy5jZGlzYy5vcmcvQzg4MDI1L1Y1OCNDODgwMjU=
  :last_id: aHR0cDovL3d3dy5jZGlzYy5vcmcvQzg4MDI1L1Y2MCNDODgwMjU=
- :identifier: :C90003
  :label: SEND Study Type
  :notation: SSTYP
  :id: aHR0cDovL3d3dy5jZGlzYy5vcmcvQzkwMDAzL1Y0NyNDOTAwMDM=
  :last_id: aHR0cDovL3d3dy5jZGlzYy5vcmcvQzkwMDAzL1Y2MCNDOTAwMDM=
- :identifier: :C77529
  :label: Specimen
  :notation: SPEC
  :id: aHR0cDovL3d3dy5jZGlzYy5vcmcvQzc3NTI5L1Y1OCNDNzc1Mjk=
  :last_id: aHR0cDovL3d3dy5jZGlzYy5vcmcvQzc3NTI5L1Y2MCNDNzc1Mjk=
- :identifier: :C77530
  :label: Strain/Substrain
  :notation: STRAIN
  :id: aHR0cDovL3d3dy5jZGlzYy5vcmcvQzc3NTMwL1Y0OSNDNzc1MzA=
  :last_id: aHR0cDovL3d3dy5jZGlzYy5vcmcvQzc3NTMwL1Y2MCNDNzc1MzA=
- :identifier: :C90009
  :label: SEND Trial Summary Parameter Test Code
  :notation: STSPRMCD
  :id: aHR0cDovL3d3dy5jZGlzYy5vcmcvQzkwMDA5L1Y1NyNDOTAwMDk=
  :last_id: aHR0cDovL3d3dy5jZGlzYy5vcmcvQzkwMDA5L1Y2MCNDOTAwMDk=
- :identifier: :C120535
  :label: SEND Respiratory Test Name
  :notation: SRETST
  :id: aHR0cDovL3d3dy5jZGlzYy5vcmcvQzEyMDUzNS9WNTIjQzEyMDUzNQ==
  :last_id: aHR0cDovL3d3dy5jZGlzYy5vcmcvQzEyMDUzNS9WNTkjQzEyMDUzNQ==
- :identifier: :C120534
  :label: SEND Respiratory Test Code
  :notation: SRETSTCD
  :id: aHR0cDovL3d3dy5jZGlzYy5vcmcvQzEyMDUzNC9WNTIjQzEyMDUzNA==
  :last_id: aHR0cDovL3d3dy5jZGlzYy5vcmcvQzEyMDUzNC9WNTkjQzEyMDUzNA==
- :identifier: :C120531
  :label: Non-Neoplastic Finding Type
  :notation: NONNEO
  :id: aHR0cDovL3d3dy5jZGlzYy5vcmcvQzEyMDUzMS9WNTcjQzEyMDUzMQ==
  :last_id: aHR0cDovL3d3dy5jZGlzYy5vcmcvQzEyMDUzMS9WNjAjQzEyMDUzMQ==
- :identifier: :C77808
  :label: Species
  :notation: SPECIES
  :id: aHR0cDovL3d3dy5jZGlzYy5vcmcvQzc3ODA4L1Y0NyNDNzc4MDg=
  :last_id: aHR0cDovL3d3dy5jZGlzYy5vcmcvQzc3ODA4L1Y2MCNDNzc4MDg=
- :identifier: :C89981
  :label: SEND Subject Characteristics Test Code
  :notation: SBCCDSND
  :id: aHR0cDovL3d3dy5jZGlzYy5vcmcvQzg5OTgxL1YzNiNDODk5ODE=
  :last_id: aHR0cDovL3d3dy5jZGlzYy5vcmcvQzg5OTgxL1Y1OSNDODk5ODE=
- :identifier: :C89972
  :label: Macroscopic Findings Test Code
  :notation: MATESTCD
  :id: aHR0cDovL3d3dy5jZGlzYy5vcmcvQzg5OTcyL1Y0NyNDODk5NzI=
  :last_id: aHR0cDovL3d3dy5jZGlzYy5vcmcvQzg5OTcyL1Y2MCNDODk5NzI=
- :identifier: :C90007
  :label: SEND Trial Summary Parameter Test Name
  :notation: STSPRM
  :id: aHR0cDovL3d3dy5jZGlzYy5vcmcvQzkwMDA3L1Y1NyNDOTAwMDc=
  :last_id: aHR0cDovL3d3dy5jZGlzYy5vcmcvQzkwMDA3L1Y2MCNDOTAwMDc=
:versions:
- '2018-12-21'
- '2019-03-29'
- '2019-06-28'
