---
:created:
- :identifier: :C125746
  :label: Expanded Disability Rating Scale - Postacute Interview Survivor Version
    Questionnaire Test Name
  :notation: ED2TN
  :id: aHR0cDovL3d3dy5jZGlzYy5vcmcvQzEyNTc0Ni9WNDcjQzEyNTc0Ng==
  :last_id: aHR0cDovL3d3dy5jZGlzYy5vcmcvQzEyNTc0Ni9WNDgjQzEyNTc0Ng==
- :identifier: :C125742
  :label: Arizona Sexual Experiences Scale - Male Questionnaire Test Name
  :notation: ASEX02TN
  :id: aHR0cDovL3d3dy5jZGlzYy5vcmcvQzEyNTc0Mi9WNDcjQzEyNTc0Mg==
  :last_id: aHR0cDovL3d3dy5jZGlzYy5vcmcvQzEyNTc0Mi9WNDkjQzEyNTc0Mg==
- :identifier: :C125741
  :label: Arizona Sexual Experiences Scale - Female Questionnaire Test Code
  :notation: ASEX01TC
  :id: aHR0cDovL3d3dy5jZGlzYy5vcmcvQzEyNTc0MS9WNDcjQzEyNTc0MQ==
  :last_id: aHR0cDovL3d3dy5jZGlzYy5vcmcvQzEyNTc0MS9WNDkjQzEyNTc0MQ==
- :identifier: :C125747
  :label: Expanded Disability Rating Scale - Postacute Interview Survivor Version
    Questionnaire Test Code
  :notation: ED2TC
  :id: aHR0cDovL3d3dy5jZGlzYy5vcmcvQzEyNTc0Ny9WNDcjQzEyNTc0Nw==
  :last_id: aHR0cDovL3d3dy5jZGlzYy5vcmcvQzEyNTc0Ny9WNDgjQzEyNTc0Nw==
- :identifier: :C125743
  :label: Arizona Sexual Experiences Scale - Male Questionnaire Test Code
  :notation: ASEX02TC
  :id: aHR0cDovL3d3dy5jZGlzYy5vcmcvQzEyNTc0My9WNDcjQzEyNTc0Mw==
  :last_id: aHR0cDovL3d3dy5jZGlzYy5vcmcvQzEyNTc0My9WNDkjQzEyNTc0Mw==
- :identifier: :C125740
  :label: Arizona Sexual Experiences Scale - Female Questionnaire Test Name
  :notation: ASEX01TN
  :id: aHR0cDovL3d3dy5jZGlzYy5vcmcvQzEyNTc0MC9WNDcjQzEyNTc0MA==
  :last_id: aHR0cDovL3d3dy5jZGlzYy5vcmcvQzEyNTc0MC9WNDkjQzEyNTc0MA==
- :identifier: :C125922
  :label: Microscopic Findings Test Details
  :notation: MIFTSDTL
  :id: aHR0cDovL3d3dy5jZGlzYy5vcmcvQzEyNTkyMi9WNDcjQzEyNTkyMg==
  :last_id: aHR0cDovL3d3dy5jZGlzYy5vcmcvQzEyNTkyMi9WNDgjQzEyNTkyMg==
- :identifier: :C127358
  :label: The Functional Assessment of Cancer Therapy-Prostate Version 4 Questionnaire
    Test Code
  :notation: FAC023TC
  :id: aHR0cDovL3d3dy5jZGlzYy5vcmcvQzEyNzM1OC9WNDgjQzEyNzM1OA==
  :last_id: ''
- :identifier: :C127351
  :label: The Expanded Prostate Cancer Index Composite for Clinical Practice Questionnaire
    Test Name
  :notation: EPIC2TN
  :id: aHR0cDovL3d3dy5jZGlzYy5vcmcvQzEyNzM1MS9WNDgjQzEyNzM1MQ==
  :last_id: ''
- :identifier: :C127261
  :label: Observational Study Time Perspective
  :notation: OBSSTP
  :id: aHR0cDovL3d3dy5jZGlzYy5vcmcvQzEyNzI2MS9WNDgjQzEyNzI2MQ==
  :last_id: ''
- :identifier: :C127354
  :label: The Functional Assessment of Cancer Therapy-General Version 4 Questionnaire
    Test Code
  :notation: FAC001TC
  :id: aHR0cDovL3d3dy5jZGlzYy5vcmcvQzEyNzM1NC9WNDgjQzEyNzM1NA==
  :last_id: ''
- :identifier: :C127270
  :label: Musculoskeletal System Finding Test Name
  :notation: MUSCTS
  :id: aHR0cDovL3d3dy5jZGlzYy5vcmcvQzEyNzI3MC9WNDgjQzEyNzI3MA==
  :last_id: ''
- :identifier: :C127257
  :label: Contact Role for Clinical Study
  :notation: CONROL
  :id: aHR0cDovL3d3dy5jZGlzYy5vcmcvQzEyNzI1Ny9WNDgjQzEyNzI1Nw==
  :last_id: ''
- :identifier: :C127266
  :label: Tuberculosis Findings About Test Code
  :notation: TBFATSCD
  :id: aHR0cDovL3d3dy5jZGlzYy5vcmcvQzEyNzI2Ni9WNDgjQzEyNzI2Ng==
  :last_id: ''
- :identifier: :C127360
  :label: The Prostate Cancer Specific Quality of Life Instrument Questionnaire Test
    Code
  :notation: PROS01TC
  :id: aHR0cDovL3d3dy5jZGlzYy5vcmcvQzEyNzM2MC9WNDgjQzEyNzM2MA==
  :last_id: ''
- :identifier: :C127265
  :label: Mode of Disease Transmission
  :notation: MODTRN
  :id: aHR0cDovL3d3dy5jZGlzYy5vcmcvQzEyNzI2NS9WNDgjQzEyNzI2NQ==
  :last_id: ''
- :identifier: :C127259
  :label: Observational Study Model
  :notation: OBSSMO
  :id: aHR0cDovL3d3dy5jZGlzYy5vcmcvQzEyNzI1OS9WNDgjQzEyNzI1OQ==
  :last_id: ''
- :identifier: :C127357
  :label: The Functional Assessment of Cancer Therapy-Prostate Version 4 Questionnaire
    Test Name
  :notation: FAC023TN
  :id: aHR0cDovL3d3dy5jZGlzYy5vcmcvQzEyNzM1Ny9WNDgjQzEyNzM1Nw==
  :last_id: ''
- :identifier: :C127350
  :label: The Expanded Prostate Cancer Index Composite Short Form Questionnaire Test
    Code
  :notation: EPIC1TC
  :id: aHR0cDovL3d3dy5jZGlzYy5vcmcvQzEyNzM1MC9WNDgjQzEyNzM1MA==
  :last_id: ''
- :identifier: :C127268
  :label: Disease Presentation Type
  :notation: DSPRTYP
  :id: aHR0cDovL3d3dy5jZGlzYy5vcmcvQzEyNzI2OC9WNDgjQzEyNzI2OA==
  :last_id: ''
- :identifier: :C127355
  :label: The National Comprehensive Cancer Network/Functional Assessment of Cancer
    Therapy-Prostate Symptom Index 17 Version 2 Questionnaire Test Name
  :notation: FAC052TN
  :id: aHR0cDovL3d3dy5jZGlzYy5vcmcvQzEyNzM1NS9WNDgjQzEyNzM1NQ==
  :last_id: ''
- :identifier: :C127353
  :label: The Functional Assessment of Cancer Therapy-General Version 4 Questionnaire
    Test Name
  :notation: FAC001TN
  :id: aHR0cDovL3d3dy5jZGlzYy5vcmcvQzEyNzM1My9WNDgjQzEyNzM1Mw==
  :last_id: ''
- :identifier: :C127258
  :label: Observational Study Biospecimen Retention
  :notation: OBSSBSR
  :id: aHR0cDovL3d3dy5jZGlzYy5vcmcvQzEyNzI1OC9WNDgjQzEyNzI1OA==
  :last_id: ''
- :identifier: :C127352
  :label: The Expanded Prostate Cancer Index Composite for Clinical Practice Questionnaire
    Test Code
  :notation: EPIC2TC
  :id: aHR0cDovL3d3dy5jZGlzYy5vcmcvQzEyNzM1Mi9WNDgjQzEyNzM1Mg==
  :last_id: ''
- :identifier: :C127262
  :label: Environmental Setting
  :notation: SETTING
  :id: aHR0cDovL3d3dy5jZGlzYy5vcmcvQzEyNzI2Mi9WNDgjQzEyNzI2Mg==
  :last_id: ''
- :identifier: :C127267
  :label: Tuberculosis Findings About Test Name
  :notation: TBFATS
  :id: aHR0cDovL3d3dy5jZGlzYy5vcmcvQzEyNzI2Ny9WNDgjQzEyNzI2Nw==
  :last_id: ''
- :identifier: :C127359
  :label: The Prostate Cancer Specific Quality of Life Instrument Questionnaire Test
    Name
  :notation: PROS01TN
  :id: aHR0cDovL3d3dy5jZGlzYy5vcmcvQzEyNzM1OS9WNDgjQzEyNzM1OQ==
  :last_id: ''
- :identifier: :C127260
  :label: Observational Study Sampling Method
  :notation: OBSSSM
  :id: aHR0cDovL3d3dy5jZGlzYy5vcmcvQzEyNzI2MC9WNDgjQzEyNzI2MA==
  :last_id: ''
- :identifier: :C127263
  :label: Case Finding
  :notation: CASEFIND
  :id: aHR0cDovL3d3dy5jZGlzYy5vcmcvQzEyNzI2My9WNDgjQzEyNzI2Mw==
  :last_id: ''
- :identifier: :C127356
  :label: The National Comprehensive Cancer Network/Functional Assessment of Cancer
    Therapy-Prostate Symptom Index 17 Version 2 Questionnaire Test Code
  :notation: FAC052TC
  :id: aHR0cDovL3d3dy5jZGlzYy5vcmcvQzEyNzM1Ni9WNDgjQzEyNzM1Ng==
  :last_id: ''
- :identifier: :C127349
  :label: The Expanded Prostate Cancer Index Composite Short Form Questionnaire Test
    Name
  :notation: EPIC1TN
  :id: aHR0cDovL3d3dy5jZGlzYy5vcmcvQzEyNzM0OS9WNDgjQzEyNzM0OQ==
  :last_id: ''
- :identifier: :C127264
  :label: Culture Medium Type
  :notation: CLTMDTYP
  :id: aHR0cDovL3d3dy5jZGlzYy5vcmcvQzEyNzI2NC9WNDgjQzEyNzI2NA==
  :last_id: ''
- :identifier: :C127269
  :label: Musculoskeletal System Finding Test Code
  :notation: MUSCTSCD
  :id: aHR0cDovL3d3dy5jZGlzYy5vcmcvQzEyNzI2OS9WNDgjQzEyNzI2OQ==
  :last_id: ''
- :identifier: :C129087
  :label: Functional Assessment of Chronic Illness Therapy-Fatigue Version 4 Questionnaire
    Test Name
  :notation: FAC071TN
  :id: aHR0cDovL3d3dy5jZGlzYy5vcmcvQzEyOTA4Ny9WNDkjQzEyOTA4Nw==
  :last_id: ''
- :identifier: :C129094
  :label: Functional Assessment of Cancer Therapy-Breast Version 4 Questionnaire Test
    Code
  :notation: FAC005TC
  :id: aHR0cDovL3d3dy5jZGlzYy5vcmcvQzEyOTA5NC9WNDkjQzEyOTA5NA==
  :last_id: ''
- :identifier: :C129097
  :label: National Comprehensive Cancer Network/Functional Assessment of Cancer Therapy-Ovarian
    Symptom Index-18 Version 2 Questionnaire Test Name
  :notation: FAC050TN
  :id: aHR0cDovL3d3dy5jZGlzYy5vcmcvQzEyOTA5Ny9WNDkjQzEyOTA5Nw==
  :last_id: ''
- :identifier: :C128683
  :label: PK Units of Measure - Weight kg
  :notation: PKUWKG
  :id: aHR0cDovL3d3dy5jZGlzYy5vcmcvQzEyODY4My9WNDkjQzEyODY4Mw==
  :last_id: ''
- :identifier: :C129092
  :label: National Comprehensive Cancer Network/Functional Assessment of Cancer Therapy-Bladder
    Symptom Index-18 Version 2 Questionnaire Test Code
  :notation: FAC028TC
  :id: aHR0cDovL3d3dy5jZGlzYy5vcmcvQzEyOTA5Mi9WNDkjQzEyOTA5Mg==
  :last_id: ''
- :identifier: :C128687
  :label: Microbiology Susceptibility Test Name
  :notation: MSTEST
  :id: aHR0cDovL3d3dy5jZGlzYy5vcmcvQzEyODY4Ny9WNDkjQzEyODY4Nw==
  :last_id: ''
- :identifier: :C128682
  :label: Gastrointestinal Test Code
  :notation: GASTROCD
  :id: aHR0cDovL3d3dy5jZGlzYy5vcmcvQzEyODY4Mi9WNDkjQzEyODY4Mg==
  :last_id: ''
- :identifier: :C129095
  :label: Functional Assessment of Cancer Therapy-Ovarian Symptom Index Questionnaire
    Test Name
  :notation: FAC049TN
  :id: aHR0cDovL3d3dy5jZGlzYy5vcmcvQzEyOTA5NS9WNDkjQzEyOTA5NQ==
  :last_id: ''
- :identifier: :C129089
  :label: National Comprehensive Cancer Network/Functional Assessment of Cancer Therapy-Kidney
    Symptom Index-19 Version 2 Questionnaire Test Name
  :notation: FAC042TN
  :id: aHR0cDovL3d3dy5jZGlzYy5vcmcvQzEyOTA4OS9WNDkjQzEyOTA4OQ==
  :last_id: ''
- :identifier: :C128686
  :label: PK Units of Measure - Dose ug
  :notation: PKUDUG
  :id: aHR0cDovL3d3dy5jZGlzYy5vcmcvQzEyODY4Ni9WNDkjQzEyODY4Ng==
  :last_id: ''
- :identifier: :C128689
  :label: Race As Collected
  :notation: RACEC
  :id: aHR0cDovL3d3dy5jZGlzYy5vcmcvQzEyODY4OS9WNDkjQzEyODY4OQ==
  :last_id: ''
- :identifier: :C129093
  :label: Functional Assessment of Cancer Therapy-Breast Version 4 Questionnaire Test
    Name
  :notation: FAC005TN
  :id: aHR0cDovL3d3dy5jZGlzYy5vcmcvQzEyOTA5My9WNDkjQzEyOTA5Mw==
  :last_id: ''
- :identifier: :C129091
  :label: National Comprehensive Cancer Network/Functional Assessment of Cancer Therapy-Bladder
    Symptom Index-18 Version 2 Questionnaire Test Name
  :notation: FAC028TN
  :id: aHR0cDovL3d3dy5jZGlzYy5vcmcvQzEyOTA5MS9WNDkjQzEyOTA5MQ==
  :last_id: ''
- :identifier: :C128684
  :label: PK Units of Measure - Weight g
  :notation: PKUWG
  :id: aHR0cDovL3d3dy5jZGlzYy5vcmcvQzEyODY4NC9WNDkjQzEyODY4NA==
  :last_id: ''
- :identifier: :C129096
  :label: Functional Assessment of Cancer Therapy-Ovarian Symptom Index Questionnaire
    Test Code
  :notation: FAC049TC
  :id: aHR0cDovL3d3dy5jZGlzYy5vcmcvQzEyOTA5Ni9WNDkjQzEyOTA5Ng==
  :last_id: ''
- :identifier: :C129090
  :label: National Comprehensive Cancer Network/Functional Assessment of Cancer Therapy-Kidney
    Symptom Index-19 Version 2 Questionnaire Test Code
  :notation: FAC042TC
  :id: aHR0cDovL3d3dy5jZGlzYy5vcmcvQzEyOTA5MC9WNDkjQzEyOTA5MA==
  :last_id: ''
- :identifier: :C128685
  :label: PK Units of Measure - Dose mg
  :notation: PKUDMG
  :id: aHR0cDovL3d3dy5jZGlzYy5vcmcvQzEyODY4NS9WNDkjQzEyODY4NQ==
  :last_id: ''
- :identifier: :C128690
  :label: Ethnicity As Collected
  :notation: ETHNICC
  :id: aHR0cDovL3d3dy5jZGlzYy5vcmcvQzEyODY5MC9WNDkjQzEyODY5MA==
  :last_id: ''
- :identifier: :C128681
  :label: Gastrointestinal Test Name
  :notation: GASTRO
  :id: aHR0cDovL3d3dy5jZGlzYy5vcmcvQzEyODY4MS9WNDkjQzEyODY4MQ==
  :last_id: ''
- :identifier: :C129098
  :label: National Comprehensive Cancer Network/Functional Assessment of Cancer Therapy-Ovarian
    Symptom Index-18 Version 2 Questionnaire Test Code
  :notation: FAC050TC
  :id: aHR0cDovL3d3dy5jZGlzYy5vcmcvQzEyOTA5OC9WNDkjQzEyOTA5OA==
  :last_id: ''
- :identifier: :C128688
  :label: Microbiology Susceptibility Test Code
  :notation: MSTESTCD
  :id: aHR0cDovL3d3dy5jZGlzYy5vcmcvQzEyODY4OC9WNDkjQzEyODY4OA==
  :last_id: ''
- :identifier: :C129088
  :label: Functional Assessment of Chronic Illness Therapy-Fatigue Version 4 Questionnaire
    Test Code
  :notation: FAC071TC
  :id: aHR0cDovL3d3dy5jZGlzYy5vcmcvQzEyOTA4OC9WNDkjQzEyOTA4OA==
  :last_id: ''
- :identifier: :C129940
  :label: Diabetic Kidney Disease Findings About Test Code
  :notation: DKFATSCD
  :id: aHR0cDovL3d3dy5jZGlzYy5vcmcvQzEyOTk0MC9WNTAjQzEyOTk0MA==
  :last_id: ''
- :identifier: :C129941
  :label: Urinary System Test Name
  :notation: URNSTS
  :id: aHR0cDovL3d3dy5jZGlzYy5vcmcvQzEyOTk0MS9WNTAjQzEyOTk0MQ==
  :last_id: ''
- :identifier: :C130253
  :label: Functional Assessment of Cancer Therapy-Leukemia Version 4 Questionnaire
    Test Code
  :notation: FAC017TC
  :id: aHR0cDovL3d3dy5jZGlzYy5vcmcvQzEzMDI1My9WNTAjQzEzMDI1Mw==
  :last_id: ''
- :identifier: :C130279
  :label: World Health Organization Disability Assessment Schedule 2.0 - 12-Item Self
    Questionnaire Test Code
  :notation: WD3TC
  :id: aHR0cDovL3d3dy5jZGlzYy5vcmcvQzEzMDI3OS9WNTAjQzEzMDI3OQ==
  :last_id: ''
- :identifier: :C130258
  :label: Hamilton Depression Rating Scale - 6 Self-Report Questionnaire Test Name
  :notation: HAMDS1TN
  :id: aHR0cDovL3d3dy5jZGlzYy5vcmcvQzEzMDI1OC9WNTAjQzEzMDI1OA==
  :last_id: ''
- :identifier: :C130280
  :label: World Health Organization Disability Assessment Schedule 2.0 - 12 + 24-Item
    Interviewer Questionnaire Test Name
  :notation: WD4TN
  :id: aHR0cDovL3d3dy5jZGlzYy5vcmcvQzEzMDI4MC9WNTAjQzEzMDI4MA==
  :last_id: ''
- :identifier: :C130263
  :label: Quick Inventory of Depressive Symptomatology Self-Report Version Questionnaire
    Test Code
  :notation: QIDSR1TC
  :id: aHR0cDovL3d3dy5jZGlzYy5vcmcvQzEzMDI2My9WNTAjQzEzMDI2Mw==
  :last_id: ''
- :identifier: :C130246
  :label: Inventory of Depressive Symptomatology Clinician-Rated Version Clinical
    Classification Test Name
  :notation: IDSC1TN
  :id: aHR0cDovL3d3dy5jZGlzYy5vcmcvQzEzMDI0Ni9WNTAjQzEzMDI0Ng==
  :last_id: ''
- :identifier: :C130250
  :label: Kidney Donor Profile Index Clinical Classification Test Name
  :notation: KDPI01TN
  :id: aHR0cDovL3d3dy5jZGlzYy5vcmcvQzEzMDI1MC9WNTAjQzEzMDI1MA==
  :last_id: ''
- :identifier: :C130238
  :label: Brooke Upper Extremity Rating Scale Clinical Classification Test Name
  :notation: BUERS1TN
  :id: aHR0cDovL3d3dy5jZGlzYy5vcmcvQzEzMDIzOC9WNTAjQzEzMDIzOA==
  :last_id: ''
- :identifier: :C129942
  :label: Urinary System Test Code
  :notation: URNSTSCD
  :id: aHR0cDovL3d3dy5jZGlzYy5vcmcvQzEyOTk0Mi9WNTAjQzEyOTk0Mg==
  :last_id: ''
- :identifier: :C130252
  :label: Functional Assessment of Cancer Therapy-Leukemia Version 4 Questionnaire
    Test Name
  :notation: FAC017TN
  :id: aHR0cDovL3d3dy5jZGlzYy5vcmcvQzEzMDI1Mi9WNTAjQzEzMDI1Mg==
  :last_id: ''
- :identifier: :C130266
  :label: Quality Of Life Enjoyment And Satisfaction Questionnaire - Short Form Test
    Name
  :notation: QLES2TN
  :id: aHR0cDovL3d3dy5jZGlzYy5vcmcvQzEzMDI2Ni9WNTAjQzEzMDI2Ng==
  :last_id: ''
- :identifier: :C130241
  :label: Vignos Lower Extremity Rating Scale Clinical Classification Test Code
  :notation: VLERS1TC
  :id: aHR0cDovL3d3dy5jZGlzYy5vcmcvQzEzMDI0MS9WNTAjQzEzMDI0MQ==
  :last_id: ''
- :identifier: :C130276
  :label: World Health Organization Disability Assessment Schedule 2.0 - 12-Item Proxy
    Questionnaire Test Name
  :notation: WD2TN
  :id: aHR0cDovL3d3dy5jZGlzYy5vcmcvQzEzMDI3Ni9WNTAjQzEzMDI3Ng==
  :last_id: ''
- :identifier: :C130244
  :label: Hamilton Depression Rating Scale - 24 Item Clinical Classification Test
    Name
  :notation: HAMD3TN
  :id: aHR0cDovL3d3dy5jZGlzYy5vcmcvQzEzMDI0NC9WNTAjQzEzMDI0NA==
  :last_id: ''
- :identifier: :C130274
  :label: World Health Organization Disability Assessment Schedule 2.0 - 12-Item Interviewer
    Questionnaire Test Name
  :notation: WD1TN
  :id: aHR0cDovL3d3dy5jZGlzYy5vcmcvQzEzMDI3NC9WNTAjQzEzMDI3NA==
  :last_id: ''
- :identifier: :C129939
  :label: Diabetic Kidney Disease Findings About Test Name
  :notation: DKFATS
  :id: aHR0cDovL3d3dy5jZGlzYy5vcmcvQzEyOTkzOS9WNTAjQzEyOTkzOQ==
  :last_id: ''
- :identifier: :C130269
  :label: World Health Organization Disability Assessment Schedule 2.0 - 36-Item Interviewer
    Questionnaire Test Code
  :notation: WD5TC
  :id: aHR0cDovL3d3dy5jZGlzYy5vcmcvQzEzMDI2OS9WNTAjQzEzMDI2OQ==
  :last_id: ''
- :identifier: :C130273
  :label: World Health Organization Disability Assessment Schedule 2.0 - 36-Item Self
    Questionnaire Test Code
  :notation: WD7TC
  :id: aHR0cDovL3d3dy5jZGlzYy5vcmcvQzEzMDI3My9WNTAjQzEzMDI3Mw==
  :last_id: ''
- :identifier: :C130240
  :label: Vignos Lower Extremity Rating Scale Clinical Classification Test Name
  :notation: VLERS1TN
  :id: aHR0cDovL3d3dy5jZGlzYy5vcmcvQzEzMDI0MC9WNTAjQzEzMDI0MA==
  :last_id: ''
- :identifier: :C130271
  :label: World Health Organization Disability Assessment Schedule 2.0 - 36-Item Proxy
    Questionnaire Test Code
  :notation: WD6TC
  :id: aHR0cDovL3d3dy5jZGlzYy5vcmcvQzEzMDI3MS9WNTAjQzEzMDI3MQ==
  :last_id: ''
- :identifier: :C130267
  :label: Quality Of Life Enjoyment And Satisfaction Questionnaire - Short Form Test
    Code
  :notation: QLES2TC
  :id: aHR0cDovL3d3dy5jZGlzYy5vcmcvQzEzMDI2Ny9WNTAjQzEzMDI2Nw==
  :last_id: ''
- :identifier: :C130247
  :label: Inventory of Depressive Symptomatology Clinician-Rated Version Clinical
    Classification Test Code
  :notation: IDSC1TC
  :id: aHR0cDovL3d3dy5jZGlzYy5vcmcvQzEzMDI0Ny9WNTAjQzEzMDI0Nw==
  :last_id: ''
- :identifier: :C130260
  :label: Inventory of Depressive Symptomatology Self-Report Version Questionnaire
    Test Name
  :notation: IDSR1TN
  :id: aHR0cDovL3d3dy5jZGlzYy5vcmcvQzEzMDI2MC9WNTAjQzEzMDI2MA==
  :last_id: ''
- :identifier: :C130281
  :label: World Health Organization Disability Assessment Schedule 2.0 - 12 + 24-Item
    Interviewer Questionnaire Test Code
  :notation: WD4TC
  :id: aHR0cDovL3d3dy5jZGlzYy5vcmcvQzEzMDI4MS9WNTAjQzEzMDI4MQ==
  :last_id: ''
- :identifier: :C129938
  :label: Device-In-Use Response
  :notation: DURS
  :id: aHR0cDovL3d3dy5jZGlzYy5vcmcvQzEyOTkzOC9WNTAjQzEyOTkzOA==
  :last_id: ''
- :identifier: :C130270
  :label: World Health Organization Disability Assessment Schedule 2.0 - 36-Item Proxy
    Questionnaire Test Name
  :notation: WD6TN
  :id: aHR0cDovL3d3dy5jZGlzYy5vcmcvQzEzMDI3MC9WNTAjQzEzMDI3MA==
  :last_id: ''
- :identifier: :C130251
  :label: Kidney Donor Profile Index Clinical Classification Test Code
  :notation: KDPI01TC
  :id: aHR0cDovL3d3dy5jZGlzYy5vcmcvQzEzMDI1MS9WNTAjQzEzMDI1MQ==
  :last_id: ''
- :identifier: :C130255
  :label: Functional Assessment of Cancer Therapy-Hepatobiliary Version 4 Questionnaire
    Test Code
  :notation: FAC015TC
  :id: aHR0cDovL3d3dy5jZGlzYy5vcmcvQzEzMDI1NS9WNTAjQzEzMDI1NQ==
  :last_id: ''
- :identifier: :C130257
  :label: Functional Assessment of Cancer Therapy-Lymphoma Version 4 Questionnaire
    Test Code
  :notation: FAC018TC
  :id: aHR0cDovL3d3dy5jZGlzYy5vcmcvQzEzMDI1Ny9WNTAjQzEzMDI1Nw==
  :last_id: ''
- :identifier: :C130249
  :label: Quick Inventory of Depressive Symptomatology Clinician-Rated Version Clinical
    Classification Test Code
  :notation: QIDSC1TC
  :id: aHR0cDovL3d3dy5jZGlzYy5vcmcvQzEzMDI0OS9WNTAjQzEzMDI0OQ==
  :last_id: ''
- :identifier: :C130261
  :label: Inventory of Depressive Symptomatology Self-Report Version Questionnaire
    Test Code
  :notation: IDSR1TC
  :id: aHR0cDovL3d3dy5jZGlzYy5vcmcvQzEzMDI2MS9WNTAjQzEzMDI2MQ==
  :last_id: ''
- :identifier: :C130268
  :label: World Health Organization Disability Assessment Schedule 2.0 - 36-Item Interviewer
    Questionnaire Test Name
  :notation: WD5TN
  :id: aHR0cDovL3d3dy5jZGlzYy5vcmcvQzEzMDI2OC9WNTAjQzEzMDI2OA==
  :last_id: ''
- :identifier: :C130239
  :label: Brooke Upper Extremity Rating Scale Clinical Classification Test Code
  :notation: BUERS1TC
  :id: aHR0cDovL3d3dy5jZGlzYy5vcmcvQzEzMDIzOS9WNTAjQzEzMDIzOQ==
  :last_id: ''
- :identifier: :C130278
  :label: World Health Organization Disability Assessment Schedule 2.0 - 12-Item Self
    Questionnaire Test Name
  :notation: WD3TN
  :id: aHR0cDovL3d3dy5jZGlzYy5vcmcvQzEzMDI3OC9WNTAjQzEzMDI3OA==
  :last_id: ''
- :identifier: :C130272
  :label: World Health Organization Disability Assessment Schedule 2.0 - 36-Item Self
    Questionnaire Test Name
  :notation: WD7TN
  :id: aHR0cDovL3d3dy5jZGlzYy5vcmcvQzEzMDI3Mi9WNTAjQzEzMDI3Mg==
  :last_id: ''
- :identifier: :C130256
  :label: Functional Assessment of Cancer Therapy-Lymphoma Version 4 Questionnaire
    Test Name
  :notation: FAC018TN
  :id: aHR0cDovL3d3dy5jZGlzYy5vcmcvQzEzMDI1Ni9WNTAjQzEzMDI1Ng==
  :last_id: ''
- :identifier: :C130245
  :label: Hamilton Depression Rating Scale - 24 Item Clinical Classification Test
    Code
  :notation: HAMD3TC
  :id: aHR0cDovL3d3dy5jZGlzYy5vcmcvQzEzMDI0NS9WNTAjQzEzMDI0NQ==
  :last_id: ''
- :identifier: :C130259
  :label: Hamilton Depression Rating Scale - 6 Self-Report Questionnaire Test Code
  :notation: HAMDS1TC
  :id: aHR0cDovL3d3dy5jZGlzYy5vcmcvQzEzMDI1OS9WNTAjQzEzMDI1OQ==
  :last_id: ''
- :identifier: :C130243
  :label: Hamilton Depression Rating Scale - 6 Clinician Version Clinical Classification
    Test Code
  :notation: HAMD4TC
  :id: aHR0cDovL3d3dy5jZGlzYy5vcmcvQzEzMDI0My9WNTAjQzEzMDI0Mw==
  :last_id: ''
- :identifier: :C130277
  :label: World Health Organization Disability Assessment Schedule 2.0 - 12-Item Proxy
    Questionnaire Test Code
  :notation: WD2TC
  :id: aHR0cDovL3d3dy5jZGlzYy5vcmcvQzEzMDI3Ny9WNTAjQzEzMDI3Nw==
  :last_id: ''
- :identifier: :C130275
  :label: World Health Organization Disability Assessment Schedule 2.0 - 12-Item Interviewer
    Questionnaire Test Code
  :notation: WD1TC
  :id: aHR0cDovL3d3dy5jZGlzYy5vcmcvQzEzMDI3NS9WNTAjQzEzMDI3NQ==
  :last_id: ''
- :identifier: :C130264
  :label: Quality Of Life Enjoyment And Satisfaction Questionnaire Test Name
  :notation: QLES1TN
  :id: aHR0cDovL3d3dy5jZGlzYy5vcmcvQzEzMDI2NC9WNTAjQzEzMDI2NA==
  :last_id: ''
- :identifier: :C130242
  :label: Hamilton Depression Rating Scale - 6 Clinician Version Clinical Classification
    Test Name
  :notation: HAMD4TN
  :id: aHR0cDovL3d3dy5jZGlzYy5vcmcvQzEzMDI0Mi9WNTAjQzEzMDI0Mg==
  :last_id: ''
- :identifier: :C130262
  :label: Quick Inventory of Depressive Symptomatology Self-Report Version Questionnaire
    Test Name
  :notation: QIDSR1TN
  :id: aHR0cDovL3d3dy5jZGlzYy5vcmcvQzEzMDI2Mi9WNTAjQzEzMDI2Mg==
  :last_id: ''
- :identifier: :C130254
  :label: Functional Assessment of Cancer Therapy-Hepatobiliary Version 4 Questionnaire
    Test Name
  :notation: FAC015TN
  :id: aHR0cDovL3d3dy5jZGlzYy5vcmcvQzEzMDI1NC9WNTAjQzEzMDI1NA==
  :last_id: ''
- :identifier: :C130265
  :label: Quality Of Life Enjoyment And Satisfaction Questionnaire Test Code
  :notation: QLES1TC
  :id: aHR0cDovL3d3dy5jZGlzYy5vcmcvQzEzMDI2NS9WNTAjQzEzMDI2NQ==
  :last_id: ''
- :identifier: :C130248
  :label: Quick Inventory of Depressive Symptomatology Clinician-Rated Version Clinical
    Classification Test Name
  :notation: QIDSC1TN
  :id: aHR0cDovL3d3dy5jZGlzYy5vcmcvQzEzMDI0OC9WNTAjQzEzMDI0OA==
  :last_id: ''
:deleted:
- :identifier: :C102589
  :label: Treatment Episode
  :notation: TRTEPSD
  :id: aHR0cDovL3d3dy5jZGlzYy5vcmcvQzEwMjU4OS9WMzIjQzEwMjU4OQ==
  :last_id: ''
- :identifier: :C114116
  :label: Morphology Test Name
  :notation: MOTEST
  :id: aHR0cDovL3d3dy5jZGlzYy5vcmcvQzExNDExNi9WNDQjQzExNDExNg==
  :last_id: ''
- :identifier: :C102588
  :label: Contact Setting
  :notation: SETCON
  :id: aHR0cDovL3d3dy5jZGlzYy5vcmcvQzEwMjU4OC9WMzIjQzEwMjU4OA==
  :last_id: ''
- :identifier: :C101853
  :label: Cardiac Valvular Regurgitation Severity
  :notation: CVLVRSEV
  :id: aHR0cDovL3d3dy5jZGlzYy5vcmcvQzEwMTg1My9WMzMjQzEwMTg1Mw==
  :last_id: ''
- :identifier: :C116109
  :label: Viral Resistance Findings Test Name
  :notation: VRTEST
  :id: aHR0cDovL3d3dy5jZGlzYy5vcmcvQzExNjEwOS9WNDMjQzExNjEwOQ==
  :last_id: ''
- :identifier: :C101832
  :label: Findings About Test Code
  :notation: FATESTCD
  :id: aHR0cDovL3d3dy5jZGlzYy5vcmcvQzEwMTgzMi9WMzMjQzEwMTgzMg==
  :last_id: ''
- :identifier: :C101854
  :label: Cardiac Valvular Stenosis Severity
  :notation: CVLSTSEV
  :id: aHR0cDovL3d3dy5jZGlzYy5vcmcvQzEwMTg1NC9WMzMjQzEwMTg1NA==
  :last_id: ''
- :identifier: :C101833
  :label: Findings About Test Name
  :notation: FATEST
  :id: aHR0cDovL3d3dy5jZGlzYy5vcmcvQzEwMTgzMy9WMzMjQzEwMTgzMw==
  :last_id: ''
- :identifier: :C116110
  :label: Viral Resistance Findings Test Code
  :notation: VRTESTCD
  :id: aHR0cDovL3d3dy5jZGlzYy5vcmcvQzExNjExMC9WNDMjQzExNjExMA==
  :last_id: ''
- :identifier: :C114117
  :label: Morphology Test Code
  :notation: MOTESTCD
  :id: aHR0cDovL3d3dy5jZGlzYy5vcmcvQzExNDExNy9WNDQjQzExNDExNw==
  :last_id: ''
- :identifier: :C102586
  :label: Reason Treatment Not Administered
  :notation: RSTRTNA
  :id: aHR0cDovL3d3dy5jZGlzYy5vcmcvQzEwMjU4Ni9WMzUjQzEwMjU4Ng==
  :last_id: ''
- :identifier: :C102576
  :label: Directly Observed Therapy Location
  :notation: DOBSTLOC
  :id: aHR0cDovL3d3dy5jZGlzYy5vcmcvQzEwMjU3Ni9WMzIjQzEwMjU3Ng==
  :last_id: ''
- :identifier: :C102585
  :label: Treatment Failure Reason
  :notation: REASTRTF
  :id: aHR0cDovL3d3dy5jZGlzYy5vcmcvQzEwMjU4NS9WMzIjQzEwMjU4NQ==
  :last_id: ''
:updated:
- :identifier: :C66739
  :label: Trial Type
  :notation: TTYPE
  :id: aHR0cDovL3d3dy5jZGlzYy5vcmcvQzY2NzM5L1Y0MyNDNjY3Mzk=
  :last_id: aHR0cDovL3d3dy5jZGlzYy5vcmcvQzY2NzM5L1Y0OSNDNjY3Mzk=
- :identifier: :C78427
  :label: Unit for the Duration of Treatment Interruption
  :notation: EXINTPU
  :id: aHR0cDovL3d3dy5jZGlzYy5vcmcvQzc4NDI3L1YyNSNDNzg0Mjc=
  :last_id: aHR0cDovL3d3dy5jZGlzYy5vcmcvQzc4NDI3L1Y0OSNDNzg0Mjc=
- :identifier: :C103330
  :label: Subject Characteristic Test Name
  :notation: SCTEST
  :id: aHR0cDovL3d3dy5jZGlzYy5vcmcvQzEwMzMzMC9WNDYjQzEwMzMzMA==
  :last_id: aHR0cDovL3d3dy5jZGlzYy5vcmcvQzEwMzMzMC9WNDkjQzEwMzMzMA==
- :identifier: :C66741
  :label: Vital Signs Test Code
  :notation: VSTESTCD
  :id: aHR0cDovL3d3dy5jZGlzYy5vcmcvQzY2NzQxL1Y0NyNDNjY3NDE=
  :last_id: aHR0cDovL3d3dy5jZGlzYy5vcmcvQzY2NzQxL1Y0OSNDNjY3NDE=
- :identifier: :C111107
  :label: Respiratory Test Name
  :notation: RETEST
  :id: aHR0cDovL3d3dy5jZGlzYy5vcmcvQzExMTEwNy9WNDcjQzExMTEwNw==
  :last_id: aHR0cDovL3d3dy5jZGlzYy5vcmcvQzExMTEwNy9WNTAjQzExMTEwNw==
- :identifier: :C116103
  :label: Nervous System Physiology Test Name
  :notation: NVTEST
  :id: aHR0cDovL3d3dy5jZGlzYy5vcmcvQzExNjEwMy9WNDAjQzExNjEwMw==
  :last_id: aHR0cDovL3d3dy5jZGlzYy5vcmcvQzExNjEwMy9WNTAjQzExNjEwMw==
- :identifier: :C89973
  :label: Microscopic Findings Test Name
  :notation: MITEST
  :id: aHR0cDovL3d3dy5jZGlzYy5vcmcvQzg5OTczL1Y0NSNDODk5NzM=
  :last_id: aHR0cDovL3d3dy5jZGlzYy5vcmcvQzg5OTczL1Y0OCNDODk5NzM=
- :identifier: :C124299
  :label: Biospecimen Characteristics Test Name
  :notation: BSTEST
  :id: aHR0cDovL3d3dy5jZGlzYy5vcmcvQzEyNDI5OS9WNDYjQzEyNDI5OQ==
  :last_id: aHR0cDovL3d3dy5jZGlzYy5vcmcvQzEyNDI5OS9WNTAjQzEyNDI5OQ==
- :identifier: :C100129
  :label: Category of Questionnaire
  :notation: QSCAT
  :id: aHR0cDovL3d3dy5jZGlzYy5vcmcvQzEwMDEyOS9WNDcjQzEwMDEyOQ==
  :last_id: aHR0cDovL3d3dy5jZGlzYy5vcmcvQzEwMDEyOS9WNTAjQzEwMDEyOQ==
- :identifier: :C78745
  :label: Exposure Dosing Frequency per Interval
  :notation: EXDOSFRQ
  :id: aHR0cDovL3d3dy5jZGlzYy5vcmcvQzc4NzQ1L1Y0MyNDNzg3NDU=
  :last_id: aHR0cDovL3d3dy5jZGlzYy5vcmcvQzc4NzQ1L1Y0OSNDNzg3NDU=
- :identifier: :C78417
  :label: Concomitant Medication Dose Units
  :notation: CMDOSU
  :id: aHR0cDovL3d3dy5jZGlzYy5vcmcvQzc4NDE3L1Y0NyNDNzg0MTc=
  :last_id: aHR0cDovL3d3dy5jZGlzYy5vcmcvQzc4NDE3L1Y1MCNDNzg0MTc=
- :identifier: :C117742
  :label: Ophthalmic Exam Test Name
  :notation: OETEST
  :id: aHR0cDovL3d3dy5jZGlzYy5vcmcvQzExNzc0Mi9WNDQjQzExNzc0Mg==
  :last_id: aHR0cDovL3d3dy5jZGlzYy5vcmcvQzExNzc0Mi9WNDkjQzExNzc0Mg==
- :identifier: :C66729
  :label: Route of Administration
  :notation: ROUTE
  :id: aHR0cDovL3d3dy5jZGlzYy5vcmcvQzY2NzI5L1Y0MiNDNjY3Mjk=
  :last_id: aHR0cDovL3d3dy5jZGlzYy5vcmcvQzY2NzI5L1Y0OSNDNjY3Mjk=
- :identifier: :C66733
  :label: Size
  :notation: SIZE
  :id: aHR0cDovL3d3dy5jZGlzYy5vcmcvQzY2NzMzL1Y0I0M2NjczMw==
  :last_id: aHR0cDovL3d3dy5jZGlzYy5vcmcvQzY2NzMzL1Y0OSNDNjY3MzM=
- :identifier: :C74457
  :label: Race
  :notation: RACE
  :id: aHR0cDovL3d3dy5jZGlzYy5vcmcvQzc0NDU3L1YzNCNDNzQ0NTc=
  :last_id: aHR0cDovL3d3dy5jZGlzYy5vcmcvQzc0NDU3L1Y0OSNDNzQ0NTc=
- :identifier: :C85492
  :label: Method
  :notation: METHOD
  :id: aHR0cDovL3d3dy5jZGlzYy5vcmcvQzg1NDkyL1Y0NyNDODU0OTI=
  :last_id: aHR0cDovL3d3dy5jZGlzYy5vcmcvQzg1NDkyL1Y1MCNDODU0OTI=
- :identifier: :C118971
  :label: Category of Clinical Classification
  :notation: CCCAT
  :id: aHR0cDovL3d3dy5jZGlzYy5vcmcvQzExODk3MS9WNDcjQzExODk3MQ==
  :last_id: aHR0cDovL3d3dy5jZGlzYy5vcmcvQzExODk3MS9WNTAjQzExODk3MQ==
- :identifier: :C71150
  :label: ECG Result
  :notation: EGSTRESC
  :id: aHR0cDovL3d3dy5jZGlzYy5vcmcvQzcxMTUwL1Y0NCNDNzExNTA=
  :last_id: aHR0cDovL3d3dy5jZGlzYy5vcmcvQzcxMTUwL1Y1MCNDNzExNTA=
- :identifier: :C96783
  :label: Tumor Identification Test Name
  :notation: TUTEST
  :id: aHR0cDovL3d3dy5jZGlzYy5vcmcvQzk2NzgzL1Y0NSNDOTY3ODM=
  :last_id: aHR0cDovL3d3dy5jZGlzYy5vcmcvQzk2NzgzL1Y0OSNDOTY3ODM=
- :identifier: :C81224
  :label: Derivation Type
  :notation: DTYPE
  :id: aHR0cDovL3d3dy5jZGlzYy5vcmcvQzgxMjI0L1Y0NyNDODEyMjQ=
  :last_id: aHR0cDovL3d3dy5jZGlzYy5vcmcvQzgxMjI0L1Y1MCNDODEyMjQ=
- :identifier: :C78423
  :label: Units for Exposure
  :notation: EXDOSU
  :id: aHR0cDovL3d3dy5jZGlzYy5vcmcvQzc4NDIzL1Y0NyNDNzg0MjM=
  :last_id: aHR0cDovL3d3dy5jZGlzYy5vcmcvQzc4NDIzL1Y1MCNDNzg0MjM=
- :identifier: :C66738
  :label: Trial Summary Parameter Test Code
  :notation: TSPARMCD
  :id: aHR0cDovL3d3dy5jZGlzYy5vcmcvQzY2NzM4L1Y0NyNDNjY3Mzg=
  :last_id: aHR0cDovL3d3dy5jZGlzYy5vcmcvQzY2NzM4L1Y1MCNDNjY3Mzg=
- :identifier: :C99077
  :label: Study Type
  :notation: STYPE
  :id: aHR0cDovL3d3dy5jZGlzYy5vcmcvQzk5MDc3L1YyOCNDOTkwNzc=
  :last_id: aHR0cDovL3d3dy5jZGlzYy5vcmcvQzk5MDc3L1Y0OSNDOTkwNzc=
- :identifier: :C66734
  :label: SDTM Domain Abbreviation
  :notation: DOMAIN
  :id: aHR0cDovL3d3dy5jZGlzYy5vcmcvQzY2NzM0L1Y0MyNDNjY3MzQ=
  :last_id: aHR0cDovL3d3dy5jZGlzYy5vcmcvQzY2NzM0L1Y1MCNDNjY3MzQ=
- :identifier: :C85494
  :label: PK Units of Measure
  :notation: PKUNIT
  :id: aHR0cDovL3d3dy5jZGlzYy5vcmcvQzg1NDk0L1Y0NyNDODU0OTQ=
  :last_id: aHR0cDovL3d3dy5jZGlzYy5vcmcvQzg1NDk0L1Y1MCNDODU0OTQ=
- :identifier: :C85491
  :label: Microorganism
  :notation: MICROORG
  :id: aHR0cDovL3d3dy5jZGlzYy5vcmcvQzg1NDkxL1Y0NyNDODU0OTE=
  :last_id: aHR0cDovL3d3dy5jZGlzYy5vcmcvQzg1NDkxL1Y1MCNDODU0OTE=
- :identifier: :C67154
  :label: Laboratory Test Name
  :notation: LBTEST
  :id: aHR0cDovL3d3dy5jZGlzYy5vcmcvQzY3MTU0L1Y0NyNDNjcxNTQ=
  :last_id: aHR0cDovL3d3dy5jZGlzYy5vcmcvQzY3MTU0L1Y1MCNDNjcxNTQ=
- :identifier: :C66781
  :label: Age Unit
  :notation: AGEU
  :id: aHR0cDovL3d3dy5jZGlzYy5vcmcvQzY2NzgxL1YzNiNDNjY3ODE=
  :last_id: aHR0cDovL3d3dy5jZGlzYy5vcmcvQzY2NzgxL1Y0OSNDNjY3ODE=
- :identifier: :C78422
  :label: ECG Original Units
  :notation: EGORRESU
  :id: aHR0cDovL3d3dy5jZGlzYy5vcmcvQzc4NDIyL1Y0NyNDNzg0MjI=
  :last_id: aHR0cDovL3d3dy5jZGlzYy5vcmcvQzc4NDIyL1Y0OSNDNzg0MjI=
- :identifier: :C66770
  :label: Units for Vital Signs Results
  :notation: VSRESU
  :id: aHR0cDovL3d3dy5jZGlzYy5vcmcvQzY2NzcwL1Y0NCNDNjY3NzA=
  :last_id: aHR0cDovL3d3dy5jZGlzYy5vcmcvQzY2NzcwL1Y1MCNDNjY3NzA=
- :identifier: :C112023
  :label: Skin Response Test Name
  :notation: SRTEST
  :id: aHR0cDovL3d3dy5jZGlzYy5vcmcvQzExMjAyMy9WNDQjQzExMjAyMw==
  :last_id: aHR0cDovL3d3dy5jZGlzYy5vcmcvQzExMjAyMy9WNTAjQzExMjAyMw==
- :identifier: :C106667
  :label: Health Assessment Questionnaire Disability Index Test Code
  :notation: HAQ-DI TESTCD
  :id: aHR0cDovL3d3dy5jZGlzYy5vcmcvQzEwNjY2Ny9WNDcjQzEwNjY2Nw==
  :last_id: aHR0cDovL3d3dy5jZGlzYy5vcmcvQzEwNjY2Ny9WNTAjQzEwNjY2Nw==
- :identifier: :C74456
  :label: Anatomical Location
  :notation: LOC
  :id: aHR0cDovL3d3dy5jZGlzYy5vcmcvQzc0NDU2L1Y0NyNDNzQ0NTY=
  :last_id: aHR0cDovL3d3dy5jZGlzYy5vcmcvQzc0NDU2L1Y1MCNDNzQ0NTY=
- :identifier: :C100137
  :label: Hamilton Depression Rating Scale - 17 Item Test Name
  :notation: HAMD 17 TEST
  :id: aHR0cDovL3d3dy5jZGlzYy5vcmcvQzEwMDEzNy9WNDcjQzEwMDEzNw==
  :last_id: aHR0cDovL3d3dy5jZGlzYy5vcmcvQzEwMDEzNy9WNDgjQzEwMDEzNw==
- :identifier: :C66787
  :label: Diagnosis Group
  :notation: TDIGRP
  :id: aHR0cDovL3d3dy5jZGlzYy5vcmcvQzY2Nzg3L1YxNiNDNjY3ODc=
  :last_id: aHR0cDovL3d3dy5jZGlzYy5vcmcvQzY2Nzg3L1Y1MCNDNjY3ODc=
- :identifier: :C119016
  :label: Cardiovascular Findings About Results
  :notation: CVFARS
  :id: aHR0cDovL3d3dy5jZGlzYy5vcmcvQzExOTAxNi9WNDUjQzExOTAxNg==
  :last_id: aHR0cDovL3d3dy5jZGlzYy5vcmcvQzExOTAxNi9WNDgjQzExOTAxNg==
- :identifier: :C106482
  :label: Device-In-Use Test Name
  :notation: DUTEST
  :id: aHR0cDovL3d3dy5jZGlzYy5vcmcvQzEwNjQ4Mi9WNDIjQzEwNjQ4Mg==
  :last_id: aHR0cDovL3d3dy5jZGlzYy5vcmcvQzEwNjQ4Mi9WNTAjQzEwNjQ4Mg==
- :identifier: :C65047
  :label: Laboratory Test Code
  :notation: LBTESTCD
  :id: aHR0cDovL3d3dy5jZGlzYy5vcmcvQzY1MDQ3L1Y0NyNDNjUwNDc=
  :last_id: aHR0cDovL3d3dy5jZGlzYy5vcmcvQzY1MDQ3L1Y1MCNDNjUwNDc=
- :identifier: :C66786
  :label: Country
  :notation: COUNTRY
  :id: aHR0cDovL3d3dy5jZGlzYy5vcmcvQzY2Nzg2L1Y0NSNDNjY3ODY=
  :last_id: aHR0cDovL3d3dy5jZGlzYy5vcmcvQzY2Nzg2L1Y0OCNDNjY3ODY=
- :identifier: :C67153
  :label: Vital Signs Test Name
  :notation: VSTEST
  :id: aHR0cDovL3d3dy5jZGlzYy5vcmcvQzY3MTUzL1Y0NyNDNjcxNTM=
  :last_id: aHR0cDovL3d3dy5jZGlzYy5vcmcvQzY3MTUzL1Y0OSNDNjcxNTM=
- :identifier: :C120527
  :label: Microbiology Test Code
  :notation: MBTESTCD
  :id: aHR0cDovL3d3dy5jZGlzYy5vcmcvQzEyMDUyNy9WNDMjQzEyMDUyNw==
  :last_id: aHR0cDovL3d3dy5jZGlzYy5vcmcvQzEyMDUyNy9WNTAjQzEyMDUyNw==
- :identifier: :C124297
  :label: Biospecimen Events Dictionary Derived Term
  :notation: BEDECOD
  :id: aHR0cDovL3d3dy5jZGlzYy5vcmcvQzEyNDI5Ny9WNDcjQzEyNDI5Nw==
  :last_id: aHR0cDovL3d3dy5jZGlzYy5vcmcvQzEyNDI5Ny9WNDkjQzEyNDI5Nw==
- :identifier: :C116111
  :label: SDTM Species
  :notation: SPCIES
  :id: aHR0cDovL3d3dy5jZGlzYy5vcmcvQzExNjExMS9WNDYjQzExNjExMQ==
  :last_id: aHR0cDovL3d3dy5jZGlzYy5vcmcvQzExNjExMS9WNTAjQzExNjExMQ==
- :identifier: :C120528
  :label: Microbiology Test Name
  :notation: MBTEST
  :id: aHR0cDovL3d3dy5jZGlzYy5vcmcvQzEyMDUyOC9WNDMjQzEyMDUyOA==
  :last_id: aHR0cDovL3d3dy5jZGlzYy5vcmcvQzEyMDUyOC9WNTAjQzEyMDUyOA==
- :identifier: :C96785
  :label: Oncology Response Assessment Result
  :notation: ONCRSR
  :id: aHR0cDovL3d3dy5jZGlzYy5vcmcvQzk2Nzg1L1Y0NiNDOTY3ODU=
  :last_id: aHR0cDovL3d3dy5jZGlzYy5vcmcvQzk2Nzg1L1Y1MCNDOTY3ODU=
- :identifier: :C78733
  :label: Specimen Condition
  :notation: SPECCOND
  :id: aHR0cDovL3d3dy5jZGlzYy5vcmcvQzc4NzMzL1Y0MyNDNzg3MzM=
  :last_id: aHR0cDovL3d3dy5jZGlzYy5vcmcvQzc4NzMzL1Y0OSNDNzg3MzM=
- :identifier: :C66727
  :label: Completion/Reason for Non-Completion
  :notation: NCOMPLT
  :id: aHR0cDovL3d3dy5jZGlzYy5vcmcvQzY2NzI3L1Y0NSNDNjY3Mjc=
  :last_id: aHR0cDovL3d3dy5jZGlzYy5vcmcvQzY2NzI3L1Y0OSNDNjY3Mjc=
- :identifier: :C76348
  :label: Marital Status
  :notation: MARISTAT
  :id: aHR0cDovL3d3dy5jZGlzYy5vcmcvQzc2MzQ4L1YzMCNDNzYzNDg=
  :last_id: aHR0cDovL3d3dy5jZGlzYy5vcmcvQzc2MzQ4L1Y0OSNDNzYzNDg=
- :identifier: :C100130
  :label: Relationship to Subject
  :notation: RELSUB
  :id: aHR0cDovL3d3dy5jZGlzYy5vcmcvQzEwMDEzMC9WNDMjQzEwMDEzMA==
  :last_id: aHR0cDovL3d3dy5jZGlzYy5vcmcvQzEwMDEzMC9WNTAjQzEwMDEzMA==
- :identifier: :C106666
  :label: Health Assessment Questionnaire Disability Index Test Name
  :notation: HAQ-DI TEST
  :id: aHR0cDovL3d3dy5jZGlzYy5vcmcvQzEwNjY2Ni9WNDcjQzEwNjY2Ng==
  :last_id: aHR0cDovL3d3dy5jZGlzYy5vcmcvQzEwNjY2Ni9WNTAjQzEwNjY2Ng==
- :identifier: :C71113
  :label: Frequency
  :notation: FREQ
  :id: aHR0cDovL3d3dy5jZGlzYy5vcmcvQzcxMTEzL1Y0MyNDNzExMTM=
  :last_id: aHR0cDovL3d3dy5jZGlzYy5vcmcvQzcxMTEzL1Y0OSNDNzExMTM=
- :identifier: :C88025
  :label: Neoplasm Type
  :notation: NEOPLASM
  :id: aHR0cDovL3d3dy5jZGlzYy5vcmcvQzg4MDI1L1Y0NyNDODgwMjU=
  :last_id: aHR0cDovL3d3dy5jZGlzYy5vcmcvQzg4MDI1L1Y1MCNDODgwMjU=
- :identifier: :C78734
  :label: Specimen Type
  :notation: SPECTYPE
  :id: aHR0cDovL3d3dy5jZGlzYy5vcmcvQzc4NzM0L1Y0NyNDNzg3MzQ=
  :last_id: aHR0cDovL3d3dy5jZGlzYy5vcmcvQzc4NzM0L1Y0OCNDNzg3MzQ=
- :identifier: :C101817
  :label: European Quality of Life Five Dimension Five Level Scale Test Code
  :notation: EQ-5D-5L TESTCD
  :id: aHR0cDovL3d3dy5jZGlzYy5vcmcvQzEwMTgxNy9WNDcjQzEwMTgxNw==
  :last_id: aHR0cDovL3d3dy5jZGlzYy5vcmcvQzEwMTgxNy9WNTAjQzEwMTgxNw==
- :identifier: :C123650
  :label: Tumor and Lesion Identification Test Results
  :notation: TUIDRS
  :id: aHR0cDovL3d3dy5jZGlzYy5vcmcvQzEyMzY1MC9WNDYjQzEyMzY1MA==
  :last_id: aHR0cDovL3d3dy5jZGlzYy5vcmcvQzEyMzY1MC9WNDkjQzEyMzY1MA==
- :identifier: :C124309
  :label: Tumor or Lesion Properties Test Result
  :notation: TRPROPRS
  :id: aHR0cDovL3d3dy5jZGlzYy5vcmcvQzEyNDMwOS9WNDcjQzEyNDMwOQ==
  :last_id: aHR0cDovL3d3dy5jZGlzYy5vcmcvQzEyNDMwOS9WNDgjQzEyNDMwOQ==
- :identifier: :C99078
  :label: Intervention Type
  :notation: INTTYPE
  :id: aHR0cDovL3d3dy5jZGlzYy5vcmcvQzk5MDc4L1YzMyNDOTkwNzg=
  :last_id: aHR0cDovL3d3dy5jZGlzYy5vcmcvQzk5MDc4L1Y0OSNDOTkwNzg=
- :identifier: :C78429
  :label: Unit of Measure for Flow Rate
  :notation: EXFLRTU
  :id: aHR0cDovL3d3dy5jZGlzYy5vcmcvQzc4NDI5L1Y0NyNDNzg0Mjk=
  :last_id: aHR0cDovL3d3dy5jZGlzYy5vcmcvQzc4NDI5L1Y1MCNDNzg0Mjk=
- :identifier: :C116106
  :label: Pharmacogenomics Findings Test Code
  :notation: PFTESTCD
  :id: aHR0cDovL3d3dy5jZGlzYy5vcmcvQzExNjEwNi9WMzkjQzExNjEwNg==
  :last_id: aHR0cDovL3d3dy5jZGlzYy5vcmcvQzExNjEwNi9WNDkjQzExNjEwNg==
- :identifier: :C66785
  :label: Control Type
  :notation: TCNTRL
  :id: aHR0cDovL3d3dy5jZGlzYy5vcmcvQzY2Nzg1L1Y0MyNDNjY3ODU=
  :last_id: aHR0cDovL3d3dy5jZGlzYy5vcmcvQzY2Nzg1L1Y0OSNDNjY3ODU=
- :identifier: :C116105
  :label: Pharmacogenomics Findings Test Name
  :notation: PFTEST
  :id: aHR0cDovL3d3dy5jZGlzYy5vcmcvQzExNjEwNS9WMzkjQzExNjEwNQ==
  :last_id: aHR0cDovL3d3dy5jZGlzYy5vcmcvQzExNjEwNS9WNDkjQzExNjEwNQ==
- :identifier: :C66732
  :label: Sex of Participants
  :notation: SEXPOP
  :id: aHR0cDovL3d3dy5jZGlzYy5vcmcvQzY2NzMyL1YxNiNDNjY3MzI=
  :last_id: aHR0cDovL3d3dy5jZGlzYy5vcmcvQzY2NzMyL1Y0OSNDNjY3MzI=
- :identifier: :C76351
  :label: Skin Classification
  :notation: SKINCLAS
  :id: aHR0cDovL3d3dy5jZGlzYy5vcmcvQzc2MzUxL1Y0NCNDNzYzNTE=
  :last_id: aHR0cDovL3d3dy5jZGlzYy5vcmcvQzc2MzUxL1Y0OSNDNzYzNTE=
- :identifier: :C74559
  :label: Subject Characteristic Test Code
  :notation: SCTESTCD
  :id: aHR0cDovL3d3dy5jZGlzYy5vcmcvQzc0NTU5L1Y0NiNDNzQ1NTk=
  :last_id: aHR0cDovL3d3dy5jZGlzYy5vcmcvQzc0NTU5L1Y0OSNDNzQ1NTk=
- :identifier: :C78430
  :label: Units for Planned Exposure
  :notation: EXPDOSEU
  :id: aHR0cDovL3d3dy5jZGlzYy5vcmcvQzc4NDMwL1Y0NyNDNzg0MzA=
  :last_id: aHR0cDovL3d3dy5jZGlzYy5vcmcvQzc4NDMwL1Y1MCNDNzg0MzA=
- :identifier: :C124298
  :label: Category of Oncology Response Assessment
  :notation: ONCRSCAT
  :id: aHR0cDovL3d3dy5jZGlzYy5vcmcvQzEyNDI5OC9WNDcjQzEyNDI5OA==
  :last_id: aHR0cDovL3d3dy5jZGlzYy5vcmcvQzEyNDI5OC9WNDkjQzEyNDI5OA==
- :identifier: :C96784
  :label: Tumor Identification Test Code
  :notation: TUTESTCD
  :id: aHR0cDovL3d3dy5jZGlzYy5vcmcvQzk2Nzg0L1Y0NSNDOTY3ODQ=
  :last_id: aHR0cDovL3d3dy5jZGlzYy5vcmcvQzk2Nzg0L1Y0OSNDOTY3ODQ=
- :identifier: :C71620
  :label: Unit
  :notation: UNIT
  :id: aHR0cDovL3d3dy5jZGlzYy5vcmcvQzcxNjIwL1Y0NyNDNzE2MjA=
  :last_id: aHR0cDovL3d3dy5jZGlzYy5vcmcvQzcxNjIwL1Y1MCNDNzE2MjA=
- :identifier: :C99076
  :label: Intervention Model
  :notation: INTMODEL
  :id: aHR0cDovL3d3dy5jZGlzYy5vcmcvQzk5MDc2L1YyOCNDOTkwNzY=
  :last_id: aHR0cDovL3d3dy5jZGlzYy5vcmcvQzk5MDc2L1Y0OSNDOTkwNzY=
- :identifier: :C89974
  :label: Microscopic Findings Test Code
  :notation: MITESTCD
  :id: aHR0cDovL3d3dy5jZGlzYy5vcmcvQzg5OTc0L1Y0NSNDODk5NzQ=
  :last_id: aHR0cDovL3d3dy5jZGlzYy5vcmcvQzg5OTc0L1Y0OCNDODk5NzQ=
- :identifier: :C111106
  :label: Respiratory Test Code
  :notation: RETESTCD
  :id: aHR0cDovL3d3dy5jZGlzYy5vcmcvQzExMTEwNi9WNDcjQzExMTEwNg==
  :last_id: aHR0cDovL3d3dy5jZGlzYy5vcmcvQzExMTEwNi9WNTAjQzExMTEwNg==
- :identifier: :C66737
  :label: Trial Phase
  :notation: TPHASE
  :id: aHR0cDovL3d3dy5jZGlzYy5vcmcvQzY2NzM3L1Y0MiNDNjY3Mzc=
  :last_id: aHR0cDovL3d3dy5jZGlzYy5vcmcvQzY2NzM3L1Y0OSNDNjY3Mzc=
- :identifier: :C89963
  :label: Category for Clinical Observation
  :notation: CLCAT
  :id: aHR0cDovL3d3dy5jZGlzYy5vcmcvQzg5OTYzL1YzMyNDODk5NjM=
  :last_id: aHR0cDovL3d3dy5jZGlzYy5vcmcvQzg5OTYzL1Y0OSNDODk5NjM=
- :identifier: :C74561
  :label: Skin Type
  :notation: SKINTYP
  :id: aHR0cDovL3d3dy5jZGlzYy5vcmcvQzc0NTYxL1Y4I0M3NDU2MQ==
  :last_id: aHR0cDovL3d3dy5jZGlzYy5vcmcvQzc0NTYxL1Y0OSNDNzQ1NjE=
- :identifier: :C66736
  :label: Trial Indication Type
  :notation: TINDTP
  :id: aHR0cDovL3d3dy5jZGlzYy5vcmcvQzY2NzM2L1YxNiNDNjY3MzY=
  :last_id: aHR0cDovL3d3dy5jZGlzYy5vcmcvQzY2NzM2L1Y1MCNDNjY3MzY=
- :identifier: :C116104
  :label: Nervous System Physiology Test Code
  :notation: NVTESTCD
  :id: aHR0cDovL3d3dy5jZGlzYy5vcmcvQzExNjEwNC9WNDAjQzExNjEwNA==
  :last_id: aHR0cDovL3d3dy5jZGlzYy5vcmcvQzExNjEwNC9WNTAjQzExNjEwNA==
- :identifier: :C124300
  :label: Biospecimen Characteristics Test Code
  :notation: BSTESTCD
  :id: aHR0cDovL3d3dy5jZGlzYy5vcmcvQzEyNDMwMC9WNDYjQzEyNDMwMA==
  :last_id: aHR0cDovL3d3dy5jZGlzYy5vcmcvQzEyNDMwMC9WNTAjQzEyNDMwMA==
- :identifier: :C112024
  :label: Skin Response Test Code
  :notation: SRTESTCD
  :id: aHR0cDovL3d3dy5jZGlzYy5vcmcvQzExMjAyNC9WNDQjQzExMjAyNA==
  :last_id: aHR0cDovL3d3dy5jZGlzYy5vcmcvQzExMjAyNC9WNTAjQzExMjAyNA==
- :identifier: :C78428
  :label: Total Volume Administration Unit
  :notation: EXVOLTU
  :id: aHR0cDovL3d3dy5jZGlzYy5vcmcvQzc4NDI4L1YzNiNDNzg0Mjg=
  :last_id: aHR0cDovL3d3dy5jZGlzYy5vcmcvQzc4NDI4L1Y1MCNDNzg0Mjg=
- :identifier: :C106483
  :label: Device-In-Use Test Code
  :notation: DUTESTCD
  :id: aHR0cDovL3d3dy5jZGlzYy5vcmcvQzEwNjQ4My9WNDIjQzEwNjQ4Mw==
  :last_id: aHR0cDovL3d3dy5jZGlzYy5vcmcvQzEwNjQ4My9WNTAjQzEwNjQ4Mw==
- :identifier: :C101847
  :label: Cardiovascular Test Code
  :notation: CVTESTCD
  :id: aHR0cDovL3d3dy5jZGlzYy5vcmcvQzEwMTg0Ny9WNDUjQzEwMTg0Nw==
  :last_id: aHR0cDovL3d3dy5jZGlzYy5vcmcvQzEwMTg0Ny9WNTAjQzEwMTg0Nw==
- :identifier: :C67152
  :label: Trial Summary Parameter Test Name
  :notation: TSPARM
  :id: aHR0cDovL3d3dy5jZGlzYy5vcmcvQzY3MTUyL1Y0NyNDNjcxNTI=
  :last_id: aHR0cDovL3d3dy5jZGlzYy5vcmcvQzY3MTUyL1Y1MCNDNjcxNTI=
- :identifier: :C66735
  :label: Trial Blinding Schema
  :notation: TBLIND
  :id: aHR0cDovL3d3dy5jZGlzYy5vcmcvQzY2NzM1L1Y0I0M2NjczNQ==
  :last_id: aHR0cDovL3d3dy5jZGlzYy5vcmcvQzY2NzM1L1Y0OSNDNjY3MzU=
- :identifier: :C101846
  :label: Cardiovascular Test Name
  :notation: CVTEST
  :id: aHR0cDovL3d3dy5jZGlzYy5vcmcvQzEwMTg0Ni9WNDUjQzEwMTg0Ng==
  :last_id: aHR0cDovL3d3dy5jZGlzYy5vcmcvQzEwMTg0Ni9WNTAjQzEwMTg0Ng==
- :identifier: :C117743
  :label: Ophthalmic Exam Test Code
  :notation: OETESTCD
  :id: aHR0cDovL3d3dy5jZGlzYy5vcmcvQzExNzc0My9WNDQjQzExNzc0Mw==
  :last_id: aHR0cDovL3d3dy5jZGlzYy5vcmcvQzExNzc0My9WNDkjQzExNzc0Mw==
- :identifier: :C90013
  :label: ECG Lead
  :notation: EGLEAD
  :id: aHR0cDovL3d3dy5jZGlzYy5vcmcvQzkwMDEzL1Y0MCNDOTAwMTM=
  :last_id: aHR0cDovL3d3dy5jZGlzYy5vcmcvQzkwMDEzL1Y1MCNDOTAwMTM=
- :identifier: :C100136
  :label: European Quality of Life Five Dimension Three Level Scale Test Code
  :notation: EQ-5D-3L TESTCD
  :id: aHR0cDovL3d3dy5jZGlzYy5vcmcvQzEwMDEzNi9WNDcjQzEwMDEzNg==
  :last_id: aHR0cDovL3d3dy5jZGlzYy5vcmcvQzEwMDEzNi9WNTAjQzEwMDEzNg==
- :identifier: :C100138
  :label: Hamilton Depression Rating Scale - 17 Item Test Code
  :notation: HAMD 17 TESTCD
  :id: aHR0cDovL3d3dy5jZGlzYy5vcmcvQzEwMDEzOC9WNDcjQzEwMDEzOA==
  :last_id: aHR0cDovL3d3dy5jZGlzYy5vcmcvQzEwMDEzOC9WNDgjQzEwMDEzOA==
- :identifier: :C78419
  :label: Concomitant Medication Dosing Frequency per Interval
  :notation: CMDOSFRQ
  :id: aHR0cDovL3d3dy5jZGlzYy5vcmcvQzc4NDE5L1Y0MyNDNzg0MTk=
  :last_id: aHR0cDovL3d3dy5jZGlzYy5vcmcvQzc4NDE5L1Y0OSNDNzg0MTk=
- :identifier: :C90009
  :label: SEND Trial Summary Parameter Test Code
  :notation: STSPRMCD
  :id: aHR0cDovL3d3dy5jZGlzYy5vcmcvQzkwMDA5L1Y0NyNDOTAwMDk=
  :last_id: aHR0cDovL3d3dy5jZGlzYy5vcmcvQzkwMDA5L1Y1MCNDOTAwMDk=
- :identifier: :C120535
  :label: SEND Respiratory Test Name
  :notation: SRETST
  :id: aHR0cDovL3d3dy5jZGlzYy5vcmcvQzEyMDUzNS9WNDQjQzEyMDUzNQ==
  :last_id: aHR0cDovL3d3dy5jZGlzYy5vcmcvQzEyMDUzNS9WNTAjQzEyMDUzNQ==
- :identifier: :C120533
  :label: SEND Cardiovascular Test Name
  :notation: SCVTST
  :id: aHR0cDovL3d3dy5jZGlzYy5vcmcvQzEyMDUzMy9WNDUjQzEyMDUzMw==
  :last_id: aHR0cDovL3d3dy5jZGlzYy5vcmcvQzEyMDUzMy9WNDkjQzEyMDUzMw==
- :identifier: :C124310
  :label: Fetal Pathology Findings Result
  :notation: FXFINDRS
  :id: aHR0cDovL3d3dy5jZGlzYy5vcmcvQzEyNDMxMC9WNDcjQzEyNDMxMA==
  :last_id: aHR0cDovL3d3dy5jZGlzYy5vcmcvQzEyNDMxMC9WNDkjQzEyNDMxMA==
- :identifier: :C120532
  :label: SEND Cardiovascular Test Code
  :notation: SCVTSTCD
  :id: aHR0cDovL3d3dy5jZGlzYy5vcmcvQzEyMDUzMi9WNDUjQzEyMDUzMg==
  :last_id: aHR0cDovL3d3dy5jZGlzYy5vcmcvQzEyMDUzMi9WNDkjQzEyMDUzMg==
- :identifier: :C77529
  :label: Specimen
  :notation: SPEC
  :id: aHR0cDovL3d3dy5jZGlzYy5vcmcvQzc3NTI5L1Y0NyNDNzc1Mjk=
  :last_id: aHR0cDovL3d3dy5jZGlzYy5vcmcvQzc3NTI5L1Y1MCNDNzc1Mjk=
- :identifier: :C77530
  :label: Strain/Substrain
  :notation: STRAIN
  :id: aHR0cDovL3d3dy5jZGlzYy5vcmcvQzc3NTMwL1Y0NyNDNzc1MzA=
  :last_id: aHR0cDovL3d3dy5jZGlzYy5vcmcvQzc3NTMwL1Y0OSNDNzc1MzA=
- :identifier: :C120531
  :label: Non-Neoplastic Finding Type
  :notation: NONNEO
  :id: aHR0cDovL3d3dy5jZGlzYy5vcmcvQzEyMDUzMS9WNDcjQzEyMDUzMQ==
  :last_id: aHR0cDovL3d3dy5jZGlzYy5vcmcvQzEyMDUzMS9WNDkjQzEyMDUzMQ==
- :identifier: :C90007
  :label: SEND Trial Summary Parameter Test Name
  :notation: STSPRM
  :id: aHR0cDovL3d3dy5jZGlzYy5vcmcvQzkwMDA3L1Y0NyNDOTAwMDc=
  :last_id: aHR0cDovL3d3dy5jZGlzYy5vcmcvQzkwMDA3L1Y1MCNDOTAwMDc=
- :identifier: :C120534
  :label: SEND Respiratory Test Code
  :notation: SRETSTCD
  :id: aHR0cDovL3d3dy5jZGlzYy5vcmcvQzEyMDUzNC9WNDQjQzEyMDUzNA==
  :last_id: aHR0cDovL3d3dy5jZGlzYy5vcmcvQzEyMDUzNC9WNTAjQzEyMDUzNA==
:versions:
- '2016-03-25'
- '2016-06-24'
- '2016-09-30'
- '2016-12-16'
