---
:items:
  :C111106:
    :key: C111106
    :id: aHR0cDovL3d3dy5jZGlzYy5vcmcvQzExMTEwNi9WNTkjQzExMTEwNg==
    :identifier: C111106
    :label: Respiratory Test Code
    :notation: RETESTCD
    :status: :updated
  :C120525:
    :key: C120525
    :id: aHR0cDovL3d3dy5jZGlzYy5vcmcvQzEyMDUyNS9WNTkjQzEyMDUyNQ==
    :identifier: C120525
    :label: Immunogenicity Specimen Assessments Test Code
    :notation: ISTESTCD
    :status: :updated
  :C106483:
    :key: C106483
    :id: aHR0cDovL3d3dy5jZGlzYy5vcmcvQzEwNjQ4My9WNTkjQzEwNjQ4Mw==
    :identifier: C106483
    :label: Device-In-Use Test Code
    :notation: DUTESTCD
    :status: :updated
  :C150773:
    :key: C150773
    :id: aHR0cDovL3d3dy5jZGlzYy5vcmcvQzE1MDc3My9WNTYjQzE1MDc3Mw==
    :identifier: C150773
    :label: Functional Assessment of Cancer Therapy-Colorectal Version 4 Questionnaire
      Test Name
    :notation: FAC008TN
    :status: :updated
  :C147543:
    :key: C147543
    :id: aHR0cDovL3d3dy5jZGlzYy5vcmcvQzE0NzU0My9WNTYjQzE0NzU0Mw==
    :identifier: C147543
    :label: Functional Assessment of Chronic Illness Therapy-Fatigue 13-Item Scale
      Version 4 Questionnaire Test Name
    :notation: FAC070TN
    :status: :updated
  :C124298:
    :key: C124298
    :id: aHR0cDovL3d3dy5jZGlzYy5vcmcvQzEyNDI5OC9WNTkjQzEyNDI5OA==
    :identifier: C124298
    :label: Category of Oncology Response Assessment
    :notation: ONCRSCAT
    :status: :updated
  :C124310:
    :key: C124310
    :id: aHR0cDovL3d3dy5jZGlzYy5vcmcvQzEyNDMxMC9WNTkjQzEyNDMxMA==
    :identifier: C124310
    :label: Fetal Pathology Findings Result
    :notation: FXFINDRS
    :status: :updated
  :C100175:
    :key: C100175
    :id: aHR0cDovL3d3dy5jZGlzYy5vcmcvQzEwMDE3NS9WNDcjQzEwMDE3NQ==
    :identifier: C100175
    :label: Work Productivity and Activity Impairment Questionnaire - Specific Health
      Problem V2.0 Questionnaire Test Name
    :notation: WPAI01TN
    :status: :updated
  :C77529:
    :key: C77529
    :id: aHR0cDovL3d3dy5jZGlzYy5vcmcvQzc3NTI5L1Y1OSNDNzc1Mjk=
    :identifier: C77529
    :label: Specimen
    :notation: SPEC
    :status: :updated
  :C154685:
    :key: C154685
    :id: aHR0cDovL3d3dy5jZGlzYy5vcmcvQzE1NDY4NS9WNTcjQzE1NDY4NQ==
    :identifier: C154685
    :label: Nutrition Findings About Test Code
    :notation: NTFATSCD
    :status: :updated
  :C78745:
    :key: C78745
    :id: aHR0cDovL3d3dy5jZGlzYy5vcmcvQzc4NzQ1L1Y1NiNDNzg3NDU=
    :identifier: C78745
    :label: Exposure Dosing Frequency per Interval
    :notation: EXDOSFRQ
    :status: :updated
  :C89963:
    :key: C89963
    :id: aHR0cDovL3d3dy5jZGlzYy5vcmcvQzg5OTYzL1Y0OSNDODk5NjM=
    :identifier: C89963
    :label: Category for Clinical Observation
    :notation: CLCAT
    :status: :updated
  :C85491:
    :key: C85491
    :id: aHR0cDovL3d3dy5jZGlzYy5vcmcvQzg1NDkxL1Y1NiNDODU0OTE=
    :identifier: C85491
    :label: Microorganism
    :notation: MICROORG
    :status: :updated
  :C106657:
    :key: C106657
    :id: aHR0cDovL3d3dy5jZGlzYy5vcmcvQzEwNjY1Ny9WNDcjQzEwNjY1Nw==
    :identifier: C106657
    :label: Transition Dyspnea Index Questionnaire Test Code
    :notation: TDI01TC
    :status: :updated
  :C78734:
    :key: C78734
    :id: aHR0cDovL3d3dy5jZGlzYy5vcmcvQzc4NzM0L1Y1OSNDNzg3MzQ=
    :identifier: C78734
    :label: Specimen Type
    :notation: SPECTYPE
    :status: :updated
  :C99075:
    :key: C99075
    :id: aHR0cDovL3d3dy5jZGlzYy5vcmcvQzk5MDc1L1Y0NyNDOTkwNzU=
    :identifier: C99075
    :label: Portion/Totality
    :notation: PORTOT
    :status: :updated
  :C118971:
    :key: C118971
    :id: aHR0cDovL3d3dy5jZGlzYy5vcmcvQzExODk3MS9WNTkjQzExODk3MQ==
    :identifier: C118971
    :label: Category of Clinical Classification
    :notation: CCCAT
    :status: :updated
  :C100176:
    :key: C100176
    :id: aHR0cDovL3d3dy5jZGlzYy5vcmcvQzEwMDE3Ni9WNDcjQzEwMDE3Ng==
    :identifier: C100176
    :label: Work Productivity and Activity Impairment Questionnaire - Specific Health
      Problem V2.0 Questionnaire Test Code
    :notation: WPAI01TC
    :status: :updated
  :C66727:
    :key: C66727
    :id: aHR0cDovL3d3dy5jZGlzYy5vcmcvQzY2NzI3L1Y1OCNDNjY3Mjc=
    :identifier: C66727
    :label: Completion/Reason for Non-Completion
    :notation: NCOMPLT
    :status: :updated
  :C65047:
    :key: C65047
    :id: aHR0cDovL3d3dy5jZGlzYy5vcmcvQzY1MDQ3L1Y1OSNDNjUwNDc=
    :identifier: C65047
    :label: Laboratory Test Code
    :notation: LBTESTCD
    :status: :updated
  :C154682:
    :key: C154682
    :id: aHR0cDovL3d3dy5jZGlzYy5vcmcvQzE1NDY4Mi9WNTcjQzE1NDY4Mg==
    :identifier: C154682
    :label: Study Contact Information Attribute Terminology
    :notation: Study Contact Information Attribute Terminology
    :status: :updated
  :C106662:
    :key: C106662
    :id: aHR0cDovL3d3dy5jZGlzYy5vcmcvQzEwNjY2Mi9WNDcjQzEwNjY2Mg==
    :identifier: C106662
    :label: Geriatric Depression Scale Questionnaire Test Name
    :notation: GDS01TN
    :status: :updated
  :C119070:
    :key: C119070
    :id: aHR0cDovL3d3dy5jZGlzYy5vcmcvQzExOTA3MC9WNDcjQzExOTA3MA==
    :identifier: C119070
    :label: Dermatology Life Quality Index Questionnaire Test Code
    :notation: DLQI1TC
    :status: :updated
  :C85839:
    :key: C85839
    :id: aHR0cDovL3d3dy5jZGlzYy5vcmcvQzg1ODM5L1Y1OSNDODU4Mzk=
    :identifier: C85839
    :label: PK Parameters Code
    :notation: PKPARMCD
    :status: :updated
  :C147544:
    :key: C147544
    :id: aHR0cDovL3d3dy5jZGlzYy5vcmcvQzE0NzU0NC9WNTYjQzE0NzU0NA==
    :identifier: C147544
    :label: Functional Assessment of Chronic Illness Therapy-Fatigue 13-Item Scale
      Version 4 Questionnaire Test Code
    :notation: FAC070TC
    :status: :updated
  :C96784:
    :key: C96784
    :id: aHR0cDovL3d3dy5jZGlzYy5vcmcvQzk2Nzg0L1Y1NyNDOTY3ODQ=
    :identifier: C96784
    :label: Tumor or Lesion Identification Test Code
    :notation: TUTESTCD
    :status: :updated
  :C99074:
    :key: C99074
    :id: aHR0cDovL3d3dy5jZGlzYy5vcmcvQzk5MDc0L1Y1NSNDOTkwNzQ=
    :identifier: C99074
    :label: Directionality
    :notation: DIR
    :status: :updated
  :C96783:
    :key: C96783
    :id: aHR0cDovL3d3dy5jZGlzYy5vcmcvQzk2NzgzL1Y1NyNDOTY3ODM=
    :identifier: C96783
    :label: Tumor or Lesion Identification Test Name
    :notation: TUTEST
    :status: :updated
  :C115304:
    :key: C115304
    :id: aHR0cDovL3d3dy5jZGlzYy5vcmcvQzExNTMwNC9WNTYjQzExNTMwNA==
    :identifier: C115304
    :label: Category of Functional Test
    :notation: FTCAT
    :status: :updated
  :C158117:
    :key: C158117
    :id: aHR0cDovL3d3dy5jZGlzYy5vcmcvQzE1ODExNy9WNTkjQzE1ODExNw==
    :identifier: C158117
    :label: Challenge Agent Parameter Long Name
    :notation: ACPARM
    :status: :updated
  :C106479:
    :key: C106479
    :id: aHR0cDovL3d3dy5jZGlzYy5vcmcvQzEwNjQ3OS9WNTkjQzEwNjQ3OQ==
    :identifier: C106479
    :label: Reproductive System Findings Test Code
    :notation: RPTESTCD
    :status: :updated
  :C142179:
    :key: C142179
    :id: aHR0cDovL3d3dy5jZGlzYy5vcmcvQzE0MjE3OS9WNTQjQzE0MjE3OQ==
    :identifier: C142179
    :label: Arm Null Reason
    :notation: ARMNULRS
    :status: :updated
  :C117745:
    :key: C117745
    :id: aHR0cDovL3d3dy5jZGlzYy5vcmcvQzExNzc0NS9WNTgjQzExNzc0NQ==
    :identifier: C117745
    :label: Analysis Purpose
    :notation: ANLPURP
    :status: :updated
  :C66738:
    :key: C66738
    :id: aHR0cDovL3d3dy5jZGlzYy5vcmcvQzY2NzM4L1Y1OSNDNjY3Mzg=
    :identifier: C66738
    :label: Trial Summary Parameter Test Code
    :notation: TSPARMCD
    :status: :updated
  :C120526:
    :key: C120526
    :id: aHR0cDovL3d3dy5jZGlzYy5vcmcvQzEyMDUyNi9WNTkjQzEyMDUyNg==
    :identifier: C120526
    :label: Immunogenicity Specimen Assessments Test Name
    :notation: ISTEST
    :status: :updated
  :C154686:
    :key: C154686
    :id: aHR0cDovL3d3dy5jZGlzYy5vcmcvQzE1NDY4Ni9WNTcjQzE1NDY4Ng==
    :identifier: C154686
    :label: Nutrition Findings About Test Name
    :notation: NTFATS
    :status: :updated
  :C90007:
    :key: C90007
    :id: aHR0cDovL3d3dy5jZGlzYy5vcmcvQzkwMDA3L1Y1OSNDOTAwMDc=
    :identifier: C90007
    :label: SEND Trial Summary Parameter Test Name
    :notation: STSPRM
    :status: :updated
  :C74456:
    :key: C74456
    :id: aHR0cDovL3d3dy5jZGlzYy5vcmcvQzc0NDU2L1Y1OSNDNzQ0NTY=
    :identifier: C74456
    :label: Anatomical Location
    :notation: LOC
    :status: :updated
  :C112439:
    :key: C112439
    :id: aHR0cDovL3d3dy5jZGlzYy5vcmcvQzExMjQzOS9WNDcjQzExMjQzOQ==
    :identifier: C112439
    :label: Kurtzke Expanded Disability Status Scale Questionnaire Test Code
    :notation: EDSS01TC
    :status: :updated
  :C111111:
    :key: C111111
    :id: aHR0cDovL3d3dy5jZGlzYy5vcmcvQzExMTExMS9WNTkjQzExMTExMQ==
    :identifier: C111111
    :label: Device Properties Test Code
    :notation: DOTESTCD
    :status: :updated
  :C120522:
    :key: C120522
    :id: aHR0cDovL3d3dy5jZGlzYy5vcmcvQzEyMDUyMi9WNTQjQzEyMDUyMg==
    :identifier: C120522
    :label: Holter ECG Results
    :notation: HESTRESC
    :status: :updated
  :C112437:
    :key: C112437
    :id: aHR0cDovL3d3dy5jZGlzYy5vcmcvQzExMjQzNy9WNDcjQzExMjQzNw==
    :identifier: C112437
    :label: Disease Steps Questionnaire Test Code
    :notation: DS01TC
    :status: :updated
  :C120535:
    :key: C120535
    :id: aHR0cDovL3d3dy5jZGlzYy5vcmcvQzEyMDUzNS9WNTkjQzEyMDUzNQ==
    :identifier: C120535
    :label: SEND Respiratory Test Name
    :notation: SRETST
    :status: :updated
  :C116111:
    :key: C116111
    :id: aHR0cDovL3d3dy5jZGlzYy5vcmcvQzExNjExMS9WNTAjQzExNjExMQ==
    :identifier: C116111
    :label: SDTM Species
    :notation: SPCIES
    :status: :updated
  :C139020:
    :key: C139020
    :id: aHR0cDovL3d3dy5jZGlzYy5vcmcvQzEzOTAyMC9WNTMjQzEzOTAyMA==
    :identifier: C139020
    :label: Clinical Trial Attribute Terminology
    :notation: Clinical Trial Attribute Terminology
    :status: :updated
  :C102580:
    :key: C102580
    :id: aHR0cDovL3d3dy5jZGlzYy5vcmcvQzEwMjU4MC9WNTYjQzEwMjU4MA==
    :identifier: C102580
    :label: Laboratory Test Standard Character Result
    :notation: LBSTRESC
    :status: :updated
  :C106664:
    :key: C106664
    :id: aHR0cDovL3d3dy5jZGlzYy5vcmcvQzEwNjY2NC9WNDcjQzEwNjY2NA==
    :identifier: C106664
    :label: Geriatric Depression Scale Short Form Questionnaire Test Name
    :notation: GDS02TN
    :status: :updated
  :C88025:
    :key: C88025
    :id: aHR0cDovL3d3dy5jZGlzYy5vcmcvQzg4MDI1L1Y1OSNDODgwMjU=
    :identifier: C88025
    :label: Neoplasm Type
    :notation: NEOPLASM
    :status: :updated
  :C129088:
    :key: C129088
    :id: aHR0cDovL3d3dy5jZGlzYy5vcmcvQzEyOTA4OC9WNDkjQzEyOTA4OA==
    :identifier: C129088
    :label: Functional Assessment of Chronic Illness Therapy-Fatigue Version 4 Questionnaire
      Test Code
    :notation: FAC071TC
    :status: :updated
  :C129087:
    :key: C129087
    :id: aHR0cDovL3d3dy5jZGlzYy5vcmcvQzEyOTA4Ny9WNDkjQzEyOTA4Nw==
    :identifier: C129087
    :label: Functional Assessment of Chronic Illness Therapy-Fatigue Version 4 Questionnaire
      Test Name
    :notation: FAC071TN
    :status: :updated
  :C100129:
    :key: C100129
    :id: aHR0cDovL3d3dy5jZGlzYy5vcmcvQzEwMDEyOS9WNTkjQzEwMDEyOQ==
    :identifier: C100129
    :label: Category of Questionnaire
    :notation: QSCAT
    :status: :updated
  :C90003:
    :key: C90003
    :id: aHR0cDovL3d3dy5jZGlzYy5vcmcvQzkwMDAzL1Y1OSNDOTAwMDM=
    :identifier: C90003
    :label: SEND Study Type
    :notation: SSTYP
    :status: :updated
  :C66739:
    :key: C66739
    :id: aHR0cDovL3d3dy5jZGlzYy5vcmcvQzY2NzM5L1Y1OSNDNjY3Mzk=
    :identifier: C66739
    :label: Trial Type Response
    :notation: TTYPE
    :status: :updated
  :C101805:
    :key: C101805
    :id: aHR0cDovL3d3dy5jZGlzYy5vcmcvQzEwMTgwNS9WNDcjQzEwMTgwNQ==
    :identifier: C101805
    :label: Abnormal Involuntary Movement Scale Questionnaire Test Code
    :notation: AIMS01TC
    :status: :updated
  :C158121:
    :key: C158121
    :id: aHR0cDovL3d3dy5jZGlzYy5vcmcvQzE1ODEyMS9WNTkjQzE1ODEyMQ==
    :identifier: C158121
    :label: Rad/Nuc Agent Ionizing Radiation Type Response
    :notation: RNAIOTYP
    :status: :updated
  :C158113:
    :key: C158113
    :id: aHR0cDovL3d3dy5jZGlzYy5vcmcvQzE1ODExMy9WNTkjQzE1ODExMw==
    :identifier: C158113
    :label: QRS Method
    :notation: QRSMTHOD
    :status: :updated
  :C77808:
    :key: C77808
    :id: aHR0cDovL3d3dy5jZGlzYy5vcmcvQzc3ODA4L1Y0NyNDNzc4MDg=
    :identifier: C77808
    :label: Species
    :notation: SPECIES
    :status: :updated
  :C66741:
    :key: C66741
    :id: aHR0cDovL3d3dy5jZGlzYy5vcmcvQzY2NzQxL1Y1OSNDNjY3NDE=
    :identifier: C66741
    :label: Vital Signs Test Code
    :notation: VSTESTCD
    :status: :updated
  :C106655:
    :key: C106655
    :id: aHR0cDovL3d3dy5jZGlzYy5vcmcvQzEwNjY1NS9WNDcjQzEwNjY1NQ==
    :identifier: C106655
    :label: Baseline Dyspnea Index Questionnaire Test Code
    :notation: BDI01TC
    :status: :updated
  :C66726:
    :key: C66726
    :id: aHR0cDovL3d3dy5jZGlzYy5vcmcvQzY2NzI2L1Y1OSNDNjY3MjY=
    :identifier: C66726
    :label: Pharmaceutical Dosage Form
    :notation: FRM
    :status: :updated
  :C124315:
    :key: C124315
    :id: aHR0cDovL3d3dy5jZGlzYy5vcmcvQzEyNDMxNS9WNDYjQzEyNDMxNQ==
    :identifier: C124315
    :label: Fetal Pathology Findings Test Name
    :notation: FXTEST
    :status: :updated
  :C100133:
    :key: C100133
    :id: aHR0cDovL3d3dy5jZGlzYy5vcmcvQzEwMDEzMy9WNDcjQzEwMDEzMw==
    :identifier: C100133
    :label: Brief Psychiatric Rating Scale-A Questionnaire Test Name
    :notation: BPR01TN
    :status: :updated
  :C71150:
    :key: C71150
    :id: aHR0cDovL3d3dy5jZGlzYy5vcmcvQzcxMTUwL1Y1NCNDNzExNTA=
    :identifier: C71150
    :label: ECG Result
    :notation: EGSTRESC
    :status: :updated
  :C71153:
    :key: C71153
    :id: aHR0cDovL3d3dy5jZGlzYy5vcmcvQzcxMTUzL1Y1MyNDNzExNTM=
    :identifier: C71153
    :label: ECG Test Code
    :notation: EGTESTCD
    :status: :updated
  :C103329:
    :key: C103329
    :id: aHR0cDovL3d3dy5jZGlzYy5vcmcvQzEwMzMyOS9WNTUjQzEwMzMyOQ==
    :identifier: C103329
    :label: General Observation Class
    :notation: GNRLOBSC
    :status: :updated
  :C71620:
    :key: C71620
    :id: aHR0cDovL3d3dy5jZGlzYy5vcmcvQzcxNjIwL1Y1OSNDNzE2MjA=
    :identifier: C71620
    :label: Unit
    :notation: UNIT
    :status: :updated
  :C135688:
    :key: C135688
    :id: aHR0cDovL3d3dy5jZGlzYy5vcmcvQzEzNTY4OC9WNTQjQzEzNTY4OA==
    :identifier: C135688
    :label: Patient Global Impression Generic Modification Version Questionnaire Test
      Code
    :notation: PGI01TC
    :status: :updated
  :C120527:
    :key: C120527
    :id: aHR0cDovL3d3dy5jZGlzYy5vcmcvQzEyMDUyNy9WNTkjQzEyMDUyNw==
    :identifier: C120527
    :label: Microbiology Test Code
    :notation: MBTESTCD
    :status: :updated
  :C101815:
    :key: C101815
    :id: aHR0cDovL3d3dy5jZGlzYy5vcmcvQzEwMTgxNS9WNDcjQzEwMTgxNQ==
    :identifier: C101815
    :label: Eastern Cooperative Oncology Group Performance Status Questionnaire Test
      Code
    :notation: ECOG1TC
    :status: :updated
  :C120531:
    :key: C120531
    :id: aHR0cDovL3d3dy5jZGlzYy5vcmcvQzEyMDUzMS9WNTkjQzEyMDUzMQ==
    :identifier: C120531
    :label: Non-Neoplastic Finding Type
    :notation: NONNEO
    :status: :updated
  :C124309:
    :key: C124309
    :id: aHR0cDovL3d3dy5jZGlzYy5vcmcvQzEyNDMwOS9WNTkjQzEyNDMwOQ==
    :identifier: C124309
    :label: Tumor or Lesion Properties Test Result
    :notation: TRPROPRS
    :status: :updated
  :C150813:
    :key: C150813
    :id: aHR0cDovL3d3dy5jZGlzYy5vcmcvQzE1MDgxMy9WNTYjQzE1MDgxMw==
    :identifier: C150813
    :label: CDAD Findings About Test Name
    :notation: CDFATS
    :status: :updated
  :C147069:
    :key: C147069
    :id: aHR0cDovL3d3dy5jZGlzYy5vcmcvQzE0NzA2OS9WNTYjQzE0NzA2OQ==
    :identifier: C147069
    :label: Randomization Type Response
    :notation: Randomization Type Response
    :status: :updated
  :C106663:
    :key: C106663
    :id: aHR0cDovL3d3dy5jZGlzYy5vcmcvQzEwNjY2My9WNDcjQzEwNjY2Mw==
    :identifier: C106663
    :label: Geriatric Depression Scale Questionnaire Test Code
    :notation: GDS01TC
    :status: :updated
  :C85493:
    :key: C85493
    :id: aHR0cDovL3d3dy5jZGlzYy5vcmcvQzg1NDkzL1Y1OSNDODU0OTM=
    :identifier: C85493
    :label: PK Parameters
    :notation: PKPARM
    :status: :updated
  :C89971:
    :key: C89971
    :id: aHR0cDovL3d3dy5jZGlzYy5vcmcvQzg5OTcxL1Y0NyNDODk5NzE=
    :identifier: C89971
    :label: Macroscopic Findings Test Name
    :notation: MATEST
    :status: :updated
  :C66788:
    :key: C66788
    :id: aHR0cDovL3d3dy5jZGlzYy5vcmcvQzY2Nzg4L1YyOCNDNjY3ODg=
    :identifier: C66788
    :label: Dictionary Name
    :notation: DICTNAM
    :status: :updated
  :C158116:
    :key: C158116
    :id: aHR0cDovL3d3dy5jZGlzYy5vcmcvQzE1ODExNi9WNTkjQzE1ODExNg==
    :identifier: C158116
    :label: Challenge Agent Parameter Code
    :notation: ACPARMCD
    :status: :updated
  :C132263:
    :key: C132263
    :id: aHR0cDovL3d3dy5jZGlzYy5vcmcvQzEzMjI2My9WNTgjQzEzMjI2Mw==
    :identifier: C132263
    :label: SDTM Microscopic Findings Test Code
    :notation: MITSCD
    :status: :updated
  :C96785:
    :key: C96785
    :id: aHR0cDovL3d3dy5jZGlzYy5vcmcvQzk2Nzg1L1Y1OSNDOTY3ODU=
    :identifier: C96785
    :label: Oncology Response Assessment Result
    :notation: ONCRSR
    :status: :updated
  :C76351:
    :key: C76351
    :id: aHR0cDovL3d3dy5jZGlzYy5vcmcvQzc2MzUxL1Y0OSNDNzYzNTE=
    :identifier: C76351
    :label: Fitzpatrick Skin Classification Response
    :notation: SKINCLAS
    :status: :updated
  :C78431:
    :key: C78431
    :id: aHR0cDovL3d3dy5jZGlzYy5vcmcvQzc4NDMxL1YyNSNDNzg0MzE=
    :identifier: C78431
    :label: Vital Signs Position of Subject
    :notation: VSPOS
    :status: :updated
  :C106482:
    :key: C106482
    :id: aHR0cDovL3d3dy5jZGlzYy5vcmcvQzEwNjQ4Mi9WNTkjQzEwNjQ4Mg==
    :identifier: C106482
    :label: Device-In-Use Test Name
    :notation: DUTEST
    :status: :updated
  :C71152:
    :key: C71152
    :id: aHR0cDovL3d3dy5jZGlzYy5vcmcvQzcxMTUyL1Y1MyNDNzExNTI=
    :identifier: C71152
    :label: ECG Test Name
    :notation: EGTEST
    :status: :updated
  :C114118:
    :key: C114118
    :id: aHR0cDovL3d3dy5jZGlzYy5vcmcvQzExNDExOC9WNTUjQzExNDExOA==
    :identifier: C114118
    :label: Protocol Milestone
    :notation: PROTMLST
    :status: :updated
  :C90009:
    :key: C90009
    :id: aHR0cDovL3d3dy5jZGlzYy5vcmcvQzkwMDA5L1Y1OSNDOTAwMDk=
    :identifier: C90009
    :label: SEND Trial Summary Parameter Test Code
    :notation: STSPRMCD
    :status: :updated
  :C78419:
    :key: C78419
    :id: aHR0cDovL3d3dy5jZGlzYy5vcmcvQzc4NDE5L1Y1NiNDNzg0MTk=
    :identifier: C78419
    :label: Concomitant Medication Dosing Frequency per Interval
    :notation: CMDOSFRQ
    :status: :updated
  :C71148:
    :key: C71148
    :id: aHR0cDovL3d3dy5jZGlzYy5vcmcvQzcxMTQ4L1Y1NiNDNzExNDg=
    :identifier: C71148
    :label: Position
    :notation: POSITION
    :status: :updated
  :C120534:
    :key: C120534
    :id: aHR0cDovL3d3dy5jZGlzYy5vcmcvQzEyMDUzNC9WNTkjQzEyMDUzNA==
    :identifier: C120534
    :label: SEND Respiratory Test Code
    :notation: SRETSTCD
    :status: :updated
  :C128689:
    :key: C128689
    :id: aHR0cDovL3d3dy5jZGlzYy5vcmcvQzEyODY4OS9WNTkjQzEyODY4OQ==
    :identifier: C128689
    :label: Race As Collected
    :notation: RACEC
    :status: :updated
  :C132262:
    :key: C132262
    :id: aHR0cDovL3d3dy5jZGlzYy5vcmcvQzEzMjI2Mi9WNTgjQzEzMjI2Mg==
    :identifier: C132262
    :label: SDTM Microscopic Findings Test Name
    :notation: MITS
    :status: :updated
  :C142191:
    :key: C142191
    :id: aHR0cDovL3d3dy5jZGlzYy5vcmcvQzE0MjE5MS9WNTQjQzE0MjE5MQ==
    :identifier: C142191
    :label: Clinical Study Attribute Terminology
    :notation: Clinical Study Attribute Terminology
    :status: :updated
  :C67154:
    :key: C67154
    :id: aHR0cDovL3d3dy5jZGlzYy5vcmcvQzY3MTU0L1Y1OSNDNjcxNTQ=
    :identifier: C67154
    :label: Laboratory Test Name
    :notation: LBTEST
    :status: :updated
  :C147066:
    :key: C147066
    :id: aHR0cDovL3d3dy5jZGlzYy5vcmcvQzE0NzA2Ni9WNTYjQzE0NzA2Ng==
    :identifier: C147066
    :label: Study Design Attribute Terminology
    :notation: Study Design Attribute Terminology
    :status: :updated
  :C106665:
    :key: C106665
    :id: aHR0cDovL3d3dy5jZGlzYy5vcmcvQzEwNjY2NS9WNDcjQzEwNjY2NQ==
    :identifier: C106665
    :label: Geriatric Depression Scale Short Form Questionnaire Test Code
    :notation: GDS02TC
    :status: :updated
  :C119069:
    :key: C119069
    :id: aHR0cDovL3d3dy5jZGlzYy5vcmcvQzExOTA2OS9WNDcjQzExOTA2OQ==
    :identifier: C119069
    :label: Dermatology Life Quality Index Questionnaire Test Name
    :notation: DLQI1TN
    :status: :updated
  :C85494:
    :key: C85494
    :id: aHR0cDovL3d3dy5jZGlzYy5vcmcvQzg1NDk0L1Y1OSNDODU0OTQ=
    :identifier: C85494
    :label: PK Units of Measure
    :notation: PKUNIT
    :status: :updated
  :C99079:
    :key: C99079
    :id: aHR0cDovL3d3dy5jZGlzYy5vcmcvQzk5MDc5L1Y1OCNDOTkwNzk=
    :identifier: C99079
    :label: Epoch
    :notation: EPOCH
    :status: :updated
  :C123650:
    :key: C123650
    :id: aHR0cDovL3d3dy5jZGlzYy5vcmcvQzEyMzY1MC9WNTYjQzEyMzY1MA==
    :identifier: C123650
    :label: Tumor or Lesion Identification Test Results
    :notation: TUIDRS
    :status: :updated
  :C111113:
    :key: C111113
    :id: aHR0cDovL3d3dy5jZGlzYy5vcmcvQzExMTExMy9WNTcjQzExMTExMw==
    :identifier: C111113
    :label: SEND Domain Abbreviation
    :notation: SDOMAIN
    :status: :updated
  :C106478:
    :key: C106478
    :id: aHR0cDovL3d3dy5jZGlzYy5vcmcvQzEwNjQ3OC9WNTkjQzEwNjQ3OA==
    :identifier: C106478
    :label: Reproductive System Findings Test Name
    :notation: RPTEST
    :status: :updated
  :C96777:
    :key: C96777
    :id: aHR0cDovL3d3dy5jZGlzYy5vcmcvQzk2Nzc3L1Y1NyNDOTY3Nzc=
    :identifier: C96777
    :label: Medical Evaluator
    :notation: MEDEVAL
    :status: :updated
  :C117744:
    :key: C117744
    :id: aHR0cDovL3d3dy5jZGlzYy5vcmcvQzExNzc0NC9WNDAjQzExNzc0NA==
    :identifier: C117744
    :label: Analysis Reason
    :notation: ANLREAS
    :status: :updated
  :C67152:
    :key: C67152
    :id: aHR0cDovL3d3dy5jZGlzYy5vcmcvQzY3MTUyL1Y1OSNDNjcxNTI=
    :identifier: C67152
    :label: Trial Summary Parameter Test Name
    :notation: TSPARM
    :status: :updated
  :C112438:
    :key: C112438
    :id: aHR0cDovL3d3dy5jZGlzYy5vcmcvQzExMjQzOC9WNDcjQzExMjQzOA==
    :identifier: C112438
    :label: Kurtzke Expanded Disability Status Scale Questionnaire Test Name
    :notation: EDSS01TN
    :status: :updated
  :C124314:
    :key: C124314
    :id: aHR0cDovL3d3dy5jZGlzYy5vcmcvQzEyNDMxNC9WNDYjQzEyNDMxNA==
    :identifier: C124314
    :label: Fetal Pathology Findings Test Code
    :notation: FXTESTCD
    :status: :updated
  :C100134:
    :key: C100134
    :id: aHR0cDovL3d3dy5jZGlzYy5vcmcvQzEwMDEzNC9WNDcjQzEwMDEzNA==
    :identifier: C100134
    :label: Brief Psychiatric Rating Scale-A Questionnaire Test Code
    :notation: BPR01TC
    :status: :updated
  :C111112:
    :key: C111112
    :id: aHR0cDovL3d3dy5jZGlzYy5vcmcvQzExMTExMi9WNTkjQzExMTExMg==
    :identifier: C111112
    :label: Device Properties Test Name
    :notation: DOTEST
    :status: :updated
  :C158118:
    :key: C158118
    :id: aHR0cDovL3d3dy5jZGlzYy5vcmcvQzE1ODExOC9WNTkjQzE1ODExOA==
    :identifier: C158118
    :label: Age Estimation Method Response
    :notation: AGESMETH
    :status: :updated
  :C112436:
    :key: C112436
    :id: aHR0cDovL3d3dy5jZGlzYy5vcmcvQzExMjQzNi9WNDcjQzExMjQzNg==
    :identifier: C112436
    :label: Disease Steps Questionnaire Test Name
    :notation: DS01TN
    :status: :updated
  :C124307:
    :key: C124307
    :id: aHR0cDovL3d3dy5jZGlzYy5vcmcvQzEyNDMwNy9WNDYjQzEyNDMwNw==
    :identifier: C124307
    :label: Treatment Intent
    :notation: TRTINTNT
    :status: :updated
  :C71113:
    :key: C71113
    :id: aHR0cDovL3d3dy5jZGlzYy5vcmcvQzcxMTEzL1Y1OCNDNzExMTM=
    :identifier: C71113
    :label: Frequency
    :notation: FREQ
    :status: :updated
  :C147067:
    :key: C147067
    :id: aHR0cDovL3d3dy5jZGlzYy5vcmcvQzE0NzA2Ny9WNTUjQzE0NzA2Nw==
    :identifier: C147067
    :label: Study Purpose Response
    :notation: Study Purpose Response
    :status: :updated
  :C150812:
    :key: C150812
    :id: aHR0cDovL3d3dy5jZGlzYy5vcmcvQzE1MDgxMi9WNTYjQzE1MDgxMg==
    :identifier: C150812
    :label: CDAD Findings About Test Code
    :notation: CDFATSCD
    :status: :updated
  :C66786:
    :key: C66786
    :id: aHR0cDovL3d3dy5jZGlzYy5vcmcvQzY2Nzg2L1Y1OSNDNjY3ODY=
    :identifier: C66786
    :label: Country
    :notation: COUNTRY
    :status: :updated
  :C106656:
    :key: C106656
    :id: aHR0cDovL3d3dy5jZGlzYy5vcmcvQzEwNjY1Ni9WNDcjQzEwNjY1Ng==
    :identifier: C106656
    :label: Transition Dyspnea Index Questionnaire Test Name
    :notation: TDI01TN
    :status: :updated
  :C111107:
    :key: C111107
    :id: aHR0cDovL3d3dy5jZGlzYy5vcmcvQzExMTEwNy9WNTkjQzExMTEwNw==
    :identifier: C111107
    :label: Respiratory Test Name
    :notation: RETEST
    :status: :updated
  :C78733:
    :key: C78733
    :id: aHR0cDovL3d3dy5jZGlzYy5vcmcvQzc4NzMzL1Y1OSNDNzg3MzM=
    :identifier: C78733
    :label: Specimen Condition
    :notation: SPECCOND
    :status: :updated
  :C132310:
    :key: C132310
    :id: aHR0cDovL3d3dy5jZGlzYy5vcmcvQzEzMjMxMC9WNTcjQzEzMjMxMA==
    :identifier: C132310
    :label: Protocol Entity Terminology
    :notation: Protocol Entity Terminology
    :status: :updated
  :C85492:
    :key: C85492
    :id: aHR0cDovL3d3dy5jZGlzYy5vcmcvQzg1NDkyL1Y1OSNDODU0OTI=
    :identifier: C85492
    :label: Method
    :notation: METHOD
    :status: :updated
  :C89972:
    :key: C89972
    :id: aHR0cDovL3d3dy5jZGlzYy5vcmcvQzg5OTcyL1Y0NyNDODk5NzI=
    :identifier: C89972
    :label: Macroscopic Findings Test Code
    :notation: MATESTCD
    :status: :updated
  :C101806:
    :key: C101806
    :id: aHR0cDovL3d3dy5jZGlzYy5vcmcvQzEwMTgwNi9WNDcjQzEwMTgwNg==
    :identifier: C101806
    :label: Abnormal Involuntary Movement Scale Questionnaire Test Name
    :notation: AIMS01TN
    :status: :updated
  :C66787:
    :key: C66787
    :id: aHR0cDovL3d3dy5jZGlzYy5vcmcvQzY2Nzg3L1Y1MCNDNjY3ODc=
    :identifier: C66787
    :label: Diagnosis Group Response
    :notation: TDIGRP
    :status: :deleted
  :C66734:
    :key: C66734
    :id: aHR0cDovL3d3dy5jZGlzYy5vcmcvQzY2NzM0L1Y1OCNDNjY3MzQ=
    :identifier: C66734
    :label: SDTM Domain Abbreviation
    :notation: DOMAIN
    :status: :updated
  :C67153:
    :key: C67153
    :id: aHR0cDovL3d3dy5jZGlzYy5vcmcvQzY3MTUzL1Y1OSNDNjcxNTM=
    :identifier: C67153
    :label: Vital Signs Test Name
    :notation: VSTEST
    :status: :updated
  :C100130:
    :key: C100130
    :id: aHR0cDovL3d3dy5jZGlzYy5vcmcvQzEwMDEzMC9WNTcjQzEwMDEzMA==
    :identifier: C100130
    :label: Relationship to Subject
    :notation: RELSUB
    :status: :updated
  :C147068:
    :key: C147068
    :id: aHR0cDovL3d3dy5jZGlzYy5vcmcvQzE0NzA2OC9WNTUjQzE0NzA2OA==
    :identifier: C147068
    :label: Subject Allocation Response
    :notation: Subject Allocation Response
    :status: :updated
  :C106654:
    :key: C106654
    :id: aHR0cDovL3d3dy5jZGlzYy5vcmcvQzEwNjY1NC9WNDcjQzEwNjY1NA==
    :identifier: C106654
    :label: Baseline Dyspnea Index Questionnaire Test Name
    :notation: BDI01TN
    :status: :updated
  :C150774:
    :key: C150774
    :id: aHR0cDovL3d3dy5jZGlzYy5vcmcvQzE1MDc3NC9WNTYjQzE1MDc3NA==
    :identifier: C150774
    :label: Functional Assessment of Cancer Therapy-Colorectal Version 4 Questionnaire
      Test Code
    :notation: FAC008TC
    :status: :updated
  :C101858:
    :key: C101858
    :id: aHR0cDovL3d3dy5jZGlzYy5vcmcvQzEwMTg1OC9WNTkjQzEwMTg1OA==
    :identifier: C101858
    :label: Procedure
    :notation: PROCEDUR
    :status: :updated
  :C77530:
    :key: C77530
    :id: aHR0cDovL3d3dy5jZGlzYy5vcmcvQzc3NTMwL1Y0OSNDNzc1MzA=
    :identifier: C77530
    :label: Strain/Substrain
    :notation: STRAIN
    :status: :updated
  :C135687:
    :key: C135687
    :id: aHR0cDovL3d3dy5jZGlzYy5vcmcvQzEzNTY4Ny9WNTQjQzEzNTY4Nw==
    :identifier: C135687
    :label: Patient Global Impression Generic Modification Version Questionnaire Test
      Name
    :notation: PGI01TN
    :status: :updated
  :C120528:
    :key: C120528
    :id: aHR0cDovL3d3dy5jZGlzYy5vcmcvQzEyMDUyOC9WNTkjQzEyMDUyOA==
    :identifier: C120528
    :label: Microbiology Test Name
    :notation: MBTEST
    :status: :updated
  :C101816:
    :key: C101816
    :id: aHR0cDovL3d3dy5jZGlzYy5vcmcvQzEwMTgxNi9WNDcjQzEwMTgxNg==
    :identifier: C101816
    :label: Eastern Cooperative Oncology Group Performance Status Questionnaire Test
      Name
    :notation: ECOG1TN
    :status: :updated
