---
:created:
- :identifier: :C150776
  :label: Functional Assessment of Cancer Therapy-Taxane Version 4 Questionnaire Test
    Code
  :notation: FAC063TC
  :id: aHR0cDovL3d3dy5jZGlzYy5vcmcvQzE1MDc3Ni9WNTYjQzE1MDc3Ng==
  :last_id: aHR0cDovL3d3dy5jZGlzYy5vcmcvQzE1MDc3Ni9WNTYjQzE1MDc3Ng==
- :identifier: :C150768
  :label: Emotion Recognition Functional Test Test Code
  :notation: EMO1TC
  :id: aHR0cDovL3d3dy5jZGlzYy5vcmcvQzE1MDc2OC9WNTYjQzE1MDc2OA==
  :last_id: aHR0cDovL3d3dy5jZGlzYy5vcmcvQzE1MDc2OC9WNTYjQzE1MDc2OA==
- :identifier: :C150781
  :label: Functional Assessment of Cancer Therapy-Lung Version 4 Questionnaire Test
    Name
  :notation: FAC016TN
  :id: aHR0cDovL3d3dy5jZGlzYy5vcmcvQzE1MDc4MS9WNTYjQzE1MDc4MQ==
  :last_id: aHR0cDovL3d3dy5jZGlzYy5vcmcvQzE1MDc4MS9WNTYjQzE1MDc4MQ==
- :identifier: :C150813
  :label: CDAD Findings About Test Name
  :notation: CDFATS
  :id: aHR0cDovL3d3dy5jZGlzYy5vcmcvQzE1MDgxMy9WNTYjQzE1MDgxMw==
  :last_id: aHR0cDovL3d3dy5jZGlzYy5vcmcvQzE1MDgxMy9WNTYjQzE1MDgxMw==
- :identifier: :C150778
  :label: Functional Assessment of Cancer Therapy-Biologic Response Modifiers Version
    4 Questionnaire Test Code
  :notation: FAC062TC
  :id: aHR0cDovL3d3dy5jZGlzYy5vcmcvQzE1MDc3OC9WNTYjQzE1MDc3OA==
  :last_id: aHR0cDovL3d3dy5jZGlzYy5vcmcvQzE1MDc3OC9WNTYjQzE1MDc3OA==
- :identifier: :C150790
  :label: Suicidal Ideation Questionnaire Test Code
  :notation: SIQ01TC
  :id: aHR0cDovL3d3dy5jZGlzYy5vcmcvQzE1MDc5MC9WNTYjQzE1MDc5MA==
  :last_id: aHR0cDovL3d3dy5jZGlzYy5vcmcvQzE1MDc5MC9WNTYjQzE1MDc5MA==
- :identifier: :C150785
  :label: National Comprehensive Cancer Network/Functional Assessment of Cancer Therapy-Brain
    Symptom Index-24 Version 2 Questionnaire Test Name
  :notation: FAC030TN
  :id: aHR0cDovL3d3dy5jZGlzYy5vcmcvQzE1MDc4NS9WNTYjQzE1MDc4NQ==
  :last_id: aHR0cDovL3d3dy5jZGlzYy5vcmcvQzE1MDc4NS9WNTYjQzE1MDc4NQ==
- :identifier: :C150774
  :label: Functional Assessment of Cancer Therapy-Colorectal Version 4 Questionnaire
    Test Code
  :notation: FAC008TC
  :id: aHR0cDovL3d3dy5jZGlzYy5vcmcvQzE1MDc3NC9WNTYjQzE1MDc3NA==
  :last_id: aHR0cDovL3d3dy5jZGlzYy5vcmcvQzE1MDc3NC9WNTYjQzE1MDc3NA==
- :identifier: :C150771
  :label: Paced Tapping Functional Test Test Name
  :notation: PTAP1TN
  :id: aHR0cDovL3d3dy5jZGlzYy5vcmcvQzE1MDc3MS9WNTYjQzE1MDc3MQ==
  :last_id: aHR0cDovL3d3dy5jZGlzYy5vcmcvQzE1MDc3MS9WNTYjQzE1MDc3MQ==
- :identifier: :C150780
  :label: Functional Assessment of Cancer Functional Assessment of Cancer Therapy/Gynecologic
    Oncology Group-Neurotoxicity Version 4 Questionnaire Test Code
  :notation: FAC057TC
  :id: aHR0cDovL3d3dy5jZGlzYy5vcmcvQzE1MDc4MC9WNTYjQzE1MDc4MA==
  :last_id: aHR0cDovL3d3dy5jZGlzYy5vcmcvQzE1MDc4MC9WNTgjQzE1MDc4MA==
- :identifier: :C150769
  :label: Mini-Mental State Examination 2 Standard Version Functional Test Test Name
  :notation: MMS2TN
  :id: aHR0cDovL3d3dy5jZGlzYy5vcmcvQzE1MDc2OS9WNTYjQzE1MDc2OQ==
  :last_id: aHR0cDovL3d3dy5jZGlzYy5vcmcvQzE1MDc2OS9WNTYjQzE1MDc2OQ==
- :identifier: :C150783
  :label: Functional Assessment of Cancer Therapy-Kidney Symptom Index-Disease-Related
    Symptoms Version 4 Questionnaire Test Name
  :notation: FAC041TN
  :id: aHR0cDovL3d3dy5jZGlzYy5vcmcvQzE1MDc4My9WNTYjQzE1MDc4Mw==
  :last_id: aHR0cDovL3d3dy5jZGlzYy5vcmcvQzE1MDc4My9WNTYjQzE1MDc4Mw==
- :identifier: :C150791
  :label: Suicidal Ideation Questionnaire-JR Questionnaire Test Name
  :notation: SIQ02TN
  :id: aHR0cDovL3d3dy5jZGlzYy5vcmcvQzE1MDc5MS9WNTYjQzE1MDc5MQ==
  :last_id: aHR0cDovL3d3dy5jZGlzYy5vcmcvQzE1MDc5MS9WNTYjQzE1MDc5MQ==
- :identifier: :C150775
  :label: Functional Assessment of Cancer Therapy-Taxane Version 4 Questionnaire Test
    Name
  :notation: FAC063TN
  :id: aHR0cDovL3d3dy5jZGlzYy5vcmcvQzE1MDc3NS9WNTYjQzE1MDc3NQ==
  :last_id: aHR0cDovL3d3dy5jZGlzYy5vcmcvQzE1MDc3NS9WNTYjQzE1MDc3NQ==
- :identifier: :C150767
  :label: Emotion Recognition Functional Test Test Name
  :notation: EMO1TN
  :id: aHR0cDovL3d3dy5jZGlzYy5vcmcvQzE1MDc2Ny9WNTYjQzE1MDc2Nw==
  :last_id: aHR0cDovL3d3dy5jZGlzYy5vcmcvQzE1MDc2Ny9WNTYjQzE1MDc2Nw==
- :identifier: :C150777
  :label: Functional Assessment of Cancer Therapy-Biologic Response Modifiers Version
    4 Questionnaire Test Name
  :notation: FAC062TN
  :id: aHR0cDovL3d3dy5jZGlzYy5vcmcvQzE1MDc3Ny9WNTYjQzE1MDc3Nw==
  :last_id: aHR0cDovL3d3dy5jZGlzYy5vcmcvQzE1MDc3Ny9WNTYjQzE1MDc3Nw==
- :identifier: :C150766
  :label: Controlled Oral Word Association Test Functional Test Test Code
  :notation: COWAT1TC
  :id: aHR0cDovL3d3dy5jZGlzYy5vcmcvQzE1MDc2Ni9WNTYjQzE1MDc2Ng==
  :last_id: aHR0cDovL3d3dy5jZGlzYy5vcmcvQzE1MDc2Ni9WNTYjQzE1MDc2Ng==
- :identifier: :C150770
  :label: Mini-Mental State Examination 2 Standard Version Functional Test Test Code
  :notation: MMS2TC
  :id: aHR0cDovL3d3dy5jZGlzYy5vcmcvQzE1MDc3MC9WNTYjQzE1MDc3MA==
  :last_id: aHR0cDovL3d3dy5jZGlzYy5vcmcvQzE1MDc3MC9WNTYjQzE1MDc3MA==
- :identifier: :C150789
  :label: Suicidal Ideation Questionnaire Test Name
  :notation: SIQ01TN
  :id: aHR0cDovL3d3dy5jZGlzYy5vcmcvQzE1MDc4OS9WNTYjQzE1MDc4OQ==
  :last_id: aHR0cDovL3d3dy5jZGlzYy5vcmcvQzE1MDc4OS9WNTYjQzE1MDc4OQ==
- :identifier: :C150812
  :label: CDAD Findings About Test Code
  :notation: CDFATSCD
  :id: aHR0cDovL3d3dy5jZGlzYy5vcmcvQzE1MDgxMi9WNTYjQzE1MDgxMg==
  :last_id: aHR0cDovL3d3dy5jZGlzYy5vcmcvQzE1MDgxMi9WNTYjQzE1MDgxMg==
- :identifier: :C150779
  :label: Functional Assessment of Cancer Therapy/Gynecologic Oncology Group-Neurotoxicity
    Version 4 Questionnaire Test Name
  :notation: FAC057TN
  :id: aHR0cDovL3d3dy5jZGlzYy5vcmcvQzE1MDc3OS9WNTYjQzE1MDc3OQ==
  :last_id: aHR0cDovL3d3dy5jZGlzYy5vcmcvQzE1MDc3OS9WNTYjQzE1MDc3OQ==
- :identifier: :C150772
  :label: Paced Tapping Functional Test Test Code
  :notation: PTAP1TC
  :id: aHR0cDovL3d3dy5jZGlzYy5vcmcvQzE1MDc3Mi9WNTYjQzE1MDc3Mg==
  :last_id: aHR0cDovL3d3dy5jZGlzYy5vcmcvQzE1MDc3Mi9WNTYjQzE1MDc3Mg==
- :identifier: :C150782
  :label: Functional Assessment of Cancer Therapy-Lung Version 4 Questionnaire Test
    Code
  :notation: FAC016TC
  :id: aHR0cDovL3d3dy5jZGlzYy5vcmcvQzE1MDc4Mi9WNTYjQzE1MDc4Mg==
  :last_id: aHR0cDovL3d3dy5jZGlzYy5vcmcvQzE1MDc4Mi9WNTYjQzE1MDc4Mg==
- :identifier: :C150788
  :label: National Comprehensive Cancer Network/Functional Assessment of Cancer Therapy-Head
    & Neck Symptom Index-22 Version 2 Questionnaire Test Code
  :notation: FAC036TC
  :id: aHR0cDovL3d3dy5jZGlzYy5vcmcvQzE1MDc4OC9WNTYjQzE1MDc4OA==
  :last_id: aHR0cDovL3d3dy5jZGlzYy5vcmcvQzE1MDc4OC9WNTYjQzE1MDc4OA==
- :identifier: :C150811
  :label: Other Disposition Event Response
  :notation: OTHEVENT
  :id: aHR0cDovL3d3dy5jZGlzYy5vcmcvQzE1MDgxMS9WNTYjQzE1MDgxMQ==
  :last_id: aHR0cDovL3d3dy5jZGlzYy5vcmcvQzE1MDgxMS9WNTYjQzE1MDgxMQ==
- :identifier: :C150765
  :label: Controlled Oral Word Association Test Functional Test Test Name
  :notation: COWAT1TN
  :id: aHR0cDovL3d3dy5jZGlzYy5vcmcvQzE1MDc2NS9WNTYjQzE1MDc2NQ==
  :last_id: aHR0cDovL3d3dy5jZGlzYy5vcmcvQzE1MDc2NS9WNTYjQzE1MDc2NQ==
- :identifier: :C150792
  :label: Suicidal Ideation Questionnaire-JR Questionnaire Test Code
  :notation: SIQ02TC
  :id: aHR0cDovL3d3dy5jZGlzYy5vcmcvQzE1MDc5Mi9WNTYjQzE1MDc5Mg==
  :last_id: aHR0cDovL3d3dy5jZGlzYy5vcmcvQzE1MDc5Mi9WNTYjQzE1MDc5Mg==
- :identifier: :C150787
  :label: National Comprehensive Cancer Network/Functional Assessment of Cancer Therapy-Head
    & Neck Symptom Index-22 Version 2 Questionnaire Test Name
  :notation: FAC036TN
  :id: aHR0cDovL3d3dy5jZGlzYy5vcmcvQzE1MDc4Ny9WNTYjQzE1MDc4Nw==
  :last_id: aHR0cDovL3d3dy5jZGlzYy5vcmcvQzE1MDc4Ny9WNTYjQzE1MDc4Nw==
- :identifier: :C150786
  :label: National Comprehensive Cancer Network/Functional Assessment of Cancer Therapy-Brain
    Symptom Index-24 Version 2 Questionnaire Test Code
  :notation: FAC030TC
  :id: aHR0cDovL3d3dy5jZGlzYy5vcmcvQzE1MDc4Ni9WNTYjQzE1MDc4Ng==
  :last_id: aHR0cDovL3d3dy5jZGlzYy5vcmcvQzE1MDc4Ni9WNTYjQzE1MDc4Ng==
- :identifier: :C150773
  :label: Functional Assessment of Cancer Therapy-Colorectal Version 4 Questionnaire
    Test Name
  :notation: FAC008TN
  :id: aHR0cDovL3d3dy5jZGlzYy5vcmcvQzE1MDc3My9WNTYjQzE1MDc3Mw==
  :last_id: aHR0cDovL3d3dy5jZGlzYy5vcmcvQzE1MDc3My9WNTYjQzE1MDc3Mw==
- :identifier: :C150784
  :label: Functional Assessment of Cancer Therapy-Kidney Symptom Index-Disease-Related
    Symptoms Version 4 Questionnaire Test Code
  :notation: FAC041TC
  :id: aHR0cDovL3d3dy5jZGlzYy5vcmcvQzE1MDc4NC9WNTYjQzE1MDc4NA==
  :last_id: aHR0cDovL3d3dy5jZGlzYy5vcmcvQzE1MDc4NC9WNTYjQzE1MDc4NA==
- :identifier: :C150810
  :label: Null Flavor Reason
  :notation: NULLFLAV
  :id: aHR0cDovL3d3dy5jZGlzYy5vcmcvQzE1MDgxMC9WNTYjQzE1MDgxMA==
  :last_id: aHR0cDovL3d3dy5jZGlzYy5vcmcvQzE1MDgxMC9WNTYjQzE1MDgxMA==
- :identifier: :C154449
  :label: Unified Huntington's Disease Rating Scale '99 Clinical Classification Test
    Code
  :notation: UHDR1TC
  :id: aHR0cDovL3d3dy5jZGlzYy5vcmcvQzE1NDQ0OS9WNTcjQzE1NDQ0OQ==
  :last_id: ''
- :identifier: :C154450
  :label: Functional Assessment of Chronic Illness Therapy-Dyspnea Scale 33 Item Bank
    Questionnaire Test Name
  :notation: FAC100TN
  :id: aHR0cDovL3d3dy5jZGlzYy5vcmcvQzE1NDQ1MC9WNTcjQzE1NDQ1MA==
  :last_id: ''
- :identifier: :C154446
  :label: Children's Depression Rating Scale, Revised Clinical Classification Test
    Name
  :notation: CDRS01TN
  :id: aHR0cDovL3d3dy5jZGlzYy5vcmcvQzE1NDQ0Ni9WNTcjQzE1NDQ0Ng==
  :last_id: ''
- :identifier: :C154688
  :label: Lung Cancer Findings About Test Name
  :notation: LUFATS
  :id: aHR0cDovL3d3dy5jZGlzYy5vcmcvQzE1NDY4OC9WNTcjQzE1NDY4OA==
  :last_id: ''
- :identifier: :C154456
  :label: Symptoms of Major Depressive Disorder Scale v1.0 Questionnaire Test Name
  :notation: SMDDS1TN
  :id: aHR0cDovL3d3dy5jZGlzYy5vcmcvQzE1NDQ1Ni9WNTcjQzE1NDQ1Ng==
  :last_id: ''
- :identifier: :C154687
  :label: Lung Cancer Findings About Test Code
  :notation: LUFATSCD
  :id: aHR0cDovL3d3dy5jZGlzYy5vcmcvQzE1NDY4Ny9WNTcjQzE1NDY4Nw==
  :last_id: ''
- :identifier: :C154453
  :label: Functional Assessment of Cancer Therapy-Bladder Version 4 Questionnaire
    Test Code
  :notation: FAC006TC
  :id: aHR0cDovL3d3dy5jZGlzYy5vcmcvQzE1NDQ1My9WNTcjQzE1NDQ1Mw==
  :last_id: ''
- :identifier: :C154457
  :label: Symptoms of Major Depressive Disorder Scale v1.0 Questionnaire Test Code
  :notation: SMDDS1TC
  :id: aHR0cDovL3d3dy5jZGlzYy5vcmcvQzE1NDQ1Ny9WNTcjQzE1NDQ1Nw==
  :last_id: ''
- :identifier: :C154454
  :label: Non-Small Cell Lung Cancer Symptom Assessment Questionnaire v1.0 Questionnaire
    Test Name
  :notation: NSCLC1TN
  :id: aHR0cDovL3d3dy5jZGlzYy5vcmcvQzE1NDQ1NC9WNTcjQzE1NDQ1NA==
  :last_id: ''
- :identifier: :C154455
  :label: Non-Small Cell Lung Cancer Symptom Assessment Questionnaire v1.0 Questionnaire
    Test Code
  :notation: NSCLC1TC
  :id: aHR0cDovL3d3dy5jZGlzYy5vcmcvQzE1NDQ1NS9WNTcjQzE1NDQ1NQ==
  :last_id: ''
- :identifier: :C154686
  :label: Nutrition Findings About Test Name
  :notation: NTFATS
  :id: aHR0cDovL3d3dy5jZGlzYy5vcmcvQzE1NDY4Ni9WNTcjQzE1NDY4Ng==
  :last_id: ''
- :identifier: :C154447
  :label: Children's Depression Rating Scale, Revised Clinical Classification Test
    Code
  :notation: CDRS01TC
  :id: aHR0cDovL3d3dy5jZGlzYy5vcmcvQzE1NDQ0Ny9WNTcjQzE1NDQ0Nw==
  :last_id: ''
- :identifier: :C154452
  :label: Functional Assessment of Cancer Therapy-Bladder Version 4 Questionnaire
    Test Name
  :notation: FAC006TN
  :id: aHR0cDovL3d3dy5jZGlzYy5vcmcvQzE1NDQ1Mi9WNTcjQzE1NDQ1Mg==
  :last_id: ''
- :identifier: :C154448
  :label: Unified Huntington's Disease Rating Scale '99 Clinical Classification Test
    Name
  :notation: UHDR1TN
  :id: aHR0cDovL3d3dy5jZGlzYy5vcmcvQzE1NDQ0OC9WNTcjQzE1NDQ0OA==
  :last_id: ''
- :identifier: :C154451
  :label: Functional Assessment of Chronic Illness Therapy-Dyspnea Scale 33 Item Bank
    Questionnaire Test Code
  :notation: FAC100TC
  :id: aHR0cDovL3d3dy5jZGlzYy5vcmcvQzE1NDQ1MS9WNTcjQzE1NDQ1MQ==
  :last_id: ''
- :identifier: :C154685
  :label: Nutrition Findings About Test Code
  :notation: NTFATSCD
  :id: aHR0cDovL3d3dy5jZGlzYy5vcmcvQzE1NDY4NS9WNTcjQzE1NDY4NQ==
  :last_id: ''
- :identifier: :C154684
  :label: Planned Pharmacologic Target Mode of Action Response
  :notation: PPTMDARS
  :id: aHR0cDovL3d3dy5jZGlzYy5vcmcvQzE1NDY4NC9WNTcjQzE1NDY4NA==
  :last_id: ''
- :identifier: :C154681
  :label: Protocol Contact Role Response
  :notation: Protocol Contact Role Response
  :id: aHR0cDovL3d3dy5jZGlzYy5vcmcvQzE1NDY4MS9WNTcjQzE1NDY4MQ==
  :last_id: ''
- :identifier: :C154682
  :label: Study Contact Information Attribute Terminology
  :notation: Study Contact Information Attribute Terminology
  :id: aHR0cDovL3d3dy5jZGlzYy5vcmcvQzE1NDY4Mi9WNTcjQzE1NDY4Mg==
  :last_id: ''
- :identifier: :C156673
  :label: Covi Anxiety Scale Clinical Classification Test Code
  :notation: COVI01TC
  :id: aHR0cDovL3d3dy5jZGlzYy5vcmcvQzE1NjY3My9WNTgjQzE1NjY3Mw==
  :last_id: ''
- :identifier: :C156672
  :label: Covi Anxiety Scale Clinical Classification Test Name
  :notation: COVI01TN
  :id: aHR0cDovL3d3dy5jZGlzYy5vcmcvQzE1NjY3Mi9WNTgjQzE1NjY3Mg==
  :last_id: ''
- :identifier: :C158115
  :label: Geriatric Depression Scale Short Form Questionnaire Parameter Name
  :notation: GDS02PN
  :id: aHR0cDovL3d3dy5jZGlzYy5vcmcvQzE1ODExNS9WNTkjQzE1ODExNQ==
  :last_id: ''
- :identifier: :C158117
  :label: Challenge Agent Parameter Long Name
  :notation: ACPARM
  :id: aHR0cDovL3d3dy5jZGlzYy5vcmcvQzE1ODExNy9WNTkjQzE1ODExNw==
  :last_id: ''
- :identifier: :C158113
  :label: QRS Method
  :notation: QRSMTHOD
  :id: aHR0cDovL3d3dy5jZGlzYy5vcmcvQzE1ODExMy9WNTkjQzE1ODExMw==
  :last_id: ''
- :identifier: :C157726
  :label: Patient Health Questionnaire - 2 Item Questionnaire Test Name
  :notation: PHQ04TN
  :id: aHR0cDovL3d3dy5jZGlzYy5vcmcvQzE1NzcyNi9WNTkjQzE1NzcyNg==
  :last_id: ''
- :identifier: :C158119
  :label: Biological Challenge Agent Category Response
  :notation: BACAT
  :id: aHR0cDovL3d3dy5jZGlzYy5vcmcvQzE1ODExOS9WNTkjQzE1ODExOQ==
  :last_id: ''
- :identifier: :C158114
  :label: Geriatric Depression Scale Short Form Questionnaire Parameter Code
  :notation: GDS02PC
  :id: aHR0cDovL3d3dy5jZGlzYy5vcmcvQzE1ODExNC9WNTkjQzE1ODExNA==
  :last_id: ''
- :identifier: :C158116
  :label: Challenge Agent Parameter Code
  :notation: ACPARMCD
  :id: aHR0cDovL3d3dy5jZGlzYy5vcmcvQzE1ODExNi9WNTkjQzE1ODExNg==
  :last_id: ''
- :identifier: :C157727
  :label: Patient Health Questionnaire - 2 Item Questionnaire Test Code
  :notation: PHQ04TC
  :id: aHR0cDovL3d3dy5jZGlzYy5vcmcvQzE1NzcyNy9WNTkjQzE1NzcyNw==
  :last_id: ''
- :identifier: :C158118
  :label: Age Estimation Method Response
  :notation: AGESMETH
  :id: aHR0cDovL3d3dy5jZGlzYy5vcmcvQzE1ODExOC9WNTkjQzE1ODExOA==
  :last_id: ''
- :identifier: :C158120
  :label: Challenge Agent Category Response
  :notation: CAGTCAT
  :id: aHR0cDovL3d3dy5jZGlzYy5vcmcvQzE1ODEyMC9WNTkjQzE1ODEyMA==
  :last_id: ''
- :identifier: :C158123
  :label: Restraint Mode Response
  :notation: RSTMODRS
  :id: aHR0cDovL3d3dy5jZGlzYy5vcmcvQzE1ODEyMy9WNTkjQzE1ODEyMw==
  :last_id: ''
- :identifier: :C158121
  :label: Rad/Nuc Agent Ionizing Radiation Type Response
  :notation: RNAIOTYP
  :id: aHR0cDovL3d3dy5jZGlzYy5vcmcvQzE1ODEyMS9WNTkjQzE1ODEyMQ==
  :last_id: ''
- :identifier: :C158124
  :label: Sexual Maturity Status Response
  :notation: SEXMAT
  :id: aHR0cDovL3d3dy5jZGlzYy5vcmcvQzE1ODEyNC9WNTkjQzE1ODEyNA==
  :last_id: ''
- :identifier: :C158125
  :label: Study Report Status Response
  :notation: STRPSTAT
  :id: aHR0cDovL3d3dy5jZGlzYy5vcmcvQzE1ODEyNS9WNTkjQzE1ODEyNQ==
  :last_id: ''
- :identifier: :C158122
  :label: Rad/Nuc Agent Source Response
  :notation: RNASRC
  :id: aHR0cDovL3d3dy5jZGlzYy5vcmcvQzE1ODEyMi9WNTkjQzE1ODEyMg==
  :last_id: ''
:deleted:
- :identifier: :C124664
  :label: Tanner Scale Girl Clinical Classification Test Code
  :notation: TANN01TC
  :id: aHR0cDovL3d3dy5jZGlzYy5vcmcvQzEyNDY2NC9WNDcjQzEyNDY2NA==
  :last_id: ''
- :identifier: :C135683
  :label: Clinical Global Impression Questionnaire Test Name
  :notation: CGGUY1TN
  :id: aHR0cDovL3d3dy5jZGlzYy5vcmcvQzEzNTY4My9WNTIjQzEzNTY4Mw==
  :last_id: ''
- :identifier: :C124662
  :label: Tanner Scale Boy Clinical Classification Test Code
  :notation: TANN02TC
  :id: aHR0cDovL3d3dy5jZGlzYy5vcmcvQzEyNDY2Mi9WNDcjQzEyNDY2Mg==
  :last_id: ''
- :identifier: :C135684
  :label: Clinical Global Impression Questionnaire Test Code
  :notation: CGGUY1TC
  :id: aHR0cDovL3d3dy5jZGlzYy5vcmcvQzEzNTY4NC9WNTIjQzEzNTY4NA==
  :last_id: ''
- :identifier: :C124663
  :label: Tanner Scale Girl Clinical Classification Test Name
  :notation: TANN01TN
  :id: aHR0cDovL3d3dy5jZGlzYy5vcmcvQzEyNDY2My9WNDcjQzEyNDY2Mw==
  :last_id: ''
- :identifier: :C124661
  :label: Tanner Scale Boy Clinical Classification Test Name
  :notation: TANN02TN
  :id: aHR0cDovL3d3dy5jZGlzYy5vcmcvQzEyNDY2MS9WNDcjQzEyNDY2MQ==
  :last_id: ''
:updated:
- :identifier: :C85492
  :label: Method
  :notation: METHOD
  :id: aHR0cDovL3d3dy5jZGlzYy5vcmcvQzg1NDkyL1Y1NiNDODU0OTI=
  :last_id: aHR0cDovL3d3dy5jZGlzYy5vcmcvQzg1NDkyL1Y1OSNDODU0OTI=
- :identifier: :C65047
  :label: Laboratory Test Code
  :notation: LBTESTCD
  :id: aHR0cDovL3d3dy5jZGlzYy5vcmcvQzY1MDQ3L1Y1NiNDNjUwNDc=
  :last_id: aHR0cDovL3d3dy5jZGlzYy5vcmcvQzY1MDQ3L1Y1OSNDNjUwNDc=
- :identifier: :C66741
  :label: Vital Signs Test Code
  :notation: VSTESTCD
  :id: aHR0cDovL3d3dy5jZGlzYy5vcmcvQzY2NzQxL1Y1NSNDNjY3NDE=
  :last_id: aHR0cDovL3d3dy5jZGlzYy5vcmcvQzY2NzQxL1Y1OSNDNjY3NDE=
- :identifier: :C96784
  :label: Tumor or Lesion Identification Test Code
  :notation: TUTESTCD
  :id: aHR0cDovL3d3dy5jZGlzYy5vcmcvQzk2Nzg0L1Y1NSNDOTY3ODQ=
  :last_id: aHR0cDovL3d3dy5jZGlzYy5vcmcvQzk2Nzg0L1Y1NyNDOTY3ODQ=
- :identifier: :C101858
  :label: Procedure
  :notation: PROCEDUR
  :id: aHR0cDovL3d3dy5jZGlzYy5vcmcvQzEwMTg1OC9WNTUjQzEwMTg1OA==
  :last_id: aHR0cDovL3d3dy5jZGlzYy5vcmcvQzEwMTg1OC9WNTkjQzEwMTg1OA==
- :identifier: :C66738
  :label: Trial Summary Parameter Test Code
  :notation: TSPARMCD
  :id: aHR0cDovL3d3dy5jZGlzYy5vcmcvQzY2NzM4L1Y1NiNDNjY3Mzg=
  :last_id: aHR0cDovL3d3dy5jZGlzYy5vcmcvQzY2NzM4L1Y1OSNDNjY3Mzg=
- :identifier: :C96782
  :label: Oncology Response Assessment Test Code
  :notation: ONCRTSCD
  :id: aHR0cDovL3d3dy5jZGlzYy5vcmcvQzk2NzgyL1Y1NCNDOTY3ODI=
  :last_id: aHR0cDovL3d3dy5jZGlzYy5vcmcvQzk2NzgyL1Y1OCNDOTY3ODI=
- :identifier: :C132263
  :label: SDTM Microscopic Findings Test Code
  :notation: MITSCD
  :id: aHR0cDovL3d3dy5jZGlzYy5vcmcvQzEzMjI2My9WNTUjQzEzMjI2Mw==
  :last_id: aHR0cDovL3d3dy5jZGlzYy5vcmcvQzEzMjI2My9WNTgjQzEzMjI2Mw==
- :identifier: :C116104
  :label: Nervous System Findings Test Code
  :notation: NVTESTCD
  :id: aHR0cDovL3d3dy5jZGlzYy5vcmcvQzExNjEwNC9WNTUjQzExNjEwNA==
  :last_id: aHR0cDovL3d3dy5jZGlzYy5vcmcvQzExNjEwNC9WNTkjQzExNjEwNA==
- :identifier: :C120526
  :label: Immunogenicity Specimen Assessments Test Name
  :notation: ISTEST
  :id: aHR0cDovL3d3dy5jZGlzYy5vcmcvQzEyMDUyNi9WNTYjQzEyMDUyNg==
  :last_id: aHR0cDovL3d3dy5jZGlzYy5vcmcvQzEyMDUyNi9WNTkjQzEyMDUyNg==
- :identifier: :C71151
  :label: ECG Test Method
  :notation: EGMETHOD
  :id: aHR0cDovL3d3dy5jZGlzYy5vcmcvQzcxMTUxL1Y1NSNDNzExNTE=
  :last_id: aHR0cDovL3d3dy5jZGlzYy5vcmcvQzcxMTUxL1Y1OSNDNzExNTE=
- :identifier: :C88025
  :label: Neoplasm Type
  :notation: NEOPLASM
  :id: aHR0cDovL3d3dy5jZGlzYy5vcmcvQzg4MDI1L1Y1NSNDODgwMjU=
  :last_id: aHR0cDovL3d3dy5jZGlzYy5vcmcvQzg4MDI1L1Y1OSNDODgwMjU=
- :identifier: :C124308
  :label: Treatment Setting
  :notation: TRTSET
  :id: aHR0cDovL3d3dy5jZGlzYy5vcmcvQzEyNDMwOC9WNDYjQzEyNDMwOA==
  :last_id: aHR0cDovL3d3dy5jZGlzYy5vcmcvQzEyNDMwOC9WNTgjQzEyNDMwOA==
- :identifier: :C111112
  :label: Device Properties Test Name
  :notation: DOTEST
  :id: aHR0cDovL3d3dy5jZGlzYy5vcmcvQzExMTExMi9WNTYjQzExMTExMg==
  :last_id: aHR0cDovL3d3dy5jZGlzYy5vcmcvQzExMTExMi9WNTkjQzExMTExMg==
- :identifier: :C78734
  :label: Specimen Type
  :notation: SPECTYPE
  :id: aHR0cDovL3d3dy5jZGlzYy5vcmcvQzc4NzM0L1Y1NiNDNzg3MzQ=
  :last_id: aHR0cDovL3d3dy5jZGlzYy5vcmcvQzc4NzM0L1Y1OSNDNzg3MzQ=
- :identifier: :C111106
  :label: Respiratory Test Code
  :notation: RETESTCD
  :id: aHR0cDovL3d3dy5jZGlzYy5vcmcvQzExMTEwNi9WNTUjQzExMTEwNg==
  :last_id: aHR0cDovL3d3dy5jZGlzYy5vcmcvQzExMTEwNi9WNTkjQzExMTEwNg==
- :identifier: :C66726
  :label: Pharmaceutical Dosage Form
  :notation: FRM
  :id: aHR0cDovL3d3dy5jZGlzYy5vcmcvQzY2NzI2L1Y1NCNDNjY3MjY=
  :last_id: aHR0cDovL3d3dy5jZGlzYy5vcmcvQzY2NzI2L1Y1OSNDNjY3MjY=
- :identifier: :C71113
  :label: Frequency
  :notation: FREQ
  :id: aHR0cDovL3d3dy5jZGlzYy5vcmcvQzcxMTEzL1Y1NiNDNzExMTM=
  :last_id: aHR0cDovL3d3dy5jZGlzYy5vcmcvQzcxMTEzL1Y1OCNDNzExMTM=
- :identifier: :C96777
  :label: Medical Evaluator
  :notation: MEDEVAL
  :id: aHR0cDovL3d3dy5jZGlzYy5vcmcvQzk2Nzc3L1Y1NiNDOTY3Nzc=
  :last_id: aHR0cDovL3d3dy5jZGlzYy5vcmcvQzk2Nzc3L1Y1NyNDOTY3Nzc=
- :identifier: :C103463
  :label: Epworth Sleepiness Scale Questionnaire Test Code
  :notation: ESS01TC
  :id: aHR0cDovL3d3dy5jZGlzYy5vcmcvQzEwMzQ2My9WNDcjQzEwMzQ2Mw==
  :last_id: aHR0cDovL3d3dy5jZGlzYy5vcmcvQzEwMzQ2My9WNTkjQzEwMzQ2Mw==
- :identifier: :C128681
  :label: Gastrointestinal Test Name
  :notation: GASTRO
  :id: aHR0cDovL3d3dy5jZGlzYy5vcmcvQzEyODY4MS9WNTMjQzEyODY4MQ==
  :last_id: aHR0cDovL3d3dy5jZGlzYy5vcmcvQzEyODY4MS9WNTgjQzEyODY4MQ==
- :identifier: :C96779
  :label: Tumor or Lesion Properties Test Code
  :notation: TRTESTCD
  :id: aHR0cDovL3d3dy5jZGlzYy5vcmcvQzk2Nzc5L1Y1NiNDOTY3Nzk=
  :last_id: aHR0cDovL3d3dy5jZGlzYy5vcmcvQzk2Nzc5L1Y1OCNDOTY3Nzk=
- :identifier: :C74559
  :label: Subject Characteristic Test Code
  :notation: SCTESTCD
  :id: aHR0cDovL3d3dy5jZGlzYy5vcmcvQzc0NTU5L1Y1NSNDNzQ1NTk=
  :last_id: aHR0cDovL3d3dy5jZGlzYy5vcmcvQzc0NTU5L1Y1OSNDNzQ1NTk=
- :identifier: :C103330
  :label: Subject Characteristic Test Name
  :notation: SCTEST
  :id: aHR0cDovL3d3dy5jZGlzYy5vcmcvQzEwMzMzMC9WNTUjQzEwMzMzMA==
  :last_id: aHR0cDovL3d3dy5jZGlzYy5vcmcvQzEwMzMzMC9WNTkjQzEwMzMzMA==
- :identifier: :C128689
  :label: Race As Collected
  :notation: RACEC
  :id: aHR0cDovL3d3dy5jZGlzYy5vcmcvQzEyODY4OS9WNTYjQzEyODY4OQ==
  :last_id: aHR0cDovL3d3dy5jZGlzYy5vcmcvQzEyODY4OS9WNTkjQzEyODY4OQ==
- :identifier: :C76348
  :label: Marital Status Response
  :notation: MARISTAT
  :id: aHR0cDovL3d3dy5jZGlzYy5vcmcvQzc2MzQ4L1Y0OSNDNzYzNDg=
  :last_id: aHR0cDovL3d3dy5jZGlzYy5vcmcvQzc2MzQ4L1Y1OCNDNzYzNDg=
- :identifier: :C127270
  :label: Musculoskeletal System Finding Test Name
  :notation: MUSCTS
  :id: aHR0cDovL3d3dy5jZGlzYy5vcmcvQzEyNzI3MC9WNTUjQzEyNzI3MA==
  :last_id: aHR0cDovL3d3dy5jZGlzYy5vcmcvQzEyNzI3MC9WNTkjQzEyNzI3MA==
- :identifier: :C125922
  :label: Microscopic Findings Test Details
  :notation: MIFTSDTL
  :id: aHR0cDovL3d3dy5jZGlzYy5vcmcvQzEyNTkyMi9WNTQjQzEyNTkyMg==
  :last_id: aHR0cDovL3d3dy5jZGlzYy5vcmcvQzEyNTkyMi9WNTkjQzEyNTkyMg==
- :identifier: :C106483
  :label: Device-In-Use Test Code
  :notation: DUTESTCD
  :id: aHR0cDovL3d3dy5jZGlzYy5vcmcvQzEwNjQ4My9WNTQjQzEwNjQ4Mw==
  :last_id: aHR0cDovL3d3dy5jZGlzYy5vcmcvQzEwNjQ4My9WNTkjQzEwNjQ4Mw==
- :identifier: :C66734
  :label: SDTM Domain Abbreviation
  :notation: DOMAIN
  :id: aHR0cDovL3d3dy5jZGlzYy5vcmcvQzY2NzM0L1Y1NSNDNjY3MzQ=
  :last_id: aHR0cDovL3d3dy5jZGlzYy5vcmcvQzY2NzM0L1Y1OCNDNjY3MzQ=
- :identifier: :C124309
  :label: Tumor or Lesion Properties Test Result
  :notation: TRPROPRS
  :id: aHR0cDovL3d3dy5jZGlzYy5vcmcvQzEyNDMwOS9WNTYjQzEyNDMwOQ==
  :last_id: aHR0cDovL3d3dy5jZGlzYy5vcmcvQzEyNDMwOS9WNTkjQzEyNDMwOQ==
- :identifier: :C132314
  :label: Specimen Collection Method
  :notation: CLMETH
  :id: aHR0cDovL3d3dy5jZGlzYy5vcmcvQzEzMjMxNC9WNTEjQzEzMjMxNA==
  :last_id: aHR0cDovL3d3dy5jZGlzYy5vcmcvQzEzMjMxNC9WNTcjQzEzMjMxNA==
- :identifier: :C85839
  :label: PK Parameters Code
  :notation: PKPARMCD
  :id: aHR0cDovL3d3dy5jZGlzYy5vcmcvQzg1ODM5L1Y1NSNDODU4Mzk=
  :last_id: aHR0cDovL3d3dy5jZGlzYy5vcmcvQzg1ODM5L1Y1OSNDODU4Mzk=
- :identifier: :C106479
  :label: Reproductive System Findings Test Code
  :notation: RPTESTCD
  :id: aHR0cDovL3d3dy5jZGlzYy5vcmcvQzEwNjQ3OS9WNTUjQzEwNjQ3OQ==
  :last_id: aHR0cDovL3d3dy5jZGlzYy5vcmcvQzEwNjQ3OS9WNTkjQzEwNjQ3OQ==
- :identifier: :C124297
  :label: Biospecimen Events Dictionary Derived Term
  :notation: BEDECOD
  :id: aHR0cDovL3d3dy5jZGlzYy5vcmcvQzEyNDI5Ny9WNDkjQzEyNDI5Nw==
  :last_id: aHR0cDovL3d3dy5jZGlzYy5vcmcvQzEyNDI5Ny9WNTcjQzEyNDI5Nw==
- :identifier: :C124298
  :label: Category of Oncology Response Assessment
  :notation: ONCRSCAT
  :id: aHR0cDovL3d3dy5jZGlzYy5vcmcvQzEyNDI5OC9WNTUjQzEyNDI5OA==
  :last_id: aHR0cDovL3d3dy5jZGlzYy5vcmcvQzEyNDI5OC9WNTkjQzEyNDI5OA==
- :identifier: :C67154
  :label: Laboratory Test Name
  :notation: LBTEST
  :id: aHR0cDovL3d3dy5jZGlzYy5vcmcvQzY3MTU0L1Y1NiNDNjcxNTQ=
  :last_id: aHR0cDovL3d3dy5jZGlzYy5vcmcvQzY3MTU0L1Y1OSNDNjcxNTQ=
- :identifier: :C128690
  :label: Ethnicity As Collected
  :notation: ETHNICC
  :id: aHR0cDovL3d3dy5jZGlzYy5vcmcvQzEyODY5MC9WNDkjQzEyODY5MA==
  :last_id: aHR0cDovL3d3dy5jZGlzYy5vcmcvQzEyODY5MC9WNTkjQzEyODY5MA==
- :identifier: :C67153
  :label: Vital Signs Test Name
  :notation: VSTEST
  :id: aHR0cDovL3d3dy5jZGlzYy5vcmcvQzY3MTUzL1Y1NSNDNjcxNTM=
  :last_id: aHR0cDovL3d3dy5jZGlzYy5vcmcvQzY3MTUzL1Y1OSNDNjcxNTM=
- :identifier: :C127262
  :label: Environmental Setting
  :notation: SETTING
  :id: aHR0cDovL3d3dy5jZGlzYy5vcmcvQzEyNzI2Mi9WNDgjQzEyNzI2Mg==
  :last_id: aHR0cDovL3d3dy5jZGlzYy5vcmcvQzEyNzI2Mi9WNTcjQzEyNzI2Mg==
- :identifier: :C96783
  :label: Tumor or Lesion Identification Test Name
  :notation: TUTEST
  :id: aHR0cDovL3d3dy5jZGlzYy5vcmcvQzk2NzgzL1Y1NSNDOTY3ODM=
  :last_id: aHR0cDovL3d3dy5jZGlzYy5vcmcvQzk2NzgzL1Y1NyNDOTY3ODM=
- :identifier: :C127257
  :label: Contact Role for Clinical Study
  :notation: CONROL
  :id: aHR0cDovL3d3dy5jZGlzYy5vcmcvQzEyNzI1Ny9WNTIjQzEyNzI1Nw==
  :last_id: aHR0cDovL3d3dy5jZGlzYy5vcmcvQzEyNzI1Ny9WNTcjQzEyNzI1Nw==
- :identifier: :C67152
  :label: Trial Summary Parameter Test Name
  :notation: TSPARM
  :id: aHR0cDovL3d3dy5jZGlzYy5vcmcvQzY3MTUyL1Y1NiNDNjcxNTI=
  :last_id: aHR0cDovL3d3dy5jZGlzYy5vcmcvQzY3MTUyL1Y1OSNDNjcxNTI=
- :identifier: :C96781
  :label: Oncology Response Assessment Test Name
  :notation: ONCRTS
  :id: aHR0cDovL3d3dy5jZGlzYy5vcmcvQzk2NzgxL1Y1NCNDOTY3ODE=
  :last_id: aHR0cDovL3d3dy5jZGlzYy5vcmcvQzk2NzgxL1Y1OCNDOTY3ODE=
- :identifier: :C132262
  :label: SDTM Microscopic Findings Test Name
  :notation: MITS
  :id: aHR0cDovL3d3dy5jZGlzYy5vcmcvQzEzMjI2Mi9WNTUjQzEzMjI2Mg==
  :last_id: aHR0cDovL3d3dy5jZGlzYy5vcmcvQzEzMjI2Mi9WNTgjQzEzMjI2Mg==
- :identifier: :C116103
  :label: Nervous System Findings Test Name
  :notation: NVTEST
  :id: aHR0cDovL3d3dy5jZGlzYy5vcmcvQzExNjEwMy9WNTUjQzExNjEwMw==
  :last_id: aHR0cDovL3d3dy5jZGlzYy5vcmcvQzExNjEwMy9WNTkjQzExNjEwMw==
- :identifier: :C127265
  :label: Mode of Disease Transmission
  :notation: MODTRN
  :id: aHR0cDovL3d3dy5jZGlzYy5vcmcvQzEyNzI2NS9WNDgjQzEyNzI2NQ==
  :last_id: aHR0cDovL3d3dy5jZGlzYy5vcmcvQzEyNzI2NS9WNTkjQzEyNzI2NQ==
- :identifier: :C128682
  :label: Gastrointestinal Test Code
  :notation: GASTROCD
  :id: aHR0cDovL3d3dy5jZGlzYy5vcmcvQzEyODY4Mi9WNTMjQzEyODY4Mg==
  :last_id: aHR0cDovL3d3dy5jZGlzYy5vcmcvQzEyODY4Mi9WNTgjQzEyODY4Mg==
- :identifier: :C120528
  :label: Microbiology Test Name
  :notation: MBTEST
  :id: aHR0cDovL3d3dy5jZGlzYy5vcmcvQzEyMDUyOC9WNTYjQzEyMDUyOA==
  :last_id: aHR0cDovL3d3dy5jZGlzYy5vcmcvQzEyMDUyOC9WNTkjQzEyMDUyOA==
- :identifier: :C101819
  :label: Hamilton Anxiety Rating Scale Clinical Classification Test Code
  :notation: HAMA1TC
  :id: aHR0cDovL3d3dy5jZGlzYy5vcmcvQzEwMTgxOS9WNDcjQzEwMTgxOQ==
  :last_id: aHR0cDovL3d3dy5jZGlzYy5vcmcvQzEwMTgxOS9WNTcjQzEwMTgxOQ==
- :identifier: :C66727
  :label: Completion/Reason for Non-Completion
  :notation: NCOMPLT
  :id: aHR0cDovL3d3dy5jZGlzYy5vcmcvQzY2NzI3L1Y1NiNDNjY3Mjc=
  :last_id: aHR0cDovL3d3dy5jZGlzYy5vcmcvQzY2NzI3L1Y1OCNDNjY3Mjc=
- :identifier: :C66786
  :label: Country
  :notation: COUNTRY
  :id: aHR0cDovL3d3dy5jZGlzYy5vcmcvQzY2Nzg2L1Y1MSNDNjY3ODY=
  :last_id: aHR0cDovL3d3dy5jZGlzYy5vcmcvQzY2Nzg2L1Y1OSNDNjY3ODY=
- :identifier: :C66735
  :label: Trial Blinding Schema Response
  :notation: TBLIND
  :id: aHR0cDovL3d3dy5jZGlzYy5vcmcvQzY2NzM1L1Y0OSNDNjY3MzU=
  :last_id: aHR0cDovL3d3dy5jZGlzYy5vcmcvQzY2NzM1L1Y1OCNDNjY3MzU=
- :identifier: :C71620
  :label: Unit
  :notation: UNIT
  :id: aHR0cDovL3d3dy5jZGlzYy5vcmcvQzcxNjIwL1Y1NiNDNzE2MjA=
  :last_id: aHR0cDovL3d3dy5jZGlzYy5vcmcvQzcxNjIwL1Y1OSNDNzE2MjA=
- :identifier: :C127268
  :label: Disease Presentation Type
  :notation: DSPRTYP
  :id: aHR0cDovL3d3dy5jZGlzYy5vcmcvQzEyNzI2OC9WNDgjQzEyNzI2OA==
  :last_id: aHR0cDovL3d3dy5jZGlzYy5vcmcvQzEyNzI2OC9WNTcjQzEyNzI2OA==
- :identifier: :C111107
  :label: Respiratory Test Name
  :notation: RETEST
  :id: aHR0cDovL3d3dy5jZGlzYy5vcmcvQzExMTEwNy9WNTUjQzExMTEwNw==
  :last_id: aHR0cDovL3d3dy5jZGlzYy5vcmcvQzExMTEwNy9WNTkjQzExMTEwNw==
- :identifier: :C100130
  :label: Relationship to Subject
  :notation: RELSUB
  :id: aHR0cDovL3d3dy5jZGlzYy5vcmcvQzEwMDEzMC9WNTYjQzEwMDEzMA==
  :last_id: aHR0cDovL3d3dy5jZGlzYy5vcmcvQzEwMDEzMC9WNTcjQzEwMDEzMA==
- :identifier: :C128688
  :label: Microbiology Susceptibility Test Code
  :notation: MSTESTCD
  :id: aHR0cDovL3d3dy5jZGlzYy5vcmcvQzEyODY4OC9WNTUjQzEyODY4OA==
  :last_id: aHR0cDovL3d3dy5jZGlzYy5vcmcvQzEyODY4OC9WNTkjQzEyODY4OA==
- :identifier: :C117742
  :label: Ophthalmic Exam Test Name
  :notation: OETEST
  :id: aHR0cDovL3d3dy5jZGlzYy5vcmcvQzExNzc0Mi9WNTUjQzExNzc0Mg==
  :last_id: aHR0cDovL3d3dy5jZGlzYy5vcmcvQzExNzc0Mi9WNTkjQzExNzc0Mg==
- :identifier: :C103462
  :label: Epworth Sleepiness Scale Questionnaire Test Name
  :notation: ESS01TN
  :id: aHR0cDovL3d3dy5jZGlzYy5vcmcvQzEwMzQ2Mi9WNDcjQzEwMzQ2Mg==
  :last_id: aHR0cDovL3d3dy5jZGlzYy5vcmcvQzEwMzQ2Mi9WNTkjQzEwMzQ2Mg==
- :identifier: :C96778
  :label: Tumor or Lesion Properties Test Name
  :notation: TRTEST
  :id: aHR0cDovL3d3dy5jZGlzYy5vcmcvQzk2Nzc4L1Y1NiNDOTY3Nzg=
  :last_id: aHR0cDovL3d3dy5jZGlzYy5vcmcvQzk2Nzc4L1Y1OCNDOTY3Nzg=
- :identifier: :C96785
  :label: Oncology Response Assessment Result
  :notation: ONCRSR
  :id: aHR0cDovL3d3dy5jZGlzYy5vcmcvQzk2Nzg1L1Y1NiNDOTY3ODU=
  :last_id: aHR0cDovL3d3dy5jZGlzYy5vcmcvQzk2Nzg1L1Y1OSNDOTY3ODU=
- :identifier: :C119016
  :label: Cardiovascular Findings About Results
  :notation: CVFARS
  :id: aHR0cDovL3d3dy5jZGlzYy5vcmcvQzExOTAxNi9WNDgjQzExOTAxNg==
  :last_id: aHR0cDovL3d3dy5jZGlzYy5vcmcvQzExOTAxNi9WNTcjQzExOTAxNg==
- :identifier: :C120525
  :label: Immunogenicity Specimen Assessments Test Code
  :notation: ISTESTCD
  :id: aHR0cDovL3d3dy5jZGlzYy5vcmcvQzEyMDUyNS9WNTYjQzEyMDUyNQ==
  :last_id: aHR0cDovL3d3dy5jZGlzYy5vcmcvQzEyMDUyNS9WNTkjQzEyMDUyNQ==
- :identifier: :C106482
  :label: Device-In-Use Test Name
  :notation: DUTEST
  :id: aHR0cDovL3d3dy5jZGlzYy5vcmcvQzEwNjQ4Mi9WNTQjQzEwNjQ4Mg==
  :last_id: aHR0cDovL3d3dy5jZGlzYy5vcmcvQzEwNjQ4Mi9WNTkjQzEwNjQ4Mg==
- :identifier: :C85493
  :label: PK Parameters
  :notation: PKPARM
  :id: aHR0cDovL3d3dy5jZGlzYy5vcmcvQzg1NDkzL1Y1NSNDODU0OTM=
  :last_id: aHR0cDovL3d3dy5jZGlzYy5vcmcvQzg1NDkzL1Y1OSNDODU0OTM=
- :identifier: :C116106
  :label: Pharmacogenomics Findings Test Code
  :notation: PFTESTCD
  :id: aHR0cDovL3d3dy5jZGlzYy5vcmcvQzExNjEwNi9WNTMjQzExNjEwNg==
  :last_id: aHR0cDovL3d3dy5jZGlzYy5vcmcvQzExNjEwNi9WNTcjQzExNjEwNg==
- :identifier: :C99079
  :label: Epoch
  :notation: EPOCH
  :id: aHR0cDovL3d3dy5jZGlzYy5vcmcvQzk5MDc5L1Y1MiNDOTkwNzk=
  :last_id: aHR0cDovL3d3dy5jZGlzYy5vcmcvQzk5MDc5L1Y1OCNDOTkwNzk=
- :identifier: :C85494
  :label: PK Units of Measure
  :notation: PKUNIT
  :id: aHR0cDovL3d3dy5jZGlzYy5vcmcvQzg1NDk0L1Y1NSNDODU0OTQ=
  :last_id: aHR0cDovL3d3dy5jZGlzYy5vcmcvQzg1NDk0L1Y1OSNDODU0OTQ=
- :identifier: :C106478
  :label: Reproductive System Findings Test Name
  :notation: RPTEST
  :id: aHR0cDovL3d3dy5jZGlzYy5vcmcvQzEwNjQ3OC9WNTUjQzEwNjQ3OA==
  :last_id: aHR0cDovL3d3dy5jZGlzYy5vcmcvQzEwNjQ3OC9WNTkjQzEwNjQ3OA==
- :identifier: :C116105
  :label: Pharmacogenomics Findings Test Name
  :notation: PFTEST
  :id: aHR0cDovL3d3dy5jZGlzYy5vcmcvQzExNjEwNS9WNTMjQzExNjEwNQ==
  :last_id: aHR0cDovL3d3dy5jZGlzYy5vcmcvQzExNjEwNS9WNTcjQzExNjEwNQ==
- :identifier: :C117745
  :label: Analysis Purpose
  :notation: ANLPURP
  :id: aHR0cDovL3d3dy5jZGlzYy5vcmcvQzExNzc0NS9WNDAjQzExNzc0NQ==
  :last_id: aHR0cDovL3d3dy5jZGlzYy5vcmcvQzExNzc0NS9WNTgjQzExNzc0NQ==
- :identifier: :C66770
  :label: Units for Vital Signs Results
  :notation: VSRESU
  :id: aHR0cDovL3d3dy5jZGlzYy5vcmcvQzY2NzcwL1Y1NSNDNjY3NzA=
  :last_id: aHR0cDovL3d3dy5jZGlzYy5vcmcvQzY2NzcwL1Y1OSNDNjY3NzA=
- :identifier: :C127269
  :label: Musculoskeletal System Finding Test Code
  :notation: MUSCTSCD
  :id: aHR0cDovL3d3dy5jZGlzYy5vcmcvQzEyNzI2OS9WNTUjQzEyNzI2OQ==
  :last_id: aHR0cDovL3d3dy5jZGlzYy5vcmcvQzEyNzI2OS9WNTkjQzEyNzI2OQ==
- :identifier: :C120531
  :label: Non-Neoplastic Finding Type
  :notation: NONNEO
  :id: aHR0cDovL3d3dy5jZGlzYy5vcmcvQzEyMDUzMS9WNTUjQzEyMDUzMQ==
  :last_id: aHR0cDovL3d3dy5jZGlzYy5vcmcvQzEyMDUzMS9WNTkjQzEyMDUzMQ==
- :identifier: :C78733
  :label: Specimen Condition
  :notation: SPECCOND
  :id: aHR0cDovL3d3dy5jZGlzYy5vcmcvQzc4NzMzL1Y1NiNDNzg3MzM=
  :last_id: aHR0cDovL3d3dy5jZGlzYy5vcmcvQzc4NzMzL1Y1OSNDNzg3MzM=
- :identifier: :C66729
  :label: Route of Administration Response
  :notation: ROUTE
  :id: aHR0cDovL3d3dy5jZGlzYy5vcmcvQzY2NzI5L1Y1NiNDNjY3Mjk=
  :last_id: aHR0cDovL3d3dy5jZGlzYy5vcmcvQzY2NzI5L1Y1OCNDNjY3Mjk=
- :identifier: :C101820
  :label: Hamilton Anxiety Rating Scale Clinical Classification Test Name
  :notation: HAMA1TN
  :id: aHR0cDovL3d3dy5jZGlzYy5vcmcvQzEwMTgyMC9WNDcjQzEwMTgyMA==
  :last_id: aHR0cDovL3d3dy5jZGlzYy5vcmcvQzEwMTgyMC9WNTcjQzEwMTgyMA==
- :identifier: :C117743
  :label: Ophthalmic Exam Test Code
  :notation: OETESTCD
  :id: aHR0cDovL3d3dy5jZGlzYy5vcmcvQzExNzc0My9WNTUjQzExNzc0Mw==
  :last_id: aHR0cDovL3d3dy5jZGlzYy5vcmcvQzExNzc0My9WNTkjQzExNzc0Mw==
- :identifier: :C99073
  :label: Laterality
  :notation: LAT
  :id: aHR0cDovL3d3dy5jZGlzYy5vcmcvQzk5MDczL1YzMyNDOTkwNzM=
  :last_id: aHR0cDovL3d3dy5jZGlzYy5vcmcvQzk5MDczL1Y1NyNDOTkwNzM=
- :identifier: :C74456
  :label: Anatomical Location
  :notation: LOC
  :id: aHR0cDovL3d3dy5jZGlzYy5vcmcvQzc0NDU2L1Y1NiNDNzQ0NTY=
  :last_id: aHR0cDovL3d3dy5jZGlzYy5vcmcvQzc0NDU2L1Y1OSNDNzQ0NTY=
- :identifier: :C124310
  :label: Fetal Pathology Findings Result
  :notation: FXFINDRS
  :id: aHR0cDovL3d3dy5jZGlzYy5vcmcvQzEyNDMxMC9WNTMjQzEyNDMxMA==
  :last_id: aHR0cDovL3d3dy5jZGlzYy5vcmcvQzEyNDMxMC9WNTkjQzEyNDMxMA==
- :identifier: :C74457
  :label: Race
  :notation: RACE
  :id: aHR0cDovL3d3dy5jZGlzYy5vcmcvQzc0NDU3L1Y0OSNDNzQ0NTc=
  :last_id: aHR0cDovL3d3dy5jZGlzYy5vcmcvQzc0NDU3L1Y1OCNDNzQ0NTc=
- :identifier: :C128687
  :label: Microbiology Susceptibility Test Name
  :notation: MSTEST
  :id: aHR0cDovL3d3dy5jZGlzYy5vcmcvQzEyODY4Ny9WNTUjQzEyODY4Nw==
  :last_id: aHR0cDovL3d3dy5jZGlzYy5vcmcvQzEyODY4Ny9WNTkjQzEyODY4Nw==
- :identifier: :C111111
  :label: Device Properties Test Code
  :notation: DOTESTCD
  :id: aHR0cDovL3d3dy5jZGlzYy5vcmcvQzExMTExMS9WNTYjQzExMTExMQ==
  :last_id: aHR0cDovL3d3dy5jZGlzYy5vcmcvQzExMTExMS9WNTkjQzExMTExMQ==
- :identifier: :C120527
  :label: Microbiology Test Code
  :notation: MBTESTCD
  :id: aHR0cDovL3d3dy5jZGlzYy5vcmcvQzEyMDUyNy9WNTYjQzEyMDUyNw==
  :last_id: aHR0cDovL3d3dy5jZGlzYy5vcmcvQzEyMDUyNy9WNTkjQzEyMDUyNw==
- :identifier: :C78735
  :label: Evaluator
  :notation: EVAL
  :id: aHR0cDovL3d3dy5jZGlzYy5vcmcvQzc4NzM1L1Y1NiNDNzg3MzU=
  :last_id: aHR0cDovL3d3dy5jZGlzYy5vcmcvQzc4NzM1L1Y1NyNDNzg3MzU=
- :identifier: :C118971
  :label: Category of Clinical Classification
  :notation: CCCAT
  :id: aHR0cDovL3d3dy5jZGlzYy5vcmcvQzExODk3MS9WNTUjQzExODk3MQ==
  :last_id: aHR0cDovL3d3dy5jZGlzYy5vcmcvQzExODk3MS9WNTkjQzExODk3MQ==
- :identifier: :C100129
  :label: Category of Questionnaire
  :notation: QSCAT
  :id: aHR0cDovL3d3dy5jZGlzYy5vcmcvQzEwMDEyOS9WNTYjQzEwMDEyOQ==
  :last_id: aHR0cDovL3d3dy5jZGlzYy5vcmcvQzEwMDEyOS9WNTkjQzEwMDEyOQ==
- :identifier: :C66739
  :label: Trial Type Response
  :notation: TTYPE
  :id: aHR0cDovL3d3dy5jZGlzYy5vcmcvQzY2NzM5L1Y1MyNDNjY3Mzk=
  :last_id: aHR0cDovL3d3dy5jZGlzYy5vcmcvQzY2NzM5L1Y1OSNDNjY3Mzk=
- :identifier: :C90003
  :label: SEND Study Type
  :notation: SSTYP
  :id: aHR0cDovL3d3dy5jZGlzYy5vcmcvQzkwMDAzL1Y0NyNDOTAwMDM=
  :last_id: aHR0cDovL3d3dy5jZGlzYy5vcmcvQzkwMDAzL1Y1OSNDOTAwMDM=
- :identifier: :C89968
  :label: Standardized Disposition Term
  :notation: DSDECOD
  :id: aHR0cDovL3d3dy5jZGlzYy5vcmcvQzg5OTY4L1Y0NSNDODk5Njg=
  :last_id: aHR0cDovL3d3dy5jZGlzYy5vcmcvQzg5OTY4L1Y1NyNDODk5Njg=
- :identifier: :C90009
  :label: SEND Trial Summary Parameter Test Code
  :notation: STSPRMCD
  :id: aHR0cDovL3d3dy5jZGlzYy5vcmcvQzkwMDA5L1Y1NSNDOTAwMDk=
  :last_id: aHR0cDovL3d3dy5jZGlzYy5vcmcvQzkwMDA5L1Y1OSNDOTAwMDk=
- :identifier: :C120535
  :label: SEND Respiratory Test Name
  :notation: SRETST
  :id: aHR0cDovL3d3dy5jZGlzYy5vcmcvQzEyMDUzNS9WNTIjQzEyMDUzNQ==
  :last_id: aHR0cDovL3d3dy5jZGlzYy5vcmcvQzEyMDUzNS9WNTkjQzEyMDUzNQ==
- :identifier: :C89982
  :label: SEND Implementation Guide Version
  :notation: SNDIGVER
  :id: aHR0cDovL3d3dy5jZGlzYy5vcmcvQzg5OTgyL1Y0NiNDODk5ODI=
  :last_id: aHR0cDovL3d3dy5jZGlzYy5vcmcvQzg5OTgyL1Y1OCNDODk5ODI=
- :identifier: :C77529
  :label: Specimen
  :notation: SPEC
  :id: aHR0cDovL3d3dy5jZGlzYy5vcmcvQzc3NTI5L1Y1NiNDNzc1Mjk=
  :last_id: aHR0cDovL3d3dy5jZGlzYy5vcmcvQzc3NTI5L1Y1OSNDNzc1Mjk=
- :identifier: :C89981
  :label: SEND Subject Characteristics Test Code
  :notation: SBCCDSND
  :id: aHR0cDovL3d3dy5jZGlzYy5vcmcvQzg5OTgxL1YzNiNDODk5ODE=
  :last_id: aHR0cDovL3d3dy5jZGlzYy5vcmcvQzg5OTgxL1Y1OSNDODk5ODE=
- :identifier: :C111113
  :label: SEND Domain Abbreviation
  :notation: SDOMAIN
  :id: aHR0cDovL3d3dy5jZGlzYy5vcmcvQzExMTExMy9WNTUjQzExMTExMw==
  :last_id: aHR0cDovL3d3dy5jZGlzYy5vcmcvQzExMTExMy9WNTcjQzExMTExMw==
- :identifier: :C90007
  :label: SEND Trial Summary Parameter Test Name
  :notation: STSPRM
  :id: aHR0cDovL3d3dy5jZGlzYy5vcmcvQzkwMDA3L1Y1NSNDOTAwMDc=
  :last_id: aHR0cDovL3d3dy5jZGlzYy5vcmcvQzkwMDA3L1Y1OSNDOTAwMDc=
- :identifier: :C89980
  :label: SEND Subject Characteristics Test Name
  :notation: SBCSND
  :id: aHR0cDovL3d3dy5jZGlzYy5vcmcvQzg5OTgwL1YzNiNDODk5ODA=
  :last_id: aHR0cDovL3d3dy5jZGlzYy5vcmcvQzg5OTgwL1Y1OSNDODk5ODA=
- :identifier: :C132310
  :label: Protocol Entity Terminology
  :notation: Protocol Entity Terminology
  :id: aHR0cDovL3d3dy5jZGlzYy5vcmcvQzEzMjMxMC9WNTUjQzEzMjMxMA==
  :last_id: aHR0cDovL3d3dy5jZGlzYy5vcmcvQzEzMjMxMC9WNTcjQzEzMjMxMA==
- :identifier: :C120534
  :label: SEND Respiratory Test Code
  :notation: SRETSTCD
  :id: aHR0cDovL3d3dy5jZGlzYy5vcmcvQzEyMDUzNC9WNTIjQzEyMDUzNA==
  :last_id: aHR0cDovL3d3dy5jZGlzYy5vcmcvQzEyMDUzNC9WNTkjQzEyMDUzNA==
:versions:
- '2018-06-29'
- '2018-09-28'
- '2018-12-21'
- '2019-03-29'
