---
:created:
- :identifier: :C78738
  :label: Never/Current/Former Classification
  :notation: NCF
  :id: aHR0cDovL3d3dy5jZGlzYy5vcmcvQzc4NzM4L1YxNCNDNzg3Mzg=
  :last_id: ''
- :identifier: :C78733
  :label: Specimen Condition
  :notation: SPECCOND
  :id: aHR0cDovL3d3dy5jZGlzYy5vcmcvQzc4NzMzL1YxNCNDNzg3MzM=
  :last_id: ''
- :identifier: :C78735
  :label: Evaluator
  :notation: EVAL
  :id: aHR0cDovL3d3dy5jZGlzYy5vcmcvQzc4NzM1L1YxNCNDNzg3MzU=
  :last_id: ''
- :identifier: :C78732
  :label: Drug Accountability Test Code
  :notation: DATESTCD
  :id: aHR0cDovL3d3dy5jZGlzYy5vcmcvQzc4NzMyL1YxNCNDNzg3MzI=
  :last_id: ''
- :identifier: :C78737
  :label: Relationship Type
  :notation: RELTYPE
  :id: aHR0cDovL3d3dy5jZGlzYy5vcmcvQzc4NzM3L1YxNCNDNzg3Mzc=
  :last_id: ''
- :identifier: :C78734
  :label: Specimen Type
  :notation: SPECTYPE
  :id: aHR0cDovL3d3dy5jZGlzYy5vcmcvQzc4NzM0L1YxNCNDNzg3MzQ=
  :last_id: ''
- :identifier: :C78736
  :label: Reference Range Indicator
  :notation: NRIND
  :id: aHR0cDovL3d3dy5jZGlzYy5vcmcvQzc4NzM2L1YxNCNDNzg3MzY=
  :last_id: ''
- :identifier: :C78731
  :label: Drug Accountability Test Name
  :notation: DATEST
  :id: aHR0cDovL3d3dy5jZGlzYy5vcmcvQzc4NzMxL1YxNCNDNzg3MzE=
  :last_id: ''
:deleted: []
:updated:
- :identifier: :C66741
  :label: Vital Signs Test Code
  :notation: VSTESTCD
  :id: aHR0cDovL3d3dy5jZGlzYy5vcmcvQzY2NzQxL1Y0I0M2Njc0MQ==
  :last_id: aHR0cDovL3d3dy5jZGlzYy5vcmcvQzY2NzQxL1YxNiNDNjY3NDE=
- :identifier: :C66727
  :label: Completion/Reason for Non-Completion
  :notation: NCOMPLT
  :id: aHR0cDovL3d3dy5jZGlzYy5vcmcvQzY2NzI3L1Y5I0M2NjcyNw==
  :last_id: aHR0cDovL3d3dy5jZGlzYy5vcmcvQzY2NzI3L1YxNiNDNjY3Mjc=
- :identifier: :C66786
  :label: Country
  :notation: COUNTRY
  :id: aHR0cDovL3d3dy5jZGlzYy5vcmcvQzY2Nzg2L1Y0I0M2Njc4Ng==
  :last_id: aHR0cDovL3d3dy5jZGlzYy5vcmcvQzY2Nzg2L1YxNiNDNjY3ODY=
- :identifier: :C66739
  :label: Trial Type
  :notation: TTYPE
  :id: aHR0cDovL3d3dy5jZGlzYy5vcmcvQzY2NzM5L1Y0I0M2NjczOQ==
  :last_id: aHR0cDovL3d3dy5jZGlzYy5vcmcvQzY2NzM5L1YxNiNDNjY3Mzk=
- :identifier: :C66780
  :label: Age Span
  :notation: AGESPAN
  :id: aHR0cDovL3d3dy5jZGlzYy5vcmcvQzY2NzgwL1YxMyNDNjY3ODA=
  :last_id: aHR0cDovL3d3dy5jZGlzYy5vcmcvQzY2NzgwL1YxMyNDNjY3ODA=
- :identifier: :C66734
  :label: Domain Abbreviation
  :notation: DOMAIN
  :id: aHR0cDovL3d3dy5jZGlzYy5vcmcvQzY2NzM0L1Y0I0M2NjczNA==
  :last_id: aHR0cDovL3d3dy5jZGlzYy5vcmcvQzY2NzM0L1YxNiNDNjY3MzQ=
- :identifier: :C66797
  :label: Category for Inclusion/Exclusion
  :notation: IECAT
  :id: aHR0cDovL3d3dy5jZGlzYy5vcmcvQzY2Nzk3L1YxMyNDNjY3OTc=
  :last_id: aHR0cDovL3d3dy5jZGlzYy5vcmcvQzY2Nzk3L1YxNiNDNjY3OTc=
- :identifier: :C66737
  :label: Trial Phase
  :notation: TPHASE
  :id: aHR0cDovL3d3dy5jZGlzYy5vcmcvQzY2NzM3L1Y5I0M2NjczNw==
  :last_id: aHR0cDovL3d3dy5jZGlzYy5vcmcvQzY2NzM3L1YxNiNDNjY3Mzc=
- :identifier: :C65047
  :label: Laboratory Test Code
  :notation: LBTESTCD
  :id: aHR0cDovL3d3dy5jZGlzYy5vcmcvQzY1MDQ3L1Y4I0M2NTA0Nw==
  :last_id: aHR0cDovL3d3dy5jZGlzYy5vcmcvQzY1MDQ3L1YxNiNDNjUwNDc=
- :identifier: :C66784
  :label: Common Terminology Criteria for Adverse Events
  :notation: TOXGR
  :id: aHR0cDovL3d3dy5jZGlzYy5vcmcvQzY2Nzg0L1YxMyNDNjY3ODQ=
  :last_id: aHR0cDovL3d3dy5jZGlzYy5vcmcvQzY2Nzg0L1YxNiNDNjY3ODQ=
- :identifier: :C67152
  :label: Trial Summary Parameter Test Name
  :notation: TSPARM
  :id: aHR0cDovL3d3dy5jZGlzYy5vcmcvQzY3MTUyL1Y0I0M2NzE1Mg==
  :last_id: aHR0cDovL3d3dy5jZGlzYy5vcmcvQzY3MTUyL1YxNiNDNjcxNTI=
- :identifier: :C66788
  :label: Dictionary Name
  :notation: DICTNAM
  :id: aHR0cDovL3d3dy5jZGlzYy5vcmcvQzY2Nzg4L1Y0I0M2Njc4OA==
  :last_id: aHR0cDovL3d3dy5jZGlzYy5vcmcvQzY2Nzg4L1YxNiNDNjY3ODg=
- :identifier: :C66781
  :label: Age Unit
  :notation: AGEU
  :id: aHR0cDovL3d3dy5jZGlzYy5vcmcvQzY2NzgxL1YxMyNDNjY3ODE=
  :last_id: aHR0cDovL3d3dy5jZGlzYy5vcmcvQzY2NzgxL1YxNiNDNjY3ODE=
- :identifier: :C66736
  :label: Trial Indication Type
  :notation: TINDTP
  :id: aHR0cDovL3d3dy5jZGlzYy5vcmcvQzY2NzM2L1Y0I0M2NjczNg==
  :last_id: aHR0cDovL3d3dy5jZGlzYy5vcmcvQzY2NzM2L1YxNiNDNjY3MzY=
- :identifier: :C66726
  :label: Pharmaceutical Dosage Form
  :notation: FRM
  :id: aHR0cDovL3d3dy5jZGlzYy5vcmcvQzY2NzI2L1YxMyNDNjY3MjY=
  :last_id: aHR0cDovL3d3dy5jZGlzYy5vcmcvQzY2NzI2L1YxNiNDNjY3MjY=
- :identifier: :C66731
  :label: Sex
  :notation: SEX
  :id: aHR0cDovL3d3dy5jZGlzYy5vcmcvQzY2NzMxL1Y0I0M2NjczMQ==
  :last_id: aHR0cDovL3d3dy5jZGlzYy5vcmcvQzY2NzMxL1YxNiNDNjY3MzE=
- :identifier: :C74456
  :label: Anatomical Location
  :notation: LOC
  :id: aHR0cDovL3d3dy5jZGlzYy5vcmcvQzc0NDU2L1Y4I0M3NDQ1Ng==
  :last_id: aHR0cDovL3d3dy5jZGlzYy5vcmcvQzc0NDU2L1YxNiNDNzQ0NTY=
- :identifier: :C66770
  :label: Units for Vital Signs Results
  :notation: VSRESU
  :id: aHR0cDovL3d3dy5jZGlzYy5vcmcvQzY2NzcwL1Y0I0M2Njc3MA==
  :last_id: aHR0cDovL3d3dy5jZGlzYy5vcmcvQzY2NzcwL1YxNiNDNjY3NzA=
- :identifier: :C66790
  :label: Patient Ethnic Group
  :notation: ETHNIC
  :id: aHR0cDovL3d3dy5jZGlzYy5vcmcvQzY2NzkwL1YxMyNDNjY3OTA=
  :last_id: aHR0cDovL3d3dy5jZGlzYy5vcmcvQzY2NzkwL1YxNiNDNjY3OTA=
- :identifier: :C76348
  :label: Marital Status
  :notation: MARISTAT
  :id: aHR0cDovL3d3dy5jZGlzYy5vcmcvQzc2MzQ4L1YxMCNDNzYzNDg=
  :last_id: aHR0cDovL3d3dy5jZGlzYy5vcmcvQzc2MzQ4L1YxNiNDNzYzNDg=
- :identifier: :C71150
  :label: ECG Result
  :notation: EGSTRESC
  :id: aHR0cDovL3d3dy5jZGlzYy5vcmcvQzcxMTUwL1Y2I0M3MTE1MA==
  :last_id: aHR0cDovL3d3dy5jZGlzYy5vcmcvQzcxMTUwL1YxNiNDNzExNTA=
- :identifier: :C66783
  :label: CDISC System Organ Class
  :notation: SOC
  :id: aHR0cDovL3d3dy5jZGlzYy5vcmcvQzY2NzgzL1Y0I0M2Njc4Mw==
  :last_id: aHR0cDovL3d3dy5jZGlzYy5vcmcvQzY2NzgzL1YxNiNDNjY3ODM=
- :identifier: :C66738
  :label: Trial Summary Parameter Test Code
  :notation: TSPARMCD
  :id: aHR0cDovL3d3dy5jZGlzYy5vcmcvQzY2NzM4L1Y1I0M2NjczOA==
  :last_id: aHR0cDovL3d3dy5jZGlzYy5vcmcvQzY2NzM4L1YxNiNDNjY3Mzg=
- :identifier: :C67153
  :label: Vital Signs Test Name
  :notation: VSTEST
  :id: aHR0cDovL3d3dy5jZGlzYy5vcmcvQzY3MTUzL1Y0I0M2NzE1Mw==
  :last_id: aHR0cDovL3d3dy5jZGlzYy5vcmcvQzY3MTUzL1YxNiNDNjcxNTM=
- :identifier: :C66732
  :label: Sex of Participants
  :notation: SEXPOP
  :id: aHR0cDovL3d3dy5jZGlzYy5vcmcvQzY2NzMyL1Y0I0M2NjczMg==
  :last_id: aHR0cDovL3d3dy5jZGlzYy5vcmcvQzY2NzMyL1YxNiNDNjY3MzI=
- :identifier: :C66787
  :label: Diagnosis Group
  :notation: TDIGRP
  :id: aHR0cDovL3d3dy5jZGlzYy5vcmcvQzY2Nzg3L1Y0I0M2Njc4Nw==
  :last_id: aHR0cDovL3d3dy5jZGlzYy5vcmcvQzY2Nzg3L1YxNiNDNjY3ODc=
- :identifier: :C76351
  :label: Skin Classification
  :notation: SKINCLAS
  :id: aHR0cDovL3d3dy5jZGlzYy5vcmcvQzc2MzUxL1YxMCNDNzYzNTE=
  :last_id: aHR0cDovL3d3dy5jZGlzYy5vcmcvQzc2MzUxL1YxNiNDNzYzNTE=
- :identifier: :C67154
  :label: Laboratory Test Name
  :notation: LBTEST
  :id: aHR0cDovL3d3dy5jZGlzYy5vcmcvQzY3MTU0L1Y4I0M2NzE1NA==
  :last_id: aHR0cDovL3d3dy5jZGlzYy5vcmcvQzY3MTU0L1YxNiNDNjcxNTQ=
- :identifier: :C71620
  :label: Unit
  :notation: UNIT
  :id: aHR0cDovL3d3dy5jZGlzYy5vcmcvQzcxNjIwL1YxMSNDNzE2MjA=
  :last_id: aHR0cDovL3d3dy5jZGlzYy5vcmcvQzcxNjIwL1YxNiNDNzE2MjA=
- :identifier: :C66789
  :label: Not Done
  :notation: ND
  :id: aHR0cDovL3d3dy5jZGlzYy5vcmcvQzY2Nzg5L1YxMyNDNjY3ODk=
  :last_id: aHR0cDovL3d3dy5jZGlzYy5vcmcvQzY2Nzg5L1YxMyNDNjY3ODk=
:versions:
- '2008-10-15'
- '2009-02-17'
- '2009-02-18'
- '2009-05-01'
