---
:versions:
- '2012-06-29'
- '2012-08-03'
- '2012-12-21'
- '2013-04-12'
- '2013-06-28'
- '2013-10-04'
- '2013-12-20'
- '2014-03-28'
:items:
  :C76351:
    :key: C76351
    :id: aHR0cDovL3d3dy5jZGlzYy5vcmcvQzc2MzUxL1YyMSNDNzYzNTE=
    :identifier: C76351
    :label: Skin Classification
    :notation: SKINCLAS
    :status:
    - :status: :no_change
    - :status: :no_change
    - :status: :updated
    - :status: :no_change
    - :status: :no_change
    - :status: :no_change
    - :status: :no_change
    - :status: :no_change
    :last_id: aHR0cDovL3d3dy5jZGlzYy5vcmcvQzc2MzUxL1YzMiNDNzYzNTE=
  :C99078:
    :key: C99078
    :id: aHR0cDovL3d3dy5jZGlzYy5vcmcvQzk5MDc4L1YzMCNDOTkwNzg=
    :identifier: C99078
    :label: Intervention Type
    :notation: INTTYPE
    :status:
    - :status: :updated
    - :status: :no_change
    - :status: :updated
    - :status: :no_change
    - :status: :no_change
    - :status: :no_change
    - :status: :no_change
    - :status: :no_change
    :last_id: aHR0cDovL3d3dy5jZGlzYy5vcmcvQzk5MDc4L1YzMiNDOTkwNzg=
  :C85491:
    :key: C85491
    :id: aHR0cDovL3d3dy5jZGlzYy5vcmcvQzg1NDkxL1YzMCNDODU0OTE=
    :identifier: C85491
    :label: Microorganism
    :notation: MICROORG
    :status:
    - :status: :updated
    - :status: :updated
    - :status: :updated
    - :status: :no_change
    - :status: :no_change
    - :status: :updated
    - :status: :updated
    - :status: :updated
    :last_id: aHR0cDovL3d3dy5jZGlzYy5vcmcvQzg1NDkxL1YzNyNDODU0OTE=
  :C71152:
    :key: C71152
    :id: aHR0cDovL3d3dy5jZGlzYy5vcmcvQzcxMTUyL1YzMCNDNzExNTI=
    :identifier: C71152
    :label: ECG Test Name
    :notation: EGTEST
    :status:
    - :status: :updated
    - :status: :no_change
    - :status: :no_change
    - :status: :updated
    - :status: :no_change
    - :status: :updated
    - :status: :updated
    - :status: :no_change
    :last_id: aHR0cDovL3d3dy5jZGlzYy5vcmcvQzcxMTUyL1YzNiNDNzExNTI=
  :C100142:
    :key: C100142
    :id: aHR0cDovL3d3dy5jZGlzYy5vcmcvQzEwMDE0Mi9WMjkjQzEwMDE0Mg==
    :identifier: C100142
    :label: Mini-Mental State Examination Test Code
    :notation: MMSE TESTCD
    :status:
    - :status: :no_change
    - :status: :no_change
    - :status: :updated
    - :status: :deleted
    - &1
      :status: :not_present
    - *1
    - *1
    - *1
    :last_id: ''
  :C100137:
    :key: C100137
    :id: aHR0cDovL3d3dy5jZGlzYy5vcmcvQzEwMDEzNy9WMjkjQzEwMDEzNw==
    :identifier: C100137
    :label: Hamilton Depression Rating Scale - 17 Item Test Name
    :notation: HAMD 17 TEST
    :status:
    - :status: :no_change
    - :status: :no_change
    - :status: :updated
    - :status: :no_change
    - :status: :no_change
    - :status: :no_change
    - :status: :no_change
    - :status: :no_change
    :last_id: aHR0cDovL3d3dy5jZGlzYy5vcmcvQzEwMDEzNy9WMzIjQzEwMDEzNw==
  :C66783:
    :key: C66783
    :id: aHR0cDovL3d3dy5jZGlzYy5vcmcvQzY2NzgzL1YyNyNDNjY3ODM=
    :identifier: C66783
    :label: CDISC System Organ Class
    :notation: SOC
    :status:
    - :status: :deleted
    - *1
    - *1
    - *1
    - *1
    - *1
    - *1
    - *1
    :last_id: ''
  :C66767:
    :key: C66767
    :id: aHR0cDovL3d3dy5jZGlzYy5vcmcvQzY2NzY3L1YyOCNDNjY3Njc=
    :identifier: C66767
    :label: Action Taken with Study Treatment
    :notation: ACN
    :status:
    - :status: :no_change
    - :status: :no_change
    - :status: :no_change
    - :status: :no_change
    - :status: :updated
    - :status: :no_change
    - :status: :no_change
    - :status: :no_change
    :last_id: aHR0cDovL3d3dy5jZGlzYy5vcmcvQzY2NzY3L1YzNCNDNjY3Njc=
  :C99075:
    :key: C99075
    :id: aHR0cDovL3d3dy5jZGlzYy5vcmcvQzk5MDc1L1YyOSNDOTkwNzU=
    :identifier: C99075
    :label: Portion/Totality
    :notation: PORTOT
    :status:
    - :status: :no_change
    - :status: :no_change
    - :status: :updated
    - :status: :no_change
    - :status: :no_change
    - :status: :no_change
    - :status: :no_change
    - :status: :no_change
    :last_id: aHR0cDovL3d3dy5jZGlzYy5vcmcvQzk5MDc1L1YzMiNDOTkwNzU=
  :C71113:
    :key: C71113
    :id: aHR0cDovL3d3dy5jZGlzYy5vcmcvQzcxMTEzL1YzMCNDNzExMTM=
    :identifier: C71113
    :label: Frequency
    :notation: FREQ
    :status:
    - :status: :updated
    - :status: :no_change
    - :status: :updated
    - :status: :updated
    - :status: :no_change
    - :status: :no_change
    - :status: :updated
    - :status: :no_change
    :last_id: aHR0cDovL3d3dy5jZGlzYy5vcmcvQzcxMTEzL1YzNiNDNzExMTM=
  :C66726:
    :key: C66726
    :id: aHR0cDovL3d3dy5jZGlzYy5vcmcvQzY2NzI2L1YyOSNDNjY3MjY=
    :identifier: C66726
    :label: Pharmaceutical Dosage Form
    :notation: FRM
    :status:
    - :status: :no_change
    - :status: :no_change
    - :status: :updated
    - :status: :updated
    - :status: :updated
    - :status: :no_change
    - :status: :updated
    - :status: :updated
    :last_id: aHR0cDovL3d3dy5jZGlzYy5vcmcvQzY2NzI2L1YzNyNDNjY3MjY=
  :C78733:
    :key: C78733
    :id: aHR0cDovL3d3dy5jZGlzYy5vcmcvQzc4NzMzL1YyOCNDNzg3MzM=
    :identifier: C78733
    :label: Specimen Condition
    :notation: SPECCOND
    :status:
    - :status: :no_change
    - :status: :no_change
    - :status: :no_change
    - :status: :updated
    - :status: :no_change
    - :status: :no_change
    - :status: :updated
    - :status: :updated
    :last_id: aHR0cDovL3d3dy5jZGlzYy5vcmcvQzc4NzMzL1YzNyNDNzg3MzM=
  :C66741:
    :key: C66741
    :id: aHR0cDovL3d3dy5jZGlzYy5vcmcvQzY2NzQxL1YyOSNDNjY3NDE=
    :identifier: C66741
    :label: Vital Signs Test Code
    :notation: VSTESTCD
    :status:
    - :status: :no_change
    - :status: :no_change
    - :status: :updated
    - :status: :updated
    - :status: :updated
    - :status: :no_change
    - :status: :updated
    - :status: :no_change
    :last_id: aHR0cDovL3d3dy5jZGlzYy5vcmcvQzY2NzQxL1YzNiNDNjY3NDE=
  :C66786:
    :key: C66786
    :id: aHR0cDovL3d3dy5jZGlzYy5vcmcvQzY2Nzg2L1YzMCNDNjY3ODY=
    :identifier: C66786
    :label: Country
    :notation: COUNTRY
    :status:
    - :status: :updated
    - :status: :no_change
    - :status: :updated
    - :status: :updated
    - :status: :updated
    - :status: :no_change
    - :status: :updated
    - :status: :updated
    :last_id: aHR0cDovL3d3dy5jZGlzYy5vcmcvQzY2Nzg2L1YzNyNDNjY3ODY=
  :C96781:
    :key: C96781
    :id: aHR0cDovL3d3dy5jZGlzYy5vcmcvQzk2NzgxL1YyNiNDOTY3ODE=
    :identifier: C96781
    :label: Tumor Response Assessment Test Name
    :notation: RSTEST
    :status:
    - :status: :no_change
    - :status: :no_change
    - :status: :updated
    - :status: :no_change
    - :status: :no_change
    - :status: :no_change
    - :status: :updated
    - :status: :no_change
    :last_id: aHR0cDovL3d3dy5jZGlzYy5vcmcvQzk2NzgxL1YzNiNDOTY3ODE=
  :C66738:
    :key: C66738
    :id: aHR0cDovL3d3dy5jZGlzYy5vcmcvQzY2NzM4L1YyOSNDNjY3Mzg=
    :identifier: C66738
    :label: Trial Summary Parameter Test Code
    :notation: TSPARMCD
    :status:
    - :status: :no_change
    - :status: :no_change
    - :status: :updated
    - :status: :no_change
    - :status: :no_change
    - :status: :updated
    - :status: :updated
    - :status: :updated
    :last_id: aHR0cDovL3d3dy5jZGlzYy5vcmcvQzY2NzM4L1YzNyNDNjY3Mzg=
  :C74456:
    :key: C74456
    :id: aHR0cDovL3d3dy5jZGlzYy5vcmcvQzc0NDU2L1YzMCNDNzQ0NTY=
    :identifier: C74456
    :label: Anatomical Location
    :notation: LOC
    :status:
    - :status: :updated
    - :status: :updated
    - :status: :updated
    - :status: :updated
    - :status: :updated
    - :status: :updated
    - :status: :updated
    - :status: :updated
    :last_id: aHR0cDovL3d3dy5jZGlzYy5vcmcvQzc0NDU2L1YzNyNDNzQ0NTY=
  :C99079:
    :key: C99079
    :id: aHR0cDovL3d3dy5jZGlzYy5vcmcvQzk5MDc5L1YzMCNDOTkwNzk=
    :identifier: C99079
    :label: Epoch
    :notation: EPOCH
    :status:
    - :status: :updated
    - :status: :updated
    - :status: :no_change
    - :status: :updated
    - :status: :no_change
    - :status: :no_change
    - :status: :no_change
    - :status: :updated
    :last_id: aHR0cDovL3d3dy5jZGlzYy5vcmcvQzk5MDc5L1YzNyNDOTkwNzk=
  :C100140:
    :key: C100140
    :id: aHR0cDovL3d3dy5jZGlzYy5vcmcvQzEwMDE0MC9WMjkjQzEwMDE0MA==
    :identifier: C100140
    :label: Movement Disorder Society UPDRS Test Code
    :notation: MDS-UPDRS TESTCD
    :status:
    - :status: :no_change
    - :status: :no_change
    - :status: :no_change
    - :status: :no_change
    - :status: :no_change
    - :status: :no_change
    - :status: :no_change
    - :status: :updated
    :last_id: aHR0cDovL3d3dy5jZGlzYy5vcmcvQzEwMDE0MC9WMzcjQzEwMDE0MA==
  :C100135:
    :key: C100135
    :id: aHR0cDovL3d3dy5jZGlzYy5vcmcvQzEwMDEzNS9WMjkjQzEwMDEzNQ==
    :identifier: C100135
    :label: EuroQOLFive Dimension Three Level Scale Test Name
    :notation: EQ-5D-3L TEST
    :status:
    - :status: :no_change
    - :status: :no_change
    - :status: :updated
    - :status: :deleted
    - *1
    - *1
    - *1
    - :status: :created
    :last_id: aHR0cDovL3d3dy5jZGlzYy5vcmcvQzEwMDEzNS9WMzcjQzEwMDEzNQ==
  :C66781:
    :key: C66781
    :id: aHR0cDovL3d3dy5jZGlzYy5vcmcvQzY2NzgxL1YyOCNDNjY3ODE=
    :identifier: C66781
    :label: Age Unit
    :notation: AGEU
    :status:
    - :status: :no_change
    - :status: :no_change
    - :status: :no_change
    - :status: :updated
    - :status: :no_change
    - :status: :updated
    - :status: :no_change
    - :status: :no_change
    :last_id: aHR0cDovL3d3dy5jZGlzYy5vcmcvQzY2NzgxL1YzNSNDNjY3ODE=
  :C71153:
    :key: C71153
    :id: aHR0cDovL3d3dy5jZGlzYy5vcmcvQzcxMTUzL1YzMCNDNzExNTM=
    :identifier: C71153
    :label: ECG Test Code
    :notation: EGTESTCD
    :status:
    - :status: :updated
    - :status: :no_change
    - :status: :no_change
    - :status: :updated
    - :status: :no_change
    - :status: :updated
    - :status: :updated
    - :status: :no_change
    :last_id: aHR0cDovL3d3dy5jZGlzYy5vcmcvQzcxMTUzL1YzNiNDNzExNTM=
  :C78425:
    :key: C78425
    :id: aHR0cDovL3d3dy5jZGlzYy5vcmcvQzc4NDI1L1YzMCNDNzg0MjU=
    :identifier: C78425
    :label: Exposure Route of Administration
    :notation: EXROUTE
    :status:
    - :status: :updated
    - :status: :no_change
    - :status: :updated
    - :status: :no_change
    - :status: :no_change
    - :status: :updated
    - :status: :updated
    - :status: :no_change
    :last_id: aHR0cDovL3d3dy5jZGlzYy5vcmcvQzc4NDI1L1YzNiNDNzg0MjU=
  :C66729:
    :key: C66729
    :id: aHR0cDovL3d3dy5jZGlzYy5vcmcvQzY2NzI5L1YzMCNDNjY3Mjk=
    :identifier: C66729
    :label: Route of Administration
    :notation: ROUTE
    :status:
    - :status: :updated
    - :status: :no_change
    - :status: :updated
    - :status: :no_change
    - :status: :no_change
    - :status: :updated
    - :status: :updated
    - :status: :no_change
    :last_id: aHR0cDovL3d3dy5jZGlzYy5vcmcvQzY2NzI5L1YzNiNDNjY3Mjk=
  :C99073:
    :key: C99073
    :id: aHR0cDovL3d3dy5jZGlzYy5vcmcvQzk5MDczL1YyOSNDOTkwNzM=
    :identifier: C99073
    :label: Laterality
    :notation: LAT
    :status:
    - :status: :no_change
    - :status: :no_change
    - :status: :updated
    - :status: :no_change
    - :status: :no_change
    - :status: :no_change
    - :status: :no_change
    - :status: :no_change
    :last_id: aHR0cDovL3d3dy5jZGlzYy5vcmcvQzk5MDczL1YzMiNDOTkwNzM=
  :C65047:
    :key: C65047
    :id: aHR0cDovL3d3dy5jZGlzYy5vcmcvQzY1MDQ3L1YzMCNDNjUwNDc=
    :identifier: C65047
    :label: Laboratory Test Code
    :notation: LBTESTCD
    :status:
    - :status: :updated
    - :status: :no_change
    - :status: :updated
    - :status: :updated
    - :status: :updated
    - :status: :updated
    - :status: :updated
    - :status: :updated
    :last_id: aHR0cDovL3d3dy5jZGlzYy5vcmcvQzY1MDQ3L1YzNyNDNjUwNDc=
  :C78420:
    :key: C78420
    :id: aHR0cDovL3d3dy5jZGlzYy5vcmcvQzc4NDIwL1YzMCNDNzg0MjA=
    :identifier: C78420
    :label: Concomitant Medication Route of Administration
    :notation: CMROUTE
    :status:
    - :status: :updated
    - :status: :no_change
    - :status: :updated
    - :status: :no_change
    - :status: :no_change
    - :status: :updated
    - :status: :updated
    - :status: :no_change
    :last_id: aHR0cDovL3d3dy5jZGlzYy5vcmcvQzc4NDIwL1YzNiNDNzg0MjA=
  :C100132:
    :key: C100132
    :id: aHR0cDovL3d3dy5jZGlzYy5vcmcvQzEwMDEzMi9WMjkjQzEwMDEzMg==
    :identifier: C100132
    :label: Alzheimer's Disease Assessment Scale - Cognitive CDISC Version Test Code
    :notation: ADAS-Cog CDISC Version TESTCD
    :status:
    - :status: :no_change
    - :status: :no_change
    - :status: :updated
    - :status: :no_change
    - :status: :no_change
    - :status: :no_change
    - :status: :no_change
    - :status: :no_change
    :last_id: aHR0cDovL3d3dy5jZGlzYy5vcmcvQzEwMDEzMi9WMzIjQzEwMDEzMg==
  :C100168:
    :key: C100168
    :id: aHR0cDovL3d3dy5jZGlzYy5vcmcvQzEwMDE2OC9WMjkjQzEwMDE2OA==
    :identifier: C100168
    :label: Columbia-Suicidality Severity Rating Scale Test Code
    :notation: C-SSRS Baseline TESTCD
    :status:
    - :status: :no_change
    - :status: :no_change
    - :status: :updated
    - :status: :updated
    - :status: :no_change
    - :status: :no_change
    - :status: :no_change
    - :status: :no_change
    :last_id: aHR0cDovL3d3dy5jZGlzYy5vcmcvQzEwMDE2OC9WMzMjQzEwMDE2OA==
  :C100173:
    :key: C100173
    :id: aHR0cDovL3d3dy5jZGlzYy5vcmcvQzEwMDE3My9WMjkjQzEwMDE3Mw==
    :identifier: C100173
    :label: SF-36 v1.0 Standard Test Name
    :notation: SF36 v1.0 Standard TEST
    :status:
    - :status: :no_change
    - :status: :no_change
    - :status: :updated
    - :status: :deleted
    - *1
    - *1
    - *1
    - *1
    :last_id: ''
  :C96780:
    :key: C96780
    :id: aHR0cDovL3d3dy5jZGlzYy5vcmcvQzk2NzgwL1YyNiNDOTY3ODA=
    :identifier: C96780
    :label: Tumor Identification Results
    :notation: TUMIDENT
    :status:
    - :status: :no_change
    - :status: :no_change
    - :status: :updated
    - :status: :no_change
    - :status: :no_change
    - :status: :no_change
    - :status: :no_change
    - :status: :no_change
    :last_id: aHR0cDovL3d3dy5jZGlzYy5vcmcvQzk2NzgwL1YzMiNDOTY3ODA=
  :C85493:
    :key: C85493
    :id: aHR0cDovL3d3dy5jZGlzYy5vcmcvQzg1NDkzL1YzMCNDODU0OTM=
    :identifier: C85493
    :label: PK Parameters
    :notation: PKPARM
    :status:
    - :status: :updated
    - :status: :updated
    - :status: :updated
    - :status: :updated
    - :status: :updated
    - :status: :updated
    - :status: :updated
    - :status: :updated
    :last_id: aHR0cDovL3d3dy5jZGlzYy5vcmcvQzg1NDkzL1YzNyNDODU0OTM=
  :C66731:
    :key: C66731
    :id: aHR0cDovL3d3dy5jZGlzYy5vcmcvQzY2NzMxL1YxNiNDNjY3MzE=
    :identifier: C66731
    :label: Sex
    :notation: SEX
    :status:
    - :status: :no_change
    - :status: :no_change
    - :status: :no_change
    - :status: :no_change
    - :status: :no_change
    - :status: :no_change
    - :status: :no_change
    - :status: :updated
    :last_id: aHR0cDovL3d3dy5jZGlzYy5vcmcvQzY2NzMxL1YzNyNDNjY3MzE=
  :C100143:
    :key: C100143
    :id: aHR0cDovL3d3dy5jZGlzYy5vcmcvQzEwMDE0My9WMjkjQzEwMDE0Mw==
    :identifier: C100143
    :label: Neuropsychiatric Inventory Test Name
    :notation: NPI TEST
    :status:
    - :status: :no_change
    - :status: :no_change
    - :status: :updated
    - :status: :no_change
    - :status: :no_change
    - :status: :no_change
    - :status: :updated
    - :status: :no_change
    :last_id: aHR0cDovL3d3dy5jZGlzYy5vcmcvQzEwMDE0My9WMzYjQzEwMDE0Mw==
  :C100138:
    :key: C100138
    :id: aHR0cDovL3d3dy5jZGlzYy5vcmcvQzEwMDEzOC9WMjkjQzEwMDEzOA==
    :identifier: C100138
    :label: Hamilton Depression Rating Scale - 17 Item Test Code
    :notation: HAMD 17 TESTCD
    :status:
    - :status: :no_change
    - :status: :no_change
    - :status: :updated
    - :status: :updated
    - :status: :no_change
    - :status: :no_change
    - :status: :no_change
    - :status: :no_change
    :last_id: aHR0cDovL3d3dy5jZGlzYy5vcmcvQzEwMDEzOC9WMzMjQzEwMDEzOA==
  :C66784:
    :key: C66784
    :id: aHR0cDovL3d3dy5jZGlzYy5vcmcvQzY2Nzg0L1YyOCNDNjY3ODQ=
    :identifier: C66784
    :label: Common Terminology Criteria for Adverse Events
    :notation: TOXGR
    :status:
    - :status: :no_change
    - :status: :no_change
    - :status: :updated
    - :status: :updated
    - :status: :no_change
    - :status: :no_change
    - :status: :no_change
    - :status: :no_change
    :last_id: aHR0cDovL3d3dy5jZGlzYy5vcmcvQzY2Nzg0L1YzMyNDNjY3ODQ=
  :C88025:
    :key: C88025
    :id: aHR0cDovL3d3dy5jZGlzYy5vcmcvQzg4MDI1L1YzMCNDODgwMjU=
    :identifier: C88025
    :label: Neoplasm Type
    :notation: NEOPLASM
    :status:
    - :status: :updated
    - :status: :no_change
    - :status: :updated
    - :status: :updated
    - :status: :no_change
    - :status: :updated
    - :status: :updated
    - :status: :updated
    :last_id: aHR0cDovL3d3dy5jZGlzYy5vcmcvQzg4MDI1L1YzNyNDODgwMjU=
  :C71148:
    :key: C71148
    :id: aHR0cDovL3d3dy5jZGlzYy5vcmcvQzcxMTQ4L1YyOSNDNzExNDg=
    :identifier: C71148
    :label: Position
    :notation: POSITION
    :status:
    - :status: :no_change
    - :status: :no_change
    - :status: :no_change
    - :status: :no_change
    - :status: :no_change
    - :status: :updated
    - :status: :no_change
    - :status: :no_change
    :last_id: aHR0cDovL3d3dy5jZGlzYy5vcmcvQzcxMTQ4L1YzNSNDNzExNDg=
  :C78423:
    :key: C78423
    :id: aHR0cDovL3d3dy5jZGlzYy5vcmcvQzc4NDIzL1YxOSNDNzg0MjM=
    :identifier: C78423
    :label: Units for Exposure
    :notation: EXDOSU
    :status:
    - :status: :no_change
    - :status: :no_change
    - :status: :no_change
    - :status: :no_change
    - :status: :no_change
    - :status: :updated
    - :status: :no_change
    - :status: :no_change
    :last_id: aHR0cDovL3d3dy5jZGlzYy5vcmcvQzc4NDIzL1YzNSNDNzg0MjM=
  :C66727:
    :key: C66727
    :id: aHR0cDovL3d3dy5jZGlzYy5vcmcvQzY2NzI3L1YzMCNDNjY3Mjc=
    :identifier: C66727
    :label: Completion/Reason for Non-Completion
    :notation: NCOMPLT
    :status:
    - :status: :updated
    - :status: :updated
    - :status: :no_change
    - :status: :updated
    - :status: :updated
    - :status: :updated
    - :status: :no_change
    - :status: :updated
    :last_id: aHR0cDovL3d3dy5jZGlzYy5vcmcvQzY2NzI3L1YzNyNDNjY3Mjc=
  :C96779:
    :key: C96779
    :id: aHR0cDovL3d3dy5jZGlzYy5vcmcvQzk2Nzc5L1YyNiNDOTY3Nzk=
    :identifier: C96779
    :label: Oncology Tumor Properties Test Code
    :notation: TRTESTCD
    :status:
    - :status: :no_change
    - :status: :no_change
    - :status: :updated
    - :status: :no_change
    - :status: :no_change
    - :status: :no_change
    - :status: :updated
    - :status: :no_change
    :last_id: aHR0cDovL3d3dy5jZGlzYy5vcmcvQzk2Nzc5L1YzNiNDOTY3Nzk=
  :C78734:
    :key: C78734
    :id: aHR0cDovL3d3dy5jZGlzYy5vcmcvQzc4NzM0L1YyOSNDNzg3MzQ=
    :identifier: C78734
    :label: Specimen Type
    :notation: SPECTYPE
    :status:
    - :status: :no_change
    - :status: :no_change
    - :status: :updated
    - :status: :updated
    - :status: :updated
    - :status: :updated
    - :status: :updated
    - :status: :updated
    :last_id: aHR0cDovL3d3dy5jZGlzYy5vcmcvQzc4NzM0L1YzNyNDNzg3MzQ=
  :C67153:
    :key: C67153
    :id: aHR0cDovL3d3dy5jZGlzYy5vcmcvQzY3MTUzL1YyOSNDNjcxNTM=
    :identifier: C67153
    :label: Vital Signs Test Name
    :notation: VSTEST
    :status:
    - :status: :no_change
    - :status: :no_change
    - :status: :updated
    - :status: :updated
    - :status: :updated
    - :status: :no_change
    - :status: :updated
    - :status: :no_change
    :last_id: aHR0cDovL3d3dy5jZGlzYy5vcmcvQzY3MTUzL1YzNiNDNjcxNTM=
  :C78418:
    :key: C78418
    :id: aHR0cDovL3d3dy5jZGlzYy5vcmcvQzc4NDE4L1YzMCNDNzg0MTg=
    :identifier: C78418
    :label: Concomitant Medication Dose Form
    :notation: CMDOSFRM
    :status:
    - :status: :updated
    - :status: :no_change
    - :status: :no_change
    - :status: :no_change
    - :status: :updated
    - :status: :updated
    - :status: :updated
    - :status: :no_change
    :last_id: aHR0cDovL3d3dy5jZGlzYy5vcmcvQzc4NDE4L1YzNiNDNzg0MTg=
  :C74457:
    :key: C74457
    :id: aHR0cDovL3d3dy5jZGlzYy5vcmcvQzc0NDU3L1YxMCNDNzQ0NTc=
    :identifier: C74457
    :label: Race
    :notation: RACE
    :status:
    - :status: :no_change
    - :status: :no_change
    - :status: :no_change
    - :status: :updated
    - :status: :no_change
    - :status: :no_change
    - :status: :no_change
    - :status: :no_change
    :last_id: aHR0cDovL3d3dy5jZGlzYy5vcmcvQzc0NDU3L1YzMyNDNzQ0NTc=
  :C67152:
    :key: C67152
    :id: aHR0cDovL3d3dy5jZGlzYy5vcmcvQzY3MTUyL1YyOSNDNjcxNTI=
    :identifier: C67152
    :label: Trial Summary Parameter Test Name
    :notation: TSPARM
    :status:
    - :status: :no_change
    - :status: :no_change
    - :status: :updated
    - :status: :updated
    - :status: :no_change
    - :status: :updated
    - :status: :updated
    - :status: :updated
    :last_id: aHR0cDovL3d3dy5jZGlzYy5vcmcvQzY3MTUyL1YzNyNDNjcxNTI=
  :C66734:
    :key: C66734
    :id: aHR0cDovL3d3dy5jZGlzYy5vcmcvQzY2NzM0L1YyOCNDNjY3MzQ=
    :identifier: C66734
    :label: Domain Abbreviation
    :notation: DOMAIN
    :status:
    - :status: :no_change
    - :status: :updated
    - :status: :updated
    - :status: :updated
    - :status: :updated
    - :status: :updated
    - :status: :updated
    - :status: :updated
    :last_id: aHR0cDovL3d3dy5jZGlzYy5vcmcvQzY2NzM0L1YzNyNDNjY3MzQ=
  :C85494:
    :key: C85494
    :id: aHR0cDovL3d3dy5jZGlzYy5vcmcvQzg1NDk0L1YyOSNDODU0OTQ=
    :identifier: C85494
    :label: PK Parameter Units of Measure
    :notation: PKUNIT
    :status:
    - :status: :no_change
    - :status: :no_change
    - :status: :updated
    - :status: :updated
    - :status: :updated
    - :status: :updated
    - :status: :updated
    - :status: :updated
    :last_id: aHR0cDovL3d3dy5jZGlzYy5vcmcvQzg1NDk0L1YzNyNDODU0OTQ=
  :C100141:
    :key: C100141
    :id: aHR0cDovL3d3dy5jZGlzYy5vcmcvQzEwMDE0MS9WMjkjQzEwMDE0MQ==
    :identifier: C100141
    :label: Mini-Mental State Examination Test Name
    :notation: MMSE TEST
    :status:
    - :status: :no_change
    - :status: :no_change
    - :status: :updated
    - :status: :deleted
    - *1
    - *1
    - *1
    - *1
    :last_id: ''
  :C100136:
    :key: C100136
    :id: aHR0cDovL3d3dy5jZGlzYy5vcmcvQzEwMDEzNi9WMjkjQzEwMDEzNg==
    :identifier: C100136
    :label: EuroQOLFive Dimension Three Level Scale Test Code
    :notation: EQ-5D-3L TESTCD
    :status:
    - :status: :no_change
    - :status: :no_change
    - :status: :updated
    - :status: :deleted
    - *1
    - *1
    - *1
    - :status: :created
    :last_id: aHR0cDovL3d3dy5jZGlzYy5vcmcvQzEwMDEzNi9WMzcjQzEwMDEzNg==
  :C71150:
    :key: C71150
    :id: aHR0cDovL3d3dy5jZGlzYy5vcmcvQzcxMTUwL1YzMCNDNzExNTA=
    :identifier: C71150
    :label: ECG Result
    :notation: EGSTRESC
    :status:
    - :status: :updated
    - :status: :updated
    - :status: :no_change
    - :status: :no_change
    - :status: :updated
    - :status: :updated
    - :status: :updated
    - :status: :updated
    :last_id: aHR0cDovL3d3dy5jZGlzYy5vcmcvQzcxMTUwL1YzNyNDNzExNTA=
  :C100130:
    :key: C100130
    :id: aHR0cDovL3d3dy5jZGlzYy5vcmcvQzEwMDEzMC9WMjkjQzEwMDEzMA==
    :identifier: C100130
    :label: Relationship to Subject
    :notation: RELSUB
    :status:
    - :status: :no_change
    - :status: :no_change
    - :status: :no_change
    - :status: :no_change
    - :status: :no_change
    - :status: :updated
    - :status: :no_change
    - :status: :no_change
    :last_id: aHR0cDovL3d3dy5jZGlzYy5vcmcvQzEwMDEzMC9WMzUjQzEwMDEzMA==
  :C100167:
    :key: C100167
    :id: aHR0cDovL3d3dy5jZGlzYy5vcmcvQzEwMDE2Ny9WMjkjQzEwMDE2Nw==
    :identifier: C100167
    :label: Columbia-Suicidality Severity Rating Scale Test Name
    :notation: C-SSRS Baseline TEST
    :status:
    - :status: :no_change
    - :status: :no_change
    - :status: :updated
    - :status: :updated
    - :status: :no_change
    - :status: :no_change
    - :status: :no_change
    - :status: :no_change
    :last_id: aHR0cDovL3d3dy5jZGlzYy5vcmcvQzEwMDE2Ny9WMzMjQzEwMDE2Nw==
  :C100160:
    :key: C100160
    :id: aHR0cDovL3d3dy5jZGlzYy5vcmcvQzEwMDE2MC9WMjkjQzEwMDE2MA==
    :identifier: C100160
    :label: Screener and Opioid Assessment for Patients with Pain - Revised Test Code
    :notation: SOAPP-R TESTCD
    :status:
    - :status: :no_change
    - :status: :no_change
    - :status: :updated
    - :status: :no_change
    - :status: :no_change
    - :status: :no_change
    - :status: :no_change
    - :status: :no_change
    :last_id: aHR0cDovL3d3dy5jZGlzYy5vcmcvQzEwMDE2MC9WMzIjQzEwMDE2MA==
  :C78419:
    :key: C78419
    :id: aHR0cDovL3d3dy5jZGlzYy5vcmcvQzc4NDE5L1YyOCNDNzg0MTk=
    :identifier: C78419
    :label: Concomitant Medication Dosing Frequency per Interval
    :notation: CMDOSFRQ
    :status:
    - :status: :no_change
    - :status: :no_change
    - :status: :no_change
    - :status: :no_change
    - :status: :no_change
    - :status: :updated
    - :status: :updated
    - :status: :updated
    :last_id: aHR0cDovL3d3dy5jZGlzYy5vcmcvQzc4NDE5L1YzNyNDNzg0MTk=
  :C66737:
    :key: C66737
    :id: aHR0cDovL3d3dy5jZGlzYy5vcmcvQzY2NzM3L1YxNiNDNjY3Mzc=
    :identifier: C66737
    :label: Trial Phase
    :notation: TPHASE
    :status:
    - :status: :no_change
    - :status: :no_change
    - :status: :updated
    - :status: :no_change
    - :status: :no_change
    - :status: :updated
    - :status: :no_change
    - :status: :updated
    :last_id: aHR0cDovL3d3dy5jZGlzYy5vcmcvQzY2NzM3L1YzNyNDNjY3Mzc=
  :C66742:
    :key: C66742
    :id: aHR0cDovL3d3dy5jZGlzYy5vcmcvQzY2NzQyL1Y0I0M2Njc0Mg==
    :identifier: C66742
    :label: No Yes Response
    :notation: NY
    :status:
    - :status: :no_change
    - :status: :no_change
    - :status: :no_change
    - :status: :no_change
    - :status: :no_change
    - :status: :updated
    - :status: :no_change
    - :status: :no_change
    :last_id: aHR0cDovL3d3dy5jZGlzYy5vcmcvQzY2NzQyL1YzNSNDNjY3NDI=
  :C66790:
    :key: C66790
    :id: aHR0cDovL3d3dy5jZGlzYy5vcmcvQzY2NzkwL1YxOSNDNjY3OTA=
    :identifier: C66790
    :label: Ethnic Group
    :notation: ETHNIC
    :status:
    - :status: :no_change
    - :status: :no_change
    - :status: :no_change
    - :status: :updated
    - :status: :no_change
    - :status: :no_change
    - :status: :no_change
    - :status: :no_change
    :last_id: aHR0cDovL3d3dy5jZGlzYy5vcmcvQzY2NzkwL1YzMyNDNjY3OTA=
  :C100139:
    :key: C100139
    :id: aHR0cDovL3d3dy5jZGlzYy5vcmcvQzEwMDEzOS9WMjkjQzEwMDEzOQ==
    :identifier: C100139
    :label: Movement Disorder Society UPDRS Test Name
    :notation: MDS-UPDRS TEST
    :status:
    - :status: :no_change
    - :status: :no_change
    - :status: :no_change
    - :status: :no_change
    - :status: :no_change
    - :status: :no_change
    - :status: :no_change
    - :status: :updated
    :last_id: aHR0cDovL3d3dy5jZGlzYy5vcmcvQzEwMDEzOS9WMzcjQzEwMDEzOQ==
  :C78430:
    :key: C78430
    :id: aHR0cDovL3d3dy5jZGlzYy5vcmcvQzc4NDMwL1YyNSNDNzg0MzA=
    :identifier: C78430
    :label: Units for Planned Exposure
    :notation: EXPDOSEU
    :status:
    - :status: :no_change
    - :status: :no_change
    - :status: :no_change
    - :status: :no_change
    - :status: :no_change
    - :status: :updated
    - :status: :updated
    - :status: :no_change
    :last_id: aHR0cDovL3d3dy5jZGlzYy5vcmcvQzc4NDMwL1YzNiNDNzg0MzA=
  :C78426:
    :key: C78426
    :id: aHR0cDovL3d3dy5jZGlzYy5vcmcvQzc4NDI2L1YzMCNDNzg0MjY=
    :identifier: C78426
    :label: Exposure Dose Form
    :notation: EXDOSFRM
    :status:
    - :status: :updated
    - :status: :no_change
    - :status: :no_change
    - :status: :no_change
    - :status: :updated
    - :status: :updated
    - :status: :updated
    - :status: :no_change
    :last_id: aHR0cDovL3d3dy5jZGlzYy5vcmcvQzc4NDI2L1YzNiNDNzg0MjY=
  :C96778:
    :key: C96778
    :id: aHR0cDovL3d3dy5jZGlzYy5vcmcvQzk2Nzc4L1YyNiNDOTY3Nzg=
    :identifier: C96778
    :label: Oncology Tumor Properties Test Name
    :notation: TRTEST
    :status:
    - :status: :no_change
    - :status: :no_change
    - :status: :updated
    - :status: :no_change
    - :status: :no_change
    - :status: :no_change
    - :status: :updated
    - :status: :no_change
    :last_id: aHR0cDovL3d3dy5jZGlzYy5vcmcvQzk2Nzc4L1YzNiNDOTY3Nzg=
  :C85839:
    :key: C85839
    :id: aHR0cDovL3d3dy5jZGlzYy5vcmcvQzg1ODM5L1YzMCNDODU4Mzk=
    :identifier: C85839
    :label: PK Parameters Code
    :notation: PKPARMCD
    :status:
    - :status: :updated
    - :status: :updated
    - :status: :no_change
    - :status: :updated
    - :status: :updated
    - :status: :updated
    - :status: :updated
    - :status: :updated
    :last_id: aHR0cDovL3d3dy5jZGlzYy5vcmcvQzg1ODM5L1YzNyNDODU4Mzk=
  :C100129:
    :key: C100129
    :id: aHR0cDovL3d3dy5jZGlzYy5vcmcvQzEwMDEyOS9WMzAjQzEwMDEyOQ==
    :identifier: C100129
    :label: Questionnaire Category
    :notation: QSCAT
    :status:
    - :status: :updated
    - :status: :updated
    - :status: :updated
    - :status: :updated
    - :status: :updated
    - :status: :updated
    - :status: :updated
    - :status: :updated
    :last_id: aHR0cDovL3d3dy5jZGlzYy5vcmcvQzEwMDEyOS9WMzcjQzEwMDEyOQ==
  :C71620:
    :key: C71620
    :id: aHR0cDovL3d3dy5jZGlzYy5vcmcvQzcxNjIwL1YzMCNDNzE2MjA=
    :identifier: C71620
    :label: Unit
    :notation: UNIT
    :status:
    - :status: :updated
    - :status: :updated
    - :status: :updated
    - :status: :updated
    - :status: :updated
    - :status: :updated
    - :status: :updated
    - :status: :updated
    :last_id: aHR0cDovL3d3dy5jZGlzYy5vcmcvQzcxNjIwL1YzNyNDNzE2MjA=
  :C78428:
    :key: C78428
    :id: aHR0cDovL3d3dy5jZGlzYy5vcmcvQzc4NDI4L1YxOSNDNzg0Mjg=
    :identifier: C78428
    :label: Total Volume Administration Unit
    :notation: EXVOLTU
    :status:
    - :status: :no_change
    - :status: :no_change
    - :status: :no_change
    - :status: :no_change
    - :status: :no_change
    - :status: :updated
    - :status: :no_change
    - :status: :no_change
    :last_id: aHR0cDovL3d3dy5jZGlzYy5vcmcvQzc4NDI4L1YzNSNDNzg0Mjg=
  :C66770:
    :key: C66770
    :id: aHR0cDovL3d3dy5jZGlzYy5vcmcvQzY2NzcwL1YyOCNDNjY3NzA=
    :identifier: C66770
    :label: Units for Vital Signs Results
    :notation: VSRESU
    :status:
    - :status: :no_change
    - :status: :no_change
    - :status: :no_change
    - :status: :updated
    - :status: :no_change
    - :status: :no_change
    - :status: :updated
    - :status: :updated
    :last_id: aHR0cDovL3d3dy5jZGlzYy5vcmcvQzY2NzcwL1YzNyNDNjY3NzA=
  :C78417:
    :key: C78417
    :id: aHR0cDovL3d3dy5jZGlzYy5vcmcvQzc4NDE3L1YyOCNDNzg0MTc=
    :identifier: C78417
    :label: Concomitant Medication Dose Units
    :notation: CMDOSU
    :status:
    - :status: :no_change
    - :status: :no_change
    - :status: :no_change
    - :status: :no_change
    - :status: :no_change
    - :status: :updated
    - :status: :no_change
    - :status: :updated
    :last_id: aHR0cDovL3d3dy5jZGlzYy5vcmcvQzc4NDE3L1YzNyNDNzg0MTc=
  :C99074:
    :key: C99074
    :id: aHR0cDovL3d3dy5jZGlzYy5vcmcvQzk5MDc0L1YzMCNDOTkwNzQ=
    :identifier: C99074
    :label: Directionality
    :notation: DIR
    :status:
    - :status: :updated
    - :status: :no_change
    - :status: :no_change
    - :status: :no_change
    - :status: :no_change
    - :status: :no_change
    - :status: :no_change
    - :status: :no_change
    :last_id: aHR0cDovL3d3dy5jZGlzYy5vcmcvQzk5MDc0L1YzMCNDOTkwNzQ=
  :C66780:
    :key: C66780
    :id: aHR0cDovL3d3dy5jZGlzYy5vcmcvQzY2NzgwL1YxNyNDNjY3ODA=
    :identifier: C66780
    :label: Age Span
    :notation: AGESPAN
    :status:
    - :status: :no_change
    - :status: :no_change
    - :status: :no_change
    - :status: :deleted
    - *1
    - *1
    - *1
    - *1
    :last_id: ''
  :C100144:
    :key: C100144
    :id: aHR0cDovL3d3dy5jZGlzYy5vcmcvQzEwMDE0NC9WMjkjQzEwMDE0NA==
    :identifier: C100144
    :label: Neuropsychiatric Inventory Test Code
    :notation: NPI TESTCD
    :status:
    - :status: :no_change
    - :status: :no_change
    - :status: :updated
    - :status: :no_change
    - :status: :no_change
    - :status: :no_change
    - :status: :updated
    - :status: :no_change
    :last_id: aHR0cDovL3d3dy5jZGlzYy5vcmcvQzEwMDE0NC9WMzYjQzEwMDE0NA==
  :C100131:
    :key: C100131
    :id: aHR0cDovL3d3dy5jZGlzYy5vcmcvQzEwMDEzMS9WMjkjQzEwMDEzMQ==
    :identifier: C100131
    :label: Alzheimer's Disease Assessment Scale - Cognitive CDISC Version Test Name
    :notation: ADAS-Cog CDISC Version TEST
    :status:
    - :status: :no_change
    - :status: :no_change
    - :status: :updated
    - :status: :no_change
    - :status: :no_change
    - :status: :no_change
    - :status: :no_change
    - :status: :no_change
    :last_id: aHR0cDovL3d3dy5jZGlzYy5vcmcvQzEwMDEzMS9WMzIjQzEwMDEzMQ==
  :C78745:
    :key: C78745
    :id: aHR0cDovL3d3dy5jZGlzYy5vcmcvQzc4NzQ1L1YyNSNDNzg3NDU=
    :identifier: C78745
    :label: Exposure Dosing Frequency per Interval
    :notation: EXDOSFRQ
    :status:
    - :status: :no_change
    - :status: :no_change
    - :status: :no_change
    - :status: :no_change
    - :status: :no_change
    - :status: :no_change
    - :status: :updated
    - :status: :updated
    :last_id: aHR0cDovL3d3dy5jZGlzYy5vcmcvQzc4NzQ1L1YzNyNDNzg3NDU=
  :C74559:
    :key: C74559
    :id: aHR0cDovL3d3dy5jZGlzYy5vcmcvQzc0NTU5L1YxMCNDNzQ1NTk=
    :identifier: C74559
    :label: Subject Characteristic Code
    :notation: SCCD
    :status:
    - :status: :no_change
    - :status: :updated
    - :status: :updated
    - :status: :no_change
    - :status: :no_change
    - :status: :no_change
    - :status: :updated
    - :status: :updated
    :last_id: aHR0cDovL3d3dy5jZGlzYy5vcmcvQzc0NTU5L1YzNyNDNzQ1NTk=
  :C67154:
    :key: C67154
    :id: aHR0cDovL3d3dy5jZGlzYy5vcmcvQzY3MTU0L1YzMCNDNjcxNTQ=
    :identifier: C67154
    :label: Laboratory Test Name
    :notation: LBTEST
    :status:
    - :status: :updated
    - :status: :no_change
    - :status: :updated
    - :status: :updated
    - :status: :updated
    - :status: :updated
    - :status: :updated
    - :status: :updated
    :last_id: aHR0cDovL3d3dy5jZGlzYy5vcmcvQzY3MTU0L1YzNyNDNjcxNTQ=
  :C100174:
    :key: C100174
    :id: aHR0cDovL3d3dy5jZGlzYy5vcmcvQzEwMDE3NC9WMjkjQzEwMDE3NA==
    :identifier: C100174
    :label: SF-36 v1.0 Standard Test Code
    :notation: SF36 v1.0 Standard TESTCD
    :status:
    - :status: :no_change
    - :status: :no_change
    - :status: :updated
    - :status: :deleted
    - *1
    - *1
    - *1
    - *1
    :last_id: ''
  :C78735:
    :key: C78735
    :id: aHR0cDovL3d3dy5jZGlzYy5vcmcvQzc4NzM1L1YyOSNDNzg3MzU=
    :identifier: C78735
    :label: Evaluator
    :notation: EVAL
    :status:
    - :status: :no_change
    - :status: :no_change
    - :status: :updated
    - :status: :updated
    - :status: :updated
    - :status: :no_change
    - :status: :no_change
    - :status: :no_change
    :last_id: aHR0cDovL3d3dy5jZGlzYy5vcmcvQzc4NzM1L1YzNCNDNzg3MzU=
  :C96782:
    :key: C96782
    :id: aHR0cDovL3d3dy5jZGlzYy5vcmcvQzk2NzgyL1YyNiNDOTY3ODI=
    :identifier: C96782
    :label: Tumor Response Assessment Test Code
    :notation: RSTESTCD
    :status:
    - :status: :no_change
    - :status: :no_change
    - :status: :updated
    - :status: :no_change
    - :status: :no_change
    - :status: :no_change
    - :status: :updated
    - :status: :no_change
    :last_id: aHR0cDovL3d3dy5jZGlzYy5vcmcvQzk2NzgyL1YzNiNDOTY3ODI=
  :C66739:
    :key: C66739
    :id: aHR0cDovL3d3dy5jZGlzYy5vcmcvQzY2NzM5L1YyOSNDNjY3Mzk=
    :identifier: C66739
    :label: Trial Type
    :notation: TTYPE
    :status:
    - :status: :no_change
    - :status: :no_change
    - :status: :updated
    - :status: :no_change
    - :status: :no_change
    - :status: :no_change
    - :status: :no_change
    - :status: :no_change
    :last_id: aHR0cDovL3d3dy5jZGlzYy5vcmcvQzY2NzM5L1YzMiNDNjY3Mzk=
  :C66728:
    :key: C66728
    :id: aHR0cDovL3d3dy5jZGlzYy5vcmcvQzY2NzI4L1YyNyNDNjY3Mjg=
    :identifier: C66728
    :label: Relation to Reference Period
    :notation: STENRF
    :status:
    - :status: :no_change
    - :status: :no_change
    - :status: :no_change
    - :status: :no_change
    - :status: :no_change
    - :status: :no_change
    - :status: :updated
    - :status: :updated
    :last_id: aHR0cDovL3d3dy5jZGlzYy5vcmcvQzY2NzI4L1YzNyNDNjY3Mjg=
  :C96785:
    :key: C96785
    :id: aHR0cDovL3d3dy5jZGlzYy5vcmcvQzk2Nzg1L1YyNiNDOTY3ODU=
    :identifier: C96785
    :label: Tumor Response Result
    :notation: RSSTRESC
    :status:
    - :status: :no_change
    - :status: :no_change
    - :status: :updated
    - :status: :updated
    - :status: :no_change
    - :status: :updated
    - :status: :no_change
    - :status: :no_change
    :last_id: aHR0cDovL3d3dy5jZGlzYy5vcmcvQzk2Nzg1L1YzNSNDOTY3ODU=
  :C87162:
    :key: C87162
    :id: aHR0cDovL3d3dy5jZGlzYy5vcmcvQzg3MTYyL1YyNyNDODcxNjI=
    :identifier: C87162
    :label: Common Terminology Criteria for Adverse Events V4.0
    :notation: TOXGR
    :status:
    - :status: :no_change
    - :status: :no_change
    - :status: :updated
    - :status: :no_change
    - :status: :no_change
    - :status: :no_change
    - :status: :no_change
    - :status: :no_change
    :last_id: aHR0cDovL3d3dy5jZGlzYy5vcmcvQzg3MTYyL1YzMiNDODcxNjI=
  :C85492:
    :key: C85492
    :id: aHR0cDovL3d3dy5jZGlzYy5vcmcvQzg1NDkyL1YyNyNDODU0OTI=
    :identifier: C85492
    :label: Method
    :notation: METHOD
    :status:
    - :status: :no_change
    - :status: :updated
    - :status: :updated
    - :status: :updated
    - :status: :updated
    - :status: :updated
    - :status: :updated
    - :status: :updated
    :last_id: aHR0cDovL3d3dy5jZGlzYy5vcmcvQzg1NDkyL1YzNyNDODU0OTI=
  :C101845:
    :key: C101845
    :id: aHR0cDovL3d3dy5jZGlzYy5vcmcvQzEwMTg0NS9WMzAjQzEwMTg0NQ==
    :identifier: C101845
    :label: Cardiac Valvular Regurgitation Severity
    :notation: CVLVRSEV
    :status:
    - :status: :created
    - :status: :no_change
    - :status: :updated
    - :status: :no_change
    - :status: :no_change
    - :status: :no_change
    - :status: :no_change
    - :status: :no_change
    :last_id: aHR0cDovL3d3dy5jZGlzYy5vcmcvQzEwMTg0NS9WMzIjQzEwMTg0NQ==
  :C101828:
    :key: C101828
    :id: aHR0cDovL3d3dy5jZGlzYy5vcmcvQzEwMTgyOC9WMzAjQzEwMTgyOA==
    :identifier: C101828
    :label: Subjective Opiate Withdrawal Scale Test Name
    :notation: SOWS Subjective TEST
    :status:
    - :status: :created
    - :status: :no_change
    - :status: :updated
    - :status: :no_change
    - :status: :no_change
    - :status: :no_change
    - :status: :updated
    - :status: :no_change
    :last_id: aHR0cDovL3d3dy5jZGlzYy5vcmcvQzEwMTgyOC9WMzYjQzEwMTgyOA==
  :C101823:
    :key: C101823
    :id: aHR0cDovL3d3dy5jZGlzYy5vcmcvQzEwMTgyMy9WMzAjQzEwMTgyMw==
    :identifier: C101823
    :label: Short Form 36 Health Survey Acute, US Version 1.0 Test Name
    :notation: SF36 v1.0 Acute TEST
    :status:
    - :status: :created
    - :status: :no_change
    - :status: :no_change
    - :status: :deleted
    - *1
    - *1
    - *1
    - *1
    :last_id: ''
  :C101840:
    :key: C101840
    :id: aHR0cDovL3d3dy5jZGlzYy5vcmcvQzEwMTg0MC9WMzAjQzEwMTg0MA==
    :identifier: C101840
    :label: Cardiac Rhythm Device Failure Manifestation
    :notation: CRYDFMAN
    :status:
    - :status: :created
    - :status: :no_change
    - :status: :updated
    - :status: :no_change
    - :status: :no_change
    - :status: :no_change
    - :status: :no_change
    - :status: :no_change
    :last_id: aHR0cDovL3d3dy5jZGlzYy5vcmcvQzEwMTg0MC9WMzIjQzEwMTg0MA==
  :C101818:
    :key: C101818
    :id: aHR0cDovL3d3dy5jZGlzYy5vcmcvQzEwMTgxOC9WMzAjQzEwMTgxOA==
    :identifier: C101818
    :label: European Quality of Life Five Dimension Five Level Scale Test Code
    :notation: EQ-5D-5L TESTCD
    :status:
    - :status: :created
    - :status: :no_change
    - :status: :no_change
    - :status: :deleted
    - *1
    - *1
    - *1
    - :status: :created
    :last_id: aHR0cDovL3d3dy5jZGlzYy5vcmcvQzEwMTgxOC9WMzcjQzEwMTgxOA==
  :C101865:
    :key: C101865
    :id: aHR0cDovL3d3dy5jZGlzYy5vcmcvQzEwMTg2NS9WMzAjQzEwMTg2NQ==
    :identifier: C101865
    :label: Risk Assessment
    :notation: RSKASMT
    :status:
    - :status: :created
    - :status: :no_change
    - :status: :updated
    - :status: :no_change
    - :status: :no_change
    - :status: :no_change
    - :status: :updated
    - :status: :no_change
    :last_id: aHR0cDovL3d3dy5jZGlzYy5vcmcvQzEwMTg2NS9WMzYjQzEwMTg2NQ==
  :C101836:
    :key: C101836
    :id: aHR0cDovL3d3dy5jZGlzYy5vcmcvQzEwMTgzNi9WMzAjQzEwMTgzNg==
    :identifier: C101836
    :label: Coronary Artery Disease Symptoms
    :notation: CADSYMP
    :status:
    - :status: :created
    - :status: :no_change
    - :status: :deleted
    - *1
    - *1
    - *1
    - *1
    - *1
    :last_id: ''
  :C101814:
    :key: C101814
    :id: aHR0cDovL3d3dy5jZGlzYy5vcmcvQzEwMTgxNC9WMzAjQzEwMTgxNA==
    :identifier: C101814
    :label: Clinical Opiate Withdrawal Scale Test Code
    :notation: COWS TESTCD
    :status:
    - :status: :created
    - :status: :no_change
    - :status: :no_change
    - :status: :no_change
    - :status: :no_change
    - :status: :no_change
    - :status: :updated
    - :status: :no_change
    :last_id: aHR0cDovL3d3dy5jZGlzYy5vcmcvQzEwMTgxNC9WMzYjQzEwMTgxNA==
  :C101809:
    :key: C101809
    :id: aHR0cDovL3d3dy5jZGlzYy5vcmcvQzEwMTgwOS9WMzAjQzEwMTgwOQ==
    :identifier: C101809
    :label: Barnes Akathisia Rating Scale Test Name
    :notation: BARS TEST
    :status:
    - :status: :created
    - :status: :no_change
    - :status: :no_change
    - :status: :no_change
    - :status: :no_change
    - :status: :no_change
    - :status: :updated
    - :status: :no_change
    :last_id: aHR0cDovL3d3dy5jZGlzYy5vcmcvQzEwMTgwOS9WMzYjQzEwMTgwOQ==
  :C101856:
    :key: C101856
    :id: aHR0cDovL3d3dy5jZGlzYy5vcmcvQzEwMTg1Ni9WMzAjQzEwMTg1Ng==
    :identifier: C101856
    :label: Lead Status
    :notation: LEADSTAT
    :status:
    - :status: :created
    - :status: :no_change
    - :status: :updated
    - :status: :no_change
    - :status: :no_change
    - :status: :no_change
    - :status: :no_change
    - :status: :no_change
    :last_id: aHR0cDovL3d3dy5jZGlzYy5vcmcvQzEwMTg1Ni9WMzIjQzEwMTg1Ng==
  :C101848:
    :key: C101848
    :id: aHR0cDovL3d3dy5jZGlzYy5vcmcvQzEwMTg0OC9WMzAjQzEwMTg0OA==
    :identifier: C101848
    :label: Diabetes Therapy
    :notation: DIABTHPY
    :status:
    - :status: :created
    - :status: :no_change
    - :status: :updated
    - :status: :no_change
    - :status: :no_change
    - :status: :updated
    - :status: :no_change
    - :status: :no_change
    :last_id: aHR0cDovL3d3dy5jZGlzYy5vcmcvQzEwMTg0OC9WMzUjQzEwMTg0OA==
  :C100148:
    :key: C100148
    :id: aHR0cDovL3d3dy5jZGlzYy5vcmcvQzEwMDE0OC9WMzAjQzEwMDE0OA==
    :identifier: C100148
    :label: Unified Parkinson's Disease Rating Scale Test Code
    :notation: UPDRS TESTCD
    :status:
    - :status: :created
    - :status: :no_change
    - :status: :no_change
    - :status: :no_change
    - :status: :no_change
    - :status: :updated
    - :status: :no_change
    - :status: :no_change
    :last_id: aHR0cDovL3d3dy5jZGlzYy5vcmcvQzEwMDE0OC9WMzUjQzEwMDE0OA==
  :C101842:
    :key: C101842
    :id: aHR0cDovL3d3dy5jZGlzYy5vcmcvQzEwMTg0Mi9WMzAjQzEwMTg0Mg==
    :identifier: C101842
    :label: Cardiovascular Test Name
    :notation: CVEXAM
    :status:
    - :status: :created
    - :status: :updated
    - :status: :updated
    - :status: :no_change
    - :status: :no_change
    - :status: :no_change
    - :status: :no_change
    - :status: :no_change
    :last_id: aHR0cDovL3d3dy5jZGlzYy5vcmcvQzEwMTg0Mi9WMzIjQzEwMTg0Mg==
  :C101826:
    :key: C101826
    :id: aHR0cDovL3d3dy5jZGlzYy5vcmcvQzEwMTgyNi9WMzAjQzEwMTgyNg==
    :identifier: C101826
    :label: Short Form 36 Health Survey Standard, US Version 2.0 Test Name
    :notation: SF36 v2.0 Standard TEST
    :status:
    - :status: :created
    - :status: :no_change
    - :status: :no_change
    - :status: :deleted
    - *1
    - *1
    - *1
    - *1
    :last_id: ''
  :C101821:
    :key: C101821
    :id: aHR0cDovL3d3dy5jZGlzYy5vcmcvQzEwMTgyMS9WMzAjQzEwMTgyMQ==
    :identifier: C101821
    :label: Hamilton Depression Rating Scale 21-Item Test Name
    :notation: HAMD 21 TEST
    :status:
    - :status: :created
    - :status: :no_change
    - :status: :no_change
    - :status: :updated
    - :status: :no_change
    - :status: :no_change
    - :status: :updated
    - :status: :no_change
    :last_id: aHR0cDovL3d3dy5jZGlzYy5vcmcvQzEwMTgyMS9WMzYjQzEwMTgyMQ==
  :C101839:
    :key: C101839
    :id: aHR0cDovL3d3dy5jZGlzYy5vcmcvQzEwMTgzOS9WMzAjQzEwMTgzOQ==
    :identifier: C101839
    :label: Consensus Cardiac Classification System Test Code
    :notation: CCRCLSCD
    :status:
    - :status: :created
    - :status: :no_change
    - :status: :updated
    - :status: :no_change
    - :status: :no_change
    - :status: :no_change
    - :status: :updated
    - :status: :no_change
    :last_id: aHR0cDovL3d3dy5jZGlzYy5vcmcvQzEwMTgzOS9WMzYjQzEwMTgzOQ==
  :C101816:
    :key: C101816
    :id: aHR0cDovL3d3dy5jZGlzYy5vcmcvQzEwMTgxNi9WMzAjQzEwMTgxNg==
    :identifier: C101816
    :label: Eastern Cooperative Oncology Group Performance Status Test Code
    :notation: ECOG TESTCD
    :status:
    - :status: :created
    - :status: :no_change
    - :status: :no_change
    - :status: :no_change
    - :status: :no_change
    - :status: :no_change
    - :status: :updated
    - :status: :no_change
    :last_id: aHR0cDovL3d3dy5jZGlzYy5vcmcvQzEwMTgxNi9WMzYjQzEwMTgxNg==
  :C101863:
    :key: C101863
    :id: aHR0cDovL3d3dy5jZGlzYy5vcmcvQzEwMTg2My9WMzAjQzEwMTg2Mw==
    :identifier: C101863
    :label: Procedure
    :notation: PROCEDUR
    :status:
    - :status: :created
    - :status: :no_change
    - :status: :updated
    - :status: :no_change
    - :status: :no_change
    - :status: :no_change
    - :status: :no_change
    - :status: :no_change
    :last_id: aHR0cDovL3d3dy5jZGlzYy5vcmcvQzEwMTg2My9WMzIjQzEwMTg2Mw==
  :C101834:
    :key: C101834
    :id: aHR0cDovL3d3dy5jZGlzYy5vcmcvQzEwMTgzNC9WMzAjQzEwMTgzNA==
    :identifier: C101834
    :label: Coronary Artery Disease Presentation
    :notation: CADPRSN
    :status:
    - :status: :created
    - :status: :no_change
    - :status: :updated
    - :status: :no_change
    - :status: :no_change
    - :status: :updated
    - :status: :no_change
    - :status: :no_change
    :last_id: aHR0cDovL3d3dy5jZGlzYy5vcmcvQzEwMTgzNC9WMzUjQzEwMTgzNA==
  :C101812:
    :key: C101812
    :id: aHR0cDovL3d3dy5jZGlzYy5vcmcvQzEwMTgxMi9WMzAjQzEwMTgxMg==
    :identifier: C101812
    :label: Clinical Dementia Rating Test Code
    :notation: CDR TESTCD
    :status:
    - :status: :created
    - :status: :no_change
    - :status: :no_change
    - :status: :no_change
    - :status: :no_change
    - :status: :no_change
    - :status: :updated
    - :status: :updated
    :last_id: aHR0cDovL3d3dy5jZGlzYy5vcmcvQzEwMTgxMi9WMzcjQzEwMTgxMg==
  :C101859:
    :key: C101859
    :id: aHR0cDovL3d3dy5jZGlzYy5vcmcvQzEwMTg1OS9WMzAjQzEwMTg1OQ==
    :identifier: C101859
    :label: Mechanical Circulatory Support Placement Timing
    :notation: MCRCSPTM
    :status:
    - :status: :created
    - :status: :no_change
    - :status: :updated
    - :status: :no_change
    - :status: :no_change
    - :status: :updated
    - :status: :updated
    - :status: :no_change
    :last_id: aHR0cDovL3d3dy5jZGlzYy5vcmcvQzEwMTg1OS9WMzYjQzEwMTg1OQ==
  :C101805:
    :key: C101805
    :id: aHR0cDovL3d3dy5jZGlzYy5vcmcvQzEwMTgwNS9WMzAjQzEwMTgwNQ==
    :identifier: C101805
    :label: Abnormal Involuntary Movement Scale Test Name
    :notation: AIMS TEST
    :status:
    - :status: :created
    - :status: :no_change
    - :status: :no_change
    - :status: :no_change
    - :status: :no_change
    - :status: :no_change
    - :status: :updated
    - :status: :no_change
    :last_id: aHR0cDovL3d3dy5jZGlzYy5vcmcvQzEwMTgwNS9WMzYjQzEwMTgwNQ==
  :C101854:
    :key: C101854
    :id: aHR0cDovL3d3dy5jZGlzYy5vcmcvQzEwMTg1NC9WMzAjQzEwMTg1NA==
    :identifier: C101854
    :label: Killip Class Responses
    :notation: KILLIPC
    :status:
    - :status: :created
    - :status: :no_change
    - :status: :updated
    - :status: :no_change
    - :status: :no_change
    - :status: :no_change
    - :status: :no_change
    - :status: :no_change
    :last_id: aHR0cDovL3d3dy5jZGlzYy5vcmcvQzEwMTg1NC9WMzIjQzEwMTg1NA==
  :C101846:
    :key: C101846
    :id: aHR0cDovL3d3dy5jZGlzYy5vcmcvQzEwMTg0Ni9WMzAjQzEwMTg0Ng==
    :identifier: C101846
    :label: Cardiac Procedure Indication
    :notation: CVPRCIND
    :status:
    - :status: :created
    - :status: :no_change
    - :status: :updated
    - :status: :no_change
    - :status: :no_change
    - :status: :no_change
    - :status: :updated
    - :status: :no_change
    :last_id: aHR0cDovL3d3dy5jZGlzYy5vcmcvQzEwMTg0Ni9WMzYjQzEwMTg0Ng==
  :C101829:
    :key: C101829
    :id: aHR0cDovL3d3dy5jZGlzYy5vcmcvQzEwMTgyOS9WMzAjQzEwMTgyOQ==
    :identifier: C101829
    :label: Subjective Opiate Withdrawal Scale Test Code
    :notation: SOWS Subjective TESTCD
    :status:
    - :status: :created
    - :status: :no_change
    - :status: :updated
    - :status: :no_change
    - :status: :no_change
    - :status: :no_change
    - :status: :updated
    - :status: :no_change
    :last_id: aHR0cDovL3d3dy5jZGlzYy5vcmcvQzEwMTgyOS9WMzYjQzEwMTgyOQ==
  :C101824:
    :key: C101824
    :id: aHR0cDovL3d3dy5jZGlzYy5vcmcvQzEwMTgyNC9WMzAjQzEwMTgyNA==
    :identifier: C101824
    :label: Short Form 36 Health Survey Acute, US Version 1.0 Test Code
    :notation: SF36 v1.0 Acute TESTCD
    :status:
    - :status: :created
    - :status: :no_change
    - :status: :no_change
    - :status: :deleted
    - *1
    - *1
    - *1
    - *1
    :last_id: ''
  :C101841:
    :key: C101841
    :id: aHR0cDovL3d3dy5jZGlzYy5vcmcvQzEwMTg0MS9WMzAjQzEwMTg0MQ==
    :identifier: C101841
    :label: Reason CS/LV Lead Not Implanted
    :notation: CSLVLNIM
    :status:
    - :status: :created
    - :status: :no_change
    - :status: :updated
    - :status: :no_change
    - :status: :no_change
    - :status: :no_change
    - :status: :no_change
    - :status: :no_change
    :last_id: aHR0cDovL3d3dy5jZGlzYy5vcmcvQzEwMTg0MS9WMzIjQzEwMTg0MQ==
  :C101825:
    :key: C101825
    :id: aHR0cDovL3d3dy5jZGlzYy5vcmcvQzEwMTgyNS9WMzAjQzEwMTgyNQ==
    :identifier: C101825
    :label: Short Form 36 Health Survey Acute, US Version 2.0 Test Name
    :notation: SF36 v2.0 Acute TEST
    :status:
    - :status: :created
    - :status: :no_change
    - :status: :no_change
    - :status: :deleted
    - *1
    - *1
    - *1
    - *1
    :last_id: ''
  :C101819:
    :key: C101819
    :id: aHR0cDovL3d3dy5jZGlzYy5vcmcvQzEwMTgxOS9WMzAjQzEwMTgxOQ==
    :identifier: C101819
    :label: Hamilton Anxiety Rating Scale Test Name
    :notation: HAMA TEST
    :status:
    - :status: :created
    - :status: :no_change
    - :status: :no_change
    - :status: :no_change
    - :status: :no_change
    - :status: :no_change
    - :status: :updated
    - :status: :no_change
    :last_id: aHR0cDovL3d3dy5jZGlzYy5vcmcvQzEwMTgxOS9WMzYjQzEwMTgxOQ==
  :C101866:
    :key: C101866
    :id: aHR0cDovL3d3dy5jZGlzYy5vcmcvQzEwMTg2Ni9WMzAjQzEwMTg2Ng==
    :identifier: C101866
    :label: Sudden Death Syndrome Type
    :notation: SDTHSDTP
    :status:
    - :status: :created
    - :status: :no_change
    - :status: :updated
    - :status: :no_change
    - :status: :no_change
    - :status: :no_change
    - :status: :no_change
    - :status: :no_change
    :last_id: aHR0cDovL3d3dy5jZGlzYy5vcmcvQzEwMTg2Ni9WMzIjQzEwMTg2Ng==
  :C101861:
    :key: C101861
    :id: aHR0cDovL3d3dy5jZGlzYy5vcmcvQzEwMTg2MS9WMzAjQzEwMTg2MQ==
    :identifier: C101861
    :label: Non-system Reason for PCI Delay
    :notation: NSYSPCID
    :status:
    - :status: :created
    - :status: :no_change
    - :status: :updated
    - :status: :no_change
    - :status: :no_change
    - :status: :no_change
    - :status: :no_change
    - :status: :no_change
    :last_id: aHR0cDovL3d3dy5jZGlzYy5vcmcvQzEwMTg2MS9WMzIjQzEwMTg2MQ==
  :C101837:
    :key: C101837
    :id: aHR0cDovL3d3dy5jZGlzYy5vcmcvQzEwMTgzNy9WMzAjQzEwMTgzNw==
    :identifier: C101837
    :label: Coronary Artery Dominance
    :notation: CARTDOM
    :status:
    - :status: :created
    - :status: :no_change
    - :status: :updated
    - :status: :no_change
    - :status: :no_change
    - :status: :no_change
    - :status: :updated
    - :status: :no_change
    :last_id: aHR0cDovL3d3dy5jZGlzYy5vcmcvQzEwMTgzNy9WMzYjQzEwMTgzNw==
  :C101832:
    :key: C101832
    :id: aHR0cDovL3d3dy5jZGlzYy5vcmcvQzEwMTgzMi9WMzAjQzEwMTgzMg==
    :identifier: C101832
    :label: Acute Coronary Syndrome Presentation Category
    :notation: ACSPCAT
    :status:
    - :status: :created
    - :status: :no_change
    - :status: :updated
    - :status: :no_change
    - :status: :no_change
    - :status: :no_change
    - :status: :no_change
    - :status: :no_change
    :last_id: aHR0cDovL3d3dy5jZGlzYy5vcmcvQzEwMTgzMi9WMzIjQzEwMTgzMg==
  :C101810:
    :key: C101810
    :id: aHR0cDovL3d3dy5jZGlzYy5vcmcvQzEwMTgxMC9WMzAjQzEwMTgxMA==
    :identifier: C101810
    :label: Barnes Akathisia Rating Scale Test Code
    :notation: BARS TESTCD
    :status:
    - :status: :created
    - :status: :no_change
    - :status: :no_change
    - :status: :no_change
    - :status: :no_change
    - :status: :no_change
    - :status: :updated
    - :status: :no_change
    :last_id: aHR0cDovL3d3dy5jZGlzYy5vcmcvQzEwMTgxMC9WMzYjQzEwMTgxMA==
  :C101857:
    :key: C101857
    :id: aHR0cDovL3d3dy5jZGlzYy5vcmcvQzEwMTg1Ny9WMzAjQzEwMTg1Nw==
    :identifier: C101857
    :label: Lesion Complexity
    :notation: LSNCMPX
    :status:
    - :status: :created
    - :status: :no_change
    - :status: :updated
    - :status: :no_change
    - :status: :no_change
    - :status: :no_change
    - :status: :no_change
    - :status: :updated
    :last_id: aHR0cDovL3d3dy5jZGlzYy5vcmcvQzEwMTg1Ny9WMzcjQzEwMTg1Nw==
  :C101807:
    :key: C101807
    :id: aHR0cDovL3d3dy5jZGlzYy5vcmcvQzEwMTgwNy9WMzAjQzEwMTgwNw==
    :identifier: C101807
    :label: ADNI AVLT Test Name
    :notation: AVLT TEST
    :status:
    - :status: :created
    - :status: :no_change
    - :status: :no_change
    - :status: :no_change
    - :status: :no_change
    - :status: :no_change
    - :status: :updated
    - :status: :no_change
    :last_id: aHR0cDovL3d3dy5jZGlzYy5vcmcvQzEwMTgwNy9WMzYjQzEwMTgwNw==
  :C101849:
    :key: C101849
    :id: aHR0cDovL3d3dy5jZGlzYy5vcmcvQzEwMTg0OS9WMzAjQzEwMTg0OQ==
    :identifier: C101849
    :label: Discharge Disposition
    :notation: DISCHDX
    :status:
    - :status: :created
    - :status: :no_change
    - :status: :updated
    - :status: :no_change
    - :status: :no_change
    - :status: :no_change
    - :status: :no_change
    - :status: :no_change
    :last_id: aHR0cDovL3d3dy5jZGlzYy5vcmcvQzEwMTg0OS9WMzIjQzEwMTg0OQ==
  :C101830:
    :key: C101830
    :id: aHR0cDovL3d3dy5jZGlzYy5vcmcvQzEwMTgzMC9WMzAjQzEwMTgzMA==
    :identifier: C101830
    :label: Young Mania Rating Scale Test Name
    :notation: YMRS TEST
    :status:
    - :status: :created
    - :status: :no_change
    - :status: :no_change
    - :status: :no_change
    - :status: :no_change
    - :status: :no_change
    - :status: :updated
    - :status: :no_change
    :last_id: aHR0cDovL3d3dy5jZGlzYy5vcmcvQzEwMTgzMC9WMzYjQzEwMTgzMA==
  :C101844:
    :key: C101844
    :id: aHR0cDovL3d3dy5jZGlzYy5vcmcvQzEwMTg0NC9WMzAjQzEwMTg0NA==
    :identifier: C101844
    :label: Cardiac Valvular Stenosis Severity
    :notation: CVLSTSEV
    :status:
    - :status: :created
    - :status: :no_change
    - :status: :updated
    - :status: :no_change
    - :status: :no_change
    - :status: :no_change
    - :status: :no_change
    - :status: :no_change
    :last_id: aHR0cDovL3d3dy5jZGlzYy5vcmcvQzEwMTg0NC9WMzIjQzEwMTg0NA==
  :C101827:
    :key: C101827
    :id: aHR0cDovL3d3dy5jZGlzYy5vcmcvQzEwMTgyNy9WMzAjQzEwMTgyNw==
    :identifier: C101827
    :label: Short Form 36 Health Survey Standard, US Version 2.0 Test Code
    :notation: SF36 v2.0 Standard TESTCD
    :status:
    - :status: :created
    - :status: :no_change
    - :status: :no_change
    - :status: :deleted
    - *1
    - *1
    - *1
    - *1
    :last_id: ''
  :C101822:
    :key: C101822
    :id: aHR0cDovL3d3dy5jZGlzYy5vcmcvQzEwMTgyMi9WMzAjQzEwMTgyMg==
    :identifier: C101822
    :label: Hamilton Depression Rating Scale 21-Item Test Code
    :notation: HAMD 21 TESTCD
    :status:
    - :status: :created
    - :status: :no_change
    - :status: :no_change
    - :status: :updated
    - :status: :no_change
    - :status: :no_change
    - :status: :updated
    - :status: :no_change
    :last_id: aHR0cDovL3d3dy5jZGlzYy5vcmcvQzEwMTgyMi9WMzYjQzEwMTgyMg==
  :C101838:
    :key: C101838
    :id: aHR0cDovL3d3dy5jZGlzYy5vcmcvQzEwMTgzOC9WMzAjQzEwMTgzOA==
    :identifier: C101838
    :label: Consensus Cardiac Classification System Test Name
    :notation: CCRCLS
    :status:
    - :status: :created
    - :status: :no_change
    - :status: :updated
    - :status: :no_change
    - :status: :no_change
    - :status: :no_change
    - :status: :updated
    - :status: :no_change
    :last_id: aHR0cDovL3d3dy5jZGlzYy5vcmcvQzEwMTgzOC9WMzYjQzEwMTgzOA==
  :C101817:
    :key: C101817
    :id: aHR0cDovL3d3dy5jZGlzYy5vcmcvQzEwMTgxNy9WMzAjQzEwMTgxNw==
    :identifier: C101817
    :label: European Quality of Life Five Dimension Five Level Scale Test Name
    :notation: EQ-5D-5L TEST
    :status:
    - :status: :created
    - :status: :no_change
    - :status: :no_change
    - :status: :deleted
    - *1
    - *1
    - *1
    - :status: :created
    :last_id: aHR0cDovL3d3dy5jZGlzYy5vcmcvQzEwMTgxNy9WMzcjQzEwMTgxNw==
  :C101864:
    :key: C101864
    :id: aHR0cDovL3d3dy5jZGlzYy5vcmcvQzEwMTg2NC9WMzAjQzEwMTg2NA==
    :identifier: C101864
    :label: Procedure Urgency Status
    :notation: PRURGNCY
    :status:
    - :status: :created
    - :status: :no_change
    - :status: :updated
    - :status: :no_change
    - :status: :no_change
    - :status: :no_change
    - :status: :no_change
    - :status: :no_change
    :last_id: aHR0cDovL3d3dy5jZGlzYy5vcmcvQzEwMTg2NC9WMzIjQzEwMTg2NA==
  :C101835:
    :key: C101835
    :id: aHR0cDovL3d3dy5jZGlzYy5vcmcvQzEwMTgzNS9WMzAjQzEwMTgzNQ==
    :identifier: C101835
    :label: Coronary Artery Disease Risk
    :notation: CADRISK
    :status:
    - :status: :created
    - :status: :no_change
    - :status: :deleted
    - *1
    - *1
    - *1
    - *1
    - *1
    :last_id: ''
  :C101813:
    :key: C101813
    :id: aHR0cDovL3d3dy5jZGlzYy5vcmcvQzEwMTgxMy9WMzAjQzEwMTgxMw==
    :identifier: C101813
    :label: Clinical Opiate Withdrawal Scale Test Name
    :notation: COWS TEST
    :status:
    - :status: :created
    - :status: :no_change
    - :status: :no_change
    - :status: :no_change
    - :status: :no_change
    - :status: :no_change
    - :status: :updated
    - :status: :no_change
    :last_id: aHR0cDovL3d3dy5jZGlzYy5vcmcvQzEwMTgxMy9WMzYjQzEwMTgxMw==
  :C101860:
    :key: C101860
    :id: aHR0cDovL3d3dy5jZGlzYy5vcmcvQzEwMTg2MC9WMzAjQzEwMTg2MA==
    :identifier: C101860
    :label: Normal Abnormal Response
    :notation: NORMABNM
    :status:
    - :status: :created
    - :status: :no_change
    - :status: :updated
    - :status: :no_change
    - :status: :no_change
    - :status: :no_change
    - :status: :no_change
    - :status: :no_change
    :last_id: aHR0cDovL3d3dy5jZGlzYy5vcmcvQzEwMTg2MC9WMzIjQzEwMTg2MA==
  :C101806:
    :key: C101806
    :id: aHR0cDovL3d3dy5jZGlzYy5vcmcvQzEwMTgwNi9WMzAjQzEwMTgwNg==
    :identifier: C101806
    :label: Abnormal Involuntary Movement Scale Test Code
    :notation: AIMS TESTCD
    :status:
    - :status: :created
    - :status: :no_change
    - :status: :no_change
    - :status: :no_change
    - :status: :no_change
    - :status: :no_change
    - :status: :updated
    - :status: :no_change
    :last_id: aHR0cDovL3d3dy5jZGlzYy5vcmcvQzEwMTgwNi9WMzYjQzEwMTgwNg==
  :C101855:
    :key: C101855
    :id: aHR0cDovL3d3dy5jZGlzYy5vcmcvQzEwMTg1NS9WMzAjQzEwMTg1NQ==
    :identifier: C101855
    :label: Lead Abnormality
    :notation: LEADABN
    :status:
    - :status: :created
    - :status: :no_change
    - :status: :updated
    - :status: :no_change
    - :status: :no_change
    - :status: :no_change
    - :status: :no_change
    - :status: :no_change
    :last_id: aHR0cDovL3d3dy5jZGlzYy5vcmcvQzEwMTg1NS9WMzIjQzEwMTg1NQ==
  :C101847:
    :key: C101847
    :id: aHR0cDovL3d3dy5jZGlzYy5vcmcvQzEwMTg0Ny9WMzAjQzEwMTg0Nw==
    :identifier: C101847
    :label: Coronary Vessel Disease Extent
    :notation: CVSLDEXT
    :status:
    - :status: :created
    - :status: :no_change
    - :status: :updated
    - :status: :no_change
    - :status: :no_change
    - :status: :no_change
    - :status: :updated
    - :status: :no_change
    :last_id: aHR0cDovL3d3dy5jZGlzYy5vcmcvQzEwMTg0Ny9WMzYjQzEwMTg0Nw==
  :C100147:
    :key: C100147
    :id: aHR0cDovL3d3dy5jZGlzYy5vcmcvQzEwMDE0Ny9WMzAjQzEwMDE0Nw==
    :identifier: C100147
    :label: Unified Parkinson's Disease Rating Scale Test Name
    :notation: UPDRS TEST
    :status:
    - :status: :created
    - :status: :no_change
    - :status: :updated
    - :status: :no_change
    - :status: :no_change
    - :status: :updated
    - :status: :no_change
    - :status: :no_change
    :last_id: aHR0cDovL3d3dy5jZGlzYy5vcmcvQzEwMDE0Ny9WMzUjQzEwMDE0Nw==
  :C101843:
    :key: C101843
    :id: aHR0cDovL3d3dy5jZGlzYy5vcmcvQzEwMTg0My9WMzAjQzEwMTg0Mw==
    :identifier: C101843
    :label: Cardiovascular Test Code
    :notation: CVEXAMCD
    :status:
    - :status: :created
    - :status: :updated
    - :status: :updated
    - :status: :no_change
    - :status: :no_change
    - :status: :no_change
    - :status: :updated
    - :status: :no_change
    :last_id: aHR0cDovL3d3dy5jZGlzYy5vcmcvQzEwMTg0My9WMzYjQzEwMTg0Mw==
  :C101884:
    :key: C101884
    :id: aHR0cDovL3d3dy5jZGlzYy5vcmcvQzEwMTg4NC9WMzAjQzEwMTg4NA==
    :identifier: C101884
    :label: Short Form 36 Health Survey Acute, US Version 2.0 Test Code
    :notation: SF36 v2.0 Acute TESTCD
    :status:
    - :status: :created
    - :status: :no_change
    - :status: :no_change
    - :status: :deleted
    - *1
    - *1
    - *1
    - *1
    :last_id: ''
  :C101820:
    :key: C101820
    :id: aHR0cDovL3d3dy5jZGlzYy5vcmcvQzEwMTgyMC9WMzAjQzEwMTgyMA==
    :identifier: C101820
    :label: Hamilton Anxiety Rating Scale Test Code
    :notation: HAMA TESTCD
    :status:
    - :status: :created
    - :status: :no_change
    - :status: :no_change
    - :status: :no_change
    - :status: :no_change
    - :status: :no_change
    - :status: :updated
    - :status: :no_change
    :last_id: aHR0cDovL3d3dy5jZGlzYy5vcmcvQzEwMTgyMC9WMzYjQzEwMTgyMA==
  :C101867:
    :key: C101867
    :id: aHR0cDovL3d3dy5jZGlzYy5vcmcvQzEwMTg2Ny9WMzAjQzEwMTg2Nw==
    :identifier: C101867
    :label: TIMI Flow Responses
    :notation: TIMIFLOW
    :status:
    - :status: :created
    - :status: :no_change
    - :status: :updated
    - :status: :no_change
    - :status: :no_change
    - :status: :no_change
    - :status: :no_change
    - :status: :no_change
    :last_id: aHR0cDovL3d3dy5jZGlzYy5vcmcvQzEwMTg2Ny9WMzIjQzEwMTg2Nw==
  :C101815:
    :key: C101815
    :id: aHR0cDovL3d3dy5jZGlzYy5vcmcvQzEwMTgxNS9WMzAjQzEwMTgxNQ==
    :identifier: C101815
    :label: Eastern Cooperative Oncology Group Performance Status Test Name
    :notation: ECOG TEST
    :status:
    - :status: :created
    - :status: :no_change
    - :status: :no_change
    - :status: :no_change
    - :status: :no_change
    - :status: :no_change
    - :status: :updated
    - :status: :no_change
    :last_id: aHR0cDovL3d3dy5jZGlzYy5vcmcvQzEwMTgxNS9WMzYjQzEwMTgxNQ==
  :C101862:
    :key: C101862
    :id: aHR0cDovL3d3dy5jZGlzYy5vcmcvQzEwMTg2Mi9WMzAjQzEwMTg2Mg==
    :identifier: C101862
    :label: New York Heart Association Class Responses
    :notation: NYHAC
    :status:
    - :status: :created
    - :status: :no_change
    - :status: :updated
    - :status: :no_change
    - :status: :no_change
    - :status: :no_change
    - :status: :no_change
    - :status: :no_change
    :last_id: aHR0cDovL3d3dy5jZGlzYy5vcmcvQzEwMTg2Mi9WMzIjQzEwMTg2Mg==
  :C101833:
    :key: C101833
    :id: aHR0cDovL3d3dy5jZGlzYy5vcmcvQzEwMTgzMy9WMzAjQzEwMTgzMw==
    :identifier: C101833
    :label: Canadian Cardiovascular Society Classification
    :notation: CACRDSC
    :status:
    - :status: :created
    - :status: :no_change
    - :status: :updated
    - :status: :no_change
    - :status: :no_change
    - :status: :no_change
    - :status: :no_change
    - :status: :no_change
    :last_id: aHR0cDovL3d3dy5jZGlzYy5vcmcvQzEwMTgzMy9WMzIjQzEwMTgzMw==
  :C101811:
    :key: C101811
    :id: aHR0cDovL3d3dy5jZGlzYy5vcmcvQzEwMTgxMS9WMzAjQzEwMTgxMQ==
    :identifier: C101811
    :label: Clinical Dementia Rating Test Name
    :notation: CDR TEST
    :status:
    - :status: :created
    - :status: :no_change
    - :status: :no_change
    - :status: :no_change
    - :status: :no_change
    - :status: :no_change
    - :status: :updated
    - :status: :updated
    :last_id: aHR0cDovL3d3dy5jZGlzYy5vcmcvQzEwMTgxMS9WMzcjQzEwMTgxMQ==
  :C101858:
    :key: C101858
    :id: aHR0cDovL3d3dy5jZGlzYy5vcmcvQzEwMTg1OC9WMzAjQzEwMTg1OA==
    :identifier: C101858
    :label: Left Ventricular Ejection Fraction Measurement Result
    :notation: LVEFMRE
    :status:
    - :status: :created
    - :status: :no_change
    - :status: :updated
    - :status: :updated
    - :status: :no_change
    - :status: :updated
    - :status: :updated
    - :status: :no_change
    :last_id: aHR0cDovL3d3dy5jZGlzYy5vcmcvQzEwMTg1OC9WMzYjQzEwMTg1OA==
  :C101808:
    :key: C101808
    :id: aHR0cDovL3d3dy5jZGlzYy5vcmcvQzEwMTgwOC9WMzAjQzEwMTgwOA==
    :identifier: C101808
    :label: ADNI AVLT Test Code
    :notation: AVLT TEST
    :status:
    - :status: :created
    - :status: :updated
    - :status: :no_change
    - :status: :no_change
    - :status: :no_change
    - :status: :no_change
    - :status: :updated
    - :status: :no_change
    :last_id: aHR0cDovL3d3dy5jZGlzYy5vcmcvQzEwMTgwOC9WMzYjQzEwMTgwOA==
  :C101853:
    :key: C101853
    :id: aHR0cDovL3d3dy5jZGlzYy5vcmcvQzEwMTg1My9WMzAjQzEwMTg1Mw==
    :identifier: C101853
    :label: Location of Most Severe Stenosis Within a Graft
    :notation: GRSTNLOC
    :status:
    - :status: :created
    - :status: :no_change
    - :status: :updated
    - :status: :no_change
    - :status: :no_change
    - :status: :no_change
    - :status: :no_change
    - :status: :no_change
    :last_id: aHR0cDovL3d3dy5jZGlzYy5vcmcvQzEwMTg1My9WMzIjQzEwMTg1Mw==
  :C101831:
    :key: C101831
    :id: aHR0cDovL3d3dy5jZGlzYy5vcmcvQzEwMTgzMS9WMzAjQzEwMTgzMQ==
    :identifier: C101831
    :label: Young Mania Rating Scale Test Code
    :notation: YMRS TESTCD
    :status:
    - :status: :created
    - :status: :no_change
    - :status: :no_change
    - :status: :no_change
    - :status: :no_change
    - :status: :no_change
    - :status: :updated
    - :status: :no_change
    :last_id: aHR0cDovL3d3dy5jZGlzYy5vcmcvQzEwMTgzMS9WMzYjQzEwMTgzMQ==
  :C102590:
    :key: C102590
    :id: aHR0cDovL3d3dy5jZGlzYy5vcmcvQzEwMjU5MC9WMzEjQzEwMjU5MA==
    :identifier: C102590
    :label: Vaccination Evidence Source
    :notation: VCNEVD
    :status:
    - *1
    - :status: :created
    - :status: :updated
    - :status: :no_change
    - :status: :no_change
    - :status: :no_change
    - :status: :no_change
    - :status: :no_change
    :last_id: ''
  :C102584:
    :key: C102584
    :id: aHR0cDovL3d3dy5jZGlzYy5vcmcvQzEwMjU4NC9WMzEjQzEwMjU4NA==
    :identifier: C102584
    :label: Reason For Treatment
    :notation: REASTRT
    :status:
    - *1
    - :status: :created
    - :status: :no_change
    - :status: :no_change
    - :status: :no_change
    - :status: :no_change
    - :status: :no_change
    - :status: :no_change
    :last_id: ''
  :C101852:
    :key: C101852
    :id: aHR0cDovL3d3dy5jZGlzYy5vcmcvQzEwMTg1Mi9WMzEjQzEwMTg1Mg==
    :identifier: C101852
    :label: Findings About Test Code
    :notation: FATESTCD
    :status:
    - *1
    - :status: :created
    - :status: :updated
    - :status: :no_change
    - :status: :no_change
    - :status: :no_change
    - :status: :updated
    - :status: :updated
    :last_id: ''
  :C102575:
    :key: C102575
    :id: aHR0cDovL3d3dy5jZGlzYy5vcmcvQzEwMjU3NS9WMzEjQzEwMjU3NQ==
    :identifier: C102575
    :label: Contact Case Investigation Contact Type
    :notation: CCINVCTYP
    :status:
    - *1
    - :status: :created
    - :status: :no_change
    - :status: :no_change
    - :status: :updated
    - :status: :no_change
    - :status: :no_change
    - :status: :no_change
    :last_id: ''
  :C102587:
    :key: C102587
    :id: aHR0cDovL3d3dy5jZGlzYy5vcmcvQzEwMjU4Ny9WMzEjQzEwMjU4Nw==
    :identifier: C102587
    :label: Social Risk Factor
    :notation: RISKSOC
    :status:
    - *1
    - :status: :created
    - :status: :no_change
    - :status: :no_change
    - :status: :no_change
    - :status: :no_change
    - :status: :no_change
    - :status: :no_change
    :last_id: ''
  :C102581:
    :key: C102581
    :id: aHR0cDovL3d3dy5jZGlzYy5vcmcvQzEwMjU4MS9WMzEjQzEwMjU4MQ==
    :identifier: C102581
    :label: Microbial Identification Certainty
    :notation: MCIDCERT
    :status:
    - *1
    - :status: :created
    - :status: :no_change
    - :status: :no_change
    - :status: :no_change
    - :status: :no_change
    - :status: :no_change
    - :status: :no_change
    :last_id: ''
  :C102578:
    :key: C102578
    :id: aHR0cDovL3d3dy5jZGlzYy5vcmcvQzEwMjU3OC9WMzEjQzEwMjU3OA==
    :identifier: C102578
    :label: Disease Outcome
    :notation: DSSOUT
    :status:
    - *1
    - :status: :created
    - :status: :no_change
    - :status: :no_change
    - :status: :no_change
    - :status: :no_change
    - :status: :no_change
    - :status: :no_change
    :last_id: ''
  :C102577:
    :key: C102577
    :id: aHR0cDovL3d3dy5jZGlzYy5vcmcvQzEwMjU3Ny9WMzEjQzEwMjU3Nw==
    :identifier: C102577
    :label: Drug Resistance Status
    :notation: DRSTAT
    :status:
    - *1
    - :status: :created
    - :status: :updated
    - :status: :no_change
    - :status: :no_change
    - :status: :updated
    - :status: :no_change
    - :status: :no_change
    :last_id: ''
  :C102589:
    :key: C102589
    :id: aHR0cDovL3d3dy5jZGlzYy5vcmcvQzEwMjU4OS9WMzEjQzEwMjU4OQ==
    :identifier: C102589
    :label: Treatment Episode
    :notation: TRTEPSD
    :status:
    - *1
    - :status: :created
    - :status: :no_change
    - :status: :no_change
    - :status: :no_change
    - :status: :no_change
    - :status: :no_change
    - :status: :no_change
    :last_id: ''
  :C102582:
    :key: C102582
    :id: aHR0cDovL3d3dy5jZGlzYy5vcmcvQzEwMjU4Mi9WMzEjQzEwMjU4Mg==
    :identifier: C102582
    :label: Priority of Tuberculosis Contact
    :notation: PRITBCON
    :status:
    - *1
    - :status: :created
    - :status: :no_change
    - :status: :no_change
    - :status: :no_change
    - :status: :no_change
    - :status: :no_change
    - :status: :no_change
    :last_id: ''
  :C102579:
    :key: C102579
    :id: aHR0cDovL3d3dy5jZGlzYy5vcmcvQzEwMjU3OS9WMzEjQzEwMjU3OQ==
    :identifier: C102579
    :label: Supporting Evidence for Re-Treatment
    :notation: EVDRETRT
    :status:
    - *1
    - :status: :created
    - :status: :updated
    - :status: :no_change
    - :status: :no_change
    - :status: :no_change
    - :status: :no_change
    - :status: :no_change
    :last_id: ''
  :C102585:
    :key: C102585
    :id: aHR0cDovL3d3dy5jZGlzYy5vcmcvQzEwMjU4NS9WMzEjQzEwMjU4NQ==
    :identifier: C102585
    :label: Treatment Failure Reason
    :notation: REASTRTF
    :status:
    - *1
    - :status: :created
    - :status: :no_change
    - :status: :no_change
    - :status: :no_change
    - :status: :no_change
    - :status: :no_change
    - :status: :no_change
    :last_id: ''
  :C102580:
    :key: C102580
    :id: aHR0cDovL3d3dy5jZGlzYy5vcmcvQzEwMjU4MC9WMzEjQzEwMjU4MA==
    :identifier: C102580
    :label: Laboratory Test Standard Character Result
    :notation: LBSTRESC
    :status:
    - *1
    - :status: :created
    - :status: :no_change
    - :status: :no_change
    - :status: :updated
    - :status: :updated
    - :status: :no_change
    - :status: :no_change
    :last_id: ''
  :C102576:
    :key: C102576
    :id: aHR0cDovL3d3dy5jZGlzYy5vcmcvQzEwMjU3Ni9WMzEjQzEwMjU3Ng==
    :identifier: C102576
    :label: Directly Observed Therapy Location
    :notation: DOBSTLOC
    :status:
    - *1
    - :status: :created
    - :status: :no_change
    - :status: :no_change
    - :status: :no_change
    - :status: :no_change
    - :status: :no_change
    - :status: :no_change
    :last_id: ''
  :C102583:
    :key: C102583
    :id: aHR0cDovL3d3dy5jZGlzYy5vcmcvQzEwMjU4My9WMzEjQzEwMjU4Mw==
    :identifier: C102583
    :label: Reason for Treatment Interruption
    :notation: REASTINT
    :status:
    - *1
    - :status: :created
    - :status: :updated
    - :status: :no_change
    - :status: :no_change
    - :status: :no_change
    - :status: :no_change
    - :status: :no_change
    :last_id: ''
  :C102586:
    :key: C102586
    :id: aHR0cDovL3d3dy5jZGlzYy5vcmcvQzEwMjU4Ni9WMzEjQzEwMjU4Ng==
    :identifier: C102586
    :label: Reason Treatment Not Administered
    :notation: REASTRTNA
    :status:
    - *1
    - :status: :created
    - :status: :no_change
    - :status: :no_change
    - :status: :updated
    - :status: :no_change
    - :status: :no_change
    - :status: :no_change
    :last_id: ''
  :C102588:
    :key: C102588
    :id: aHR0cDovL3d3dy5jZGlzYy5vcmcvQzEwMjU4OC9WMzEjQzEwMjU4OA==
    :identifier: C102588
    :label: Contact Setting
    :notation: SETCON
    :status:
    - *1
    - :status: :created
    - :status: :no_change
    - :status: :no_change
    - :status: :no_change
    - :status: :no_change
    - :status: :no_change
    - :status: :no_change
    :last_id: ''
  :C101851:
    :key: C101851
    :id: aHR0cDovL3d3dy5jZGlzYy5vcmcvQzEwMTg1MS9WMzEjQzEwMTg1MQ==
    :identifier: C101851
    :label: Findings About Test Name
    :notation: FATEST
    :status:
    - *1
    - :status: :created
    - :status: :updated
    - :status: :no_change
    - :status: :no_change
    - :status: :no_change
    - :status: :no_change
    - :status: :no_change
    :last_id: ''
  :C103469:
    :key: C103469
    :id: aHR0cDovL3d3dy5jZGlzYy5vcmcvQzEwMzQ2OS9WMzIjQzEwMzQ2OQ==
    :identifier: C103469
    :label: Hospital Anxiety and Depression Scale Questionnaire Test Code
    :notation: HADS TESTCD
    :status:
    - *1
    - *1
    - :status: :created
    - :status: :no_change
    - :status: :no_change
    - :status: :no_change
    - :status: :no_change
    - :status: :no_change
    :last_id: ''
  :C103329:
    :key: C103329
    :id: aHR0cDovL3d3dy5jZGlzYy5vcmcvQzEwMzMyOS9WMzIjQzEwMzMyOQ==
    :identifier: C103329
    :label: General Observation Class
    :notation: GNRLOBSC
    :status:
    - *1
    - *1
    - :status: :created
    - :status: :no_change
    - :status: :no_change
    - :status: :no_change
    - :status: :no_change
    - :status: :no_change
    :last_id: ''
  :C103486:
    :key: C103486
    :id: aHR0cDovL3d3dy5jZGlzYy5vcmcvQzEwMzQ4Ni9WMzIjQzEwMzQ4Ng==
    :identifier: C103486
    :label: Short Opiate Withdrawal Scale Questionnaire Test Name
    :notation: SOWS Short TEST
    :status:
    - *1
    - *1
    - :status: :created
    - :status: :no_change
    - :status: :no_change
    - :status: :no_change
    - :status: :no_change
    - :status: :no_change
    :last_id: ''
  :C103465:
    :key: C103465
    :id: aHR0cDovL3d3dy5jZGlzYy5vcmcvQzEwMzQ2NS9WMzIjQzEwMzQ2NQ==
    :identifier: C103465
    :label: Revised Fibromyalgia Impact Questionnaire Test Code
    :notation: FIQR TESTCD
    :status:
    - *1
    - *1
    - :status: :created
    - :status: :no_change
    - :status: :no_change
    - :status: :no_change
    - :status: :no_change
    - :status: :no_change
    :last_id: ''
  :C103481:
    :key: C103481
    :id: aHR0cDovL3d3dy5jZGlzYy5vcmcvQzEwMzQ4MS9WMzIjQzEwMzQ4MQ==
    :identifier: C103481
    :label: Patient Health Questionnaire - 9 Item Test Code
    :notation: PHQ-9 TESTCD
    :status:
    - *1
    - *1
    - :status: :created
    - :status: :no_change
    - :status: :no_change
    - :status: :no_change
    - :status: :updated
    - :status: :updated
    :last_id: ''
  :C103460:
    :key: C103460
    :id: aHR0cDovL3d3dy5jZGlzYy5vcmcvQzEwMzQ2MC9WMzIjQzEwMzQ2MA==
    :identifier: C103460
    :label: Columbia-Suicidality Severity Rating Scale Since Last Visit Questionnaire
      Test Name
    :notation: C-SSRS Since Last Visit TEST
    :status:
    - *1
    - *1
    - :status: :created
    - :status: :updated
    - :status: :no_change
    - :status: :updated
    - :status: :no_change
    - :status: :no_change
    :last_id: ''
  :C103477:
    :key: C103477
    :id: aHR0cDovL3d3dy5jZGlzYy5vcmcvQzEwMzQ3Ny9WMzIjQzEwMzQ3Nw==
    :identifier: C103477
    :label: The Overactive Bladder Questionnaire Short Form Test Code
    :notation: OAB-Q Short Form TESTCD
    :status:
    - *1
    - *1
    - :status: :created
    - :status: :no_change
    - :status: :no_change
    - :status: :no_change
    - :status: :no_change
    - :status: :no_change
    :last_id: ''
  :C103472:
    :key: C103472
    :id: aHR0cDovL3d3dy5jZGlzYy5vcmcvQzEwMzQ3Mi9WMzIjQzEwMzQ3Mg==
    :identifier: C103472
    :label: Neuropathic Pain Scale Questionnaire Test Name
    :notation: NPS TEST
    :status:
    - *1
    - *1
    - :status: :created
    - :status: :no_change
    - :status: :no_change
    - :status: :no_change
    - :status: :no_change
    - :status: :no_change
    :last_id: ''
  :C103488:
    :key: C103488
    :id: aHR0cDovL3d3dy5jZGlzYy5vcmcvQzEwMzQ4OC9WMzIjQzEwMzQ4OA==
    :identifier: C103488
    :label: Urgency Perception Scale Questionnaire Test Name
    :notation: UPS TEST
    :status:
    - *1
    - *1
    - :status: :created
    - :status: :no_change
    - :status: :no_change
    - :status: :no_change
    - :status: :no_change
    - :status: :no_change
    :last_id: ''
  :C103484:
    :key: C103484
    :id: aHR0cDovL3d3dy5jZGlzYy5vcmcvQzEwMzQ4NC9WMzIjQzEwMzQ4NA==
    :identifier: C103484
    :label: Symptom Impact Questionnaire Test Name
    :notation: SIQR TEST
    :status:
    - *1
    - *1
    - :status: :created
    - :status: :no_change
    - :status: :no_change
    - :status: :no_change
    - :status: :no_change
    - :status: :no_change
    :last_id: ''
  :C103463:
    :key: C103463
    :id: aHR0cDovL3d3dy5jZGlzYy5vcmcvQzEwMzQ2My9WMzIjQzEwMzQ2Mw==
    :identifier: C103463
    :label: Epworth Sleepiness Scale Questionnaire Test Code
    :notation: ESS TESTCD
    :status:
    - *1
    - *1
    - :status: :created
    - :status: :no_change
    - :status: :no_change
    - :status: :no_change
    - :status: :no_change
    - :status: :no_change
    :last_id: ''
  :C103479:
    :key: C103479
    :id: aHR0cDovL3d3dy5jZGlzYy5vcmcvQzEwMzQ3OS9WMzIjQzEwMzQ3OQ==
    :identifier: C103479
    :label: The Oswestry Disability Index Version 2.1a Questionnaire Test Code
    :notation: ODI v2.1A TESTCD
    :status:
    - *1
    - *1
    - :status: :created
    - :status: :no_change
    - :status: :no_change
    - :status: :no_change
    - :status: :no_change
    - :status: :no_change
    :last_id: ''
  :C103458:
    :key: C103458
    :id: aHR0cDovL3d3dy5jZGlzYy5vcmcvQzEwMzQ1OC9WMzIjQzEwMzQ1OA==
    :identifier: C103458
    :label: Alzheimer's Disease Cooperative Study-Clinical Global Impression of Change
      Questionnaire Test Name
    :notation: ADCS-CGIC TEST
    :status:
    - *1
    - *1
    - :status: :created
    - :status: :no_change
    - :status: :no_change
    - :status: :no_change
    - :status: :no_change
    - :status: :no_change
    :last_id: ''
  :C103475:
    :key: C103475
    :id: aHR0cDovL3d3dy5jZGlzYy5vcmcvQzEwMzQ3NS9WMzIjQzEwMzQ3NQ==
    :identifier: C103475
    :label: The Overactive Bladder Questionnaire Test Code
    :notation: OAB-Q TESTCD
    :status:
    - *1
    - *1
    - :status: :created
    - :status: :no_change
    - :status: :updated
    - :status: :no_change
    - :status: :no_change
    - :status: :no_change
    :last_id: ''
  :C103470:
    :key: C103470
    :id: aHR0cDovL3d3dy5jZGlzYy5vcmcvQzEwMzQ3MC9WMzIjQzEwMzQ3MA==
    :identifier: C103470
    :label: International Index of Erectile Function Questionnaire Test Name
    :notation: IIEF TEST
    :status:
    - *1
    - *1
    - :status: :created
    - :status: :no_change
    - :status: :no_change
    - :status: :no_change
    - :status: :no_change
    - :status: :no_change
    :last_id: ''
  :C103459:
    :key: C103459
    :id: aHR0cDovL3d3dy5jZGlzYy5vcmcvQzEwMzQ1OS9WMzIjQzEwMzQ1OQ==
    :identifier: C103459
    :label: Alzheimer's Disease Cooperative Study-Clinical Global Impression of Change
      Questionnaire Test Code
    :notation: ADCS-CGIC TESTCD
    :status:
    - *1
    - *1
    - :status: :created
    - :status: :no_change
    - :status: :no_change
    - :status: :no_change
    - :status: :no_change
    - :status: :no_change
    :last_id: ''
  :C103487:
    :key: C103487
    :id: aHR0cDovL3d3dy5jZGlzYy5vcmcvQzEwMzQ4Ny9WMzIjQzEwMzQ4Nw==
    :identifier: C103487
    :label: Short Opiate Withdrawal Scale Questionnaire Test Code
    :notation: SOWS Short TESTCD
    :status:
    - *1
    - *1
    - :status: :created
    - :status: :no_change
    - :status: :no_change
    - :status: :no_change
    - :status: :no_change
    - :status: :no_change
    :last_id: ''
  :C103466:
    :key: C103466
    :id: aHR0cDovL3d3dy5jZGlzYy5vcmcvQzEwMzQ2Ni9WMzIjQzEwMzQ2Ng==
    :identifier: C103466
    :label: Generalized Anxiety Disorder - 7 Questionnaire Test Name
    :notation: GAD-7 TEST
    :status:
    - *1
    - *1
    - :status: :created
    - :status: :no_change
    - :status: :no_change
    - :status: :no_change
    - :status: :no_change
    - :status: :updated
    :last_id: ''
  :C103483:
    :key: C103483
    :id: aHR0cDovL3d3dy5jZGlzYy5vcmcvQzEwMzQ4My9WMzIjQzEwMzQ4Mw==
    :identifier: C103483
    :label: Patient Health Questionnaire - 15 Item Test Code
    :notation: PHQ-15 TESTCD
    :status:
    - *1
    - *1
    - :status: :created
    - :status: :no_change
    - :status: :no_change
    - :status: :no_change
    - :status: :no_change
    - :status: :no_change
    :last_id: ''
  :C103462:
    :key: C103462
    :id: aHR0cDovL3d3dy5jZGlzYy5vcmcvQzEwMzQ2Mi9WMzIjQzEwMzQ2Mg==
    :identifier: C103462
    :label: Epworth Sleepiness Scale Questionnaire Test Name
    :notation: ESS TEST
    :status:
    - *1
    - *1
    - :status: :created
    - :status: :no_change
    - :status: :no_change
    - :status: :no_change
    - :status: :no_change
    - :status: :no_change
    :last_id: ''
  :C103489:
    :key: C103489
    :id: aHR0cDovL3d3dy5jZGlzYy5vcmcvQzEwMzQ4OS9WMzIjQzEwMzQ4OQ==
    :identifier: C103489
    :label: Urgency Perception Scale Questionnaire Test Code
    :notation: UPS TESTCD
    :status:
    - *1
    - *1
    - :status: :created
    - :status: :no_change
    - :status: :no_change
    - :status: :no_change
    - :status: :no_change
    - :status: :no_change
    :last_id: ''
  :C103461:
    :key: C103461
    :id: aHR0cDovL3d3dy5jZGlzYy5vcmcvQzEwMzQ2MS9WMzIjQzEwMzQ2MQ==
    :identifier: C103461
    :label: Columbia-Suicidality Severity Rating Scale Since Last Visit Questionnaire
      Test Code
    :notation: C-SSRS Since Last Visit TESTCD
    :status:
    - *1
    - *1
    - :status: :created
    - :status: :updated
    - :status: :no_change
    - :status: :updated
    - :status: :no_change
    - :status: :no_change
    :last_id: ''
  :C103480:
    :key: C103480
    :id: aHR0cDovL3d3dy5jZGlzYy5vcmcvQzEwMzQ4MC9WMzIjQzEwMzQ4MA==
    :identifier: C103480
    :label: Patient Health Questionnaire - 9 Item Test Name
    :notation: PHQ-9 TEST
    :status:
    - *1
    - *1
    - :status: :created
    - :status: :no_change
    - :status: :no_change
    - :status: :no_change
    - :status: :updated
    - :status: :updated
    :last_id: ''
  :C103485:
    :key: C103485
    :id: aHR0cDovL3d3dy5jZGlzYy5vcmcvQzEwMzQ4NS9WMzIjQzEwMzQ4NQ==
    :identifier: C103485
    :label: Symptom Impact Questionnaire Test Code
    :notation: SIQR TESTCD
    :status:
    - *1
    - *1
    - :status: :created
    - :status: :no_change
    - :status: :no_change
    - :status: :no_change
    - :status: :no_change
    - :status: :no_change
    :last_id: ''
  :C103330:
    :key: C103330
    :id: aHR0cDovL3d3dy5jZGlzYy5vcmcvQzEwMzMzMC9WMzIjQzEwMzMzMA==
    :identifier: C103330
    :label: Subject Characteristic Test Name
    :notation: SCTEST
    :status:
    - *1
    - *1
    - :status: :created
    - :status: :no_change
    - :status: :no_change
    - :status: :no_change
    - :status: :updated
    - :status: :updated
    :last_id: ''
  :C103476:
    :key: C103476
    :id: aHR0cDovL3d3dy5jZGlzYy5vcmcvQzEwMzQ3Ni9WMzIjQzEwMzQ3Ng==
    :identifier: C103476
    :label: The Overactive Bladder Questionnaire Short Form Test Name
    :notation: OAB-Q Short Form TEST
    :status:
    - *1
    - *1
    - :status: :created
    - :status: :no_change
    - :status: :no_change
    - :status: :no_change
    - :status: :no_change
    - :status: :no_change
    :last_id: ''
  :C103482:
    :key: C103482
    :id: aHR0cDovL3d3dy5jZGlzYy5vcmcvQzEwMzQ4Mi9WMzIjQzEwMzQ4Mg==
    :identifier: C103482
    :label: Patient Health Questionnaire - 15 Item Test Name
    :notation: PHQ-15 TEST
    :status:
    - *1
    - *1
    - :status: :created
    - :status: :no_change
    - :status: :no_change
    - :status: :no_change
    - :status: :no_change
    - :status: :no_change
    :last_id: ''
  :C101868:
    :key: C101868
    :id: aHR0cDovL3d3dy5jZGlzYy5vcmcvQzEwMTg2OC9WMzIjQzEwMTg2OA==
    :identifier: C101868
    :label: Left Ventricular Ejection Fraction Measurement Result
    :notation: LVEFMRE
    :status:
    - *1
    - *1
    - :status: :created
    - :status: :no_change
    - :status: :no_change
    - :status: :no_change
    - :status: :no_change
    - :status: :no_change
    :last_id: ''
  :C103478:
    :key: C103478
    :id: aHR0cDovL3d3dy5jZGlzYy5vcmcvQzEwMzQ3OC9WMzIjQzEwMzQ3OA==
    :identifier: C103478
    :label: The Oswestry Disability Index Version 2.1a Questionnaire Test Name
    :notation: ODI v2.1A TEST
    :status:
    - *1
    - *1
    - :status: :created
    - :status: :no_change
    - :status: :no_change
    - :status: :no_change
    - :status: :no_change
    - :status: :no_change
    :last_id: ''
  :C103468:
    :key: C103468
    :id: aHR0cDovL3d3dy5jZGlzYy5vcmcvQzEwMzQ2OC9WMzIjQzEwMzQ2OA==
    :identifier: C103468
    :label: Hospital Anxiety and Depression Scale Questionnaire Test Name
    :notation: HADS TEST
    :status:
    - *1
    - *1
    - :status: :created
    - :status: :no_change
    - :status: :no_change
    - :status: :no_change
    - :status: :no_change
    - :status: :no_change
    :last_id: ''
  :C103474:
    :key: C103474
    :id: aHR0cDovL3d3dy5jZGlzYy5vcmcvQzEwMzQ3NC9WMzIjQzEwMzQ3NA==
    :identifier: C103474
    :label: The Overactive Bladder Questionnaire Test Name
    :notation: OAB-Q TEST
    :status:
    - *1
    - *1
    - :status: :created
    - :status: :no_change
    - :status: :updated
    - :status: :no_change
    - :status: :no_change
    - :status: :no_change
    :last_id: ''
  :C101850:
    :key: C101850
    :id: aHR0cDovL3d3dy5jZGlzYy5vcmcvQzEwMTg1MC9WMzIjQzEwMTg1MA==
    :identifier: C101850
    :label: Coronary Vessel Disease Extent
    :notation: CVSLDEXT
    :status:
    - *1
    - *1
    - :status: :created
    - :status: :no_change
    - :status: :no_change
    - :status: :updated
    - :status: :no_change
    - :status: :no_change
    :last_id: ''
  :C103471:
    :key: C103471
    :id: aHR0cDovL3d3dy5jZGlzYy5vcmcvQzEwMzQ3MS9WMzIjQzEwMzQ3MQ==
    :identifier: C103471
    :label: International Index of Erectile Function Questionnaire Test Code
    :notation: IIEF TESTCD
    :status:
    - *1
    - *1
    - :status: :created
    - :status: :no_change
    - :status: :no_change
    - :status: :no_change
    - :status: :no_change
    - :status: :no_change
    :last_id: ''
  :C103467:
    :key: C103467
    :id: aHR0cDovL3d3dy5jZGlzYy5vcmcvQzEwMzQ2Ny9WMzIjQzEwMzQ2Nw==
    :identifier: C103467
    :label: Generalized Anxiety Disorder - 7 Questionnaire Test Code
    :notation: GAD-7 TESTCD
    :status:
    - *1
    - *1
    - :status: :created
    - :status: :no_change
    - :status: :no_change
    - :status: :no_change
    - :status: :no_change
    - :status: :updated
    :last_id: ''
  :C103473:
    :key: C103473
    :id: aHR0cDovL3d3dy5jZGlzYy5vcmcvQzEwMzQ3My9WMzIjQzEwMzQ3Mw==
    :identifier: C103473
    :label: Neuropathic Pain Scale Questionnaire Test Code
    :notation: NPS TESTCD
    :status:
    - *1
    - *1
    - :status: :created
    - :status: :no_change
    - :status: :no_change
    - :status: :no_change
    - :status: :no_change
    - :status: :no_change
    :last_id: ''
  :C103464:
    :key: C103464
    :id: aHR0cDovL3d3dy5jZGlzYy5vcmcvQzEwMzQ2NC9WMzIjQzEwMzQ2NA==
    :identifier: C103464
    :label: Revised Fibromyalgia Impact Questionnaire Test Name
    :notation: FIQR TEST
    :status:
    - *1
    - *1
    - :status: :created
    - :status: :no_change
    - :status: :no_change
    - :status: :no_change
    - :status: :no_change
    - :status: :no_change
    :last_id: ''
  :C105129:
    :key: C105129
    :id: aHR0cDovL3d3dy5jZGlzYy5vcmcvQzEwNTEyOS9WMzMjQzEwNTEyOQ==
    :identifier: C105129
    :label: Disability Assessment for Dementia Questionnaire Test Name
    :notation: DAD TEST
    :status:
    - *1
    - *1
    - *1
    - :status: :created
    - :status: :no_change
    - :status: :updated
    - :status: :no_change
    - :status: :no_change
    :last_id: ''
  :C105135:
    :key: C105135
    :id: aHR0cDovL3d3dy5jZGlzYy5vcmcvQzEwNTEzNS9WMzMjQzEwNTEzNQ==
    :identifier: C105135
    :label: Pain Relief Questionnaire Test Name
    :notation: PR TEST
    :status:
    - *1
    - *1
    - *1
    - :status: :created
    - :status: :no_change
    - :status: :no_change
    - :status: :no_change
    - :status: :no_change
    :last_id: ''
  :C105132:
    :key: C105132
    :id: aHR0cDovL3d3dy5jZGlzYy5vcmcvQzEwNTEzMi9WMzMjQzEwNTEzMg==
    :identifier: C105132
    :label: Columbia-Suicidality Severity Rating Scale Baseline/Screening Version
      Phase 1 Study Questionnaire Test Code
    :notation: C-SSRS BASELINE/SCREENING VERSION PHASE 1 STUDY TESTCD
    :status:
    - *1
    - *1
    - *1
    - :status: :created
    - :status: :updated
    - :status: :updated
    - :status: :no_change
    - :status: :no_change
    :last_id: ''
  :C105134:
    :key: C105134
    :id: aHR0cDovL3d3dy5jZGlzYy5vcmcvQzEwNTEzNC9WMzMjQzEwNTEzNA==
    :identifier: C105134
    :label: Pain Intensity Questionnaire Test Code
    :notation: PI TESTCD
    :status:
    - *1
    - *1
    - *1
    - :status: :created
    - :status: :no_change
    - :status: :no_change
    - :status: :no_change
    - :status: :no_change
    :last_id: ''
  :C105138:
    :key: C105138
    :id: aHR0cDovL3d3dy5jZGlzYy5vcmcvQzEwNTEzOC9WMzMjQzEwNTEzOA==
    :identifier: C105138
    :label: General Clinical Global Impressions Questionnaire Test Code
    :notation: GCGI TESTCD
    :status:
    - *1
    - *1
    - *1
    - :status: :created
    - :status: :no_change
    - :status: :no_change
    - :status: :no_change
    - :status: :no_change
    :last_id: ''
  :C105133:
    :key: C105133
    :id: aHR0cDovL3d3dy5jZGlzYy5vcmcvQzEwNTEzMy9WMzMjQzEwNTEzMw==
    :identifier: C105133
    :label: Pain Intensity Questionnaire Test Name
    :notation: PI TEST
    :status:
    - *1
    - *1
    - *1
    - :status: :created
    - :status: :no_change
    - :status: :no_change
    - :status: :no_change
    - :status: :no_change
    :last_id: ''
  :C105130:
    :key: C105130
    :id: aHR0cDovL3d3dy5jZGlzYy5vcmcvQzEwNTEzMC9WMzMjQzEwNTEzMA==
    :identifier: C105130
    :label: Disability Assessment for Dementia Questionnaire Test Code
    :notation: DAD TESTCD
    :status:
    - *1
    - *1
    - *1
    - :status: :created
    - :status: :no_change
    - :status: :updated
    - :status: :no_change
    - :status: :no_change
    :last_id: ''
  :C105140:
    :key: C105140
    :id: aHR0cDovL3d3dy5jZGlzYy5vcmcvQzEwNTE0MC9WMzMjQzEwNTE0MA==
    :identifier: C105140
    :label: Alzheimer's Disease Cooperative Study-Activities of Daily Living Inventory,
      Standard Version Questionnaire Test Code
    :notation: ADCS-ADL STANDARD TESTCD
    :status:
    - *1
    - *1
    - *1
    - :status: :created
    - :status: :updated
    - :status: :no_change
    - :status: :no_change
    - :status: :no_change
    :last_id: ''
  :C105137:
    :key: C105137
    :id: aHR0cDovL3d3dy5jZGlzYy5vcmcvQzEwNTEzNy9WMzMjQzEwNTEzNw==
    :identifier: C105137
    :label: General Clinical Global Impressions Questionnaire Test Name
    :notation: GCGI TEST
    :status:
    - *1
    - *1
    - *1
    - :status: :created
    - :status: :no_change
    - :status: :no_change
    - :status: :no_change
    - :status: :no_change
    :last_id: ''
  :C105139:
    :key: C105139
    :id: aHR0cDovL3d3dy5jZGlzYy5vcmcvQzEwNTEzOS9WMzMjQzEwNTEzOQ==
    :identifier: C105139
    :label: Alzheimer's Disease Cooperative Study-Activities of Daily Living Inventory,
      Standard Version Questionnaire Test Name
    :notation: ADCS-ADL STANDARD TEST
    :status:
    - *1
    - *1
    - *1
    - :status: :created
    - :status: :updated
    - :status: :no_change
    - :status: :no_change
    - :status: :no_change
    :last_id: ''
  :C105136:
    :key: C105136
    :id: aHR0cDovL3d3dy5jZGlzYy5vcmcvQzEwNTEzNi9WMzMjQzEwNTEzNg==
    :identifier: C105136
    :label: Pain Relief Questionnaire Test Code
    :notation: PR TESTCD
    :status:
    - *1
    - *1
    - *1
    - :status: :created
    - :status: :no_change
    - :status: :no_change
    - :status: :no_change
    - :status: :no_change
    :last_id: ''
  :C105131:
    :key: C105131
    :id: aHR0cDovL3d3dy5jZGlzYy5vcmcvQzEwNTEzMS9WMzMjQzEwNTEzMQ==
    :identifier: C105131
    :label: Columbia-Suicidality Severity Rating Scale Baseline/Screening Version
      Phase 1 Study Questionnaire Test Name
    :notation: C-SSRS BASELINE/SCREENING VERSION PHASE 1 STUDY TEST
    :status:
    - *1
    - *1
    - *1
    - :status: :created
    - :status: :updated
    - :status: :updated
    - :status: :no_change
    - :status: :no_change
    :last_id: ''
  :C106660:
    :key: C106660
    :id: aHR0cDovL3d3dy5jZGlzYy5vcmcvQzEwNjY2MC9WMzQjQzEwNjY2MA==
    :identifier: C106660
    :label: Columbia-Suicide Severity Rating Scale Baseline/Screening Version Questionnaire
      Test Name
    :notation: C-SSRS Baseline/Screening Version TEST
    :status:
    - *1
    - *1
    - *1
    - *1
    - :status: :created
    - :status: :updated
    - :status: :no_change
    - :status: :no_change
    :last_id: ''
  :C106655:
    :key: C106655
    :id: aHR0cDovL3d3dy5jZGlzYy5vcmcvQzEwNjY1NS9WMzQjQzEwNjY1NQ==
    :identifier: C106655
    :label: Baseline Dyspnea Index Questionnaire Test Code
    :notation: BDI TESTCD
    :status:
    - *1
    - *1
    - *1
    - *1
    - :status: :created
    - :status: :no_change
    - :status: :updated
    - :status: :no_change
    :last_id: ''
  :C106651:
    :key: C106651
    :id: aHR0cDovL3d3dy5jZGlzYy5vcmcvQzEwNjY1MS9WMzQjQzEwNjY1MQ==
    :identifier: C106651
    :label: Alzheimer's Disease Cooperative Study-Activities of Daily Living Inventory
      MCI Version Questionnaire Test Code
    :notation: ADCS-ADL MCI TESTCD
    :status:
    - *1
    - *1
    - *1
    - *1
    - :status: :created
    - :status: :no_change
    - :status: :no_change
    - :status: :no_change
    :last_id: ''
  :C106667:
    :key: C106667
    :id: aHR0cDovL3d3dy5jZGlzYy5vcmcvQzEwNjY2Ny9WMzQjQzEwNjY2Nw==
    :identifier: C106667
    :label: Health Assessment Questionnaire Disability Index Test Code
    :notation: HAQ-DI TESTCD
    :status:
    - *1
    - *1
    - *1
    - *1
    - :status: :created
    - :status: :no_change
    - :status: :no_change
    - :status: :no_change
    :last_id: ''
  :C106663:
    :key: C106663
    :id: aHR0cDovL3d3dy5jZGlzYy5vcmcvQzEwNjY2My9WMzQjQzEwNjY2Mw==
    :identifier: C106663
    :label: Geriatric Depression Scale Questionnaire Test Code
    :notation: GDS TESTCD
    :status:
    - *1
    - *1
    - *1
    - *1
    - :status: :created
    - :status: :no_change
    - :status: :no_change
    - :status: :no_change
    :last_id: ''
  :C106658:
    :key: C106658
    :id: aHR0cDovL3d3dy5jZGlzYy5vcmcvQzEwNjY1OC9WMzQjQzEwNjY1OA==
    :identifier: C106658
    :label: Columbia-Suicide Severity Rating Scale Already Enrolled Subjects Questionnaire
      Test Name
    :notation: C-SSRS Already Enrolled Subjects TEST
    :status:
    - *1
    - *1
    - *1
    - *1
    - :status: :created
    - :status: :updated
    - :status: :no_change
    - :status: :no_change
    :last_id: ''
  :C106654:
    :key: C106654
    :id: aHR0cDovL3d3dy5jZGlzYy5vcmcvQzEwNjY1NC9WMzQjQzEwNjY1NA==
    :identifier: C106654
    :label: Baseline Dyspnea Index Questionnaire Test Name
    :notation: BDI TEST
    :status:
    - *1
    - *1
    - *1
    - *1
    - :status: :created
    - :status: :no_change
    - :status: :no_change
    - :status: :no_change
    :last_id: ''
  :C106670:
    :key: C106670
    :id: aHR0cDovL3d3dy5jZGlzYy5vcmcvQzEwNjY3MC9WMzQjQzEwNjY3MA==
    :identifier: C106670
    :label: St. George's Respiratory Questionnaire for COPD Patients Test Name
    :notation: SGRQ-C TEST
    :status:
    - *1
    - *1
    - *1
    - *1
    - :status: :created
    - :status: :no_change
    - :status: :updated
    - :status: :no_change
    :last_id: ''
  :C106482:
    :key: C106482
    :id: aHR0cDovL3d3dy5jZGlzYy5vcmcvQzEwNjQ4Mi9WMzQjQzEwNjQ4Mg==
    :identifier: C106482
    :label: Device-In-Use Test Name
    :notation: DUTEST
    :status:
    - *1
    - *1
    - *1
    - *1
    - :status: :created
    - :status: :updated
    - :status: :updated
    - :status: :updated
    :last_id: ''
  :C106665:
    :key: C106665
    :id: aHR0cDovL3d3dy5jZGlzYy5vcmcvQzEwNjY2NS9WMzQjQzEwNjY2NQ==
    :identifier: C106665
    :label: Geriatric Depression Scale Short Form Questionnaire Test Code
    :notation: GDS SHORT FORM TESTCD
    :status:
    - *1
    - *1
    - *1
    - *1
    - :status: :created
    - :status: :no_change
    - :status: :no_change
    - :status: :no_change
    :last_id: ''
  :C106661:
    :key: C106661
    :id: aHR0cDovL3d3dy5jZGlzYy5vcmcvQzEwNjY2MS9WMzQjQzEwNjY2MQ==
    :identifier: C106661
    :label: Columbia-Suicide Severity Rating Scale Baseline/Screening Version Questionnaire
      Test Code
    :notation: C-SSRS Baseline/Screening Version TESTCD
    :status:
    - *1
    - *1
    - *1
    - *1
    - :status: :created
    - :status: :updated
    - :status: :no_change
    - :status: :no_change
    :last_id: ''
  :C106656:
    :key: C106656
    :id: aHR0cDovL3d3dy5jZGlzYy5vcmcvQzEwNjY1Ni9WMzQjQzEwNjY1Ng==
    :identifier: C106656
    :label: Transition Dyspnea Index Questionnaire Test Name
    :notation: TDI TEST
    :status:
    - *1
    - *1
    - *1
    - *1
    - :status: :created
    - :status: :no_change
    - :status: :no_change
    - :status: :no_change
    :last_id: ''
  :C106478:
    :key: C106478
    :id: aHR0cDovL3d3dy5jZGlzYy5vcmcvQzEwNjQ3OC9WMzQjQzEwNjQ3OA==
    :identifier: C106478
    :label: Reproductive System Findings Test Name
    :notation: RPTEST
    :status:
    - *1
    - *1
    - *1
    - *1
    - :status: :created
    - :status: :no_change
    - :status: :no_change
    - :status: :no_change
    :last_id: ''
  :C106652:
    :key: C106652
    :id: aHR0cDovL3d3dy5jZGlzYy5vcmcvQzEwNjY1Mi9WMzQjQzEwNjY1Mg==
    :identifier: C106652
    :label: Alzheimer's Disease Cooperative Study-Activities of Daily Living Inventory
      Severe Dementia Version Questionnaire Test Name
    :notation: ADCS-ADL Severe Dementia TEST
    :status:
    - *1
    - *1
    - *1
    - *1
    - :status: :created
    - :status: :no_change
    - :status: :no_change
    - :status: :no_change
    :last_id: ''
  :C106668:
    :key: C106668
    :id: aHR0cDovL3d3dy5jZGlzYy5vcmcvQzEwNjY2OC9WMzQjQzEwNjY2OA==
    :identifier: C106668
    :label: Modified Medical Research Council Dyspnea Scale Questionnaire Test Name
    :notation: MMRC TEST
    :status:
    - *1
    - *1
    - *1
    - *1
    - :status: :created
    - :status: :no_change
    - :status: :no_change
    - :status: :no_change
    :last_id: ''
  :C106480:
    :key: C106480
    :id: aHR0cDovL3d3dy5jZGlzYy5vcmcvQzEwNjQ4MC9WMzQjQzEwNjQ4MA==
    :identifier: C106480
    :label: Device Identifier Long Name
    :notation: DIPARM
    :status:
    - *1
    - *1
    - *1
    - *1
    - :status: :created
    - :status: :updated
    - :status: :updated
    - :status: :no_change
    :last_id: ''
  :C106664:
    :key: C106664
    :id: aHR0cDovL3d3dy5jZGlzYy5vcmcvQzEwNjY2NC9WMzQjQzEwNjY2NA==
    :identifier: C106664
    :label: Geriatric Depression Scale Short Form Questionnaire Test Name
    :notation: GDS SHORT FORM TEST
    :status:
    - *1
    - *1
    - *1
    - *1
    - :status: :created
    - :status: :no_change
    - :status: :no_change
    - :status: :no_change
    :last_id: ''
  :C106659:
    :key: C106659
    :id: aHR0cDovL3d3dy5jZGlzYy5vcmcvQzEwNjY1OS9WMzQjQzEwNjY1OQ==
    :identifier: C106659
    :label: Columbia-Suicide Severity Rating Scale Already Enrolled Subjects Questionnaire
      Test Code
    :notation: C-SSRS Already Enrolled Subjects TESTCD
    :status:
    - *1
    - *1
    - *1
    - *1
    - :status: :created
    - :status: :updated
    - :status: :no_change
    - :status: :no_change
    :last_id: ''
  :C106671:
    :key: C106671
    :id: aHR0cDovL3d3dy5jZGlzYy5vcmcvQzEwNjY3MS9WMzQjQzEwNjY3MQ==
    :identifier: C106671
    :label: St. George's Respiratory Questionnaire for COPD Patients Test Code
    :notation: SGRQ-C TESTCD
    :status:
    - *1
    - *1
    - *1
    - *1
    - :status: :created
    - :status: :no_change
    - :status: :updated
    - :status: :no_change
    :last_id: ''
  :C106650:
    :key: C106650
    :id: aHR0cDovL3d3dy5jZGlzYy5vcmcvQzEwNjY1MC9WMzQjQzEwNjY1MA==
    :identifier: C106650
    :label: Alzheimer's Disease Cooperative Study-Activities of Daily Living Inventory
      MCI Version Questionnaire Test Name
    :notation: ADCS-ADL MCI TEST
    :status:
    - *1
    - *1
    - *1
    - *1
    - :status: :created
    - :status: :no_change
    - :status: :no_change
    - :status: :no_change
    :last_id: ''
  :C106483:
    :key: C106483
    :id: aHR0cDovL3d3dy5jZGlzYy5vcmcvQzEwNjQ4My9WMzQjQzEwNjQ4Mw==
    :identifier: C106483
    :label: Device-In-Use Test Code
    :notation: DUTESTCD
    :status:
    - *1
    - *1
    - *1
    - *1
    - :status: :created
    - :status: :updated
    - :status: :updated
    - :status: :updated
    :last_id: ''
  :C106666:
    :key: C106666
    :id: aHR0cDovL3d3dy5jZGlzYy5vcmcvQzEwNjY2Ni9WMzQjQzEwNjY2Ng==
    :identifier: C106666
    :label: Health Assessment Questionnaire Disability Index Test Name
    :notation: HAQ-DI TEST
    :status:
    - *1
    - *1
    - *1
    - *1
    - :status: :created
    - :status: :no_change
    - :status: :no_change
    - :status: :no_change
    :last_id: ''
  :C106657:
    :key: C106657
    :id: aHR0cDovL3d3dy5jZGlzYy5vcmcvQzEwNjY1Ny9WMzQjQzEwNjY1Nw==
    :identifier: C106657
    :label: Transition Dyspnea Index Questionnaire Test Code
    :notation: TDI TESTCD
    :status:
    - *1
    - *1
    - *1
    - *1
    - :status: :created
    - :status: :no_change
    - :status: :no_change
    - :status: :no_change
    :last_id: ''
  :C106669:
    :key: C106669
    :id: aHR0cDovL3d3dy5jZGlzYy5vcmcvQzEwNjY2OS9WMzQjQzEwNjY2OQ==
    :identifier: C106669
    :label: Modified Medical Research Council Dyspnea Scale Questionnaire Test Code
    :notation: MMRC TESTCD
    :status:
    - *1
    - *1
    - *1
    - *1
    - :status: :created
    - :status: :no_change
    - :status: :no_change
    - :status: :no_change
    :last_id: ''
  :C106662:
    :key: C106662
    :id: aHR0cDovL3d3dy5jZGlzYy5vcmcvQzEwNjY2Mi9WMzQjQzEwNjY2Mg==
    :identifier: C106662
    :label: Geriatric Depression Scale Questionnaire Test Name
    :notation: GDS TEST
    :status:
    - *1
    - *1
    - *1
    - *1
    - :status: :created
    - :status: :no_change
    - :status: :no_change
    - :status: :no_change
    :last_id: ''
  :C106481:
    :key: C106481
    :id: aHR0cDovL3d3dy5jZGlzYy5vcmcvQzEwNjQ4MS9WMzQjQzEwNjQ4MQ==
    :identifier: C106481
    :label: Device Identifier Short Name
    :notation: DIPARMCD
    :status:
    - *1
    - *1
    - *1
    - *1
    - :status: :created
    - :status: :updated
    - :status: :updated
    - :status: :no_change
    :last_id: ''
  :C106479:
    :key: C106479
    :id: aHR0cDovL3d3dy5jZGlzYy5vcmcvQzEwNjQ3OS9WMzQjQzEwNjQ3OQ==
    :identifier: C106479
    :label: Reproductive System Findings Test Code
    :notation: RPTESTCD
    :status:
    - *1
    - *1
    - *1
    - *1
    - :status: :created
    - :status: :no_change
    - :status: :no_change
    - :status: :no_change
    :last_id: ''
  :C106653:
    :key: C106653
    :id: aHR0cDovL3d3dy5jZGlzYy5vcmcvQzEwNjY1My9WMzQjQzEwNjY1Mw==
    :identifier: C106653
    :label: Alzheimer's Disease Cooperative Study-Activities of Daily Living Inventory
      Severe Dementia Version Questionnaire Test Code
    :notation: ADCS-ADL Severe Dementia TESTCD
    :status:
    - *1
    - *1
    - *1
    - *1
    - :status: :created
    - :status: :no_change
    - :status: :no_change
    - :status: :no_change
    :last_id: ''
  :C111335:
    :key: C111335
    :id: aHR0cDovL3d3dy5jZGlzYy5vcmcvQzExMTMzNS9WMzUjQzExMTMzNQ==
    :identifier: C111335
    :label: Columbia-Suicide Severity Rating Scale Children's Baseline Questionnaire
      Test Name
    :notation: C-SSRS Children's Baseline TEST
    :status:
    - *1
    - *1
    - *1
    - *1
    - *1
    - :status: :created
    - :status: :no_change
    - :status: :no_change
    :last_id: ''
  :C111107:
    :key: C111107
    :id: aHR0cDovL3d3dy5jZGlzYy5vcmcvQzExMTEwNy9WMzUjQzExMTEwNw==
    :identifier: C111107
    :label: Respiratory Test Name
    :notation: RETEST
    :status:
    - *1
    - *1
    - *1
    - *1
    - *1
    - :status: :created
    - :status: :updated
    - :status: :no_change
    :last_id: ''
  :C111109:
    :key: C111109
    :id: aHR0cDovL3d3dy5jZGlzYy5vcmcvQzExMTEwOS9WMzUjQzExMTEwOQ==
    :identifier: C111109
    :label: Device Events Category
    :notation: DECAT
    :status:
    - *1
    - *1
    - *1
    - *1
    - *1
    - :status: :created
    - :status: :updated
    - :status: :no_change
    :last_id: ''
  :C111347:
    :key: C111347
    :id: aHR0cDovL3d3dy5jZGlzYy5vcmcvQzExMTM0Ny9WMzUjQzExMTM0Nw==
    :identifier: C111347
    :label: Modified Rankin Scale Questionnaire Test Name
    :notation: MRS TEST
    :status:
    - *1
    - *1
    - *1
    - *1
    - *1
    - :status: :created
    - :status: :no_change
    - :status: :no_change
    :last_id: ''
  :C111342:
    :key: C111342
    :id: aHR0cDovL3d3dy5jZGlzYy5vcmcvQzExMTM0Mi9WMzUjQzExMTM0Mg==
    :identifier: C111342
    :label: Columbia-Suicide Severity Rating Scale Screening Questionnaire Test Code
    :notation: C-SSRS Screening TESTCD
    :status:
    - *1
    - *1
    - *1
    - *1
    - *1
    - :status: :created
    - :status: :no_change
    - :status: :no_change
    :last_id: ''
  :C111338:
    :key: C111338
    :id: aHR0cDovL3d3dy5jZGlzYy5vcmcvQzExMTMzOC9WMzUjQzExMTMzOA==
    :identifier: C111338
    :label: Columbia-Suicide Severity Rating Scale Children's Baseline/Screening Questionnaire
      Test Code
    :notation: C-SSRS Children's Baseline/Screening TESTCD
    :status:
    - *1
    - *1
    - *1
    - *1
    - *1
    - :status: :created
    - :status: :no_change
    - :status: :no_change
    :last_id: ''
  :C111108:
    :key: C111108
    :id: aHR0cDovL3d3dy5jZGlzYy5vcmcvQzExMTEwOC9WMzUjQzExMTEwOA==
    :identifier: C111108
    :label: Employment Status
    :notation: EMPSTAT
    :status:
    - *1
    - *1
    - *1
    - *1
    - *1
    - :status: :created
    - :status: :no_change
    - :status: :no_change
    :last_id: ''
  :C111345:
    :key: C111345
    :id: aHR0cDovL3d3dy5jZGlzYy5vcmcvQzExMTM0NS9WMzUjQzExMTM0NQ==
    :identifier: C111345
    :label: Functional Activities Questionnaire-NACC Version Test Name
    :notation: FAQ-NACC Version TEST
    :status:
    - *1
    - *1
    - *1
    - *1
    - *1
    - :status: :created
    - :status: :no_change
    - :status: :no_change
    :last_id: ''
  :C111340:
    :key: C111340
    :id: aHR0cDovL3d3dy5jZGlzYy5vcmcvQzExMTM0MC9WMzUjQzExMTM0MA==
    :identifier: C111340
    :label: Columbia-Suicide Severity Rating Scale Children's Since Last Visit Questionnaire
      Test Code
    :notation: C-SSRS Children's Since Last Visit TESTCD
    :status:
    - *1
    - *1
    - *1
    - *1
    - *1
    - :status: :created
    - :status: :no_change
    - :status: :no_change
    :last_id: ''
  :C111336:
    :key: C111336
    :id: aHR0cDovL3d3dy5jZGlzYy5vcmcvQzExMTMzNi9WMzUjQzExMTMzNg==
    :identifier: C111336
    :label: Columbia-Suicide Severity Rating Scale Children's Baseline Questionnaire
      Test Code
    :notation: C-SSRS Children's Baseline TESTCD
    :status:
    - *1
    - *1
    - *1
    - *1
    - *1
    - :status: :created
    - :status: :no_change
    - :status: :no_change
    :last_id: ''
  :C111106:
    :key: C111106
    :id: aHR0cDovL3d3dy5jZGlzYy5vcmcvQzExMTEwNi9WMzUjQzExMTEwNg==
    :identifier: C111106
    :label: Respiratory Test Code
    :notation: RETESTCD
    :status:
    - *1
    - *1
    - *1
    - *1
    - *1
    - :status: :created
    - :status: :updated
    - :status: :no_change
    :last_id: ''
  :C111112:
    :key: C111112
    :id: aHR0cDovL3d3dy5jZGlzYy5vcmcvQzExMTExMi9WMzUjQzExMTExMg==
    :identifier: C111112
    :label: Device Properties Test Name
    :notation: DOTEST
    :status:
    - *1
    - *1
    - *1
    - *1
    - *1
    - :status: :created
    - :status: :updated
    - :status: :updated
    :last_id: ''
  :C111348:
    :key: C111348
    :id: aHR0cDovL3d3dy5jZGlzYy5vcmcvQzExMTM0OC9WMzUjQzExMTM0OA==
    :identifier: C111348
    :label: Modified Rankin Scale Questionnaire Test Code
    :notation: MRS TESTCD
    :status:
    - *1
    - *1
    - *1
    - *1
    - *1
    - :status: :created
    - :status: :no_change
    - :status: :no_change
    :last_id: ''
  :C111344:
    :key: C111344
    :id: aHR0cDovL3d3dy5jZGlzYy5vcmcvQzExMTM0NC9WMzUjQzExMTM0NA==
    :identifier: C111344
    :label: Functional Activities Questionnaire Test Code
    :notation: FAQ TESTCD
    :status:
    - *1
    - *1
    - *1
    - *1
    - *1
    - :status: :created
    - :status: :no_change
    - :status: :no_change
    :last_id: ''
  :C111110:
    :key: C111110
    :id: aHR0cDovL3d3dy5jZGlzYy5vcmcvQzExMTExMC9WMzUjQzExMTExMA==
    :identifier: C111110
    :label: Device Events Action Taken with Device
    :notation: DEACNDEV
    :status:
    - *1
    - *1
    - *1
    - *1
    - *1
    - :status: :created
    - :status: :no_change
    - :status: :no_change
    :last_id: ''
  :C111111:
    :key: C111111
    :id: aHR0cDovL3d3dy5jZGlzYy5vcmcvQzExMTExMS9WMzUjQzExMTExMQ==
    :identifier: C111111
    :label: Device Properties Test Code
    :notation: DOTESTCD
    :status:
    - *1
    - *1
    - *1
    - *1
    - *1
    - :status: :created
    - :status: :updated
    - :status: :updated
    :last_id: ''
  :C111343:
    :key: C111343
    :id: aHR0cDovL3d3dy5jZGlzYy5vcmcvQzExMTM0My9WMzUjQzExMTM0Mw==
    :identifier: C111343
    :label: Functional Activities Questionnaire Test Name
    :notation: FAQ TEST
    :status:
    - *1
    - *1
    - *1
    - *1
    - *1
    - :status: :created
    - :status: :no_change
    - :status: :no_change
    :last_id: ''
  :C111349:
    :key: C111349
    :id: aHR0cDovL3d3dy5jZGlzYy5vcmcvQzExMTM0OS9WMzUjQzExMTM0OQ==
    :identifier: C111349
    :label: Sheehan Disability Scale Questionnaire Test Name
    :notation: SDS TEST
    :status:
    - *1
    - *1
    - *1
    - *1
    - *1
    - :status: :created
    - :status: :no_change
    - :status: :no_change
    :last_id: ''
  :C111346:
    :key: C111346
    :id: aHR0cDovL3d3dy5jZGlzYy5vcmcvQzExMTM0Ni9WMzUjQzExMTM0Ng==
    :identifier: C111346
    :label: Functional Activities Questionnaire-NACC Version Test Code
    :notation: FAQ-NACC Version TESTCD
    :status:
    - *1
    - *1
    - *1
    - *1
    - *1
    - :status: :created
    - :status: :updated
    - :status: :no_change
    :last_id: ''
  :C111337:
    :key: C111337
    :id: aHR0cDovL3d3dy5jZGlzYy5vcmcvQzExMTMzNy9WMzUjQzExMTMzNw==
    :identifier: C111337
    :label: Columbia-Suicide Severity Rating Scale Children's Baseline/Screening Questionnaire
      Test Name
    :notation: C-SSRS Children's Baseline/Screening TEST
    :status:
    - *1
    - *1
    - *1
    - *1
    - *1
    - :status: :created
    - :status: :no_change
    - :status: :no_change
    :last_id: ''
  :C111114:
    :key: C111114
    :id: aHR0cDovL3d3dy5jZGlzYy5vcmcvQzExMTExNC9WMzUjQzExMTExNA==
    :identifier: C111114
    :label: Genetic Sample Type
    :notation: GENSMP
    :status:
    - *1
    - *1
    - *1
    - *1
    - *1
    - :status: :created
    - :status: :no_change
    - :status: :no_change
    :last_id: ''
  :C111339:
    :key: C111339
    :id: aHR0cDovL3d3dy5jZGlzYy5vcmcvQzExMTMzOS9WMzUjQzExMTMzOQ==
    :identifier: C111339
    :label: Columbia-Suicide Severity Rating Scale Children's Since Last Visit Questionnaire
      Test Name
    :notation: C-SSRS Children's Since Last Visit TEST
    :status:
    - *1
    - *1
    - *1
    - *1
    - *1
    - :status: :created
    - :status: :no_change
    - :status: :no_change
    :last_id: ''
  :C111350:
    :key: C111350
    :id: aHR0cDovL3d3dy5jZGlzYy5vcmcvQzExMTM1MC9WMzUjQzExMTM1MA==
    :identifier: C111350
    :label: Sheehan Disability Scale Questionnaire Test Code
    :notation: SDS TESTCD
    :status:
    - *1
    - *1
    - *1
    - *1
    - *1
    - :status: :created
    - :status: :no_change
    - :status: :no_change
    :last_id: ''
  :C111341:
    :key: C111341
    :id: aHR0cDovL3d3dy5jZGlzYy5vcmcvQzExMTM0MS9WMzUjQzExMTM0MQ==
    :identifier: C111341
    :label: Columbia-Suicide Severity Rating Scale Screening Questionnaire Test Name
    :notation: C-SSRS Screening TEST
    :status:
    - *1
    - *1
    - *1
    - *1
    - *1
    - :status: :created
    - :status: :no_change
    - :status: :no_change
    :last_id: ''
  :C112442:
    :key: C112442
    :id: aHR0cDovL3d3dy5jZGlzYy5vcmcvQzExMjQ0Mi9WMzYjQzExMjQ0Mg==
    :identifier: C112442
    :label: Kurtzke Functional Systems Scores Questionnaire Test Name
    :notation: KFSS TEST
    :status:
    - *1
    - *1
    - *1
    - *1
    - *1
    - *1
    - :status: :created
    - :status: :updated
    :last_id: ''
  :C112440:
    :key: C112440
    :id: aHR0cDovL3d3dy5jZGlzYy5vcmcvQzExMjQ0MC9WMzYjQzExMjQ0MA==
    :identifier: C112440
    :label: Functional Assessment of Multiple Sclerosis Version 4 Questionnaire Test
      Name
    :notation: FAMS TEST
    :status:
    - *1
    - *1
    - *1
    - *1
    - *1
    - *1
    - :status: :created
    - :status: :no_change
    :last_id: ''
  :C112452:
    :key: C112452
    :id: aHR0cDovL3d3dy5jZGlzYy5vcmcvQzExMjQ1Mi9WMzYjQzExMjQ1Mg==
    :identifier: C112452
    :label: National Eye Institute Visual Functioning Questionnaire - 25 Version 2000
      Interviewer-Administered Format Test Name
    :notation: VFQ25-Interviewer Administered TEST
    :status:
    - *1
    - *1
    - *1
    - *1
    - *1
    - *1
    - :status: :created
    - :status: :no_change
    :last_id: ''
  :C112450:
    :key: C112450
    :id: aHR0cDovL3d3dy5jZGlzYy5vcmcvQzExMjQ1MC9WMzYjQzExMjQ1MA==
    :identifier: C112450
    :label: St. George's Respiratory Questionnaire Past 4 Weeks Version Test Name
    :notation: SGRQ Past 4 Weeks Version TEST
    :status:
    - *1
    - *1
    - *1
    - *1
    - *1
    - *1
    - :status: :created
    - :status: :no_change
    :last_id: ''
  :C112445:
    :key: C112445
    :id: aHR0cDovL3d3dy5jZGlzYy5vcmcvQzExMjQ0NS9WMzYjQzExMjQ0NQ==
    :identifier: C112445
    :label: Modified Hachinski Ischemic Scale-NACC Version Questionnaire Test Code
    :notation: MHIS-NACC TESTCD
    :status:
    - *1
    - *1
    - *1
    - *1
    - *1
    - *1
    - :status: :created
    - :status: :no_change
    :last_id: ''
  :C112437:
    :key: C112437
    :id: aHR0cDovL3d3dy5jZGlzYy5vcmcvQzExMjQzNy9WMzYjQzExMjQzNw==
    :identifier: C112437
    :label: Disease Steps Questionnaire Test Code
    :notation: Disease Steps TESTCD
    :status:
    - *1
    - *1
    - *1
    - *1
    - *1
    - *1
    - :status: :created
    - :status: :no_change
    :last_id: ''
  :C112438:
    :key: C112438
    :id: aHR0cDovL3d3dy5jZGlzYy5vcmcvQzExMjQzOC9WMzYjQzExMjQzOA==
    :identifier: C112438
    :label: Kurtzke Expanded Disability Status Scale Questionnaire Test Name
    :notation: EDSS TEST
    :status:
    - *1
    - *1
    - *1
    - *1
    - *1
    - *1
    - :status: :created
    - :status: :no_change
    :last_id: ''
  :C112454:
    :key: C112454
    :id: aHR0cDovL3d3dy5jZGlzYy5vcmcvQzExMjQ1NC9WMzYjQzExMjQ1NA==
    :identifier: C112454
    :label: National Eye Institute Visual Functioning Questionnaire - 25 Version 2000
      Self-Administered Format Test Name
    :notation: VFQ25-Self Administered TEST
    :status:
    - *1
    - *1
    - *1
    - *1
    - *1
    - *1
    - :status: :created
    - :status: :no_change
    :last_id: ''
  :C112441:
    :key: C112441
    :id: aHR0cDovL3d3dy5jZGlzYy5vcmcvQzExMjQ0MS9WMzYjQzExMjQ0MQ==
    :identifier: C112441
    :label: Functional Assessment of Multiple Sclerosis Version 4 Questionnaire Test
      Code
    :notation: FAMS TESTCD
    :status:
    - *1
    - *1
    - *1
    - *1
    - *1
    - *1
    - :status: :created
    - :status: :no_change
    :last_id: ''
  :C112448:
    :key: C112448
    :id: aHR0cDovL3d3dy5jZGlzYy5vcmcvQzExMjQ0OC9WMzYjQzExMjQ0OA==
    :identifier: C112448
    :label: St. George's Respiratory Questionnaire Past 3 Months Version Test Name
    :notation: SGRQ Past 3 Months Version TEST
    :status:
    - *1
    - *1
    - *1
    - *1
    - *1
    - *1
    - :status: :created
    - :status: :no_change
    :last_id: ''
  :C112446:
    :key: C112446
    :id: aHR0cDovL3d3dy5jZGlzYy5vcmcvQzExMjQ0Ni9WMzYjQzExMjQ0Ng==
    :identifier: C112446
    :label: Patient Determined Disease Steps Questionnaire Test Name
    :notation: PDDS TEST
    :status:
    - *1
    - *1
    - *1
    - *1
    - *1
    - *1
    - :status: :created
    - :status: :no_change
    :last_id: ''
  :C112436:
    :key: C112436
    :id: aHR0cDovL3d3dy5jZGlzYy5vcmcvQzExMjQzNi9WMzYjQzExMjQzNg==
    :identifier: C112436
    :label: Disease Steps Questionnaire Test Name
    :notation: Disease Steps TEST
    :status:
    - *1
    - *1
    - *1
    - *1
    - *1
    - *1
    - :status: :created
    - :status: :no_change
    :last_id: ''
  :C112024:
    :key: C112024
    :id: aHR0cDovL3d3dy5jZGlzYy5vcmcvQzExMjAyNC9WMzYjQzExMjAyNA==
    :identifier: C112024
    :label: Skin Response Test Code
    :notation: SRTESTCD
    :status:
    - *1
    - *1
    - *1
    - *1
    - *1
    - *1
    - :status: :created
    - :status: :no_change
    :last_id: ''
  :C112455:
    :key: C112455
    :id: aHR0cDovL3d3dy5jZGlzYy5vcmcvQzExMjQ1NS9WMzYjQzExMjQ1NQ==
    :identifier: C112455
    :label: National Eye Institute Visual Functioning Questionnaire - 25 Version 2000
      Self-Administered Format Test Code
    :notation: VFQ25-Self Administered TESTCD
    :status:
    - *1
    - *1
    - *1
    - *1
    - *1
    - *1
    - :status: :created
    - :status: :no_change
    :last_id: ''
  :C112449:
    :key: C112449
    :id: aHR0cDovL3d3dy5jZGlzYy5vcmcvQzExMjQ0OS9WMzYjQzExMjQ0OQ==
    :identifier: C112449
    :label: St. George's Respiratory Questionnaire Past 3 Months Version Test Code
    :notation: SGRQ Past 3 Months Version TESTCD
    :status:
    - *1
    - *1
    - *1
    - *1
    - *1
    - *1
    - :status: :created
    - :status: :no_change
    :last_id: ''
  :C112037:
    :key: C112037
    :id: aHR0cDovL3d3dy5jZGlzYy5vcmcvQzExMjAzNy9WMzYjQzExMjAzNw==
    :identifier: C112037
    :label: Device Tracking and Disposition Event Dictionary Derived Term
    :notation: DTDECOD
    :status:
    - *1
    - *1
    - *1
    - *1
    - *1
    - *1
    - :status: :created
    - :status: :updated
    :last_id: ''
  :C112023:
    :key: C112023
    :id: aHR0cDovL3d3dy5jZGlzYy5vcmcvQzExMjAyMy9WMzYjQzExMjAyMw==
    :identifier: C112023
    :label: Skin Response Test Name
    :notation: SRTEST
    :status:
    - *1
    - *1
    - *1
    - *1
    - *1
    - *1
    - :status: :created
    - :status: :no_change
    :last_id: ''
  :C112451:
    :key: C112451
    :id: aHR0cDovL3d3dy5jZGlzYy5vcmcvQzExMjQ1MS9WMzYjQzExMjQ1MQ==
    :identifier: C112451
    :label: St. George's Respiratory Questionnaire Past 4 Weeks Version Test Code
    :notation: SGRQ Past 4 Weeks Version TESTCD
    :status:
    - *1
    - *1
    - *1
    - *1
    - *1
    - *1
    - :status: :created
    - :status: :no_change
    :last_id: ''
  :C112444:
    :key: C112444
    :id: aHR0cDovL3d3dy5jZGlzYy5vcmcvQzExMjQ0NC9WMzYjQzExMjQ0NA==
    :identifier: C112444
    :label: Modified Hachinski Ischemic Scale-NACC Version Questionnaire Test Name
    :notation: MHIS-NACC TEST
    :status:
    - *1
    - *1
    - *1
    - *1
    - *1
    - *1
    - :status: :created
    - :status: :no_change
    :last_id: ''
  :C112439:
    :key: C112439
    :id: aHR0cDovL3d3dy5jZGlzYy5vcmcvQzExMjQzOS9WMzYjQzExMjQzOQ==
    :identifier: C112439
    :label: Kurtzke Expanded Disability Status Scale Questionnaire Test Code
    :notation: EDSS TESTCD
    :status:
    - *1
    - *1
    - *1
    - *1
    - *1
    - *1
    - :status: :created
    - :status: :no_change
    :last_id: ''
  :C112435:
    :key: C112435
    :id: aHR0cDovL3d3dy5jZGlzYy5vcmcvQzExMjQzNS9WMzYjQzExMjQzNQ==
    :identifier: C112435
    :label: Airway Questionnaire 20 Test Code
    :notation: AQ20 TESTCD
    :status:
    - *1
    - *1
    - *1
    - *1
    - *1
    - *1
    - :status: :created
    - :status: :no_change
    :last_id: ''
  :C112434:
    :key: C112434
    :id: aHR0cDovL3d3dy5jZGlzYy5vcmcvQzExMjQzNC9WMzYjQzExMjQzNA==
    :identifier: C112434
    :label: Airway Questionnaire 20 Test Name
    :notation: AQ20 TEST
    :status:
    - *1
    - *1
    - *1
    - *1
    - *1
    - *1
    - :status: :created
    - :status: :no_change
    :last_id: ''
  :C112447:
    :key: C112447
    :id: aHR0cDovL3d3dy5jZGlzYy5vcmcvQzExMjQ0Ny9WMzYjQzExMjQ0Nw==
    :identifier: C112447
    :label: Patient Determined Disease Steps Questionnaire Test Code
    :notation: PDDS TESTCD
    :status:
    - *1
    - *1
    - *1
    - *1
    - *1
    - *1
    - :status: :created
    - :status: :no_change
    :last_id: ''
  :C112453:
    :key: C112453
    :id: aHR0cDovL3d3dy5jZGlzYy5vcmcvQzExMjQ1My9WMzYjQzExMjQ1Mw==
    :identifier: C112453
    :label: National Eye Institute Visual Functioning Questionnaire - 25 Version 2000
      Interviewer-Administered Format Test Code
    :notation: VFQ25-Interviewer Administered TESTCD
    :status:
    - *1
    - *1
    - *1
    - *1
    - *1
    - *1
    - :status: :created
    - :status: :no_change
    :last_id: ''
  :C112443:
    :key: C112443
    :id: aHR0cDovL3d3dy5jZGlzYy5vcmcvQzExMjQ0My9WMzYjQzExMjQ0Mw==
    :identifier: C112443
    :label: Kurtzke Functional Systems Scores Questionnaire Test Code
    :notation: KFSS TESTCD
    :status:
    - *1
    - *1
    - *1
    - *1
    - *1
    - *1
    - :status: :created
    - :status: :updated
    :last_id: ''
  :C113847:
    :key: C113847
    :id: aHR0cDovL3d3dy5jZGlzYy5vcmcvQzExMzg0Ny9WMzcjQzExMzg0Nw==
    :identifier: C113847
    :label: Columbia-Suicide Severity Rating Scale Pediatric/Cognitively Impaired
      Lifetime/Recent Test Name
    :notation: C-SSRS PEDIATRIC/COGNITIVELY IMPAIRED LIFETIME/RECENT TEST
    :status:
    - *1
    - *1
    - *1
    - *1
    - *1
    - *1
    - *1
    - :status: :created
    :last_id: ''
  :C113846:
    :key: C113846
    :id: aHR0cDovL3d3dy5jZGlzYy5vcmcvQzExMzg0Ni9WMzcjQzExMzg0Ng==
    :identifier: C113846
    :label: Borg CR-10 Scale Test Code
    :notation: Borg CR-10 Scale TESTCD
    :status:
    - *1
    - *1
    - *1
    - *1
    - *1
    - *1
    - *1
    - :status: :created
    :last_id: ''
  :C113845:
    :key: C113845
    :id: aHR0cDovL3d3dy5jZGlzYy5vcmcvQzExMzg0NS9WMzcjQzExMzg0NQ==
    :identifier: C113845
    :label: Borg CR-10 Scale Test Name
    :notation: Borg CR-10 Scale TEST
    :status:
    - *1
    - *1
    - *1
    - *1
    - *1
    - *1
    - *1
    - :status: :created
    :last_id: ''
  :C113860:
    :key: C113860
    :id: aHR0cDovL3d3dy5jZGlzYy5vcmcvQzExMzg2MC9WMzcjQzExMzg2MA==
    :identifier: C113860
    :label: Multiple Sclerosis Quality of Life-54 Instrument Test Code
    :notation: MSQOL-54 TESTCD
    :status:
    - *1
    - *1
    - *1
    - *1
    - *1
    - *1
    - *1
    - :status: :created
    :last_id: ''
  :C113857:
    :key: C113857
    :id: aHR0cDovL3d3dy5jZGlzYy5vcmcvQzExMzg1Ny9WMzcjQzExMzg1Nw==
    :identifier: C113857
    :label: Modified Fatigue Impact Scale Test Name
    :notation: MFIS TEST
    :status:
    - *1
    - *1
    - *1
    - *1
    - *1
    - *1
    - *1
    - :status: :created
    :last_id: ''
  :C113852:
    :key: C113852
    :id: aHR0cDovL3d3dy5jZGlzYy5vcmcvQzExMzg1Mi9WMzcjQzExMzg1Mg==
    :identifier: C113852
    :label: Bladder Control Scale Test Code
    :notation: BLCS TESTCD
    :status:
    - *1
    - *1
    - *1
    - *1
    - *1
    - *1
    - *1
    - :status: :created
    :last_id: ''
  :C113849:
    :key: C113849
    :id: aHR0cDovL3d3dy5jZGlzYy5vcmcvQzExMzg0OS9WMzcjQzExMzg0OQ==
    :identifier: C113849
    :label: Fatigue Severity Scale Test Name
    :notation: FSS TEST
    :status:
    - *1
    - *1
    - *1
    - *1
    - *1
    - *1
    - *1
    - :status: :created
    :last_id: ''
  :C114119:
    :key: C114119
    :id: aHR0cDovL3d3dy5jZGlzYy5vcmcvQzExNDExOS9WMzcjQzExNDExOQ==
    :identifier: C114119
    :label: Pharmacogenomics Biomarker Medical Statement
    :notation: PBSTMT
    :status:
    - *1
    - *1
    - *1
    - *1
    - *1
    - *1
    - *1
    - :status: :created
    :last_id: ''
  :C113855:
    :key: C113855
    :id: aHR0cDovL3d3dy5jZGlzYy5vcmcvQzExMzg1NS9WMzcjQzExMzg1NQ==
    :identifier: C113855
    :label: Impact of Visual Impairment Scale Test Name
    :notation: IVIS TEST
    :status:
    - *1
    - *1
    - *1
    - *1
    - *1
    - *1
    - *1
    - :status: :created
    :last_id: ''
  :C113859:
    :key: C113859
    :id: aHR0cDovL3d3dy5jZGlzYy5vcmcvQzExMzg1OS9WMzcjQzExMzg1OQ==
    :identifier: C113859
    :label: Multiple Sclerosis Quality of Life-54 Instrument Test Name
    :notation: MSQOL-54 TEST
    :status:
    - *1
    - *1
    - *1
    - *1
    - *1
    - *1
    - *1
    - :status: :created
    :last_id: ''
  :C114118:
    :key: C114118
    :id: aHR0cDovL3d3dy5jZGlzYy5vcmcvQzExNDExOC9WMzcjQzExNDExOA==
    :identifier: C114118
    :label: Protocol Milestone
    :notation: PROTMLST
    :status:
    - *1
    - *1
    - *1
    - *1
    - *1
    - *1
    - *1
    - :status: :created
    :last_id: ''
  :C113848:
    :key: C113848
    :id: aHR0cDovL3d3dy5jZGlzYy5vcmcvQzExMzg0OC9WMzcjQzExMzg0OA==
    :identifier: C113848
    :label: Columbia-Suicide Severity Rating Scale Pediatric/Cognitively Impaired
      Lifetime/Recent Test Code
    :notation: C-SSRS PEDIATRIC/COGNITIVELY IMPAIRED LIFETIME/RECENT TESTCD
    :status:
    - *1
    - *1
    - *1
    - *1
    - *1
    - *1
    - *1
    - :status: :created
    :last_id: ''
  :C113853:
    :key: C113853
    :id: aHR0cDovL3d3dy5jZGlzYy5vcmcvQzExMzg1My9WMzcjQzExMzg1Mw==
    :identifier: C113853
    :label: Bowel Control Scale Test Name
    :notation: BWCS TEST
    :status:
    - *1
    - *1
    - *1
    - *1
    - *1
    - *1
    - *1
    - :status: :created
    :last_id: ''
  :C114116:
    :key: C114116
    :id: aHR0cDovL3d3dy5jZGlzYy5vcmcvQzExNDExNi9WMzcjQzExNDExNg==
    :identifier: C114116
    :label: Morphology Test Name
    :notation: MOTEST
    :status:
    - *1
    - *1
    - *1
    - *1
    - *1
    - *1
    - *1
    - :status: :created
    :last_id: ''
  :C113858:
    :key: C113858
    :id: aHR0cDovL3d3dy5jZGlzYy5vcmcvQzExMzg1OC9WMzcjQzExMzg1OA==
    :identifier: C113858
    :label: Modified Fatigue Impact Scale Test Code
    :notation: MFIS TESTCD
    :status:
    - *1
    - *1
    - *1
    - *1
    - *1
    - *1
    - *1
    - :status: :created
    :last_id: ''
  :C113850:
    :key: C113850
    :id: aHR0cDovL3d3dy5jZGlzYy5vcmcvQzExMzg1MC9WMzcjQzExMzg1MA==
    :identifier: C113850
    :label: Fatigue Severity Scale Test Code
    :notation: FSS TESTCD
    :status:
    - *1
    - *1
    - *1
    - *1
    - *1
    - *1
    - *1
    - :status: :created
    :last_id: ''
  :C113856:
    :key: C113856
    :id: aHR0cDovL3d3dy5jZGlzYy5vcmcvQzExMzg1Ni9WMzcjQzExMzg1Ng==
    :identifier: C113856
    :label: Impact of Visual Impairment Scale Test Code
    :notation: IVIS TESTCD
    :status:
    - *1
    - *1
    - *1
    - *1
    - *1
    - *1
    - *1
    - :status: :created
    :last_id: ''
  :C113854:
    :key: C113854
    :id: aHR0cDovL3d3dy5jZGlzYy5vcmcvQzExMzg1NC9WMzcjQzExMzg1NA==
    :identifier: C113854
    :label: Bowel Control Scale Test Code
    :notation: BWCS TESTCD
    :status:
    - *1
    - *1
    - *1
    - *1
    - *1
    - *1
    - *1
    - :status: :created
    :last_id: ''
  :C113861:
    :key: C113861
    :id: aHR0cDovL3d3dy5jZGlzYy5vcmcvQzExMzg2MS9WMzcjQzExMzg2MQ==
    :identifier: C113861
    :label: RAND 36-Item Health Survey 1.0 Test Name
    :notation: RAND-36 V1.0 TEST
    :status:
    - *1
    - *1
    - *1
    - *1
    - *1
    - *1
    - *1
    - :status: :created
    :last_id: ''
  :C114117:
    :key: C114117
    :id: aHR0cDovL3d3dy5jZGlzYy5vcmcvQzExNDExNy9WMzcjQzExNDExNw==
    :identifier: C114117
    :label: Morphology Test Code
    :notation: MOTESTCD
    :status:
    - *1
    - *1
    - *1
    - *1
    - *1
    - *1
    - *1
    - :status: :created
    :last_id: ''
  :C113862:
    :key: C113862
    :id: aHR0cDovL3d3dy5jZGlzYy5vcmcvQzExMzg2Mi9WMzcjQzExMzg2Mg==
    :identifier: C113862
    :label: RAND 36-Item Health Survey 1.0 Test Code
    :notation: RAND-36 V1.0 TESTCD
    :status:
    - *1
    - *1
    - *1
    - *1
    - *1
    - *1
    - *1
    - :status: :created
    :last_id: ''
  :C113851:
    :key: C113851
    :id: aHR0cDovL3d3dy5jZGlzYy5vcmcvQzExMzg1MS9WMzcjQzExMzg1MQ==
    :identifier: C113851
    :label: Bladder Control Scale Test Name
    :notation: BLCS TEST
    :status:
    - *1
    - *1
    - *1
    - *1
    - *1
    - *1
    - *1
    - :status: :created
    :last_id: ''
