--- |
  Code,Codelist Extensible (Yes/No),Codelist Name,CDISC Submission Value,CDISC Definition
  C66767,false,Action Taken with Study Treatment,ACN,Terminology specifying changes to the study treatment as a result of an adverse event.
  NP000123P,false,Action Taken with Study Treatment Subset 01,ACN_01,Terminology specifying changes to the study treatment as a result of an adverse event.
  "",false,SPONSOR TEST,"",""
  C66767,false,Action Taken with Study Treatment,ACN,Terminology specifying changes to the study treatment as a result of an adverse event.
  NP000124C,false,Action Taken with Study Treatment Subset 03,ACN_03,Terminology specifying changes to the study treatment as a result of an adverse event.
