@prefix : <http://www.cdisc.org/SDTM_MODEL/V1#> .
@prefix bd: <http://www.assero.co.uk/Tabulation#> .
@prefix isoC: <http://www.assero.co.uk/ISO11179Concepts#> .
@prefix isoT: <http://www.assero.co.uk/ISO11179Types#> .
@prefix isoR: <http://www.assero.co.uk/ISO11179Registration#> .
@prefix isoI: <http://www.assero.co.uk/ISO11179Identification#> .
@prefix bo: <http://www.assero.co.uk/BusinessOperational#> .
@prefix owl: <http://www.w3.org/2002/07/owl#> .
@prefix rdf: <http://www.w3.org/1999/02/22-rdf-syntax-ns#> .
@prefix rdfs: <http://www.w3.org/2000/01/rdf-schema#> .
@prefix xsd: <http://www.w3.org/2001/XMLSchema#> .
@prefix skos: <http://www.w3.org/2004/02/skos/core#> .

<http://www.cdisc.org/SDTM_MODEL/V1>
	rdf:type owl:Ontology ;
.
:M
	rdf:type bd:Model ;
	isoC:label "SDTM Model"^^xsd:string ;
	isoT:hasState :M_RS ;
	isoT:hasIdentifier :M_SI ;
	isoT:origin "Created from files: 'import_input_1.xlsx'"^^xsd:string ;
	isoT:changeDescription ""^^xsd:string ;
	isoT:creationDate "2018-11-22T00:00:00+00:00"^^xsd:dateTime ;
	isoT:lastChangeDate "2018-11-22T00:00:00+00:00"^^xsd:dateTime ;
	isoT:explanatoryComment ""^^xsd:string ;
	bo:hasManaged :M_R1 ;
	bo:hasManaged :M_R2 ;
	bo:hasManaged :M_R3 ;
	bo:hasManaged :M_R4 ;
	bo:hasManaged :M_R5 ;
	bo:hasManaged :M_R6 ;
	bo:hasManaged :M_R7 ;
	bo:hasManaged :M_R8 ;
	bd:includesVariable <http://www.cdisc.org/SDTMMODEL_ALL/V1#CL_MVSTUDYID> ;
	bd:includesVariable <http://www.cdisc.org/SDTMMODEL_ALL/V1#CL_MVDOMAIN> ;
	bd:includesVariable <http://www.cdisc.org/SDTMMODEL_ALL/V1#CL_MVUSUBJID> ;
	bd:includesVariable <http://www.cdisc.org/SDTMMODEL_ALL/V1#CL_MVPOOLID> ;
	bd:includesVariable <http://www.cdisc.org/SDTMMODEL_ALL/V1#CL_MVSPDEVID> ;
	bd:includesVariable <http://www.cdisc.org/SDTMMODEL_ALL/V1#CL_MV--SEQ> ;
	bd:includesVariable <http://www.cdisc.org/SDTMMODEL_ALL/V1#CL_MV--GRPID> ;
	bd:includesVariable <http://www.cdisc.org/SDTMMODEL_ALL/V1#CL_MV--REFID> ;
	bd:includesVariable <http://www.cdisc.org/SDTMMODEL_ALL/V1#CL_MV--SPID> ;
	bd:includesVariable <http://www.cdisc.org/SDTMMODEL_ALL/V1#CL_MV--LNKID> ;
	bd:includesVariable <http://www.cdisc.org/SDTMMODEL_ALL/V1#CL_MV--LNKGRP> ;
	bd:includesVariable <http://www.cdisc.org/SDTMMODEL_ALL/V1#CL_MVVISITNUM> ;
	bd:includesVariable <http://www.cdisc.org/SDTMMODEL_ALL/V1#CL_MVVISIT> ;
	bd:includesVariable <http://www.cdisc.org/SDTMMODEL_ALL/V1#CL_MVVISITDY> ;
	bd:includesVariable <http://www.cdisc.org/SDTMMODEL_ALL/V1#CL_MVTAETORD> ;
	bd:includesVariable <http://www.cdisc.org/SDTMMODEL_ALL/V1#CL_MVEPOCH> ;
	bd:includesVariable <http://www.cdisc.org/SDTMMODEL_ALL/V1#CL_MV--DTC> ;
	bd:includesVariable <http://www.cdisc.org/SDTMMODEL_ALL/V1#CL_MV--STDTC> ;
	bd:includesVariable <http://www.cdisc.org/SDTMMODEL_ALL/V1#CL_MV--ENDTC> ;
	bd:includesVariable <http://www.cdisc.org/SDTMMODEL_ALL/V1#CL_MV--DY> ;
	bd:includesVariable <http://www.cdisc.org/SDTMMODEL_ALL/V1#CL_MV--STDY> ;
	bd:includesVariable <http://www.cdisc.org/SDTMMODEL_ALL/V1#CL_MV--ENDY> ;
	bd:includesVariable <http://www.cdisc.org/SDTMMODEL_ALL/V1#CL_MV--DUR> ;
	bd:includesVariable <http://www.cdisc.org/SDTMMODEL_ALL/V1#CL_MV--TPT> ;
	bd:includesVariable <http://www.cdisc.org/SDTMMODEL_ALL/V1#CL_MV--TPTNUM> ;
	bd:includesVariable <http://www.cdisc.org/SDTMMODEL_ALL/V1#CL_MV--ELTM> ;
	bd:includesVariable <http://www.cdisc.org/SDTMMODEL_ALL/V1#CL_MV--TPTREF> ;
	bd:includesVariable <http://www.cdisc.org/SDTMMODEL_ALL/V1#CL_MV--RFTDTC> ;
	bd:includesVariable <http://www.cdisc.org/SDTMMODEL_ALL/V1#CL_MV--STRF> ;
	bd:includesVariable <http://www.cdisc.org/SDTMMODEL_ALL/V1#CL_MV--ENRF> ;
	bd:includesVariable <http://www.cdisc.org/SDTMMODEL_ALL/V1#CL_MV--EVLINT> ;
	bd:includesVariable <http://www.cdisc.org/SDTMMODEL_ALL/V1#CL_MV--EVINTX> ;
	bd:includesVariable <http://www.cdisc.org/SDTMMODEL_ALL/V1#CL_MV--STRTPT> ;
	bd:includesVariable <http://www.cdisc.org/SDTMMODEL_ALL/V1#CL_MV--STTPT> ;
	bd:includesVariable <http://www.cdisc.org/SDTMMODEL_ALL/V1#CL_MV--ENRTPT> ;
	bd:includesVariable <http://www.cdisc.org/SDTMMODEL_ALL/V1#CL_MV--ENTPT> ;
	bd:includesVariable <http://www.cdisc.org/SDTMMODEL_ALL/V1#CL_MV--STINT> ;
	bd:includesVariable <http://www.cdisc.org/SDTMMODEL_ALL/V1#CL_MV--ENINT> ;
	bd:includesVariable <http://www.cdisc.org/SDTMMODEL_ALL/V1#CL_MV--DETECT> ;
	bd:includesVariable <http://www.cdisc.org/SDTMMODEL_ASSOCIATED_PERSONS/V1#CL_MVAPID> ;
	bd:includesVariable <http://www.cdisc.org/SDTMMODEL_ASSOCIATED_PERSONS/V1#CL_MVRSUBJID> ;
	bd:includesVariable <http://www.cdisc.org/SDTMMODEL_ASSOCIATED_PERSONS/V1#CL_MVRDEVID> ;
	bd:includesVariable <http://www.cdisc.org/SDTMMODEL_ASSOCIATED_PERSONS/V1#CL_MVSREL> ;
	bd:includesVariable <http://www.cdisc.org/SDTMMODEL_EVENTS/V1#CL_MV--TERM> ;
	bd:includesVariable <http://www.cdisc.org/SDTMMODEL_EVENTS/V1#CL_MV--MODIFY> ;
	bd:includesVariable <http://www.cdisc.org/SDTMMODEL_EVENTS/V1#CL_MV--LLT> ;
	bd:includesVariable <http://www.cdisc.org/SDTMMODEL_EVENTS/V1#CL_MV--LLTCD> ;
	bd:includesVariable <http://www.cdisc.org/SDTMMODEL_EVENTS/V1#CL_MV--DECOD> ;
	bd:includesVariable <http://www.cdisc.org/SDTMMODEL_EVENTS/V1#CL_MV--PTCD> ;
	bd:includesVariable <http://www.cdisc.org/SDTMMODEL_EVENTS/V1#CL_MV--HLT> ;
	bd:includesVariable <http://www.cdisc.org/SDTMMODEL_EVENTS/V1#CL_MV--HLTCD> ;
	bd:includesVariable <http://www.cdisc.org/SDTMMODEL_EVENTS/V1#CL_MV--HLGT> ;
	bd:includesVariable <http://www.cdisc.org/SDTMMODEL_EVENTS/V1#CL_MV--HLGTCD> ;
	bd:includesVariable <http://www.cdisc.org/SDTMMODEL_EVENTS/V1#CL_MV--CAT> ;
	bd:includesVariable <http://www.cdisc.org/SDTMMODEL_EVENTS/V1#CL_MV--SCAT> ;
	bd:includesVariable <http://www.cdisc.org/SDTMMODEL_EVENTS/V1#CL_MV--PRESP> ;
	bd:includesVariable <http://www.cdisc.org/SDTMMODEL_EVENTS/V1#CL_MV--OCCUR> ;
	bd:includesVariable <http://www.cdisc.org/SDTMMODEL_EVENTS/V1#CL_MV--STAT> ;
	bd:includesVariable <http://www.cdisc.org/SDTMMODEL_EVENTS/V1#CL_MV--REASND> ;
	bd:includesVariable <http://www.cdisc.org/SDTMMODEL_EVENTS/V1#CL_MV--BODSYS> ;
	bd:includesVariable <http://www.cdisc.org/SDTMMODEL_EVENTS/V1#CL_MV--BDSYCD> ;
	bd:includesVariable <http://www.cdisc.org/SDTMMODEL_EVENTS/V1#CL_MV--SOC> ;
	bd:includesVariable <http://www.cdisc.org/SDTMMODEL_EVENTS/V1#CL_MV--SOCCD> ;
	bd:includesVariable <http://www.cdisc.org/SDTMMODEL_EVENTS/V1#CL_MV--LOC> ;
	bd:includesVariable <http://www.cdisc.org/SDTMMODEL_EVENTS/V1#CL_MV--LAT> ;
	bd:includesVariable <http://www.cdisc.org/SDTMMODEL_EVENTS/V1#CL_MV--DIR> ;
	bd:includesVariable <http://www.cdisc.org/SDTMMODEL_EVENTS/V1#CL_MV--PORTOT> ;
	bd:includesVariable <http://www.cdisc.org/SDTMMODEL_EVENTS/V1#CL_MV--PARTY> ;
	bd:includesVariable <http://www.cdisc.org/SDTMMODEL_EVENTS/V1#CL_MV--PRTYID> ;
	bd:includesVariable <http://www.cdisc.org/SDTMMODEL_EVENTS/V1#CL_MV--SEV> ;
	bd:includesVariable <http://www.cdisc.org/SDTMMODEL_EVENTS/V1#CL_MV--SER> ;
	bd:includesVariable <http://www.cdisc.org/SDTMMODEL_EVENTS/V1#CL_MV--ACN> ;
	bd:includesVariable <http://www.cdisc.org/SDTMMODEL_EVENTS/V1#CL_MV--ACNOTH> ;
	bd:includesVariable <http://www.cdisc.org/SDTMMODEL_EVENTS/V1#CL_MV--ACNDEV> ;
	bd:includesVariable <http://www.cdisc.org/SDTMMODEL_EVENTS/V1#CL_MV--REL> ;
	bd:includesVariable <http://www.cdisc.org/SDTMMODEL_EVENTS/V1#CL_MV--RELNST> ;
	bd:includesVariable <http://www.cdisc.org/SDTMMODEL_EVENTS/V1#CL_MV--PATT> ;
	bd:includesVariable <http://www.cdisc.org/SDTMMODEL_EVENTS/V1#CL_MV--OUT> ;
	bd:includesVariable <http://www.cdisc.org/SDTMMODEL_EVENTS/V1#CL_MV--SCAN> ;
	bd:includesVariable <http://www.cdisc.org/SDTMMODEL_EVENTS/V1#CL_MV--SCONG> ;
	bd:includesVariable <http://www.cdisc.org/SDTMMODEL_EVENTS/V1#CL_MV--SDISAB> ;
	bd:includesVariable <http://www.cdisc.org/SDTMMODEL_EVENTS/V1#CL_MV--SDTH> ;
	bd:includesVariable <http://www.cdisc.org/SDTMMODEL_EVENTS/V1#CL_MV--SHOSP> ;
	bd:includesVariable <http://www.cdisc.org/SDTMMODEL_EVENTS/V1#CL_MV--SLIFE> ;
	bd:includesVariable <http://www.cdisc.org/SDTMMODEL_EVENTS/V1#CL_MV--SOD> ;
	bd:includesVariable <http://www.cdisc.org/SDTMMODEL_EVENTS/V1#CL_MV--SMIE> ;
	bd:includesVariable <http://www.cdisc.org/SDTMMODEL_EVENTS/V1#CL_MV--CONTRT> ;
	bd:includesVariable <http://www.cdisc.org/SDTMMODEL_EVENTS/V1#CL_MV--TOX> ;
	bd:includesVariable <http://www.cdisc.org/SDTMMODEL_EVENTS/V1#CL_MV--TOXGR> ;
	bd:includesVariable <http://www.cdisc.org/SDTMMODEL_FINDINGS_ABOUT/V1#CL_MV--OBJ> ;
	bd:includesVariable <http://www.cdisc.org/SDTMMODEL_FINDINGS/V1#CL_MV--TESTCD> ;
	bd:includesVariable <http://www.cdisc.org/SDTMMODEL_FINDINGS/V1#CL_MV--TEST> ;
	bd:includesVariable <http://www.cdisc.org/SDTMMODEL_FINDINGS/V1#CL_MV--TSTDTL> ;
	bd:includesVariable <http://www.cdisc.org/SDTMMODEL_FINDINGS/V1#CL_MV--POS> ;
	bd:includesVariable <http://www.cdisc.org/SDTMMODEL_FINDINGS/V1#CL_MV--ORRES> ;
	bd:includesVariable <http://www.cdisc.org/SDTMMODEL_FINDINGS/V1#CL_MV--ORRESU> ;
	bd:includesVariable <http://www.cdisc.org/SDTMMODEL_FINDINGS/V1#CL_MV--ORNRLO> ;
	bd:includesVariable <http://www.cdisc.org/SDTMMODEL_FINDINGS/V1#CL_MV--ORNRHI> ;
	bd:includesVariable <http://www.cdisc.org/SDTMMODEL_FINDINGS/V1#CL_MV--STRESC> ;
	bd:includesVariable <http://www.cdisc.org/SDTMMODEL_FINDINGS/V1#CL_MV--STRESN> ;
	bd:includesVariable <http://www.cdisc.org/SDTMMODEL_FINDINGS/V1#CL_MV--STRESU> ;
	bd:includesVariable <http://www.cdisc.org/SDTMMODEL_FINDINGS/V1#CL_MV--STNRLO> ;
	bd:includesVariable <http://www.cdisc.org/SDTMMODEL_FINDINGS/V1#CL_MV--STNRHI> ;
	bd:includesVariable <http://www.cdisc.org/SDTMMODEL_FINDINGS/V1#CL_MV--STNRC> ;
	bd:includesVariable <http://www.cdisc.org/SDTMMODEL_FINDINGS/V1#CL_MV--NRIND> ;
	bd:includesVariable <http://www.cdisc.org/SDTMMODEL_FINDINGS/V1#CL_MV--RESCAT> ;
	bd:includesVariable <http://www.cdisc.org/SDTMMODEL_FINDINGS/V1#CL_MV--XFN> ;
	bd:includesVariable <http://www.cdisc.org/SDTMMODEL_FINDINGS/V1#CL_MV--NAM> ;
	bd:includesVariable <http://www.cdisc.org/SDTMMODEL_FINDINGS/V1#CL_MV--LOINC> ;
	bd:includesVariable <http://www.cdisc.org/SDTMMODEL_FINDINGS/V1#CL_MV--SPEC> ;
	bd:includesVariable <http://www.cdisc.org/SDTMMODEL_FINDINGS/V1#CL_MV--ANTREG> ;
	bd:includesVariable <http://www.cdisc.org/SDTMMODEL_FINDINGS/V1#CL_MV--SPCCND> ;
	bd:includesVariable <http://www.cdisc.org/SDTMMODEL_FINDINGS/V1#CL_MV--SPCUFL> ;
	bd:includesVariable <http://www.cdisc.org/SDTMMODEL_FINDINGS/V1#CL_MV--METHOD> ;
	bd:includesVariable <http://www.cdisc.org/SDTMMODEL_FINDINGS/V1#CL_MV--RUNID> ;
	bd:includesVariable <http://www.cdisc.org/SDTMMODEL_FINDINGS/V1#CL_MV--ANMETH> ;
	bd:includesVariable <http://www.cdisc.org/SDTMMODEL_FINDINGS/V1#CL_MV--LEAD> ;
	bd:includesVariable <http://www.cdisc.org/SDTMMODEL_FINDINGS/V1#CL_MV--CSTATE> ;
	bd:includesVariable <http://www.cdisc.org/SDTMMODEL_FINDINGS/V1#CL_MV--BLFL> ;
	bd:includesVariable <http://www.cdisc.org/SDTMMODEL_FINDINGS/V1#CL_MV--FAST> ;
	bd:includesVariable <http://www.cdisc.org/SDTMMODEL_FINDINGS/V1#CL_MV--DRVFL> ;
	bd:includesVariable <http://www.cdisc.org/SDTMMODEL_FINDINGS/V1#CL_MV--EVAL> ;
	bd:includesVariable <http://www.cdisc.org/SDTMMODEL_FINDINGS/V1#CL_MV--EVALID> ;
	bd:includesVariable <http://www.cdisc.org/SDTMMODEL_FINDINGS/V1#CL_MV--ACPTFL> ;
	bd:includesVariable <http://www.cdisc.org/SDTMMODEL_FINDINGS/V1#CL_MV--DTHREL> ;
	bd:includesVariable <http://www.cdisc.org/SDTMMODEL_FINDINGS/V1#CL_MV--LLOQ> ;
	bd:includesVariable <http://www.cdisc.org/SDTMMODEL_FINDINGS/V1#CL_MV--ULOQ> ;
	bd:includesVariable <http://www.cdisc.org/SDTMMODEL_FINDINGS/V1#CL_MV--EXCLFL> ;
	bd:includesVariable <http://www.cdisc.org/SDTMMODEL_FINDINGS/V1#CL_MV--REASEX> ;
	bd:includesVariable <http://www.cdisc.org/SDTMMODEL_INTERVENTIONS/V1#CL_MV--TRT> ;
	bd:includesVariable <http://www.cdisc.org/SDTMMODEL_INTERVENTIONS/V1#CL_MV--MOOD> ;
	bd:includesVariable <http://www.cdisc.org/SDTMMODEL_INTERVENTIONS/V1#CL_MV--INDC> ;
	bd:includesVariable <http://www.cdisc.org/SDTMMODEL_INTERVENTIONS/V1#CL_MV--CLAS> ;
	bd:includesVariable <http://www.cdisc.org/SDTMMODEL_INTERVENTIONS/V1#CL_MV--CLASCD> ;
	bd:includesVariable <http://www.cdisc.org/SDTMMODEL_INTERVENTIONS/V1#CL_MV--DOSE> ;
	bd:includesVariable <http://www.cdisc.org/SDTMMODEL_INTERVENTIONS/V1#CL_MV--DOSTXT> ;
	bd:includesVariable <http://www.cdisc.org/SDTMMODEL_INTERVENTIONS/V1#CL_MV--DOSU> ;
	bd:includesVariable <http://www.cdisc.org/SDTMMODEL_INTERVENTIONS/V1#CL_MV--DOSFRM> ;
	bd:includesVariable <http://www.cdisc.org/SDTMMODEL_INTERVENTIONS/V1#CL_MV--DOSFRQ> ;
	bd:includesVariable <http://www.cdisc.org/SDTMMODEL_INTERVENTIONS/V1#CL_MV--DOSTOT> ;
	bd:includesVariable <http://www.cdisc.org/SDTMMODEL_INTERVENTIONS/V1#CL_MV--DOSRGM> ;
	bd:includesVariable <http://www.cdisc.org/SDTMMODEL_INTERVENTIONS/V1#CL_MV--ROUTE> ;
	bd:includesVariable <http://www.cdisc.org/SDTMMODEL_INTERVENTIONS/V1#CL_MV--LOT> ;
	bd:includesVariable <http://www.cdisc.org/SDTMMODEL_INTERVENTIONS/V1#CL_MV--PSTRG> ;
	bd:includesVariable <http://www.cdisc.org/SDTMMODEL_INTERVENTIONS/V1#CL_MV--PSTRGU> ;
	bd:includesVariable <http://www.cdisc.org/SDTMMODEL_INTERVENTIONS/V1#CL_MV--TRTV> ;
	bd:includesVariable <http://www.cdisc.org/SDTMMODEL_INTERVENTIONS/V1#CL_MV--VAMT> ;
	bd:includesVariable <http://www.cdisc.org/SDTMMODEL_INTERVENTIONS/V1#CL_MV--VAMTU> ;
	bd:includesVariable <http://www.cdisc.org/SDTMMODEL_INTERVENTIONS/V1#CL_MV--ADJ> ;
	bd:includesVariable <http://www.cdisc.org/SDTMMODEL_SPECIAL_PURPOSE/V1#CL_MVSUBJID> ;
	bd:includesVariable <http://www.cdisc.org/SDTMMODEL_SPECIAL_PURPOSE/V1#CL_MVRFSTDTC> ;
	bd:includesVariable <http://www.cdisc.org/SDTMMODEL_SPECIAL_PURPOSE/V1#CL_MVRFENDTC> ;
	bd:includesVariable <http://www.cdisc.org/SDTMMODEL_SPECIAL_PURPOSE/V1#CL_MVRFXSTDTC> ;
	bd:includesVariable <http://www.cdisc.org/SDTMMODEL_SPECIAL_PURPOSE/V1#CL_MVRFXENDTC> ;
	bd:includesVariable <http://www.cdisc.org/SDTMMODEL_SPECIAL_PURPOSE/V1#CL_MVRFICDTC> ;
	bd:includesVariable <http://www.cdisc.org/SDTMMODEL_SPECIAL_PURPOSE/V1#CL_MVRFPENDTC> ;
	bd:includesVariable <http://www.cdisc.org/SDTMMODEL_SPECIAL_PURPOSE/V1#CL_MVDTHDTC> ;
	bd:includesVariable <http://www.cdisc.org/SDTMMODEL_SPECIAL_PURPOSE/V1#CL_MVDTHFL> ;
	bd:includesVariable <http://www.cdisc.org/SDTMMODEL_SPECIAL_PURPOSE/V1#CL_MVSITEID> ;
	bd:includesVariable <http://www.cdisc.org/SDTMMODEL_SPECIAL_PURPOSE/V1#CL_MVINVID> ;
	bd:includesVariable <http://www.cdisc.org/SDTMMODEL_SPECIAL_PURPOSE/V1#CL_MVINVNAM> ;
	bd:includesVariable <http://www.cdisc.org/SDTMMODEL_SPECIAL_PURPOSE/V1#CL_MVBRTHDTC> ;
	bd:includesVariable <http://www.cdisc.org/SDTMMODEL_SPECIAL_PURPOSE/V1#CL_MVAGE> ;
	bd:includesVariable <http://www.cdisc.org/SDTMMODEL_SPECIAL_PURPOSE/V1#CL_MVAGEU> ;
	bd:includesVariable <http://www.cdisc.org/SDTMMODEL_SPECIAL_PURPOSE/V1#CL_MVSEX> ;
	bd:includesVariable <http://www.cdisc.org/SDTMMODEL_SPECIAL_PURPOSE/V1#CL_MVRACE> ;
	bd:includesVariable <http://www.cdisc.org/SDTMMODEL_SPECIAL_PURPOSE/V1#CL_MVETHNIC> ;
	bd:includesVariable <http://www.cdisc.org/SDTMMODEL_SPECIAL_PURPOSE/V1#CL_MVSPECIES> ;
	bd:includesVariable <http://www.cdisc.org/SDTMMODEL_SPECIAL_PURPOSE/V1#CL_MVSTRAIN> ;
	bd:includesVariable <http://www.cdisc.org/SDTMMODEL_SPECIAL_PURPOSE/V1#CL_MVARMCD> ;
	bd:includesVariable <http://www.cdisc.org/SDTMMODEL_SPECIAL_PURPOSE/V1#CL_MVARM> ;
	bd:includesVariable <http://www.cdisc.org/SDTMMODEL_SPECIAL_PURPOSE/V1#CL_MVACTARMCD> ;
	bd:includesVariable <http://www.cdisc.org/SDTMMODEL_SPECIAL_PURPOSE/V1#CL_MVACTARM> ;
	bd:includesVariable <http://www.cdisc.org/SDTMMODEL_SPECIAL_PURPOSE/V1#CL_MVSETCD> ;
	bd:includesVariable <http://www.cdisc.org/SDTMMODEL_SPECIAL_PURPOSE/V1#CL_MVCOUNTRY> ;
	bd:includesVariable <http://www.cdisc.org/SDTMMODEL_SPECIAL_PURPOSE/V1#CL_MVRDOMAIN> ;
	bd:includesVariable <http://www.cdisc.org/SDTMMODEL_SPECIAL_PURPOSE/V1#CL_MVIDVAR> ;
	bd:includesVariable <http://www.cdisc.org/SDTMMODEL_SPECIAL_PURPOSE/V1#CL_MVIDVARVAL> ;
	bd:includesVariable <http://www.cdisc.org/SDTMMODEL_SPECIAL_PURPOSE/V1#CL_MV--REF> ;
	bd:includesVariable <http://www.cdisc.org/SDTMMODEL_SPECIAL_PURPOSE/V1#CL_MV--VAL> ;
	bd:includesVariable <http://www.cdisc.org/SDTMMODEL_SPECIAL_PURPOSE/V1#CL_MVETCD> ;
	bd:includesVariable <http://www.cdisc.org/SDTMMODEL_SPECIAL_PURPOSE/V1#CL_MVELEMENT> ;
	bd:includesVariable <http://www.cdisc.org/SDTMMODEL_SPECIAL_PURPOSE/V1#CL_MV--UPDES> ;
	bd:includesVariable <http://www.cdisc.org/SDTMMODEL_TRIAL_DESIGN/V1#CL_MV--STRL> ;
	bd:includesVariable <http://www.cdisc.org/SDTMMODEL_TRIAL_DESIGN/V1#CL_MV--ENRL> ;
	bd:includesVariable <http://www.cdisc.org/SDTMMODEL_TRIAL_DESIGN/V1#CL_MV--BRANCH> ;
	bd:includesVariable <http://www.cdisc.org/SDTMMODEL_TRIAL_DESIGN/V1#CL_MV--TRANS> ;
	bd:includesVariable <http://www.cdisc.org/SDTMMODEL_TRIAL_DESIGN/V1#CL_MVSET> ;
	bd:includesVariable <http://www.cdisc.org/SDTMMODEL_TRIAL_DESIGN/V1#CL_MVIETESTCD> ;
	bd:includesVariable <http://www.cdisc.org/SDTMMODEL_TRIAL_DESIGN/V1#CL_MVIETEST> ;
	bd:includesVariable <http://www.cdisc.org/SDTMMODEL_TRIAL_DESIGN/V1#CL_MVIECAT> ;
	bd:includesVariable <http://www.cdisc.org/SDTMMODEL_TRIAL_DESIGN/V1#CL_MVIESCAT> ;
	bd:includesVariable <http://www.cdisc.org/SDTMMODEL_TRIAL_DESIGN/V1#CL_MV--RL> ;
	bd:includesVariable <http://www.cdisc.org/SDTMMODEL_TRIAL_DESIGN/V1#CL_MV--VERS> ;
	bd:includesVariable <http://www.cdisc.org/SDTMMODEL_TRIAL_DESIGN/V1#CL_MV--PARMCD> ;
	bd:includesVariable <http://www.cdisc.org/SDTMMODEL_TRIAL_DESIGN/V1#CL_MV--PARM> ;
	bd:includesVariable <http://www.cdisc.org/SDTMMODEL_TRIAL_DESIGN/V1#CL_MV--VALNF> ;
	bd:includesVariable <http://www.cdisc.org/SDTMMODEL_TRIAL_DESIGN/V1#CL_MV--VALCD> ;
	bd:includesVariable <http://www.cdisc.org/SDTMMODEL_TRIAL_DESIGN/V1#CL_MV--VCDREF> ;
	bd:includesVariable <http://www.cdisc.org/SDTMMODEL_TRIAL_DESIGN/V1#CL_MV--VCDVER> ;
	bd:includesVariable <http://www.cdisc.org/SDTMMODEL_TRIAL_DESIGN/V1#CL_MV--ORDER> ;
	bd:includesVariable <http://www.cdisc.org/SDTMMODEL_TRIAL_DESIGN/V1#CL_MV--ANCVAR> ;
	bd:includesVariable <http://www.cdisc.org/SDTMMODEL_TRIAL_DESIGN/V1#CL_MV--STOFF> ;
	bd:includesVariable <http://www.cdisc.org/SDTMMODEL_TRIAL_DESIGN/V1#CL_MV--TGTPAI> ;
	bd:includesVariable <http://www.cdisc.org/SDTMMODEL_TRIAL_DESIGN/V1#CL_MV--MINPAI> ;
	bd:includesVariable <http://www.cdisc.org/SDTMMODEL_TRIAL_DESIGN/V1#CL_MV--MAXPAI> ;
	bd:includesVariable <http://www.cdisc.org/SDTMMODEL_TRIAL_DESIGN/V1#CL_MV--NUMRPT> ;
	bd:includesVariable <http://www.cdisc.org/SDTMMODEL_RELATIONSHIP/V1#CL_MVRELTYPE> ;
	bd:includesVariable <http://www.cdisc.org/SDTMMODEL_RELATIONSHIP/V1#CL_MVRELID> ;
	bd:includesVariable <http://www.cdisc.org/SDTMMODEL_RELATIONSHIP/V1#CL_MVQNAM> ;
	bd:includesVariable <http://www.cdisc.org/SDTMMODEL_RELATIONSHIP/V1#CL_MVQLABEL> ;
	bd:includesVariable <http://www.cdisc.org/SDTMMODEL_RELATIONSHIP/V1#CL_MVQVAL> ;
	bd:includesVariable <http://www.cdisc.org/SDTMMODEL_RELATIONSHIP/V1#CL_MVQORIG> ;
	bd:includesVariable <http://www.cdisc.org/SDTMMODEL_RELATIONSHIP/V1#CL_MVQEVAL> ;
.
:M_RS
	rdf:type isoR:RegistrationState ;
	isoR:registrationStatus "Standard"^^xsd:string ;
	isoR:administrativeNote ""^^xsd:string ;
	isoR:effectiveDate "2016-01-01T00:00:00+00:00"^^xsd:dateTime ;
	isoR:untilDate "2016-01-01T00:00:00+00:00"^^xsd:dateTime ;
	isoR:unresolvedIssue ""^^xsd:string ;
	isoR:administrativeStatus ""^^xsd:string ;
	isoR:previousState "Standard"^^xsd:string ;
	isoR:multipleEdit "false"^^xsd:boolean ;
	isoR:byAuthority <http://www.assero.co.uk/RA#DUNS084433759> ;
.
:M_SI
	rdf:type isoI:ScopedIdentifier ;
	isoI:identifier "SDTM MODEL"^^xsd:string ;
	isoI:versionLabel "1.1.1"^^xsd:string ;
	isoI:version "1"^^xsd:positiveInteger ;
	isoI:semanticVersion "1.1.1"^^xsd:string ;
	isoI:hasScope <http://www.assero.co.uk/NS#CDISC> ;
.
:M_R1
	rdf:type bo:Reference ;
	isoC:label ""^^xsd:string ;
	bo:enabled "true"^^xsd:boolean ;
	bo:optional "false"^^xsd:boolean ;
	bo:ordinal "1"^^xsd:positiveInteger ;
	bo:reference <http://www.cdisc.org/SDTMMODEL_ASSOCIATED_PERSONS/V1#CL> ;
.
:M_R2
	rdf:type bo:Reference ;
	isoC:label ""^^xsd:string ;
	bo:enabled "true"^^xsd:boolean ;
	bo:optional "false"^^xsd:boolean ;
	bo:ordinal "2"^^xsd:positiveInteger ;
	bo:reference <http://www.cdisc.org/SDTMMODEL_EVENTS/V1#CL> ;
.
:M_R3
	rdf:type bo:Reference ;
	isoC:label ""^^xsd:string ;
	bo:enabled "true"^^xsd:boolean ;
	bo:optional "false"^^xsd:boolean ;
	bo:ordinal "3"^^xsd:positiveInteger ;
	bo:reference <http://www.cdisc.org/SDTMMODEL_FINDINGS_ABOUT/V1#CL> ;
.
:M_R4
	rdf:type bo:Reference ;
	isoC:label ""^^xsd:string ;
	bo:enabled "true"^^xsd:boolean ;
	bo:optional "false"^^xsd:boolean ;
	bo:ordinal "4"^^xsd:positiveInteger ;
	bo:reference <http://www.cdisc.org/SDTMMODEL_FINDINGS/V1#CL> ;
.
:M_R5
	rdf:type bo:Reference ;
	isoC:label ""^^xsd:string ;
	bo:enabled "true"^^xsd:boolean ;
	bo:optional "false"^^xsd:boolean ;
	bo:ordinal "5"^^xsd:positiveInteger ;
	bo:reference <http://www.cdisc.org/SDTMMODEL_INTERVENTIONS/V1#CL> ;
.
:M_R6
	rdf:type bo:Reference ;
	isoC:label ""^^xsd:string ;
	bo:enabled "true"^^xsd:boolean ;
	bo:optional "false"^^xsd:boolean ;
	bo:ordinal "6"^^xsd:positiveInteger ;
	bo:reference <http://www.cdisc.org/SDTMMODEL_SPECIAL_PURPOSE/V1#CL> ;
.
:M_R7
	rdf:type bo:Reference ;
	isoC:label ""^^xsd:string ;
	bo:enabled "true"^^xsd:boolean ;
	bo:optional "false"^^xsd:boolean ;
	bo:ordinal "7"^^xsd:positiveInteger ;
	bo:reference <http://www.cdisc.org/SDTMMODEL_TRIAL_DESIGN/V1#CL> ;
.
:M_R8
	rdf:type bo:Reference ;
	isoC:label ""^^xsd:string ;
	bo:enabled "true"^^xsd:boolean ;
	bo:optional "false"^^xsd:boolean ;
	bo:ordinal "8"^^xsd:positiveInteger ;
	bo:reference <http://www.cdisc.org/SDTMMODEL_RELATIONSHIP/V1#CL> ;
.
<http://www.cdisc.org/SDTMMODEL_ALL/V1#CL_MVSTUDYID>
	rdf:type bd:SdtmModelVariable ;
	isoC:label "Study Identifier"^^xsd:string ;
	bd:rule ""^^xsd:string ;
	bd:ordinal "1"^^xsd:positiveInteger ;
	bd:name "STUDYID"^^xsd:string ;
	bd:prefixed "false"^^xsd:boolean ;
	bd:description "Unique identifier for a study."^^xsd:string ;
	bd:typedAs <http://www.assero.co.uk/CSN#c2ce7061-4855-450e-ba00-aa827986d372> ;
	bd:classifiedAs <http://www.assero.co.uk/CSN#458c1199-0f76-4221-b225-c950dab00cd8> ;
.
<http://www.cdisc.org/SDTMMODEL_ALL/V1#CL_MVDOMAIN>
	rdf:type bd:SdtmModelVariable ;
	isoC:label "Domain Abbreviation"^^xsd:string ;
	bd:rule ""^^xsd:string ;
	bd:ordinal "2"^^xsd:positiveInteger ;
	bd:name "DOMAIN"^^xsd:string ;
	bd:prefixed "false"^^xsd:boolean ;
	bd:description "Two-character abbreviation for the domain most relevant to the observation. The Domain abbreviation is also used as a prefix for variables to ensure uniqueness when datasets are merged."^^xsd:string ;
	bd:typedAs <http://www.assero.co.uk/CSN#c2ce7061-4855-450e-ba00-aa827986d372> ;
	bd:classifiedAs <http://www.assero.co.uk/CSN#458c1199-0f76-4221-b225-c950dab00cd8> ;
.
<http://www.cdisc.org/SDTMMODEL_ALL/V1#CL_MVUSUBJID>
	rdf:type bd:SdtmModelVariable ;
	isoC:label "Unique Subject Identifier"^^xsd:string ;
	bd:rule ""^^xsd:string ;
	bd:ordinal "3"^^xsd:positiveInteger ;
	bd:name "USUBJID"^^xsd:string ;
	bd:prefixed "false"^^xsd:boolean ;
	bd:description "Identifier used to uniquely identify a subject across all studies for all applications or submissions involving the product."^^xsd:string ;
	bd:typedAs <http://www.assero.co.uk/CSN#c2ce7061-4855-450e-ba00-aa827986d372> ;
	bd:classifiedAs <http://www.assero.co.uk/CSN#458c1199-0f76-4221-b225-c950dab00cd8> ;
.
<http://www.cdisc.org/SDTMMODEL_ALL/V1#CL_MVPOOLID>
	rdf:type bd:SdtmModelVariable ;
	isoC:label "Pool Identifier"^^xsd:string ;
	bd:rule ""^^xsd:string ;
	bd:ordinal "4"^^xsd:positiveInteger ;
	bd:name "POOLID"^^xsd:string ;
	bd:prefixed "false"^^xsd:boolean ;
	bd:description "An identifier used to identify a result from a group of subjects that is not assignable to a specific subject."^^xsd:string ;
	bd:typedAs <http://www.assero.co.uk/CSN#c2ce7061-4855-450e-ba00-aa827986d372> ;
	bd:classifiedAs <http://www.assero.co.uk/CSN#458c1199-0f76-4221-b225-c950dab00cd8> ;
.
<http://www.cdisc.org/SDTMMODEL_ALL/V1#CL_MVSPDEVID>
	rdf:type bd:SdtmModelVariable ;
	isoC:label "Sponsor Device Identifier"^^xsd:string ;
	bd:rule ""^^xsd:string ;
	bd:ordinal "5"^^xsd:positiveInteger ;
	bd:name "SPDEVID"^^xsd:string ;
	bd:prefixed "false"^^xsd:boolean ;
	bd:description "Sponsor-defined identifier for a device"^^xsd:string ;
	bd:typedAs <http://www.assero.co.uk/CSN#c2ce7061-4855-450e-ba00-aa827986d372> ;
	bd:classifiedAs <http://www.assero.co.uk/CSN#458c1199-0f76-4221-b225-c950dab00cd8> ;
.
<http://www.cdisc.org/SDTMMODEL_ALL/V1#CL_MV--SEQ>
	rdf:type bd:SdtmModelVariable ;
	isoC:label "Sequence Number"^^xsd:string ;
	bd:rule ""^^xsd:string ;
	bd:ordinal "6"^^xsd:positiveInteger ;
	bd:name "--SEQ"^^xsd:string ;
	bd:prefixed "true"^^xsd:boolean ;
	bd:description "Sequence number to ensure uniqueness of records within a dataset for a subject (or within a parameter, in the case of the Trial Summary domain). May be any valid number (including decimals) and does not have to start at 1."^^xsd:string ;
	bd:typedAs <http://www.assero.co.uk/CSN#4261b4e8-fbdf-4236-97e4-93f09b376547> ;
	bd:classifiedAs <http://www.assero.co.uk/CSN#458c1199-0f76-4221-b225-c950dab00cd8> ;
.
<http://www.cdisc.org/SDTMMODEL_ALL/V1#CL_MV--GRPID>
	rdf:type bd:SdtmModelVariable ;
	isoC:label "Group ID"^^xsd:string ;
	bd:rule ""^^xsd:string ;
	bd:ordinal "7"^^xsd:positiveInteger ;
	bd:name "--GRPID"^^xsd:string ;
	bd:prefixed "true"^^xsd:boolean ;
	bd:description "Optional group identifier, used to link together a block of related records within a subject in a domain. Also used to link together a block of related records in the Trial Summary dataset (Section 3.4)."^^xsd:string ;
	bd:typedAs <http://www.assero.co.uk/CSN#c2ce7061-4855-450e-ba00-aa827986d372> ;
	bd:classifiedAs <http://www.assero.co.uk/CSN#458c1199-0f76-4221-b225-c950dab00cd8> ;
.
<http://www.cdisc.org/SDTMMODEL_ALL/V1#CL_MV--REFID>
	rdf:type bd:SdtmModelVariable ;
	isoC:label "Reference ID"^^xsd:string ;
	bd:rule ""^^xsd:string ;
	bd:ordinal "8"^^xsd:positiveInteger ;
	bd:name "--REFID"^^xsd:string ;
	bd:prefixed "true"^^xsd:boolean ;
	bd:description "Optional internal or external identifier such as lab specimen ID, or UUID for an ECG waveform or a medical image."^^xsd:string ;
	bd:typedAs <http://www.assero.co.uk/CSN#c2ce7061-4855-450e-ba00-aa827986d372> ;
	bd:classifiedAs <http://www.assero.co.uk/CSN#458c1199-0f76-4221-b225-c950dab00cd8> ;
.
<http://www.cdisc.org/SDTMMODEL_ALL/V1#CL_MV--SPID>
	rdf:type bd:SdtmModelVariable ;
	isoC:label "Sponsor-Defined Identifier"^^xsd:string ;
	bd:rule ""^^xsd:string ;
	bd:ordinal "9"^^xsd:positiveInteger ;
	bd:name "--SPID"^^xsd:string ;
	bd:prefixed "true"^^xsd:boolean ;
	bd:description "Sponsor-defined identifier. Example: pre-printed line identifier on a Concomitant Medications page."^^xsd:string ;
	bd:typedAs <http://www.assero.co.uk/CSN#c2ce7061-4855-450e-ba00-aa827986d372> ;
	bd:classifiedAs <http://www.assero.co.uk/CSN#458c1199-0f76-4221-b225-c950dab00cd8> ;
.
<http://www.cdisc.org/SDTMMODEL_ALL/V1#CL_MV--LNKID>
	rdf:type bd:SdtmModelVariable ;
	isoC:label "Link ID"^^xsd:string ;
	bd:rule ""^^xsd:string ;
	bd:ordinal "10"^^xsd:positiveInteger ;
	bd:name "--LNKID"^^xsd:string ;
	bd:prefixed "true"^^xsd:boolean ;
	bd:description "Identifier used to link related records across domains. This may be a one-to-one or a one-to-many relationship. For Example: A single tumor may have multiple measurements/assessments performed at each study visit."^^xsd:string ;
	bd:typedAs <http://www.assero.co.uk/CSN#c2ce7061-4855-450e-ba00-aa827986d372> ;
	bd:classifiedAs <http://www.assero.co.uk/CSN#458c1199-0f76-4221-b225-c950dab00cd8> ;
.
<http://www.cdisc.org/SDTMMODEL_ALL/V1#CL_MV--LNKGRP>
	rdf:type bd:SdtmModelVariable ;
	isoC:label "Link Group ID"^^xsd:string ;
	bd:rule ""^^xsd:string ;
	bd:ordinal "11"^^xsd:positiveInteger ;
	bd:name "--LNKGRP"^^xsd:string ;
	bd:prefixed "true"^^xsd:boolean ;
	bd:description "Identifier used to link related records across domains. This will usually be a many-to-one relationship. For example: Multiple tumor measurements/assessments will contribute to a single response to therapy determination record."^^xsd:string ;
	bd:typedAs <http://www.assero.co.uk/CSN#c2ce7061-4855-450e-ba00-aa827986d372> ;
	bd:classifiedAs <http://www.assero.co.uk/CSN#458c1199-0f76-4221-b225-c950dab00cd8> ;
.
<http://www.cdisc.org/SDTMMODEL_ALL/V1#CL_MVVISITNUM>
	rdf:type bd:SdtmModelVariable ;
	isoC:label "Visit Number"^^xsd:string ;
	bd:rule ""^^xsd:string ;
	bd:ordinal "12"^^xsd:positiveInteger ;
	bd:name "VISITNUM"^^xsd:string ;
	bd:prefixed "false"^^xsd:boolean ;
	bd:description "Clinical encounter number. Numeric version of VISIT, used for sorting."^^xsd:string ;
	bd:typedAs <http://www.assero.co.uk/CSN#4261b4e8-fbdf-4236-97e4-93f09b376547> ;
	bd:classifiedAs <http://www.assero.co.uk/CSN#66ff773d-9a9e-47c0-a6ca-d462bd1aea79> ;
.
<http://www.cdisc.org/SDTMMODEL_ALL/V1#CL_MVVISIT>
	rdf:type bd:SdtmModelVariable ;
	isoC:label "Visit Name"^^xsd:string ;
	bd:rule ""^^xsd:string ;
	bd:ordinal "13"^^xsd:positiveInteger ;
	bd:name "VISIT"^^xsd:string ;
	bd:prefixed "false"^^xsd:boolean ;
	bd:description "Protocol-defined description of a clinical encounter."^^xsd:string ;
	bd:typedAs <http://www.assero.co.uk/CSN#c2ce7061-4855-450e-ba00-aa827986d372> ;
	bd:classifiedAs <http://www.assero.co.uk/CSN#66ff773d-9a9e-47c0-a6ca-d462bd1aea79> ;
.
<http://www.cdisc.org/SDTMMODEL_ALL/V1#CL_MVVISITDY>
	rdf:type bd:SdtmModelVariable ;
	isoC:label "Planned Study Day of Visit"^^xsd:string ;
	bd:rule ""^^xsd:string ;
	bd:ordinal "14"^^xsd:positiveInteger ;
	bd:name "VISITDY"^^xsd:string ;
	bd:prefixed "false"^^xsd:boolean ;
	bd:description "Planned study day of VISIT. Should be an integer."^^xsd:string ;
	bd:typedAs <http://www.assero.co.uk/CSN#4261b4e8-fbdf-4236-97e4-93f09b376547> ;
	bd:classifiedAs <http://www.assero.co.uk/CSN#66ff773d-9a9e-47c0-a6ca-d462bd1aea79> ;
.
<http://www.cdisc.org/SDTMMODEL_ALL/V1#CL_MVTAETORD>
	rdf:type bd:SdtmModelVariable ;
	isoC:label "Planned Order of Element within Arm"^^xsd:string ;
	bd:rule ""^^xsd:string ;
	bd:ordinal "15"^^xsd:positiveInteger ;
	bd:name "TAETORD"^^xsd:string ;
	bd:prefixed "false"^^xsd:boolean ;
	bd:description "Number that gives the planned order of the Element within the Arm (see Trial Arms, Section 3.2.2 )."^^xsd:string ;
	bd:typedAs <http://www.assero.co.uk/CSN#4261b4e8-fbdf-4236-97e4-93f09b376547> ;
	bd:classifiedAs <http://www.assero.co.uk/CSN#66ff773d-9a9e-47c0-a6ca-d462bd1aea79> ;
.
<http://www.cdisc.org/SDTMMODEL_ALL/V1#CL_MVEPOCH>
	rdf:type bd:SdtmModelVariable ;
	isoC:label "Epoch"^^xsd:string ;
	bd:rule ""^^xsd:string ;
	bd:ordinal "16"^^xsd:positiveInteger ;
	bd:name "EPOCH"^^xsd:string ;
	bd:prefixed "false"^^xsd:boolean ;
	bd:description "Epoch associated with the start date/time of the observation, or the date/time of collection if start date/time is not collected. (See Section 3.2.2)."^^xsd:string ;
	bd:typedAs <http://www.assero.co.uk/CSN#c2ce7061-4855-450e-ba00-aa827986d372> ;
	bd:classifiedAs <http://www.assero.co.uk/CSN#66ff773d-9a9e-47c0-a6ca-d462bd1aea79> ;
.
<http://www.cdisc.org/SDTMMODEL_ALL/V1#CL_MV--DTC>
	rdf:type bd:SdtmModelVariable ;
	isoC:label "Date/Time of Collection"^^xsd:string ;
	bd:rule ""^^xsd:string ;
	bd:ordinal "17"^^xsd:positiveInteger ;
	bd:name "--DTC"^^xsd:string ;
	bd:prefixed "true"^^xsd:boolean ;
	bd:description "Collection date and time of an observation represented in IS0 8601 character format."^^xsd:string ;
	bd:typedAs <http://www.assero.co.uk/CSN#c2ce7061-4855-450e-ba00-aa827986d372> ;
	bd:classifiedAs <http://www.assero.co.uk/CSN#66ff773d-9a9e-47c0-a6ca-d462bd1aea79> ;
.
<http://www.cdisc.org/SDTMMODEL_ALL/V1#CL_MV--STDTC>
	rdf:type bd:SdtmModelVariable ;
	isoC:label "Start Date/Time of Observation"^^xsd:string ;
	bd:rule ""^^xsd:string ;
	bd:ordinal "18"^^xsd:positiveInteger ;
	bd:name "--STDTC"^^xsd:string ;
	bd:prefixed "true"^^xsd:boolean ;
	bd:description "Start date/time of an observation represented in IS0 8601 character format."^^xsd:string ;
	bd:typedAs <http://www.assero.co.uk/CSN#c2ce7061-4855-450e-ba00-aa827986d372> ;
	bd:classifiedAs <http://www.assero.co.uk/CSN#66ff773d-9a9e-47c0-a6ca-d462bd1aea79> ;
.
<http://www.cdisc.org/SDTMMODEL_ALL/V1#CL_MV--ENDTC>
	rdf:type bd:SdtmModelVariable ;
	isoC:label "End Date/Time of Observation"^^xsd:string ;
	bd:rule ""^^xsd:string ;
	bd:ordinal "19"^^xsd:positiveInteger ;
	bd:name "--ENDTC"^^xsd:string ;
	bd:prefixed "true"^^xsd:boolean ;
	bd:description "End date/time of the observation represented in IS0 8601 character format."^^xsd:string ;
	bd:typedAs <http://www.assero.co.uk/CSN#c2ce7061-4855-450e-ba00-aa827986d372> ;
	bd:classifiedAs <http://www.assero.co.uk/CSN#66ff773d-9a9e-47c0-a6ca-d462bd1aea79> ;
.
<http://www.cdisc.org/SDTMMODEL_ALL/V1#CL_MV--DY>
	rdf:type bd:SdtmModelVariable ;
	isoC:label "Study Day of Visit/Collection/Exam"^^xsd:string ;
	bd:rule ""^^xsd:string ;
	bd:ordinal "20"^^xsd:positiveInteger ;
	bd:name "--DY"^^xsd:string ;
	bd:prefixed "true"^^xsd:boolean ;
	bd:description "Actual study day of visit/collection/exam expressed in integer days relative to the sponsor-defined RFSTDTC in Demographics."^^xsd:string ;
	bd:typedAs <http://www.assero.co.uk/CSN#4261b4e8-fbdf-4236-97e4-93f09b376547> ;
	bd:classifiedAs <http://www.assero.co.uk/CSN#66ff773d-9a9e-47c0-a6ca-d462bd1aea79> ;
.
<http://www.cdisc.org/SDTMMODEL_ALL/V1#CL_MV--STDY>
	rdf:type bd:SdtmModelVariable ;
	isoC:label "Study Day of Start of Observation"^^xsd:string ;
	bd:rule ""^^xsd:string ;
	bd:ordinal "21"^^xsd:positiveInteger ;
	bd:name "--STDY"^^xsd:string ;
	bd:prefixed "true"^^xsd:boolean ;
	bd:description "Actual study day of start of observation expressed in integer days relative to the sponsor-defined RFSTDTC in Demographics."^^xsd:string ;
	bd:typedAs <http://www.assero.co.uk/CSN#4261b4e8-fbdf-4236-97e4-93f09b376547> ;
	bd:classifiedAs <http://www.assero.co.uk/CSN#66ff773d-9a9e-47c0-a6ca-d462bd1aea79> ;
.
<http://www.cdisc.org/SDTMMODEL_ALL/V1#CL_MV--ENDY>
	rdf:type bd:SdtmModelVariable ;
	isoC:label "Study Day of End of Observation"^^xsd:string ;
	bd:rule ""^^xsd:string ;
	bd:ordinal "22"^^xsd:positiveInteger ;
	bd:name "--ENDY"^^xsd:string ;
	bd:prefixed "true"^^xsd:boolean ;
	bd:description "Actual study day of end of observation expressed in integer days relative to the sponsor-defined RFSTDTC in Demographics."^^xsd:string ;
	bd:typedAs <http://www.assero.co.uk/CSN#4261b4e8-fbdf-4236-97e4-93f09b376547> ;
	bd:classifiedAs <http://www.assero.co.uk/CSN#66ff773d-9a9e-47c0-a6ca-d462bd1aea79> ;
.
<http://www.cdisc.org/SDTMMODEL_ALL/V1#CL_MV--DUR>
	rdf:type bd:SdtmModelVariable ;
	isoC:label "Duration"^^xsd:string ;
	bd:rule ""^^xsd:string ;
	bd:ordinal "23"^^xsd:positiveInteger ;
	bd:name "--DUR"^^xsd:string ;
	bd:prefixed "true"^^xsd:boolean ;
	bd:description "Collected duration of an event, intervention, or finding represented in ISO 8601 character format. Used only if collected on the CRF and not derived."^^xsd:string ;
	bd:typedAs <http://www.assero.co.uk/CSN#c2ce7061-4855-450e-ba00-aa827986d372> ;
	bd:classifiedAs <http://www.assero.co.uk/CSN#66ff773d-9a9e-47c0-a6ca-d462bd1aea79> ;
.
<http://www.cdisc.org/SDTMMODEL_ALL/V1#CL_MV--TPT>
	rdf:type bd:SdtmModelVariable ;
	isoC:label "Planned Time Point Name"^^xsd:string ;
	bd:rule ""^^xsd:string ;
	bd:ordinal "24"^^xsd:positiveInteger ;
	bd:name "--TPT"^^xsd:string ;
	bd:prefixed "true"^^xsd:boolean ;
	bd:description "Text description of time when a measurement or observation should be taken as defined in the protocol. This may be represented as an elapsed time relative to a fixed reference point, such as time of last dose. See --TPTNUM and --TPTREF."^^xsd:string ;
	bd:typedAs <http://www.assero.co.uk/CSN#c2ce7061-4855-450e-ba00-aa827986d372> ;
	bd:classifiedAs <http://www.assero.co.uk/CSN#66ff773d-9a9e-47c0-a6ca-d462bd1aea79> ;
.
<http://www.cdisc.org/SDTMMODEL_ALL/V1#CL_MV--TPTNUM>
	rdf:type bd:SdtmModelVariable ;
	isoC:label "Planned Time Point Number"^^xsd:string ;
	bd:rule ""^^xsd:string ;
	bd:ordinal "25"^^xsd:positiveInteger ;
	bd:name "--TPTNUM"^^xsd:string ;
	bd:prefixed "true"^^xsd:boolean ;
	bd:description "Numeric version of planned time point used in sorting."^^xsd:string ;
	bd:typedAs <http://www.assero.co.uk/CSN#4261b4e8-fbdf-4236-97e4-93f09b376547> ;
	bd:classifiedAs <http://www.assero.co.uk/CSN#66ff773d-9a9e-47c0-a6ca-d462bd1aea79> ;
.
<http://www.cdisc.org/SDTMMODEL_ALL/V1#CL_MV--ELTM>
	rdf:type bd:SdtmModelVariable ;
	isoC:label "Planned Elapsed Time from Time Point Ref"^^xsd:string ;
	bd:rule ""^^xsd:string ;
	bd:ordinal "26"^^xsd:positiveInteger ;
	bd:name "--ELTM"^^xsd:string ;
	bd:prefixed "true"^^xsd:boolean ;
	bd:description "Planned Elapsed time in ISO 8601 character format relative to a planned fixed reference (--TPTREF) such as \"Previous Dose\" or \"Previous Meal\". This variable is useful where there are repetitive measures. Not a clock time or a date/time variable, but an interval, represented as ISO duration."^^xsd:string ;
	bd:typedAs <http://www.assero.co.uk/CSN#c2ce7061-4855-450e-ba00-aa827986d372> ;
	bd:classifiedAs <http://www.assero.co.uk/CSN#66ff773d-9a9e-47c0-a6ca-d462bd1aea79> ;
.
<http://www.cdisc.org/SDTMMODEL_ALL/V1#CL_MV--TPTREF>
	rdf:type bd:SdtmModelVariable ;
	isoC:label "Time Point Reference"^^xsd:string ;
	bd:rule ""^^xsd:string ;
	bd:ordinal "27"^^xsd:positiveInteger ;
	bd:name "--TPTREF"^^xsd:string ;
	bd:prefixed "true"^^xsd:boolean ;
	bd:description "Description of the fixed reference point referred to by --ELTM, --TPTNUM, and --TPT. Examples: PREVIOUS DOSE, PREVIOUS MEAL."^^xsd:string ;
	bd:typedAs <http://www.assero.co.uk/CSN#c2ce7061-4855-450e-ba00-aa827986d372> ;
	bd:classifiedAs <http://www.assero.co.uk/CSN#66ff773d-9a9e-47c0-a6ca-d462bd1aea79> ;
.
<http://www.cdisc.org/SDTMMODEL_ALL/V1#CL_MV--RFTDTC>
	rdf:type bd:SdtmModelVariable ;
	isoC:label "Date/Time of Reference Time Point"^^xsd:string ;
	bd:rule ""^^xsd:string ;
	bd:ordinal "28"^^xsd:positiveInteger ;
	bd:name "--RFTDTC"^^xsd:string ;
	bd:prefixed "true"^^xsd:boolean ;
	bd:description "Date/time for a fixed reference time point defined by --TPTREF in ISO 8601 character format."^^xsd:string ;
	bd:typedAs <http://www.assero.co.uk/CSN#c2ce7061-4855-450e-ba00-aa827986d372> ;
	bd:classifiedAs <http://www.assero.co.uk/CSN#66ff773d-9a9e-47c0-a6ca-d462bd1aea79> ;
.
<http://www.cdisc.org/SDTMMODEL_ALL/V1#CL_MV--STRF>
	rdf:type bd:SdtmModelVariable ;
	isoC:label "Start Relative to Reference Period"^^xsd:string ;
	bd:rule ""^^xsd:string ;
	bd:ordinal "29"^^xsd:positiveInteger ;
	bd:name "--STRF"^^xsd:string ;
	bd:prefixed "true"^^xsd:boolean ;
	bd:description "Identifies the start of the observation as being before, during, or after the sponsor-defined reference period. The sponsor-defined reference period is a continuous period of time defined by a discrete starting point and a discrete ending point represented by RFSTDTC and RFENDTC in Demographics. \nNote: This variable will be deprecated (phased out) in a future (post SDTM v1.4) release. The functionality of this variable can be replaced by the use of --STRTPT with --STTPT = RFSTDTC."^^xsd:string ;
	bd:typedAs <http://www.assero.co.uk/CSN#c2ce7061-4855-450e-ba00-aa827986d372> ;
	bd:classifiedAs <http://www.assero.co.uk/CSN#66ff773d-9a9e-47c0-a6ca-d462bd1aea79> ;
.
<http://www.cdisc.org/SDTMMODEL_ALL/V1#CL_MV--ENRF>
	rdf:type bd:SdtmModelVariable ;
	isoC:label "End Relative to Reference Period"^^xsd:string ;
	bd:rule ""^^xsd:string ;
	bd:ordinal "30"^^xsd:positiveInteger ;
	bd:name "--ENRF"^^xsd:string ;
	bd:prefixed "true"^^xsd:boolean ;
	bd:description "Identifies the end of the observation as being before, during or after the sponsor-defined reference period. The sponsor-defined reference period is a continuous period of time defined by a discrete starting point and a discrete ending point represented by RFSTDTC and RFENDTC in Demographics. \nNote: This variable will be deprecated (phased out) in a future (post SDTM v1.4) release. The functionality of this variable can be replaced by the use of --ENRTPT with --ENTPT = RFENDTC."^^xsd:string ;
	bd:typedAs <http://www.assero.co.uk/CSN#c2ce7061-4855-450e-ba00-aa827986d372> ;
	bd:classifiedAs <http://www.assero.co.uk/CSN#66ff773d-9a9e-47c0-a6ca-d462bd1aea79> ;
.
<http://www.cdisc.org/SDTMMODEL_ALL/V1#CL_MV--EVLINT>
	rdf:type bd:SdtmModelVariable ;
	isoC:label "Evaluation Interval"^^xsd:string ;
	bd:rule ""^^xsd:string ;
	bd:ordinal "31"^^xsd:positiveInteger ;
	bd:name "--EVLINT"^^xsd:string ;
	bd:prefixed "true"^^xsd:boolean ;
	bd:description "Duration of interval associated with an observation such as a finding --TESTCD, represented in ISO 8601 character format. Example: -P2M to represent a period of the past 2 months as the evaluation interval for a question from a questionnaire such as SF-36."^^xsd:string ;
	bd:typedAs <http://www.assero.co.uk/CSN#c2ce7061-4855-450e-ba00-aa827986d372> ;
	bd:classifiedAs <http://www.assero.co.uk/CSN#66ff773d-9a9e-47c0-a6ca-d462bd1aea79> ;
.
<http://www.cdisc.org/SDTMMODEL_ALL/V1#CL_MV--EVINTX>
	rdf:type bd:SdtmModelVariable ;
	isoC:label "Evaluation Interval Text"^^xsd:string ;
	bd:rule ""^^xsd:string ;
	bd:ordinal "32"^^xsd:positiveInteger ;
	bd:name "--EVINTX"^^xsd:string ;
	bd:prefixed "true"^^xsd:boolean ;
	bd:description "Evaluation interval associated with an observation, where the interval is not able to be represented in ISO 8601 format. Examples: LIFETIME, LAST NIGHT, RECENTLY, OVER THE LAST FEW WEEKS."^^xsd:string ;
	bd:typedAs <http://www.assero.co.uk/CSN#c2ce7061-4855-450e-ba00-aa827986d372> ;
	bd:classifiedAs <http://www.assero.co.uk/CSN#66ff773d-9a9e-47c0-a6ca-d462bd1aea79> ;
.
<http://www.cdisc.org/SDTMMODEL_ALL/V1#CL_MV--STRTPT>
	rdf:type bd:SdtmModelVariable ;
	isoC:label "Start Relative to Reference Time Point"^^xsd:string ;
	bd:rule ""^^xsd:string ;
	bd:ordinal "33"^^xsd:positiveInteger ;
	bd:name "--STRTPT"^^xsd:string ;
	bd:prefixed "true"^^xsd:boolean ;
	bd:description "Identifies the start of the observation as being before or after the sponsor-defined reference time point defined by variable --STTPT."^^xsd:string ;
	bd:typedAs <http://www.assero.co.uk/CSN#c2ce7061-4855-450e-ba00-aa827986d372> ;
	bd:classifiedAs <http://www.assero.co.uk/CSN#66ff773d-9a9e-47c0-a6ca-d462bd1aea79> ;
.
<http://www.cdisc.org/SDTMMODEL_ALL/V1#CL_MV--STTPT>
	rdf:type bd:SdtmModelVariable ;
	isoC:label "Start Reference Time Point"^^xsd:string ;
	bd:rule ""^^xsd:string ;
	bd:ordinal "34"^^xsd:positiveInteger ;
	bd:name "--STTPT"^^xsd:string ;
	bd:prefixed "true"^^xsd:boolean ;
	bd:description "Description or date/time in ISO 8601 or other character format of the sponsor-defined reference point referred to by --STRTPT. Examples: \"2003-12-15\" or \"VISIT 1\"."^^xsd:string ;
	bd:typedAs <http://www.assero.co.uk/CSN#c2ce7061-4855-450e-ba00-aa827986d372> ;
	bd:classifiedAs <http://www.assero.co.uk/CSN#66ff773d-9a9e-47c0-a6ca-d462bd1aea79> ;
.
<http://www.cdisc.org/SDTMMODEL_ALL/V1#CL_MV--ENRTPT>
	rdf:type bd:SdtmModelVariable ;
	isoC:label "End Relative to Reference Time Point"^^xsd:string ;
	bd:rule ""^^xsd:string ;
	bd:ordinal "35"^^xsd:positiveInteger ;
	bd:name "--ENRTPT"^^xsd:string ;
	bd:prefixed "true"^^xsd:boolean ;
	bd:description "Identifies the end of the observation as being before or after the sponsor-defined reference time point defined by variable --ENTPT."^^xsd:string ;
	bd:typedAs <http://www.assero.co.uk/CSN#c2ce7061-4855-450e-ba00-aa827986d372> ;
	bd:classifiedAs <http://www.assero.co.uk/CSN#66ff773d-9a9e-47c0-a6ca-d462bd1aea79> ;
.
<http://www.cdisc.org/SDTMMODEL_ALL/V1#CL_MV--ENTPT>
	rdf:type bd:SdtmModelVariable ;
	isoC:label "End Reference Time Point"^^xsd:string ;
	bd:rule ""^^xsd:string ;
	bd:ordinal "36"^^xsd:positiveInteger ;
	bd:name "--ENTPT"^^xsd:string ;
	bd:prefixed "true"^^xsd:boolean ;
	bd:description "Description or date/time in ISO 8601 or other character format of the sponsor-defined reference point referred to by --ENRTPT. Examples: \"2003-12-25\" or \"VISIT 2\"."^^xsd:string ;
	bd:typedAs <http://www.assero.co.uk/CSN#c2ce7061-4855-450e-ba00-aa827986d372> ;
	bd:classifiedAs <http://www.assero.co.uk/CSN#66ff773d-9a9e-47c0-a6ca-d462bd1aea79> ;
.
<http://www.cdisc.org/SDTMMODEL_ALL/V1#CL_MV--STINT>
	rdf:type bd:SdtmModelVariable ;
	isoC:label "Planned Start of Assessment Interval"^^xsd:string ;
	bd:rule ""^^xsd:string ;
	bd:ordinal "37"^^xsd:positiveInteger ;
	bd:name "--STINT"^^xsd:string ;
	bd:prefixed "true"^^xsd:boolean ;
	bd:description "The start of a planned evaluation or assessment interval in ISO 8601 character format relative to the Time Point Reference (--TPTREF)."^^xsd:string ;
	bd:typedAs <http://www.assero.co.uk/CSN#c2ce7061-4855-450e-ba00-aa827986d372> ;
	bd:classifiedAs <http://www.assero.co.uk/CSN#66ff773d-9a9e-47c0-a6ca-d462bd1aea79> ;
.
<http://www.cdisc.org/SDTMMODEL_ALL/V1#CL_MV--ENINT>
	rdf:type bd:SdtmModelVariable ;
	isoC:label "Planned End of Assessment Interval"^^xsd:string ;
	bd:rule ""^^xsd:string ;
	bd:ordinal "38"^^xsd:positiveInteger ;
	bd:name "--ENINT"^^xsd:string ;
	bd:prefixed "true"^^xsd:boolean ;
	bd:description "The end of a planned evaluation or assessment interval in ISO 8601 character format relative to the Time Point Reference (--TPTREF)."^^xsd:string ;
	bd:typedAs <http://www.assero.co.uk/CSN#c2ce7061-4855-450e-ba00-aa827986d372> ;
	bd:classifiedAs <http://www.assero.co.uk/CSN#66ff773d-9a9e-47c0-a6ca-d462bd1aea79> ;
.
<http://www.cdisc.org/SDTMMODEL_ALL/V1#CL_MV--DETECT>
	rdf:type bd:SdtmModelVariable ;
	isoC:label "Time in Days to Detection"^^xsd:string ;
	bd:rule ""^^xsd:string ;
	bd:ordinal "39"^^xsd:positiveInteger ;
	bd:name "--DETECT"^^xsd:string ;
	bd:prefixed "true"^^xsd:boolean ;
	bd:description "The number of days from the start of dosing to the earliest detection of a condition or pathogen."^^xsd:string ;
	bd:typedAs <http://www.assero.co.uk/CSN#4261b4e8-fbdf-4236-97e4-93f09b376547> ;
	bd:classifiedAs <http://www.assero.co.uk/CSN#66ff773d-9a9e-47c0-a6ca-d462bd1aea79> ;
.
<http://www.cdisc.org/SDTMMODEL_ASSOCIATED_PERSONS/V1#CL_MVAPID>
	rdf:type bd:SdtmModelVariable ;
	isoC:label "Associated Persons Identifier"^^xsd:string ;
	bd:rule ""^^xsd:string ;
	bd:ordinal "1"^^xsd:positiveInteger ;
	bd:name "APID"^^xsd:string ;
	bd:prefixed "false"^^xsd:boolean ;
	bd:description "Identifier for a single associated person, a group of associated persons, or a pool of associated persons. If APID identifies a pool, POOLDEF records must exist for each associated person."^^xsd:string ;
	bd:typedAs <http://www.assero.co.uk/CSN#c2ce7061-4855-450e-ba00-aa827986d372> ;
	bd:classifiedAs <http://www.assero.co.uk/CSN#458c1199-0f76-4221-b225-c950dab00cd8> ;
.
<http://www.cdisc.org/SDTMMODEL_ASSOCIATED_PERSONS/V1#CL_MVRSUBJID>
	rdf:type bd:SdtmModelVariable ;
	isoC:label "Related Subject"^^xsd:string ;
	bd:rule ""^^xsd:string ;
	bd:ordinal "2"^^xsd:positiveInteger ;
	bd:name "RSUBJID"^^xsd:string ;
	bd:prefixed "false"^^xsd:boolean ;
	bd:description "Identifier for a related study subject or pool of study subjects. The subject(s) may be human or animal. RSUBJID will be populated with the USUBJID of the related subject or the POOLID of the related pool.\nRSUBJID will be null for data about associated persons who are related to the study but not to any of the study subjects."^^xsd:string ;
	bd:typedAs <http://www.assero.co.uk/CSN#c2ce7061-4855-450e-ba00-aa827986d372> ;
	bd:classifiedAs <http://www.assero.co.uk/CSN#458c1199-0f76-4221-b225-c950dab00cd8> ;
.
<http://www.cdisc.org/SDTMMODEL_ASSOCIATED_PERSONS/V1#CL_MVRDEVID>
	rdf:type bd:SdtmModelVariable ;
	isoC:label "Related Device"^^xsd:string ;
	bd:rule ""^^xsd:string ;
	bd:ordinal "3"^^xsd:positiveInteger ;
	bd:name "RDEVID"^^xsd:string ;
	bd:prefixed "false"^^xsd:boolean ;
	bd:description "Identifier for a related device. RDEVID will be populated with the SPDEVID of the related device"^^xsd:string ;
	bd:typedAs <http://www.assero.co.uk/CSN#c2ce7061-4855-450e-ba00-aa827986d372> ;
	bd:classifiedAs <http://www.assero.co.uk/CSN#458c1199-0f76-4221-b225-c950dab00cd8> ;
.
<http://www.cdisc.org/SDTMMODEL_ASSOCIATED_PERSONS/V1#CL_MVSREL>
	rdf:type bd:SdtmModelVariable ;
	isoC:label "Subject, Device, or Study Relationship"^^xsd:string ;
	bd:rule ""^^xsd:string ;
	bd:ordinal "4"^^xsd:positiveInteger ;
	bd:name "SREL"^^xsd:string ;
	bd:prefixed "false"^^xsd:boolean ;
	bd:description "If RSUBJID is populated, describes the relationship of the associated person(s) identified in APID to the subject or pool identified in RSUBJID.\nIf RDEVID is populated, describes the relationship of the associated person(s) identified in APID to the device identified in RDEVID. \nIf RSUBJID and RDEVID are null, SREL describes the relationship of the associated person(s) identified in APID to the study identified in STUDYID."^^xsd:string ;
	bd:typedAs <http://www.assero.co.uk/CSN#c2ce7061-4855-450e-ba00-aa827986d372> ;
	bd:classifiedAs <http://www.assero.co.uk/CSN#19f5fd25-36ea-44e7-aa2b-d8e62217c7d0> ;
.
<http://www.cdisc.org/SDTMMODEL_EVENTS/V1#CL_MV--TERM>
	rdf:type bd:SdtmModelVariable ;
	isoC:label "Reported Term"^^xsd:string ;
	bd:rule ""^^xsd:string ;
	bd:ordinal "1"^^xsd:positiveInteger ;
	bd:name "--TERM"^^xsd:string ;
	bd:prefixed "true"^^xsd:boolean ;
	bd:description "Topic variable for an event observation, which is the verbatim or pre-specified name of the event."^^xsd:string ;
	bd:typedAs <http://www.assero.co.uk/CSN#c2ce7061-4855-450e-ba00-aa827986d372> ;
	bd:classifiedAs <http://www.assero.co.uk/CSN#afe0d026-263a-42ad-b538-d50eaf8bc93d> ;
.
<http://www.cdisc.org/SDTMMODEL_EVENTS/V1#CL_MV--MODIFY>
	rdf:type bd:SdtmModelVariable ;
	isoC:label "Modified Reported Term"^^xsd:string ;
	bd:rule ""^^xsd:string ;
	bd:ordinal "2"^^xsd:positiveInteger ;
	bd:name "--MODIFY"^^xsd:string ;
	bd:prefixed "true"^^xsd:boolean ;
	bd:description "If the value for --TERM is modified for coding purposes, then the modified text is placed here."^^xsd:string ;
	bd:typedAs <http://www.assero.co.uk/CSN#c2ce7061-4855-450e-ba00-aa827986d372> ;
	bd:classifiedAs <http://www.assero.co.uk/CSN#9a5be74f-df82-4d83-93d9-1c4ab59f6cc1> ;
.
<http://www.cdisc.org/SDTMMODEL_EVENTS/V1#CL_MV--LLT>
	rdf:type bd:SdtmModelVariable ;
	isoC:label "Lowest Level Term"^^xsd:string ;
	bd:rule ""^^xsd:string ;
	bd:ordinal "3"^^xsd:positiveInteger ;
	bd:name "--LLT"^^xsd:string ;
	bd:prefixed "true"^^xsd:boolean ;
	bd:description "MedDRA Lowest Level Term."^^xsd:string ;
	bd:typedAs <http://www.assero.co.uk/CSN#c2ce7061-4855-450e-ba00-aa827986d372> ;
.
<http://www.cdisc.org/SDTMMODEL_EVENTS/V1#CL_MV--LLTCD>
	rdf:type bd:SdtmModelVariable ;
	isoC:label "Lowest Level Term Code"^^xsd:string ;
	bd:rule ""^^xsd:string ;
	bd:ordinal "4"^^xsd:positiveInteger ;
	bd:name "--LLTCD"^^xsd:string ;
	bd:prefixed "true"^^xsd:boolean ;
	bd:description "MedDRA Lowest Level Term code."^^xsd:string ;
	bd:typedAs <http://www.assero.co.uk/CSN#4261b4e8-fbdf-4236-97e4-93f09b376547> ;
.
<http://www.cdisc.org/SDTMMODEL_EVENTS/V1#CL_MV--DECOD>
	rdf:type bd:SdtmModelVariable ;
	isoC:label "Dictionary-Derived Term"^^xsd:string ;
	bd:rule ""^^xsd:string ;
	bd:ordinal "5"^^xsd:positiveInteger ;
	bd:name "--DECOD"^^xsd:string ;
	bd:prefixed "true"^^xsd:boolean ;
	bd:description "Dictionary or sponsor-defined derived text description of the topic variable, --TERM, or the modified topic variable (--MODIFY), if applicable. Equivalent to the Preferred Term (PT in MedDRA)."^^xsd:string ;
	bd:typedAs <http://www.assero.co.uk/CSN#c2ce7061-4855-450e-ba00-aa827986d372> ;
	bd:classifiedAs <http://www.assero.co.uk/CSN#9a5be74f-df82-4d83-93d9-1c4ab59f6cc1> ;
.
<http://www.cdisc.org/SDTMMODEL_EVENTS/V1#CL_MV--PTCD>
	rdf:type bd:SdtmModelVariable ;
	isoC:label "Preferred Term Code"^^xsd:string ;
	bd:rule ""^^xsd:string ;
	bd:ordinal "6"^^xsd:positiveInteger ;
	bd:name "--PTCD"^^xsd:string ;
	bd:prefixed "true"^^xsd:boolean ;
	bd:description "MedDRA Preferred Term code."^^xsd:string ;
	bd:typedAs <http://www.assero.co.uk/CSN#4261b4e8-fbdf-4236-97e4-93f09b376547> ;
.
<http://www.cdisc.org/SDTMMODEL_EVENTS/V1#CL_MV--HLT>
	rdf:type bd:SdtmModelVariable ;
	isoC:label "High Level Term"^^xsd:string ;
	bd:rule ""^^xsd:string ;
	bd:ordinal "7"^^xsd:positiveInteger ;
	bd:name "--HLT"^^xsd:string ;
	bd:prefixed "true"^^xsd:boolean ;
	bd:description "MedDRA High Level Term from the primary path."^^xsd:string ;
	bd:typedAs <http://www.assero.co.uk/CSN#c2ce7061-4855-450e-ba00-aa827986d372> ;
.
<http://www.cdisc.org/SDTMMODEL_EVENTS/V1#CL_MV--HLTCD>
	rdf:type bd:SdtmModelVariable ;
	isoC:label "High Level Term Code"^^xsd:string ;
	bd:rule ""^^xsd:string ;
	bd:ordinal "8"^^xsd:positiveInteger ;
	bd:name "--HLTCD"^^xsd:string ;
	bd:prefixed "true"^^xsd:boolean ;
	bd:description "MedDRA High Level Term code from the primary path."^^xsd:string ;
	bd:typedAs <http://www.assero.co.uk/CSN#4261b4e8-fbdf-4236-97e4-93f09b376547> ;
.
<http://www.cdisc.org/SDTMMODEL_EVENTS/V1#CL_MV--HLGT>
	rdf:type bd:SdtmModelVariable ;
	isoC:label "High Level Group Term"^^xsd:string ;
	bd:rule ""^^xsd:string ;
	bd:ordinal "9"^^xsd:positiveInteger ;
	bd:name "--HLGT"^^xsd:string ;
	bd:prefixed "true"^^xsd:boolean ;
	bd:description "MedDRA High Level Group Term from the primary path."^^xsd:string ;
	bd:typedAs <http://www.assero.co.uk/CSN#c2ce7061-4855-450e-ba00-aa827986d372> ;
.
<http://www.cdisc.org/SDTMMODEL_EVENTS/V1#CL_MV--HLGTCD>
	rdf:type bd:SdtmModelVariable ;
	isoC:label "High Level Group Term Code"^^xsd:string ;
	bd:rule ""^^xsd:string ;
	bd:ordinal "10"^^xsd:positiveInteger ;
	bd:name "--HLGTCD"^^xsd:string ;
	bd:prefixed "true"^^xsd:boolean ;
	bd:description "MedDRA High Level Group Term code from the primary path."^^xsd:string ;
	bd:typedAs <http://www.assero.co.uk/CSN#4261b4e8-fbdf-4236-97e4-93f09b376547> ;
.
<http://www.cdisc.org/SDTMMODEL_EVENTS/V1#CL_MV--CAT>
	rdf:type bd:SdtmModelVariable ;
	isoC:label "Category"^^xsd:string ;
	bd:rule ""^^xsd:string ;
	bd:ordinal "11"^^xsd:positiveInteger ;
	bd:name "--CAT"^^xsd:string ;
	bd:prefixed "true"^^xsd:boolean ;
	bd:description "Used to define a category of topic-variable values."^^xsd:string ;
	bd:typedAs <http://www.assero.co.uk/CSN#c2ce7061-4855-450e-ba00-aa827986d372> ;
	bd:classifiedAs <http://www.assero.co.uk/CSN#618b4fdd-86e2-4caa-b8eb-fea3f8067da5> ;
.
<http://www.cdisc.org/SDTMMODEL_EVENTS/V1#CL_MV--SCAT>
	rdf:type bd:SdtmModelVariable ;
	isoC:label "Subcategory"^^xsd:string ;
	bd:rule ""^^xsd:string ;
	bd:ordinal "12"^^xsd:positiveInteger ;
	bd:name "--SCAT"^^xsd:string ;
	bd:prefixed "true"^^xsd:boolean ;
	bd:description "Used to define a further categorization of --CAT values."^^xsd:string ;
	bd:typedAs <http://www.assero.co.uk/CSN#c2ce7061-4855-450e-ba00-aa827986d372> ;
	bd:classifiedAs <http://www.assero.co.uk/CSN#618b4fdd-86e2-4caa-b8eb-fea3f8067da5> ;
.
<http://www.cdisc.org/SDTMMODEL_EVENTS/V1#CL_MV--PRESP>
	rdf:type bd:SdtmModelVariable ;
	isoC:label "Pre-specified"^^xsd:string ;
	bd:rule ""^^xsd:string ;
	bd:ordinal "13"^^xsd:positiveInteger ;
	bd:name "--PRESP"^^xsd:string ;
	bd:prefixed "true"^^xsd:boolean ;
	bd:description "Used to indicate whether the event described by --TERM was pre-specified on a CRF. Value is Y for pre-specified events, null for spontaneously reported events."^^xsd:string ;
	bd:typedAs <http://www.assero.co.uk/CSN#c2ce7061-4855-450e-ba00-aa827986d372> ;
.
<http://www.cdisc.org/SDTMMODEL_EVENTS/V1#CL_MV--OCCUR>
	rdf:type bd:SdtmModelVariable ;
	isoC:label "Occurrence"^^xsd:string ;
	bd:rule ""^^xsd:string ;
	bd:ordinal "14"^^xsd:positiveInteger ;
	bd:name "--OCCUR"^^xsd:string ;
	bd:prefixed "true"^^xsd:boolean ;
	bd:description "Used to record whether a pre-specified event occurred when information about the occurrence of a specific event is solicited."^^xsd:string ;
	bd:typedAs <http://www.assero.co.uk/CSN#c2ce7061-4855-450e-ba00-aa827986d372> ;
	bd:classifiedAs <http://www.assero.co.uk/CSN#19f5fd25-36ea-44e7-aa2b-d8e62217c7d0> ;
.
<http://www.cdisc.org/SDTMMODEL_EVENTS/V1#CL_MV--STAT>
	rdf:type bd:SdtmModelVariable ;
	isoC:label "Completion Status"^^xsd:string ;
	bd:rule ""^^xsd:string ;
	bd:ordinal "15"^^xsd:positiveInteger ;
	bd:name "--STAT"^^xsd:string ;
	bd:prefixed "true"^^xsd:boolean ;
	bd:description "Used to indicate when a question about the occurrence of a pre-specified event was not answered. Should be null or have a value of NOT DONE."^^xsd:string ;
	bd:typedAs <http://www.assero.co.uk/CSN#c2ce7061-4855-450e-ba00-aa827986d372> ;
	bd:classifiedAs <http://www.assero.co.uk/CSN#19f5fd25-36ea-44e7-aa2b-d8e62217c7d0> ;
.
<http://www.cdisc.org/SDTMMODEL_EVENTS/V1#CL_MV--REASND>
	rdf:type bd:SdtmModelVariable ;
	isoC:label "Reason Not Done"^^xsd:string ;
	bd:rule ""^^xsd:string ;
	bd:ordinal "16"^^xsd:positiveInteger ;
	bd:name "--REASND"^^xsd:string ;
	bd:prefixed "true"^^xsd:boolean ;
	bd:description "Reason not done. Used in conjunction with --STAT when its value is NOT DONE."^^xsd:string ;
	bd:typedAs <http://www.assero.co.uk/CSN#c2ce7061-4855-450e-ba00-aa827986d372> ;
	bd:classifiedAs <http://www.assero.co.uk/CSN#19f5fd25-36ea-44e7-aa2b-d8e62217c7d0> ;
.
<http://www.cdisc.org/SDTMMODEL_EVENTS/V1#CL_MV--BODSYS>
	rdf:type bd:SdtmModelVariable ;
	isoC:label "Body System or Organ Class"^^xsd:string ;
	bd:rule ""^^xsd:string ;
	bd:ordinal "17"^^xsd:positiveInteger ;
	bd:name "--BODSYS"^^xsd:string ;
	bd:prefixed "true"^^xsd:boolean ;
	bd:description "Body system or system organ class assigned for analysis from a standard hierarchy (e.g. MedDRA) associated with an event. Example: GASTROINTESTINAL DISORDERS."^^xsd:string ;
	bd:typedAs <http://www.assero.co.uk/CSN#c2ce7061-4855-450e-ba00-aa827986d372> ;
	bd:classifiedAs <http://www.assero.co.uk/CSN#19f5fd25-36ea-44e7-aa2b-d8e62217c7d0> ;
.
<http://www.cdisc.org/SDTMMODEL_EVENTS/V1#CL_MV--BDSYCD>
	rdf:type bd:SdtmModelVariable ;
	isoC:label "Body System or Organ Class Code"^^xsd:string ;
	bd:rule ""^^xsd:string ;
	bd:ordinal "18"^^xsd:positiveInteger ;
	bd:name "--BDSYCD"^^xsd:string ;
	bd:prefixed "true"^^xsd:boolean ;
	bd:description "MedDRA System Organ Class code corresponding to --BODSYS assigned for analysis."^^xsd:string ;
	bd:typedAs <http://www.assero.co.uk/CSN#4261b4e8-fbdf-4236-97e4-93f09b376547> ;
.
<http://www.cdisc.org/SDTMMODEL_EVENTS/V1#CL_MV--SOC>
	rdf:type bd:SdtmModelVariable ;
	isoC:label "Primary System Organ Class"^^xsd:string ;
	bd:rule ""^^xsd:string ;
	bd:ordinal "19"^^xsd:positiveInteger ;
	bd:name "--SOC"^^xsd:string ;
	bd:prefixed "true"^^xsd:boolean ;
	bd:description "MedDRA primary System Organ Class associated with the event."^^xsd:string ;
	bd:typedAs <http://www.assero.co.uk/CSN#c2ce7061-4855-450e-ba00-aa827986d372> ;
.
<http://www.cdisc.org/SDTMMODEL_EVENTS/V1#CL_MV--SOCCD>
	rdf:type bd:SdtmModelVariable ;
	isoC:label "Primary System Organ Class Code"^^xsd:string ;
	bd:rule ""^^xsd:string ;
	bd:ordinal "20"^^xsd:positiveInteger ;
	bd:name "--SOCCD"^^xsd:string ;
	bd:prefixed "true"^^xsd:boolean ;
	bd:description "MedDRA primary System Organ Class code."^^xsd:string ;
	bd:typedAs <http://www.assero.co.uk/CSN#4261b4e8-fbdf-4236-97e4-93f09b376547> ;
.
<http://www.cdisc.org/SDTMMODEL_EVENTS/V1#CL_MV--LOC>
	rdf:type bd:SdtmModelVariable ;
	isoC:label "Location of Event"^^xsd:string ;
	bd:rule ""^^xsd:string ;
	bd:ordinal "21"^^xsd:positiveInteger ;
	bd:name "--LOC"^^xsd:string ;
	bd:prefixed "true"^^xsd:boolean ;
	bd:description "Describes anatomical location relevant for the event. Example: ARM for skin rash."^^xsd:string ;
	bd:typedAs <http://www.assero.co.uk/CSN#c2ce7061-4855-450e-ba00-aa827986d372> ;
	bd:classifiedAs <http://www.assero.co.uk/CSN#19f5fd25-36ea-44e7-aa2b-d8e62217c7d0> ;
.
<http://www.cdisc.org/SDTMMODEL_EVENTS/V1#CL_MV--LAT>
	rdf:type bd:SdtmModelVariable ;
	isoC:label "Laterality"^^xsd:string ;
	bd:rule ""^^xsd:string ;
	bd:ordinal "22"^^xsd:positiveInteger ;
	bd:name "--LAT"^^xsd:string ;
	bd:prefixed "true"^^xsd:boolean ;
	bd:description "Qualifier for anatomical location further detailing laterality. Examples: RIGHT, LEFT, BILATERAL"^^xsd:string ;
	bd:typedAs <http://www.assero.co.uk/CSN#c2ce7061-4855-450e-ba00-aa827986d372> ;
.
<http://www.cdisc.org/SDTMMODEL_EVENTS/V1#CL_MV--DIR>
	rdf:type bd:SdtmModelVariable ;
	isoC:label "Directionality"^^xsd:string ;
	bd:rule ""^^xsd:string ;
	bd:ordinal "23"^^xsd:positiveInteger ;
	bd:name "--DIR"^^xsd:string ;
	bd:prefixed "true"^^xsd:boolean ;
	bd:description "Qualifier for anatomical location further detailing directionality. Examples: ANTERIOR, LOWER, PROXIMAL"^^xsd:string ;
	bd:typedAs <http://www.assero.co.uk/CSN#c2ce7061-4855-450e-ba00-aa827986d372> ;
.
<http://www.cdisc.org/SDTMMODEL_EVENTS/V1#CL_MV--PORTOT>
	rdf:type bd:SdtmModelVariable ;
	isoC:label "Portion or Totality"^^xsd:string ;
	bd:rule ""^^xsd:string ;
	bd:ordinal "24"^^xsd:positiveInteger ;
	bd:name "--PORTOT"^^xsd:string ;
	bd:prefixed "true"^^xsd:boolean ;
	bd:description "Qualifier for anatomical location further detailing the distribution, which means arrangement of, apportioning of. Examples: ENTIRE, SINGLE, SEGMENT, MANY."^^xsd:string ;
	bd:typedAs <http://www.assero.co.uk/CSN#c2ce7061-4855-450e-ba00-aa827986d372> ;
.
<http://www.cdisc.org/SDTMMODEL_EVENTS/V1#CL_MV--PARTY>
	rdf:type bd:SdtmModelVariable ;
	isoC:label "Accountable Party"^^xsd:string ;
	bd:rule ""^^xsd:string ;
	bd:ordinal "25"^^xsd:positiveInteger ;
	bd:name "--PARTY"^^xsd:string ;
	bd:prefixed "true"^^xsd:boolean ;
	bd:description "Party accountable for the transferable object (e.g. device, specimen) as a result of the activity performed in the associated --TERM variable. The party could be an individual (e.g., subject), an organization (e.g., sponsor), or a location that is a proxy for an individual or organization (e.g., site). It is usually a somewhat general term that is further identified in the --PRTYID variable."^^xsd:string ;
	bd:typedAs <http://www.assero.co.uk/CSN#c2ce7061-4855-450e-ba00-aa827986d372> ;
	bd:classifiedAs <http://www.assero.co.uk/CSN#19f5fd25-36ea-44e7-aa2b-d8e62217c7d0> ;
.
<http://www.cdisc.org/SDTMMODEL_EVENTS/V1#CL_MV--PRTYID>
	rdf:type bd:SdtmModelVariable ;
	isoC:label "Identification of Accountable Party"^^xsd:string ;
	bd:rule ""^^xsd:string ;
	bd:ordinal "26"^^xsd:positiveInteger ;
	bd:name "--PRTYID"^^xsd:string ;
	bd:prefixed "true"^^xsd:boolean ;
	bd:description "Identification of the specific party accountable for the transferable object (e.g. device, specimen) after the action in --TERM is taken. Used in conjunction with --PARTY."^^xsd:string ;
	bd:typedAs <http://www.assero.co.uk/CSN#c2ce7061-4855-450e-ba00-aa827986d372> ;
	bd:classifiedAs <http://www.assero.co.uk/CSN#19f5fd25-36ea-44e7-aa2b-d8e62217c7d0> ;
.
<http://www.cdisc.org/SDTMMODEL_EVENTS/V1#CL_MV--SEV>
	rdf:type bd:SdtmModelVariable ;
	isoC:label "Severity/Intensity"^^xsd:string ;
	bd:rule ""^^xsd:string ;
	bd:ordinal "27"^^xsd:positiveInteger ;
	bd:name "--SEV"^^xsd:string ;
	bd:prefixed "true"^^xsd:boolean ;
	bd:description "The severity or intensity of the event. Examples: MILD, MODERATE, SEVERE."^^xsd:string ;
	bd:typedAs <http://www.assero.co.uk/CSN#c2ce7061-4855-450e-ba00-aa827986d372> ;
	bd:classifiedAs <http://www.assero.co.uk/CSN#19f5fd25-36ea-44e7-aa2b-d8e62217c7d0> ;
.
<http://www.cdisc.org/SDTMMODEL_EVENTS/V1#CL_MV--SER>
	rdf:type bd:SdtmModelVariable ;
	isoC:label "Serious Event"^^xsd:string ;
	bd:rule ""^^xsd:string ;
	bd:ordinal "28"^^xsd:positiveInteger ;
	bd:name "--SER"^^xsd:string ;
	bd:prefixed "true"^^xsd:boolean ;
	bd:description "Is this is a serious event? Valid values are \"Y\" and \"N\"."^^xsd:string ;
	bd:typedAs <http://www.assero.co.uk/CSN#c2ce7061-4855-450e-ba00-aa827986d372> ;
	bd:classifiedAs <http://www.assero.co.uk/CSN#19f5fd25-36ea-44e7-aa2b-d8e62217c7d0> ;
.
<http://www.cdisc.org/SDTMMODEL_EVENTS/V1#CL_MV--ACN>
	rdf:type bd:SdtmModelVariable ;
	isoC:label "Action Taken with Study Treatment"^^xsd:string ;
	bd:rule ""^^xsd:string ;
	bd:ordinal "29"^^xsd:positiveInteger ;
	bd:name "--ACN"^^xsd:string ;
	bd:prefixed "true"^^xsd:boolean ;
	bd:description "Describes changes made to the study treatment as a result of the event. Examples: DOSE INCREASED, DOSE NOT CHANGED."^^xsd:string ;
	bd:typedAs <http://www.assero.co.uk/CSN#c2ce7061-4855-450e-ba00-aa827986d372> ;
	bd:classifiedAs <http://www.assero.co.uk/CSN#19f5fd25-36ea-44e7-aa2b-d8e62217c7d0> ;
.
<http://www.cdisc.org/SDTMMODEL_EVENTS/V1#CL_MV--ACNOTH>
	rdf:type bd:SdtmModelVariable ;
	isoC:label "Other Action Taken"^^xsd:string ;
	bd:rule ""^^xsd:string ;
	bd:ordinal "30"^^xsd:positiveInteger ;
	bd:name "--ACNOTH"^^xsd:string ;
	bd:prefixed "true"^^xsd:boolean ;
	bd:description "Describes other actions taken as a result of the event that are unrelated to dose adjustments of study treatment."^^xsd:string ;
	bd:typedAs <http://www.assero.co.uk/CSN#c2ce7061-4855-450e-ba00-aa827986d372> ;
	bd:classifiedAs <http://www.assero.co.uk/CSN#19f5fd25-36ea-44e7-aa2b-d8e62217c7d0> ;
.
<http://www.cdisc.org/SDTMMODEL_EVENTS/V1#CL_MV--ACNDEV>
	rdf:type bd:SdtmModelVariable ;
	isoC:label "Action Taken with Device"^^xsd:string ;
	bd:rule ""^^xsd:string ;
	bd:ordinal "31"^^xsd:positiveInteger ;
	bd:name "--ACNDEV"^^xsd:string ;
	bd:prefixed "true"^^xsd:boolean ;
	bd:description "Action taken with respect to a device in a study, which may or may not be the device under study"^^xsd:string ;
	bd:typedAs <http://www.assero.co.uk/CSN#c2ce7061-4855-450e-ba00-aa827986d372> ;
	bd:classifiedAs <http://www.assero.co.uk/CSN#19f5fd25-36ea-44e7-aa2b-d8e62217c7d0> ;
.
<http://www.cdisc.org/SDTMMODEL_EVENTS/V1#CL_MV--REL>
	rdf:type bd:SdtmModelVariable ;
	isoC:label "Causality"^^xsd:string ;
	bd:rule ""^^xsd:string ;
	bd:ordinal "32"^^xsd:positiveInteger ;
	bd:name "--REL"^^xsd:string ;
	bd:prefixed "true"^^xsd:boolean ;
	bd:description "Records the investigator's opinion as to the causality of the event to the treatment. ICH E2A and E2B examples include NOT RELATED, UNLIKELY RELATED, POSSIBLY RELATED, RELATED."^^xsd:string ;
	bd:typedAs <http://www.assero.co.uk/CSN#c2ce7061-4855-450e-ba00-aa827986d372> ;
	bd:classifiedAs <http://www.assero.co.uk/CSN#19f5fd25-36ea-44e7-aa2b-d8e62217c7d0> ;
.
<http://www.cdisc.org/SDTMMODEL_EVENTS/V1#CL_MV--RELNST>
	rdf:type bd:SdtmModelVariable ;
	isoC:label "Relationship to Non-Study Treatment"^^xsd:string ;
	bd:rule ""^^xsd:string ;
	bd:ordinal "33"^^xsd:positiveInteger ;
	bd:name "--RELNST"^^xsd:string ;
	bd:prefixed "true"^^xsd:boolean ;
	bd:description "An opinion as to whether the event may have been due to a treatment other than study drug. Example: \"MORE LIKELY RELATED TO ASPIRIN USE.\""^^xsd:string ;
	bd:typedAs <http://www.assero.co.uk/CSN#c2ce7061-4855-450e-ba00-aa827986d372> ;
	bd:classifiedAs <http://www.assero.co.uk/CSN#19f5fd25-36ea-44e7-aa2b-d8e62217c7d0> ;
.
<http://www.cdisc.org/SDTMMODEL_EVENTS/V1#CL_MV--PATT>
	rdf:type bd:SdtmModelVariable ;
	isoC:label "Pattern of Event"^^xsd:string ;
	bd:rule ""^^xsd:string ;
	bd:ordinal "34"^^xsd:positiveInteger ;
	bd:name "--PATT"^^xsd:string ;
	bd:prefixed "true"^^xsd:boolean ;
	bd:description "Used to indicate the pattern of the event over time. Examples: INTERMITTENT, CONTINUOUS, SINGLE EVENT."^^xsd:string ;
	bd:typedAs <http://www.assero.co.uk/CSN#c2ce7061-4855-450e-ba00-aa827986d372> ;
	bd:classifiedAs <http://www.assero.co.uk/CSN#19f5fd25-36ea-44e7-aa2b-d8e62217c7d0> ;
.
<http://www.cdisc.org/SDTMMODEL_EVENTS/V1#CL_MV--OUT>
	rdf:type bd:SdtmModelVariable ;
	isoC:label "Outcome of Event"^^xsd:string ;
	bd:rule ""^^xsd:string ;
	bd:ordinal "35"^^xsd:positiveInteger ;
	bd:name "--OUT"^^xsd:string ;
	bd:prefixed "true"^^xsd:boolean ;
	bd:description "Description of the outcome of an event. Examples: RECOVERED/RESOLVED, FATAL."^^xsd:string ;
	bd:typedAs <http://www.assero.co.uk/CSN#c2ce7061-4855-450e-ba00-aa827986d372> ;
	bd:classifiedAs <http://www.assero.co.uk/CSN#19f5fd25-36ea-44e7-aa2b-d8e62217c7d0> ;
.
<http://www.cdisc.org/SDTMMODEL_EVENTS/V1#CL_MV--SCAN>
	rdf:type bd:SdtmModelVariable ;
	isoC:label "Involves Cancer"^^xsd:string ;
	bd:rule ""^^xsd:string ;
	bd:ordinal "36"^^xsd:positiveInteger ;
	bd:name "--SCAN"^^xsd:string ;
	bd:prefixed "true"^^xsd:boolean ;
	bd:description "Was the event associated with the development of cancer? Valid values are \"Y\" and \"N\"."^^xsd:string ;
	bd:typedAs <http://www.assero.co.uk/CSN#c2ce7061-4855-450e-ba00-aa827986d372> ;
	bd:classifiedAs <http://www.assero.co.uk/CSN#19f5fd25-36ea-44e7-aa2b-d8e62217c7d0> ;
.
<http://www.cdisc.org/SDTMMODEL_EVENTS/V1#CL_MV--SCONG>
	rdf:type bd:SdtmModelVariable ;
	isoC:label "Congenital Anomaly or Birth Defect"^^xsd:string ;
	bd:rule ""^^xsd:string ;
	bd:ordinal "37"^^xsd:positiveInteger ;
	bd:name "--SCONG"^^xsd:string ;
	bd:prefixed "true"^^xsd:boolean ;
	bd:description "Was the event associated with congenital anomaly or birth defect? Valid values are \"Y\" and \"N\"."^^xsd:string ;
	bd:typedAs <http://www.assero.co.uk/CSN#c2ce7061-4855-450e-ba00-aa827986d372> ;
	bd:classifiedAs <http://www.assero.co.uk/CSN#19f5fd25-36ea-44e7-aa2b-d8e62217c7d0> ;
.
<http://www.cdisc.org/SDTMMODEL_EVENTS/V1#CL_MV--SDISAB>
	rdf:type bd:SdtmModelVariable ;
	isoC:label "Persist or Signif Disability/Incapacity"^^xsd:string ;
	bd:rule ""^^xsd:string ;
	bd:ordinal "38"^^xsd:positiveInteger ;
	bd:name "--SDISAB"^^xsd:string ;
	bd:prefixed "true"^^xsd:boolean ;
	bd:description "Did the event result in persistent or significant disability/incapacity? Valid values are \"Y\" and \"N\"."^^xsd:string ;
	bd:typedAs <http://www.assero.co.uk/CSN#c2ce7061-4855-450e-ba00-aa827986d372> ;
	bd:classifiedAs <http://www.assero.co.uk/CSN#19f5fd25-36ea-44e7-aa2b-d8e62217c7d0> ;
.
<http://www.cdisc.org/SDTMMODEL_EVENTS/V1#CL_MV--SDTH>
	rdf:type bd:SdtmModelVariable ;
	isoC:label "Results in Death"^^xsd:string ;
	bd:rule ""^^xsd:string ;
	bd:ordinal "39"^^xsd:positiveInteger ;
	bd:name "--SDTH"^^xsd:string ;
	bd:prefixed "true"^^xsd:boolean ;
	bd:description "Did the event result in death? Valid values are \"Y\" and \"N\"."^^xsd:string ;
	bd:typedAs <http://www.assero.co.uk/CSN#c2ce7061-4855-450e-ba00-aa827986d372> ;
	bd:classifiedAs <http://www.assero.co.uk/CSN#19f5fd25-36ea-44e7-aa2b-d8e62217c7d0> ;
.
<http://www.cdisc.org/SDTMMODEL_EVENTS/V1#CL_MV--SHOSP>
	rdf:type bd:SdtmModelVariable ;
	isoC:label "Requires or Prolongs Hospitalization"^^xsd:string ;
	bd:rule ""^^xsd:string ;
	bd:ordinal "40"^^xsd:positiveInteger ;
	bd:name "--SHOSP"^^xsd:string ;
	bd:prefixed "true"^^xsd:boolean ;
	bd:description "Did the event require or prolong hospitalization? Valid values are \"Y\" and \"N\"."^^xsd:string ;
	bd:typedAs <http://www.assero.co.uk/CSN#c2ce7061-4855-450e-ba00-aa827986d372> ;
	bd:classifiedAs <http://www.assero.co.uk/CSN#19f5fd25-36ea-44e7-aa2b-d8e62217c7d0> ;
.
<http://www.cdisc.org/SDTMMODEL_EVENTS/V1#CL_MV--SLIFE>
	rdf:type bd:SdtmModelVariable ;
	isoC:label "Is Life Threatening"^^xsd:string ;
	bd:rule ""^^xsd:string ;
	bd:ordinal "41"^^xsd:positiveInteger ;
	bd:name "--SLIFE"^^xsd:string ;
	bd:prefixed "true"^^xsd:boolean ;
	bd:description "Was the event life threatening? Valid values are \"Y\" and \"N\"."^^xsd:string ;
	bd:typedAs <http://www.assero.co.uk/CSN#c2ce7061-4855-450e-ba00-aa827986d372> ;
	bd:classifiedAs <http://www.assero.co.uk/CSN#19f5fd25-36ea-44e7-aa2b-d8e62217c7d0> ;
.
<http://www.cdisc.org/SDTMMODEL_EVENTS/V1#CL_MV--SOD>
	rdf:type bd:SdtmModelVariable ;
	isoC:label "Occurred with Overdose"^^xsd:string ;
	bd:rule ""^^xsd:string ;
	bd:ordinal "42"^^xsd:positiveInteger ;
	bd:name "--SOD"^^xsd:string ;
	bd:prefixed "true"^^xsd:boolean ;
	bd:description "Did the event occur with an overdose? Valid values are \"Y\" and \"N\"."^^xsd:string ;
	bd:typedAs <http://www.assero.co.uk/CSN#c2ce7061-4855-450e-ba00-aa827986d372> ;
	bd:classifiedAs <http://www.assero.co.uk/CSN#19f5fd25-36ea-44e7-aa2b-d8e62217c7d0> ;
.
<http://www.cdisc.org/SDTMMODEL_EVENTS/V1#CL_MV--SMIE>
	rdf:type bd:SdtmModelVariable ;
	isoC:label "Other Medically Important Serious Event"^^xsd:string ;
	bd:rule ""^^xsd:string ;
	bd:ordinal "43"^^xsd:positiveInteger ;
	bd:name "--SMIE"^^xsd:string ;
	bd:prefixed "true"^^xsd:boolean ;
	bd:description "Do additional categories for seriousness apply? Valid values are \"Y\" and \"N\"."^^xsd:string ;
	bd:typedAs <http://www.assero.co.uk/CSN#c2ce7061-4855-450e-ba00-aa827986d372> ;
	bd:classifiedAs <http://www.assero.co.uk/CSN#19f5fd25-36ea-44e7-aa2b-d8e62217c7d0> ;
.
<http://www.cdisc.org/SDTMMODEL_EVENTS/V1#CL_MV--CONTRT>
	rdf:type bd:SdtmModelVariable ;
	isoC:label "Concomitant or Additional Trtmnt Given"^^xsd:string ;
	bd:rule ""^^xsd:string ;
	bd:ordinal "44"^^xsd:positiveInteger ;
	bd:name "--CONTRT"^^xsd:string ;
	bd:prefixed "true"^^xsd:boolean ;
	bd:description "Was another treatment given because of the occurrence of the event? Valid values are \"Y\" and \"N\"."^^xsd:string ;
	bd:typedAs <http://www.assero.co.uk/CSN#c2ce7061-4855-450e-ba00-aa827986d372> ;
	bd:classifiedAs <http://www.assero.co.uk/CSN#19f5fd25-36ea-44e7-aa2b-d8e62217c7d0> ;
.
<http://www.cdisc.org/SDTMMODEL_EVENTS/V1#CL_MV--TOX>
	rdf:type bd:SdtmModelVariable ;
	isoC:label "Toxicity"^^xsd:string ;
	bd:rule ""^^xsd:string ;
	bd:ordinal "45"^^xsd:positiveInteger ;
	bd:name "--TOX"^^xsd:string ;
	bd:prefixed "true"^^xsd:boolean ;
	bd:description "Description of toxicity quantified by --TOXGR such as NCI CTCAE Short Name. Examples: HYPERCALCEMIA, HYPOCALCEMIA. Sponsor should specify which scale and version is used in the Sponsor Comments column of the Define-XML document."^^xsd:string ;
	bd:typedAs <http://www.assero.co.uk/CSN#c2ce7061-4855-450e-ba00-aa827986d372> ;
.
<http://www.cdisc.org/SDTMMODEL_EVENTS/V1#CL_MV--TOXGR>
	rdf:type bd:SdtmModelVariable ;
	isoC:label "Toxicity Grade"^^xsd:string ;
	bd:rule ""^^xsd:string ;
	bd:ordinal "46"^^xsd:positiveInteger ;
	bd:name "--TOXGR"^^xsd:string ;
	bd:prefixed "true"^^xsd:boolean ;
	bd:description "Records toxicity grade using a standard toxicity scale (such as the NCI CTCAE). Sponsor should specify which scale and version is used in the Sponsor Comments column of the Define-XML document."^^xsd:string ;
	bd:typedAs <http://www.assero.co.uk/CSN#c2ce7061-4855-450e-ba00-aa827986d372> ;
	bd:classifiedAs <http://www.assero.co.uk/CSN#19f5fd25-36ea-44e7-aa2b-d8e62217c7d0> ;
.
<http://www.cdisc.org/SDTMMODEL_FINDINGS_ABOUT/V1#CL_MV--OBJ>
	rdf:type bd:SdtmModelVariable ;
	isoC:label "Object of the Observation"^^xsd:string ;
	bd:rule ""^^xsd:string ;
	bd:ordinal "1"^^xsd:positiveInteger ;
	bd:name "--OBJ"^^xsd:string ;
	bd:prefixed "true"^^xsd:boolean ;
	bd:description "Used in domains modeled as Findings About Events or Findings About Interventions. Describes the event or intervention whose property is being measured in --TESTCD/--TEST. Example: an event of vomiting which has findings, where --OBJ = \"VOMIT\" and the volume of VOMIT is being measured where --TESTCD = \"VOLUME\"."^^xsd:string ;
	bd:typedAs <http://www.assero.co.uk/CSN#c2ce7061-4855-450e-ba00-aa827986d372> ;
	bd:classifiedAs <http://www.assero.co.uk/CSN#19f5fd25-36ea-44e7-aa2b-d8e62217c7d0> ;
.
<http://www.cdisc.org/SDTMMODEL_FINDINGS/V1#CL_MV--TESTCD>
	rdf:type bd:SdtmModelVariable ;
	isoC:label "Short Name of Measurement, Test or Examination"^^xsd:string ;
	bd:rule ""^^xsd:string ;
	bd:ordinal "1"^^xsd:positiveInteger ;
	bd:name "--TESTCD"^^xsd:string ;
	bd:prefixed "true"^^xsd:boolean ;
	bd:description "Short character value for --TEST used as a column name when converting a dataset from a vertical format to a horizontal format. The short value can be up to 8 characters. Examples: PLAT, SYSBP, RRMIN, EYEEXAM."^^xsd:string ;
	bd:typedAs <http://www.assero.co.uk/CSN#c2ce7061-4855-450e-ba00-aa827986d372> ;
	bd:classifiedAs <http://www.assero.co.uk/CSN#afe0d026-263a-42ad-b538-d50eaf8bc93d> ;
.
<http://www.cdisc.org/SDTMMODEL_FINDINGS/V1#CL_MV--TEST>
	rdf:type bd:SdtmModelVariable ;
	isoC:label "Name of Measurement, Test or Examination"^^xsd:string ;
	bd:rule ""^^xsd:string ;
	bd:ordinal "2"^^xsd:positiveInteger ;
	bd:name "--TEST"^^xsd:string ;
	bd:prefixed "true"^^xsd:boolean ;
	bd:description "Long name For --TESTCD. Examples: Platelet, Systolic Blood Pressure, Summary (Min) RR Duration, Eye Examination."^^xsd:string ;
	bd:typedAs <http://www.assero.co.uk/CSN#c2ce7061-4855-450e-ba00-aa827986d372> ;
	bd:classifiedAs <http://www.assero.co.uk/CSN#9a5be74f-df82-4d83-93d9-1c4ab59f6cc1> ;
.
<http://www.cdisc.org/SDTMMODEL_FINDINGS/V1#CL_MV--TSTDTL>
	rdf:type bd:SdtmModelVariable ;
	isoC:label "Measurement, Test or Examination Detail"^^xsd:string ;
	bd:rule ""^^xsd:string ;
	bd:ordinal "4"^^xsd:positiveInteger ;
	bd:name "--TSTDTL"^^xsd:string ;
	bd:prefixed "true"^^xsd:boolean ;
	bd:description "Further description of --TESTCD and --TEST. Example: \"The percentage of cells with +1 intensity of staining\" when MITESTCD = TTF1."^^xsd:string ;
	bd:typedAs <http://www.assero.co.uk/CSN#c2ce7061-4855-450e-ba00-aa827986d372> ;
.
<http://www.cdisc.org/SDTMMODEL_FINDINGS/V1#CL_MV--POS>
	rdf:type bd:SdtmModelVariable ;
	isoC:label "Position of Subject During Observation"^^xsd:string ;
	bd:rule ""^^xsd:string ;
	bd:ordinal "7"^^xsd:positiveInteger ;
	bd:name "--POS"^^xsd:string ;
	bd:prefixed "true"^^xsd:boolean ;
	bd:description "Position of the subject during a measurement or examination. Examples: SUPINE, STANDING, SITTING."^^xsd:string ;
	bd:typedAs <http://www.assero.co.uk/CSN#c2ce7061-4855-450e-ba00-aa827986d372> ;
	bd:classifiedAs <http://www.assero.co.uk/CSN#19f5fd25-36ea-44e7-aa2b-d8e62217c7d0> ;
.
<http://www.cdisc.org/SDTMMODEL_FINDINGS/V1#CL_MV--ORRES>
	rdf:type bd:SdtmModelVariable ;
	isoC:label "Result or Finding in Original Units"^^xsd:string ;
	bd:rule ""^^xsd:string ;
	bd:ordinal "9"^^xsd:positiveInteger ;
	bd:name "--ORRES"^^xsd:string ;
	bd:prefixed "true"^^xsd:boolean ;
	bd:description "Result of the measurement or finding as originally received or collected. Examples: 120, <1, POS."^^xsd:string ;
	bd:typedAs <http://www.assero.co.uk/CSN#c2ce7061-4855-450e-ba00-aa827986d372> ;
	bd:classifiedAs <http://www.assero.co.uk/CSN#ac5e5c1f-24f4-4a3d-bdb6-bff1afdd1985> ;
.
<http://www.cdisc.org/SDTMMODEL_FINDINGS/V1#CL_MV--ORRESU>
	rdf:type bd:SdtmModelVariable ;
	isoC:label "Original Units"^^xsd:string ;
	bd:rule ""^^xsd:string ;
	bd:ordinal "10"^^xsd:positiveInteger ;
	bd:name "--ORRESU"^^xsd:string ;
	bd:prefixed "true"^^xsd:boolean ;
	bd:description "Unit for --ORRES. Examples: IN, LB, kg/L."^^xsd:string ;
	bd:typedAs <http://www.assero.co.uk/CSN#c2ce7061-4855-450e-ba00-aa827986d372> ;
.
<http://www.cdisc.org/SDTMMODEL_FINDINGS/V1#CL_MV--ORNRLO>
	rdf:type bd:SdtmModelVariable ;
	isoC:label "Normal Range Lower Limit-Original Units"^^xsd:string ;
	bd:rule ""^^xsd:string ;
	bd:ordinal "11"^^xsd:positiveInteger ;
	bd:name "--ORNRLO"^^xsd:string ;
	bd:prefixed "true"^^xsd:boolean ;
	bd:description "Lower end of normal range or reference range for results stored in --ORRES."^^xsd:string ;
	bd:typedAs <http://www.assero.co.uk/CSN#c2ce7061-4855-450e-ba00-aa827986d372> ;
.
<http://www.cdisc.org/SDTMMODEL_FINDINGS/V1#CL_MV--ORNRHI>
	rdf:type bd:SdtmModelVariable ;
	isoC:label "Normal Range Upper Limit-Original Units"^^xsd:string ;
	bd:rule ""^^xsd:string ;
	bd:ordinal "12"^^xsd:positiveInteger ;
	bd:name "--ORNRHI"^^xsd:string ;
	bd:prefixed "true"^^xsd:boolean ;
	bd:description "Upper end of normal range or reference range for results stored in --ORRES."^^xsd:string ;
	bd:typedAs <http://www.assero.co.uk/CSN#c2ce7061-4855-450e-ba00-aa827986d372> ;
.
<http://www.cdisc.org/SDTMMODEL_FINDINGS/V1#CL_MV--STRESC>
	rdf:type bd:SdtmModelVariable ;
	isoC:label "Result or Finding in Standard Format"^^xsd:string ;
	bd:rule ""^^xsd:string ;
	bd:ordinal "13"^^xsd:positiveInteger ;
	bd:name "--STRESC"^^xsd:string ;
	bd:prefixed "true"^^xsd:boolean ;
	bd:description "Contains the result value for all findings, copied or derived from --ORRES in a standard format or in standard units. --STRESC should store all results or findings in character format; if results are numeric, they should also be stored in numeric format in --STRESN. For example, if various tests have results \"NONE\", \"NEG\", and \"NEGATIVE\" in --ORRES and these results effectively have the same meaning, they could be represented in standard format in --STRESC as \"NEGATIVE\"."^^xsd:string ;
	bd:typedAs <http://www.assero.co.uk/CSN#c2ce7061-4855-450e-ba00-aa827986d372> ;
	bd:classifiedAs <http://www.assero.co.uk/CSN#ac5e5c1f-24f4-4a3d-bdb6-bff1afdd1985> ;
.
<http://www.cdisc.org/SDTMMODEL_FINDINGS/V1#CL_MV--STRESN>
	rdf:type bd:SdtmModelVariable ;
	isoC:label "Numeric Result/Finding in Standard Units"^^xsd:string ;
	bd:rule ""^^xsd:string ;
	bd:ordinal "14"^^xsd:positiveInteger ;
	bd:name "--STRESN"^^xsd:string ;
	bd:prefixed "true"^^xsd:boolean ;
	bd:description "Used for continuous or numeric results or findings in standard format; copied in numeric format from --STRESC. --STRESN should store all numeric test results or findings."^^xsd:string ;
	bd:typedAs <http://www.assero.co.uk/CSN#4261b4e8-fbdf-4236-97e4-93f09b376547> ;
	bd:classifiedAs <http://www.assero.co.uk/CSN#ac5e5c1f-24f4-4a3d-bdb6-bff1afdd1985> ;
.
<http://www.cdisc.org/SDTMMODEL_FINDINGS/V1#CL_MV--STRESU>
	rdf:type bd:SdtmModelVariable ;
	isoC:label "Standard Units"^^xsd:string ;
	bd:rule ""^^xsd:string ;
	bd:ordinal "15"^^xsd:positiveInteger ;
	bd:name "--STRESU"^^xsd:string ;
	bd:prefixed "true"^^xsd:boolean ;
	bd:description "Standardized units used for --STRESC and --STRESN. Example: mol/L."^^xsd:string ;
	bd:typedAs <http://www.assero.co.uk/CSN#c2ce7061-4855-450e-ba00-aa827986d372> ;
.
<http://www.cdisc.org/SDTMMODEL_FINDINGS/V1#CL_MV--STNRLO>
	rdf:type bd:SdtmModelVariable ;
	isoC:label "Normal Range Lower Limit-Standard Units"^^xsd:string ;
	bd:rule ""^^xsd:string ;
	bd:ordinal "16"^^xsd:positiveInteger ;
	bd:name "--STNRLO"^^xsd:string ;
	bd:prefixed "true"^^xsd:boolean ;
	bd:description "Lower end of normal range or reference range for standardized results (e.g., --STRESC, --STRESN) represented in standardized units (--STRESU)."^^xsd:string ;
	bd:typedAs <http://www.assero.co.uk/CSN#4261b4e8-fbdf-4236-97e4-93f09b376547> ;
.
<http://www.cdisc.org/SDTMMODEL_FINDINGS/V1#CL_MV--STNRHI>
	rdf:type bd:SdtmModelVariable ;
	isoC:label "Normal Range Upper Limit-Standard Units"^^xsd:string ;
	bd:rule ""^^xsd:string ;
	bd:ordinal "17"^^xsd:positiveInteger ;
	bd:name "--STNRHI"^^xsd:string ;
	bd:prefixed "true"^^xsd:boolean ;
	bd:description "Upper end of normal range or reference range for standardized results (e.g., --STRESC, --STRESN) represented in standardized units (--STRESU)."^^xsd:string ;
	bd:typedAs <http://www.assero.co.uk/CSN#4261b4e8-fbdf-4236-97e4-93f09b376547> ;
.
<http://www.cdisc.org/SDTMMODEL_FINDINGS/V1#CL_MV--STNRC>
	rdf:type bd:SdtmModelVariable ;
	isoC:label "Normal Range for Character Results"^^xsd:string ;
	bd:rule ""^^xsd:string ;
	bd:ordinal "18"^^xsd:positiveInteger ;
	bd:name "--STNRC"^^xsd:string ;
	bd:prefixed "true"^^xsd:boolean ;
	bd:description "Normal range or reference range for results stored in --STRESC that are character in ordinal or categorical scale. Example: Negative to Trace."^^xsd:string ;
	bd:typedAs <http://www.assero.co.uk/CSN#c2ce7061-4855-450e-ba00-aa827986d372> ;
.
<http://www.cdisc.org/SDTMMODEL_FINDINGS/V1#CL_MV--NRIND>
	rdf:type bd:SdtmModelVariable ;
	isoC:label "Normal/Reference Range Indicator"^^xsd:string ;
	bd:rule ""^^xsd:string ;
	bd:ordinal "19"^^xsd:positiveInteger ;
	bd:name "--NRIND"^^xsd:string ;
	bd:prefixed "true"^^xsd:boolean ;
	bd:description "Used to indicate the value is outside the normal range or reference range. May be defined by --ORNRLO and --ORNRHI or other objective criteria. Examples: Y, N; HIGH, LOW; NORMAL; ABNORMAL."^^xsd:string ;
	bd:typedAs <http://www.assero.co.uk/CSN#c2ce7061-4855-450e-ba00-aa827986d372> ;
.
<http://www.cdisc.org/SDTMMODEL_FINDINGS/V1#CL_MV--RESCAT>
	rdf:type bd:SdtmModelVariable ;
	isoC:label "Result Category"^^xsd:string ;
	bd:rule ""^^xsd:string ;
	bd:ordinal "20"^^xsd:positiveInteger ;
	bd:name "--RESCAT"^^xsd:string ;
	bd:prefixed "true"^^xsd:boolean ;
	bd:description "Used to categorize the result of a finding. Example: MALIGNANT or BENIGN for tumor findings. RESISTANCE VARIANT for genetic variation."^^xsd:string ;
	bd:typedAs <http://www.assero.co.uk/CSN#c2ce7061-4855-450e-ba00-aa827986d372> ;
.
<http://www.cdisc.org/SDTMMODEL_FINDINGS/V1#CL_MV--XFN>
	rdf:type bd:SdtmModelVariable ;
	isoC:label "External File Path"^^xsd:string ;
	bd:rule ""^^xsd:string ;
	bd:ordinal "23"^^xsd:positiveInteger ;
	bd:name "--XFN"^^xsd:string ;
	bd:prefixed "true"^^xsd:boolean ;
	bd:description "Filename for an external file, such as one for an ECG waveform or a medical image."^^xsd:string ;
	bd:typedAs <http://www.assero.co.uk/CSN#c2ce7061-4855-450e-ba00-aa827986d372> ;
	bd:classifiedAs <http://www.assero.co.uk/CSN#19f5fd25-36ea-44e7-aa2b-d8e62217c7d0> ;
.
<http://www.cdisc.org/SDTMMODEL_FINDINGS/V1#CL_MV--NAM>
	rdf:type bd:SdtmModelVariable ;
	isoC:label "Laboratory/Vendor Name"^^xsd:string ;
	bd:rule ""^^xsd:string ;
	bd:ordinal "24"^^xsd:positiveInteger ;
	bd:name "--NAM"^^xsd:string ;
	bd:prefixed "true"^^xsd:boolean ;
	bd:description "Name or identifier of the vendor (e.g., laboratory) that provided the test results."^^xsd:string ;
	bd:typedAs <http://www.assero.co.uk/CSN#c2ce7061-4855-450e-ba00-aa827986d372> ;
	bd:classifiedAs <http://www.assero.co.uk/CSN#19f5fd25-36ea-44e7-aa2b-d8e62217c7d0> ;
.
<http://www.cdisc.org/SDTMMODEL_FINDINGS/V1#CL_MV--LOINC>
	rdf:type bd:SdtmModelVariable ;
	isoC:label "LOINC Code"^^xsd:string ;
	bd:rule ""^^xsd:string ;
	bd:ordinal "25"^^xsd:positiveInteger ;
	bd:name "--LOINC"^^xsd:string ;
	bd:prefixed "true"^^xsd:boolean ;
	bd:description "Logical Observation Identifiers Names and Codes (LOINC) code for the topic variable such as a lab test."^^xsd:string ;
	bd:typedAs <http://www.assero.co.uk/CSN#c2ce7061-4855-450e-ba00-aa827986d372> ;
	bd:classifiedAs <http://www.assero.co.uk/CSN#9a5be74f-df82-4d83-93d9-1c4ab59f6cc1> ;
.
<http://www.cdisc.org/SDTMMODEL_FINDINGS/V1#CL_MV--SPEC>
	rdf:type bd:SdtmModelVariable ;
	isoC:label "Specimen Material Type"^^xsd:string ;
	bd:rule ""^^xsd:string ;
	bd:ordinal "26"^^xsd:positiveInteger ;
	bd:name "--SPEC"^^xsd:string ;
	bd:prefixed "true"^^xsd:boolean ;
	bd:description "Defines the type of specimen used for a measurement. Examples: SERUM, PLASMA, URINE, DNA, RNA."^^xsd:string ;
	bd:typedAs <http://www.assero.co.uk/CSN#c2ce7061-4855-450e-ba00-aa827986d372> ;
	bd:classifiedAs <http://www.assero.co.uk/CSN#19f5fd25-36ea-44e7-aa2b-d8e62217c7d0> ;
.
<http://www.cdisc.org/SDTMMODEL_FINDINGS/V1#CL_MV--ANTREG>
	rdf:type bd:SdtmModelVariable ;
	isoC:label "Anatomical Region"^^xsd:string ;
	bd:rule ""^^xsd:string ;
	bd:ordinal "27"^^xsd:positiveInteger ;
	bd:name "--ANTREG"^^xsd:string ;
	bd:prefixed "true"^^xsd:boolean ;
	bd:description "Defines the specific anatomical or biological region of a tissue, organ specimen or the region from which the specimen is obtained, as defined in the protocol, such as a section or part of what is described in the --SPEC variable. Examples: CORTEX, MEDULLA, MUCOSA"^^xsd:string ;
	bd:typedAs <http://www.assero.co.uk/CSN#c2ce7061-4855-450e-ba00-aa827986d372> ;
.
<http://www.cdisc.org/SDTMMODEL_FINDINGS/V1#CL_MV--SPCCND>
	rdf:type bd:SdtmModelVariable ;
	isoC:label "Specimen Condition"^^xsd:string ;
	bd:rule ""^^xsd:string ;
	bd:ordinal "28"^^xsd:positiveInteger ;
	bd:name "--SPCCND"^^xsd:string ;
	bd:prefixed "true"^^xsd:boolean ;
	bd:description "Defines the condition of the specimen. Example: CLOUDY."^^xsd:string ;
	bd:typedAs <http://www.assero.co.uk/CSN#c2ce7061-4855-450e-ba00-aa827986d372> ;
	bd:classifiedAs <http://www.assero.co.uk/CSN#19f5fd25-36ea-44e7-aa2b-d8e62217c7d0> ;
.
<http://www.cdisc.org/SDTMMODEL_FINDINGS/V1#CL_MV--SPCUFL>
	rdf:type bd:SdtmModelVariable ;
	isoC:label "Specimen Usability for the Test"^^xsd:string ;
	bd:rule ""^^xsd:string ;
	bd:ordinal "29"^^xsd:positiveInteger ;
	bd:name "--SPCUFL"^^xsd:string ;
	bd:prefixed "true"^^xsd:boolean ;
	bd:description "Describes the usability of the specimen for the test. The value will be N if the specimen is not usable, and null if the specimen is usable."^^xsd:string ;
	bd:typedAs <http://www.assero.co.uk/CSN#c2ce7061-4855-450e-ba00-aa827986d372> ;
	bd:classifiedAs <http://www.assero.co.uk/CSN#19f5fd25-36ea-44e7-aa2b-d8e62217c7d0> ;
.
<http://www.cdisc.org/SDTMMODEL_FINDINGS/V1#CL_MV--METHOD>
	rdf:type bd:SdtmModelVariable ;
	isoC:label "Method of Test or Examination"^^xsd:string ;
	bd:rule ""^^xsd:string ;
	bd:ordinal "34"^^xsd:positiveInteger ;
	bd:name "--METHOD"^^xsd:string ;
	bd:prefixed "true"^^xsd:boolean ;
	bd:description "Method of the test or examination. Examples: EIA (Enzyme Immunoassay), ELECTROPHORESIS, DIPSTICK"^^xsd:string ;
	bd:typedAs <http://www.assero.co.uk/CSN#c2ce7061-4855-450e-ba00-aa827986d372> ;
	bd:classifiedAs <http://www.assero.co.uk/CSN#19f5fd25-36ea-44e7-aa2b-d8e62217c7d0> ;
.
<http://www.cdisc.org/SDTMMODEL_FINDINGS/V1#CL_MV--RUNID>
	rdf:type bd:SdtmModelVariable ;
	isoC:label "Run ID"^^xsd:string ;
	bd:rule ""^^xsd:string ;
	bd:ordinal "35"^^xsd:positiveInteger ;
	bd:name "--RUNID"^^xsd:string ;
	bd:prefixed "true"^^xsd:boolean ;
	bd:description "A unique identifier for a particular run of a test on a particular batch of samples."^^xsd:string ;
	bd:typedAs <http://www.assero.co.uk/CSN#c2ce7061-4855-450e-ba00-aa827986d372> ;
	bd:classifiedAs <http://www.assero.co.uk/CSN#19f5fd25-36ea-44e7-aa2b-d8e62217c7d0> ;
.
<http://www.cdisc.org/SDTMMODEL_FINDINGS/V1#CL_MV--ANMETH>
	rdf:type bd:SdtmModelVariable ;
	isoC:label "Analysis Method"^^xsd:string ;
	bd:rule ""^^xsd:string ;
	bd:ordinal "36"^^xsd:positiveInteger ;
	bd:name "--ANMETH"^^xsd:string ;
	bd:prefixed "true"^^xsd:boolean ;
	bd:description "Analysis method applied to obtain a summarized result. Analysis method describes the method of secondary processing applied to a complex observation result (e.g. an image or a genetic sequence)."^^xsd:string ;
	bd:typedAs <http://www.assero.co.uk/CSN#c2ce7061-4855-450e-ba00-aa827986d372> ;
	bd:classifiedAs <http://www.assero.co.uk/CSN#19f5fd25-36ea-44e7-aa2b-d8e62217c7d0> ;
.
<http://www.cdisc.org/SDTMMODEL_FINDINGS/V1#CL_MV--LEAD>
	rdf:type bd:SdtmModelVariable ;
	isoC:label "Lead Identified to Collect Measurements"^^xsd:string ;
	bd:rule ""^^xsd:string ;
	bd:ordinal "37"^^xsd:positiveInteger ;
	bd:name "--LEAD"^^xsd:string ;
	bd:prefixed "true"^^xsd:boolean ;
	bd:description "Lead or leads identified to capture the measurement for a test from an instrument. Examples: LEAD I, LEAD V2, LEAD CM5."^^xsd:string ;
	bd:typedAs <http://www.assero.co.uk/CSN#c2ce7061-4855-450e-ba00-aa827986d372> ;
	bd:classifiedAs <http://www.assero.co.uk/CSN#19f5fd25-36ea-44e7-aa2b-d8e62217c7d0> ;
.
<http://www.cdisc.org/SDTMMODEL_FINDINGS/V1#CL_MV--CSTATE>
	rdf:type bd:SdtmModelVariable ;
	isoC:label "Consciousness State"^^xsd:string ;
	bd:rule ""^^xsd:string ;
	bd:ordinal "38"^^xsd:positiveInteger ;
	bd:name "--CSTATE"^^xsd:string ;
	bd:prefixed "true"^^xsd:boolean ;
	bd:description "The consciousness state of the subject at the time of measurement. Examples: CONSCIOUS, SEMI-CONSCIOUS, UNCONSCIOUS"^^xsd:string ;
	bd:typedAs <http://www.assero.co.uk/CSN#c2ce7061-4855-450e-ba00-aa827986d372> ;
	bd:classifiedAs <http://www.assero.co.uk/CSN#19f5fd25-36ea-44e7-aa2b-d8e62217c7d0> ;
.
<http://www.cdisc.org/SDTMMODEL_FINDINGS/V1#CL_MV--BLFL>
	rdf:type bd:SdtmModelVariable ;
	isoC:label "Baseline Flag"^^xsd:string ;
	bd:rule ""^^xsd:string ;
	bd:ordinal "39"^^xsd:positiveInteger ;
	bd:name "--BLFL"^^xsd:string ;
	bd:prefixed "true"^^xsd:boolean ;
	bd:description "Indicator used to identify a baseline value. Should be Y or null."^^xsd:string ;
	bd:typedAs <http://www.assero.co.uk/CSN#c2ce7061-4855-450e-ba00-aa827986d372> ;
	bd:classifiedAs <http://www.assero.co.uk/CSN#19f5fd25-36ea-44e7-aa2b-d8e62217c7d0> ;
.
<http://www.cdisc.org/SDTMMODEL_FINDINGS/V1#CL_MV--FAST>
	rdf:type bd:SdtmModelVariable ;
	isoC:label "Fasting Status"^^xsd:string ;
	bd:rule ""^^xsd:string ;
	bd:ordinal "40"^^xsd:positiveInteger ;
	bd:name "--FAST"^^xsd:string ;
	bd:prefixed "true"^^xsd:boolean ;
	bd:description "Indicator used to identify fasting status. Valid values include Y, N, U or null if not relevant."^^xsd:string ;
	bd:typedAs <http://www.assero.co.uk/CSN#c2ce7061-4855-450e-ba00-aa827986d372> ;
	bd:classifiedAs <http://www.assero.co.uk/CSN#19f5fd25-36ea-44e7-aa2b-d8e62217c7d0> ;
.
<http://www.cdisc.org/SDTMMODEL_FINDINGS/V1#CL_MV--DRVFL>
	rdf:type bd:SdtmModelVariable ;
	isoC:label "Derived Flag"^^xsd:string ;
	bd:rule ""^^xsd:string ;
	bd:ordinal "41"^^xsd:positiveInteger ;
	bd:name "--DRVFL"^^xsd:string ;
	bd:prefixed "true"^^xsd:boolean ;
	bd:description "Used to indicate a derived record (e.g., a record that represents the average of other records such as a computed baseline). Should be Y or null."^^xsd:string ;
	bd:typedAs <http://www.assero.co.uk/CSN#c2ce7061-4855-450e-ba00-aa827986d372> ;
	bd:classifiedAs <http://www.assero.co.uk/CSN#19f5fd25-36ea-44e7-aa2b-d8e62217c7d0> ;
.
<http://www.cdisc.org/SDTMMODEL_FINDINGS/V1#CL_MV--EVAL>
	rdf:type bd:SdtmModelVariable ;
	isoC:label "Evaluator"^^xsd:string ;
	bd:rule ""^^xsd:string ;
	bd:ordinal "42"^^xsd:positiveInteger ;
	bd:name "--EVAL"^^xsd:string ;
	bd:prefixed "true"^^xsd:boolean ;
	bd:description "Role of the person who provided the evaluation. Used only for results that are subjective (e.g., assigned by a person or a group). Examples: ADJUDICATION COMMITTEE, INDEPENDENT ASSESSOR, RADIOLOGIST."^^xsd:string ;
	bd:typedAs <http://www.assero.co.uk/CSN#c2ce7061-4855-450e-ba00-aa827986d372> ;
	bd:classifiedAs <http://www.assero.co.uk/CSN#19f5fd25-36ea-44e7-aa2b-d8e62217c7d0> ;
.
<http://www.cdisc.org/SDTMMODEL_FINDINGS/V1#CL_MV--EVALID>
	rdf:type bd:SdtmModelVariable ;
	isoC:label "Evaluator Identifier"^^xsd:string ;
	bd:rule ""^^xsd:string ;
	bd:ordinal "43"^^xsd:positiveInteger ;
	bd:name "--EVALID"^^xsd:string ;
	bd:prefixed "true"^^xsd:boolean ;
	bd:description "Used to distinguish multiple evaluators with the same role recorded in --EVAL. Examples: RADIOLOGIST1 or RADIOLOGIST2"^^xsd:string ;
	bd:typedAs <http://www.assero.co.uk/CSN#c2ce7061-4855-450e-ba00-aa827986d372> ;
.
<http://www.cdisc.org/SDTMMODEL_FINDINGS/V1#CL_MV--ACPTFL>
	rdf:type bd:SdtmModelVariable ;
	isoC:label "Accepted Record Flag"^^xsd:string ;
	bd:rule ""^^xsd:string ;
	bd:ordinal "44"^^xsd:positiveInteger ;
	bd:name "--ACPTFL"^^xsd:string ;
	bd:prefixed "true"^^xsd:boolean ;
	bd:description "In cases where more than one assessor provides an evaluation of a result or response, this flag identifies the record that is considered, by an independent assessor, to be the accepted evaluation. Expected to be Y or null."^^xsd:string ;
	bd:typedAs <http://www.assero.co.uk/CSN#c2ce7061-4855-450e-ba00-aa827986d372> ;
	bd:classifiedAs <http://www.assero.co.uk/CSN#19f5fd25-36ea-44e7-aa2b-d8e62217c7d0> ;
.
<http://www.cdisc.org/SDTMMODEL_FINDINGS/V1#CL_MV--DTHREL>
	rdf:type bd:SdtmModelVariable ;
	isoC:label "Relationship to Death"^^xsd:string ;
	bd:rule ""^^xsd:string ;
	bd:ordinal "48"^^xsd:positiveInteger ;
	bd:name "--DTHREL"^^xsd:string ;
	bd:prefixed "true"^^xsd:boolean ;
	bd:description "Describes the relationship of a particular finding to the death of a subject. Examples: Y, N or U."^^xsd:string ;
	bd:typedAs <http://www.assero.co.uk/CSN#c2ce7061-4855-450e-ba00-aa827986d372> ;
	bd:classifiedAs <http://www.assero.co.uk/CSN#19f5fd25-36ea-44e7-aa2b-d8e62217c7d0> ;
.
<http://www.cdisc.org/SDTMMODEL_FINDINGS/V1#CL_MV--LLOQ>
	rdf:type bd:SdtmModelVariable ;
	isoC:label "Lower Limit of Quantitation"^^xsd:string ;
	bd:rule ""^^xsd:string ;
	bd:ordinal "49"^^xsd:positiveInteger ;
	bd:name "--LLOQ"^^xsd:string ;
	bd:prefixed "true"^^xsd:boolean ;
	bd:description "Indicates the lower limit of quantitation for an assay. Units will be those used for --STRESU."^^xsd:string ;
	bd:typedAs <http://www.assero.co.uk/CSN#4261b4e8-fbdf-4236-97e4-93f09b376547> ;
.
<http://www.cdisc.org/SDTMMODEL_FINDINGS/V1#CL_MV--ULOQ>
	rdf:type bd:SdtmModelVariable ;
	isoC:label "Upper Limit of Quantitation"^^xsd:string ;
	bd:rule ""^^xsd:string ;
	bd:ordinal "50"^^xsd:positiveInteger ;
	bd:name "--ULOQ"^^xsd:string ;
	bd:prefixed "true"^^xsd:boolean ;
	bd:description "Indicates the upper limit of quantitation for an assay. Units will be those used for --STRESU."^^xsd:string ;
	bd:typedAs <http://www.assero.co.uk/CSN#4261b4e8-fbdf-4236-97e4-93f09b376547> ;
.
<http://www.cdisc.org/SDTMMODEL_FINDINGS/V1#CL_MV--EXCLFL>
	rdf:type bd:SdtmModelVariable ;
	isoC:label "Exclude from Statistics"^^xsd:string ;
	bd:rule ""^^xsd:string ;
	bd:ordinal "51"^^xsd:positiveInteger ;
	bd:name "--EXCLFL"^^xsd:string ;
	bd:prefixed "true"^^xsd:boolean ;
	bd:description "Indicates whether the values in the result variables for this record should be excluded from summary statistical calculations such as Mean, Standard Deviation, and Count (and others). Expected to be Y or null. --EXCLFL should not be used when --STAT is NOT DONE. Not to be used with human clinical trials."^^xsd:string ;
	bd:typedAs <http://www.assero.co.uk/CSN#c2ce7061-4855-450e-ba00-aa827986d372> ;
	bd:classifiedAs <http://www.assero.co.uk/CSN#19f5fd25-36ea-44e7-aa2b-d8e62217c7d0> ;
.
<http://www.cdisc.org/SDTMMODEL_FINDINGS/V1#CL_MV--REASEX>
	rdf:type bd:SdtmModelVariable ;
	isoC:label "Reason for Exclusion from Statistics"^^xsd:string ;
	bd:rule ""^^xsd:string ;
	bd:ordinal "52"^^xsd:positiveInteger ;
	bd:name "--REASEX"^^xsd:string ;
	bd:prefixed "true"^^xsd:boolean ;
	bd:description "Reason excluded from statistics. Used in conjunction with --EXCLFL when its value is Y. Not to be used with human clinical trials"^^xsd:string ;
	bd:typedAs <http://www.assero.co.uk/CSN#c2ce7061-4855-450e-ba00-aa827986d372> ;
	bd:classifiedAs <http://www.assero.co.uk/CSN#19f5fd25-36ea-44e7-aa2b-d8e62217c7d0> ;
.
<http://www.cdisc.org/SDTMMODEL_INTERVENTIONS/V1#CL_MV--TRT>
	rdf:type bd:SdtmModelVariable ;
	isoC:label "Name of Treatment"^^xsd:string ;
	bd:rule ""^^xsd:string ;
	bd:ordinal "1"^^xsd:positiveInteger ;
	bd:name "--TRT"^^xsd:string ;
	bd:prefixed "true"^^xsd:boolean ;
	bd:description "The topic for the intervention observation, usually the verbatim name of the treatment, drug, medicine, or therapy given during the dosing interval for the observation."^^xsd:string ;
	bd:typedAs <http://www.assero.co.uk/CSN#c2ce7061-4855-450e-ba00-aa827986d372> ;
	bd:classifiedAs <http://www.assero.co.uk/CSN#afe0d026-263a-42ad-b538-d50eaf8bc93d> ;
.
<http://www.cdisc.org/SDTMMODEL_INTERVENTIONS/V1#CL_MV--MOOD>
	rdf:type bd:SdtmModelVariable ;
	isoC:label "Mood"^^xsd:string ;
	bd:rule ""^^xsd:string ;
	bd:ordinal "4"^^xsd:positiveInteger ;
	bd:name "--MOOD"^^xsd:string ;
	bd:prefixed "true"^^xsd:boolean ;
	bd:description "Mode or condition of the record (e.g., SCHEDULED, PERFORMED)."^^xsd:string ;
	bd:typedAs <http://www.assero.co.uk/CSN#c2ce7061-4855-450e-ba00-aa827986d372> ;
	bd:classifiedAs <http://www.assero.co.uk/CSN#19f5fd25-36ea-44e7-aa2b-d8e62217c7d0> ;
.
<http://www.cdisc.org/SDTMMODEL_INTERVENTIONS/V1#CL_MV--INDC>
	rdf:type bd:SdtmModelVariable ;
	isoC:label "Indication"^^xsd:string ;
	bd:rule ""^^xsd:string ;
	bd:ordinal "11"^^xsd:positiveInteger ;
	bd:name "--INDC"^^xsd:string ;
	bd:prefixed "true"^^xsd:boolean ;
	bd:description "Denotes the indication for the intervention (e.g., why the therapy was taken or administered)."^^xsd:string ;
	bd:typedAs <http://www.assero.co.uk/CSN#c2ce7061-4855-450e-ba00-aa827986d372> ;
	bd:classifiedAs <http://www.assero.co.uk/CSN#19f5fd25-36ea-44e7-aa2b-d8e62217c7d0> ;
.
<http://www.cdisc.org/SDTMMODEL_INTERVENTIONS/V1#CL_MV--CLAS>
	rdf:type bd:SdtmModelVariable ;
	isoC:label "Class"^^xsd:string ;
	bd:rule ""^^xsd:string ;
	bd:ordinal "12"^^xsd:positiveInteger ;
	bd:name "--CLAS"^^xsd:string ;
	bd:prefixed "true"^^xsd:boolean ;
	bd:description "Class for a medication or treatment, often obtained from a coding dictionary."^^xsd:string ;
	bd:typedAs <http://www.assero.co.uk/CSN#c2ce7061-4855-450e-ba00-aa827986d372> ;
.
<http://www.cdisc.org/SDTMMODEL_INTERVENTIONS/V1#CL_MV--CLASCD>
	rdf:type bd:SdtmModelVariable ;
	isoC:label "Class Code"^^xsd:string ;
	bd:rule ""^^xsd:string ;
	bd:ordinal "13"^^xsd:positiveInteger ;
	bd:name "--CLASCD"^^xsd:string ;
	bd:prefixed "true"^^xsd:boolean ;
	bd:description "Used to represent code for --CLAS."^^xsd:string ;
	bd:typedAs <http://www.assero.co.uk/CSN#c2ce7061-4855-450e-ba00-aa827986d372> ;
.
<http://www.cdisc.org/SDTMMODEL_INTERVENTIONS/V1#CL_MV--DOSE>
	rdf:type bd:SdtmModelVariable ;
	isoC:label "Dose"^^xsd:string ;
	bd:rule ""^^xsd:string ;
	bd:ordinal "14"^^xsd:positiveInteger ;
	bd:name "--DOSE"^^xsd:string ;
	bd:prefixed "true"^^xsd:boolean ;
	bd:description "Amount of --TRT given. Not populated when --DOSTXT is populated."^^xsd:string ;
	bd:typedAs <http://www.assero.co.uk/CSN#4261b4e8-fbdf-4236-97e4-93f09b376547> ;
	bd:classifiedAs <http://www.assero.co.uk/CSN#19f5fd25-36ea-44e7-aa2b-d8e62217c7d0> ;
.
<http://www.cdisc.org/SDTMMODEL_INTERVENTIONS/V1#CL_MV--DOSTXT>
	rdf:type bd:SdtmModelVariable ;
	isoC:label "Dose Description"^^xsd:string ;
	bd:rule ""^^xsd:string ;
	bd:ordinal "15"^^xsd:positiveInteger ;
	bd:name "--DOSTXT"^^xsd:string ;
	bd:prefixed "true"^^xsd:boolean ;
	bd:description "Dosing information collected in text form. Examples: <1 per day, 200-400. Not populated when --DOSE is populated."^^xsd:string ;
	bd:typedAs <http://www.assero.co.uk/CSN#c2ce7061-4855-450e-ba00-aa827986d372> ;
	bd:classifiedAs <http://www.assero.co.uk/CSN#19f5fd25-36ea-44e7-aa2b-d8e62217c7d0> ;
.
<http://www.cdisc.org/SDTMMODEL_INTERVENTIONS/V1#CL_MV--DOSU>
	rdf:type bd:SdtmModelVariable ;
	isoC:label "Dose Units"^^xsd:string ;
	bd:rule ""^^xsd:string ;
	bd:ordinal "16"^^xsd:positiveInteger ;
	bd:name "--DOSU"^^xsd:string ;
	bd:prefixed "true"^^xsd:boolean ;
	bd:description "Units for --DOSE, --DOSTOT, or --DOSTXT (Examples: ng, mg, mg/kg)."^^xsd:string ;
	bd:typedAs <http://www.assero.co.uk/CSN#c2ce7061-4855-450e-ba00-aa827986d372> ;
.
<http://www.cdisc.org/SDTMMODEL_INTERVENTIONS/V1#CL_MV--DOSFRM>
	rdf:type bd:SdtmModelVariable ;
	isoC:label "Dose Form"^^xsd:string ;
	bd:rule ""^^xsd:string ;
	bd:ordinal "17"^^xsd:positiveInteger ;
	bd:name "--DOSFRM"^^xsd:string ;
	bd:prefixed "true"^^xsd:boolean ;
	bd:description "Dose form for the treatment. Examples: TABLET, CAPSULE."^^xsd:string ;
	bd:typedAs <http://www.assero.co.uk/CSN#c2ce7061-4855-450e-ba00-aa827986d372> ;
.
<http://www.cdisc.org/SDTMMODEL_INTERVENTIONS/V1#CL_MV--DOSFRQ>
	rdf:type bd:SdtmModelVariable ;
	isoC:label "Dosing Frequency per Interval"^^xsd:string ;
	bd:rule ""^^xsd:string ;
	bd:ordinal "18"^^xsd:positiveInteger ;
	bd:name "--DOSFRQ"^^xsd:string ;
	bd:prefixed "true"^^xsd:boolean ;
	bd:description "Usually expressed as the number of doses given per a specific interval. Examples: Q2H, QD, PRN."^^xsd:string ;
	bd:typedAs <http://www.assero.co.uk/CSN#c2ce7061-4855-450e-ba00-aa827986d372> ;
.
<http://www.cdisc.org/SDTMMODEL_INTERVENTIONS/V1#CL_MV--DOSTOT>
	rdf:type bd:SdtmModelVariable ;
	isoC:label "Total Daily Dose"^^xsd:string ;
	bd:rule ""^^xsd:string ;
	bd:ordinal "19"^^xsd:positiveInteger ;
	bd:name "--DOSTOT"^^xsd:string ;
	bd:prefixed "true"^^xsd:boolean ;
	bd:description "Total daily dose of --TRT using the units in --DOSU. Used when dosing is collected as Total Daily Dose."^^xsd:string ;
	bd:typedAs <http://www.assero.co.uk/CSN#4261b4e8-fbdf-4236-97e4-93f09b376547> ;
	bd:classifiedAs <http://www.assero.co.uk/CSN#19f5fd25-36ea-44e7-aa2b-d8e62217c7d0> ;
.
<http://www.cdisc.org/SDTMMODEL_INTERVENTIONS/V1#CL_MV--DOSRGM>
	rdf:type bd:SdtmModelVariable ;
	isoC:label "Intended Dose Regimen"^^xsd:string ;
	bd:rule ""^^xsd:string ;
	bd:ordinal "20"^^xsd:positiveInteger ;
	bd:name "--DOSRGM"^^xsd:string ;
	bd:prefixed "true"^^xsd:boolean ;
	bd:description "Text description of the (intended) schedule or regimen for the Intervention. Example: TWO WEEKS ON, TWO WEEKS OFF."^^xsd:string ;
	bd:typedAs <http://www.assero.co.uk/CSN#c2ce7061-4855-450e-ba00-aa827986d372> ;
.
<http://www.cdisc.org/SDTMMODEL_INTERVENTIONS/V1#CL_MV--ROUTE>
	rdf:type bd:SdtmModelVariable ;
	isoC:label "Route of Administration"^^xsd:string ;
	bd:rule ""^^xsd:string ;
	bd:ordinal "21"^^xsd:positiveInteger ;
	bd:name "--ROUTE"^^xsd:string ;
	bd:prefixed "true"^^xsd:boolean ;
	bd:description "Route of administration for the intervention. Examples: ORAL, INTRAVENOUS."^^xsd:string ;
	bd:typedAs <http://www.assero.co.uk/CSN#c2ce7061-4855-450e-ba00-aa827986d372> ;
.
<http://www.cdisc.org/SDTMMODEL_INTERVENTIONS/V1#CL_MV--LOT>
	rdf:type bd:SdtmModelVariable ;
	isoC:label "Lot Number"^^xsd:string ;
	bd:rule ""^^xsd:string ;
	bd:ordinal "22"^^xsd:positiveInteger ;
	bd:name "--LOT"^^xsd:string ;
	bd:prefixed "true"^^xsd:boolean ;
	bd:description "Lot number for the intervention described in --TRT."^^xsd:string ;
	bd:typedAs <http://www.assero.co.uk/CSN#c2ce7061-4855-450e-ba00-aa827986d372> ;
	bd:classifiedAs <http://www.assero.co.uk/CSN#19f5fd25-36ea-44e7-aa2b-d8e62217c7d0> ;
.
<http://www.cdisc.org/SDTMMODEL_INTERVENTIONS/V1#CL_MV--PSTRG>
	rdf:type bd:SdtmModelVariable ;
	isoC:label "Pharmaceutical Strength"^^xsd:string ;
	bd:rule ""^^xsd:string ;
	bd:ordinal "28"^^xsd:positiveInteger ;
	bd:name "--PSTRG"^^xsd:string ;
	bd:prefixed "true"^^xsd:boolean ;
	bd:description "Amount of an active ingredient expressed quantitatively per dosage unit, per unit of volume, or per unit of weight, according to the pharmaceutical dose form. Example: 50 mg/TABLET, 300 mg/L"^^xsd:string ;
	bd:typedAs <http://www.assero.co.uk/CSN#4261b4e8-fbdf-4236-97e4-93f09b376547> ;
.
<http://www.cdisc.org/SDTMMODEL_INTERVENTIONS/V1#CL_MV--PSTRGU>
	rdf:type bd:SdtmModelVariable ;
	isoC:label "Pharmaceutical Strength Units"^^xsd:string ;
	bd:rule ""^^xsd:string ;
	bd:ordinal "29"^^xsd:positiveInteger ;
	bd:name "--PSTRGU"^^xsd:string ;
	bd:prefixed "true"^^xsd:boolean ;
	bd:description "Unit for --PSTRG. Example: mg/TABLET, mg/mL"^^xsd:string ;
	bd:typedAs <http://www.assero.co.uk/CSN#c2ce7061-4855-450e-ba00-aa827986d372> ;
.
<http://www.cdisc.org/SDTMMODEL_INTERVENTIONS/V1#CL_MV--TRTV>
	rdf:type bd:SdtmModelVariable ;
	isoC:label "Treatment Vehicle"^^xsd:string ;
	bd:rule ""^^xsd:string ;
	bd:ordinal "30"^^xsd:positiveInteger ;
	bd:name "--TRTV"^^xsd:string ;
	bd:prefixed "true"^^xsd:boolean ;
	bd:description "Vehicle for administration of treatment, such as a liquid in which the treatment drug is dissolved. Example: SALINE."^^xsd:string ;
	bd:typedAs <http://www.assero.co.uk/CSN#c2ce7061-4855-450e-ba00-aa827986d372> ;
	bd:classifiedAs <http://www.assero.co.uk/CSN#19f5fd25-36ea-44e7-aa2b-d8e62217c7d0> ;
.
<http://www.cdisc.org/SDTMMODEL_INTERVENTIONS/V1#CL_MV--VAMT>
	rdf:type bd:SdtmModelVariable ;
	isoC:label "Treatment Vehicle Amount"^^xsd:string ;
	bd:rule ""^^xsd:string ;
	bd:ordinal "31"^^xsd:positiveInteger ;
	bd:name "--VAMT"^^xsd:string ;
	bd:prefixed "true"^^xsd:boolean ;
	bd:description "Amount of the prepared product (treatment + vehicle) administered or given. Note: should not be diluent amount alone."^^xsd:string ;
	bd:typedAs <http://www.assero.co.uk/CSN#4261b4e8-fbdf-4236-97e4-93f09b376547> ;
	bd:classifiedAs <http://www.assero.co.uk/CSN#19f5fd25-36ea-44e7-aa2b-d8e62217c7d0> ;
.
<http://www.cdisc.org/SDTMMODEL_INTERVENTIONS/V1#CL_MV--VAMTU>
	rdf:type bd:SdtmModelVariable ;
	isoC:label "Treatment Vehicle Amount Units"^^xsd:string ;
	bd:rule ""^^xsd:string ;
	bd:ordinal "32"^^xsd:positiveInteger ;
	bd:name "--VAMTU"^^xsd:string ;
	bd:prefixed "true"^^xsd:boolean ;
	bd:description "Units for the prepared product (treatment + vehicle). Examples: mL, mg."^^xsd:string ;
	bd:typedAs <http://www.assero.co.uk/CSN#c2ce7061-4855-450e-ba00-aa827986d372> ;
.
<http://www.cdisc.org/SDTMMODEL_INTERVENTIONS/V1#CL_MV--ADJ>
	rdf:type bd:SdtmModelVariable ;
	isoC:label "Reason for Dose Adjustment"^^xsd:string ;
	bd:rule ""^^xsd:string ;
	bd:ordinal "33"^^xsd:positiveInteger ;
	bd:name "--ADJ"^^xsd:string ;
	bd:prefixed "true"^^xsd:boolean ;
	bd:description "Describes reason or explanation of why a dose is adjusted. Examples ADVERSE EVENT, INSUFFICIENT RESPONSE, NON-MEDICAL REASON."^^xsd:string ;
	bd:typedAs <http://www.assero.co.uk/CSN#c2ce7061-4855-450e-ba00-aa827986d372> ;
	bd:classifiedAs <http://www.assero.co.uk/CSN#19f5fd25-36ea-44e7-aa2b-d8e62217c7d0> ;
.
<http://www.cdisc.org/SDTMMODEL_SPECIAL_PURPOSE/V1#CL_MVSUBJID>
	rdf:type bd:SdtmModelVariable ;
	isoC:label "Subject Identifier for the Study"^^xsd:string ;
	bd:rule ""^^xsd:string ;
	bd:ordinal "1"^^xsd:positiveInteger ;
	bd:name "SUBJID"^^xsd:string ;
	bd:prefixed "false"^^xsd:boolean ;
	bd:description "Subject identifier, which must be unique within the study. Often the ID of the subject as recorded on a CRF."^^xsd:string ;
	bd:typedAs <http://www.assero.co.uk/CSN#c2ce7061-4855-450e-ba00-aa827986d372> ;
	bd:classifiedAs <http://www.assero.co.uk/CSN#afe0d026-263a-42ad-b538-d50eaf8bc93d> ;
.
<http://www.cdisc.org/SDTMMODEL_SPECIAL_PURPOSE/V1#CL_MVRFSTDTC>
	rdf:type bd:SdtmModelVariable ;
	isoC:label "Subject Reference Start Date/Time"^^xsd:string ;
	bd:rule ""^^xsd:string ;
	bd:ordinal "2"^^xsd:positiveInteger ;
	bd:name "RFSTDTC"^^xsd:string ;
	bd:prefixed "false"^^xsd:boolean ;
	bd:description "Reference Start Date/time for the subject in ISO 8601 character format. Usually equivalent to date/time when subject was first exposed to study treatment. Required for all randomized subjects; will be null for all subjects who did not meet the milestone the date requires, such as screen failures or unassigned subjects."^^xsd:string ;
	bd:typedAs <http://www.assero.co.uk/CSN#c2ce7061-4855-450e-ba00-aa827986d372> ;
	bd:classifiedAs <http://www.assero.co.uk/CSN#19f5fd25-36ea-44e7-aa2b-d8e62217c7d0> ;
.
<http://www.cdisc.org/SDTMMODEL_SPECIAL_PURPOSE/V1#CL_MVRFENDTC>
	rdf:type bd:SdtmModelVariable ;
	isoC:label "Subject Reference End Date/Time"^^xsd:string ;
	bd:rule ""^^xsd:string ;
	bd:ordinal "3"^^xsd:positiveInteger ;
	bd:name "RFENDTC"^^xsd:string ;
	bd:prefixed "false"^^xsd:boolean ;
	bd:description "Reference End Date/time for the subject in ISO 8601 character format. Usually equivalent to the date/time when subject was determined to have ended the trial, and often equivalent to date/time of last exposure to study treatment. Required for all randomized subjects; null for screen failures or unassigned subjects."^^xsd:string ;
	bd:typedAs <http://www.assero.co.uk/CSN#c2ce7061-4855-450e-ba00-aa827986d372> ;
	bd:classifiedAs <http://www.assero.co.uk/CSN#19f5fd25-36ea-44e7-aa2b-d8e62217c7d0> ;
.
<http://www.cdisc.org/SDTMMODEL_SPECIAL_PURPOSE/V1#CL_MVRFXSTDTC>
	rdf:type bd:SdtmModelVariable ;
	isoC:label "Date/Time of First Study Treatment"^^xsd:string ;
	bd:rule ""^^xsd:string ;
	bd:ordinal "4"^^xsd:positiveInteger ;
	bd:name "RFXSTDTC"^^xsd:string ;
	bd:prefixed "false"^^xsd:boolean ;
	bd:description "First date/time of exposure to any protocol-specified treatment or therapy for the subject in ISO 8601 character format."^^xsd:string ;
	bd:typedAs <http://www.assero.co.uk/CSN#c2ce7061-4855-450e-ba00-aa827986d372> ;
	bd:classifiedAs <http://www.assero.co.uk/CSN#19f5fd25-36ea-44e7-aa2b-d8e62217c7d0> ;
.
<http://www.cdisc.org/SDTMMODEL_SPECIAL_PURPOSE/V1#CL_MVRFXENDTC>
	rdf:type bd:SdtmModelVariable ;
	isoC:label "Date/Time of Last Study Treatment"^^xsd:string ;
	bd:rule ""^^xsd:string ;
	bd:ordinal "5"^^xsd:positiveInteger ;
	bd:name "RFXENDTC"^^xsd:string ;
	bd:prefixed "false"^^xsd:boolean ;
	bd:description "Last date/time of exposure to any protocol-specified treatment or therapy for the subject in ISO 8601 character format."^^xsd:string ;
	bd:typedAs <http://www.assero.co.uk/CSN#c2ce7061-4855-450e-ba00-aa827986d372> ;
	bd:classifiedAs <http://www.assero.co.uk/CSN#19f5fd25-36ea-44e7-aa2b-d8e62217c7d0> ;
.
<http://www.cdisc.org/SDTMMODEL_SPECIAL_PURPOSE/V1#CL_MVRFICDTC>
	rdf:type bd:SdtmModelVariable ;
	isoC:label "Date/Time of Informed Consent"^^xsd:string ;
	bd:rule ""^^xsd:string ;
	bd:ordinal "6"^^xsd:positiveInteger ;
	bd:name "RFICDTC"^^xsd:string ;
	bd:prefixed "false"^^xsd:boolean ;
	bd:description "Date/time of informed consent in ISO 8601 character format."^^xsd:string ;
	bd:typedAs <http://www.assero.co.uk/CSN#c2ce7061-4855-450e-ba00-aa827986d372> ;
	bd:classifiedAs <http://www.assero.co.uk/CSN#19f5fd25-36ea-44e7-aa2b-d8e62217c7d0> ;
.
<http://www.cdisc.org/SDTMMODEL_SPECIAL_PURPOSE/V1#CL_MVRFPENDTC>
	rdf:type bd:SdtmModelVariable ;
	isoC:label "Date/Time of End of Participation"^^xsd:string ;
	bd:rule ""^^xsd:string ;
	bd:ordinal "7"^^xsd:positiveInteger ;
	bd:name "RFPENDTC"^^xsd:string ;
	bd:prefixed "false"^^xsd:boolean ;
	bd:description "Date/time when subject ended participation or follow-up in a trial, in ISO 8601 character format. Should correspond to the last known date of contact."^^xsd:string ;
	bd:typedAs <http://www.assero.co.uk/CSN#c2ce7061-4855-450e-ba00-aa827986d372> ;
	bd:classifiedAs <http://www.assero.co.uk/CSN#19f5fd25-36ea-44e7-aa2b-d8e62217c7d0> ;
.
<http://www.cdisc.org/SDTMMODEL_SPECIAL_PURPOSE/V1#CL_MVDTHDTC>
	rdf:type bd:SdtmModelVariable ;
	isoC:label "Date/Time of Death"^^xsd:string ;
	bd:rule ""^^xsd:string ;
	bd:ordinal "8"^^xsd:positiveInteger ;
	bd:name "DTHDTC"^^xsd:string ;
	bd:prefixed "false"^^xsd:boolean ;
	bd:description "Date/time of death for any subject who died, in ISO 8601 format. Should represent the date/time that is captured in the clinical-trial database."^^xsd:string ;
	bd:typedAs <http://www.assero.co.uk/CSN#c2ce7061-4855-450e-ba00-aa827986d372> ;
	bd:classifiedAs <http://www.assero.co.uk/CSN#19f5fd25-36ea-44e7-aa2b-d8e62217c7d0> ;
.
<http://www.cdisc.org/SDTMMODEL_SPECIAL_PURPOSE/V1#CL_MVDTHFL>
	rdf:type bd:SdtmModelVariable ;
	isoC:label "Subject Death Flag"^^xsd:string ;
	bd:rule ""^^xsd:string ;
	bd:ordinal "9"^^xsd:positiveInteger ;
	bd:name "DTHFL"^^xsd:string ;
	bd:prefixed "false"^^xsd:boolean ;
	bd:description "A value of 'Y' indicates the subject died. Should be Y or null. Should be populated even when the death date is unknown."^^xsd:string ;
	bd:typedAs <http://www.assero.co.uk/CSN#c2ce7061-4855-450e-ba00-aa827986d372> ;
	bd:classifiedAs <http://www.assero.co.uk/CSN#19f5fd25-36ea-44e7-aa2b-d8e62217c7d0> ;
.
<http://www.cdisc.org/SDTMMODEL_SPECIAL_PURPOSE/V1#CL_MVSITEID>
	rdf:type bd:SdtmModelVariable ;
	isoC:label "Study Site Identifier"^^xsd:string ;
	bd:rule ""^^xsd:string ;
	bd:ordinal "10"^^xsd:positiveInteger ;
	bd:name "SITEID"^^xsd:string ;
	bd:prefixed "false"^^xsd:boolean ;
	bd:description "Unique identifier for a site within a study."^^xsd:string ;
	bd:typedAs <http://www.assero.co.uk/CSN#c2ce7061-4855-450e-ba00-aa827986d372> ;
	bd:classifiedAs <http://www.assero.co.uk/CSN#19f5fd25-36ea-44e7-aa2b-d8e62217c7d0> ;
.
<http://www.cdisc.org/SDTMMODEL_SPECIAL_PURPOSE/V1#CL_MVINVID>
	rdf:type bd:SdtmModelVariable ;
	isoC:label "Investigator Identifier"^^xsd:string ;
	bd:rule ""^^xsd:string ;
	bd:ordinal "11"^^xsd:positiveInteger ;
	bd:name "INVID"^^xsd:string ;
	bd:prefixed "false"^^xsd:boolean ;
	bd:description "An identifier to describe the Investigator for the study. May be used in addition to the SITEID. Not needed if SITEID is equivalent to INVID."^^xsd:string ;
	bd:typedAs <http://www.assero.co.uk/CSN#c2ce7061-4855-450e-ba00-aa827986d372> ;
	bd:classifiedAs <http://www.assero.co.uk/CSN#19f5fd25-36ea-44e7-aa2b-d8e62217c7d0> ;
.
<http://www.cdisc.org/SDTMMODEL_SPECIAL_PURPOSE/V1#CL_MVINVNAM>
	rdf:type bd:SdtmModelVariable ;
	isoC:label "Investigator Name"^^xsd:string ;
	bd:rule ""^^xsd:string ;
	bd:ordinal "12"^^xsd:positiveInteger ;
	bd:name "INVNAM"^^xsd:string ;
	bd:prefixed "false"^^xsd:boolean ;
	bd:description "Name of the investigator for a site."^^xsd:string ;
	bd:typedAs <http://www.assero.co.uk/CSN#c2ce7061-4855-450e-ba00-aa827986d372> ;
	bd:classifiedAs <http://www.assero.co.uk/CSN#19f5fd25-36ea-44e7-aa2b-d8e62217c7d0> ;
.
<http://www.cdisc.org/SDTMMODEL_SPECIAL_PURPOSE/V1#CL_MVBRTHDTC>
	rdf:type bd:SdtmModelVariable ;
	isoC:label "Date/Time of Birth"^^xsd:string ;
	bd:rule ""^^xsd:string ;
	bd:ordinal "13"^^xsd:positiveInteger ;
	bd:name "BRTHDTC"^^xsd:string ;
	bd:prefixed "false"^^xsd:boolean ;
	bd:description "Date/time of birth of the subject in ISO 8601 character format."^^xsd:string ;
	bd:typedAs <http://www.assero.co.uk/CSN#c2ce7061-4855-450e-ba00-aa827986d372> ;
	bd:classifiedAs <http://www.assero.co.uk/CSN#19f5fd25-36ea-44e7-aa2b-d8e62217c7d0> ;
.
<http://www.cdisc.org/SDTMMODEL_SPECIAL_PURPOSE/V1#CL_MVAGE>
	rdf:type bd:SdtmModelVariable ;
	isoC:label "Age"^^xsd:string ;
	bd:rule ""^^xsd:string ;
	bd:ordinal "14"^^xsd:positiveInteger ;
	bd:name "AGE"^^xsd:string ;
	bd:prefixed "false"^^xsd:boolean ;
	bd:description "Age expressed in AGEU"^^xsd:string ;
	bd:typedAs <http://www.assero.co.uk/CSN#4261b4e8-fbdf-4236-97e4-93f09b376547> ;
	bd:classifiedAs <http://www.assero.co.uk/CSN#19f5fd25-36ea-44e7-aa2b-d8e62217c7d0> ;
.
<http://www.cdisc.org/SDTMMODEL_SPECIAL_PURPOSE/V1#CL_MVAGEU>
	rdf:type bd:SdtmModelVariable ;
	isoC:label "Age Units"^^xsd:string ;
	bd:rule ""^^xsd:string ;
	bd:ordinal "15"^^xsd:positiveInteger ;
	bd:name "AGEU"^^xsd:string ;
	bd:prefixed "false"^^xsd:boolean ;
	bd:description "Units associated with AGE."^^xsd:string ;
	bd:typedAs <http://www.assero.co.uk/CSN#c2ce7061-4855-450e-ba00-aa827986d372> ;
	bd:classifiedAs <http://www.assero.co.uk/CSN#19f5fd25-36ea-44e7-aa2b-d8e62217c7d0> ;
.
<http://www.cdisc.org/SDTMMODEL_SPECIAL_PURPOSE/V1#CL_MVSEX>
	rdf:type bd:SdtmModelVariable ;
	isoC:label "Sex"^^xsd:string ;
	bd:rule ""^^xsd:string ;
	bd:ordinal "16"^^xsd:positiveInteger ;
	bd:name "SEX"^^xsd:string ;
	bd:prefixed "false"^^xsd:boolean ;
	bd:description "Sex of the subject."^^xsd:string ;
	bd:typedAs <http://www.assero.co.uk/CSN#c2ce7061-4855-450e-ba00-aa827986d372> ;
	bd:classifiedAs <http://www.assero.co.uk/CSN#19f5fd25-36ea-44e7-aa2b-d8e62217c7d0> ;
.
<http://www.cdisc.org/SDTMMODEL_SPECIAL_PURPOSE/V1#CL_MVRACE>
	rdf:type bd:SdtmModelVariable ;
	isoC:label "Race"^^xsd:string ;
	bd:rule ""^^xsd:string ;
	bd:ordinal "17"^^xsd:positiveInteger ;
	bd:name "RACE"^^xsd:string ;
	bd:prefixed "false"^^xsd:boolean ;
	bd:description "Race of the subject. Sponsors should refer to \"Collection of Race and Ethnicity Data in Clinical Trials\" (FDA, September 2005) for guidance regarding the collection of race (http://www.fda.gov/cder/guidance/5656fnl.htm)"^^xsd:string ;
	bd:typedAs <http://www.assero.co.uk/CSN#c2ce7061-4855-450e-ba00-aa827986d372> ;
	bd:classifiedAs <http://www.assero.co.uk/CSN#19f5fd25-36ea-44e7-aa2b-d8e62217c7d0> ;
.
<http://www.cdisc.org/SDTMMODEL_SPECIAL_PURPOSE/V1#CL_MVETHNIC>
	rdf:type bd:SdtmModelVariable ;
	isoC:label "Ethnicity"^^xsd:string ;
	bd:rule ""^^xsd:string ;
	bd:ordinal "18"^^xsd:positiveInteger ;
	bd:name "ETHNIC"^^xsd:string ;
	bd:prefixed "false"^^xsd:boolean ;
	bd:description "The ethnicity of the subject. Sponsors should refer to \"Collection of Race and Ethnicity Data in Clinical Trials\" (FDA, September 2005) for guidance regarding the collection of ethnicity (http://www.fda.gov/cder/guidance/5656fnl.htm)."^^xsd:string ;
	bd:typedAs <http://www.assero.co.uk/CSN#c2ce7061-4855-450e-ba00-aa827986d372> ;
	bd:classifiedAs <http://www.assero.co.uk/CSN#19f5fd25-36ea-44e7-aa2b-d8e62217c7d0> ;
.
<http://www.cdisc.org/SDTMMODEL_SPECIAL_PURPOSE/V1#CL_MVSPECIES>
	rdf:type bd:SdtmModelVariable ;
	isoC:label "Species"^^xsd:string ;
	bd:rule ""^^xsd:string ;
	bd:ordinal "19"^^xsd:positiveInteger ;
	bd:name "SPECIES"^^xsd:string ;
	bd:prefixed "false"^^xsd:boolean ;
	bd:description "Used to identify the common species name of the subject (i.e., test system) under study (e.g., MOUSE, RAT, DOG, MONKEY)."^^xsd:string ;
	bd:typedAs <http://www.assero.co.uk/CSN#c2ce7061-4855-450e-ba00-aa827986d372> ;
	bd:classifiedAs <http://www.assero.co.uk/CSN#19f5fd25-36ea-44e7-aa2b-d8e62217c7d0> ;
.
<http://www.cdisc.org/SDTMMODEL_SPECIAL_PURPOSE/V1#CL_MVSTRAIN>
	rdf:type bd:SdtmModelVariable ;
	isoC:label "Strain/Substrain"^^xsd:string ;
	bd:rule ""^^xsd:string ;
	bd:ordinal "20"^^xsd:positiveInteger ;
	bd:name "STRAIN"^^xsd:string ;
	bd:prefixed "false"^^xsd:boolean ;
	bd:description "Used to identify the vendor-supplied strain/substrain designation for the subject (i.e., test system) under study. When applicable, it combines the root strain, substrain, and associated genetic modifications, as supplied by the vendor (e.g., C57BL/6, A/J, B6.129-Pparg<tm2Rev>/J, FISCHER 344, SPRAGUE DAWLEY IGS, WISTAR Kyoto, BEAGLE, CYNOMOLGUS, CHIMPANZEE)."^^xsd:string ;
	bd:typedAs <http://www.assero.co.uk/CSN#c2ce7061-4855-450e-ba00-aa827986d372> ;
	bd:classifiedAs <http://www.assero.co.uk/CSN#19f5fd25-36ea-44e7-aa2b-d8e62217c7d0> ;
.
<http://www.cdisc.org/SDTMMODEL_SPECIAL_PURPOSE/V1#CL_MVARMCD>
	rdf:type bd:SdtmModelVariable ;
	isoC:label "Planned Arm Code"^^xsd:string ;
	bd:rule ""^^xsd:string ;
	bd:ordinal "21"^^xsd:positiveInteger ;
	bd:name "ARMCD"^^xsd:string ;
	bd:prefixed "false"^^xsd:boolean ;
	bd:description "ARMCD is limited to 20 characters and does not have special character restrictions."^^xsd:string ;
	bd:typedAs <http://www.assero.co.uk/CSN#c2ce7061-4855-450e-ba00-aa827986d372> ;
	bd:classifiedAs <http://www.assero.co.uk/CSN#19f5fd25-36ea-44e7-aa2b-d8e62217c7d0> ;
.
<http://www.cdisc.org/SDTMMODEL_SPECIAL_PURPOSE/V1#CL_MVARM>
	rdf:type bd:SdtmModelVariable ;
	isoC:label "Description of Planned Arm"^^xsd:string ;
	bd:rule ""^^xsd:string ;
	bd:ordinal "22"^^xsd:positiveInteger ;
	bd:name "ARM"^^xsd:string ;
	bd:prefixed "false"^^xsd:boolean ;
	bd:description "Name of the Arm to which the subject was assigned."^^xsd:string ;
	bd:typedAs <http://www.assero.co.uk/CSN#c2ce7061-4855-450e-ba00-aa827986d372> ;
	bd:classifiedAs <http://www.assero.co.uk/CSN#19f5fd25-36ea-44e7-aa2b-d8e62217c7d0> ;
.
<http://www.cdisc.org/SDTMMODEL_SPECIAL_PURPOSE/V1#CL_MVACTARMCD>
	rdf:type bd:SdtmModelVariable ;
	isoC:label "Actual Arm Code"^^xsd:string ;
	bd:rule ""^^xsd:string ;
	bd:ordinal "23"^^xsd:positiveInteger ;
	bd:name "ACTARMCD"^^xsd:string ;
	bd:prefixed "false"^^xsd:boolean ;
	bd:description "Short name for the actual Arm in which the subject participated during the trial, limited to 20 characters."^^xsd:string ;
	bd:typedAs <http://www.assero.co.uk/CSN#c2ce7061-4855-450e-ba00-aa827986d372> ;
	bd:classifiedAs <http://www.assero.co.uk/CSN#19f5fd25-36ea-44e7-aa2b-d8e62217c7d0> ;
.
<http://www.cdisc.org/SDTMMODEL_SPECIAL_PURPOSE/V1#CL_MVACTARM>
	rdf:type bd:SdtmModelVariable ;
	isoC:label "Description of Actual Arm"^^xsd:string ;
	bd:rule ""^^xsd:string ;
	bd:ordinal "24"^^xsd:positiveInteger ;
	bd:name "ACTARM"^^xsd:string ;
	bd:prefixed "false"^^xsd:boolean ;
	bd:description "Description of the actual Arm in which the subject participated during the trial."^^xsd:string ;
	bd:typedAs <http://www.assero.co.uk/CSN#c2ce7061-4855-450e-ba00-aa827986d372> ;
	bd:classifiedAs <http://www.assero.co.uk/CSN#19f5fd25-36ea-44e7-aa2b-d8e62217c7d0> ;
.
<http://www.cdisc.org/SDTMMODEL_SPECIAL_PURPOSE/V1#CL_MVSETCD>
	rdf:type bd:SdtmModelVariable ;
	isoC:label "Set Code"^^xsd:string ;
	bd:rule ""^^xsd:string ;
	bd:ordinal "25"^^xsd:positiveInteger ;
	bd:name "SETCD"^^xsd:string ;
	bd:prefixed "false"^^xsd:boolean ;
	bd:description "Short name of a specific Trial Set (see Table 3.2.4), as defined by the sponsor. Maximum of 8 characters. This represents the code for the Trial Set for which parameters are being submitted."^^xsd:string ;
	bd:typedAs <http://www.assero.co.uk/CSN#c2ce7061-4855-450e-ba00-aa827986d372> ;
	bd:classifiedAs <http://www.assero.co.uk/CSN#19f5fd25-36ea-44e7-aa2b-d8e62217c7d0> ;
.
<http://www.cdisc.org/SDTMMODEL_SPECIAL_PURPOSE/V1#CL_MVCOUNTRY>
	rdf:type bd:SdtmModelVariable ;
	isoC:label "Country"^^xsd:string ;
	bd:rule ""^^xsd:string ;
	bd:ordinal "26"^^xsd:positiveInteger ;
	bd:name "COUNTRY"^^xsd:string ;
	bd:prefixed "false"^^xsd:boolean ;
	bd:description "Country of the investigational site at which the subject participated in the trial in ISO 3166 three-character format."^^xsd:string ;
	bd:typedAs <http://www.assero.co.uk/CSN#c2ce7061-4855-450e-ba00-aa827986d372> ;
	bd:classifiedAs <http://www.assero.co.uk/CSN#19f5fd25-36ea-44e7-aa2b-d8e62217c7d0> ;
.
<http://www.cdisc.org/SDTMMODEL_SPECIAL_PURPOSE/V1#CL_MVRDOMAIN>
	rdf:type bd:SdtmModelVariable ;
	isoC:label "Related Domain Abbreviation"^^xsd:string ;
	bd:rule ""^^xsd:string ;
	bd:ordinal "27"^^xsd:positiveInteger ;
	bd:name "RDOMAIN"^^xsd:string ;
	bd:prefixed "false"^^xsd:boolean ;
	bd:description "Domain Abbreviation of the parent record(s). Null for records collected on general comments or additional information CRF page."^^xsd:string ;
	bd:typedAs <http://www.assero.co.uk/CSN#c2ce7061-4855-450e-ba00-aa827986d372> ;
	bd:classifiedAs <http://www.assero.co.uk/CSN#19f5fd25-36ea-44e7-aa2b-d8e62217c7d0> ;
.
<http://www.cdisc.org/SDTMMODEL_SPECIAL_PURPOSE/V1#CL_MVIDVAR>
	rdf:type bd:SdtmModelVariable ;
	isoC:label "Identifying Variable"^^xsd:string ;
	bd:rule ""^^xsd:string ;
	bd:ordinal "30"^^xsd:positiveInteger ;
	bd:name "IDVAR"^^xsd:string ;
	bd:prefixed "false"^^xsd:boolean ;
	bd:description "Identifying variable in the parent dataset that identifies the record(s) to which the comment applies. Examples AESEQ or CMGRPID. Used only when individual comments are related to domain records. Null for comments collected on separate CRFs."^^xsd:string ;
	bd:typedAs <http://www.assero.co.uk/CSN#c2ce7061-4855-450e-ba00-aa827986d372> ;
	bd:classifiedAs <http://www.assero.co.uk/CSN#19f5fd25-36ea-44e7-aa2b-d8e62217c7d0> ;
.
<http://www.cdisc.org/SDTMMODEL_SPECIAL_PURPOSE/V1#CL_MVIDVARVAL>
	rdf:type bd:SdtmModelVariable ;
	isoC:label "Identifying Variable Value"^^xsd:string ;
	bd:rule ""^^xsd:string ;
	bd:ordinal "31"^^xsd:positiveInteger ;
	bd:name "IDVARVAL"^^xsd:string ;
	bd:prefixed "false"^^xsd:boolean ;
	bd:description "Value of identifying variable of the parent record(s). Null for comments collected on separate CRFs."^^xsd:string ;
	bd:typedAs <http://www.assero.co.uk/CSN#c2ce7061-4855-450e-ba00-aa827986d372> ;
	bd:classifiedAs <http://www.assero.co.uk/CSN#19f5fd25-36ea-44e7-aa2b-d8e62217c7d0> ;
.
<http://www.cdisc.org/SDTMMODEL_SPECIAL_PURPOSE/V1#CL_MV--REF>
	rdf:type bd:SdtmModelVariable ;
	isoC:label "Comment Reference"^^xsd:string ;
	bd:rule ""^^xsd:string ;
	bd:ordinal "32"^^xsd:positiveInteger ;
	bd:name "--REF"^^xsd:string ;
	bd:prefixed "true"^^xsd:boolean ;
	bd:description "Sponsor-defined reference associated with the comment. May be the CRF page number (e.g. 650), or a module name (e.g. DEMOG), or a combination of information that identifies the reference (e.g. 650-VITALS-VISIT 2)."^^xsd:string ;
	bd:typedAs <http://www.assero.co.uk/CSN#c2ce7061-4855-450e-ba00-aa827986d372> ;
	bd:classifiedAs <http://www.assero.co.uk/CSN#19f5fd25-36ea-44e7-aa2b-d8e62217c7d0> ;
.
<http://www.cdisc.org/SDTMMODEL_SPECIAL_PURPOSE/V1#CL_MV--VAL>
	rdf:type bd:SdtmModelVariable ;
	isoC:label "Comment"^^xsd:string ;
	bd:rule ""^^xsd:string ;
	bd:ordinal "33"^^xsd:positiveInteger ;
	bd:name "--VAL"^^xsd:string ;
	bd:prefixed "true"^^xsd:boolean ;
	bd:description "The text of the comment. Text over 200 characters can be added to additional columns COVAL1-COVALn."^^xsd:string ;
	bd:typedAs <http://www.assero.co.uk/CSN#c2ce7061-4855-450e-ba00-aa827986d372> ;
	bd:classifiedAs <http://www.assero.co.uk/CSN#afe0d026-263a-42ad-b538-d50eaf8bc93d> ;
.
<http://www.cdisc.org/SDTMMODEL_SPECIAL_PURPOSE/V1#CL_MVETCD>
	rdf:type bd:SdtmModelVariable ;
	isoC:label "Subject Element Code"^^xsd:string ;
	bd:rule ""^^xsd:string ;
	bd:ordinal "35"^^xsd:positiveInteger ;
	bd:name "ETCD"^^xsd:string ;
	bd:prefixed "false"^^xsd:boolean ;
	bd:description "ETCD (the companion to ELEMENT) is limited to 8 characters and does not have special character restrictions. These values should be short for ease of use in programming, but it is not expected that ETCD will need to serve as a variable name."^^xsd:string ;
	bd:typedAs <http://www.assero.co.uk/CSN#c2ce7061-4855-450e-ba00-aa827986d372> ;
	bd:classifiedAs <http://www.assero.co.uk/CSN#afe0d026-263a-42ad-b538-d50eaf8bc93d> ;
.
<http://www.cdisc.org/SDTMMODEL_SPECIAL_PURPOSE/V1#CL_MVELEMENT>
	rdf:type bd:SdtmModelVariable ;
	isoC:label "Description of Subject Element"^^xsd:string ;
	bd:rule ""^^xsd:string ;
	bd:ordinal "36"^^xsd:positiveInteger ;
	bd:name "ELEMENT"^^xsd:string ;
	bd:prefixed "false"^^xsd:boolean ;
	bd:description "The name of the Element. If ETCD has a value of \"UNPLAN\" then ELEMENT should be Null."^^xsd:string ;
	bd:typedAs <http://www.assero.co.uk/CSN#c2ce7061-4855-450e-ba00-aa827986d372> ;
	bd:classifiedAs <http://www.assero.co.uk/CSN#19f5fd25-36ea-44e7-aa2b-d8e62217c7d0> ;
.
<http://www.cdisc.org/SDTMMODEL_SPECIAL_PURPOSE/V1#CL_MV--UPDES>
	rdf:type bd:SdtmModelVariable ;
	isoC:label "Description of Unplanned Element"^^xsd:string ;
	bd:rule ""^^xsd:string ;
	bd:ordinal "37"^^xsd:positiveInteger ;
	bd:name "--UPDES"^^xsd:string ;
	bd:prefixed "true"^^xsd:boolean ;
	bd:description "Description of what happened to the subject during an unplanned Element. Used only if ETCD has the value of \"UNPLAN\"."^^xsd:string ;
	bd:typedAs <http://www.assero.co.uk/CSN#c2ce7061-4855-450e-ba00-aa827986d372> ;
	bd:classifiedAs <http://www.assero.co.uk/CSN#19f5fd25-36ea-44e7-aa2b-d8e62217c7d0> ;
.
<http://www.cdisc.org/SDTMMODEL_TRIAL_DESIGN/V1#CL_MV--STRL>
	rdf:type bd:SdtmModelVariable ;
	isoC:label "Rule for Start of Element"^^xsd:string ;
	bd:rule ""^^xsd:string ;
	bd:ordinal "3"^^xsd:positiveInteger ;
	bd:name "--STRL"^^xsd:string ;
	bd:prefixed "true"^^xsd:boolean ;
	bd:description "Expresses rule for beginning the Element."^^xsd:string ;
	bd:typedAs <http://www.assero.co.uk/CSN#c2ce7061-4855-450e-ba00-aa827986d372> ;
	bd:classifiedAs <http://www.assero.co.uk/CSN#93d81003-0828-40fd-a65f-7210b469fe88> ;
.
<http://www.cdisc.org/SDTMMODEL_TRIAL_DESIGN/V1#CL_MV--ENRL>
	rdf:type bd:SdtmModelVariable ;
	isoC:label "Rule for End of Element"^^xsd:string ;
	bd:rule ""^^xsd:string ;
	bd:ordinal "4"^^xsd:positiveInteger ;
	bd:name "--ENRL"^^xsd:string ;
	bd:prefixed "true"^^xsd:boolean ;
	bd:description "Expresses rule for ending the Element. Either TEENRL or TEDUR must be present for each Element."^^xsd:string ;
	bd:typedAs <http://www.assero.co.uk/CSN#c2ce7061-4855-450e-ba00-aa827986d372> ;
	bd:classifiedAs <http://www.assero.co.uk/CSN#93d81003-0828-40fd-a65f-7210b469fe88> ;
.
<http://www.cdisc.org/SDTMMODEL_TRIAL_DESIGN/V1#CL_MV--BRANCH>
	rdf:type bd:SdtmModelVariable ;
	isoC:label "Branch"^^xsd:string ;
	bd:rule ""^^xsd:string ;
	bd:ordinal "7"^^xsd:positiveInteger ;
	bd:name "--BRANCH"^^xsd:string ;
	bd:prefixed "true"^^xsd:boolean ;
	bd:description "Condition subjects meet, at a \"branch\" in the Trial Design at the end of this Element, to be included in this Arm. Example: Randomization to DRUG X."^^xsd:string ;
	bd:typedAs <http://www.assero.co.uk/CSN#c2ce7061-4855-450e-ba00-aa827986d372> ;
	bd:classifiedAs <http://www.assero.co.uk/CSN#93d81003-0828-40fd-a65f-7210b469fe88> ;
.
<http://www.cdisc.org/SDTMMODEL_TRIAL_DESIGN/V1#CL_MV--TRANS>
	rdf:type bd:SdtmModelVariable ;
	isoC:label "Transition Rule"^^xsd:string ;
	bd:rule ""^^xsd:string ;
	bd:ordinal "8"^^xsd:positiveInteger ;
	bd:name "--TRANS"^^xsd:string ;
	bd:prefixed "true"^^xsd:boolean ;
	bd:description "If the trial design allows a subject to transition to an Element other than the next Element in sequence, then the conditions for transitioning to those other Elements, and the alternative Element sequences, are specified in this rule (e.g., Responders go to washout)."^^xsd:string ;
	bd:typedAs <http://www.assero.co.uk/CSN#c2ce7061-4855-450e-ba00-aa827986d372> ;
	bd:classifiedAs <http://www.assero.co.uk/CSN#93d81003-0828-40fd-a65f-7210b469fe88> ;
.
<http://www.cdisc.org/SDTMMODEL_TRIAL_DESIGN/V1#CL_MVSET>
	rdf:type bd:SdtmModelVariable ;
	isoC:label "Set Description"^^xsd:string ;
	bd:rule ""^^xsd:string ;
	bd:ordinal "12"^^xsd:positiveInteger ;
	bd:name "SET"^^xsd:string ;
	bd:prefixed "false"^^xsd:boolean ;
	bd:description "Long description of a specific Trial Set, as defined by the sponsor."^^xsd:string ;
	bd:typedAs <http://www.assero.co.uk/CSN#c2ce7061-4855-450e-ba00-aa827986d372> ;
	bd:classifiedAs <http://www.assero.co.uk/CSN#19f5fd25-36ea-44e7-aa2b-d8e62217c7d0> ;
.
<http://www.cdisc.org/SDTMMODEL_TRIAL_DESIGN/V1#CL_MVIETESTCD>
	rdf:type bd:SdtmModelVariable ;
	isoC:label "Inclusion/Exclusion Criterion Short Name"^^xsd:string ;
	bd:rule ""^^xsd:string ;
	bd:ordinal "13"^^xsd:positiveInteger ;
	bd:name "IETESTCD"^^xsd:string ;
	bd:prefixed "false"^^xsd:boolean ;
	bd:description "Short name IETEST. It can be used as a column name when converting a dataset from a vertical to a horizontal format. The value in IETESTCD cannot be longer than 8 characters, nor can it start with a number (e.g., \"1TEST\"). IETESTCD cannot contain characters other than letters, numbers, or underscores. The name \"IE\" prefix is used to ensure consistency with the IE domain"^^xsd:string ;
	bd:typedAs <http://www.assero.co.uk/CSN#c2ce7061-4855-450e-ba00-aa827986d372> ;
	bd:classifiedAs <http://www.assero.co.uk/CSN#afe0d026-263a-42ad-b538-d50eaf8bc93d> ;
.
<http://www.cdisc.org/SDTMMODEL_TRIAL_DESIGN/V1#CL_MVIETEST>
	rdf:type bd:SdtmModelVariable ;
	isoC:label "Inclusion/Exclusion Criterion"^^xsd:string ;
	bd:rule ""^^xsd:string ;
	bd:ordinal "14"^^xsd:positiveInteger ;
	bd:name "IETEST"^^xsd:string ;
	bd:prefixed "false"^^xsd:boolean ;
	bd:description "Full text of the inclusion or exclusion criterion. The prefix \"IE\" is used to ensure consistency with the IE domain."^^xsd:string ;
	bd:typedAs <http://www.assero.co.uk/CSN#c2ce7061-4855-450e-ba00-aa827986d372> ;
	bd:classifiedAs <http://www.assero.co.uk/CSN#9a5be74f-df82-4d83-93d9-1c4ab59f6cc1> ;
.
<http://www.cdisc.org/SDTMMODEL_TRIAL_DESIGN/V1#CL_MVIECAT>
	rdf:type bd:SdtmModelVariable ;
	isoC:label "Inclusion/Exclusion Category"^^xsd:string ;
	bd:rule ""^^xsd:string ;
	bd:ordinal "15"^^xsd:positiveInteger ;
	bd:name "IECAT"^^xsd:string ;
	bd:prefixed "false"^^xsd:boolean ;
	bd:description "Used for categorization of the Inclusion/Exclusion Criterion: INCLUSION, EXCLUSION."^^xsd:string ;
	bd:typedAs <http://www.assero.co.uk/CSN#c2ce7061-4855-450e-ba00-aa827986d372> ;
	bd:classifiedAs <http://www.assero.co.uk/CSN#618b4fdd-86e2-4caa-b8eb-fea3f8067da5> ;
.
<http://www.cdisc.org/SDTMMODEL_TRIAL_DESIGN/V1#CL_MVIESCAT>
	rdf:type bd:SdtmModelVariable ;
	isoC:label "Inclusion/Exclusion Subcategory"^^xsd:string ;
	bd:rule ""^^xsd:string ;
	bd:ordinal "16"^^xsd:positiveInteger ;
	bd:name "IESCAT"^^xsd:string ;
	bd:prefixed "false"^^xsd:boolean ;
	bd:description "A further categorization of the exception criterion. Can be used to distinguish criteria for a sub-study or for to categorize as a major or minor exceptions. Examples: MAJOR, MINOR."^^xsd:string ;
	bd:typedAs <http://www.assero.co.uk/CSN#c2ce7061-4855-450e-ba00-aa827986d372> ;
	bd:classifiedAs <http://www.assero.co.uk/CSN#618b4fdd-86e2-4caa-b8eb-fea3f8067da5> ;
.
<http://www.cdisc.org/SDTMMODEL_TRIAL_DESIGN/V1#CL_MV--RL>
	rdf:type bd:SdtmModelVariable ;
	isoC:label "Inclusion/Exclusion Criterion Rule"^^xsd:string ;
	bd:rule ""^^xsd:string ;
	bd:ordinal "17"^^xsd:positiveInteger ;
	bd:name "--RL"^^xsd:string ;
	bd:prefixed "true"^^xsd:boolean ;
	bd:description "Rule that expresses the inclusion/exclusion criterion."^^xsd:string ;
	bd:typedAs <http://www.assero.co.uk/CSN#c2ce7061-4855-450e-ba00-aa827986d372> ;
	bd:classifiedAs <http://www.assero.co.uk/CSN#93d81003-0828-40fd-a65f-7210b469fe88> ;
.
<http://www.cdisc.org/SDTMMODEL_TRIAL_DESIGN/V1#CL_MV--VERS>
	rdf:type bd:SdtmModelVariable ;
	isoC:label "Protocol Criteria Versions"^^xsd:string ;
	bd:rule ""^^xsd:string ;
	bd:ordinal "18"^^xsd:positiveInteger ;
	bd:name "--VERS"^^xsd:string ;
	bd:prefixed "true"^^xsd:boolean ;
	bd:description "The number of this version of the Inclusion/Exclusion criteria. May be omitted if there is only one version."^^xsd:string ;
	bd:typedAs <http://www.assero.co.uk/CSN#c2ce7061-4855-450e-ba00-aa827986d372> ;
	bd:classifiedAs <http://www.assero.co.uk/CSN#19f5fd25-36ea-44e7-aa2b-d8e62217c7d0> ;
.
<http://www.cdisc.org/SDTMMODEL_TRIAL_DESIGN/V1#CL_MV--PARMCD>
	rdf:type bd:SdtmModelVariable ;
	isoC:label "Trial Summary Parameter Short Name"^^xsd:string ;
	bd:rule ""^^xsd:string ;
	bd:ordinal "19"^^xsd:positiveInteger ;
	bd:name "--PARMCD"^^xsd:string ;
	bd:prefixed "true"^^xsd:boolean ;
	bd:description "TSPARMCD (the companion to TSPARM) is limited to 8 characters and does not have special character restrictions. These values should be short for ease of use in programming, but it is not expected that TSPARMCD will need to serve as variable names. Examples: AGEMIN, AGEMAX"^^xsd:string ;
	bd:typedAs <http://www.assero.co.uk/CSN#c2ce7061-4855-450e-ba00-aa827986d372> ;
	bd:classifiedAs <http://www.assero.co.uk/CSN#afe0d026-263a-42ad-b538-d50eaf8bc93d> ;
.
<http://www.cdisc.org/SDTMMODEL_TRIAL_DESIGN/V1#CL_MV--PARM>
	rdf:type bd:SdtmModelVariable ;
	isoC:label "Trial Summary Parameter"^^xsd:string ;
	bd:rule ""^^xsd:string ;
	bd:ordinal "20"^^xsd:positiveInteger ;
	bd:name "--PARM"^^xsd:string ;
	bd:prefixed "true"^^xsd:boolean ;
	bd:description "Term for the Trial Summary Parameter. The value in TSPARM cannot be longer than 40 characters. Examples Planned Minimum Age of Subjects, Planned Maximum Age of Subjects"^^xsd:string ;
	bd:typedAs <http://www.assero.co.uk/CSN#c2ce7061-4855-450e-ba00-aa827986d372> ;
	bd:classifiedAs <http://www.assero.co.uk/CSN#9a5be74f-df82-4d83-93d9-1c4ab59f6cc1> ;
.
<http://www.cdisc.org/SDTMMODEL_TRIAL_DESIGN/V1#CL_MV--VALNF>
	rdf:type bd:SdtmModelVariable ;
	isoC:label "Parameter Null Flavor"^^xsd:string ;
	bd:rule ""^^xsd:string ;
	bd:ordinal "22"^^xsd:positiveInteger ;
	bd:name "--VALNF"^^xsd:string ;
	bd:prefixed "true"^^xsd:boolean ;
	bd:description "Null flavor for the value of TSVAL describing the reason the value is null, to be populated if and only if TSVAL is null."^^xsd:string ;
	bd:typedAs <http://www.assero.co.uk/CSN#c2ce7061-4855-450e-ba00-aa827986d372> ;
	bd:classifiedAs <http://www.assero.co.uk/CSN#ac5e5c1f-24f4-4a3d-bdb6-bff1afdd1985> ;
.
<http://www.cdisc.org/SDTMMODEL_TRIAL_DESIGN/V1#CL_MV--VALCD>
	rdf:type bd:SdtmModelVariable ;
	isoC:label "Parameter Value Code"^^xsd:string ;
	bd:rule ""^^xsd:string ;
	bd:ordinal "23"^^xsd:positiveInteger ;
	bd:name "--VALCD"^^xsd:string ;
	bd:prefixed "true"^^xsd:boolean ;
	bd:description "Code of the term in TSVAL from Reference Terminology cited in TSVCDREF."^^xsd:string ;
	bd:typedAs <http://www.assero.co.uk/CSN#c2ce7061-4855-450e-ba00-aa827986d372> ;
	bd:classifiedAs <http://www.assero.co.uk/CSN#ac5e5c1f-24f4-4a3d-bdb6-bff1afdd1985> ;
.
<http://www.cdisc.org/SDTMMODEL_TRIAL_DESIGN/V1#CL_MV--VCDREF>
	rdf:type bd:SdtmModelVariable ;
	isoC:label "Name of the Reference Terminology"^^xsd:string ;
	bd:rule ""^^xsd:string ;
	bd:ordinal "24"^^xsd:positiveInteger ;
	bd:name "--VCDREF"^^xsd:string ;
	bd:prefixed "true"^^xsd:boolean ;
	bd:description "The name of the Reference Terminology from which TSVALCD is taken. For example; CDISC, SNOMED, ISO 8601."^^xsd:string ;
	bd:typedAs <http://www.assero.co.uk/CSN#c2ce7061-4855-450e-ba00-aa827986d372> ;
	bd:classifiedAs <http://www.assero.co.uk/CSN#ac5e5c1f-24f4-4a3d-bdb6-bff1afdd1985> ;
.
<http://www.cdisc.org/SDTMMODEL_TRIAL_DESIGN/V1#CL_MV--VCDVER>
	rdf:type bd:SdtmModelVariable ;
	isoC:label "Version of the Reference Terminology"^^xsd:string ;
	bd:rule ""^^xsd:string ;
	bd:ordinal "25"^^xsd:positiveInteger ;
	bd:name "--VCDVER"^^xsd:string ;
	bd:prefixed "true"^^xsd:boolean ;
	bd:description "The version number of the Reference Terminology cited in TSVCDREF, if applicable."^^xsd:string ;
	bd:typedAs <http://www.assero.co.uk/CSN#c2ce7061-4855-450e-ba00-aa827986d372> ;
	bd:classifiedAs <http://www.assero.co.uk/CSN#ac5e5c1f-24f4-4a3d-bdb6-bff1afdd1985> ;
.
<http://www.cdisc.org/SDTMMODEL_TRIAL_DESIGN/V1#CL_MV--ORDER>
	rdf:type bd:SdtmModelVariable ;
	isoC:label "Sequence of Planned Assessment Schedule"^^xsd:string ;
	bd:rule ""^^xsd:string ;
	bd:ordinal "26"^^xsd:positiveInteger ;
	bd:name "--ORDER"^^xsd:string ;
	bd:prefixed "true"^^xsd:boolean ;
	bd:description "A number given to ensure ordinal sequencing of the planned assessment schedules within a trial."^^xsd:string ;
	bd:typedAs <http://www.assero.co.uk/CSN#4261b4e8-fbdf-4236-97e4-93f09b376547> ;
	bd:classifiedAs <http://www.assero.co.uk/CSN#66ff773d-9a9e-47c0-a6ca-d462bd1aea79> ;
.
<http://www.cdisc.org/SDTMMODEL_TRIAL_DESIGN/V1#CL_MV--ANCVAR>
	rdf:type bd:SdtmModelVariable ;
	isoC:label "Anchor Variable Name"^^xsd:string ;
	bd:rule ""^^xsd:string ;
	bd:ordinal "27"^^xsd:positiveInteger ;
	bd:name "--ANCVAR"^^xsd:string ;
	bd:prefixed "true"^^xsd:boolean ;
	bd:description "A reference to the date variable name that provides the start point from which the planned disease assessment schedule is measured. This must be referenced from the ADaM ADSL dataset e.g. ANCH1DT. Note: TDANCVAR is to contain the name of a reference date variable name."^^xsd:string ;
	bd:typedAs <http://www.assero.co.uk/CSN#c2ce7061-4855-450e-ba00-aa827986d372> ;
	bd:classifiedAs <http://www.assero.co.uk/CSN#66ff773d-9a9e-47c0-a6ca-d462bd1aea79> ;
.
<http://www.cdisc.org/SDTMMODEL_TRIAL_DESIGN/V1#CL_MV--STOFF>
	rdf:type bd:SdtmModelVariable ;
	isoC:label "Offset from the Anchor"^^xsd:string ;
	bd:rule ""^^xsd:string ;
	bd:ordinal "28"^^xsd:positiveInteger ;
	bd:name "--STOFF"^^xsd:string ;
	bd:prefixed "true"^^xsd:boolean ;
	bd:description "A fixed offset from the date provided by the variable referenced in TDANCVAR. This is used when the timing of planned cycles does not start on the exact day referenced in the variable indicated in TDANCVAR. The value of this variable will be either zero or a positive value and will be represented in ISO 8601 character format."^^xsd:string ;
	bd:typedAs <http://www.assero.co.uk/CSN#c2ce7061-4855-450e-ba00-aa827986d372> ;
	bd:classifiedAs <http://www.assero.co.uk/CSN#66ff773d-9a9e-47c0-a6ca-d462bd1aea79> ;
.
<http://www.cdisc.org/SDTMMODEL_TRIAL_DESIGN/V1#CL_MV--TGTPAI>
	rdf:type bd:SdtmModelVariable ;
	isoC:label "Planned Assessment Interval"^^xsd:string ;
	bd:rule ""^^xsd:string ;
	bd:ordinal "29"^^xsd:positiveInteger ;
	bd:name "--TGTPAI"^^xsd:string ;
	bd:prefixed "true"^^xsd:boolean ;
	bd:description "The planned interval between disease assessments represented in ISO 8601 character format."^^xsd:string ;
	bd:typedAs <http://www.assero.co.uk/CSN#c2ce7061-4855-450e-ba00-aa827986d372> ;
	bd:classifiedAs <http://www.assero.co.uk/CSN#66ff773d-9a9e-47c0-a6ca-d462bd1aea79> ;
.
<http://www.cdisc.org/SDTMMODEL_TRIAL_DESIGN/V1#CL_MV--MINPAI>
	rdf:type bd:SdtmModelVariable ;
	isoC:label "Planned Assessment Interval Minimum"^^xsd:string ;
	bd:rule ""^^xsd:string ;
	bd:ordinal "30"^^xsd:positiveInteger ;
	bd:name "--MINPAI"^^xsd:string ;
	bd:prefixed "true"^^xsd:boolean ;
	bd:description "The lower limit of the allowed range for the planned interval between disease assessments represented in ISO 8601 character format."^^xsd:string ;
	bd:typedAs <http://www.assero.co.uk/CSN#c2ce7061-4855-450e-ba00-aa827986d372> ;
	bd:classifiedAs <http://www.assero.co.uk/CSN#66ff773d-9a9e-47c0-a6ca-d462bd1aea79> ;
.
<http://www.cdisc.org/SDTMMODEL_TRIAL_DESIGN/V1#CL_MV--MAXPAI>
	rdf:type bd:SdtmModelVariable ;
	isoC:label "Planned Assessment Interval Maximum"^^xsd:string ;
	bd:rule ""^^xsd:string ;
	bd:ordinal "31"^^xsd:positiveInteger ;
	bd:name "--MAXPAI"^^xsd:string ;
	bd:prefixed "true"^^xsd:boolean ;
	bd:description "The upper limit of the allowed range for the planned interval between disease assessments represented in ISO 8601 character format."^^xsd:string ;
	bd:typedAs <http://www.assero.co.uk/CSN#c2ce7061-4855-450e-ba00-aa827986d372> ;
	bd:classifiedAs <http://www.assero.co.uk/CSN#66ff773d-9a9e-47c0-a6ca-d462bd1aea79> ;
.
<http://www.cdisc.org/SDTMMODEL_TRIAL_DESIGN/V1#CL_MV--NUMRPT>
	rdf:type bd:SdtmModelVariable ;
	isoC:label "Maximum Number of Actual Assessments"^^xsd:string ;
	bd:rule ""^^xsd:string ;
	bd:ordinal "32"^^xsd:positiveInteger ;
	bd:name "--NUMRPT"^^xsd:string ;
	bd:prefixed "true"^^xsd:boolean ;
	bd:description "This variable must represent the maximum number of actual assessments for the analysis that this disease assessment schedule describes. In a trial where the maximum number of assessments is not defined explicitly in the protocol (e.g. assessments occur until death) TDNUMRPT should represent the maximum number of disease assessments that support the efficacy analysis, encountered by any subject across the trial at that point in time."^^xsd:string ;
	bd:typedAs <http://www.assero.co.uk/CSN#4261b4e8-fbdf-4236-97e4-93f09b376547> ;
	bd:classifiedAs <http://www.assero.co.uk/CSN#19f5fd25-36ea-44e7-aa2b-d8e62217c7d0> ;
.
<http://www.cdisc.org/SDTMMODEL_RELATIONSHIP/V1#CL_MVRELTYPE>
	rdf:type bd:SdtmModelVariable ;
	isoC:label "Relationship Type"^^xsd:string ;
	bd:rule ""^^xsd:string ;
	bd:ordinal "6"^^xsd:positiveInteger ;
	bd:name "RELTYPE"^^xsd:string ;
	bd:prefixed "false"^^xsd:boolean ;
	bd:description "Identifies the hierarchical level of the records in the relationship. Values should be either ONE or MANY. However, values are only necessary when identifying a relationship between datasets."^^xsd:string ;
	bd:typedAs <http://www.assero.co.uk/CSN#c2ce7061-4855-450e-ba00-aa827986d372> ;
	bd:classifiedAs <http://www.assero.co.uk/CSN#19f5fd25-36ea-44e7-aa2b-d8e62217c7d0> ;
.
<http://www.cdisc.org/SDTMMODEL_RELATIONSHIP/V1#CL_MVRELID>
	rdf:type bd:SdtmModelVariable ;
	isoC:label "Relationship Identifier"^^xsd:string ;
	bd:rule ""^^xsd:string ;
	bd:ordinal "7"^^xsd:positiveInteger ;
	bd:name "RELID"^^xsd:string ;
	bd:prefixed "false"^^xsd:boolean ;
	bd:description "Unique value within USUBJID that identifies the relationship. All records for the same USUBJID that have the same RELID are considered \"related/associated.\" RELID can be any value the sponsor chooses, and is only meaningful within the RELREC dataset to identify the related/associated Domain records."^^xsd:string ;
	bd:typedAs <http://www.assero.co.uk/CSN#c2ce7061-4855-450e-ba00-aa827986d372> ;
	bd:classifiedAs <http://www.assero.co.uk/CSN#19f5fd25-36ea-44e7-aa2b-d8e62217c7d0> ;
.
<http://www.cdisc.org/SDTMMODEL_RELATIONSHIP/V1#CL_MVQNAM>
	rdf:type bd:SdtmModelVariable ;
	isoC:label "Qualifier Variable Name"^^xsd:string ;
	bd:rule ""^^xsd:string ;
	bd:ordinal "8"^^xsd:positiveInteger ;
	bd:name "QNAM"^^xsd:string ;
	bd:prefixed "false"^^xsd:boolean ;
	bd:description "The short name of the Qualifier variable, which is used as a column name in a domain view with data from the parent domain. The value in QNAM cannot be longer than 8 characters, nor can it start with a number (e.g., \"1TEST\"). QNAM cannot contain characters other than letters, numbers, or underscores. This will often be the column name in the sponsor's operational dataset."^^xsd:string ;
	bd:typedAs <http://www.assero.co.uk/CSN#c2ce7061-4855-450e-ba00-aa827986d372> ;
	bd:classifiedAs <http://www.assero.co.uk/CSN#19f5fd25-36ea-44e7-aa2b-d8e62217c7d0> ;
.
<http://www.cdisc.org/SDTMMODEL_RELATIONSHIP/V1#CL_MVQLABEL>
	rdf:type bd:SdtmModelVariable ;
	isoC:label "Qualifier Variable Label"^^xsd:string ;
	bd:rule ""^^xsd:string ;
	bd:ordinal "9"^^xsd:positiveInteger ;
	bd:name "QLABEL"^^xsd:string ;
	bd:prefixed "false"^^xsd:boolean ;
	bd:description "This is the long name or label associated with QNAM. The value in QLABEL cannot be longer than 40 characters. This will often be the column label in the sponsor's original dataset."^^xsd:string ;
	bd:typedAs <http://www.assero.co.uk/CSN#c2ce7061-4855-450e-ba00-aa827986d372> ;
	bd:classifiedAs <http://www.assero.co.uk/CSN#19f5fd25-36ea-44e7-aa2b-d8e62217c7d0> ;
.
<http://www.cdisc.org/SDTMMODEL_RELATIONSHIP/V1#CL_MVQVAL>
	rdf:type bd:SdtmModelVariable ;
	isoC:label "Data Value"^^xsd:string ;
	bd:rule ""^^xsd:string ;
	bd:ordinal "10"^^xsd:positiveInteger ;
	bd:name "QVAL"^^xsd:string ;
	bd:prefixed "false"^^xsd:boolean ;
	bd:description "Result of, response to, or value associated with QNAM. A value for this column is required; no records can be in SUPP-- with a null value for QVAL"^^xsd:string ;
	bd:typedAs <http://www.assero.co.uk/CSN#c2ce7061-4855-450e-ba00-aa827986d372> ;
	bd:classifiedAs <http://www.assero.co.uk/CSN#19f5fd25-36ea-44e7-aa2b-d8e62217c7d0> ;
.
<http://www.cdisc.org/SDTMMODEL_RELATIONSHIP/V1#CL_MVQORIG>
	rdf:type bd:SdtmModelVariable ;
	isoC:label "Origin"^^xsd:string ;
	bd:rule ""^^xsd:string ;
	bd:ordinal "11"^^xsd:positiveInteger ;
	bd:name "QORIG"^^xsd:string ;
	bd:prefixed "false"^^xsd:boolean ;
	bd:description "Since QVAL can represent a mixture of collected (on a CRF), derived, or assigned items, QORIG is used to indicate the origin of this data. Examples include CRF, ASSIGNED, or DERIVED."^^xsd:string ;
	bd:typedAs <http://www.assero.co.uk/CSN#c2ce7061-4855-450e-ba00-aa827986d372> ;
	bd:classifiedAs <http://www.assero.co.uk/CSN#19f5fd25-36ea-44e7-aa2b-d8e62217c7d0> ;
.
<http://www.cdisc.org/SDTMMODEL_RELATIONSHIP/V1#CL_MVQEVAL>
	rdf:type bd:SdtmModelVariable ;
	isoC:label "Evaluator"^^xsd:string ;
	bd:rule ""^^xsd:string ;
	bd:ordinal "12"^^xsd:positiveInteger ;
	bd:name "QEVAL"^^xsd:string ;
	bd:prefixed "false"^^xsd:boolean ;
	bd:description "Used only for results that are subjective (e.g., assigned by a person or a group). Should be null for records that contain objectively collected or derived data. Some examples include ADJUDICATION COMMITTEE, STATISTICIAN, DATABASE ADMINISTRATOR, CLINICAL COORDINATOR, etc."^^xsd:string ;
	bd:typedAs <http://www.assero.co.uk/CSN#c2ce7061-4855-450e-ba00-aa827986d372> ;
	bd:classifiedAs <http://www.assero.co.uk/CSN#19f5fd25-36ea-44e7-aa2b-d8e62217c7d0> ;
.
<http://www.cdisc.org/SDTMMODEL_ASSOCIATED_PERSONS/V1#CL>
	rdf:type bd:SdtmClass ;
	isoC:label "SDTMMODEL ASSOCIATED PERSONS"^^xsd:string ;
	isoT:hasState <http://www.cdisc.org/SDTMMODEL_ASSOCIATED_PERSONS/V1#CL_RS> ;
	isoT:hasIdentifier <http://www.cdisc.org/SDTMMODEL_ASSOCIATED_PERSONS/V1#CL_SI> ;
	isoT:origin ""^^xsd:string ;
	isoT:changeDescription ""^^xsd:string ;
	isoT:creationDate "2018-11-22T00:00:00+00:00"^^xsd:dateTime ;
	isoT:lastChangeDate "2018-11-22T00:00:00+00:00"^^xsd:dateTime ;
	isoT:explanatoryComment ""^^xsd:string ;
	bd:rule ""^^xsd:string ;
	bd:ordinal "1"^^xsd:positiveInteger ;
	bd:includesColumn <http://www.cdisc.org/SDTMMODEL_ASSOCIATED_PERSONS/V1#CL_CV1> ;
	bd:includesColumn <http://www.cdisc.org/SDTMMODEL_ASSOCIATED_PERSONS/V1#CL_CV2> ;
	bd:includesColumn <http://www.cdisc.org/SDTMMODEL_ASSOCIATED_PERSONS/V1#CL_CV3> ;
	bd:includesColumn <http://www.cdisc.org/SDTMMODEL_ASSOCIATED_PERSONS/V1#CL_CV4> ;
	bd:includesColumn <http://www.cdisc.org/SDTMMODEL_ASSOCIATED_PERSONS/V1#CL_CV5> ;
	bd:includesColumn <http://www.cdisc.org/SDTMMODEL_ASSOCIATED_PERSONS/V1#CL_CV6> ;
	bd:includesColumn <http://www.cdisc.org/SDTMMODEL_ASSOCIATED_PERSONS/V1#CL_CV7> ;
	bd:includesColumn <http://www.cdisc.org/SDTMMODEL_ASSOCIATED_PERSONS/V1#CL_CV8> ;
	bd:includesColumn <http://www.cdisc.org/SDTMMODEL_ASSOCIATED_PERSONS/V1#CL_CV9> ;
	bd:includesColumn <http://www.cdisc.org/SDTMMODEL_ASSOCIATED_PERSONS/V1#CL_CV10> ;
	bd:includesColumn <http://www.cdisc.org/SDTMMODEL_ASSOCIATED_PERSONS/V1#CL_CV11> ;
	bd:includesColumn <http://www.cdisc.org/SDTMMODEL_ASSOCIATED_PERSONS/V1#CL_CV12> ;
	bd:includesColumn <http://www.cdisc.org/SDTMMODEL_ASSOCIATED_PERSONS/V1#CL_CV13> ;
	bd:includesColumn <http://www.cdisc.org/SDTMMODEL_ASSOCIATED_PERSONS/V1#CL_CV14> ;
	bd:includesColumn <http://www.cdisc.org/SDTMMODEL_ASSOCIATED_PERSONS/V1#CL_CV15> ;
	bd:includesColumn <http://www.cdisc.org/SDTMMODEL_ASSOCIATED_PERSONS/V1#CL_CV16> ;
	bd:includesColumn <http://www.cdisc.org/SDTMMODEL_ASSOCIATED_PERSONS/V1#CL_CV17> ;
	bd:includesColumn <http://www.cdisc.org/SDTMMODEL_ASSOCIATED_PERSONS/V1#CL_CV18> ;
	bd:includesColumn <http://www.cdisc.org/SDTMMODEL_ASSOCIATED_PERSONS/V1#CL_CV19> ;
	bd:includesColumn <http://www.cdisc.org/SDTMMODEL_ASSOCIATED_PERSONS/V1#CL_CV20> ;
	bd:includesColumn <http://www.cdisc.org/SDTMMODEL_ASSOCIATED_PERSONS/V1#CL_CV21> ;
	bd:includesColumn <http://www.cdisc.org/SDTMMODEL_ASSOCIATED_PERSONS/V1#CL_CV22> ;
	bd:includesColumn <http://www.cdisc.org/SDTMMODEL_ASSOCIATED_PERSONS/V1#CL_CV23> ;
	bd:includesColumn <http://www.cdisc.org/SDTMMODEL_ASSOCIATED_PERSONS/V1#CL_CV24> ;
	bd:includesColumn <http://www.cdisc.org/SDTMMODEL_ASSOCIATED_PERSONS/V1#CL_CV25> ;
	bd:includesColumn <http://www.cdisc.org/SDTMMODEL_ASSOCIATED_PERSONS/V1#CL_CV26> ;
	bd:includesColumn <http://www.cdisc.org/SDTMMODEL_ASSOCIATED_PERSONS/V1#CL_CV27> ;
	bd:includesColumn <http://www.cdisc.org/SDTMMODEL_ASSOCIATED_PERSONS/V1#CL_CV28> ;
	bd:includesColumn <http://www.cdisc.org/SDTMMODEL_ASSOCIATED_PERSONS/V1#CL_CV29> ;
	bd:includesColumn <http://www.cdisc.org/SDTMMODEL_ASSOCIATED_PERSONS/V1#CL_CV30> ;
	bd:includesColumn <http://www.cdisc.org/SDTMMODEL_ASSOCIATED_PERSONS/V1#CL_CV31> ;
	bd:includesColumn <http://www.cdisc.org/SDTMMODEL_ASSOCIATED_PERSONS/V1#CL_CV32> ;
	bd:includesColumn <http://www.cdisc.org/SDTMMODEL_ASSOCIATED_PERSONS/V1#CL_CV33> ;
	bd:includesColumn <http://www.cdisc.org/SDTMMODEL_ASSOCIATED_PERSONS/V1#CL_CV34> ;
	bd:includesColumn <http://www.cdisc.org/SDTMMODEL_ASSOCIATED_PERSONS/V1#CL_CV35> ;
	bd:includesColumn <http://www.cdisc.org/SDTMMODEL_ASSOCIATED_PERSONS/V1#CL_CV36> ;
	bd:includesColumn <http://www.cdisc.org/SDTMMODEL_ASSOCIATED_PERSONS/V1#CL_CV37> ;
	bd:includesColumn <http://www.cdisc.org/SDTMMODEL_ASSOCIATED_PERSONS/V1#CL_CV38> ;
	bd:includesColumn <http://www.cdisc.org/SDTMMODEL_ASSOCIATED_PERSONS/V1#CL_CV39> ;
	bd:includesColumn <http://www.cdisc.org/SDTMMODEL_ASSOCIATED_PERSONS/V1#CL_CV40> ;
	bd:includesColumn <http://www.cdisc.org/SDTMMODEL_ASSOCIATED_PERSONS/V1#CL_CV41> ;
	bd:includesColumn <http://www.cdisc.org/SDTMMODEL_ASSOCIATED_PERSONS/V1#CL_CV42> ;
	bd:includesColumn <http://www.cdisc.org/SDTMMODEL_ASSOCIATED_PERSONS/V1#CL_CV43> ;
.
<http://www.cdisc.org/SDTMMODEL_ASSOCIATED_PERSONS/V1#CL_RS>
	rdf:type isoR:RegistrationState ;
	isoR:registrationStatus "Standard"^^xsd:string ;
	isoR:administrativeNote ""^^xsd:string ;
	isoR:effectiveDate "2016-01-01T00:00:00+00:00"^^xsd:dateTime ;
	isoR:untilDate "2016-01-01T00:00:00+00:00"^^xsd:dateTime ;
	isoR:unresolvedIssue ""^^xsd:string ;
	isoR:administrativeStatus ""^^xsd:string ;
	isoR:previousState "Standard"^^xsd:string ;
	isoR:multipleEdit "false"^^xsd:boolean ;
	isoR:byAuthority <http://www.assero.co.uk/RA#DUNS084433759> ;
.
<http://www.cdisc.org/SDTMMODEL_ASSOCIATED_PERSONS/V1#CL_SI>
	rdf:type isoI:ScopedIdentifier ;
	isoI:identifier "SDTMMODEL ASSOCIATED PERSONS"^^xsd:string ;
	isoI:versionLabel "1.1.1"^^xsd:string ;
	isoI:version "1"^^xsd:positiveInteger ;
	isoI:semanticVersion "1.1.1"^^xsd:string ;
	isoI:hasScope <http://www.assero.co.uk/NS#CDISC> ;
.
<http://www.cdisc.org/SDTMMODEL_ASSOCIATED_PERSONS/V1#CL_CV1>
	rdf:type bd:SdtmClassVariable ;
	isoC:label "Study Identifier"^^xsd:string ;
	bd:rule ""^^xsd:string ;
	bd:ordinal "1"^^xsd:positiveInteger ;
.
<http://www.cdisc.org/SDTMMODEL_ASSOCIATED_PERSONS/V1#CL_CV2>
	rdf:type bd:SdtmClassVariable ;
	isoC:label "Domain Abbreviation"^^xsd:string ;
	bd:rule ""^^xsd:string ;
	bd:ordinal "2"^^xsd:positiveInteger ;
.
<http://www.cdisc.org/SDTMMODEL_ASSOCIATED_PERSONS/V1#CL_CV3>
	rdf:type bd:SdtmClassVariable ;
	isoC:label "Unique Subject Identifier"^^xsd:string ;
	bd:rule ""^^xsd:string ;
	bd:ordinal "3"^^xsd:positiveInteger ;
.
<http://www.cdisc.org/SDTMMODEL_ASSOCIATED_PERSONS/V1#CL_CV4>
	rdf:type bd:SdtmClassVariable ;
	isoC:label "Pool Identifier"^^xsd:string ;
	bd:rule ""^^xsd:string ;
	bd:ordinal "4"^^xsd:positiveInteger ;
.
<http://www.cdisc.org/SDTMMODEL_ASSOCIATED_PERSONS/V1#CL_CV5>
	rdf:type bd:SdtmClassVariable ;
	isoC:label "Sponsor Device Identifier"^^xsd:string ;
	bd:rule ""^^xsd:string ;
	bd:ordinal "5"^^xsd:positiveInteger ;
.
<http://www.cdisc.org/SDTMMODEL_ASSOCIATED_PERSONS/V1#CL_CV6>
	rdf:type bd:SdtmClassVariable ;
	isoC:label "Sequence Number"^^xsd:string ;
	bd:rule ""^^xsd:string ;
	bd:ordinal "6"^^xsd:positiveInteger ;
.
<http://www.cdisc.org/SDTMMODEL_ASSOCIATED_PERSONS/V1#CL_CV7>
	rdf:type bd:SdtmClassVariable ;
	isoC:label "Group ID"^^xsd:string ;
	bd:rule ""^^xsd:string ;
	bd:ordinal "7"^^xsd:positiveInteger ;
.
<http://www.cdisc.org/SDTMMODEL_ASSOCIATED_PERSONS/V1#CL_CV8>
	rdf:type bd:SdtmClassVariable ;
	isoC:label "Reference ID"^^xsd:string ;
	bd:rule ""^^xsd:string ;
	bd:ordinal "8"^^xsd:positiveInteger ;
.
<http://www.cdisc.org/SDTMMODEL_ASSOCIATED_PERSONS/V1#CL_CV9>
	rdf:type bd:SdtmClassVariable ;
	isoC:label "Sponsor-Defined Identifier"^^xsd:string ;
	bd:rule ""^^xsd:string ;
	bd:ordinal "9"^^xsd:positiveInteger ;
.
<http://www.cdisc.org/SDTMMODEL_ASSOCIATED_PERSONS/V1#CL_CV10>
	rdf:type bd:SdtmClassVariable ;
	isoC:label "Link ID"^^xsd:string ;
	bd:rule ""^^xsd:string ;
	bd:ordinal "10"^^xsd:positiveInteger ;
.
<http://www.cdisc.org/SDTMMODEL_ASSOCIATED_PERSONS/V1#CL_CV11>
	rdf:type bd:SdtmClassVariable ;
	isoC:label "Link Group ID"^^xsd:string ;
	bd:rule ""^^xsd:string ;
	bd:ordinal "11"^^xsd:positiveInteger ;
.
<http://www.cdisc.org/SDTMMODEL_ASSOCIATED_PERSONS/V1#CL_CV12>
	rdf:type bd:SdtmClassVariable ;
	isoC:label "Visit Number"^^xsd:string ;
	bd:rule ""^^xsd:string ;
	bd:ordinal "12"^^xsd:positiveInteger ;
.
<http://www.cdisc.org/SDTMMODEL_ASSOCIATED_PERSONS/V1#CL_CV13>
	rdf:type bd:SdtmClassVariable ;
	isoC:label "Visit Name"^^xsd:string ;
	bd:rule ""^^xsd:string ;
	bd:ordinal "13"^^xsd:positiveInteger ;
.
<http://www.cdisc.org/SDTMMODEL_ASSOCIATED_PERSONS/V1#CL_CV14>
	rdf:type bd:SdtmClassVariable ;
	isoC:label "Planned Study Day of Visit"^^xsd:string ;
	bd:rule ""^^xsd:string ;
	bd:ordinal "14"^^xsd:positiveInteger ;
.
<http://www.cdisc.org/SDTMMODEL_ASSOCIATED_PERSONS/V1#CL_CV15>
	rdf:type bd:SdtmClassVariable ;
	isoC:label "Planned Order of Element within Arm"^^xsd:string ;
	bd:rule ""^^xsd:string ;
	bd:ordinal "15"^^xsd:positiveInteger ;
.
<http://www.cdisc.org/SDTMMODEL_ASSOCIATED_PERSONS/V1#CL_CV16>
	rdf:type bd:SdtmClassVariable ;
	isoC:label "Epoch"^^xsd:string ;
	bd:rule ""^^xsd:string ;
	bd:ordinal "16"^^xsd:positiveInteger ;
.
<http://www.cdisc.org/SDTMMODEL_ASSOCIATED_PERSONS/V1#CL_CV17>
	rdf:type bd:SdtmClassVariable ;
	isoC:label "Date/Time of Collection"^^xsd:string ;
	bd:rule ""^^xsd:string ;
	bd:ordinal "17"^^xsd:positiveInteger ;
.
<http://www.cdisc.org/SDTMMODEL_ASSOCIATED_PERSONS/V1#CL_CV18>
	rdf:type bd:SdtmClassVariable ;
	isoC:label "Start Date/Time of Observation"^^xsd:string ;
	bd:rule ""^^xsd:string ;
	bd:ordinal "18"^^xsd:positiveInteger ;
.
<http://www.cdisc.org/SDTMMODEL_ASSOCIATED_PERSONS/V1#CL_CV19>
	rdf:type bd:SdtmClassVariable ;
	isoC:label "End Date/Time of Observation"^^xsd:string ;
	bd:rule ""^^xsd:string ;
	bd:ordinal "19"^^xsd:positiveInteger ;
.
<http://www.cdisc.org/SDTMMODEL_ASSOCIATED_PERSONS/V1#CL_CV20>
	rdf:type bd:SdtmClassVariable ;
	isoC:label "Study Day of Visit/Collection/Exam"^^xsd:string ;
	bd:rule ""^^xsd:string ;
	bd:ordinal "20"^^xsd:positiveInteger ;
.
<http://www.cdisc.org/SDTMMODEL_ASSOCIATED_PERSONS/V1#CL_CV21>
	rdf:type bd:SdtmClassVariable ;
	isoC:label "Study Day of Start of Observation"^^xsd:string ;
	bd:rule ""^^xsd:string ;
	bd:ordinal "21"^^xsd:positiveInteger ;
.
<http://www.cdisc.org/SDTMMODEL_ASSOCIATED_PERSONS/V1#CL_CV22>
	rdf:type bd:SdtmClassVariable ;
	isoC:label "Study Day of End of Observation"^^xsd:string ;
	bd:rule ""^^xsd:string ;
	bd:ordinal "22"^^xsd:positiveInteger ;
.
<http://www.cdisc.org/SDTMMODEL_ASSOCIATED_PERSONS/V1#CL_CV23>
	rdf:type bd:SdtmClassVariable ;
	isoC:label "Duration"^^xsd:string ;
	bd:rule ""^^xsd:string ;
	bd:ordinal "23"^^xsd:positiveInteger ;
.
<http://www.cdisc.org/SDTMMODEL_ASSOCIATED_PERSONS/V1#CL_CV24>
	rdf:type bd:SdtmClassVariable ;
	isoC:label "Planned Time Point Name"^^xsd:string ;
	bd:rule ""^^xsd:string ;
	bd:ordinal "24"^^xsd:positiveInteger ;
.
<http://www.cdisc.org/SDTMMODEL_ASSOCIATED_PERSONS/V1#CL_CV25>
	rdf:type bd:SdtmClassVariable ;
	isoC:label "Planned Time Point Number"^^xsd:string ;
	bd:rule ""^^xsd:string ;
	bd:ordinal "25"^^xsd:positiveInteger ;
.
<http://www.cdisc.org/SDTMMODEL_ASSOCIATED_PERSONS/V1#CL_CV26>
	rdf:type bd:SdtmClassVariable ;
	isoC:label "Planned Elapsed Time from Time Point Ref"^^xsd:string ;
	bd:rule ""^^xsd:string ;
	bd:ordinal "26"^^xsd:positiveInteger ;
.
<http://www.cdisc.org/SDTMMODEL_ASSOCIATED_PERSONS/V1#CL_CV27>
	rdf:type bd:SdtmClassVariable ;
	isoC:label "Time Point Reference"^^xsd:string ;
	bd:rule ""^^xsd:string ;
	bd:ordinal "27"^^xsd:positiveInteger ;
.
<http://www.cdisc.org/SDTMMODEL_ASSOCIATED_PERSONS/V1#CL_CV28>
	rdf:type bd:SdtmClassVariable ;
	isoC:label "Date/Time of Reference Time Point"^^xsd:string ;
	bd:rule ""^^xsd:string ;
	bd:ordinal "28"^^xsd:positiveInteger ;
.
<http://www.cdisc.org/SDTMMODEL_ASSOCIATED_PERSONS/V1#CL_CV29>
	rdf:type bd:SdtmClassVariable ;
	isoC:label "Start Relative to Reference Period"^^xsd:string ;
	bd:rule ""^^xsd:string ;
	bd:ordinal "29"^^xsd:positiveInteger ;
.
<http://www.cdisc.org/SDTMMODEL_ASSOCIATED_PERSONS/V1#CL_CV30>
	rdf:type bd:SdtmClassVariable ;
	isoC:label "End Relative to Reference Period"^^xsd:string ;
	bd:rule ""^^xsd:string ;
	bd:ordinal "30"^^xsd:positiveInteger ;
.
<http://www.cdisc.org/SDTMMODEL_ASSOCIATED_PERSONS/V1#CL_CV31>
	rdf:type bd:SdtmClassVariable ;
	isoC:label "Evaluation Interval"^^xsd:string ;
	bd:rule ""^^xsd:string ;
	bd:ordinal "31"^^xsd:positiveInteger ;
.
<http://www.cdisc.org/SDTMMODEL_ASSOCIATED_PERSONS/V1#CL_CV32>
	rdf:type bd:SdtmClassVariable ;
	isoC:label "Evaluation Interval Text"^^xsd:string ;
	bd:rule ""^^xsd:string ;
	bd:ordinal "32"^^xsd:positiveInteger ;
.
<http://www.cdisc.org/SDTMMODEL_ASSOCIATED_PERSONS/V1#CL_CV33>
	rdf:type bd:SdtmClassVariable ;
	isoC:label "Start Relative to Reference Time Point"^^xsd:string ;
	bd:rule ""^^xsd:string ;
	bd:ordinal "33"^^xsd:positiveInteger ;
.
<http://www.cdisc.org/SDTMMODEL_ASSOCIATED_PERSONS/V1#CL_CV34>
	rdf:type bd:SdtmClassVariable ;
	isoC:label "Start Reference Time Point"^^xsd:string ;
	bd:rule ""^^xsd:string ;
	bd:ordinal "34"^^xsd:positiveInteger ;
.
<http://www.cdisc.org/SDTMMODEL_ASSOCIATED_PERSONS/V1#CL_CV35>
	rdf:type bd:SdtmClassVariable ;
	isoC:label "End Relative to Reference Time Point"^^xsd:string ;
	bd:rule ""^^xsd:string ;
	bd:ordinal "35"^^xsd:positiveInteger ;
.
<http://www.cdisc.org/SDTMMODEL_ASSOCIATED_PERSONS/V1#CL_CV36>
	rdf:type bd:SdtmClassVariable ;
	isoC:label "End Reference Time Point"^^xsd:string ;
	bd:rule ""^^xsd:string ;
	bd:ordinal "36"^^xsd:positiveInteger ;
.
<http://www.cdisc.org/SDTMMODEL_ASSOCIATED_PERSONS/V1#CL_CV37>
	rdf:type bd:SdtmClassVariable ;
	isoC:label "Planned Start of Assessment Interval"^^xsd:string ;
	bd:rule ""^^xsd:string ;
	bd:ordinal "37"^^xsd:positiveInteger ;
.
<http://www.cdisc.org/SDTMMODEL_ASSOCIATED_PERSONS/V1#CL_CV38>
	rdf:type bd:SdtmClassVariable ;
	isoC:label "Planned End of Assessment Interval"^^xsd:string ;
	bd:rule ""^^xsd:string ;
	bd:ordinal "38"^^xsd:positiveInteger ;
.
<http://www.cdisc.org/SDTMMODEL_ASSOCIATED_PERSONS/V1#CL_CV39>
	rdf:type bd:SdtmClassVariable ;
	isoC:label "Time in Days to Detection"^^xsd:string ;
	bd:rule ""^^xsd:string ;
	bd:ordinal "39"^^xsd:positiveInteger ;
.
<http://www.cdisc.org/SDTMMODEL_ASSOCIATED_PERSONS/V1#CL_CV40>
	rdf:type bd:SdtmClassVariable ;
	isoC:label "Associated Persons Identifier"^^xsd:string ;
	bd:rule ""^^xsd:string ;
	bd:ordinal "40"^^xsd:positiveInteger ;
.
<http://www.cdisc.org/SDTMMODEL_ASSOCIATED_PERSONS/V1#CL_CV41>
	rdf:type bd:SdtmClassVariable ;
	isoC:label "Related Subject"^^xsd:string ;
	bd:rule ""^^xsd:string ;
	bd:ordinal "41"^^xsd:positiveInteger ;
.
<http://www.cdisc.org/SDTMMODEL_ASSOCIATED_PERSONS/V1#CL_CV42>
	rdf:type bd:SdtmClassVariable ;
	isoC:label "Related Device"^^xsd:string ;
	bd:rule ""^^xsd:string ;
	bd:ordinal "42"^^xsd:positiveInteger ;
.
<http://www.cdisc.org/SDTMMODEL_ASSOCIATED_PERSONS/V1#CL_CV43>
	rdf:type bd:SdtmClassVariable ;
	isoC:label "Subject, Device, or Study Relationship"^^xsd:string ;
	bd:rule ""^^xsd:string ;
	bd:ordinal "43"^^xsd:positiveInteger ;
.
<http://www.cdisc.org/SDTMMODEL_EVENTS/V1#CL>
	rdf:type bd:SdtmClass ;
	isoC:label "SDTMMODEL EVENTS"^^xsd:string ;
	isoT:hasState <http://www.cdisc.org/SDTMMODEL_EVENTS/V1#CL_RS> ;
	isoT:hasIdentifier <http://www.cdisc.org/SDTMMODEL_EVENTS/V1#CL_SI> ;
	isoT:origin ""^^xsd:string ;
	isoT:changeDescription ""^^xsd:string ;
	isoT:creationDate "2018-11-22T00:00:00+00:00"^^xsd:dateTime ;
	isoT:lastChangeDate "2018-11-22T00:00:00+00:00"^^xsd:dateTime ;
	isoT:explanatoryComment ""^^xsd:string ;
	bd:rule ""^^xsd:string ;
	bd:ordinal "1"^^xsd:positiveInteger ;
	bd:includesColumn <http://www.cdisc.org/SDTMMODEL_EVENTS/V1#CL_CV1> ;
	bd:includesColumn <http://www.cdisc.org/SDTMMODEL_EVENTS/V1#CL_CV2> ;
	bd:includesColumn <http://www.cdisc.org/SDTMMODEL_EVENTS/V1#CL_CV3> ;
	bd:includesColumn <http://www.cdisc.org/SDTMMODEL_EVENTS/V1#CL_CV4> ;
	bd:includesColumn <http://www.cdisc.org/SDTMMODEL_EVENTS/V1#CL_CV5> ;
	bd:includesColumn <http://www.cdisc.org/SDTMMODEL_EVENTS/V1#CL_CV6> ;
	bd:includesColumn <http://www.cdisc.org/SDTMMODEL_EVENTS/V1#CL_CV7> ;
	bd:includesColumn <http://www.cdisc.org/SDTMMODEL_EVENTS/V1#CL_CV8> ;
	bd:includesColumn <http://www.cdisc.org/SDTMMODEL_EVENTS/V1#CL_CV9> ;
	bd:includesColumn <http://www.cdisc.org/SDTMMODEL_EVENTS/V1#CL_CV10> ;
	bd:includesColumn <http://www.cdisc.org/SDTMMODEL_EVENTS/V1#CL_CV11> ;
	bd:includesColumn <http://www.cdisc.org/SDTMMODEL_EVENTS/V1#CL_CV12> ;
	bd:includesColumn <http://www.cdisc.org/SDTMMODEL_EVENTS/V1#CL_CV13> ;
	bd:includesColumn <http://www.cdisc.org/SDTMMODEL_EVENTS/V1#CL_CV14> ;
	bd:includesColumn <http://www.cdisc.org/SDTMMODEL_EVENTS/V1#CL_CV15> ;
	bd:includesColumn <http://www.cdisc.org/SDTMMODEL_EVENTS/V1#CL_CV16> ;
	bd:includesColumn <http://www.cdisc.org/SDTMMODEL_EVENTS/V1#CL_CV17> ;
	bd:includesColumn <http://www.cdisc.org/SDTMMODEL_EVENTS/V1#CL_CV18> ;
	bd:includesColumn <http://www.cdisc.org/SDTMMODEL_EVENTS/V1#CL_CV19> ;
	bd:includesColumn <http://www.cdisc.org/SDTMMODEL_EVENTS/V1#CL_CV20> ;
	bd:includesColumn <http://www.cdisc.org/SDTMMODEL_EVENTS/V1#CL_CV21> ;
	bd:includesColumn <http://www.cdisc.org/SDTMMODEL_EVENTS/V1#CL_CV22> ;
	bd:includesColumn <http://www.cdisc.org/SDTMMODEL_EVENTS/V1#CL_CV23> ;
	bd:includesColumn <http://www.cdisc.org/SDTMMODEL_EVENTS/V1#CL_CV24> ;
	bd:includesColumn <http://www.cdisc.org/SDTMMODEL_EVENTS/V1#CL_CV25> ;
	bd:includesColumn <http://www.cdisc.org/SDTMMODEL_EVENTS/V1#CL_CV26> ;
	bd:includesColumn <http://www.cdisc.org/SDTMMODEL_EVENTS/V1#CL_CV27> ;
	bd:includesColumn <http://www.cdisc.org/SDTMMODEL_EVENTS/V1#CL_CV28> ;
	bd:includesColumn <http://www.cdisc.org/SDTMMODEL_EVENTS/V1#CL_CV29> ;
	bd:includesColumn <http://www.cdisc.org/SDTMMODEL_EVENTS/V1#CL_CV30> ;
	bd:includesColumn <http://www.cdisc.org/SDTMMODEL_EVENTS/V1#CL_CV31> ;
	bd:includesColumn <http://www.cdisc.org/SDTMMODEL_EVENTS/V1#CL_CV32> ;
	bd:includesColumn <http://www.cdisc.org/SDTMMODEL_EVENTS/V1#CL_CV33> ;
	bd:includesColumn <http://www.cdisc.org/SDTMMODEL_EVENTS/V1#CL_CV34> ;
	bd:includesColumn <http://www.cdisc.org/SDTMMODEL_EVENTS/V1#CL_CV35> ;
	bd:includesColumn <http://www.cdisc.org/SDTMMODEL_EVENTS/V1#CL_CV36> ;
	bd:includesColumn <http://www.cdisc.org/SDTMMODEL_EVENTS/V1#CL_CV37> ;
	bd:includesColumn <http://www.cdisc.org/SDTMMODEL_EVENTS/V1#CL_CV38> ;
	bd:includesColumn <http://www.cdisc.org/SDTMMODEL_EVENTS/V1#CL_CV39> ;
	bd:includesColumn <http://www.cdisc.org/SDTMMODEL_EVENTS/V1#CL_CV40> ;
	bd:includesColumn <http://www.cdisc.org/SDTMMODEL_EVENTS/V1#CL_CV41> ;
	bd:includesColumn <http://www.cdisc.org/SDTMMODEL_EVENTS/V1#CL_CV42> ;
	bd:includesColumn <http://www.cdisc.org/SDTMMODEL_EVENTS/V1#CL_CV43> ;
	bd:includesColumn <http://www.cdisc.org/SDTMMODEL_EVENTS/V1#CL_CV44> ;
	bd:includesColumn <http://www.cdisc.org/SDTMMODEL_EVENTS/V1#CL_CV45> ;
	bd:includesColumn <http://www.cdisc.org/SDTMMODEL_EVENTS/V1#CL_CV46> ;
	bd:includesColumn <http://www.cdisc.org/SDTMMODEL_EVENTS/V1#CL_CV47> ;
	bd:includesColumn <http://www.cdisc.org/SDTMMODEL_EVENTS/V1#CL_CV48> ;
	bd:includesColumn <http://www.cdisc.org/SDTMMODEL_EVENTS/V1#CL_CV49> ;
	bd:includesColumn <http://www.cdisc.org/SDTMMODEL_EVENTS/V1#CL_CV50> ;
	bd:includesColumn <http://www.cdisc.org/SDTMMODEL_EVENTS/V1#CL_CV51> ;
	bd:includesColumn <http://www.cdisc.org/SDTMMODEL_EVENTS/V1#CL_CV52> ;
	bd:includesColumn <http://www.cdisc.org/SDTMMODEL_EVENTS/V1#CL_CV53> ;
	bd:includesColumn <http://www.cdisc.org/SDTMMODEL_EVENTS/V1#CL_CV54> ;
	bd:includesColumn <http://www.cdisc.org/SDTMMODEL_EVENTS/V1#CL_CV55> ;
	bd:includesColumn <http://www.cdisc.org/SDTMMODEL_EVENTS/V1#CL_CV56> ;
	bd:includesColumn <http://www.cdisc.org/SDTMMODEL_EVENTS/V1#CL_CV57> ;
	bd:includesColumn <http://www.cdisc.org/SDTMMODEL_EVENTS/V1#CL_CV58> ;
	bd:includesColumn <http://www.cdisc.org/SDTMMODEL_EVENTS/V1#CL_CV59> ;
	bd:includesColumn <http://www.cdisc.org/SDTMMODEL_EVENTS/V1#CL_CV60> ;
	bd:includesColumn <http://www.cdisc.org/SDTMMODEL_EVENTS/V1#CL_CV61> ;
	bd:includesColumn <http://www.cdisc.org/SDTMMODEL_EVENTS/V1#CL_CV62> ;
	bd:includesColumn <http://www.cdisc.org/SDTMMODEL_EVENTS/V1#CL_CV63> ;
	bd:includesColumn <http://www.cdisc.org/SDTMMODEL_EVENTS/V1#CL_CV64> ;
	bd:includesColumn <http://www.cdisc.org/SDTMMODEL_EVENTS/V1#CL_CV65> ;
	bd:includesColumn <http://www.cdisc.org/SDTMMODEL_EVENTS/V1#CL_CV66> ;
	bd:includesColumn <http://www.cdisc.org/SDTMMODEL_EVENTS/V1#CL_CV67> ;
	bd:includesColumn <http://www.cdisc.org/SDTMMODEL_EVENTS/V1#CL_CV68> ;
	bd:includesColumn <http://www.cdisc.org/SDTMMODEL_EVENTS/V1#CL_CV69> ;
	bd:includesColumn <http://www.cdisc.org/SDTMMODEL_EVENTS/V1#CL_CV70> ;
	bd:includesColumn <http://www.cdisc.org/SDTMMODEL_EVENTS/V1#CL_CV71> ;
	bd:includesColumn <http://www.cdisc.org/SDTMMODEL_EVENTS/V1#CL_CV72> ;
	bd:includesColumn <http://www.cdisc.org/SDTMMODEL_EVENTS/V1#CL_CV73> ;
	bd:includesColumn <http://www.cdisc.org/SDTMMODEL_EVENTS/V1#CL_CV74> ;
	bd:includesColumn <http://www.cdisc.org/SDTMMODEL_EVENTS/V1#CL_CV75> ;
	bd:includesColumn <http://www.cdisc.org/SDTMMODEL_EVENTS/V1#CL_CV76> ;
	bd:includesColumn <http://www.cdisc.org/SDTMMODEL_EVENTS/V1#CL_CV77> ;
	bd:includesColumn <http://www.cdisc.org/SDTMMODEL_EVENTS/V1#CL_CV78> ;
	bd:includesColumn <http://www.cdisc.org/SDTMMODEL_EVENTS/V1#CL_CV79> ;
	bd:includesColumn <http://www.cdisc.org/SDTMMODEL_EVENTS/V1#CL_CV80> ;
	bd:includesColumn <http://www.cdisc.org/SDTMMODEL_EVENTS/V1#CL_CV81> ;
	bd:includesColumn <http://www.cdisc.org/SDTMMODEL_EVENTS/V1#CL_CV82> ;
	bd:includesColumn <http://www.cdisc.org/SDTMMODEL_EVENTS/V1#CL_CV83> ;
	bd:includesColumn <http://www.cdisc.org/SDTMMODEL_EVENTS/V1#CL_CV84> ;
	bd:includesColumn <http://www.cdisc.org/SDTMMODEL_EVENTS/V1#CL_CV85> ;
.
<http://www.cdisc.org/SDTMMODEL_EVENTS/V1#CL_RS>
	rdf:type isoR:RegistrationState ;
	isoR:registrationStatus "Standard"^^xsd:string ;
	isoR:administrativeNote ""^^xsd:string ;
	isoR:effectiveDate "2016-01-01T00:00:00+00:00"^^xsd:dateTime ;
	isoR:untilDate "2016-01-01T00:00:00+00:00"^^xsd:dateTime ;
	isoR:unresolvedIssue ""^^xsd:string ;
	isoR:administrativeStatus ""^^xsd:string ;
	isoR:previousState "Standard"^^xsd:string ;
	isoR:multipleEdit "false"^^xsd:boolean ;
	isoR:byAuthority <http://www.assero.co.uk/RA#DUNS084433759> ;
.
<http://www.cdisc.org/SDTMMODEL_EVENTS/V1#CL_SI>
	rdf:type isoI:ScopedIdentifier ;
	isoI:identifier "SDTMMODEL EVENTS"^^xsd:string ;
	isoI:versionLabel "1.1.1"^^xsd:string ;
	isoI:version "1"^^xsd:positiveInteger ;
	isoI:semanticVersion "1.1.1"^^xsd:string ;
	isoI:hasScope <http://www.assero.co.uk/NS#CDISC> ;
.
<http://www.cdisc.org/SDTMMODEL_EVENTS/V1#CL_CV1>
	rdf:type bd:SdtmClassVariable ;
	isoC:label "Study Identifier"^^xsd:string ;
	bd:rule ""^^xsd:string ;
	bd:ordinal "1"^^xsd:positiveInteger ;
.
<http://www.cdisc.org/SDTMMODEL_EVENTS/V1#CL_CV2>
	rdf:type bd:SdtmClassVariable ;
	isoC:label "Domain Abbreviation"^^xsd:string ;
	bd:rule ""^^xsd:string ;
	bd:ordinal "2"^^xsd:positiveInteger ;
.
<http://www.cdisc.org/SDTMMODEL_EVENTS/V1#CL_CV3>
	rdf:type bd:SdtmClassVariable ;
	isoC:label "Unique Subject Identifier"^^xsd:string ;
	bd:rule ""^^xsd:string ;
	bd:ordinal "3"^^xsd:positiveInteger ;
.
<http://www.cdisc.org/SDTMMODEL_EVENTS/V1#CL_CV4>
	rdf:type bd:SdtmClassVariable ;
	isoC:label "Pool Identifier"^^xsd:string ;
	bd:rule ""^^xsd:string ;
	bd:ordinal "4"^^xsd:positiveInteger ;
.
<http://www.cdisc.org/SDTMMODEL_EVENTS/V1#CL_CV5>
	rdf:type bd:SdtmClassVariable ;
	isoC:label "Sponsor Device Identifier"^^xsd:string ;
	bd:rule ""^^xsd:string ;
	bd:ordinal "5"^^xsd:positiveInteger ;
.
<http://www.cdisc.org/SDTMMODEL_EVENTS/V1#CL_CV6>
	rdf:type bd:SdtmClassVariable ;
	isoC:label "Sequence Number"^^xsd:string ;
	bd:rule ""^^xsd:string ;
	bd:ordinal "6"^^xsd:positiveInteger ;
.
<http://www.cdisc.org/SDTMMODEL_EVENTS/V1#CL_CV7>
	rdf:type bd:SdtmClassVariable ;
	isoC:label "Group ID"^^xsd:string ;
	bd:rule ""^^xsd:string ;
	bd:ordinal "7"^^xsd:positiveInteger ;
.
<http://www.cdisc.org/SDTMMODEL_EVENTS/V1#CL_CV8>
	rdf:type bd:SdtmClassVariable ;
	isoC:label "Reference ID"^^xsd:string ;
	bd:rule ""^^xsd:string ;
	bd:ordinal "8"^^xsd:positiveInteger ;
.
<http://www.cdisc.org/SDTMMODEL_EVENTS/V1#CL_CV9>
	rdf:type bd:SdtmClassVariable ;
	isoC:label "Sponsor-Defined Identifier"^^xsd:string ;
	bd:rule ""^^xsd:string ;
	bd:ordinal "9"^^xsd:positiveInteger ;
.
<http://www.cdisc.org/SDTMMODEL_EVENTS/V1#CL_CV10>
	rdf:type bd:SdtmClassVariable ;
	isoC:label "Link ID"^^xsd:string ;
	bd:rule ""^^xsd:string ;
	bd:ordinal "10"^^xsd:positiveInteger ;
.
<http://www.cdisc.org/SDTMMODEL_EVENTS/V1#CL_CV11>
	rdf:type bd:SdtmClassVariable ;
	isoC:label "Link Group ID"^^xsd:string ;
	bd:rule ""^^xsd:string ;
	bd:ordinal "11"^^xsd:positiveInteger ;
.
<http://www.cdisc.org/SDTMMODEL_EVENTS/V1#CL_CV12>
	rdf:type bd:SdtmClassVariable ;
	isoC:label "Visit Number"^^xsd:string ;
	bd:rule ""^^xsd:string ;
	bd:ordinal "12"^^xsd:positiveInteger ;
.
<http://www.cdisc.org/SDTMMODEL_EVENTS/V1#CL_CV13>
	rdf:type bd:SdtmClassVariable ;
	isoC:label "Visit Name"^^xsd:string ;
	bd:rule ""^^xsd:string ;
	bd:ordinal "13"^^xsd:positiveInteger ;
.
<http://www.cdisc.org/SDTMMODEL_EVENTS/V1#CL_CV14>
	rdf:type bd:SdtmClassVariable ;
	isoC:label "Planned Study Day of Visit"^^xsd:string ;
	bd:rule ""^^xsd:string ;
	bd:ordinal "14"^^xsd:positiveInteger ;
.
<http://www.cdisc.org/SDTMMODEL_EVENTS/V1#CL_CV15>
	rdf:type bd:SdtmClassVariable ;
	isoC:label "Planned Order of Element within Arm"^^xsd:string ;
	bd:rule ""^^xsd:string ;
	bd:ordinal "15"^^xsd:positiveInteger ;
.
<http://www.cdisc.org/SDTMMODEL_EVENTS/V1#CL_CV16>
	rdf:type bd:SdtmClassVariable ;
	isoC:label "Epoch"^^xsd:string ;
	bd:rule ""^^xsd:string ;
	bd:ordinal "16"^^xsd:positiveInteger ;
.
<http://www.cdisc.org/SDTMMODEL_EVENTS/V1#CL_CV17>
	rdf:type bd:SdtmClassVariable ;
	isoC:label "Date/Time of Collection"^^xsd:string ;
	bd:rule ""^^xsd:string ;
	bd:ordinal "17"^^xsd:positiveInteger ;
.
<http://www.cdisc.org/SDTMMODEL_EVENTS/V1#CL_CV18>
	rdf:type bd:SdtmClassVariable ;
	isoC:label "Start Date/Time of Observation"^^xsd:string ;
	bd:rule ""^^xsd:string ;
	bd:ordinal "18"^^xsd:positiveInteger ;
.
<http://www.cdisc.org/SDTMMODEL_EVENTS/V1#CL_CV19>
	rdf:type bd:SdtmClassVariable ;
	isoC:label "End Date/Time of Observation"^^xsd:string ;
	bd:rule ""^^xsd:string ;
	bd:ordinal "19"^^xsd:positiveInteger ;
.
<http://www.cdisc.org/SDTMMODEL_EVENTS/V1#CL_CV20>
	rdf:type bd:SdtmClassVariable ;
	isoC:label "Study Day of Visit/Collection/Exam"^^xsd:string ;
	bd:rule ""^^xsd:string ;
	bd:ordinal "20"^^xsd:positiveInteger ;
.
<http://www.cdisc.org/SDTMMODEL_EVENTS/V1#CL_CV21>
	rdf:type bd:SdtmClassVariable ;
	isoC:label "Study Day of Start of Observation"^^xsd:string ;
	bd:rule ""^^xsd:string ;
	bd:ordinal "21"^^xsd:positiveInteger ;
.
<http://www.cdisc.org/SDTMMODEL_EVENTS/V1#CL_CV22>
	rdf:type bd:SdtmClassVariable ;
	isoC:label "Study Day of End of Observation"^^xsd:string ;
	bd:rule ""^^xsd:string ;
	bd:ordinal "22"^^xsd:positiveInteger ;
.
<http://www.cdisc.org/SDTMMODEL_EVENTS/V1#CL_CV23>
	rdf:type bd:SdtmClassVariable ;
	isoC:label "Duration"^^xsd:string ;
	bd:rule ""^^xsd:string ;
	bd:ordinal "23"^^xsd:positiveInteger ;
.
<http://www.cdisc.org/SDTMMODEL_EVENTS/V1#CL_CV24>
	rdf:type bd:SdtmClassVariable ;
	isoC:label "Planned Time Point Name"^^xsd:string ;
	bd:rule ""^^xsd:string ;
	bd:ordinal "24"^^xsd:positiveInteger ;
.
<http://www.cdisc.org/SDTMMODEL_EVENTS/V1#CL_CV25>
	rdf:type bd:SdtmClassVariable ;
	isoC:label "Planned Time Point Number"^^xsd:string ;
	bd:rule ""^^xsd:string ;
	bd:ordinal "25"^^xsd:positiveInteger ;
.
<http://www.cdisc.org/SDTMMODEL_EVENTS/V1#CL_CV26>
	rdf:type bd:SdtmClassVariable ;
	isoC:label "Planned Elapsed Time from Time Point Ref"^^xsd:string ;
	bd:rule ""^^xsd:string ;
	bd:ordinal "26"^^xsd:positiveInteger ;
.
<http://www.cdisc.org/SDTMMODEL_EVENTS/V1#CL_CV27>
	rdf:type bd:SdtmClassVariable ;
	isoC:label "Time Point Reference"^^xsd:string ;
	bd:rule ""^^xsd:string ;
	bd:ordinal "27"^^xsd:positiveInteger ;
.
<http://www.cdisc.org/SDTMMODEL_EVENTS/V1#CL_CV28>
	rdf:type bd:SdtmClassVariable ;
	isoC:label "Date/Time of Reference Time Point"^^xsd:string ;
	bd:rule ""^^xsd:string ;
	bd:ordinal "28"^^xsd:positiveInteger ;
.
<http://www.cdisc.org/SDTMMODEL_EVENTS/V1#CL_CV29>
	rdf:type bd:SdtmClassVariable ;
	isoC:label "Start Relative to Reference Period"^^xsd:string ;
	bd:rule ""^^xsd:string ;
	bd:ordinal "29"^^xsd:positiveInteger ;
.
<http://www.cdisc.org/SDTMMODEL_EVENTS/V1#CL_CV30>
	rdf:type bd:SdtmClassVariable ;
	isoC:label "End Relative to Reference Period"^^xsd:string ;
	bd:rule ""^^xsd:string ;
	bd:ordinal "30"^^xsd:positiveInteger ;
.
<http://www.cdisc.org/SDTMMODEL_EVENTS/V1#CL_CV31>
	rdf:type bd:SdtmClassVariable ;
	isoC:label "Evaluation Interval"^^xsd:string ;
	bd:rule ""^^xsd:string ;
	bd:ordinal "31"^^xsd:positiveInteger ;
.
<http://www.cdisc.org/SDTMMODEL_EVENTS/V1#CL_CV32>
	rdf:type bd:SdtmClassVariable ;
	isoC:label "Evaluation Interval Text"^^xsd:string ;
	bd:rule ""^^xsd:string ;
	bd:ordinal "32"^^xsd:positiveInteger ;
.
<http://www.cdisc.org/SDTMMODEL_EVENTS/V1#CL_CV33>
	rdf:type bd:SdtmClassVariable ;
	isoC:label "Start Relative to Reference Time Point"^^xsd:string ;
	bd:rule ""^^xsd:string ;
	bd:ordinal "33"^^xsd:positiveInteger ;
.
<http://www.cdisc.org/SDTMMODEL_EVENTS/V1#CL_CV34>
	rdf:type bd:SdtmClassVariable ;
	isoC:label "Start Reference Time Point"^^xsd:string ;
	bd:rule ""^^xsd:string ;
	bd:ordinal "34"^^xsd:positiveInteger ;
.
<http://www.cdisc.org/SDTMMODEL_EVENTS/V1#CL_CV35>
	rdf:type bd:SdtmClassVariable ;
	isoC:label "End Relative to Reference Time Point"^^xsd:string ;
	bd:rule ""^^xsd:string ;
	bd:ordinal "35"^^xsd:positiveInteger ;
.
<http://www.cdisc.org/SDTMMODEL_EVENTS/V1#CL_CV36>
	rdf:type bd:SdtmClassVariable ;
	isoC:label "End Reference Time Point"^^xsd:string ;
	bd:rule ""^^xsd:string ;
	bd:ordinal "36"^^xsd:positiveInteger ;
.
<http://www.cdisc.org/SDTMMODEL_EVENTS/V1#CL_CV37>
	rdf:type bd:SdtmClassVariable ;
	isoC:label "Planned Start of Assessment Interval"^^xsd:string ;
	bd:rule ""^^xsd:string ;
	bd:ordinal "37"^^xsd:positiveInteger ;
.
<http://www.cdisc.org/SDTMMODEL_EVENTS/V1#CL_CV38>
	rdf:type bd:SdtmClassVariable ;
	isoC:label "Planned End of Assessment Interval"^^xsd:string ;
	bd:rule ""^^xsd:string ;
	bd:ordinal "38"^^xsd:positiveInteger ;
.
<http://www.cdisc.org/SDTMMODEL_EVENTS/V1#CL_CV39>
	rdf:type bd:SdtmClassVariable ;
	isoC:label "Time in Days to Detection"^^xsd:string ;
	bd:rule ""^^xsd:string ;
	bd:ordinal "39"^^xsd:positiveInteger ;
.
<http://www.cdisc.org/SDTMMODEL_EVENTS/V1#CL_CV40>
	rdf:type bd:SdtmClassVariable ;
	isoC:label "Reported Term"^^xsd:string ;
	bd:rule ""^^xsd:string ;
	bd:ordinal "40"^^xsd:positiveInteger ;
.
<http://www.cdisc.org/SDTMMODEL_EVENTS/V1#CL_CV41>
	rdf:type bd:SdtmClassVariable ;
	isoC:label "Modified Reported Term"^^xsd:string ;
	bd:rule ""^^xsd:string ;
	bd:ordinal "41"^^xsd:positiveInteger ;
.
<http://www.cdisc.org/SDTMMODEL_EVENTS/V1#CL_CV42>
	rdf:type bd:SdtmClassVariable ;
	isoC:label "Lowest Level Term"^^xsd:string ;
	bd:rule ""^^xsd:string ;
	bd:ordinal "42"^^xsd:positiveInteger ;
.
<http://www.cdisc.org/SDTMMODEL_EVENTS/V1#CL_CV43>
	rdf:type bd:SdtmClassVariable ;
	isoC:label "Lowest Level Term Code"^^xsd:string ;
	bd:rule ""^^xsd:string ;
	bd:ordinal "43"^^xsd:positiveInteger ;
.
<http://www.cdisc.org/SDTMMODEL_EVENTS/V1#CL_CV44>
	rdf:type bd:SdtmClassVariable ;
	isoC:label "Dictionary-Derived Term"^^xsd:string ;
	bd:rule ""^^xsd:string ;
	bd:ordinal "44"^^xsd:positiveInteger ;
.
<http://www.cdisc.org/SDTMMODEL_EVENTS/V1#CL_CV45>
	rdf:type bd:SdtmClassVariable ;
	isoC:label "Preferred Term Code"^^xsd:string ;
	bd:rule ""^^xsd:string ;
	bd:ordinal "45"^^xsd:positiveInteger ;
.
<http://www.cdisc.org/SDTMMODEL_EVENTS/V1#CL_CV46>
	rdf:type bd:SdtmClassVariable ;
	isoC:label "High Level Term"^^xsd:string ;
	bd:rule ""^^xsd:string ;
	bd:ordinal "46"^^xsd:positiveInteger ;
.
<http://www.cdisc.org/SDTMMODEL_EVENTS/V1#CL_CV47>
	rdf:type bd:SdtmClassVariable ;
	isoC:label "High Level Term Code"^^xsd:string ;
	bd:rule ""^^xsd:string ;
	bd:ordinal "47"^^xsd:positiveInteger ;
.
<http://www.cdisc.org/SDTMMODEL_EVENTS/V1#CL_CV48>
	rdf:type bd:SdtmClassVariable ;
	isoC:label "High Level Group Term"^^xsd:string ;
	bd:rule ""^^xsd:string ;
	bd:ordinal "48"^^xsd:positiveInteger ;
.
<http://www.cdisc.org/SDTMMODEL_EVENTS/V1#CL_CV49>
	rdf:type bd:SdtmClassVariable ;
	isoC:label "High Level Group Term Code"^^xsd:string ;
	bd:rule ""^^xsd:string ;
	bd:ordinal "49"^^xsd:positiveInteger ;
.
<http://www.cdisc.org/SDTMMODEL_EVENTS/V1#CL_CV50>
	rdf:type bd:SdtmClassVariable ;
	isoC:label "Category"^^xsd:string ;
	bd:rule ""^^xsd:string ;
	bd:ordinal "50"^^xsd:positiveInteger ;
.
<http://www.cdisc.org/SDTMMODEL_EVENTS/V1#CL_CV51>
	rdf:type bd:SdtmClassVariable ;
	isoC:label "Subcategory"^^xsd:string ;
	bd:rule ""^^xsd:string ;
	bd:ordinal "51"^^xsd:positiveInteger ;
.
<http://www.cdisc.org/SDTMMODEL_EVENTS/V1#CL_CV52>
	rdf:type bd:SdtmClassVariable ;
	isoC:label "Pre-specified"^^xsd:string ;
	bd:rule ""^^xsd:string ;
	bd:ordinal "52"^^xsd:positiveInteger ;
.
<http://www.cdisc.org/SDTMMODEL_EVENTS/V1#CL_CV53>
	rdf:type bd:SdtmClassVariable ;
	isoC:label "Occurrence"^^xsd:string ;
	bd:rule ""^^xsd:string ;
	bd:ordinal "53"^^xsd:positiveInteger ;
.
<http://www.cdisc.org/SDTMMODEL_EVENTS/V1#CL_CV54>
	rdf:type bd:SdtmClassVariable ;
	isoC:label "Completion Status"^^xsd:string ;
	bd:rule ""^^xsd:string ;
	bd:ordinal "54"^^xsd:positiveInteger ;
.
<http://www.cdisc.org/SDTMMODEL_EVENTS/V1#CL_CV55>
	rdf:type bd:SdtmClassVariable ;
	isoC:label "Reason Not Done"^^xsd:string ;
	bd:rule ""^^xsd:string ;
	bd:ordinal "55"^^xsd:positiveInteger ;
.
<http://www.cdisc.org/SDTMMODEL_EVENTS/V1#CL_CV56>
	rdf:type bd:SdtmClassVariable ;
	isoC:label "Body System or Organ Class"^^xsd:string ;
	bd:rule ""^^xsd:string ;
	bd:ordinal "56"^^xsd:positiveInteger ;
.
<http://www.cdisc.org/SDTMMODEL_EVENTS/V1#CL_CV57>
	rdf:type bd:SdtmClassVariable ;
	isoC:label "Body System or Organ Class Code"^^xsd:string ;
	bd:rule ""^^xsd:string ;
	bd:ordinal "57"^^xsd:positiveInteger ;
.
<http://www.cdisc.org/SDTMMODEL_EVENTS/V1#CL_CV58>
	rdf:type bd:SdtmClassVariable ;
	isoC:label "Primary System Organ Class"^^xsd:string ;
	bd:rule ""^^xsd:string ;
	bd:ordinal "58"^^xsd:positiveInteger ;
.
<http://www.cdisc.org/SDTMMODEL_EVENTS/V1#CL_CV59>
	rdf:type bd:SdtmClassVariable ;
	isoC:label "Primary System Organ Class Code"^^xsd:string ;
	bd:rule ""^^xsd:string ;
	bd:ordinal "59"^^xsd:positiveInteger ;
.
<http://www.cdisc.org/SDTMMODEL_EVENTS/V1#CL_CV60>
	rdf:type bd:SdtmClassVariable ;
	isoC:label "Location of Event"^^xsd:string ;
	bd:rule ""^^xsd:string ;
	bd:ordinal "60"^^xsd:positiveInteger ;
.
<http://www.cdisc.org/SDTMMODEL_EVENTS/V1#CL_CV61>
	rdf:type bd:SdtmClassVariable ;
	isoC:label "Laterality"^^xsd:string ;
	bd:rule ""^^xsd:string ;
	bd:ordinal "61"^^xsd:positiveInteger ;
.
<http://www.cdisc.org/SDTMMODEL_EVENTS/V1#CL_CV62>
	rdf:type bd:SdtmClassVariable ;
	isoC:label "Directionality"^^xsd:string ;
	bd:rule ""^^xsd:string ;
	bd:ordinal "62"^^xsd:positiveInteger ;
.
<http://www.cdisc.org/SDTMMODEL_EVENTS/V1#CL_CV63>
	rdf:type bd:SdtmClassVariable ;
	isoC:label "Portion or Totality"^^xsd:string ;
	bd:rule ""^^xsd:string ;
	bd:ordinal "63"^^xsd:positiveInteger ;
.
<http://www.cdisc.org/SDTMMODEL_EVENTS/V1#CL_CV64>
	rdf:type bd:SdtmClassVariable ;
	isoC:label "Accountable Party"^^xsd:string ;
	bd:rule ""^^xsd:string ;
	bd:ordinal "64"^^xsd:positiveInteger ;
.
<http://www.cdisc.org/SDTMMODEL_EVENTS/V1#CL_CV65>
	rdf:type bd:SdtmClassVariable ;
	isoC:label "Identification of Accountable Party"^^xsd:string ;
	bd:rule ""^^xsd:string ;
	bd:ordinal "65"^^xsd:positiveInteger ;
.
<http://www.cdisc.org/SDTMMODEL_EVENTS/V1#CL_CV66>
	rdf:type bd:SdtmClassVariable ;
	isoC:label "Severity/Intensity"^^xsd:string ;
	bd:rule ""^^xsd:string ;
	bd:ordinal "66"^^xsd:positiveInteger ;
.
<http://www.cdisc.org/SDTMMODEL_EVENTS/V1#CL_CV67>
	rdf:type bd:SdtmClassVariable ;
	isoC:label "Serious Event"^^xsd:string ;
	bd:rule ""^^xsd:string ;
	bd:ordinal "67"^^xsd:positiveInteger ;
.
<http://www.cdisc.org/SDTMMODEL_EVENTS/V1#CL_CV68>
	rdf:type bd:SdtmClassVariable ;
	isoC:label "Action Taken with Study Treatment"^^xsd:string ;
	bd:rule ""^^xsd:string ;
	bd:ordinal "68"^^xsd:positiveInteger ;
.
<http://www.cdisc.org/SDTMMODEL_EVENTS/V1#CL_CV69>
	rdf:type bd:SdtmClassVariable ;
	isoC:label "Other Action Taken"^^xsd:string ;
	bd:rule ""^^xsd:string ;
	bd:ordinal "69"^^xsd:positiveInteger ;
.
<http://www.cdisc.org/SDTMMODEL_EVENTS/V1#CL_CV70>
	rdf:type bd:SdtmClassVariable ;
	isoC:label "Action Taken with Device"^^xsd:string ;
	bd:rule ""^^xsd:string ;
	bd:ordinal "70"^^xsd:positiveInteger ;
.
<http://www.cdisc.org/SDTMMODEL_EVENTS/V1#CL_CV71>
	rdf:type bd:SdtmClassVariable ;
	isoC:label "Causality"^^xsd:string ;
	bd:rule ""^^xsd:string ;
	bd:ordinal "71"^^xsd:positiveInteger ;
.
<http://www.cdisc.org/SDTMMODEL_EVENTS/V1#CL_CV72>
	rdf:type bd:SdtmClassVariable ;
	isoC:label "Relationship to Non-Study Treatment"^^xsd:string ;
	bd:rule ""^^xsd:string ;
	bd:ordinal "72"^^xsd:positiveInteger ;
.
<http://www.cdisc.org/SDTMMODEL_EVENTS/V1#CL_CV73>
	rdf:type bd:SdtmClassVariable ;
	isoC:label "Pattern of Event"^^xsd:string ;
	bd:rule ""^^xsd:string ;
	bd:ordinal "73"^^xsd:positiveInteger ;
.
<http://www.cdisc.org/SDTMMODEL_EVENTS/V1#CL_CV74>
	rdf:type bd:SdtmClassVariable ;
	isoC:label "Outcome of Event"^^xsd:string ;
	bd:rule ""^^xsd:string ;
	bd:ordinal "74"^^xsd:positiveInteger ;
.
<http://www.cdisc.org/SDTMMODEL_EVENTS/V1#CL_CV75>
	rdf:type bd:SdtmClassVariable ;
	isoC:label "Involves Cancer"^^xsd:string ;
	bd:rule ""^^xsd:string ;
	bd:ordinal "75"^^xsd:positiveInteger ;
.
<http://www.cdisc.org/SDTMMODEL_EVENTS/V1#CL_CV76>
	rdf:type bd:SdtmClassVariable ;
	isoC:label "Congenital Anomaly or Birth Defect"^^xsd:string ;
	bd:rule ""^^xsd:string ;
	bd:ordinal "76"^^xsd:positiveInteger ;
.
<http://www.cdisc.org/SDTMMODEL_EVENTS/V1#CL_CV77>
	rdf:type bd:SdtmClassVariable ;
	isoC:label "Persist or Signif Disability/Incapacity"^^xsd:string ;
	bd:rule ""^^xsd:string ;
	bd:ordinal "77"^^xsd:positiveInteger ;
.
<http://www.cdisc.org/SDTMMODEL_EVENTS/V1#CL_CV78>
	rdf:type bd:SdtmClassVariable ;
	isoC:label "Results in Death"^^xsd:string ;
	bd:rule ""^^xsd:string ;
	bd:ordinal "78"^^xsd:positiveInteger ;
.
<http://www.cdisc.org/SDTMMODEL_EVENTS/V1#CL_CV79>
	rdf:type bd:SdtmClassVariable ;
	isoC:label "Requires or Prolongs Hospitalization"^^xsd:string ;
	bd:rule ""^^xsd:string ;
	bd:ordinal "79"^^xsd:positiveInteger ;
.
<http://www.cdisc.org/SDTMMODEL_EVENTS/V1#CL_CV80>
	rdf:type bd:SdtmClassVariable ;
	isoC:label "Is Life Threatening"^^xsd:string ;
	bd:rule ""^^xsd:string ;
	bd:ordinal "80"^^xsd:positiveInteger ;
.
<http://www.cdisc.org/SDTMMODEL_EVENTS/V1#CL_CV81>
	rdf:type bd:SdtmClassVariable ;
	isoC:label "Occurred with Overdose"^^xsd:string ;
	bd:rule ""^^xsd:string ;
	bd:ordinal "81"^^xsd:positiveInteger ;
.
<http://www.cdisc.org/SDTMMODEL_EVENTS/V1#CL_CV82>
	rdf:type bd:SdtmClassVariable ;
	isoC:label "Other Medically Important Serious Event"^^xsd:string ;
	bd:rule ""^^xsd:string ;
	bd:ordinal "82"^^xsd:positiveInteger ;
.
<http://www.cdisc.org/SDTMMODEL_EVENTS/V1#CL_CV83>
	rdf:type bd:SdtmClassVariable ;
	isoC:label "Concomitant or Additional Trtmnt Given"^^xsd:string ;
	bd:rule ""^^xsd:string ;
	bd:ordinal "83"^^xsd:positiveInteger ;
.
<http://www.cdisc.org/SDTMMODEL_EVENTS/V1#CL_CV84>
	rdf:type bd:SdtmClassVariable ;
	isoC:label "Toxicity"^^xsd:string ;
	bd:rule ""^^xsd:string ;
	bd:ordinal "84"^^xsd:positiveInteger ;
.
<http://www.cdisc.org/SDTMMODEL_EVENTS/V1#CL_CV85>
	rdf:type bd:SdtmClassVariable ;
	isoC:label "Toxicity Grade"^^xsd:string ;
	bd:rule ""^^xsd:string ;
	bd:ordinal "85"^^xsd:positiveInteger ;
.
<http://www.cdisc.org/SDTMMODEL_FINDINGS_ABOUT/V1#CL>
	rdf:type bd:SdtmClass ;
	isoC:label "SDTMMODEL FINDINGS ABOUT"^^xsd:string ;
	isoT:hasState <http://www.cdisc.org/SDTMMODEL_FINDINGS_ABOUT/V1#CL_RS> ;
	isoT:hasIdentifier <http://www.cdisc.org/SDTMMODEL_FINDINGS_ABOUT/V1#CL_SI> ;
	isoT:origin ""^^xsd:string ;
	isoT:changeDescription ""^^xsd:string ;
	isoT:creationDate "2018-11-22T00:00:00+00:00"^^xsd:dateTime ;
	isoT:lastChangeDate "2018-11-22T00:00:00+00:00"^^xsd:dateTime ;
	isoT:explanatoryComment ""^^xsd:string ;
	bd:rule ""^^xsd:string ;
	bd:ordinal "1"^^xsd:positiveInteger ;
	bd:includesColumn <http://www.cdisc.org/SDTMMODEL_FINDINGS_ABOUT/V1#CL_CV1> ;
	bd:includesColumn <http://www.cdisc.org/SDTMMODEL_FINDINGS_ABOUT/V1#CL_CV2> ;
	bd:includesColumn <http://www.cdisc.org/SDTMMODEL_FINDINGS_ABOUT/V1#CL_CV3> ;
	bd:includesColumn <http://www.cdisc.org/SDTMMODEL_FINDINGS_ABOUT/V1#CL_CV4> ;
	bd:includesColumn <http://www.cdisc.org/SDTMMODEL_FINDINGS_ABOUT/V1#CL_CV5> ;
	bd:includesColumn <http://www.cdisc.org/SDTMMODEL_FINDINGS_ABOUT/V1#CL_CV6> ;
	bd:includesColumn <http://www.cdisc.org/SDTMMODEL_FINDINGS_ABOUT/V1#CL_CV7> ;
	bd:includesColumn <http://www.cdisc.org/SDTMMODEL_FINDINGS_ABOUT/V1#CL_CV8> ;
	bd:includesColumn <http://www.cdisc.org/SDTMMODEL_FINDINGS_ABOUT/V1#CL_CV9> ;
	bd:includesColumn <http://www.cdisc.org/SDTMMODEL_FINDINGS_ABOUT/V1#CL_CV10> ;
	bd:includesColumn <http://www.cdisc.org/SDTMMODEL_FINDINGS_ABOUT/V1#CL_CV11> ;
	bd:includesColumn <http://www.cdisc.org/SDTMMODEL_FINDINGS_ABOUT/V1#CL_CV12> ;
	bd:includesColumn <http://www.cdisc.org/SDTMMODEL_FINDINGS_ABOUT/V1#CL_CV13> ;
	bd:includesColumn <http://www.cdisc.org/SDTMMODEL_FINDINGS_ABOUT/V1#CL_CV14> ;
	bd:includesColumn <http://www.cdisc.org/SDTMMODEL_FINDINGS_ABOUT/V1#CL_CV15> ;
	bd:includesColumn <http://www.cdisc.org/SDTMMODEL_FINDINGS_ABOUT/V1#CL_CV16> ;
	bd:includesColumn <http://www.cdisc.org/SDTMMODEL_FINDINGS_ABOUT/V1#CL_CV17> ;
	bd:includesColumn <http://www.cdisc.org/SDTMMODEL_FINDINGS_ABOUT/V1#CL_CV18> ;
	bd:includesColumn <http://www.cdisc.org/SDTMMODEL_FINDINGS_ABOUT/V1#CL_CV19> ;
	bd:includesColumn <http://www.cdisc.org/SDTMMODEL_FINDINGS_ABOUT/V1#CL_CV20> ;
	bd:includesColumn <http://www.cdisc.org/SDTMMODEL_FINDINGS_ABOUT/V1#CL_CV21> ;
	bd:includesColumn <http://www.cdisc.org/SDTMMODEL_FINDINGS_ABOUT/V1#CL_CV22> ;
	bd:includesColumn <http://www.cdisc.org/SDTMMODEL_FINDINGS_ABOUT/V1#CL_CV23> ;
	bd:includesColumn <http://www.cdisc.org/SDTMMODEL_FINDINGS_ABOUT/V1#CL_CV24> ;
	bd:includesColumn <http://www.cdisc.org/SDTMMODEL_FINDINGS_ABOUT/V1#CL_CV25> ;
	bd:includesColumn <http://www.cdisc.org/SDTMMODEL_FINDINGS_ABOUT/V1#CL_CV26> ;
	bd:includesColumn <http://www.cdisc.org/SDTMMODEL_FINDINGS_ABOUT/V1#CL_CV27> ;
	bd:includesColumn <http://www.cdisc.org/SDTMMODEL_FINDINGS_ABOUT/V1#CL_CV28> ;
	bd:includesColumn <http://www.cdisc.org/SDTMMODEL_FINDINGS_ABOUT/V1#CL_CV29> ;
	bd:includesColumn <http://www.cdisc.org/SDTMMODEL_FINDINGS_ABOUT/V1#CL_CV30> ;
	bd:includesColumn <http://www.cdisc.org/SDTMMODEL_FINDINGS_ABOUT/V1#CL_CV31> ;
	bd:includesColumn <http://www.cdisc.org/SDTMMODEL_FINDINGS_ABOUT/V1#CL_CV32> ;
	bd:includesColumn <http://www.cdisc.org/SDTMMODEL_FINDINGS_ABOUT/V1#CL_CV33> ;
	bd:includesColumn <http://www.cdisc.org/SDTMMODEL_FINDINGS_ABOUT/V1#CL_CV34> ;
	bd:includesColumn <http://www.cdisc.org/SDTMMODEL_FINDINGS_ABOUT/V1#CL_CV35> ;
	bd:includesColumn <http://www.cdisc.org/SDTMMODEL_FINDINGS_ABOUT/V1#CL_CV36> ;
	bd:includesColumn <http://www.cdisc.org/SDTMMODEL_FINDINGS_ABOUT/V1#CL_CV37> ;
	bd:includesColumn <http://www.cdisc.org/SDTMMODEL_FINDINGS_ABOUT/V1#CL_CV38> ;
	bd:includesColumn <http://www.cdisc.org/SDTMMODEL_FINDINGS_ABOUT/V1#CL_CV39> ;
	bd:includesColumn <http://www.cdisc.org/SDTMMODEL_FINDINGS_ABOUT/V1#CL_CV40> ;
.
<http://www.cdisc.org/SDTMMODEL_FINDINGS_ABOUT/V1#CL_RS>
	rdf:type isoR:RegistrationState ;
	isoR:registrationStatus "Standard"^^xsd:string ;
	isoR:administrativeNote ""^^xsd:string ;
	isoR:effectiveDate "2016-01-01T00:00:00+00:00"^^xsd:dateTime ;
	isoR:untilDate "2016-01-01T00:00:00+00:00"^^xsd:dateTime ;
	isoR:unresolvedIssue ""^^xsd:string ;
	isoR:administrativeStatus ""^^xsd:string ;
	isoR:previousState "Standard"^^xsd:string ;
	isoR:multipleEdit "false"^^xsd:boolean ;
	isoR:byAuthority <http://www.assero.co.uk/RA#DUNS084433759> ;
.
<http://www.cdisc.org/SDTMMODEL_FINDINGS_ABOUT/V1#CL_SI>
	rdf:type isoI:ScopedIdentifier ;
	isoI:identifier "SDTMMODEL FINDINGS ABOUT"^^xsd:string ;
	isoI:versionLabel "1.1.1"^^xsd:string ;
	isoI:version "1"^^xsd:positiveInteger ;
	isoI:semanticVersion "1.1.1"^^xsd:string ;
	isoI:hasScope <http://www.assero.co.uk/NS#CDISC> ;
.
<http://www.cdisc.org/SDTMMODEL_FINDINGS_ABOUT/V1#CL_CV1>
	rdf:type bd:SdtmClassVariable ;
	isoC:label "Study Identifier"^^xsd:string ;
	bd:rule ""^^xsd:string ;
	bd:ordinal "1"^^xsd:positiveInteger ;
.
<http://www.cdisc.org/SDTMMODEL_FINDINGS_ABOUT/V1#CL_CV2>
	rdf:type bd:SdtmClassVariable ;
	isoC:label "Domain Abbreviation"^^xsd:string ;
	bd:rule ""^^xsd:string ;
	bd:ordinal "2"^^xsd:positiveInteger ;
.
<http://www.cdisc.org/SDTMMODEL_FINDINGS_ABOUT/V1#CL_CV3>
	rdf:type bd:SdtmClassVariable ;
	isoC:label "Unique Subject Identifier"^^xsd:string ;
	bd:rule ""^^xsd:string ;
	bd:ordinal "3"^^xsd:positiveInteger ;
.
<http://www.cdisc.org/SDTMMODEL_FINDINGS_ABOUT/V1#CL_CV4>
	rdf:type bd:SdtmClassVariable ;
	isoC:label "Pool Identifier"^^xsd:string ;
	bd:rule ""^^xsd:string ;
	bd:ordinal "4"^^xsd:positiveInteger ;
.
<http://www.cdisc.org/SDTMMODEL_FINDINGS_ABOUT/V1#CL_CV5>
	rdf:type bd:SdtmClassVariable ;
	isoC:label "Sponsor Device Identifier"^^xsd:string ;
	bd:rule ""^^xsd:string ;
	bd:ordinal "5"^^xsd:positiveInteger ;
.
<http://www.cdisc.org/SDTMMODEL_FINDINGS_ABOUT/V1#CL_CV6>
	rdf:type bd:SdtmClassVariable ;
	isoC:label "Sequence Number"^^xsd:string ;
	bd:rule ""^^xsd:string ;
	bd:ordinal "6"^^xsd:positiveInteger ;
.
<http://www.cdisc.org/SDTMMODEL_FINDINGS_ABOUT/V1#CL_CV7>
	rdf:type bd:SdtmClassVariable ;
	isoC:label "Group ID"^^xsd:string ;
	bd:rule ""^^xsd:string ;
	bd:ordinal "7"^^xsd:positiveInteger ;
.
<http://www.cdisc.org/SDTMMODEL_FINDINGS_ABOUT/V1#CL_CV8>
	rdf:type bd:SdtmClassVariable ;
	isoC:label "Reference ID"^^xsd:string ;
	bd:rule ""^^xsd:string ;
	bd:ordinal "8"^^xsd:positiveInteger ;
.
<http://www.cdisc.org/SDTMMODEL_FINDINGS_ABOUT/V1#CL_CV9>
	rdf:type bd:SdtmClassVariable ;
	isoC:label "Sponsor-Defined Identifier"^^xsd:string ;
	bd:rule ""^^xsd:string ;
	bd:ordinal "9"^^xsd:positiveInteger ;
.
<http://www.cdisc.org/SDTMMODEL_FINDINGS_ABOUT/V1#CL_CV10>
	rdf:type bd:SdtmClassVariable ;
	isoC:label "Link ID"^^xsd:string ;
	bd:rule ""^^xsd:string ;
	bd:ordinal "10"^^xsd:positiveInteger ;
.
<http://www.cdisc.org/SDTMMODEL_FINDINGS_ABOUT/V1#CL_CV11>
	rdf:type bd:SdtmClassVariable ;
	isoC:label "Link Group ID"^^xsd:string ;
	bd:rule ""^^xsd:string ;
	bd:ordinal "11"^^xsd:positiveInteger ;
.
<http://www.cdisc.org/SDTMMODEL_FINDINGS_ABOUT/V1#CL_CV12>
	rdf:type bd:SdtmClassVariable ;
	isoC:label "Visit Number"^^xsd:string ;
	bd:rule ""^^xsd:string ;
	bd:ordinal "12"^^xsd:positiveInteger ;
.
<http://www.cdisc.org/SDTMMODEL_FINDINGS_ABOUT/V1#CL_CV13>
	rdf:type bd:SdtmClassVariable ;
	isoC:label "Visit Name"^^xsd:string ;
	bd:rule ""^^xsd:string ;
	bd:ordinal "13"^^xsd:positiveInteger ;
.
<http://www.cdisc.org/SDTMMODEL_FINDINGS_ABOUT/V1#CL_CV14>
	rdf:type bd:SdtmClassVariable ;
	isoC:label "Planned Study Day of Visit"^^xsd:string ;
	bd:rule ""^^xsd:string ;
	bd:ordinal "14"^^xsd:positiveInteger ;
.
<http://www.cdisc.org/SDTMMODEL_FINDINGS_ABOUT/V1#CL_CV15>
	rdf:type bd:SdtmClassVariable ;
	isoC:label "Planned Order of Element within Arm"^^xsd:string ;
	bd:rule ""^^xsd:string ;
	bd:ordinal "15"^^xsd:positiveInteger ;
.
<http://www.cdisc.org/SDTMMODEL_FINDINGS_ABOUT/V1#CL_CV16>
	rdf:type bd:SdtmClassVariable ;
	isoC:label "Epoch"^^xsd:string ;
	bd:rule ""^^xsd:string ;
	bd:ordinal "16"^^xsd:positiveInteger ;
.
<http://www.cdisc.org/SDTMMODEL_FINDINGS_ABOUT/V1#CL_CV17>
	rdf:type bd:SdtmClassVariable ;
	isoC:label "Date/Time of Collection"^^xsd:string ;
	bd:rule ""^^xsd:string ;
	bd:ordinal "17"^^xsd:positiveInteger ;
.
<http://www.cdisc.org/SDTMMODEL_FINDINGS_ABOUT/V1#CL_CV18>
	rdf:type bd:SdtmClassVariable ;
	isoC:label "Start Date/Time of Observation"^^xsd:string ;
	bd:rule ""^^xsd:string ;
	bd:ordinal "18"^^xsd:positiveInteger ;
.
<http://www.cdisc.org/SDTMMODEL_FINDINGS_ABOUT/V1#CL_CV19>
	rdf:type bd:SdtmClassVariable ;
	isoC:label "End Date/Time of Observation"^^xsd:string ;
	bd:rule ""^^xsd:string ;
	bd:ordinal "19"^^xsd:positiveInteger ;
.
<http://www.cdisc.org/SDTMMODEL_FINDINGS_ABOUT/V1#CL_CV20>
	rdf:type bd:SdtmClassVariable ;
	isoC:label "Study Day of Visit/Collection/Exam"^^xsd:string ;
	bd:rule ""^^xsd:string ;
	bd:ordinal "20"^^xsd:positiveInteger ;
.
<http://www.cdisc.org/SDTMMODEL_FINDINGS_ABOUT/V1#CL_CV21>
	rdf:type bd:SdtmClassVariable ;
	isoC:label "Study Day of Start of Observation"^^xsd:string ;
	bd:rule ""^^xsd:string ;
	bd:ordinal "21"^^xsd:positiveInteger ;
.
<http://www.cdisc.org/SDTMMODEL_FINDINGS_ABOUT/V1#CL_CV22>
	rdf:type bd:SdtmClassVariable ;
	isoC:label "Study Day of End of Observation"^^xsd:string ;
	bd:rule ""^^xsd:string ;
	bd:ordinal "22"^^xsd:positiveInteger ;
.
<http://www.cdisc.org/SDTMMODEL_FINDINGS_ABOUT/V1#CL_CV23>
	rdf:type bd:SdtmClassVariable ;
	isoC:label "Duration"^^xsd:string ;
	bd:rule ""^^xsd:string ;
	bd:ordinal "23"^^xsd:positiveInteger ;
.
<http://www.cdisc.org/SDTMMODEL_FINDINGS_ABOUT/V1#CL_CV24>
	rdf:type bd:SdtmClassVariable ;
	isoC:label "Planned Time Point Name"^^xsd:string ;
	bd:rule ""^^xsd:string ;
	bd:ordinal "24"^^xsd:positiveInteger ;
.
<http://www.cdisc.org/SDTMMODEL_FINDINGS_ABOUT/V1#CL_CV25>
	rdf:type bd:SdtmClassVariable ;
	isoC:label "Planned Time Point Number"^^xsd:string ;
	bd:rule ""^^xsd:string ;
	bd:ordinal "25"^^xsd:positiveInteger ;
.
<http://www.cdisc.org/SDTMMODEL_FINDINGS_ABOUT/V1#CL_CV26>
	rdf:type bd:SdtmClassVariable ;
	isoC:label "Planned Elapsed Time from Time Point Ref"^^xsd:string ;
	bd:rule ""^^xsd:string ;
	bd:ordinal "26"^^xsd:positiveInteger ;
.
<http://www.cdisc.org/SDTMMODEL_FINDINGS_ABOUT/V1#CL_CV27>
	rdf:type bd:SdtmClassVariable ;
	isoC:label "Time Point Reference"^^xsd:string ;
	bd:rule ""^^xsd:string ;
	bd:ordinal "27"^^xsd:positiveInteger ;
.
<http://www.cdisc.org/SDTMMODEL_FINDINGS_ABOUT/V1#CL_CV28>
	rdf:type bd:SdtmClassVariable ;
	isoC:label "Date/Time of Reference Time Point"^^xsd:string ;
	bd:rule ""^^xsd:string ;
	bd:ordinal "28"^^xsd:positiveInteger ;
.
<http://www.cdisc.org/SDTMMODEL_FINDINGS_ABOUT/V1#CL_CV29>
	rdf:type bd:SdtmClassVariable ;
	isoC:label "Start Relative to Reference Period"^^xsd:string ;
	bd:rule ""^^xsd:string ;
	bd:ordinal "29"^^xsd:positiveInteger ;
.
<http://www.cdisc.org/SDTMMODEL_FINDINGS_ABOUT/V1#CL_CV30>
	rdf:type bd:SdtmClassVariable ;
	isoC:label "End Relative to Reference Period"^^xsd:string ;
	bd:rule ""^^xsd:string ;
	bd:ordinal "30"^^xsd:positiveInteger ;
.
<http://www.cdisc.org/SDTMMODEL_FINDINGS_ABOUT/V1#CL_CV31>
	rdf:type bd:SdtmClassVariable ;
	isoC:label "Evaluation Interval"^^xsd:string ;
