@prefix : <http://www.cdisc.org/SDTM_IG/V4#> .
@prefix bd: <http://www.assero.co.uk/Tabulation#> .
@prefix isoC: <http://www.assero.co.uk/ISO11179Concepts#> .
@prefix isoT: <http://www.assero.co.uk/ISO11179Types#> .
@prefix isoR: <http://www.assero.co.uk/ISO11179Registration#> .
@prefix isoI: <http://www.assero.co.uk/ISO11179Identification#> .
@prefix bo: <http://www.assero.co.uk/BusinessOperational#> .
@prefix owl: <http://www.w3.org/2002/07/owl#> .
@prefix rdf: <http://www.w3.org/1999/02/22-rdf-syntax-ns#> .
@prefix rdfs: <http://www.w3.org/2000/01/rdf-schema#> .
@prefix xsd: <http://www.w3.org/2001/XMLSchema#> .
@prefix skos: <http://www.w3.org/2004/02/skos/core#> .

<http://www.cdisc.org/SDTM_IG/V4>
	rdf:type owl:Ontology ;
.
:IG
	rdf:type bd:SDTMImplementationGuide ;
	isoC:label "SDTM Implementation Guide"^^xsd:string ;
	isoT:hasState :IG_RS ;
	isoT:hasIdentifier :IG_SI ;
	isoT:hasPreviousVersion <http://www.cdisc.org/SDTM_IG/V3#IG> ;
	isoT:origin "Created from files: 'sdtm_ig_3-3.xlsx'"^^xsd:string ;
	isoT:changeDescription ""^^xsd:string ;
	isoT:creationDate "2018-11-20T00:00:00+00:00"^^xsd:dateTime ;
	isoT:lastChangeDate "2018-11-20T00:00:00+00:00"^^xsd:dateTime ;
	isoT:explanatoryComment ""^^xsd:string ;
	bo:hasManaged :IG_R1 ;
	bo:hasManaged :IG_R2 ;
	bo:hasManaged :IG_R3 ;
	bo:hasManaged :IG_R4 ;
	bo:hasManaged :IG_R5 ;
	bo:hasManaged :IG_R6 ;
	bo:hasManaged :IG_R7 ;
	bo:hasManaged :IG_R8 ;
	bo:hasManaged :IG_R9 ;
	bo:hasManaged :IG_R10 ;
	bo:hasManaged :IG_R11 ;
	bo:hasManaged :IG_R12 ;
	bo:hasManaged :IG_R13 ;
	bo:hasManaged :IG_R14 ;
	bo:hasManaged :IG_R15 ;
	bo:hasManaged :IG_R16 ;
	bo:hasManaged :IG_R17 ;
	bo:hasManaged :IG_R18 ;
	bo:hasManaged :IG_R19 ;
	bo:hasManaged :IG_R20 ;
	bo:hasManaged :IG_R21 ;
	bo:hasManaged :IG_R22 ;
	bo:hasManaged :IG_R23 ;
	bo:hasManaged :IG_R24 ;
	bo:hasManaged :IG_R25 ;
	bo:hasManaged :IG_R26 ;
	bo:hasManaged :IG_R27 ;
	bo:hasManaged :IG_R28 ;
	bo:hasManaged :IG_R29 ;
	bo:hasManaged :IG_R30 ;
	bo:hasManaged :IG_R31 ;
	bo:hasManaged :IG_R32 ;
	bo:hasManaged :IG_R33 ;
	bo:hasManaged :IG_R34 ;
	bo:hasManaged :IG_R35 ;
	bo:hasManaged :IG_R36 ;
	bo:hasManaged :IG_R37 ;
	bo:hasManaged :IG_R38 ;
	bo:hasManaged :IG_R39 ;
	bo:hasManaged :IG_R40 ;
	bo:hasManaged :IG_R41 ;
	bo:hasManaged :IG_R42 ;
	bo:hasManaged :IG_R43 ;
	bo:hasManaged :IG_R44 ;
	bo:hasManaged :IG_R45 ;
	bo:hasManaged :IG_R46 ;
	bo:hasManaged :IG_R47 ;
	bo:hasManaged :IG_R48 ;
	bo:hasManaged :IG_R49 ;
	bo:hasManaged :IG_R50 ;
	bo:hasManaged :IG_R51 ;
	bo:hasManaged :IG_R52 ;
	bo:hasManaged :IG_R53 ;
	bo:hasManaged :IG_R54 ;
	bo:hasManaged :IG_R55 ;
	bo:hasManaged :IG_R56 ;
	bo:hasManaged :IG_R57 ;
	bo:hasManaged :IG_R58 ;
	bo:hasManaged :IG_R59 ;
.
:IG_RS
	rdf:type isoR:RegistrationState ;
	isoR:registrationStatus "Standard"^^xsd:string ;
	isoR:administrativeNote ""^^xsd:string ;
	isoR:effectiveDate "2016-01-01T00:00:00+00:00"^^xsd:dateTime ;
	isoR:untilDate "2016-01-01T00:00:00+00:00"^^xsd:dateTime ;
	isoR:unresolvedIssue ""^^xsd:string ;
	isoR:administrativeStatus ""^^xsd:string ;
	isoR:previousState "Standard"^^xsd:string ;
	isoR:multipleEdit "false"^^xsd:boolean ;
	isoR:byAuthority <http://www.assero.co.uk/RA#DUNS084433759> ;
.
:IG_SI
	rdf:type isoI:ScopedIdentifier ;
	isoI:identifier "SDTM IG"^^xsd:string ;
	isoI:versionLabel "2018-11-20 Release"^^xsd:string ;
	isoI:version "4"^^xsd:positiveInteger ;
	isoI:semanticVersion "3.3.0"^^xsd:string ;
	isoI:hasScope <http://www.assero.co.uk/NS#CDISC> ;
.
:IG_R1
	rdf:type bo:Reference ;
	isoC:label ""^^xsd:string ;
	bo:enabled "true"^^xsd:boolean ;
	bo:optional "false"^^xsd:boolean ;
	bo:ordinal "1"^^xsd:positiveInteger ;
	bo:reference <http://www.cdisc.org/SDTM_IG_CO/V4#IGD> ;
.
:IG_R2
	rdf:type bo:Reference ;
	isoC:label ""^^xsd:string ;
	bo:enabled "true"^^xsd:boolean ;
	bo:optional "false"^^xsd:boolean ;
	bo:ordinal "2"^^xsd:positiveInteger ;
	bo:reference <http://www.cdisc.org/SDTM_IG_DM/V4#IGD> ;
.
:IG_R3
	rdf:type bo:Reference ;
	isoC:label ""^^xsd:string ;
	bo:enabled "true"^^xsd:boolean ;
	bo:optional "false"^^xsd:boolean ;
	bo:ordinal "3"^^xsd:positiveInteger ;
	bo:reference <http://www.cdisc.org/SDTM_IG_SE/V4#IGD> ;
.
:IG_R4
	rdf:type bo:Reference ;
	isoC:label ""^^xsd:string ;
	bo:enabled "true"^^xsd:boolean ;
	bo:optional "false"^^xsd:boolean ;
	bo:ordinal "4"^^xsd:positiveInteger ;
	bo:reference <http://www.cdisc.org/SDTM_IG_SM/V4#IGD> ;
.
:IG_R5
	rdf:type bo:Reference ;
	isoC:label ""^^xsd:string ;
	bo:enabled "true"^^xsd:boolean ;
	bo:optional "false"^^xsd:boolean ;
	bo:ordinal "5"^^xsd:positiveInteger ;
	bo:reference <http://www.cdisc.org/SDTM_IG_SV/V4#IGD> ;
.
:IG_R6
	rdf:type bo:Reference ;
	isoC:label ""^^xsd:string ;
	bo:enabled "true"^^xsd:boolean ;
	bo:optional "false"^^xsd:boolean ;
	bo:ordinal "6"^^xsd:positiveInteger ;
	bo:reference <http://www.cdisc.org/SDTM_IG_AG/V4#IGD> ;
.
:IG_R7
	rdf:type bo:Reference ;
	isoC:label ""^^xsd:string ;
	bo:enabled "true"^^xsd:boolean ;
	bo:optional "false"^^xsd:boolean ;
	bo:ordinal "7"^^xsd:positiveInteger ;
	bo:reference <http://www.cdisc.org/SDTM_IG_CM/V4#IGD> ;
.
:IG_R8
	rdf:type bo:Reference ;
	isoC:label ""^^xsd:string ;
	bo:enabled "true"^^xsd:boolean ;
	bo:optional "false"^^xsd:boolean ;
	bo:ordinal "8"^^xsd:positiveInteger ;
	bo:reference <http://www.cdisc.org/SDTM_IG_EX/V4#IGD> ;
.
:IG_R9
	rdf:type bo:Reference ;
	isoC:label ""^^xsd:string ;
	bo:enabled "true"^^xsd:boolean ;
	bo:optional "false"^^xsd:boolean ;
	bo:ordinal "9"^^xsd:positiveInteger ;
	bo:reference <http://www.cdisc.org/SDTM_IG_EC/V4#IGD> ;
.
:IG_R10
	rdf:type bo:Reference ;
	isoC:label ""^^xsd:string ;
	bo:enabled "true"^^xsd:boolean ;
	bo:optional "false"^^xsd:boolean ;
	bo:ordinal "10"^^xsd:positiveInteger ;
	bo:reference <http://www.cdisc.org/SDTM_IG_ML/V4#IGD> ;
.
:IG_R11
	rdf:type bo:Reference ;
	isoC:label ""^^xsd:string ;
	bo:enabled "true"^^xsd:boolean ;
	bo:optional "false"^^xsd:boolean ;
	bo:ordinal "11"^^xsd:positiveInteger ;
	bo:reference <http://www.cdisc.org/SDTM_IG_PR/V4#IGD> ;
.
:IG_R12
	rdf:type bo:Reference ;
	isoC:label ""^^xsd:string ;
	bo:enabled "true"^^xsd:boolean ;
	bo:optional "false"^^xsd:boolean ;
	bo:ordinal "12"^^xsd:positiveInteger ;
	bo:reference <http://www.cdisc.org/SDTM_IG_SU/V4#IGD> ;
.
:IG_R13
	rdf:type bo:Reference ;
	isoC:label ""^^xsd:string ;
	bo:enabled "true"^^xsd:boolean ;
	bo:optional "false"^^xsd:boolean ;
	bo:ordinal "13"^^xsd:positiveInteger ;
	bo:reference <http://www.cdisc.org/SDTM_IG_AE/V4#IGD> ;
.
:IG_R14
	rdf:type bo:Reference ;
	isoC:label ""^^xsd:string ;
	bo:enabled "true"^^xsd:boolean ;
	bo:optional "false"^^xsd:boolean ;
	bo:ordinal "14"^^xsd:positiveInteger ;
	bo:reference <http://www.cdisc.org/SDTM_IG_CE/V4#IGD> ;
.
:IG_R15
	rdf:type bo:Reference ;
	isoC:label ""^^xsd:string ;
	bo:enabled "true"^^xsd:boolean ;
	bo:optional "false"^^xsd:boolean ;
	bo:ordinal "15"^^xsd:positiveInteger ;
	bo:reference <http://www.cdisc.org/SDTM_IG_DS/V4#IGD> ;
.
:IG_R16
	rdf:type bo:Reference ;
	isoC:label ""^^xsd:string ;
	bo:enabled "true"^^xsd:boolean ;
	bo:optional "false"^^xsd:boolean ;
	bo:ordinal "16"^^xsd:positiveInteger ;
	bo:reference <http://www.cdisc.org/SDTM_IG_DV/V4#IGD> ;
.
:IG_R17
	rdf:type bo:Reference ;
	isoC:label ""^^xsd:string ;
	bo:enabled "true"^^xsd:boolean ;
	bo:optional "false"^^xsd:boolean ;
	bo:ordinal "17"^^xsd:positiveInteger ;
	bo:reference <http://www.cdisc.org/SDTM_IG_HO/V4#IGD> ;
.
:IG_R18
	rdf:type bo:Reference ;
	isoC:label ""^^xsd:string ;
	bo:enabled "true"^^xsd:boolean ;
	bo:optional "false"^^xsd:boolean ;
	bo:ordinal "18"^^xsd:positiveInteger ;
	bo:reference <http://www.cdisc.org/SDTM_IG_MH/V4#IGD> ;
.
:IG_R19
	rdf:type bo:Reference ;
	isoC:label ""^^xsd:string ;
	bo:enabled "true"^^xsd:boolean ;
	bo:optional "false"^^xsd:boolean ;
	bo:ordinal "19"^^xsd:positiveInteger ;
	bo:reference <http://www.cdisc.org/SDTM_IG_DA/V4#IGD> ;
.
:IG_R20
	rdf:type bo:Reference ;
	isoC:label ""^^xsd:string ;
	bo:enabled "true"^^xsd:boolean ;
	bo:optional "false"^^xsd:boolean ;
	bo:ordinal "20"^^xsd:positiveInteger ;
	bo:reference <http://www.cdisc.org/SDTM_IG_DD/V4#IGD> ;
.
:IG_R21
	rdf:type bo:Reference ;
	isoC:label ""^^xsd:string ;
	bo:enabled "true"^^xsd:boolean ;
	bo:optional "false"^^xsd:boolean ;
	bo:ordinal "21"^^xsd:positiveInteger ;
	bo:reference <http://www.cdisc.org/SDTM_IG_EG/V4#IGD> ;
.
:IG_R22
	rdf:type bo:Reference ;
	isoC:label ""^^xsd:string ;
	bo:enabled "true"^^xsd:boolean ;
	bo:optional "false"^^xsd:boolean ;
	bo:ordinal "22"^^xsd:positiveInteger ;
	bo:reference <http://www.cdisc.org/SDTM_IG_IE/V4#IGD> ;
.
:IG_R23
	rdf:type bo:Reference ;
	isoC:label ""^^xsd:string ;
	bo:enabled "true"^^xsd:boolean ;
	bo:optional "false"^^xsd:boolean ;
	bo:ordinal "23"^^xsd:positiveInteger ;
	bo:reference <http://www.cdisc.org/SDTM_IG_IS/V4#IGD> ;
.
:IG_R24
	rdf:type bo:Reference ;
	isoC:label ""^^xsd:string ;
	bo:enabled "true"^^xsd:boolean ;
	bo:optional "false"^^xsd:boolean ;
	bo:ordinal "24"^^xsd:positiveInteger ;
	bo:reference <http://www.cdisc.org/SDTM_IG_LB/V4#IGD> ;
.
:IG_R25
	rdf:type bo:Reference ;
	isoC:label ""^^xsd:string ;
	bo:enabled "true"^^xsd:boolean ;
	bo:optional "false"^^xsd:boolean ;
	bo:ordinal "25"^^xsd:positiveInteger ;
	bo:reference <http://www.cdisc.org/SDTM_IG_MB/V4#IGD> ;
.
:IG_R26
	rdf:type bo:Reference ;
	isoC:label ""^^xsd:string ;
	bo:enabled "true"^^xsd:boolean ;
	bo:optional "false"^^xsd:boolean ;
	bo:ordinal "26"^^xsd:positiveInteger ;
	bo:reference <http://www.cdisc.org/SDTM_IG_MS/V4#IGD> ;
.
:IG_R27
	rdf:type bo:Reference ;
	isoC:label ""^^xsd:string ;
	bo:enabled "true"^^xsd:boolean ;
	bo:optional "false"^^xsd:boolean ;
	bo:ordinal "27"^^xsd:positiveInteger ;
	bo:reference <http://www.cdisc.org/SDTM_IG_MI/V4#IGD> ;
.
:IG_R28
	rdf:type bo:Reference ;
	isoC:label ""^^xsd:string ;
	bo:enabled "true"^^xsd:boolean ;
	bo:optional "false"^^xsd:boolean ;
	bo:ordinal "28"^^xsd:positiveInteger ;
	bo:reference <http://www.cdisc.org/SDTM_IG_MO/V4#IGD> ;
.
:IG_R29
	rdf:type bo:Reference ;
	isoC:label ""^^xsd:string ;
	bo:enabled "true"^^xsd:boolean ;
	bo:optional "false"^^xsd:boolean ;
	bo:ordinal "29"^^xsd:positiveInteger ;
	bo:reference <http://www.cdisc.org/SDTM_IG_CV/V4#IGD> ;
.
:IG_R30
	rdf:type bo:Reference ;
	isoC:label ""^^xsd:string ;
	bo:enabled "true"^^xsd:boolean ;
	bo:optional "false"^^xsd:boolean ;
	bo:ordinal "30"^^xsd:positiveInteger ;
	bo:reference <http://www.cdisc.org/SDTM_IG_MK/V4#IGD> ;
.
:IG_R31
	rdf:type bo:Reference ;
	isoC:label ""^^xsd:string ;
	bo:enabled "true"^^xsd:boolean ;
	bo:optional "false"^^xsd:boolean ;
	bo:ordinal "31"^^xsd:positiveInteger ;
	bo:reference <http://www.cdisc.org/SDTM_IG_NV/V4#IGD> ;
.
:IG_R32
	rdf:type bo:Reference ;
	isoC:label ""^^xsd:string ;
	bo:enabled "true"^^xsd:boolean ;
	bo:optional "false"^^xsd:boolean ;
	bo:ordinal "32"^^xsd:positiveInteger ;
	bo:reference <http://www.cdisc.org/SDTM_IG_OE/V4#IGD> ;
.
:IG_R33
	rdf:type bo:Reference ;
	isoC:label ""^^xsd:string ;
	bo:enabled "true"^^xsd:boolean ;
	bo:optional "false"^^xsd:boolean ;
	bo:ordinal "33"^^xsd:positiveInteger ;
	bo:reference <http://www.cdisc.org/SDTM_IG_RP/V4#IGD> ;
.
:IG_R34
	rdf:type bo:Reference ;
	isoC:label ""^^xsd:string ;
	bo:enabled "true"^^xsd:boolean ;
	bo:optional "false"^^xsd:boolean ;
	bo:ordinal "34"^^xsd:positiveInteger ;
	bo:reference <http://www.cdisc.org/SDTM_IG_RE/V4#IGD> ;
.
:IG_R35
	rdf:type bo:Reference ;
	isoC:label ""^^xsd:string ;
	bo:enabled "true"^^xsd:boolean ;
	bo:optional "false"^^xsd:boolean ;
	bo:ordinal "35"^^xsd:positiveInteger ;
	bo:reference <http://www.cdisc.org/SDTM_IG_UR/V4#IGD> ;
.
:IG_R36
	rdf:type bo:Reference ;
	isoC:label ""^^xsd:string ;
	bo:enabled "true"^^xsd:boolean ;
	bo:optional "false"^^xsd:boolean ;
	bo:ordinal "36"^^xsd:positiveInteger ;
	bo:reference <http://www.cdisc.org/SDTM_IG_PC/V4#IGD> ;
.
:IG_R37
	rdf:type bo:Reference ;
	isoC:label ""^^xsd:string ;
	bo:enabled "true"^^xsd:boolean ;
	bo:optional "false"^^xsd:boolean ;
	bo:ordinal "37"^^xsd:positiveInteger ;
	bo:reference <http://www.cdisc.org/SDTM_IG_PP/V4#IGD> ;
.
:IG_R38
	rdf:type bo:Reference ;
	isoC:label ""^^xsd:string ;
	bo:enabled "true"^^xsd:boolean ;
	bo:optional "false"^^xsd:boolean ;
	bo:ordinal "38"^^xsd:positiveInteger ;
	bo:reference <http://www.cdisc.org/SDTM_IG_PE/V4#IGD> ;
.
:IG_R39
	rdf:type bo:Reference ;
	isoC:label ""^^xsd:string ;
	bo:enabled "true"^^xsd:boolean ;
	bo:optional "false"^^xsd:boolean ;
	bo:ordinal "39"^^xsd:positiveInteger ;
	bo:reference <http://www.cdisc.org/SDTM_IG_FT/V4#IGD> ;
.
:IG_R40
	rdf:type bo:Reference ;
	isoC:label ""^^xsd:string ;
	bo:enabled "true"^^xsd:boolean ;
	bo:optional "false"^^xsd:boolean ;
	bo:ordinal "40"^^xsd:positiveInteger ;
	bo:reference <http://www.cdisc.org/SDTM_IG_QS/V4#IGD> ;
.
:IG_R41
	rdf:type bo:Reference ;
	isoC:label ""^^xsd:string ;
	bo:enabled "true"^^xsd:boolean ;
	bo:optional "false"^^xsd:boolean ;
	bo:ordinal "41"^^xsd:positiveInteger ;
	bo:reference <http://www.cdisc.org/SDTM_IG_RS/V4#IGD> ;
.
:IG_R42
	rdf:type bo:Reference ;
	isoC:label ""^^xsd:string ;
	bo:enabled "true"^^xsd:boolean ;
	bo:optional "false"^^xsd:boolean ;
	bo:ordinal "42"^^xsd:positiveInteger ;
	bo:reference <http://www.cdisc.org/SDTM_IG_SC/V4#IGD> ;
.
:IG_R43
	rdf:type bo:Reference ;
	isoC:label ""^^xsd:string ;
	bo:enabled "true"^^xsd:boolean ;
	bo:optional "false"^^xsd:boolean ;
	bo:ordinal "43"^^xsd:positiveInteger ;
	bo:reference <http://www.cdisc.org/SDTM_IG_SS/V4#IGD> ;
.
:IG_R44
	rdf:type bo:Reference ;
	isoC:label ""^^xsd:string ;
	bo:enabled "true"^^xsd:boolean ;
	bo:optional "false"^^xsd:boolean ;
	bo:ordinal "44"^^xsd:positiveInteger ;
	bo:reference <http://www.cdisc.org/SDTM_IG_TU/V4#IGD> ;
.
:IG_R45
	rdf:type bo:Reference ;
	isoC:label ""^^xsd:string ;
	bo:enabled "true"^^xsd:boolean ;
	bo:optional "false"^^xsd:boolean ;
	bo:ordinal "45"^^xsd:positiveInteger ;
	bo:reference <http://www.cdisc.org/SDTM_IG_TR/V4#IGD> ;
.
:IG_R46
	rdf:type bo:Reference ;
	isoC:label ""^^xsd:string ;
	bo:enabled "true"^^xsd:boolean ;
	bo:optional "false"^^xsd:boolean ;
	bo:ordinal "46"^^xsd:positiveInteger ;
	bo:reference <http://www.cdisc.org/SDTM_IG_VS/V4#IGD> ;
.
:IG_R47
	rdf:type bo:Reference ;
	isoC:label ""^^xsd:string ;
	bo:enabled "true"^^xsd:boolean ;
	bo:optional "false"^^xsd:boolean ;
	bo:ordinal "47"^^xsd:positiveInteger ;
	bo:reference <http://www.cdisc.org/SDTM_IG_FA/V4#IGD> ;
.
:IG_R48
	rdf:type bo:Reference ;
	isoC:label ""^^xsd:string ;
	bo:enabled "true"^^xsd:boolean ;
	bo:optional "false"^^xsd:boolean ;
	bo:ordinal "48"^^xsd:positiveInteger ;
	bo:reference <http://www.cdisc.org/SDTM_IG_SR/V4#IGD> ;
.
:IG_R49
	rdf:type bo:Reference ;
	isoC:label ""^^xsd:string ;
	bo:enabled "true"^^xsd:boolean ;
	bo:optional "false"^^xsd:boolean ;
	bo:ordinal "49"^^xsd:positiveInteger ;
	bo:reference <http://www.cdisc.org/SDTM_IG_TA/V4#IGD> ;
.
:IG_R50
	rdf:type bo:Reference ;
	isoC:label ""^^xsd:string ;
	bo:enabled "true"^^xsd:boolean ;
	bo:optional "false"^^xsd:boolean ;
	bo:ordinal "50"^^xsd:positiveInteger ;
	bo:reference <http://www.cdisc.org/SDTM_IG_TE/V4#IGD> ;
.
:IG_R51
	rdf:type bo:Reference ;
	isoC:label ""^^xsd:string ;
	bo:enabled "true"^^xsd:boolean ;
	bo:optional "false"^^xsd:boolean ;
	bo:ordinal "51"^^xsd:positiveInteger ;
	bo:reference <http://www.cdisc.org/SDTM_IG_TV/V4#IGD> ;
.
:IG_R52
	rdf:type bo:Reference ;
	isoC:label ""^^xsd:string ;
	bo:enabled "true"^^xsd:boolean ;
	bo:optional "false"^^xsd:boolean ;
	bo:ordinal "52"^^xsd:positiveInteger ;
	bo:reference <http://www.cdisc.org/SDTM_IG_TD/V4#IGD> ;
.
:IG_R53
	rdf:type bo:Reference ;
	isoC:label ""^^xsd:string ;
	bo:enabled "true"^^xsd:boolean ;
	bo:optional "false"^^xsd:boolean ;
	bo:ordinal "53"^^xsd:positiveInteger ;
	bo:reference <http://www.cdisc.org/SDTM_IG_TM/V4#IGD> ;
.
:IG_R54
	rdf:type bo:Reference ;
	isoC:label ""^^xsd:string ;
	bo:enabled "true"^^xsd:boolean ;
	bo:optional "false"^^xsd:boolean ;
	bo:ordinal "54"^^xsd:positiveInteger ;
	bo:reference <http://www.cdisc.org/SDTM_IG_TI/V4#IGD> ;
.
:IG_R55
	rdf:type bo:Reference ;
	isoC:label ""^^xsd:string ;
	bo:enabled "true"^^xsd:boolean ;
	bo:optional "false"^^xsd:boolean ;
	bo:ordinal "55"^^xsd:positiveInteger ;
	bo:reference <http://www.cdisc.org/SDTM_IG_TS/V4#IGD> ;
.
:IG_R56
	rdf:type bo:Reference ;
	isoC:label ""^^xsd:string ;
	bo:enabled "true"^^xsd:boolean ;
	bo:optional "false"^^xsd:boolean ;
	bo:ordinal "56"^^xsd:positiveInteger ;
	bo:reference <http://www.cdisc.org/SDTM_IG_RELREC/V4#IGD> ;
.
:IG_R57
	rdf:type bo:Reference ;
	isoC:label ""^^xsd:string ;
	bo:enabled "true"^^xsd:boolean ;
	bo:optional "false"^^xsd:boolean ;
	bo:ordinal "57"^^xsd:positiveInteger ;
	bo:reference <http://www.cdisc.org/SDTM_IG_SUPPQUAL/V4#IGD> ;
.
:IG_R58
	rdf:type bo:Reference ;
	isoC:label ""^^xsd:string ;
	bo:enabled "true"^^xsd:boolean ;
	bo:optional "false"^^xsd:boolean ;
	bo:ordinal "58"^^xsd:positiveInteger ;
	bo:reference <http://www.cdisc.org/SDTM_IG_RELSUB/V4#IGD> ;
.
:IG_R59
	rdf:type bo:Reference ;
	isoC:label ""^^xsd:string ;
	bo:enabled "true"^^xsd:boolean ;
	bo:optional "false"^^xsd:boolean ;
	bo:ordinal "59"^^xsd:positiveInteger ;
	bo:reference <http://www.cdisc.org/SDTM_IG_OI/V4#IGD> ;
.
<http://www.cdisc.org/SDTM_IG_CO/V4#IGD>
	rdf:type bd:SdtmDomain ;
	isoC:label "Comments"^^xsd:string ;
	isoT:hasState <http://www.cdisc.org/SDTM_IG_CO/V4#IGD_RS> ;
	isoT:hasIdentifier <http://www.cdisc.org/SDTM_IG_CO/V4#IGD_SI> ;
	isoT:hasPreviousVersion <http://www.cdisc.org/SDTM_IG_CO/V3#IGD> ;
	isoT:origin ""^^xsd:string ;
	isoT:changeDescription ""^^xsd:string ;
	isoT:creationDate "2018-11-20T00:00:00+00:00"^^xsd:dateTime ;
	isoT:lastChangeDate "2018-11-20T00:00:00+00:00"^^xsd:dateTime ;
	isoT:explanatoryComment ""^^xsd:string ;
	bd:rule ""^^xsd:string ;
	bd:ordinal "1"^^xsd:positiveInteger ;
	bd:includesColumn <http://www.cdisc.org/SDTM_IG_CO/V1#IGD_STUDYID> ;
	bd:includesColumn <http://www.cdisc.org/SDTM_IG_CO/V4#IGD_DOMAIN> ;
	bd:includesColumn <http://www.cdisc.org/SDTM_IG_CO/V4#IGD_RDOMAIN> ;
	bd:includesColumn <http://www.cdisc.org/SDTM_IG_CO/V4#IGD_USUBJID> ;
	bd:includesColumn <http://www.cdisc.org/SDTM_IG_CO/V4#IGD_COSEQ> ;
	bd:includesColumn <http://www.cdisc.org/SDTM_IG_CO/V4#IGD_IDVAR> ;
	bd:includesColumn <http://www.cdisc.org/SDTM_IG_CO/V4#IGD_IDVARVAL> ;
	bd:includesColumn <http://www.cdisc.org/SDTM_IG_CO/V4#IGD_COREF> ;
	bd:includesColumn <http://www.cdisc.org/SDTM_IG_CO/V4#IGD_COVAL> ;
	bd:includesColumn <http://www.cdisc.org/SDTM_IG_CO/V4#IGD_COEVAL> ;
	bd:includesColumn <http://www.cdisc.org/SDTM_IG_CO/V4#IGD_COEVALID> ;
	bd:includesColumn <http://www.cdisc.org/SDTM_IG_CO/V4#IGD_CODTC> ;
	bd:includesColumn <http://www.cdisc.org/SDTM_IG_CO/V4#IGD_CODY> ;
	bd:prefix "CO"^^xsd:string ;
	bd:structure "One record per comment per subject"^^xsd:string ;
	bd:basedOnClass <http://www.cdisc.org/SDTM_MODEL_CO/V6#CL> ;
.
<http://www.cdisc.org/SDTM_IG_CO/V4#IGD_RS>
	rdf:type isoR:RegistrationState ;
	isoR:registrationStatus "Standard"^^xsd:string ;
	isoR:administrativeNote ""^^xsd:string ;
	isoR:effectiveDate "2016-01-01T00:00:00+00:00"^^xsd:dateTime ;
	isoR:untilDate "2016-01-01T00:00:00+00:00"^^xsd:dateTime ;
	isoR:unresolvedIssue ""^^xsd:string ;
	isoR:administrativeStatus ""^^xsd:string ;
	isoR:previousState "Standard"^^xsd:string ;
	isoR:multipleEdit "false"^^xsd:boolean ;
	isoR:byAuthority <http://www.assero.co.uk/RA#DUNS084433759> ;
.
<http://www.cdisc.org/SDTM_IG_CO/V4#IGD_SI>
	rdf:type isoI:ScopedIdentifier ;
	isoI:identifier "SDTM IG CO"^^xsd:string ;
	isoI:versionLabel "2018-11-20 Release"^^xsd:string ;
	isoI:version "4"^^xsd:positiveInteger ;
	isoI:semanticVersion "3.3.0"^^xsd:string ;
	isoI:hasScope <http://www.assero.co.uk/NS#CDISC> ;
.
<http://www.cdisc.org/SDTM_IG_CO/V4#IGD_DOMAIN>
	rdf:type bd:SdtmDomainVariable ;
	isoC:label "Domain Abbreviation"^^xsd:string ;
	bd:rule ""^^xsd:string ;
	bd:ordinal "2"^^xsd:positiveInteger ;
	bd:name "DOMAIN"^^xsd:string ;
	bd:description "Two-character abbreviation for the domain."^^xsd:string ;
	bd:format "CO"^^xsd:string ;
	bd:ctAndFormat "CO"^^xsd:string ;
	bd:compliance <http://www.assero.co.uk/CSN#52070084-cdd3-4ba8-8377-f670e4b0276c> ;
	bd:basedOnClassVariable <http://www.cdisc.org/SDTM_MODEL_CO/V6#CL_DOMAIN> ;
.
<http://www.cdisc.org/SDTM_IG_CO/V4#IGD_RDOMAIN>
	rdf:type bd:SdtmDomainVariable ;
	isoC:label "Related Domain Abbreviation"^^xsd:string ;
	bd:rule ""^^xsd:string ;
	bd:ordinal "3"^^xsd:positiveInteger ;
	bd:name "RDOMAIN"^^xsd:string ;
	bd:description "Two-character abbreviation for the domain of the parent record(s). Null for comments collected on a general comments or additional information CRF page."^^xsd:string ;
	bd:format ""^^xsd:string ;
	bd:ctAndFormat ""^^xsd:string ;
	bd:compliance <http://www.assero.co.uk/CSN#f7d9d4e1-a00a-487e-89db-ebece910ba0d> ;
	bd:basedOnClassVariable <http://www.cdisc.org/SDTM_MODEL_CO/V6#CL_RDOMAIN> ;
.
<http://www.cdisc.org/SDTM_IG_CO/V4#IGD_USUBJID>
	rdf:type bd:SdtmDomainVariable ;
	isoC:label "Unique Subject Identifier"^^xsd:string ;
	bd:rule ""^^xsd:string ;
	bd:ordinal "4"^^xsd:positiveInteger ;
	bd:name "USUBJID"^^xsd:string ;
	bd:description "Identifier used to uniquely identify a subject across all studies for all applications or submissions involving the product."^^xsd:string ;
	bd:format ""^^xsd:string ;
	bd:ctAndFormat ""^^xsd:string ;
	bd:compliance <http://www.assero.co.uk/CSN#52070084-cdd3-4ba8-8377-f670e4b0276c> ;
	bd:basedOnClassVariable <http://www.cdisc.org/SDTM_MODEL_CO/V6#CL_USUBJID> ;
.
<http://www.cdisc.org/SDTM_IG_CO/V4#IGD_COSEQ>
	rdf:type bd:SdtmDomainVariable ;
	isoC:label "Sequence Number"^^xsd:string ;
	bd:rule ""^^xsd:string ;
	bd:ordinal "5"^^xsd:positiveInteger ;
	bd:name "COSEQ"^^xsd:string ;
	bd:description "Sequence Number given to ensure uniqueness of subject records within a domain. May be any valid number."^^xsd:string ;
	bd:format ""^^xsd:string ;
	bd:ctAndFormat ""^^xsd:string ;
	bd:compliance <http://www.assero.co.uk/CSN#52070084-cdd3-4ba8-8377-f670e4b0276c> ;
	bd:basedOnClassVariable <http://www.cdisc.org/SDTM_MODEL_CO/V6#CL_COSEQ> ;
.
<http://www.cdisc.org/SDTM_IG_CO/V4#IGD_IDVAR>
	rdf:type bd:SdtmDomainVariable ;
	isoC:label "Identifying Variable"^^xsd:string ;
	bd:rule ""^^xsd:string ;
	bd:ordinal "6"^^xsd:positiveInteger ;
	bd:name "IDVAR"^^xsd:string ;
	bd:description "Identifying variable in the parent dataset that identifies the record(s) to which the comment applies. Examples AESEQ or CMGRPID. Used only when individual comments are related to domain records. Null for comments collected on separate CRFs."^^xsd:string ;
	bd:format ""^^xsd:string ;
	bd:ctAndFormat ""^^xsd:string ;
	bd:compliance <http://www.assero.co.uk/CSN#f7d9d4e1-a00a-487e-89db-ebece910ba0d> ;
	bd:basedOnClassVariable <http://www.cdisc.org/SDTM_MODEL_CO/V6#CL_IDVAR> ;
.
<http://www.cdisc.org/SDTM_IG_CO/V4#IGD_IDVARVAL>
	rdf:type bd:SdtmDomainVariable ;
	isoC:label "Identifying Variable Value"^^xsd:string ;
	bd:rule ""^^xsd:string ;
	bd:ordinal "7"^^xsd:positiveInteger ;
	bd:name "IDVARVAL"^^xsd:string ;
	bd:description "Value of identifying variable of the parent record(s). Used only when individual comments are related to domain records. Null for comments collected on separate CRFs."^^xsd:string ;
	bd:format ""^^xsd:string ;
	bd:ctAndFormat ""^^xsd:string ;
	bd:compliance <http://www.assero.co.uk/CSN#f7d9d4e1-a00a-487e-89db-ebece910ba0d> ;
	bd:basedOnClassVariable <http://www.cdisc.org/SDTM_MODEL_CO/V6#CL_IDVARVAL> ;
.
<http://www.cdisc.org/SDTM_IG_CO/V4#IGD_COREF>
	rdf:type bd:SdtmDomainVariable ;
	isoC:label "Comment Reference"^^xsd:string ;
	bd:rule ""^^xsd:string ;
	bd:ordinal "8"^^xsd:positiveInteger ;
	bd:name "COREF"^^xsd:string ;
	bd:description "Sponsor-defined reference associated with the comment. May be the CRF page number (e.g., 650), or a module name (e.g., DEMOG), or a combination of information that identifies the reference (e.g. 650-VITALS-VISIT 2)."^^xsd:string ;
	bd:format ""^^xsd:string ;
	bd:ctAndFormat ""^^xsd:string ;
	bd:compliance <http://www.assero.co.uk/CSN#f7d9d4e1-a00a-487e-89db-ebece910ba0d> ;
	bd:basedOnClassVariable <http://www.cdisc.org/SDTM_MODEL_CO/V6#CL_COREF> ;
.
<http://www.cdisc.org/SDTM_IG_CO/V4#IGD_COVAL>
	rdf:type bd:SdtmDomainVariable ;
	isoC:label "Comment"^^xsd:string ;
	bd:rule ""^^xsd:string ;
	bd:ordinal "9"^^xsd:positiveInteger ;
	bd:name "COVAL"^^xsd:string ;
	bd:description "The text of the comment. Text over 200 characters can be added to additional columns COVAL1-COVALn. See Assumption 3."^^xsd:string ;
	bd:format ""^^xsd:string ;
	bd:ctAndFormat ""^^xsd:string ;
	bd:compliance <http://www.assero.co.uk/CSN#52070084-cdd3-4ba8-8377-f670e4b0276c> ;
	bd:basedOnClassVariable <http://www.cdisc.org/SDTM_MODEL_CO/V6#CL_COVAL> ;
.
<http://www.cdisc.org/SDTM_IG_CO/V4#IGD_COEVAL>
	rdf:type bd:SdtmDomainVariable ;
	isoC:label "Evaluator"^^xsd:string ;
	bd:rule ""^^xsd:string ;
	bd:ordinal "10"^^xsd:positiveInteger ;
	bd:name "COEVAL"^^xsd:string ;
	bd:description "Used to describe the originator of the comment. Examples: CENTRAL, REVIEWER, ADJUDICATION COMMITTEE, PRINCIPAL INVESTIGATOR."^^xsd:string ;
	bd:format ""^^xsd:string ;
	bd:ctAndFormat ""^^xsd:string ;
	bd:compliance <http://www.assero.co.uk/CSN#f7d9d4e1-a00a-487e-89db-ebece910ba0d> ;
	bd:basedOnClassVariable <http://www.cdisc.org/SDTM_MODEL_CO/V6#CL_COEVAL> ;
.
<http://www.cdisc.org/SDTM_IG_CO/V4#IGD_COEVALID>
	rdf:type bd:SdtmDomainVariable ;
	isoC:label "Evaluator Identifier"^^xsd:string ;
	bd:rule ""^^xsd:string ;
	bd:ordinal "11"^^xsd:positiveInteger ;
	bd:name "COEVALID"^^xsd:string ;
	bd:description "Used to distinguish multiple evaluators with the same role recorded in --EVAL. Examples: RADIOLOGIST, RADIOLOGIST1, RADIOLOGIST2."^^xsd:string ;
	bd:format ""^^xsd:string ;
	bd:ctAndFormat "(MEDEVAL)"^^xsd:string ;
	bd:compliance <http://www.assero.co.uk/CSN#f7d9d4e1-a00a-487e-89db-ebece910ba0d> ;
	bd:ctReference <http://www.cdisc.org/SDTM_IG_CO/V4#IGD_COEVALID_TMC1> ;
	bd:basedOnClassVariable <http://www.cdisc.org/SDTM_MODEL_CO/V6#CL_COEVALID> ;
.
<http://www.cdisc.org/SDTM_IG_CO/V4#IGD_COEVALID_TMC1>
	rdf:type bo:TMcReference ;
	isoC:label "MEDEVAL"^^xsd:string ;
	bo:enabled "true"^^xsd:boolean ;
	bo:optional "false"^^xsd:boolean ;
	bo:ordinal "1"^^xsd:positiveInteger ;
	bo:reference <http://www.cdisc.org/C96777/V57#C96777> ;
	bo:context <http://www.cdisc.org/CT/V57#TH> ;
.
<http://www.cdisc.org/SDTM_IG_CO/V4#IGD_CODTC>
	rdf:type bd:SdtmDomainVariable ;
	isoC:label "Date/Time of Comment"^^xsd:string ;
	bd:rule ""^^xsd:string ;
	bd:ordinal "12"^^xsd:positiveInteger ;
	bd:name "CODTC"^^xsd:string ;
	bd:description "Date/time of comment on dedicated comment form. Should be null if this is a child record of another domain or if comment date was not collected."^^xsd:string ;
	bd:format "ISO 8601"^^xsd:string ;
	bd:ctAndFormat "ISO 8601"^^xsd:string ;
	bd:compliance <http://www.assero.co.uk/CSN#f7d9d4e1-a00a-487e-89db-ebece910ba0d> ;
	bd:basedOnClassVariable <http://www.cdisc.org/SDTM_MODEL_CO/V6#CL_CODTC> ;
.
<http://www.cdisc.org/SDTM_IG_CO/V4#IGD_CODY>
	rdf:type bd:SdtmDomainVariable ;
	isoC:label "Study Day of Comment"^^xsd:string ;
	bd:rule ""^^xsd:string ;
	bd:ordinal "13"^^xsd:positiveInteger ;
	bd:name "CODY"^^xsd:string ;
	bd:description "Study day of the comment, in integer days. The algorithm for calculations must be relative to the sponsor-defined RFSTDTC variable in the Demographics (DM) domain."^^xsd:string ;
	bd:format ""^^xsd:string ;
	bd:ctAndFormat ""^^xsd:string ;
	bd:compliance <http://www.assero.co.uk/CSN#f7d9d4e1-a00a-487e-89db-ebece910ba0d> ;
	bd:basedOnClassVariable <http://www.cdisc.org/SDTM_MODEL_CO/V6#CL_CODY> ;
.
<http://www.cdisc.org/SDTM_IG_DM/V4#IGD>
	rdf:type bd:SdtmDomain ;
	isoC:label "Demographics"^^xsd:string ;
	isoT:hasState <http://www.cdisc.org/SDTM_IG_DM/V4#IGD_RS> ;
	isoT:hasIdentifier <http://www.cdisc.org/SDTM_IG_DM/V4#IGD_SI> ;
	isoT:hasPreviousVersion <http://www.cdisc.org/SDTM_IG_DM/V3#IGD> ;
	isoT:origin ""^^xsd:string ;
	isoT:changeDescription ""^^xsd:string ;
	isoT:creationDate "2018-11-20T00:00:00+00:00"^^xsd:dateTime ;
	isoT:lastChangeDate "2018-11-20T00:00:00+00:00"^^xsd:dateTime ;
	isoT:explanatoryComment ""^^xsd:string ;
	bd:rule ""^^xsd:string ;
	bd:ordinal "1"^^xsd:positiveInteger ;
	bd:includesColumn <http://www.cdisc.org/SDTM_IG_DM/V1#IGD_STUDYID> ;
	bd:includesColumn <http://www.cdisc.org/SDTM_IG_DM/V4#IGD_DOMAIN> ;
	bd:includesColumn <http://www.cdisc.org/SDTM_IG_DM/V4#IGD_USUBJID> ;
	bd:includesColumn <http://www.cdisc.org/SDTM_IG_DM/V4#IGD_SUBJID> ;
	bd:includesColumn <http://www.cdisc.org/SDTM_IG_DM/V4#IGD_RFSTDTC> ;
	bd:includesColumn <http://www.cdisc.org/SDTM_IG_DM/V4#IGD_RFENDTC> ;
	bd:includesColumn <http://www.cdisc.org/SDTM_IG_DM/V4#IGD_RFXSTDTC> ;
	bd:includesColumn <http://www.cdisc.org/SDTM_IG_DM/V4#IGD_RFXENDTC> ;
	bd:includesColumn <http://www.cdisc.org/SDTM_IG_DM/V4#IGD_RFICDTC> ;
	bd:includesColumn <http://www.cdisc.org/SDTM_IG_DM/V4#IGD_RFPENDTC> ;
	bd:includesColumn <http://www.cdisc.org/SDTM_IG_DM/V4#IGD_DTHDTC> ;
	bd:includesColumn <http://www.cdisc.org/SDTM_IG_DM/V4#IGD_DTHFL> ;
	bd:includesColumn <http://www.cdisc.org/SDTM_IG_DM/V4#IGD_SITEID> ;
	bd:includesColumn <http://www.cdisc.org/SDTM_IG_DM/V4#IGD_INVID> ;
	bd:includesColumn <http://www.cdisc.org/SDTM_IG_DM/V4#IGD_INVNAM> ;
	bd:includesColumn <http://www.cdisc.org/SDTM_IG_DM/V4#IGD_BRTHDTC> ;
	bd:includesColumn <http://www.cdisc.org/SDTM_IG_DM/V4#IGD_AGE> ;
	bd:includesColumn <http://www.cdisc.org/SDTM_IG_DM/V4#IGD_AGEU> ;
	bd:includesColumn <http://www.cdisc.org/SDTM_IG_DM/V4#IGD_SEX> ;
	bd:includesColumn <http://www.cdisc.org/SDTM_IG_DM/V4#IGD_RACE> ;
	bd:includesColumn <http://www.cdisc.org/SDTM_IG_DM/V4#IGD_ETHNIC> ;
	bd:includesColumn <http://www.cdisc.org/SDTM_IG_DM/V4#IGD_ARMCD> ;
	bd:includesColumn <http://www.cdisc.org/SDTM_IG_DM/V4#IGD_ARM> ;
	bd:includesColumn <http://www.cdisc.org/SDTM_IG_DM/V4#IGD_ACTARMCD> ;
	bd:includesColumn <http://www.cdisc.org/SDTM_IG_DM/V4#IGD_ACTARM> ;
	bd:includesColumn <http://www.cdisc.org/SDTM_IG_DM/V4#IGD_ARMNRS> ;
	bd:includesColumn <http://www.cdisc.org/SDTM_IG_DM/V4#IGD_ACTARMUD> ;
	bd:includesColumn <http://www.cdisc.org/SDTM_IG_DM/V4#IGD_COUNTRY> ;
	bd:includesColumn <http://www.cdisc.org/SDTM_IG_DM/V4#IGD_DMDTC> ;
	bd:includesColumn <http://www.cdisc.org/SDTM_IG_DM/V4#IGD_DMDY> ;
	bd:prefix "DM"^^xsd:string ;
	bd:structure "One record per subject"^^xsd:string ;
	bd:basedOnClass <http://www.cdisc.org/SDTM_MODEL_DM/V6#CL> ;
.
<http://www.cdisc.org/SDTM_IG_DM/V4#IGD_RS>
	rdf:type isoR:RegistrationState ;
	isoR:registrationStatus "Standard"^^xsd:string ;
	isoR:administrativeNote ""^^xsd:string ;
	isoR:effectiveDate "2016-01-01T00:00:00+00:00"^^xsd:dateTime ;
	isoR:untilDate "2016-01-01T00:00:00+00:00"^^xsd:dateTime ;
	isoR:unresolvedIssue ""^^xsd:string ;
	isoR:administrativeStatus ""^^xsd:string ;
	isoR:previousState "Standard"^^xsd:string ;
	isoR:multipleEdit "false"^^xsd:boolean ;
	isoR:byAuthority <http://www.assero.co.uk/RA#DUNS084433759> ;
.
<http://www.cdisc.org/SDTM_IG_DM/V4#IGD_SI>
	rdf:type isoI:ScopedIdentifier ;
	isoI:identifier "SDTM IG DM"^^xsd:string ;
	isoI:versionLabel "2018-11-20 Release"^^xsd:string ;
	isoI:version "4"^^xsd:positiveInteger ;
	isoI:semanticVersion "3.3.0"^^xsd:string ;
	isoI:hasScope <http://www.assero.co.uk/NS#CDISC> ;
.
<http://www.cdisc.org/SDTM_IG_DM/V4#IGD_DOMAIN>
	rdf:type bd:SdtmDomainVariable ;
	isoC:label "Domain Abbreviation"^^xsd:string ;
	bd:rule ""^^xsd:string ;
	bd:ordinal "2"^^xsd:positiveInteger ;
	bd:name "DOMAIN"^^xsd:string ;
	bd:description "Two-character abbreviation for the domain."^^xsd:string ;
	bd:format "DM"^^xsd:string ;
	bd:ctAndFormat "DM"^^xsd:string ;
	bd:compliance <http://www.assero.co.uk/CSN#52070084-cdd3-4ba8-8377-f670e4b0276c> ;
	bd:basedOnClassVariable <http://www.cdisc.org/SDTM_MODEL_DM/V6#CL_DOMAIN> ;
.
<http://www.cdisc.org/SDTM_IG_DM/V4#IGD_USUBJID>
	rdf:type bd:SdtmDomainVariable ;
	isoC:label "Unique Subject Identifier"^^xsd:string ;
	bd:rule ""^^xsd:string ;
	bd:ordinal "3"^^xsd:positiveInteger ;
	bd:name "USUBJID"^^xsd:string ;
	bd:description "Identifier used to uniquely identify a subject across all studies for all applications or submissions involving the product. This must be a unique number, and could be a compound identifier formed by concatenating STUDYID-SITEID-SUBJID."^^xsd:string ;
	bd:format ""^^xsd:string ;
	bd:ctAndFormat ""^^xsd:string ;
	bd:compliance <http://www.assero.co.uk/CSN#52070084-cdd3-4ba8-8377-f670e4b0276c> ;
	bd:basedOnClassVariable <http://www.cdisc.org/SDTM_MODEL_DM/V4#CL_USUBJID> ;
.
<http://www.cdisc.org/SDTM_IG_DM/V4#IGD_SUBJID>
	rdf:type bd:SdtmDomainVariable ;
	isoC:label "Subject Identifier for the Study"^^xsd:string ;
	bd:rule ""^^xsd:string ;
	bd:ordinal "4"^^xsd:positiveInteger ;
	bd:name "SUBJID"^^xsd:string ;
	bd:description "Subject identifier, which must be unique within the study. Often the ID of the subject as recorded on a CRF."^^xsd:string ;
	bd:format ""^^xsd:string ;
	bd:ctAndFormat ""^^xsd:string ;
	bd:compliance <http://www.assero.co.uk/CSN#52070084-cdd3-4ba8-8377-f670e4b0276c> ;
	bd:basedOnClassVariable <http://www.cdisc.org/SDTM_MODEL_DM/V6#CL_SUBJID> ;
.
<http://www.cdisc.org/SDTM_IG_DM/V4#IGD_RFSTDTC>
	rdf:type bd:SdtmDomainVariable ;
	isoC:label "Subject Reference Start Date/Time"^^xsd:string ;
	bd:rule ""^^xsd:string ;
	bd:ordinal "5"^^xsd:positiveInteger ;
	bd:name "RFSTDTC"^^xsd:string ;
	bd:description "Reference Start Date/time for the subject in ISO 8601 character format. Usually equivalent to date/time when subject was first exposed to study treatment. See Assumption 9 for additional detail on when RFSTDTC may be null."^^xsd:string ;
	bd:format "ISO 8601"^^xsd:string ;
	bd:ctAndFormat "ISO 8601"^^xsd:string ;
	bd:compliance <http://www.assero.co.uk/CSN#046f6c24-9eaf-4f60-8390-f36328c82ec4> ;
	bd:basedOnClassVariable <http://www.cdisc.org/SDTM_MODEL_DM/V6#CL_RFSTDTC> ;
.
<http://www.cdisc.org/SDTM_IG_DM/V4#IGD_RFENDTC>
	rdf:type bd:SdtmDomainVariable ;
	isoC:label "Subject Reference End Date/Time"^^xsd:string ;
	bd:rule ""^^xsd:string ;
	bd:ordinal "6"^^xsd:positiveInteger ;
	bd:name "RFENDTC"^^xsd:string ;
	bd:description "Reference End Date/time for the subject in ISO 8601 character format. Usually equivalent to the date/time when subject was determined to have ended the trial, and often equivalent to date/time of last exposure to study treatment. Required for all randomized subjects; null for screen failures or unassigned subjects."^^xsd:string ;
	bd:format "ISO 8601"^^xsd:string ;
	bd:ctAndFormat "ISO 8601"^^xsd:string ;
	bd:compliance <http://www.assero.co.uk/CSN#046f6c24-9eaf-4f60-8390-f36328c82ec4> ;
	bd:basedOnClassVariable <http://www.cdisc.org/SDTM_MODEL_DM/V6#CL_RFENDTC> ;
.
<http://www.cdisc.org/SDTM_IG_DM/V4#IGD_RFXSTDTC>
	rdf:type bd:SdtmDomainVariable ;
	isoC:label "Date/Time of First Study Treatment"^^xsd:string ;
	bd:rule ""^^xsd:string ;
	bd:ordinal "7"^^xsd:positiveInteger ;
	bd:name "RFXSTDTC"^^xsd:string ;
	bd:description "First date/time of exposure to any protocol-specified treatment or therapy, equal to the earliest value of EXSTDTC."^^xsd:string ;
	bd:format "ISO 8601"^^xsd:string ;
	bd:ctAndFormat "ISO 8601"^^xsd:string ;
	bd:compliance <http://www.assero.co.uk/CSN#046f6c24-9eaf-4f60-8390-f36328c82ec4> ;
	bd:basedOnClassVariable <http://www.cdisc.org/SDTM_MODEL_DM/V6#CL_RFXSTDTC> ;
.
<http://www.cdisc.org/SDTM_IG_DM/V4#IGD_RFXENDTC>
	rdf:type bd:SdtmDomainVariable ;
	isoC:label "Date/Time of Last Study Treatment"^^xsd:string ;
	bd:rule ""^^xsd:string ;
	bd:ordinal "8"^^xsd:positiveInteger ;
	bd:name "RFXENDTC"^^xsd:string ;
	bd:description "Last date/time of exposure to any protocol-specified treatment or therapy, equal to the latest value of EXENDTC (or the latest value of EXSTDTC if EXENDTC was not collected or is missing)."^^xsd:string ;
	bd:format "ISO 8601"^^xsd:string ;
	bd:ctAndFormat "ISO 8601"^^xsd:string ;
	bd:compliance <http://www.assero.co.uk/CSN#046f6c24-9eaf-4f60-8390-f36328c82ec4> ;
	bd:basedOnClassVariable <http://www.cdisc.org/SDTM_MODEL_DM/V6#CL_RFXENDTC> ;
.
<http://www.cdisc.org/SDTM_IG_DM/V4#IGD_RFICDTC>
	rdf:type bd:SdtmDomainVariable ;
	isoC:label "Date/Time of Informed Consent"^^xsd:string ;
	bd:rule ""^^xsd:string ;
	bd:ordinal "9"^^xsd:positiveInteger ;
	bd:name "RFICDTC"^^xsd:string ;
	bd:description "Date/time of informed consent in ISO 8601 character format. This will be the same as the date of informed consent in the Disposition domain, if that protocol milestone is documented. Would be null only in studies not collecting the date of informed consent."^^xsd:string ;
	bd:format "ISO 8601"^^xsd:string ;
	bd:ctAndFormat "ISO 8601"^^xsd:string ;
	bd:compliance <http://www.assero.co.uk/CSN#046f6c24-9eaf-4f60-8390-f36328c82ec4> ;
	bd:basedOnClassVariable <http://www.cdisc.org/SDTM_MODEL_DM/V6#CL_RFICDTC> ;
.
<http://www.cdisc.org/SDTM_IG_DM/V4#IGD_RFPENDTC>
	rdf:type bd:SdtmDomainVariable ;
	isoC:label "Date/Time of End of Participation"^^xsd:string ;
	bd:rule ""^^xsd:string ;
	bd:ordinal "10"^^xsd:positiveInteger ;
	bd:name "RFPENDTC"^^xsd:string ;
	bd:description "Date/time when subject ended participation or follow-up in a trial, as defined in the protocol, in ISO 8601 character format. Should correspond to the last known date of contact. Examples include completion date, withdrawal date, last follow-up, date recorded for lost to follow up, or death date."^^xsd:string ;
	bd:format "ISO 8601"^^xsd:string ;
	bd:ctAndFormat "ISO 8601"^^xsd:string ;
	bd:compliance <http://www.assero.co.uk/CSN#046f6c24-9eaf-4f60-8390-f36328c82ec4> ;
	bd:basedOnClassVariable <http://www.cdisc.org/SDTM_MODEL_DM/V6#CL_RFPENDTC> ;
.
<http://www.cdisc.org/SDTM_IG_DM/V4#IGD_DTHDTC>
	rdf:type bd:SdtmDomainVariable ;
	isoC:label "Date/Time of Death"^^xsd:string ;
	bd:rule ""^^xsd:string ;
	bd:ordinal "11"^^xsd:positiveInteger ;
	bd:name "DTHDTC"^^xsd:string ;
	bd:description "Date/time of death for any subject who died, in ISO 8601 format. Should represent the date/time that is captured in the clinical-trial database."^^xsd:string ;
	bd:format "ISO 8601"^^xsd:string ;
	bd:ctAndFormat "ISO 8601"^^xsd:string ;
	bd:compliance <http://www.assero.co.uk/CSN#046f6c24-9eaf-4f60-8390-f36328c82ec4> ;
	bd:basedOnClassVariable <http://www.cdisc.org/SDTM_MODEL_DM/V6#CL_DTHDTC> ;
.
<http://www.cdisc.org/SDTM_IG_DM/V4#IGD_DTHFL>
	rdf:type bd:SdtmDomainVariable ;
	isoC:label "Subject Death Flag"^^xsd:string ;
	bd:rule ""^^xsd:string ;
	bd:ordinal "12"^^xsd:positiveInteger ;
	bd:name "DTHFL"^^xsd:string ;
	bd:description "Indicates the subject died. Should be \"Y\" or null. Should be populated even when the death date is unknown."^^xsd:string ;
	bd:format ""^^xsd:string ;
	bd:ctAndFormat "(NY)"^^xsd:string ;
	bd:compliance <http://www.assero.co.uk/CSN#046f6c24-9eaf-4f60-8390-f36328c82ec4> ;
	bd:ctReference <http://www.cdisc.org/SDTM_IG_DM/V4#IGD_DTHFL_TMC1> ;
	bd:basedOnClassVariable <http://www.cdisc.org/SDTM_MODEL_DM/V6#CL_DTHFL> ;
.
<http://www.cdisc.org/SDTM_IG_DM/V4#IGD_DTHFL_TMC1>
	rdf:type bo:TMcReference ;
	isoC:label "NY"^^xsd:string ;
	bo:enabled "true"^^xsd:boolean ;
	bo:optional "false"^^xsd:boolean ;
	bo:ordinal "1"^^xsd:positiveInteger ;
	bo:reference <http://www.cdisc.org/C66742/V56#C66742> ;
	bo:context <http://www.cdisc.org/CT/V57#TH> ;
.
<http://www.cdisc.org/SDTM_IG_DM/V4#IGD_SITEID>
	rdf:type bd:SdtmDomainVariable ;
	isoC:label "Study Site Identifier"^^xsd:string ;
	bd:rule ""^^xsd:string ;
	bd:ordinal "13"^^xsd:positiveInteger ;
	bd:name "SITEID"^^xsd:string ;
	bd:description "Unique identifier for a site within a study."^^xsd:string ;
	bd:format ""^^xsd:string ;
	bd:ctAndFormat ""^^xsd:string ;
	bd:compliance <http://www.assero.co.uk/CSN#52070084-cdd3-4ba8-8377-f670e4b0276c> ;
	bd:basedOnClassVariable <http://www.cdisc.org/SDTM_MODEL_DM/V6#CL_SITEID> ;
.
<http://www.cdisc.org/SDTM_IG_DM/V4#IGD_INVID>
	rdf:type bd:SdtmDomainVariable ;
	isoC:label "Investigator Identifier"^^xsd:string ;
	bd:rule ""^^xsd:string ;
	bd:ordinal "14"^^xsd:positiveInteger ;
	bd:name "INVID"^^xsd:string ;
	bd:description "An identifier to describe the Investigator for the study. May be used in addition to SITEID. Not needed if SITEID is equivalent to INVID."^^xsd:string ;
	bd:format ""^^xsd:string ;
	bd:ctAndFormat ""^^xsd:string ;
	bd:compliance <http://www.assero.co.uk/CSN#f7d9d4e1-a00a-487e-89db-ebece910ba0d> ;
	bd:basedOnClassVariable <http://www.cdisc.org/SDTM_MODEL_DM/V6#CL_INVID> ;
.
<http://www.cdisc.org/SDTM_IG_DM/V4#IGD_INVNAM>
	rdf:type bd:SdtmDomainVariable ;
	isoC:label "Investigator Name"^^xsd:string ;
	bd:rule ""^^xsd:string ;
	bd:ordinal "15"^^xsd:positiveInteger ;
	bd:name "INVNAM"^^xsd:string ;
	bd:description "Name of the investigator for a site."^^xsd:string ;
	bd:format ""^^xsd:string ;
	bd:ctAndFormat ""^^xsd:string ;
	bd:compliance <http://www.assero.co.uk/CSN#f7d9d4e1-a00a-487e-89db-ebece910ba0d> ;
	bd:basedOnClassVariable <http://www.cdisc.org/SDTM_MODEL_DM/V6#CL_INVNAM> ;
.
<http://www.cdisc.org/SDTM_IG_DM/V4#IGD_BRTHDTC>
	rdf:type bd:SdtmDomainVariable ;
	isoC:label "Date/Time of Birth"^^xsd:string ;
	bd:rule ""^^xsd:string ;
	bd:ordinal "16"^^xsd:positiveInteger ;
	bd:name "BRTHDTC"^^xsd:string ;
	bd:description "Date/time of birth of the subject."^^xsd:string ;
	bd:format "ISO 8601"^^xsd:string ;
	bd:ctAndFormat "ISO 8601"^^xsd:string ;
	bd:compliance <http://www.assero.co.uk/CSN#f7d9d4e1-a00a-487e-89db-ebece910ba0d> ;
	bd:basedOnClassVariable <http://www.cdisc.org/SDTM_MODEL_DM/V6#CL_BRTHDTC> ;
.
<http://www.cdisc.org/SDTM_IG_DM/V4#IGD_AGE>
	rdf:type bd:SdtmDomainVariable ;
	isoC:label "Age"^^xsd:string ;
	bd:rule ""^^xsd:string ;
	bd:ordinal "17"^^xsd:positiveInteger ;
	bd:name "AGE"^^xsd:string ;
	bd:description "Age expressed in AGEU. May be derived from RFSTDTC and BRTHDTC, but BRTHDTC may not be available in all cases (due to subject privacy concerns)."^^xsd:string ;
	bd:format ""^^xsd:string ;
	bd:ctAndFormat ""^^xsd:string ;
	bd:compliance <http://www.assero.co.uk/CSN#046f6c24-9eaf-4f60-8390-f36328c82ec4> ;
	bd:basedOnClassVariable <http://www.cdisc.org/SDTM_MODEL_DM/V6#CL_AGE> ;
.
<http://www.cdisc.org/SDTM_IG_DM/V4#IGD_AGEU>
	rdf:type bd:SdtmDomainVariable ;
	isoC:label "Age Units"^^xsd:string ;
	bd:rule ""^^xsd:string ;
	bd:ordinal "18"^^xsd:positiveInteger ;
	bd:name "AGEU"^^xsd:string ;
	bd:description "Units associated with AGE."^^xsd:string ;
	bd:format ""^^xsd:string ;
	bd:ctAndFormat "(AGEU)"^^xsd:string ;
	bd:compliance <http://www.assero.co.uk/CSN#046f6c24-9eaf-4f60-8390-f36328c82ec4> ;
	bd:ctReference <http://www.cdisc.org/SDTM_IG_DM/V4#IGD_AGEU_TMC1> ;
	bd:basedOnClassVariable <http://www.cdisc.org/SDTM_MODEL_DM/V6#CL_AGEU> ;
.
<http://www.cdisc.org/SDTM_IG_DM/V4#IGD_AGEU_TMC1>
	rdf:type bo:TMcReference ;
	isoC:label "AGEU"^^xsd:string ;
	bo:enabled "true"^^xsd:boolean ;
	bo:optional "false"^^xsd:boolean ;
	bo:ordinal "1"^^xsd:positiveInteger ;
	bo:reference <http://www.cdisc.org/C66781/V49#C66781> ;
	bo:context <http://www.cdisc.org/CT/V57#TH> ;
.
<http://www.cdisc.org/SDTM_IG_DM/V4#IGD_SEX>
	rdf:type bd:SdtmDomainVariable ;
	isoC:label "Sex"^^xsd:string ;
	bd:rule ""^^xsd:string ;
	bd:ordinal "19"^^xsd:positiveInteger ;
	bd:name "SEX"^^xsd:string ;
	bd:description "Sex of the subject."^^xsd:string ;
	bd:format ""^^xsd:string ;
	bd:ctAndFormat "(SEX)"^^xsd:string ;
	bd:compliance <http://www.assero.co.uk/CSN#52070084-cdd3-4ba8-8377-f670e4b0276c> ;
	bd:ctReference <http://www.cdisc.org/SDTM_IG_DM/V4#IGD_SEX_TMC1> ;
	bd:basedOnClassVariable <http://www.cdisc.org/SDTM_MODEL_DM/V6#CL_SEX> ;
.
<http://www.cdisc.org/SDTM_IG_DM/V4#IGD_SEX_TMC1>
	rdf:type bo:TMcReference ;
	isoC:label "SEX"^^xsd:string ;
	bo:enabled "true"^^xsd:boolean ;
	bo:optional "false"^^xsd:boolean ;
	bo:ordinal "1"^^xsd:positiveInteger ;
	bo:reference <http://www.cdisc.org/C66731/V56#C66731> ;
	bo:context <http://www.cdisc.org/CT/V57#TH> ;
.
<http://www.cdisc.org/SDTM_IG_DM/V4#IGD_RACE>
	rdf:type bd:SdtmDomainVariable ;
	isoC:label "Race"^^xsd:string ;
	bd:rule ""^^xsd:string ;
	bd:ordinal "20"^^xsd:positiveInteger ;
	bd:name "RACE"^^xsd:string ;
	bd:description "Race of the subject. Sponsors should refer to \"Collection of Race and Ethnicity Data in Clinical Trials\" (FDA, October, 2016) for guidance regarding the collection of race (https://www.fda.gov/downloads/regulatoryinformation/guidances/ucm126396.pdf) See Assumption below regarding RACE."^^xsd:string ;
	bd:format ""^^xsd:string ;
	bd:ctAndFormat "(RACE)"^^xsd:string ;
	bd:compliance <http://www.assero.co.uk/CSN#046f6c24-9eaf-4f60-8390-f36328c82ec4> ;
	bd:ctReference <http://www.cdisc.org/SDTM_IG_DM/V4#IGD_RACE_TMC1> ;
	bd:basedOnClassVariable <http://www.cdisc.org/SDTM_MODEL_DM/V6#CL_RACE> ;
.
<http://www.cdisc.org/SDTM_IG_DM/V4#IGD_RACE_TMC1>
	rdf:type bo:TMcReference ;
	isoC:label "RACE"^^xsd:string ;
	bo:enabled "true"^^xsd:boolean ;
	bo:optional "false"^^xsd:boolean ;
	bo:ordinal "1"^^xsd:positiveInteger ;
	bo:reference <http://www.cdisc.org/C74457/V49#C74457> ;
	bo:context <http://www.cdisc.org/CT/V57#TH> ;
.
<http://www.cdisc.org/SDTM_IG_DM/V4#IGD_ETHNIC>
	rdf:type bd:SdtmDomainVariable ;
	isoC:label "Ethnicity"^^xsd:string ;
	bd:rule ""^^xsd:string ;
	bd:ordinal "21"^^xsd:positiveInteger ;
	bd:name "ETHNIC"^^xsd:string ;
	bd:description "The ethnicity of the subject. Sponsors should refer to \"Collection of Race and Ethnicity Data in Clinical Trials\" (FDA, October, 2016) for guidance regarding the collection of ethnicity (https://www.fda.gov/downloads/regulatoryinformation/guidances/ucm126396.pdf)."^^xsd:string ;
	bd:format ""^^xsd:string ;
	bd:ctAndFormat "(ETHNIC)"^^xsd:string ;
	bd:compliance <http://www.assero.co.uk/CSN#f7d9d4e1-a00a-487e-89db-ebece910ba0d> ;
	bd:ctReference <http://www.cdisc.org/SDTM_IG_DM/V4#IGD_ETHNIC_TMC1> ;
	bd:basedOnClassVariable <http://www.cdisc.org/SDTM_MODEL_DM/V6#CL_ETHNIC> ;
.
<http://www.cdisc.org/SDTM_IG_DM/V4#IGD_ETHNIC_TMC1>
	rdf:type bo:TMcReference ;
	isoC:label "ETHNIC"^^xsd:string ;
	bo:enabled "true"^^xsd:boolean ;
	bo:optional "false"^^xsd:boolean ;
	bo:ordinal "1"^^xsd:positiveInteger ;
	bo:reference <http://www.cdisc.org/C66790/V56#C66790> ;
	bo:context <http://www.cdisc.org/CT/V57#TH> ;
.
<http://www.cdisc.org/SDTM_IG_DM/V4#IGD_ARMCD>
	rdf:type bd:SdtmDomainVariable ;
	isoC:label "Planned Arm Code"^^xsd:string ;
	bd:rule ""^^xsd:string ;
	bd:ordinal "22"^^xsd:positiveInteger ;
	bd:name "ARMCD"^^xsd:string ;
	bd:description "ARMCD is limited to 20 characters. It is not subject to the character restrictions that apply to TESTCD.The maximum length of ARMCD is longer than for other \"short\" variables to accommodate the kind of values that are likely to be needed for crossover trials. For example, if ARMCD values for a seven-period crossover were constructed using two-character abbreviations for each treatment and separating hyphens, the length of ARMCD values would be 20. If the subject was not assigned to an Arm, ARMCD is null and ARMNRS is populated. With the exception of studies which use multi-stage Arm assignments, must be a value of ARMCD in the Trial Arms Dataset."^^xsd:string ;
	bd:format ""^^xsd:string ;
	bd:ctAndFormat ""^^xsd:string ;
	bd:compliance <http://www.assero.co.uk/CSN#046f6c24-9eaf-4f60-8390-f36328c82ec4> ;
	bd:basedOnClassVariable <http://www.cdisc.org/SDTM_MODEL_DM/V6#CL_ARMCD> ;
.
<http://www.cdisc.org/SDTM_IG_DM/V4#IGD_ARM>
	rdf:type bd:SdtmDomainVariable ;
	isoC:label "Description of Planned Arm"^^xsd:string ;
	bd:rule ""^^xsd:string ;
	bd:ordinal "23"^^xsd:positiveInteger ;
	bd:name "ARM"^^xsd:string ;
	bd:description "Name of the Arm to which the subject was assigned. If the subject was not assigned to an Arm, ARM is null and ARMNRS is populated. With the exception of studies which use multi-stage Arm assignments, must be a value of ARM in the Trial Arms Dataset."^^xsd:string ;
	bd:format ""^^xsd:string ;
	bd:ctAndFormat ""^^xsd:string ;
	bd:compliance <http://www.assero.co.uk/CSN#046f6c24-9eaf-4f60-8390-f36328c82ec4> ;
	bd:basedOnClassVariable <http://www.cdisc.org/SDTM_MODEL_DM/V6#CL_ARM> ;
.
<http://www.cdisc.org/SDTM_IG_DM/V4#IGD_ACTARMCD>
	rdf:type bd:SdtmDomainVariable ;
	isoC:label "Actual Arm Code"^^xsd:string ;
	bd:rule ""^^xsd:string ;
	bd:ordinal "24"^^xsd:positiveInteger ;
	bd:name "ACTARMCD"^^xsd:string ;
	bd:description "Code of actual Arm. ACTARMCD is limited to 20 characters. It is not subject to the character restrictions that apply to TESTCD. The maximum length of ACTARMCD is longer than for other short variables to accommodate the kind of values that are likely to be needed for crossover trials. With the exception of studies which use multi-stage Arm assignments, must be a value of ARMCD in the Trial Arms Dataset. If the subject was not assigned to an Arm or followed a course not described by any planned Arm, ACTARMCD is null and ARMNRS is populated."^^xsd:string ;
	bd:format ""^^xsd:string ;
	bd:ctAndFormat ""^^xsd:string ;
	bd:compliance <http://www.assero.co.uk/CSN#046f6c24-9eaf-4f60-8390-f36328c82ec4> ;
	bd:basedOnClassVariable <http://www.cdisc.org/SDTM_MODEL_DM/V6#CL_ACTARMCD> ;
.
<http://www.cdisc.org/SDTM_IG_DM/V4#IGD_ACTARM>
	rdf:type bd:SdtmDomainVariable ;
	isoC:label "Description of Actual Arm"^^xsd:string ;
	bd:rule ""^^xsd:string ;
	bd:ordinal "25"^^xsd:positiveInteger ;
	bd:name "ACTARM"^^xsd:string ;
	bd:description "Description of actual Arm. With the exception of studies which use multi-stage Arm assignments, must be a value of ARM in the Trial Arms Dataset. If the subject was not assigned to an Arm or followed a course not described by any planned Arm, ACTARM is null and ARMNRS is populated."^^xsd:string ;
	bd:format ""^^xsd:string ;
	bd:ctAndFormat ""^^xsd:string ;
	bd:compliance <http://www.assero.co.uk/CSN#046f6c24-9eaf-4f60-8390-f36328c82ec4> ;
	bd:basedOnClassVariable <http://www.cdisc.org/SDTM_MODEL_DM/V6#CL_ACTARM> ;
.
<http://www.cdisc.org/SDTM_IG_DM/V4#IGD_ARMNRS>
	rdf:type bd:SdtmDomainVariable ;
	isoC:label "Reason Arm and/or Actual Arm is Null"^^xsd:string ;
	bd:rule ""^^xsd:string ;
	bd:ordinal "26"^^xsd:positiveInteger ;
	bd:name "ARMNRS"^^xsd:string ;
	bd:description "A coded reason that Arm variables (ARM and ARMCD) and/or actual Arm variables (ACTARM and ACTARMCD) are null. Examples: \"SCREEN FAILURE\", \"NOT ASSIGNED\", \"ASSIGNED, NOT TREATED\", \"UNPLANNED TREATMENT\". It is assumed that if the Arm and actual Arm variables are null, the same reason applies to both Arm and actual Arm."^^xsd:string ;
	bd:format ""^^xsd:string ;
	bd:ctAndFormat ""^^xsd:string ;
	bd:compliance <http://www.assero.co.uk/CSN#046f6c24-9eaf-4f60-8390-f36328c82ec4> ;
	bd:basedOnClassVariable <http://www.cdisc.org/SDTM_MODEL_DM/V6#CL_ARMNRS> ;
.
<http://www.cdisc.org/SDTM_IG_DM/V4#IGD_ACTARMUD>
	rdf:type bd:SdtmDomainVariable ;
	isoC:label "Description of Unplanned Actual Arm"^^xsd:string ;
	bd:rule ""^^xsd:string ;
	bd:ordinal "27"^^xsd:positiveInteger ;
	bd:name "ACTARMUD"^^xsd:string ;
	bd:description "A description of actual treatment for a subject who did not receive treatment described in one of the planned trial Arms."^^xsd:string ;
	bd:format ""^^xsd:string ;
	bd:ctAndFormat ""^^xsd:string ;
	bd:compliance <http://www.assero.co.uk/CSN#046f6c24-9eaf-4f60-8390-f36328c82ec4> ;
	bd:basedOnClassVariable <http://www.cdisc.org/SDTM_MODEL_DM/V6#CL_ACTARMUD> ;
.
<http://www.cdisc.org/SDTM_IG_DM/V4#IGD_COUNTRY>
	rdf:type bd:SdtmDomainVariable ;
	isoC:label "Country"^^xsd:string ;
	bd:rule ""^^xsd:string ;
	bd:ordinal "28"^^xsd:positiveInteger ;
	bd:name "COUNTRY"^^xsd:string ;
	bd:description "Country of the investigational site in which the subject participated in the trial."^^xsd:string ;
	bd:format "ISO 3166-1 Alpha-3"^^xsd:string ;
	bd:ctAndFormat "ISO 3166-1 Alpha-3"^^xsd:string ;
	bd:compliance <http://www.assero.co.uk/CSN#52070084-cdd3-4ba8-8377-f670e4b0276c> ;
	bd:basedOnClassVariable <http://www.cdisc.org/SDTM_MODEL_DM/V6#CL_COUNTRY> ;
.
<http://www.cdisc.org/SDTM_IG_DM/V4#IGD_DMDTC>
	rdf:type bd:SdtmDomainVariable ;
	isoC:label "Date/Time of Collection"^^xsd:string ;
	bd:rule ""^^xsd:string ;
	bd:ordinal "29"^^xsd:positiveInteger ;
	bd:name "DMDTC"^^xsd:string ;
	bd:description "Date/time of demographic data collection."^^xsd:string ;
	bd:format "ISO 8601"^^xsd:string ;
	bd:ctAndFormat "ISO 8601"^^xsd:string ;
	bd:compliance <http://www.assero.co.uk/CSN#f7d9d4e1-a00a-487e-89db-ebece910ba0d> ;
	bd:basedOnClassVariable <http://www.cdisc.org/SDTM_MODEL_DM/V6#CL_DMDTC> ;
.
<http://www.cdisc.org/SDTM_IG_DM/V4#IGD_DMDY>
	rdf:type bd:SdtmDomainVariable ;
	isoC:label "Study Day of Collection"^^xsd:string ;
	bd:rule ""^^xsd:string ;
	bd:ordinal "30"^^xsd:positiveInteger ;
	bd:name "DMDY"^^xsd:string ;
	bd:description "Study day of collection measured as integer days."^^xsd:string ;
	bd:format ""^^xsd:string ;
	bd:ctAndFormat ""^^xsd:string ;
	bd:compliance <http://www.assero.co.uk/CSN#f7d9d4e1-a00a-487e-89db-ebece910ba0d> ;
	bd:basedOnClassVariable <http://www.cdisc.org/SDTM_MODEL_DM/V6#CL_DMDY> ;
.
<http://www.cdisc.org/SDTM_IG_SE/V4#IGD>
	rdf:type bd:SdtmDomain ;
	isoC:label "Subject Elements"^^xsd:string ;
	isoT:hasState <http://www.cdisc.org/SDTM_IG_SE/V4#IGD_RS> ;
	isoT:hasIdentifier <http://www.cdisc.org/SDTM_IG_SE/V4#IGD_SI> ;
	isoT:hasPreviousVersion <http://www.cdisc.org/SDTM_IG_SE/V3#IGD> ;
	isoT:origin ""^^xsd:string ;
	isoT:changeDescription ""^^xsd:string ;
	isoT:creationDate "2018-11-20T00:00:00+00:00"^^xsd:dateTime ;
	isoT:lastChangeDate "2018-11-20T00:00:00+00:00"^^xsd:dateTime ;
	isoT:explanatoryComment ""^^xsd:string ;
	bd:rule ""^^xsd:string ;
	bd:ordinal "1"^^xsd:positiveInteger ;
	bd:includesColumn <http://www.cdisc.org/SDTM_IG_SE/V1#IGD_STUDYID> ;
	bd:includesColumn <http://www.cdisc.org/SDTM_IG_SE/V4#IGD_DOMAIN> ;
	bd:includesColumn <http://www.cdisc.org/SDTM_IG_SE/V1#IGD_USUBJID> ;
	bd:includesColumn <http://www.cdisc.org/SDTM_IG_SE/V4#IGD_SESEQ> ;
	bd:includesColumn <http://www.cdisc.org/SDTM_IG_SE/V4#IGD_ETCD> ;
	bd:includesColumn <http://www.cdisc.org/SDTM_IG_SE/V4#IGD_ELEMENT> ;
	bd:includesColumn <http://www.cdisc.org/SDTM_IG_SE/V4#IGD_TAETORD> ;
	bd:includesColumn <http://www.cdisc.org/SDTM_IG_SE/V4#IGD_EPOCH> ;
	bd:includesColumn <http://www.cdisc.org/SDTM_IG_SE/V4#IGD_SESTDTC> ;
	bd:includesColumn <http://www.cdisc.org/SDTM_IG_SE/V4#IGD_SEENDTC> ;
	bd:includesColumn <http://www.cdisc.org/SDTM_IG_SE/V4#IGD_SEUPDES> ;
	bd:prefix "SE"^^xsd:string ;
	bd:structure "One record per actual Element per subject"^^xsd:string ;
	bd:basedOnClass <http://www.cdisc.org/SDTM_MODEL_SE/V6#CL> ;
.
<http://www.cdisc.org/SDTM_IG_SE/V4#IGD_RS>
	rdf:type isoR:RegistrationState ;
	isoR:registrationStatus "Standard"^^xsd:string ;
	isoR:administrativeNote ""^^xsd:string ;
	isoR:effectiveDate "2016-01-01T00:00:00+00:00"^^xsd:dateTime ;
	isoR:untilDate "2016-01-01T00:00:00+00:00"^^xsd:dateTime ;
	isoR:unresolvedIssue ""^^xsd:string ;
	isoR:administrativeStatus ""^^xsd:string ;
	isoR:previousState "Standard"^^xsd:string ;
	isoR:multipleEdit "false"^^xsd:boolean ;
	isoR:byAuthority <http://www.assero.co.uk/RA#DUNS084433759> ;
.
<http://www.cdisc.org/SDTM_IG_SE/V4#IGD_SI>
	rdf:type isoI:ScopedIdentifier ;
	isoI:identifier "SDTM IG SE"^^xsd:string ;
	isoI:versionLabel "2018-11-20 Release"^^xsd:string ;
	isoI:version "4"^^xsd:positiveInteger ;
	isoI:semanticVersion "3.3.0"^^xsd:string ;
	isoI:hasScope <http://www.assero.co.uk/NS#CDISC> ;
.
<http://www.cdisc.org/SDTM_IG_SE/V4#IGD_DOMAIN>
	rdf:type bd:SdtmDomainVariable ;
	isoC:label "Domain Abbreviation"^^xsd:string ;
	bd:rule ""^^xsd:string ;
	bd:ordinal "2"^^xsd:positiveInteger ;
	bd:name "DOMAIN"^^xsd:string ;
	bd:description "Two-character abbreviation for the domain."^^xsd:string ;
	bd:format "SE"^^xsd:string ;
	bd:ctAndFormat "SE"^^xsd:string ;
	bd:compliance <http://www.assero.co.uk/CSN#52070084-cdd3-4ba8-8377-f670e4b0276c> ;
	bd:basedOnClassVariable <http://www.cdisc.org/SDTM_MODEL_SE/V6#CL_DOMAIN> ;
.
<http://www.cdisc.org/SDTM_IG_SE/V4#IGD_SESEQ>
	rdf:type bd:SdtmDomainVariable ;
	isoC:label "Sequence Number"^^xsd:string ;
	bd:rule ""^^xsd:string ;
	bd:ordinal "4"^^xsd:positiveInteger ;
	bd:name "SESEQ"^^xsd:string ;
	bd:description "Sequence number given to ensure uniqueness of subject records within a domain. Should be assigned to be consistent chronological order."^^xsd:string ;
	bd:format ""^^xsd:string ;
	bd:ctAndFormat ""^^xsd:string ;
	bd:compliance <http://www.assero.co.uk/CSN#52070084-cdd3-4ba8-8377-f670e4b0276c> ;
	bd:basedOnClassVariable <http://www.cdisc.org/SDTM_MODEL_SE/V6#CL_SESEQ> ;
.
<http://www.cdisc.org/SDTM_IG_SE/V4#IGD_ETCD>
	rdf:type bd:SdtmDomainVariable ;
	isoC:label "Element Code"^^xsd:string ;
	bd:rule ""^^xsd:string ;
	bd:ordinal "5"^^xsd:positiveInteger ;
	bd:name "ETCD"^^xsd:string ;
	bd:description "1. ETCD (the companion to ELEMENT) is limited to 8 characters and does not have special character restrictions. These values should be short for ease of use in programming, but it is not expected that ETCD will need to serve as a variable name. 2. If an encountered Element differs from the planned Element to the point that it is considered a new Element, then use \"UNPLAN\" as the value for ETCD to represent this Element."^^xsd:string ;
	bd:format ""^^xsd:string ;
	bd:ctAndFormat ""^^xsd:string ;
	bd:compliance <http://www.assero.co.uk/CSN#52070084-cdd3-4ba8-8377-f670e4b0276c> ;
	bd:basedOnClassVariable <http://www.cdisc.org/SDTM_MODEL_SE/V6#CL_ETCD> ;
.
<http://www.cdisc.org/SDTM_IG_SE/V4#IGD_ELEMENT>
	rdf:type bd:SdtmDomainVariable ;
	isoC:label "Description of Element"^^xsd:string ;
	bd:rule ""^^xsd:string ;
	bd:ordinal "6"^^xsd:positiveInteger ;
	bd:name "ELEMENT"^^xsd:string ;
	bd:description "The name of the Element. If ETCD has a value of \"UNPLAN\" then ELEMENT should be null."^^xsd:string ;
	bd:format ""^^xsd:string ;
	bd:ctAndFormat ""^^xsd:string ;
	bd:compliance <http://www.assero.co.uk/CSN#f7d9d4e1-a00a-487e-89db-ebece910ba0d> ;
	bd:basedOnClassVariable <http://www.cdisc.org/SDTM_MODEL_SE/V6#CL_ELEMENT> ;
.
<http://www.cdisc.org/SDTM_IG_SE/V4#IGD_TAETORD>
	rdf:type bd:SdtmDomainVariable ;
	isoC:label "Planned Order of Element within Arm"^^xsd:string ;
	bd:rule ""^^xsd:string ;
	bd:ordinal "7"^^xsd:positiveInteger ;
	bd:name "TAETORD"^^xsd:string ;
	bd:description "Number that gives the planned order of the Element within the subject's assigned Arm."^^xsd:string ;
	bd:format ""^^xsd:string ;
	bd:ctAndFormat ""^^xsd:string ;
	bd:compliance <http://www.assero.co.uk/CSN#f7d9d4e1-a00a-487e-89db-ebece910ba0d> ;
	bd:basedOnClassVariable <http://www.cdisc.org/SDTM_MODEL_SE/V6#CL_TAETORD> ;
.
<http://www.cdisc.org/SDTM_IG_SE/V4#IGD_EPOCH>
	rdf:type bd:SdtmDomainVariable ;
	isoC:label "Epoch"^^xsd:string ;
	bd:rule ""^^xsd:string ;
	bd:ordinal "8"^^xsd:positiveInteger ;
	bd:name "EPOCH"^^xsd:string ;
	bd:description "Epoch associated with the Element in the planned sequence of Elements for the Arm to which the subject was assigned."^^xsd:string ;
	bd:format ""^^xsd:string ;
	bd:ctAndFormat "(EPOCH)"^^xsd:string ;
	bd:compliance <http://www.assero.co.uk/CSN#f7d9d4e1-a00a-487e-89db-ebece910ba0d> ;
	bd:ctReference <http://www.cdisc.org/SDTM_IG_SE/V4#IGD_EPOCH_TMC1> ;
	bd:basedOnClassVariable <http://www.cdisc.org/SDTM_MODEL_SE/V6#CL_EPOCH> ;
.
<http://www.cdisc.org/SDTM_IG_SE/V4#IGD_EPOCH_TMC1>
	rdf:type bo:TMcReference ;
	isoC:label "EPOCH"^^xsd:string ;
	bo:enabled "true"^^xsd:boolean ;
	bo:optional "false"^^xsd:boolean ;
	bo:ordinal "1"^^xsd:positiveInteger ;
	bo:reference <http://www.cdisc.org/C99079/V52#C99079> ;
	bo:context <http://www.cdisc.org/CT/V57#TH> ;
.
<http://www.cdisc.org/SDTM_IG_SE/V4#IGD_SESTDTC>
	rdf:type bd:SdtmDomainVariable ;
	isoC:label "Start Date/Time of Element"^^xsd:string ;
	bd:rule ""^^xsd:string ;
	bd:ordinal "9"^^xsd:positiveInteger ;
	bd:name "SESTDTC"^^xsd:string ;
	bd:description "Start date/time for an Element for each subject."^^xsd:string ;
	bd:format "ISO 8601"^^xsd:string ;
	bd:ctAndFormat "ISO 8601"^^xsd:string ;
	bd:compliance <http://www.assero.co.uk/CSN#52070084-cdd3-4ba8-8377-f670e4b0276c> ;
	bd:basedOnClassVariable <http://www.cdisc.org/SDTM_MODEL_SE/V6#CL_SESTDTC> ;
.
<http://www.cdisc.org/SDTM_IG_SE/V4#IGD_SEENDTC>
	rdf:type bd:SdtmDomainVariable ;
	isoC:label "End Date/Time of Element"^^xsd:string ;
	bd:rule ""^^xsd:string ;
	bd:ordinal "10"^^xsd:positiveInteger ;
	bd:name "SEENDTC"^^xsd:string ;
	bd:description "End date/time for an Element for each subject."^^xsd:string ;
	bd:format "ISO 8601"^^xsd:string ;
	bd:ctAndFormat "ISO 8601"^^xsd:string ;
	bd:compliance <http://www.assero.co.uk/CSN#046f6c24-9eaf-4f60-8390-f36328c82ec4> ;
	bd:basedOnClassVariable <http://www.cdisc.org/SDTM_MODEL_SE/V6#CL_SEENDTC> ;
.
<http://www.cdisc.org/SDTM_IG_SE/V4#IGD_SEUPDES>
	rdf:type bd:SdtmDomainVariable ;
	isoC:label "Description of Unplanned Element"^^xsd:string ;
	bd:rule ""^^xsd:string ;
	bd:ordinal "11"^^xsd:positiveInteger ;
	bd:name "SEUPDES"^^xsd:string ;
	bd:description "Description of what happened to the subject during an unplanned Element. Used only if ETCD has the value of \"UNPLAN\"."^^xsd:string ;
	bd:format ""^^xsd:string ;
	bd:ctAndFormat ""^^xsd:string ;
	bd:compliance <http://www.assero.co.uk/CSN#f7d9d4e1-a00a-487e-89db-ebece910ba0d> ;
	bd:basedOnClassVariable <http://www.cdisc.org/SDTM_MODEL_SE/V6#CL_SEUPDES> ;
.
<http://www.cdisc.org/SDTM_IG_SM/V4#IGD>
	rdf:type bd:SdtmDomain ;
	isoC:label "Subject Disease Milestones"^^xsd:string ;
	isoT:hasState <http://www.cdisc.org/SDTM_IG_SM/V4#IGD_RS> ;
	isoT:hasIdentifier <http://www.cdisc.org/SDTM_IG_SM/V4#IGD_SI> ;
	isoT:origin ""^^xsd:string ;
	isoT:changeDescription ""^^xsd:string ;
	isoT:creationDate "2018-11-20T00:00:00+00:00"^^xsd:dateTime ;
	isoT:lastChangeDate "2018-11-20T00:00:00+00:00"^^xsd:dateTime ;
	isoT:explanatoryComment ""^^xsd:string ;
	bd:rule ""^^xsd:string ;
	bd:ordinal "1"^^xsd:positiveInteger ;
	bd:includesColumn <http://www.cdisc.org/SDTM_IG_SM/V4#IGD_STUDYID> ;
	bd:includesColumn <http://www.cdisc.org/SDTM_IG_SM/V4#IGD_DOMAIN> ;
	bd:includesColumn <http://www.cdisc.org/SDTM_IG_SM/V4#IGD_USUBJID> ;
	bd:includesColumn <http://www.cdisc.org/SDTM_IG_SM/V4#IGD_SMSEQ> ;
	bd:includesColumn <http://www.cdisc.org/SDTM_IG_SM/V4#IGD_MIDS> ;
	bd:includesColumn <http://www.cdisc.org/SDTM_IG_SM/V4#IGD_MIDSTYPE> ;
	bd:includesColumn <http://www.cdisc.org/SDTM_IG_SM/V4#IGD_SMSTDTC> ;
	bd:includesColumn <http://www.cdisc.org/SDTM_IG_SM/V4#IGD_SMENDTC> ;
	bd:includesColumn <http://www.cdisc.org/SDTM_IG_SM/V4#IGD_SMSTDY> ;
	bd:includesColumn <http://www.cdisc.org/SDTM_IG_SM/V4#IGD_SMENDY> ;
	bd:prefix "SM"^^xsd:string ;
	bd:structure "One record per Disease Milestone per subject"^^xsd:string ;
	bd:basedOnClass <http://www.cdisc.org/SDTM_MODEL_SM/V6#CL> ;
.
<http://www.cdisc.org/SDTM_IG_SM/V4#IGD_RS>
	rdf:type isoR:RegistrationState ;
	isoR:registrationStatus "Standard"^^xsd:string ;
	isoR:administrativeNote ""^^xsd:string ;
	isoR:effectiveDate "2016-01-01T00:00:00+00:00"^^xsd:dateTime ;
	isoR:untilDate "2016-01-01T00:00:00+00:00"^^xsd:dateTime ;
	isoR:unresolvedIssue ""^^xsd:string ;
	isoR:administrativeStatus ""^^xsd:string ;
	isoR:previousState "Standard"^^xsd:string ;
	isoR:multipleEdit "false"^^xsd:boolean ;
	isoR:byAuthority <http://www.assero.co.uk/RA#DUNS084433759> ;
.
<http://www.cdisc.org/SDTM_IG_SM/V4#IGD_SI>
	rdf:type isoI:ScopedIdentifier ;
	isoI:identifier "SDTM IG SM"^^xsd:string ;
	isoI:versionLabel "2018-11-20 Release"^^xsd:string ;
	isoI:version "4"^^xsd:positiveInteger ;
	isoI:semanticVersion "3.3.0"^^xsd:string ;
	isoI:hasScope <http://www.assero.co.uk/NS#CDISC> ;
.
<http://www.cdisc.org/SDTM_IG_SM/V4#IGD_STUDYID>
	rdf:type bd:SdtmDomainVariable ;
	isoC:label "Study Identifier"^^xsd:string ;
	bd:rule ""^^xsd:string ;
	bd:ordinal "1"^^xsd:positiveInteger ;
	bd:name "STUDYID"^^xsd:string ;
	bd:description "Unique identifier for a study."^^xsd:string ;
	bd:format ""^^xsd:string ;
	bd:ctAndFormat ""^^xsd:string ;
	bd:compliance <http://www.assero.co.uk/CSN#52070084-cdd3-4ba8-8377-f670e4b0276c> ;
	bd:basedOnClassVariable <http://www.cdisc.org/SDTM_MODEL_SM/V6#CL_STUDYID> ;
.
<http://www.cdisc.org/SDTM_IG_SM/V4#IGD_DOMAIN>
	rdf:type bd:SdtmDomainVariable ;
	isoC:label "Domain"^^xsd:string ;
	bd:rule ""^^xsd:string ;
	bd:ordinal "2"^^xsd:positiveInteger ;
	bd:name "DOMAIN"^^xsd:string ;
	bd:description "Two-character abbreviation for the domain."^^xsd:string ;
	bd:format "SM"^^xsd:string ;
	bd:ctAndFormat "SM"^^xsd:string ;
	bd:compliance <http://www.assero.co.uk/CSN#52070084-cdd3-4ba8-8377-f670e4b0276c> ;
	bd:basedOnClassVariable <http://www.cdisc.org/SDTM_MODEL_SM/V6#CL_DOMAIN> ;
.
<http://www.cdisc.org/SDTM_IG_SM/V4#IGD_USUBJID>
	rdf:type bd:SdtmDomainVariable ;
	isoC:label "Unique Subject Identifier"^^xsd:string ;
	bd:rule ""^^xsd:string ;
	bd:ordinal "3"^^xsd:positiveInteger ;
	bd:name "USUBJID"^^xsd:string ;
	bd:description "Identifier used to uniquely identify a subject across all studies."^^xsd:string ;
	bd:format ""^^xsd:string ;
	bd:ctAndFormat ""^^xsd:string ;
	bd:compliance <http://www.assero.co.uk/CSN#52070084-cdd3-4ba8-8377-f670e4b0276c> ;
	bd:basedOnClassVariable <http://www.cdisc.org/SDTM_MODEL_SM/V6#CL_USUBJID> ;
.
<http://www.cdisc.org/SDTM_IG_SM/V4#IGD_SMSEQ>
	rdf:type bd:SdtmDomainVariable ;
	isoC:label "Sequence Number"^^xsd:string ;
	bd:rule ""^^xsd:string ;
	bd:ordinal "4"^^xsd:positiveInteger ;
	bd:name "SMSEQ"^^xsd:string ;
	bd:description "Sequence number to ensure uniqueness of subject records. Should be assigned to be consistent chronological order."^^xsd:string ;
	bd:format ""^^xsd:string ;
	bd:ctAndFormat ""^^xsd:string ;
	bd:compliance <http://www.assero.co.uk/CSN#52070084-cdd3-4ba8-8377-f670e4b0276c> ;
	bd:basedOnClassVariable <http://www.cdisc.org/SDTM_MODEL_SM/V6#CL_SMSEQ> ;
.
<http://www.cdisc.org/SDTM_IG_SM/V4#IGD_MIDS>
	rdf:type bd:SdtmDomainVariable ;
	isoC:label "Disease Milestone Instance Name"^^xsd:string ;
	bd:rule ""^^xsd:string ;
	bd:ordinal "5"^^xsd:positiveInteger ;
	bd:name "MIDS"^^xsd:string ;
	bd:description "Name of the specific Disease Milestone. For types of Disease Milestone that can occur multiple times, the name will end with a sequence number. Example: \"HYPO1\"."^^xsd:string ;
	bd:format ""^^xsd:string ;
	bd:ctAndFormat ""^^xsd:string ;
	bd:compliance <http://www.assero.co.uk/CSN#52070084-cdd3-4ba8-8377-f670e4b0276c> ;
	bd:basedOnClassVariable <http://www.cdisc.org/SDTM_MODEL_SM/V6#CL_MIDS> ;
.
<http://www.cdisc.org/SDTM_IG_SM/V4#IGD_MIDSTYPE>
	rdf:type bd:SdtmDomainVariable ;
	isoC:label "Disease Milestone Type"^^xsd:string ;
	bd:rule ""^^xsd:string ;
	bd:ordinal "6"^^xsd:positiveInteger ;
	bd:name "MIDSTYPE"^^xsd:string ;
	bd:description "The type of Disease Milestone. Example: \"HYPOGLYCEMIC EVENT\"."^^xsd:string ;
	bd:format ""^^xsd:string ;
	bd:ctAndFormat ""^^xsd:string ;
	bd:compliance <http://www.assero.co.uk/CSN#52070084-cdd3-4ba8-8377-f670e4b0276c> ;
	bd:basedOnClassVariable <http://www.cdisc.org/SDTM_MODEL_SM/V6#CL_MIDSTYPE> ;
.
<http://www.cdisc.org/SDTM_IG_SM/V4#IGD_SMSTDTC>
	rdf:type bd:SdtmDomainVariable ;
	isoC:label "Start Date/Time of Milestone"^^xsd:string ;
	bd:rule ""^^xsd:string ;
	bd:ordinal "7"^^xsd:positiveInteger ;
	bd:name "SMSTDTC"^^xsd:string ;
	bd:description "State date/time of Milestone Instance, if Milestone is an intervention or event, or date of Milestone if Milestone is a finding."^^xsd:string ;
	bd:format "ISO 8601"^^xsd:string ;
	bd:ctAndFormat "ISO 8601"^^xsd:string ;
	bd:compliance <http://www.assero.co.uk/CSN#046f6c24-9eaf-4f60-8390-f36328c82ec4> ;
	bd:basedOnClassVariable <http://www.cdisc.org/SDTM_MODEL_SM/V6#CL_SMSTDTC> ;
.
<http://www.cdisc.org/SDTM_IG_SM/V4#IGD_SMENDTC>
	rdf:type bd:SdtmDomainVariable ;
	isoC:label "End Date/Time of Milestone"^^xsd:string ;
	bd:rule ""^^xsd:string ;
	bd:ordinal "8"^^xsd:positiveInteger ;
	bd:name "SMENDTC"^^xsd:string ;
	bd:description "End date/time of Disease Milestone Instance."^^xsd:string ;
	bd:format "ISO 8601"^^xsd:string ;
	bd:ctAndFormat "ISO 8601"^^xsd:string ;
	bd:compliance <http://www.assero.co.uk/CSN#046f6c24-9eaf-4f60-8390-f36328c82ec4> ;
	bd:basedOnClassVariable <http://www.cdisc.org/SDTM_MODEL_SM/V6#CL_SMENDTC> ;
.
<http://www.cdisc.org/SDTM_IG_SM/V4#IGD_SMSTDY>
	rdf:type bd:SdtmDomainVariable ;
	isoC:label "Study Day of Start of Milestone"^^xsd:string ;
	bd:rule ""^^xsd:string ;
	bd:ordinal "9"^^xsd:positiveInteger ;
	bd:name "SMSTDY"^^xsd:string ;
	bd:description "Study day of start of Disease Milestone Instance, relative to the sponsor-defined RFSTDTC."^^xsd:string ;
	bd:format ""^^xsd:string ;
	bd:ctAndFormat ""^^xsd:string ;
	bd:compliance <http://www.assero.co.uk/CSN#046f6c24-9eaf-4f60-8390-f36328c82ec4> ;
	bd:basedOnClassVariable <http://www.cdisc.org/SDTM_MODEL_SM/V6#CL_SMSTDY> ;
.
<http://www.cdisc.org/SDTM_IG_SM/V4#IGD_SMENDY>
	rdf:type bd:SdtmDomainVariable ;
	isoC:label "Study Day of End of Milestone"^^xsd:string ;
	bd:rule ""^^xsd:string ;
	bd:ordinal "10"^^xsd:positiveInteger ;
	bd:name "SMENDY"^^xsd:string ;
	bd:description "Study day of end of Disease Milestone Instance, relative to the sponsor-defined RFSTDTC."^^xsd:string ;
	bd:format ""^^xsd:string ;
	bd:ctAndFormat ""^^xsd:string ;
	bd:compliance <http://www.assero.co.uk/CSN#046f6c24-9eaf-4f60-8390-f36328c82ec4> ;
	bd:basedOnClassVariable <http://www.cdisc.org/SDTM_MODEL_SM/V6#CL_SMENDY> ;
.
<http://www.cdisc.org/SDTM_IG_SV/V4#IGD>
	rdf:type bd:SdtmDomain ;
	isoC:label "Subject Visits"^^xsd:string ;
	isoT:hasState <http://www.cdisc.org/SDTM_IG_SV/V4#IGD_RS> ;
	isoT:hasIdentifier <http://www.cdisc.org/SDTM_IG_SV/V4#IGD_SI> ;
	isoT:hasPreviousVersion <http://www.cdisc.org/SDTM_IG_SV/V3#IGD> ;
	isoT:origin ""^^xsd:string ;
	isoT:changeDescription ""^^xsd:string ;
	isoT:creationDate "2018-11-20T00:00:00+00:00"^^xsd:dateTime ;
	isoT:lastChangeDate "2018-11-20T00:00:00+00:00"^^xsd:dateTime ;
	isoT:explanatoryComment ""^^xsd:string ;
	bd:rule ""^^xsd:string ;
	bd:ordinal "1"^^xsd:positiveInteger ;
	bd:includesColumn <http://www.cdisc.org/SDTM_IG_SV/V1#IGD_STUDYID> ;
	bd:includesColumn <http://www.cdisc.org/SDTM_IG_SV/V4#IGD_DOMAIN> ;
	bd:includesColumn <http://www.cdisc.org/SDTM_IG_SV/V1#IGD_USUBJID> ;
	bd:includesColumn <http://www.cdisc.org/SDTM_IG_SV/V4#IGD_VISITNUM> ;
	bd:includesColumn <http://www.cdisc.org/SDTM_IG_SV/V4#IGD_VISIT> ;
	bd:includesColumn <http://www.cdisc.org/SDTM_IG_SV/V2#IGD_VISITDY> ;
	bd:includesColumn <http://www.cdisc.org/SDTM_IG_SV/V4#IGD_SVSTDTC> ;
	bd:includesColumn <http://www.cdisc.org/SDTM_IG_SV/V4#IGD_SVENDTC> ;
	bd:includesColumn <http://www.cdisc.org/SDTM_IG_SV/V1#IGD_SVSTDY> ;
	bd:includesColumn <http://www.cdisc.org/SDTM_IG_SV/V1#IGD_SVENDY> ;
	bd:includesColumn <http://www.cdisc.org/SDTM_IG_SV/V4#IGD_SVUPDES> ;
	bd:prefix "SV"^^xsd:string ;
	bd:structure "One record per subject per actual visit"^^xsd:string ;
	bd:basedOnClass <http://www.cdisc.org/SDTM_MODEL_SV/V6#CL> ;
.
<http://www.cdisc.org/SDTM_IG_SV/V4#IGD_RS>
	rdf:type isoR:RegistrationState ;
	isoR:registrationStatus "Standard"^^xsd:string ;
	isoR:administrativeNote ""^^xsd:string ;
	isoR:effectiveDate "2016-01-01T00:00:00+00:00"^^xsd:dateTime ;
	isoR:untilDate "2016-01-01T00:00:00+00:00"^^xsd:dateTime ;
	isoR:unresolvedIssue ""^^xsd:string ;
	isoR:administrativeStatus ""^^xsd:string ;
	isoR:previousState "Standard"^^xsd:string ;
	isoR:multipleEdit "false"^^xsd:boolean ;
	isoR:byAuthority <http://www.assero.co.uk/RA#DUNS084433759> ;
.
<http://www.cdisc.org/SDTM_IG_SV/V4#IGD_SI>
	rdf:type isoI:ScopedIdentifier ;
	isoI:identifier "SDTM IG SV"^^xsd:string ;
	isoI:versionLabel "2018-11-20 Release"^^xsd:string ;
	isoI:version "4"^^xsd:positiveInteger ;
	isoI:semanticVersion "3.3.0"^^xsd:string ;
	isoI:hasScope <http://www.assero.co.uk/NS#CDISC> ;
.
<http://www.cdisc.org/SDTM_IG_SV/V4#IGD_DOMAIN>
	rdf:type bd:SdtmDomainVariable ;
	isoC:label "Domain Abbreviation"^^xsd:string ;
	bd:rule ""^^xsd:string ;
	bd:ordinal "2"^^xsd:positiveInteger ;
	bd:name "DOMAIN"^^xsd:string ;
	bd:description "Two-character abbreviation for the domain."^^xsd:string ;
	bd:format "SV"^^xsd:string ;
	bd:ctAndFormat "SV"^^xsd:string ;
	bd:compliance <http://www.assero.co.uk/CSN#52070084-cdd3-4ba8-8377-f670e4b0276c> ;
	bd:basedOnClassVariable <http://www.cdisc.org/SDTM_MODEL_SV/V6#CL_DOMAIN> ;
.
<http://www.cdisc.org/SDTM_IG_SV/V4#IGD_VISITNUM>
	rdf:type bd:SdtmDomainVariable ;
	isoC:label "Visit Number"^^xsd:string ;
	bd:rule ""^^xsd:string ;
	bd:ordinal "4"^^xsd:positiveInteger ;
	bd:name "VISITNUM"^^xsd:string ;
	bd:description "1. Clinical encounter number. (Decimal numbering may be useful for inserting unplanned visits.) 2. Numeric version of VISIT, used for sorting."^^xsd:string ;
	bd:format ""^^xsd:string ;
	bd:ctAndFormat ""^^xsd:string ;
	bd:compliance <http://www.assero.co.uk/CSN#52070084-cdd3-4ba8-8377-f670e4b0276c> ;
	bd:basedOnClassVariable <http://www.cdisc.org/SDTM_MODEL_SV/V6#CL_VISITNUM> ;
.
<http://www.cdisc.org/SDTM_IG_SV/V4#IGD_VISIT>
	rdf:type bd:SdtmDomainVariable ;
	isoC:label "Visit Name"^^xsd:string ;
	bd:rule ""^^xsd:string ;
	bd:ordinal "5"^^xsd:positiveInteger ;
	bd:name "VISIT"^^xsd:string ;
	bd:description "1. Protocol-defined description of clinical encounter. 2. May be used in addition to VISITNUM and/or VISITDY as a text description of the clinical encounter."^^xsd:string ;
	bd:format ""^^xsd:string ;
	bd:ctAndFormat ""^^xsd:string ;
	bd:compliance <http://www.assero.co.uk/CSN#f7d9d4e1-a00a-487e-89db-ebece910ba0d> ;
	bd:basedOnClassVariable <http://www.cdisc.org/SDTM_MODEL_SV/V6#CL_VISIT> ;
.
<http://www.cdisc.org/SDTM_IG_SV/V4#IGD_SVSTDTC>
	rdf:type bd:SdtmDomainVariable ;
	isoC:label "Start Date/Time of Visit"^^xsd:string ;
	bd:rule ""^^xsd:string ;
	bd:ordinal "7"^^xsd:positiveInteger ;
	bd:name "SVSTDTC"^^xsd:string ;
	bd:description "Start date/time for a Visit."^^xsd:string ;
	bd:format "ISO 8601"^^xsd:string ;
	bd:ctAndFormat "ISO 8601"^^xsd:string ;
	bd:compliance <http://www.assero.co.uk/CSN#046f6c24-9eaf-4f60-8390-f36328c82ec4> ;
	bd:basedOnClassVariable <http://www.cdisc.org/SDTM_MODEL_SV/V6#CL_SVSTDTC> ;
.
<http://www.cdisc.org/SDTM_IG_SV/V4#IGD_SVENDTC>
	rdf:type bd:SdtmDomainVariable ;
	isoC:label "End Date/Time of Visit"^^xsd:string ;
	bd:rule ""^^xsd:string ;
	bd:ordinal "8"^^xsd:positiveInteger ;
	bd:name "SVENDTC"^^xsd:string ;
	bd:description "End date/time of a Visit."^^xsd:string ;
	bd:format "ISO 8601"^^xsd:string ;
	bd:ctAndFormat "ISO 8601"^^xsd:string ;
	bd:compliance <http://www.assero.co.uk/CSN#046f6c24-9eaf-4f60-8390-f36328c82ec4> ;
	bd:basedOnClassVariable <http://www.cdisc.org/SDTM_MODEL_SV/V6#CL_SVENDTC> ;
.
<http://www.cdisc.org/SDTM_IG_SV/V4#IGD_SVUPDES>
	rdf:type bd:SdtmDomainVariable ;
	isoC:label "Description of Unplanned Visit"^^xsd:string ;
	bd:rule ""^^xsd:string ;
	bd:ordinal "11"^^xsd:positiveInteger ;
	bd:name "SVUPDES"^^xsd:string ;
	bd:description "Description of what happened to the subject during an unplanned visit."^^xsd:string ;
	bd:format ""^^xsd:string ;
	bd:ctAndFormat ""^^xsd:string ;
	bd:compliance <http://www.assero.co.uk/CSN#f7d9d4e1-a00a-487e-89db-ebece910ba0d> ;
	bd:basedOnClassVariable <http://www.cdisc.org/SDTM_MODEL_SV/V6#CL_SVUPDES> ;
.
<http://www.cdisc.org/SDTM_IG_AG/V4#IGD>
	rdf:type bd:SdtmDomain ;
	isoC:label "Procedure Agents"^^xsd:string ;
	isoT:hasState <http://www.cdisc.org/SDTM_IG_AG/V4#IGD_RS> ;
	isoT:hasIdentifier <http://www.cdisc.org/SDTM_IG_AG/V4#IGD_SI> ;
	isoT:origin ""^^xsd:string ;
	isoT:changeDescription ""^^xsd:string ;
	isoT:creationDate "2018-11-20T00:00:00+00:00"^^xsd:dateTime ;
	isoT:lastChangeDate "2018-11-20T00:00:00+00:00"^^xsd:dateTime ;
	isoT:explanatoryComment ""^^xsd:string ;
	bd:rule ""^^xsd:string ;
	bd:ordinal "1"^^xsd:positiveInteger ;
	bd:includesColumn <http://www.cdisc.org/SDTM_IG_AG/V4#IGD_STUDYID> ;
	bd:includesColumn <http://www.cdisc.org/SDTM_IG_AG/V4#IGD_DOMAIN> ;
	bd:includesColumn <http://www.cdisc.org/SDTM_IG_AG/V4#IGD_USUBJID> ;
	bd:includesColumn <http://www.cdisc.org/SDTM_IG_AG/V4#IGD_AGSEQ> ;
	bd:includesColumn <http://www.cdisc.org/SDTM_IG_AG/V4#IGD_AGGRPID> ;
	bd:includesColumn <http://www.cdisc.org/SDTM_IG_AG/V4#IGD_AGSPID> ;
	bd:includesColumn <http://www.cdisc.org/SDTM_IG_AG/V4#IGD_AGLNKID> ;
	bd:includesColumn <http://www.cdisc.org/SDTM_IG_AG/V4#IGD_AGLNKGRP> ;
	bd:includesColumn <http://www.cdisc.org/SDTM_IG_AG/V4#IGD_AGTRT> ;
	bd:includesColumn <http://www.cdisc.org/SDTM_IG_AG/V4#IGD_AGMODIFY> ;
	bd:includesColumn <http://www.cdisc.org/SDTM_IG_AG/V4#IGD_AGDECOD> ;
	bd:includesColumn <http://www.cdisc.org/SDTM_IG_AG/V4#IGD_AGCAT> ;
	bd:includesColumn <http://www.cdisc.org/SDTM_IG_AG/V4#IGD_AGSCAT> ;
	bd:includesColumn <http://www.cdisc.org/SDTM_IG_AG/V4#IGD_AGPRESP> ;
	bd:includesColumn <http://www.cdisc.org/SDTM_IG_AG/V4#IGD_AGOCCUR> ;
	bd:includesColumn <http://www.cdisc.org/SDTM_IG_AG/V4#IGD_AGSTAT> ;
	bd:includesColumn <http://www.cdisc.org/SDTM_IG_AG/V4#IGD_AGREASND> ;
	bd:includesColumn <http://www.cdisc.org/SDTM_IG_AG/V4#IGD_AGCLAS> ;
	bd:includesColumn <http://www.cdisc.org/SDTM_IG_AG/V4#IGD_AGCLASCD> ;
	bd:includesColumn <http://www.cdisc.org/SDTM_IG_AG/V4#IGD_AGDOSE> ;
	bd:includesColumn <http://www.cdisc.org/SDTM_IG_AG/V4#IGD_AGDOSTXT> ;
	bd:includesColumn <http://www.cdisc.org/SDTM_IG_AG/V4#IGD_AGDOSU> ;
	bd:includesColumn <http://www.cdisc.org/SDTM_IG_AG/V4#IGD_AGDOSFRM> ;
	bd:includesColumn <http://www.cdisc.org/SDTM_IG_AG/V4#IGD_AGDOSFRQ> ;
	bd:includesColumn <http://www.cdisc.org/SDTM_IG_AG/V4#IGD_AGROUTE> ;
	bd:includesColumn <http://www.cdisc.org/SDTM_IG_AG/V4#IGD_VISITNUM> ;
	bd:includesColumn <http://www.cdisc.org/SDTM_IG_AG/V4#IGD_VISIT> ;
	bd:includesColumn <http://www.cdisc.org/SDTM_IG_AG/V4#IGD_VISITDY> ;
	bd:includesColumn <http://www.cdisc.org/SDTM_IG_AG/V4#IGD_TAETORD> ;
	bd:includesColumn <http://www.cdisc.org/SDTM_IG_AG/V4#IGD_EPOCH> ;
	bd:includesColumn <http://www.cdisc.org/SDTM_IG_AG/V4#IGD_AGSTDTC> ;
	bd:includesColumn <http://www.cdisc.org/SDTM_IG_AG/V4#IGD_AGENDTC> ;
	bd:includesColumn <http://www.cdisc.org/SDTM_IG_AG/V4#IGD_AGSTDY> ;
	bd:includesColumn <http://www.cdisc.org/SDTM_IG_AG/V4#IGD_AGENDY> ;
	bd:includesColumn <http://www.cdisc.org/SDTM_IG_AG/V4#IGD_AGDUR> ;
	bd:includesColumn <http://www.cdisc.org/SDTM_IG_AG/V4#IGD_AGSTRF> ;
	bd:includesColumn <http://www.cdisc.org/SDTM_IG_AG/V4#IGD_AGENRF> ;
	bd:includesColumn <http://www.cdisc.org/SDTM_IG_AG/V4#IGD_AGSTRTPT> ;
	bd:includesColumn <http://www.cdisc.org/SDTM_IG_AG/V4#IGD_AGSTTPT> ;
	bd:includesColumn <http://www.cdisc.org/SDTM_IG_AG/V4#IGD_AGENRTPT> ;
	bd:includesColumn <http://www.cdisc.org/SDTM_IG_AG/V4#IGD_AGENTPT> ;
	bd:prefix "AG"^^xsd:string ;
	bd:structure "One record per recorded intervention occurrence per subject"^^xsd:string ;
	bd:basedOnClass <http://www.cdisc.org/SDTM_MODEL_INTERVENTIONS/V6#CL> ;
.
<http://www.cdisc.org/SDTM_IG_AG/V4#IGD_RS>
	rdf:type isoR:RegistrationState ;
	isoR:registrationStatus "Standard"^^xsd:string ;
	isoR:administrativeNote ""^^xsd:string ;
	isoR:effectiveDate "2016-01-01T00:00:00+00:00"^^xsd:dateTime ;
	isoR:untilDate "2016-01-01T00:00:00+00:00"^^xsd:dateTime ;
	isoR:unresolvedIssue ""^^xsd:string ;
	isoR:administrativeStatus ""^^xsd:string ;
	isoR:previousState "Standard"^^xsd:string ;
	isoR:multipleEdit "false"^^xsd:boolean ;
	isoR:byAuthority <http://www.assero.co.uk/RA#DUNS084433759> ;
.
<http://www.cdisc.org/SDTM_IG_AG/V4#IGD_SI>
	rdf:type isoI:ScopedIdentifier ;
	isoI:identifier "SDTM IG AG"^^xsd:string ;
	isoI:versionLabel "2018-11-20 Release"^^xsd:string ;
	isoI:version "4"^^xsd:positiveInteger ;
	isoI:semanticVersion "3.3.0"^^xsd:string ;
	isoI:hasScope <http://www.assero.co.uk/NS#CDISC> ;
.
<http://www.cdisc.org/SDTM_IG_AG/V4#IGD_STUDYID>
	rdf:type bd:SdtmDomainVariable ;
	isoC:label "Study Identifier"^^xsd:string ;
	bd:rule ""^^xsd:string ;
	bd:ordinal "1"^^xsd:positiveInteger ;
	bd:name "STUDYID"^^xsd:string ;
	bd:description "Unique identifier for a study."^^xsd:string ;
	bd:format ""^^xsd:string ;
	bd:ctAndFormat ""^^xsd:string ;
	bd:compliance <http://www.assero.co.uk/CSN#52070084-cdd3-4ba8-8377-f670e4b0276c> ;
	bd:basedOnClassVariable <http://www.cdisc.org/SDTM_MODEL_ALL/V1#CL_STUDYID> ;
.
<http://www.cdisc.org/SDTM_IG_AG/V4#IGD_DOMAIN>
	rdf:type bd:SdtmDomainVariable ;
	isoC:label "Domain Abbreviation"^^xsd:string ;
	bd:rule ""^^xsd:string ;
	bd:ordinal "2"^^xsd:positiveInteger ;
	bd:name "DOMAIN"^^xsd:string ;
	bd:description "Two-character abbreviation for the domain."^^xsd:string ;
	bd:format "AG"^^xsd:string ;
	bd:ctAndFormat "AG"^^xsd:string ;
	bd:compliance <http://www.assero.co.uk/CSN#52070084-cdd3-4ba8-8377-f670e4b0276c> ;
	bd:basedOnClassVariable <http://www.cdisc.org/SDTM_MODEL_ALL/V6#CL_DOMAIN> ;
.
<http://www.cdisc.org/SDTM_IG_AG/V4#IGD_USUBJID>
	rdf:type bd:SdtmDomainVariable ;
	isoC:label "Unique Subject Identifier"^^xsd:string ;
	bd:rule ""^^xsd:string ;
	bd:ordinal "3"^^xsd:positiveInteger ;
	bd:name "USUBJID"^^xsd:string ;
	bd:description "Identifier used to uniquely identify a subject across all studies for all applications or submissions involving the product."^^xsd:string ;
	bd:format ""^^xsd:string ;
	bd:ctAndFormat ""^^xsd:string ;
	bd:compliance <http://www.assero.co.uk/CSN#52070084-cdd3-4ba8-8377-f670e4b0276c> ;
	bd:basedOnClassVariable <http://www.cdisc.org/SDTM_MODEL_ALL/V1#CL_USUBJID> ;
.
<http://www.cdisc.org/SDTM_IG_AG/V4#IGD_AGSEQ>
	rdf:type bd:SdtmDomainVariable ;
	isoC:label "Sequence Number"^^xsd:string ;
	bd:rule ""^^xsd:string ;
	bd:ordinal "4"^^xsd:positiveInteger ;
	bd:name "AGSEQ"^^xsd:string ;
	bd:description "Sequence Number given to ensure uniqueness of subject records within a domain. May be any valid number."^^xsd:string ;
	bd:format ""^^xsd:string ;
	bd:ctAndFormat ""^^xsd:string ;
	bd:compliance <http://www.assero.co.uk/CSN#52070084-cdd3-4ba8-8377-f670e4b0276c> ;
	bd:basedOnClassVariable <http://www.cdisc.org/SDTM_MODEL_ALL/V5#CL_--SEQ> ;
.
<http://www.cdisc.org/SDTM_IG_AG/V4#IGD_AGGRPID>
	rdf:type bd:SdtmDomainVariable ;
	isoC:label "Group ID"^^xsd:string ;
	bd:rule ""^^xsd:string ;
	bd:ordinal "5"^^xsd:positiveInteger ;
	bd:name "AGGRPID"^^xsd:string ;
	bd:description "Used to tie together a block of related records in a single domain for a subject."^^xsd:string ;
	bd:format ""^^xsd:string ;
	bd:ctAndFormat ""^^xsd:string ;
	bd:compliance <http://www.assero.co.uk/CSN#f7d9d4e1-a00a-487e-89db-ebece910ba0d> ;
	bd:basedOnClassVariable <http://www.cdisc.org/SDTM_MODEL_ALL/V6#CL_--GRPID> ;
.
<http://www.cdisc.org/SDTM_IG_AG/V4#IGD_AGSPID>
	rdf:type bd:SdtmDomainVariable ;
	isoC:label "Sponsor-Defined Identifier"^^xsd:string ;
	bd:rule ""^^xsd:string ;
	bd:ordinal "6"^^xsd:positiveInteger ;
	bd:name "AGSPID"^^xsd:string ;
	bd:description "Sponsor-defined reference number. Perhaps pre-printed on the CRF as an explicit line identifier or defined in the sponsor's operational database. Example: Line number from the procedure or test page."^^xsd:string ;
	bd:format ""^^xsd:string ;
	bd:ctAndFormat ""^^xsd:string ;
	bd:compliance <http://www.assero.co.uk/CSN#f7d9d4e1-a00a-487e-89db-ebece910ba0d> ;
	bd:basedOnClassVariable <http://www.cdisc.org/SDTM_MODEL_ALL/V5#CL_--SPID> ;
.
<http://www.cdisc.org/SDTM_IG_AG/V4#IGD_AGLNKID>
	rdf:type bd:SdtmDomainVariable ;
	isoC:label "Link ID"^^xsd:string ;
	bd:rule ""^^xsd:string ;
	bd:ordinal "7"^^xsd:positiveInteger ;
	bd:name "AGLNKID"^^xsd:string ;
	bd:description "Identifier used to link related records across domains.This may be a one-to-one or a one-to-many relationship."^^xsd:string ;
	bd:format ""^^xsd:string ;
	bd:ctAndFormat ""^^xsd:string ;
	bd:compliance <http://www.assero.co.uk/CSN#f7d9d4e1-a00a-487e-89db-ebece910ba0d> ;
	bd:basedOnClassVariable <http://www.cdisc.org/SDTM_MODEL_ALL/V6#CL_--LNKID> ;
.
<http://www.cdisc.org/SDTM_IG_AG/V4#IGD_AGLNKGRP>
	rdf:type bd:SdtmDomainVariable ;
	isoC:label "Link Group ID"^^xsd:string ;
	bd:rule ""^^xsd:string ;
	bd:ordinal "8"^^xsd:positiveInteger ;
	bd:name "AGLNKGRP"^^xsd:string ;
	bd:description "Identifier used to link related records across domains.This will usually be a many-to-one relationship."^^xsd:string ;
	bd:format ""^^xsd:string ;
	bd:ctAndFormat ""^^xsd:string ;
	bd:compliance <http://www.assero.co.uk/CSN#f7d9d4e1-a00a-487e-89db-ebece910ba0d> ;
	bd:basedOnClassVariable <http://www.cdisc.org/SDTM_MODEL_ALL/V6#CL_--LNKGRP> ;
.
<http://www.cdisc.org/SDTM_IG_AG/V4#IGD_AGTRT>
	rdf:type bd:SdtmDomainVariable ;
	isoC:label "Reported Agent Name"^^xsd:string ;
	bd:rule ""^^xsd:string ;
	bd:ordinal "9"^^xsd:positiveInteger ;
	bd:name "AGTRT"^^xsd:string ;
	bd:description "Verbatim medication name that is either pre-printed or collected on a CRF."^^xsd:string ;
	bd:format ""^^xsd:string ;
	bd:ctAndFormat ""^^xsd:string ;
	bd:compliance <http://www.assero.co.uk/CSN#52070084-cdd3-4ba8-8377-f670e4b0276c> ;
	bd:basedOnClassVariable <http://www.cdisc.org/SDTM_MODEL_INTERVENTIONS/V5#CL_--TRT> ;
.
<http://www.cdisc.org/SDTM_IG_AG/V4#IGD_AGMODIFY>
	rdf:type bd:SdtmDomainVariable ;
	isoC:label "Modified Reported Name"^^xsd:string ;
	bd:rule ""^^xsd:string ;
	bd:ordinal "10"^^xsd:positiveInteger ;
	bd:name "AGMODIFY"^^xsd:string ;
	bd:description "If AGTRT is modified to facilitate coding, then AGMODIFY will contain the modified text."^^xsd:string ;
	bd:format ""^^xsd:string ;
	bd:ctAndFormat ""^^xsd:string ;
	bd:compliance <http://www.assero.co.uk/CSN#f7d9d4e1-a00a-487e-89db-ebece910ba0d> ;
	bd:basedOnClassVariable <http://www.cdisc.org/SDTM_MODEL_INTERVENTIONS/V5#CL_--MODIFY> ;
.
<http://www.cdisc.org/SDTM_IG_AG/V4#IGD_AGDECOD>
	rdf:type bd:SdtmDomainVariable ;
	isoC:label "Standardized Agent Name"^^xsd:string ;
	bd:rule ""^^xsd:string ;
	bd:ordinal "11"^^xsd:positiveInteger ;
	bd:name "AGDECOD"^^xsd:string ;
	bd:description "Standardized or dictionary-derived text description of AGTRT or AGMODIFY. Equivalent to the generic medication name in WHO Drug. The sponsor is expected to provide the dictionary name and version used to map the terms utilizing the external codelist element in the Define-XML document. If an intervention term does not have a decode value in the dictionary, then AGDECOD will be left blank."^^xsd:string ;
	bd:format ""^^xsd:string ;
	bd:ctAndFormat ""^^xsd:string ;
	bd:compliance <http://www.assero.co.uk/CSN#f7d9d4e1-a00a-487e-89db-ebece910ba0d> ;
	bd:basedOnClassVariable <http://www.cdisc.org/SDTM_MODEL_INTERVENTIONS/V5#CL_--DECOD> ;
.
<http://www.cdisc.org/SDTM_IG_AG/V4#IGD_AGCAT>
	rdf:type bd:SdtmDomainVariable ;
	isoC:label "Category for Agent"^^xsd:string ;
	bd:rule ""^^xsd:string ;
	bd:ordinal "12"^^xsd:positiveInteger ;
	bd:name "AGCAT"^^xsd:string ;
	bd:description "Used to define a category of agent. Examples: \"CHALLENGE AGENT\", or \"PET TRACER\"."^^xsd:string ;
	bd:format ""^^xsd:string ;
	bd:ctAndFormat ""^^xsd:string ;
	bd:compliance <http://www.assero.co.uk/CSN#f7d9d4e1-a00a-487e-89db-ebece910ba0d> ;
	bd:basedOnClassVariable <http://www.cdisc.org/SDTM_MODEL_INTERVENTIONS/V5#CL_--CAT> ;
	bd:isA <http://www.s-cubed.dk/CAR#a3c686e711e4720f99b4562bb3dbaae7ab658cf2> ;
.
<http://www.cdisc.org/SDTM_IG_AG/V4#IGD_AGSCAT>
	rdf:type bd:SdtmDomainVariable ;
	isoC:label "Subcategory for Agent"^^xsd:string ;
	bd:rule ""^^xsd:string ;
	bd:ordinal "13"^^xsd:positiveInteger ;
	bd:name "AGSCAT"^^xsd:string ;
	bd:description "Further categorization of agent."^^xsd:string ;
	bd:format ""^^xsd:string ;
	bd:ctAndFormat ""^^xsd:string ;
	bd:compliance <http://www.assero.co.uk/CSN#f7d9d4e1-a00a-487e-89db-ebece910ba0d> ;
	bd:basedOnClassVariable <http://www.cdisc.org/SDTM_MODEL_INTERVENTIONS/V5#CL_--SCAT> ;
	bd:isA <http://www.s-cubed.dk/CAR#479a67983e739413da55faf0dc509f83fd5dea64> ;
.
<http://www.cdisc.org/SDTM_IG_AG/V4#IGD_AGPRESP>
	rdf:type bd:SdtmDomainVariable ;
	isoC:label "AG Pre-Specified"^^xsd:string ;
	bd:rule ""^^xsd:string ;
	bd:ordinal "14"^^xsd:positiveInteger ;
	bd:name "AGPRESP"^^xsd:string ;
	bd:description "Used to indicate whether (\"Y\"/null) information about the use of a specific agent was solicited on the CRF."^^xsd:string ;
	bd:format ""^^xsd:string ;
	bd:ctAndFormat "(NY)"^^xsd:string ;
	bd:compliance <http://www.assero.co.uk/CSN#f7d9d4e1-a00a-487e-89db-ebece910ba0d> ;
	bd:ctReference <http://www.cdisc.org/SDTM_IG_AG/V4#IGD_AGPRESP_TMC1> ;
	bd:basedOnClassVariable <http://www.cdisc.org/SDTM_MODEL_INTERVENTIONS/V5#CL_--PRESP> ;
.
<http://www.cdisc.org/SDTM_IG_AG/V4#IGD_AGPRESP_TMC1>
	rdf:type bo:TMcReference ;
	isoC:label "NY"^^xsd:string ;
	bo:enabled "true"^^xsd:boolean ;
	bo:optional "false"^^xsd:boolean ;
	bo:ordinal "1"^^xsd:positiveInteger ;
	bo:reference <http://www.cdisc.org/C66742/V56#C66742> ;
	bo:context <http://www.cdisc.org/CT/V57#TH> ;
.
<http://www.cdisc.org/SDTM_IG_AG/V4#IGD_AGOCCUR>
	rdf:type bd:SdtmDomainVariable ;
	isoC:label "AG Occurrence"^^xsd:string ;
	bd:rule ""^^xsd:string ;
	bd:ordinal "15"^^xsd:positiveInteger ;
	bd:name "AGOCCUR"^^xsd:string ;
	bd:description "When the use of specific agent is solicited, AGOCCUR is used to indicate whether or not (\"Y\"/\"N\") use of the agent occurred. Values are null for agents not specifically solicited."^^xsd:string ;
	bd:format ""^^xsd:string ;
	bd:ctAndFormat "(NY)"^^xsd:string ;
	bd:compliance <http://www.assero.co.uk/CSN#f7d9d4e1-a00a-487e-89db-ebece910ba0d> ;
	bd:ctReference <http://www.cdisc.org/SDTM_IG_AG/V4#IGD_AGOCCUR_TMC1> ;
	bd:basedOnClassVariable <http://www.cdisc.org/SDTM_MODEL_INTERVENTIONS/V6#CL_--OCCUR> ;
.
<http://www.cdisc.org/SDTM_IG_AG/V4#IGD_AGOCCUR_TMC1>
	rdf:type bo:TMcReference ;
	isoC:label "NY"^^xsd:string ;
	bo:enabled "true"^^xsd:boolean ;
	bo:optional "false"^^xsd:boolean ;
	bo:ordinal "1"^^xsd:positiveInteger ;
	bo:reference <http://www.cdisc.org/C66742/V56#C66742> ;
	bo:context <http://www.cdisc.org/CT/V57#TH> ;
.
<http://www.cdisc.org/SDTM_IG_AG/V4#IGD_AGSTAT>
	rdf:type bd:SdtmDomainVariable ;
	isoC:label "Completion Status"^^xsd:string ;
	bd:rule ""^^xsd:string ;
	bd:ordinal "16"^^xsd:positiveInteger ;
	bd:name "AGSTAT"^^xsd:string ;
	bd:description "Used to indicate that a question about a pre-specified agent was not answered. Should be null or have a value of \"NOT DONE\"."^^xsd:string ;
	bd:format ""^^xsd:string ;
	bd:ctAndFormat "(ND)"^^xsd:string ;
	bd:compliance <http://www.assero.co.uk/CSN#f7d9d4e1-a00a-487e-89db-ebece910ba0d> ;
	bd:ctReference <http://www.cdisc.org/SDTM_IG_AG/V4#IGD_AGSTAT_TMC1> ;
	bd:basedOnClassVariable <http://www.cdisc.org/SDTM_MODEL_INTERVENTIONS/V5#CL_--STAT> ;
	bd:isA <http://www.s-cubed.dk/CAR#bae7d5be70820ed56467bd9a63744e23b47bd711> ;
.
<http://www.cdisc.org/SDTM_IG_AG/V4#IGD_AGSTAT_TMC1>
	rdf:type bo:TMcReference ;
	isoC:label "ND"^^xsd:string ;
	bo:enabled "true"^^xsd:boolean ;
	bo:optional "false"^^xsd:boolean ;
	bo:ordinal "1"^^xsd:positiveInteger ;
	bo:reference <http://www.cdisc.org/C66789/V13#C66789> ;
	bo:context <http://www.cdisc.org/CT/V57#TH> ;
.
<http://www.cdisc.org/SDTM_IG_AG/V4#IGD_AGREASND>
	rdf:type bd:SdtmDomainVariable ;
	isoC:label "Reason Procedure Agent Not Collected"^^xsd:string ;
	bd:rule ""^^xsd:string ;
	bd:ordinal "17"^^xsd:positiveInteger ;
	bd:name "AGREASND"^^xsd:string ;
	bd:description "Describes the reason a response to a question about the occurrence of a procedure agent was not collected. Used in conjunction with AGSTAT when value is \"NOT DONE\"."^^xsd:string ;
	bd:format ""^^xsd:string ;
	bd:ctAndFormat ""^^xsd:string ;
	bd:compliance <http://www.assero.co.uk/CSN#f7d9d4e1-a00a-487e-89db-ebece910ba0d> ;
	bd:basedOnClassVariable <http://www.cdisc.org/SDTM_MODEL_INTERVENTIONS/V6#CL_--REASND> ;
.
<http://www.cdisc.org/SDTM_IG_AG/V4#IGD_AGCLAS>
	rdf:type bd:SdtmDomainVariable ;
	isoC:label "Agent Class"^^xsd:string ;
	bd:rule ""^^xsd:string ;
	bd:ordinal "18"^^xsd:positiveInteger ;
	bd:name "AGCLAS"^^xsd:string ;
	bd:description "Drug class. May be obtained from coding. When coding to a single class, populate with class value. If using a dictionary and coding to multiple classes, then follow assumption 4.1.2.8.3 or omit AGCLAS."^^xsd:string ;
	bd:format ""^^xsd:string ;
	bd:ctAndFormat ""^^xsd:string ;
	bd:compliance <http://www.assero.co.uk/CSN#f7d9d4e1-a00a-487e-89db-ebece910ba0d> ;
	bd:basedOnClassVariable <http://www.cdisc.org/SDTM_MODEL_INTERVENTIONS/V5#CL_--CLAS> ;
.
<http://www.cdisc.org/SDTM_IG_AG/V4#IGD_AGCLASCD>
	rdf:type bd:SdtmDomainVariable ;
	isoC:label "Agent Class Code"^^xsd:string ;
	bd:rule ""^^xsd:string ;
	bd:ordinal "19"^^xsd:positiveInteger ;
	bd:name "AGCLASCD"^^xsd:string ;
	bd:description "Class code corresponding to AGCLAS. Drug class. May be obtained from coding. When coding to a single class, populate with class code. If using a dictionary and coding to multiple classes, then follow Assumption 4.1.2.8.3, Multiple Values for a Non-Result Qualifier Variable, or omit AGCLASCD."^^xsd:string ;
	bd:format ""^^xsd:string ;
	bd:ctAndFormat ""^^xsd:string ;
	bd:compliance <http://www.assero.co.uk/CSN#f7d9d4e1-a00a-487e-89db-ebece910ba0d> ;
	bd:basedOnClassVariable <http://www.cdisc.org/SDTM_MODEL_INTERVENTIONS/V5#CL_--CLASCD> ;
.
<http://www.cdisc.org/SDTM_IG_AG/V4#IGD_AGDOSE>
	rdf:type bd:SdtmDomainVariable ;
	isoC:label "Dose per Administration"^^xsd:string ;
	bd:rule ""^^xsd:string ;
	bd:ordinal "20"^^xsd:positiveInteger ;
	bd:name "AGDOSE"^^xsd:string ;
	bd:description "Amount of AGTRT taken."^^xsd:string ;
	bd:format ""^^xsd:string ;
	bd:ctAndFormat ""^^xsd:string ;
	bd:compliance <http://www.assero.co.uk/CSN#f7d9d4e1-a00a-487e-89db-ebece910ba0d> ;
	bd:basedOnClassVariable <http://www.cdisc.org/SDTM_MODEL_INTERVENTIONS/V5#CL_--DOSE> ;
.
<http://www.cdisc.org/SDTM_IG_AG/V4#IGD_AGDOSTXT>
	rdf:type bd:SdtmDomainVariable ;
	isoC:label "Dose Description"^^xsd:string ;
	bd:rule ""^^xsd:string ;
	bd:ordinal "21"^^xsd:positiveInteger ;
	bd:name "AGDOSTXT"^^xsd:string ;
	bd:description "Dosing amounts or a range of dosing information collected in text form. Units may be stored in AGDOSU. Example: \"200-400\", \"15-20\"."^^xsd:string ;
	bd:format ""^^xsd:string ;
	bd:ctAndFormat ""^^xsd:string ;
	bd:compliance <http://www.assero.co.uk/CSN#f7d9d4e1-a00a-487e-89db-ebece910ba0d> ;
	bd:basedOnClassVariable <http://www.cdisc.org/SDTM_MODEL_INTERVENTIONS/V5#CL_--DOSTXT> ;
.
<http://www.cdisc.org/SDTM_IG_AG/V4#IGD_AGDOSU>
	rdf:type bd:SdtmDomainVariable ;
	isoC:label "Dose Units"^^xsd:string ;
	bd:rule ""^^xsd:string ;
	bd:ordinal "22"^^xsd:positiveInteger ;
	bd:name "AGDOSU"^^xsd:string ;
	bd:description "Units for AGDOSE and AGDOSTXT. Examples: \"ng\", \"mg\", or \"mg/kg\"."^^xsd:string ;
	bd:format ""^^xsd:string ;
	bd:ctAndFormat "(UNIT)"^^xsd:string ;
	bd:compliance <http://www.assero.co.uk/CSN#f7d9d4e1-a00a-487e-89db-ebece910ba0d> ;
	bd:ctReference <http://www.cdisc.org/SDTM_IG_AG/V4#IGD_AGDOSU_TMC1> ;
	bd:basedOnClassVariable <http://www.cdisc.org/SDTM_MODEL_INTERVENTIONS/V6#CL_--DOSU> ;
.
<http://www.cdisc.org/SDTM_IG_AG/V4#IGD_AGDOSU_TMC1>
	rdf:type bo:TMcReference ;
	isoC:label "UNIT"^^xsd:string ;
	bo:enabled "true"^^xsd:boolean ;
	bo:optional "false"^^xsd:boolean ;
	bo:ordinal "1"^^xsd:positiveInteger ;
	bo:reference <http://www.cdisc.org/C71620/V57#C71620> ;
	bo:context <http://www.cdisc.org/CT/V57#TH> ;
.
<http://www.cdisc.org/SDTM_IG_AG/V4#IGD_AGDOSFRM>
	rdf:type bd:SdtmDomainVariable ;
	isoC:label "Dose Form"^^xsd:string ;
	bd:rule ""^^xsd:string ;
	bd:ordinal "23"^^xsd:positiveInteger ;
	bd:name "AGDOSFRM"^^xsd:string ;
	bd:description "Dose form for AGTRT. Examples: \"TABLET\", \"AEROSOL\"."^^xsd:string ;
	bd:format ""^^xsd:string ;
	bd:ctAndFormat "(FRM)"^^xsd:string ;
	bd:compliance <http://www.assero.co.uk/CSN#f7d9d4e1-a00a-487e-89db-ebece910ba0d> ;
	bd:ctReference <http://www.cdisc.org/SDTM_IG_AG/V4#IGD_AGDOSFRM_TMC1> ;
	bd:basedOnClassVariable <http://www.cdisc.org/SDTM_MODEL_INTERVENTIONS/V6#CL_--DOSFRM> ;
.
<http://www.cdisc.org/SDTM_IG_AG/V4#IGD_AGDOSFRM_TMC1>
	rdf:type bo:TMcReference ;
	isoC:label "FRM"^^xsd:string ;
	bo:enabled "true"^^xsd:boolean ;
	bo:optional "false"^^xsd:boolean ;
	bo:ordinal "1"^^xsd:positiveInteger ;
	bo:reference <http://www.cdisc.org/C66726/V54#C66726> ;
	bo:context <http://www.cdisc.org/CT/V57#TH> ;
.
<http://www.cdisc.org/SDTM_IG_AG/V4#IGD_AGDOSFRQ>
	rdf:type bd:SdtmDomainVariable ;
	isoC:label "Dosing Frequency per Interval"^^xsd:string ;
	bd:rule ""^^xsd:string ;
	bd:ordinal "24"^^xsd:positiveInteger ;
	bd:name "AGDOSFRQ"^^xsd:string ;
	bd:description "Usually expressed as the number of repeated administrations of AGDOSE within a specific time period. Example: \"ONCE\"."^^xsd:string ;
	bd:format ""^^xsd:string ;
	bd:ctAndFormat "(FREQ)"^^xsd:string ;
	bd:compliance <http://www.assero.co.uk/CSN#f7d9d4e1-a00a-487e-89db-ebece910ba0d> ;
	bd:ctReference <http://www.cdisc.org/SDTM_IG_AG/V4#IGD_AGDOSFRQ_TMC1> ;
	bd:basedOnClassVariable <http://www.cdisc.org/SDTM_MODEL_INTERVENTIONS/V6#CL_--DOSFRQ> ;
.
<http://www.cdisc.org/SDTM_IG_AG/V4#IGD_AGDOSFRQ_TMC1>
	rdf:type bo:TMcReference ;
	isoC:label "FREQ"^^xsd:string ;
	bo:enabled "true"^^xsd:boolean ;
	bo:optional "false"^^xsd:boolean ;
	bo:ordinal "1"^^xsd:positiveInteger ;
	bo:reference <http://www.cdisc.org/C71113/V56#C71113> ;
	bo:context <http://www.cdisc.org/CT/V57#TH> ;
.
<http://www.cdisc.org/SDTM_IG_AG/V4#IGD_AGROUTE>
	rdf:type bd:SdtmDomainVariable ;
	isoC:label "Route of Administration"^^xsd:string ;
	bd:rule ""^^xsd:string ;
	bd:ordinal "25"^^xsd:positiveInteger ;
	bd:name "AGROUTE"^^xsd:string ;
	bd:description "Route of administration for AGTRT. Examples: \"ORAL\"."^^xsd:string ;
	bd:format ""^^xsd:string ;
	bd:ctAndFormat "(ROUTE)"^^xsd:string ;
	bd:compliance <http://www.assero.co.uk/CSN#f7d9d4e1-a00a-487e-89db-ebece910ba0d> ;
	bd:ctReference <http://www.cdisc.org/SDTM_IG_AG/V4#IGD_AGROUTE_TMC1> ;
	bd:basedOnClassVariable <http://www.cdisc.org/SDTM_MODEL_INTERVENTIONS/V6#CL_--ROUTE> ;
.
<http://www.cdisc.org/SDTM_IG_AG/V4#IGD_AGROUTE_TMC1>
	rdf:type bo:TMcReference ;
	isoC:label "ROUTE"^^xsd:string ;
	bo:enabled "true"^^xsd:boolean ;
	bo:optional "false"^^xsd:boolean ;
	bo:ordinal "1"^^xsd:positiveInteger ;
	bo:reference <http://www.cdisc.org/C66738/V49#C66738_C38114> ;
	bo:context <http://www.cdisc.org/CT/V57#TH> ;
.
<http://www.cdisc.org/SDTM_IG_AG/V4#IGD_VISITNUM>
	rdf:type bd:SdtmDomainVariable ;
	isoC:label "Visit Number"^^xsd:string ;
	bd:rule ""^^xsd:string ;
	bd:ordinal "26"^^xsd:positiveInteger ;
	bd:name "VISITNUM"^^xsd:string ;
	bd:description "1. Clinical encounter number. 2. Numeric version of VISIT, used for sorting."^^xsd:string ;
	bd:format ""^^xsd:string ;
	bd:ctAndFormat ""^^xsd:string ;
	bd:compliance <http://www.assero.co.uk/CSN#046f6c24-9eaf-4f60-8390-f36328c82ec4> ;
	bd:basedOnClassVariable <http://www.cdisc.org/SDTM_MODEL_ALL/V5#CL_VISITNUM> ;
.
<http://www.cdisc.org/SDTM_IG_AG/V4#IGD_VISIT>
	rdf:type bd:SdtmDomainVariable ;
	isoC:label "Visit Name"^^xsd:string ;
	bd:rule ""^^xsd:string ;
	bd:ordinal "27"^^xsd:positiveInteger ;
	bd:name "VISIT"^^xsd:string ;
	bd:description "1. Protocol-defined description of clinical encounter. 2. May be used in addition to VISITNUM and/or VISITDY."^^xsd:string ;
	bd:format ""^^xsd:string ;
	bd:ctAndFormat ""^^xsd:string ;
	bd:compliance <http://www.assero.co.uk/CSN#f7d9d4e1-a00a-487e-89db-ebece910ba0d> ;
	bd:basedOnClassVariable <http://www.cdisc.org/SDTM_MODEL_ALL/V5#CL_VISIT> ;
.
<http://www.cdisc.org/SDTM_IG_AG/V4#IGD_VISITDY>
	rdf:type bd:SdtmDomainVariable ;
	isoC:label "Planned Study Day of Visit"^^xsd:string ;
	bd:rule ""^^xsd:string ;
	bd:ordinal "28"^^xsd:positiveInteger ;
	bd:name "VISITDY"^^xsd:string ;
	bd:description "Planned study day of the visit based upon RFSTDTC in Demographics."^^xsd:string ;
	bd:format ""^^xsd:string ;
	bd:ctAndFormat ""^^xsd:string ;
	bd:compliance <http://www.assero.co.uk/CSN#f7d9d4e1-a00a-487e-89db-ebece910ba0d> ;
	bd:basedOnClassVariable <http://www.cdisc.org/SDTM_MODEL_ALL/V5#CL_VISITDY> ;
.
<http://www.cdisc.org/SDTM_IG_AG/V4#IGD_TAETORD>
	rdf:type bd:SdtmDomainVariable ;
	isoC:label "Planned Order of Element within Arm"^^xsd:string ;
	bd:rule ""^^xsd:string ;
	bd:ordinal "29"^^xsd:positiveInteger ;
	bd:name "TAETORD"^^xsd:string ;
	bd:description "Number that gives the planned order of the Element within the Arm for the Element in which the agent administration started."^^xsd:string ;
	bd:format ""^^xsd:string ;
	bd:ctAndFormat ""^^xsd:string ;
	bd:compliance <http://www.assero.co.uk/CSN#f7d9d4e1-a00a-487e-89db-ebece910ba0d> ;
	bd:basedOnClassVariable <http://www.cdisc.org/SDTM_MODEL_ALL/V6#CL_TAETORD> ;
.
<http://www.cdisc.org/SDTM_IG_AG/V4#IGD_EPOCH>
	rdf:type bd:SdtmDomainVariable ;
	isoC:label "Epoch"^^xsd:string ;
	bd:rule ""^^xsd:string ;
	bd:ordinal "30"^^xsd:positiveInteger ;
	bd:name "EPOCH"^^xsd:string ;
	bd:description "Epoch associated with the start date/time of the agent administration started."^^xsd:string ;
	bd:format ""^^xsd:string ;
	bd:ctAndFormat "(EPOCH)"^^xsd:string ;
	bd:compliance <http://www.assero.co.uk/CSN#f7d9d4e1-a00a-487e-89db-ebece910ba0d> ;
	bd:ctReference <http://www.cdisc.org/SDTM_IG_AG/V4#IGD_EPOCH_TMC1> ;
	bd:basedOnClassVariable <http://www.cdisc.org/SDTM_MODEL_ALL/V6#CL_EPOCH> ;
.
<http://www.cdisc.org/SDTM_IG_AG/V4#IGD_EPOCH_TMC1>
	rdf:type bo:TMcReference ;
	isoC:label "EPOCH"^^xsd:string ;
	bo:enabled "true"^^xsd:boolean ;
	bo:optional "false"^^xsd:boolean ;
	bo:ordinal "1"^^xsd:positiveInteger ;
	bo:reference <http://www.cdisc.org/C99079/V52#C99079> ;
	bo:context <http://www.cdisc.org/CT/V57#TH> ;
.
<http://www.cdisc.org/SDTM_IG_AG/V4#IGD_AGSTDTC>
	rdf:type bd:SdtmDomainVariable ;
	isoC:label "Start Date/Time of Agent"^^xsd:string ;
	bd:rule ""^^xsd:string ;
	bd:ordinal "31"^^xsd:positiveInteger ;
	bd:name "AGSTDTC"^^xsd:string ;
	bd:description "The date/time when administration of the treatment indicated by AGTRT and the dosing variables began."^^xsd:string ;
	bd:format "ISO 8601"^^xsd:string ;
	bd:ctAndFormat "ISO 8601"^^xsd:string ;
	bd:compliance <http://www.assero.co.uk/CSN#f7d9d4e1-a00a-487e-89db-ebece910ba0d> ;
	bd:basedOnClassVariable <http://www.cdisc.org/SDTM_MODEL_ALL/V5#CL_--STDTC> ;
	bd:isA <http://www.s-cubed.dk/CAR#83c87956785cde43c109e30fcbd95cca63a18d38> ;
.
<http://www.cdisc.org/SDTM_IG_AG/V4#IGD_AGENDTC>
	rdf:type bd:SdtmDomainVariable ;
	isoC:label "End Date/Time of Agent"^^xsd:string ;
	bd:rule ""^^xsd:string ;
	bd:ordinal "32"^^xsd:positiveInteger ;
	bd:name "AGENDTC"^^xsd:string ;
	bd:description "The date/time when administration of the treatment indicated by AGTRT and the dosing variables ended."^^xsd:string ;
	bd:format "ISO 8601"^^xsd:string ;
	bd:ctAndFormat "ISO 8601"^^xsd:string ;
	bd:compliance <http://www.assero.co.uk/CSN#f7d9d4e1-a00a-487e-89db-ebece910ba0d> ;
	bd:basedOnClassVariable <http://www.cdisc.org/SDTM_MODEL_ALL/V5#CL_--ENDTC> ;
	bd:isA <http://www.s-cubed.dk/CAR#71c54c70967ea84127e4bd588bd627ec0e581dfb> ;
.
<http://www.cdisc.org/SDTM_IG_AG/V4#IGD_AGSTDY>
	rdf:type bd:SdtmDomainVariable ;
	isoC:label "Study Day of Start of Agent"^^xsd:string ;
	bd:rule ""^^xsd:string ;
	bd:ordinal "33"^^xsd:positiveInteger ;
	bd:name "AGSTDY"^^xsd:string ;
	bd:description "Study day of start of agent relative to the sponsor-defined RFSTDTC."^^xsd:string ;
	bd:format ""^^xsd:string ;
	bd:ctAndFormat ""^^xsd:string ;
	bd:compliance <http://www.assero.co.uk/CSN#f7d9d4e1-a00a-487e-89db-ebece910ba0d> ;
	bd:basedOnClassVariable <http://www.cdisc.org/SDTM_MODEL_ALL/V5#CL_--STDY> ;
.
<http://www.cdisc.org/SDTM_IG_AG/V4#IGD_AGENDY>
	rdf:type bd:SdtmDomainVariable ;
	isoC:label "Study Day of End of Agent"^^xsd:string ;
	bd:rule ""^^xsd:string ;
	bd:ordinal "34"^^xsd:positiveInteger ;
	bd:name "AGENDY"^^xsd:string ;
	bd:description "Study day of end of agent relative to the sponsor-defined RFSTDTC."^^xsd:string ;
	bd:format ""^^xsd:string ;
	bd:ctAndFormat ""^^xsd:string ;
	bd:compliance <http://www.assero.co.uk/CSN#f7d9d4e1-a00a-487e-89db-ebece910ba0d> ;
	bd:basedOnClassVariable <http://www.cdisc.org/SDTM_MODEL_ALL/V5#CL_--ENDY> ;
.
<http://www.cdisc.org/SDTM_IG_AG/V4#IGD_AGDUR>
	rdf:type bd:SdtmDomainVariable ;
	isoC:label "Duration of Agent"^^xsd:string ;
	bd:rule ""^^xsd:string ;
	bd:ordinal "35"^^xsd:positiveInteger ;
	bd:name "AGDUR"^^xsd:string ;
	bd:description "Collected duration for an agent episode. Used only if collected on the CRF and not derived from start and end date/times."^^xsd:string ;
	bd:format "ISO 8601"^^xsd:string ;
	bd:ctAndFormat "ISO 8601"^^xsd:string ;
	bd:compliance <http://www.assero.co.uk/CSN#f7d9d4e1-a00a-487e-89db-ebece910ba0d> ;
	bd:basedOnClassVariable <http://www.cdisc.org/SDTM_MODEL_ALL/V5#CL_--DUR> ;
.
<http://www.cdisc.org/SDTM_IG_AG/V4#IGD_AGSTRF>
	rdf:type bd:SdtmDomainVariable ;
	isoC:label "Start Relative to Reference Period"^^xsd:string ;
	bd:rule ""^^xsd:string ;
	bd:ordinal "36"^^xsd:positiveInteger ;
	bd:name "AGSTRF"^^xsd:string ;
	bd:description "Describes the start of the agent relative to sponsor-defined reference period. The sponsor-defined reference period is a continuous period of time defined by a discrete starting point and a discrete ending point (represented by RFSTDTC and RFENDTC in Demographics). If information such as \"PRIOR\", \"ONGOING\", or \"CONTINUING\" was collected, this information may be translated into AGSTRF."^^xsd:string ;
	bd:format ""^^xsd:string ;
	bd:ctAndFormat "(STENRF)"^^xsd:string ;
	bd:compliance <http://www.assero.co.uk/CSN#f7d9d4e1-a00a-487e-89db-ebece910ba0d> ;
	bd:ctReference <http://www.cdisc.org/SDTM_IG_AG/V4#IGD_AGSTRF_TMC1> ;
	bd:basedOnClassVariable <http://www.cdisc.org/SDTM_MODEL_ALL/V5#CL_--STRF> ;
.
<http://www.cdisc.org/SDTM_IG_AG/V4#IGD_AGSTRF_TMC1>
	rdf:type bo:TMcReference ;
	isoC:label "STENRF"^^xsd:string ;
	bo:enabled "true"^^xsd:boolean ;
	bo:optional "false"^^xsd:boolean ;
	bo:ordinal "1"^^xsd:positiveInteger ;
	bo:reference <http://www.cdisc.org/C66728/V56#C66728> ;
	bo:context <http://www.cdisc.org/CT/V57#TH> ;
.
<http://www.cdisc.org/SDTM_IG_AG/V4#IGD_AGENRF>
	rdf:type bd:SdtmDomainVariable ;
	isoC:label "End Relative to Reference Period"^^xsd:string ;
	bd:rule ""^^xsd:string ;
	bd:ordinal "37"^^xsd:positiveInteger ;
	bd:name "AGENRF"^^xsd:string ;
	bd:description "Describes the end of the agent relative to the sponsor-defined reference period. The sponsor-defined reference period is a continuous period of time defined by a discrete starting point and a discrete ending point (represented by RFSTDTC and RFENDTC in Demographics). If information such as \"PRIOR\", \"ONGOING\", or \"CONTINUING\" was collected, this information may be translated into AGENRF."^^xsd:string ;
	bd:format ""^^xsd:string ;
	bd:ctAndFormat "(STENRF)"^^xsd:string ;
	bd:compliance <http://www.assero.co.uk/CSN#f7d9d4e1-a00a-487e-89db-ebece910ba0d> ;
	bd:ctReference <http://www.cdisc.org/SDTM_IG_AG/V4#IGD_AGENRF_TMC1> ;
	bd:basedOnClassVariable <http://www.cdisc.org/SDTM_MODEL_ALL/V5#CL_--ENRF> ;
.
<http://www.cdisc.org/SDTM_IG_AG/V4#IGD_AGENRF_TMC1>
	rdf:type bo:TMcReference ;
	isoC:label "STENRF"^^xsd:string ;
	bo:enabled "true"^^xsd:boolean ;
	bo:optional "false"^^xsd:boolean ;
	bo:ordinal "1"^^xsd:positiveInteger ;
	bo:reference <http://www.cdisc.org/C66728/V56#C66728> ;
	bo:context <http://www.cdisc.org/CT/V57#TH> ;
.
<http://www.cdisc.org/SDTM_IG_AG/V4#IGD_AGSTRTPT>
	rdf:type bd:SdtmDomainVariable ;
	isoC:label "Start Relative to Reference Time Point"^^xsd:string ;
	bd:rule ""^^xsd:string ;
	bd:ordinal "38"^^xsd:positiveInteger ;
	bd:name "AGSTRTPT"^^xsd:string ;
	bd:description "Identifies the start of the agent as being before or after the sponsor-defined reference time point defined by variable AGSTTPT."^^xsd:string ;
	bd:format ""^^xsd:string ;
	bd:ctAndFormat "(STENRF)"^^xsd:string ;
	bd:compliance <http://www.assero.co.uk/CSN#f7d9d4e1-a00a-487e-89db-ebece910ba0d> ;
	bd:ctReference <http://www.cdisc.org/SDTM_IG_AG/V4#IGD_AGSTRTPT_TMC1> ;
	bd:basedOnClassVariable <http://www.cdisc.org/SDTM_MODEL_ALL/V5#CL_--STRTPT> ;
.
<http://www.cdisc.org/SDTM_IG_AG/V4#IGD_AGSTRTPT_TMC1>
	rdf:type bo:TMcReference ;
	isoC:label "STENRF"^^xsd:string ;
	bo:enabled "true"^^xsd:boolean ;
	bo:optional "false"^^xsd:boolean ;
	bo:ordinal "1"^^xsd:positiveInteger ;
	bo:reference <http://www.cdisc.org/C66728/V56#C66728> ;
	bo:context <http://www.cdisc.org/CT/V57#TH> ;
.
<http://www.cdisc.org/SDTM_IG_AG/V4#IGD_AGSTTPT>
	rdf:type bd:SdtmDomainVariable ;
	isoC:label "Start Reference Time Point"^^xsd:string ;
	bd:rule ""^^xsd:string ;
	bd:ordinal "39"^^xsd:positiveInteger ;
	bd:name "AGSTTPT"^^xsd:string ;
	bd:description "Description or date/time in ISO 8601 character format of the reference point referred to by AGSTRTPT. Examples: \"2003-12-15\" or \"VISIT 1\"."^^xsd:string ;
	bd:format ""^^xsd:string ;
	bd:ctAndFormat ""^^xsd:string ;
	bd:compliance <http://www.assero.co.uk/CSN#f7d9d4e1-a00a-487e-89db-ebece910ba0d> ;
	bd:basedOnClassVariable <http://www.cdisc.org/SDTM_MODEL_ALL/V5#CL_--STTPT> ;
.
<http://www.cdisc.org/SDTM_IG_AG/V4#IGD_AGENRTPT>
	rdf:type bd:SdtmDomainVariable ;
	isoC:label "End Relative to Reference Time Point"^^xsd:string ;
	bd:rule ""^^xsd:string ;
	bd:ordinal "40"^^xsd:positiveInteger ;
	bd:name "AGENRTPT"^^xsd:string ;
	bd:description "Identifies the end of the agent as being before or after the reference time point defined by variable AGENTPT. Identifies the end of the agent as being before or after the sponsor-defined reference time point defined by variable AGENTPT."^^xsd:string ;
	bd:format ""^^xsd:string ;
	bd:ctAndFormat "(STENRF)"^^xsd:string ;
	bd:compliance <http://www.assero.co.uk/CSN#f7d9d4e1-a00a-487e-89db-ebece910ba0d> ;
	bd:ctReference <http://www.cdisc.org/SDTM_IG_AG/V4#IGD_AGENRTPT_TMC1> ;
	bd:basedOnClassVariable <http://www.cdisc.org/SDTM_MODEL_ALL/V5#CL_--ENRTPT> ;
.
<http://www.cdisc.org/SDTM_IG_AG/V4#IGD_AGENRTPT_TMC1>
	rdf:type bo:TMcReference ;
	isoC:label "STENRF"^^xsd:string ;
	bo:enabled "true"^^xsd:boolean ;
	bo:optional "false"^^xsd:boolean ;
	bo:ordinal "1"^^xsd:positiveInteger ;
	bo:reference <http://www.cdisc.org/C66728/V56#C66728> ;
	bo:context <http://www.cdisc.org/CT/V57#TH> ;
.
<http://www.cdisc.org/SDTM_IG_AG/V4#IGD_AGENTPT>
	rdf:type bd:SdtmDomainVariable ;
	isoC:label "End Reference Time Point"^^xsd:string ;
	bd:rule ""^^xsd:string ;
	bd:ordinal "41"^^xsd:positiveInteger ;
	bd:name "AGENTPT"^^xsd:string ;
	bd:description "Description or date/time in ISO 8601 character format of the reference point referred to by AGENRTPT. Examples: \"2003-12-25\" or \"VISIT 2\"."^^xsd:string ;
	bd:format ""^^xsd:string ;
	bd:ctAndFormat ""^^xsd:string ;
	bd:compliance <http://www.assero.co.uk/CSN#f7d9d4e1-a00a-487e-89db-ebece910ba0d> ;
	bd:basedOnClassVariable <http://www.cdisc.org/SDTM_MODEL_ALL/V5#CL_--ENTPT> ;
.
<http://www.cdisc.org/SDTM_IG_CM/V4#IGD>
	rdf:type bd:SdtmDomain ;
	isoC:label "Concomitant/Prior Medications"^^xsd:string ;
	isoT:hasState <http://www.cdisc.org/SDTM_IG_CM/V4#IGD_RS> ;
	isoT:hasIdentifier <http://www.cdisc.org/SDTM_IG_CM/V4#IGD_SI> ;
	isoT:hasPreviousVersion <http://www.cdisc.org/SDTM_IG_CM/V3#IGD> ;
	isoT:origin ""^^xsd:string ;
	isoT:changeDescription ""^^xsd:string ;
	isoT:creationDate "2018-11-20T00:00:00+00:00"^^xsd:dateTime ;
	isoT:lastChangeDate "2018-11-20T00:00:00+00:00"^^xsd:dateTime ;
	isoT:explanatoryComment ""^^xsd:string ;
	bd:rule ""^^xsd:string ;
	bd:ordinal "1"^^xsd:positiveInteger ;
	bd:includesColumn <http://www.cdisc.org/SDTM_IG_CM/V1#IGD_STUDYID> ;
	bd:includesColumn <http://www.cdisc.org/SDTM_IG_CM/V4#IGD_DOMAIN> ;
	bd:includesColumn <http://www.cdisc.org/SDTM_IG_CM/V1#IGD_USUBJID> ;
	bd:includesColumn <http://www.cdisc.org/SDTM_IG_CM/V4#IGD_CMSEQ> ;
	bd:includesColumn <http://www.cdisc.org/SDTM_IG_CM/V4#IGD_CMGRPID> ;
	bd:includesColumn <http://www.cdisc.org/SDTM_IG_CM/V4#IGD_CMSPID> ;
	bd:includesColumn <http://www.cdisc.org/SDTM_IG_CM/V4#IGD_CMTRT> ;
	bd:includesColumn <http://www.cdisc.org/SDTM_IG_CM/V4#IGD_CMMODIFY> ;
	bd:includesColumn <http://www.cdisc.org/SDTM_IG_CM/V4#IGD_CMDECOD> ;
	bd:includesColumn <http://www.cdisc.org/SDTM_IG_CM/V4#IGD_CMCAT> ;
	bd:includesColumn <http://www.cdisc.org/SDTM_IG_CM/V4#IGD_CMSCAT> ;
	bd:includesColumn <http://www.cdisc.org/SDTM_IG_CM/V4#IGD_CMPRESP> ;
	bd:includesColumn <http://www.cdisc.org/SDTM_IG_CM/V4#IGD_CMOCCUR> ;
	bd:includesColumn <http://www.cdisc.org/SDTM_IG_CM/V4#IGD_CMSTAT> ;
	bd:includesColumn <http://www.cdisc.org/SDTM_IG_CM/V4#IGD_CMREASND> ;
	bd:includesColumn <http://www.cdisc.org/SDTM_IG_CM/V4#IGD_CMINDC> ;
	bd:includesColumn <http://www.cdisc.org/SDTM_IG_CM/V4#IGD_CMCLAS> ;
	bd:includesColumn <http://www.cdisc.org/SDTM_IG_CM/V4#IGD_CMCLASCD> ;
	bd:includesColumn <http://www.cdisc.org/SDTM_IG_CM/V4#IGD_CMDOSE> ;
	bd:includesColumn <http://www.cdisc.org/SDTM_IG_CM/V4#IGD_CMDOSTXT> ;
	bd:includesColumn <http://www.cdisc.org/SDTM_IG_CM/V4#IGD_CMDOSU> ;
	bd:includesColumn <http://www.cdisc.org/SDTM_IG_CM/V4#IGD_CMDOSFRM> ;
	bd:includesColumn <http://www.cdisc.org/SDTM_IG_CM/V4#IGD_CMDOSFRQ> ;
	bd:includesColumn <http://www.cdisc.org/SDTM_IG_CM/V4#IGD_CMDOSTOT> ;
	bd:includesColumn <http://www.cdisc.org/SDTM_IG_CM/V4#IGD_CMDOSRGM> ;
	bd:includesColumn <http://www.cdisc.org/SDTM_IG_CM/V4#IGD_CMROUTE> ;
	bd:includesColumn <http://www.cdisc.org/SDTM_IG_CM/V4#IGD_CMADJ> ;
	bd:includesColumn <http://www.cdisc.org/SDTM_IG_CM/V4#IGD_CMRSDISC> ;
	bd:includesColumn <http://www.cdisc.org/SDTM_IG_CM/V4#IGD_TAETORD> ;
	bd:includesColumn <http://www.cdisc.org/SDTM_IG_CM/V4#IGD_EPOCH> ;
	bd:includesColumn <http://www.cdisc.org/SDTM_IG_CM/V4#IGD_CMSTDTC> ;
	bd:includesColumn <http://www.cdisc.org/SDTM_IG_CM/V4#IGD_CMENDTC> ;
	bd:includesColumn <http://www.cdisc.org/SDTM_IG_CM/V4#IGD_CMSTDY> ;
	bd:includesColumn <http://www.cdisc.org/SDTM_IG_CM/V4#IGD_CMENDY> ;
	bd:includesColumn <http://www.cdisc.org/SDTM_IG_CM/V4#IGD_CMDUR> ;
	bd:includesColumn <http://www.cdisc.org/SDTM_IG_CM/V4#IGD_CMSTRF> ;
	bd:includesColumn <http://www.cdisc.org/SDTM_IG_CM/V4#IGD_CMENRF> ;
	bd:includesColumn <http://www.cdisc.org/SDTM_IG_CM/V4#IGD_CMSTRTPT> ;
	bd:includesColumn <http://www.cdisc.org/SDTM_IG_CM/V4#IGD_CMSTTPT> ;
	bd:includesColumn <http://www.cdisc.org/SDTM_IG_CM/V4#IGD_CMENRTPT> ;
	bd:includesColumn <http://www.cdisc.org/SDTM_IG_CM/V4#IGD_CMENTPT> ;
	bd:prefix "CM"^^xsd:string ;
	bd:structure "One record per recorded intervention occurrence or constant-dosing interval per subject"^^xsd:string ;
	bd:basedOnClass <http://www.cdisc.org/SDTM_MODEL_INTERVENTIONS/V6#CL> ;
.
<http://www.cdisc.org/SDTM_IG_CM/V4#IGD_RS>
	rdf:type isoR:RegistrationState ;
	isoR:registrationStatus "Standard"^^xsd:string ;
	isoR:administrativeNote ""^^xsd:string ;
	isoR:effectiveDate "2016-01-01T00:00:00+00:00"^^xsd:dateTime ;
	isoR:untilDate "2016-01-01T00:00:00+00:00"^^xsd:dateTime ;
	isoR:unresolvedIssue ""^^xsd:string ;
	isoR:administrativeStatus ""^^xsd:string ;
	isoR:previousState "Standard"^^xsd:string ;
	isoR:multipleEdit "false"^^xsd:boolean ;
	isoR:byAuthority <http://www.assero.co.uk/RA#DUNS084433759> ;
.
<http://www.cdisc.org/SDTM_IG_CM/V4#IGD_SI>
	rdf:type isoI:ScopedIdentifier ;
	isoI:identifier "SDTM IG CM"^^xsd:string ;
	isoI:versionLabel "2018-11-20 Release"^^xsd:string ;
	isoI:version "4"^^xsd:positiveInteger ;
	isoI:semanticVersion "3.3.0"^^xsd:string ;
	isoI:hasScope <http://www.assero.co.uk/NS#CDISC> ;
.
<http://www.cdisc.org/SDTM_IG_CM/V4#IGD_DOMAIN>
	rdf:type bd:SdtmDomainVariable ;
	isoC:label "Domain Abbreviation"^^xsd:string ;
	bd:rule ""^^xsd:string ;
	bd:ordinal "2"^^xsd:positiveInteger ;
	bd:name "DOMAIN"^^xsd:string ;
	bd:description "Two-character abbreviation for the domain."^^xsd:string ;
	bd:format "CM"^^xsd:string ;
	bd:ctAndFormat "CM"^^xsd:string ;
	bd:compliance <http://www.assero.co.uk/CSN#52070084-cdd3-4ba8-8377-f670e4b0276c> ;
	bd:basedOnClassVariable <http://www.cdisc.org/SDTM_MODEL_ALL/V6#CL_DOMAIN> ;
.
<http://www.cdisc.org/SDTM_IG_CM/V4#IGD_CMSEQ>
	rdf:type bd:SdtmDomainVariable ;
	isoC:label "Sequence Number"^^xsd:string ;
	bd:rule ""^^xsd:string ;
	bd:ordinal "4"^^xsd:positiveInteger ;
	bd:name "CMSEQ"^^xsd:string ;
	bd:description "Sequence number to ensure uniqueness of subject records within a domain. May be any valid number."^^xsd:string ;
	bd:format ""^^xsd:string ;
	bd:ctAndFormat ""^^xsd:string ;
	bd:compliance <http://www.assero.co.uk/CSN#52070084-cdd3-4ba8-8377-f670e4b0276c> ;
	bd:basedOnClassVariable <http://www.cdisc.org/SDTM_MODEL_ALL/V5#CL_--SEQ> ;
.
<http://www.cdisc.org/SDTM_IG_CM/V4#IGD_CMGRPID>
	rdf:type bd:SdtmDomainVariable ;
	isoC:label "Group ID"^^xsd:string ;
	bd:rule ""^^xsd:string ;
	bd:ordinal "5"^^xsd:positiveInteger ;
	bd:name "CMGRPID"^^xsd:string ;
	bd:description "Used to tie together a block of related records in a single domain for a subject."^^xsd:string ;
	bd:format ""^^xsd:string ;
	bd:ctAndFormat ""^^xsd:string ;
	bd:compliance <http://www.assero.co.uk/CSN#f7d9d4e1-a00a-487e-89db-ebece910ba0d> ;
	bd:basedOnClassVariable <http://www.cdisc.org/SDTM_MODEL_ALL/V6#CL_--GRPID> ;
.
<http://www.cdisc.org/SDTM_IG_CM/V4#IGD_CMSPID>
	rdf:type bd:SdtmDomainVariable ;
	isoC:label "Sponsor-Defined Identifier"^^xsd:string ;
	bd:rule ""^^xsd:string ;
	bd:ordinal "6"^^xsd:positiveInteger ;
	bd:name "CMSPID"^^xsd:string ;
	bd:description "Sponsor-defined reference number. Example: a number pre-printed on the CRF as an explicit line identifier or record identifier defined in the sponsor's operational database. Example: line number on a concomitant medication page."^^xsd:string ;
	bd:format ""^^xsd:string ;
	bd:ctAndFormat ""^^xsd:string ;
	bd:compliance <http://www.assero.co.uk/CSN#f7d9d4e1-a00a-487e-89db-ebece910ba0d> ;
	bd:basedOnClassVariable <http://www.cdisc.org/SDTM_MODEL_ALL/V5#CL_--SPID> ;
.
<http://www.cdisc.org/SDTM_IG_CM/V4#IGD_CMTRT>
	rdf:type bd:SdtmDomainVariable ;
	isoC:label "Reported Name of Drug, Med, or Therapy"^^xsd:string ;
	bd:rule ""^^xsd:string ;
	bd:ordinal "7"^^xsd:positiveInteger ;
	bd:name "CMTRT"^^xsd:string ;
	bd:description "Verbatim medication name that is either pre-printed or collected on a CRF."^^xsd:string ;
	bd:format ""^^xsd:string ;
	bd:ctAndFormat ""^^xsd:string ;
	bd:compliance <http://www.assero.co.uk/CSN#52070084-cdd3-4ba8-8377-f670e4b0276c> ;
	bd:basedOnClassVariable <http://www.cdisc.org/SDTM_MODEL_INTERVENTIONS/V5#CL_--TRT> ;
.
<http://www.cdisc.org/SDTM_IG_CM/V4#IGD_CMMODIFY>
	rdf:type bd:SdtmDomainVariable ;
	isoC:label "Modified Reported Name"^^xsd:string ;
	bd:rule ""^^xsd:string ;
	bd:ordinal "8"^^xsd:positiveInteger ;
	bd:name "CMMODIFY"^^xsd:string ;
	bd:description "If CMTRT is modified to facilitate coding, then CMMODIFY will contain the modified text."^^xsd:string ;
	bd:format ""^^xsd:string ;
	bd:ctAndFormat ""^^xsd:string ;
	bd:compliance <http://www.assero.co.uk/CSN#f7d9d4e1-a00a-487e-89db-ebece910ba0d> ;
	bd:basedOnClassVariable <http://www.cdisc.org/SDTM_MODEL_INTERVENTIONS/V5#CL_--MODIFY> ;
.
<http://www.cdisc.org/SDTM_IG_CM/V4#IGD_CMDECOD>
	rdf:type bd:SdtmDomainVariable ;
	isoC:label "Standardized Medication Name"^^xsd:string ;
	bd:rule ""^^xsd:string ;
	bd:ordinal "9"^^xsd:positiveInteger ;
	bd:name "CMDECOD"^^xsd:string ;
	bd:description "Standardized or dictionary-derived text description of CMTRT or CMMODIFY. Equivalent to the generic drug name in WHO Drug. The sponsor is expected to provide the dictionary name and version used to map the terms utilizing the external codelist element in the Define-XML document. If an intervention term does not have a decode value in the dictionary, then CMDECOD will be left blank."^^xsd:string ;
	bd:format ""^^xsd:string ;
	bd:ctAndFormat ""^^xsd:string ;
	bd:compliance <http://www.assero.co.uk/CSN#f7d9d4e1-a00a-487e-89db-ebece910ba0d> ;
	bd:basedOnClassVariable <http://www.cdisc.org/SDTM_MODEL_INTERVENTIONS/V5#CL_--DECOD> ;
.
<http://www.cdisc.org/SDTM_IG_CM/V4#IGD_CMCAT>
	rdf:type bd:SdtmDomainVariable ;
	isoC:label "Category for Medication"^^xsd:string ;
	bd:rule ""^^xsd:string ;
	bd:ordinal "10"^^xsd:positiveInteger ;
	bd:name "CMCAT"^^xsd:string ;
	bd:description "Used to define a category of medications/treatment. Examples: \"PRIOR\", \"CONCOMITANT\", \"ANTI-CANCER MEDICATION\", or \"GENERAL CONMED\"."^^xsd:string ;
	bd:format ""^^xsd:string ;
	bd:ctAndFormat ""^^xsd:string ;
	bd:compliance <http://www.assero.co.uk/CSN#f7d9d4e1-a00a-487e-89db-ebece910ba0d> ;
	bd:basedOnClassVariable <http://www.cdisc.org/SDTM_MODEL_INTERVENTIONS/V5#CL_--CAT> ;
	bd:isA <http://www.s-cubed.dk/CAR#a3c686e711e4720f99b4562bb3dbaae7ab658cf2> ;
.
<http://www.cdisc.org/SDTM_IG_CM/V4#IGD_CMSCAT>
	rdf:type bd:SdtmDomainVariable ;
	isoC:label "Subcategory for Medication"^^xsd:string ;
	bd:rule ""^^xsd:string ;
	bd:ordinal "11"^^xsd:positiveInteger ;
	bd:name "CMSCAT"^^xsd:string ;
	bd:description "A further categorization of medications/treatment. Examples: \"CHEMOTHERAPY\", \"HORMONAL THERAPY\", \"ALTERNATIVE THERAPY\"."^^xsd:string ;
	bd:format ""^^xsd:string ;
	bd:ctAndFormat ""^^xsd:string ;
	bd:compliance <http://www.assero.co.uk/CSN#f7d9d4e1-a00a-487e-89db-ebece910ba0d> ;
	bd:basedOnClassVariable <http://www.cdisc.org/SDTM_MODEL_INTERVENTIONS/V5#CL_--SCAT> ;
	bd:isA <http://www.s-cubed.dk/CAR#479a67983e739413da55faf0dc509f83fd5dea64> ;
.
<http://www.cdisc.org/SDTM_IG_CM/V4#IGD_CMPRESP>
	rdf:type bd:SdtmDomainVariable ;
	isoC:label "CM Pre-specified"^^xsd:string ;
	bd:rule ""^^xsd:string ;
	bd:ordinal "12"^^xsd:positiveInteger ;
	bd:name "CMPRESP"^^xsd:string ;
	bd:description "Used to indicate whether (\"Y\"/null) information about the use of a specific medication was solicited on the CRF."^^xsd:string ;
	bd:format ""^^xsd:string ;
	bd:ctAndFormat "(NY)"^^xsd:string ;
	bd:compliance <http://www.assero.co.uk/CSN#f7d9d4e1-a00a-487e-89db-ebece910ba0d> ;
	bd:ctReference <http://www.cdisc.org/SDTM_IG_CM/V4#IGD_CMPRESP_TMC1> ;
	bd:basedOnClassVariable <http://www.cdisc.org/SDTM_MODEL_INTERVENTIONS/V5#CL_--PRESP> ;
.
<http://www.cdisc.org/SDTM_IG_CM/V4#IGD_CMPRESP_TMC1>
	rdf:type bo:TMcReference ;
	isoC:label "NY"^^xsd:string ;
	bo:enabled "true"^^xsd:boolean ;
	bo:optional "false"^^xsd:boolean ;
	bo:ordinal "1"^^xsd:positiveInteger ;
	bo:reference <http://www.cdisc.org/C66742/V56#C66742> ;
	bo:context <http://www.cdisc.org/CT/V57#TH> ;
.
<http://www.cdisc.org/SDTM_IG_CM/V4#IGD_CMOCCUR>
	rdf:type bd:SdtmDomainVariable ;
	isoC:label "CM Occurrence"^^xsd:string ;
	bd:rule ""^^xsd:string ;
	bd:ordinal "13"^^xsd:positiveInteger ;
	bd:name "CMOCCUR"^^xsd:string ;
	bd:description "When the use of a specific medication is solicited. CMOCCUR is used to indicate whether or not (\"Y\"/\"N\") use of the medication occurred. Values are null for medications not specifically solicited."^^xsd:string ;
	bd:format ""^^xsd:string ;
	bd:ctAndFormat "(NY)"^^xsd:string ;
	bd:compliance <http://www.assero.co.uk/CSN#f7d9d4e1-a00a-487e-89db-ebece910ba0d> ;
	bd:ctReference <http://www.cdisc.org/SDTM_IG_CM/V4#IGD_CMOCCUR_TMC1> ;
	bd:basedOnClassVariable <http://www.cdisc.org/SDTM_MODEL_INTERVENTIONS/V6#CL_--OCCUR> ;
.
<http://www.cdisc.org/SDTM_IG_CM/V4#IGD_CMOCCUR_TMC1>
	rdf:type bo:TMcReference ;
	isoC:label "NY"^^xsd:string ;
	bo:enabled "true"^^xsd:boolean ;
	bo:optional "false"^^xsd:boolean ;
	bo:ordinal "1"^^xsd:positiveInteger ;
	bo:reference <http://www.cdisc.org/C66742/V56#C66742> ;
	bo:context <http://www.cdisc.org/CT/V57#TH> ;
.
<http://www.cdisc.org/SDTM_IG_CM/V4#IGD_CMSTAT>
	rdf:type bd:SdtmDomainVariable ;
	isoC:label "Completion Status"^^xsd:string ;
	bd:rule ""^^xsd:string ;
	bd:ordinal "14"^^xsd:positiveInteger ;
	bd:name "CMSTAT"^^xsd:string ;
	bd:description "Used to indicate that a question about the occurrence of a pre-specified intervention was not answered. Should be null or have a value of \"NOT DONE\"."^^xsd:string ;
	bd:format ""^^xsd:string ;
	bd:ctAndFormat "(ND)"^^xsd:string ;
	bd:compliance <http://www.assero.co.uk/CSN#f7d9d4e1-a00a-487e-89db-ebece910ba0d> ;
	bd:ctReference <http://www.cdisc.org/SDTM_IG_CM/V4#IGD_CMSTAT_TMC1> ;
	bd:basedOnClassVariable <http://www.cdisc.org/SDTM_MODEL_INTERVENTIONS/V5#CL_--STAT> ;
	bd:isA <http://www.s-cubed.dk/CAR#bae7d5be70820ed56467bd9a63744e23b47bd711> ;
.
<http://www.cdisc.org/SDTM_IG_CM/V4#IGD_CMSTAT_TMC1>
	rdf:type bo:TMcReference ;
	isoC:label "ND"^^xsd:string ;
	bo:enabled "true"^^xsd:boolean ;
	bo:optional "false"^^xsd:boolean ;
	bo:ordinal "1"^^xsd:positiveInteger ;
	bo:reference <http://www.cdisc.org/C66789/V13#C66789> ;
	bo:context <http://www.cdisc.org/CT/V57#TH> ;
.
<http://www.cdisc.org/SDTM_IG_CM/V4#IGD_CMREASND>
	rdf:type bd:SdtmDomainVariable ;
	isoC:label "Reason Medication Not Collected"^^xsd:string ;
	bd:rule ""^^xsd:string ;
	bd:ordinal "15"^^xsd:positiveInteger ;
	bd:name "CMREASND"^^xsd:string ;
	bd:description "Reason not done. Used in conjunction with CMSTAT when value is \"NOT DONE\"."^^xsd:string ;
	bd:format ""^^xsd:string ;
	bd:ctAndFormat ""^^xsd:string ;
	bd:compliance <http://www.assero.co.uk/CSN#f7d9d4e1-a00a-487e-89db-ebece910ba0d> ;
	bd:basedOnClassVariable <http://www.cdisc.org/SDTM_MODEL_INTERVENTIONS/V6#CL_--REASND> ;
.
<http://www.cdisc.org/SDTM_IG_CM/V4#IGD_CMINDC>
	rdf:type bd:SdtmDomainVariable ;
	isoC:label "Indication"^^xsd:string ;
	bd:rule ""^^xsd:string ;
	bd:ordinal "16"^^xsd:positiveInteger ;
	bd:name "CMINDC"^^xsd:string ;
	bd:description "Denotes why a medication was taken or administered. Examples: \"NAUSEA\", \"HYPERTENSION\"."^^xsd:string ;
	bd:format ""^^xsd:string ;
	bd:ctAndFormat ""^^xsd:string ;
	bd:compliance <http://www.assero.co.uk/CSN#f7d9d4e1-a00a-487e-89db-ebece910ba0d> ;
	bd:basedOnClassVariable <http://www.cdisc.org/SDTM_MODEL_INTERVENTIONS/V5#CL_--INDC> ;
.
<http://www.cdisc.org/SDTM_IG_CM/V4#IGD_CMCLAS>
	rdf:type bd:SdtmDomainVariable ;
	isoC:label "Medication Class"^^xsd:string ;
	bd:rule ""^^xsd:string ;
	bd:ordinal "17"^^xsd:positiveInteger ;
	bd:name "CMCLAS"^^xsd:string ;
	bd:description "Drug class. May be obtained from coding. When coding to a single class, populate with class value. If using a dictionary and coding to multiple classes, then follow Section 4.2.8.3, Multiple Values for a Non-Result Qualifier Variable, or omit CMCLAS."^^xsd:string ;
	bd:format ""^^xsd:string ;
	bd:ctAndFormat ""^^xsd:string ;
	bd:compliance <http://www.assero.co.uk/CSN#f7d9d4e1-a00a-487e-89db-ebece910ba0d> ;
	bd:basedOnClassVariable <http://www.cdisc.org/SDTM_MODEL_INTERVENTIONS/V5#CL_--CLAS> ;
.
<http://www.cdisc.org/SDTM_IG_CM/V4#IGD_CMCLASCD>
	rdf:type bd:SdtmDomainVariable ;
	isoC:label "Medication Class Code"^^xsd:string ;
	bd:rule ""^^xsd:string ;
	bd:ordinal "18"^^xsd:positiveInteger ;
	bd:name "CMCLASCD"^^xsd:string ;
	bd:description "Class code corresponding to CMCLAS. Drug class. May be obtained from coding. When coding to a single class, populate with class code. If using a dictionary and coding to multiple classes, then follow Section 4.2.8.3, Multiple Values for a Non-Result Qualifier Variable, or omit CMCLASCD."^^xsd:string ;
	bd:format ""^^xsd:string ;
	bd:ctAndFormat ""^^xsd:string ;
	bd:compliance <http://www.assero.co.uk/CSN#f7d9d4e1-a00a-487e-89db-ebece910ba0d> ;
	bd:basedOnClassVariable <http://www.cdisc.org/SDTM_MODEL_INTERVENTIONS/V5#CL_--CLASCD> ;
.
<http://www.cdisc.org/SDTM_IG_CM/V4#IGD_CMDOSE>
	rdf:type bd:SdtmDomainVariable ;
	isoC:label "Dose per Administration"^^xsd:string ;
	bd:rule ""^^xsd:string ;
	bd:ordinal "19"^^xsd:positiveInteger ;
	bd:name "CMDOSE"^^xsd:string ;
	bd:description "Amount of CMTRT given. Not populated when CMDOSTXT is populated."^^xsd:string ;
	bd:format ""^^xsd:string ;
	bd:ctAndFormat ""^^xsd:string ;
	bd:compliance <http://www.assero.co.uk/CSN#f7d9d4e1-a00a-487e-89db-ebece910ba0d> ;
	bd:basedOnClassVariable <http://www.cdisc.org/SDTM_MODEL_INTERVENTIONS/V5#CL_--DOSE> ;
.
<http://www.cdisc.org/SDTM_IG_CM/V4#IGD_CMDOSTXT>
	rdf:type bd:SdtmDomainVariable ;
	isoC:label "Dose Description"^^xsd:string ;
	bd:rule ""^^xsd:string ;
	bd:ordinal "20"^^xsd:positiveInteger ;
	bd:name "CMDOSTXT"^^xsd:string ;
	bd:description "Dosing amounts or a range of dosing information collected in text form. Units may be stored in CMDOSU. Examples: \"200-400\", \"15-20\". Not populated when CMDOSE is populated."^^xsd:string ;
	bd:format ""^^xsd:string ;
	bd:ctAndFormat ""^^xsd:string ;
	bd:compliance <http://www.assero.co.uk/CSN#f7d9d4e1-a00a-487e-89db-ebece910ba0d> ;
	bd:basedOnClassVariable <http://www.cdisc.org/SDTM_MODEL_INTERVENTIONS/V5#CL_--DOSTXT> ;
.
<http://www.cdisc.org/SDTM_IG_CM/V4#IGD_CMDOSU>
	rdf:type bd:SdtmDomainVariable ;
	isoC:label "Dose Units"^^xsd:string ;
	bd:rule ""^^xsd:string ;
	bd:ordinal "21"^^xsd:positiveInteger ;
	bd:name "CMDOSU"^^xsd:string ;
	bd:description "Units for CMDOSE, CMDOSTOT, or CMDOSTXT. Examples: \"ng\", \"mg\", or \"mg/kg\"."^^xsd:string ;
	bd:format ""^^xsd:string ;
	bd:ctAndFormat "(UNIT)"^^xsd:string ;
	bd:compliance <http://www.assero.co.uk/CSN#f7d9d4e1-a00a-487e-89db-ebece910ba0d> ;
	bd:ctReference <http://www.cdisc.org/SDTM_IG_CM/V4#IGD_CMDOSU_TMC1> ;
	bd:basedOnClassVariable <http://www.cdisc.org/SDTM_MODEL_INTERVENTIONS/V6#CL_--DOSU> ;
.
<http://www.cdisc.org/SDTM_IG_CM/V4#IGD_CMDOSU_TMC1>
	rdf:type bo:TMcReference ;
	isoC:label "UNIT"^^xsd:string ;
	bo:enabled "true"^^xsd:boolean ;
	bo:optional "false"^^xsd:boolean ;
	bo:ordinal "1"^^xsd:positiveInteger ;
	bo:reference <http://www.cdisc.org/C71620/V57#C71620> ;
	bo:context <http://www.cdisc.org/CT/V57#TH> ;
.
<http://www.cdisc.org/SDTM_IG_CM/V4#IGD_CMDOSFRM>
	rdf:type bd:SdtmDomainVariable ;
	isoC:label "Dose Form"^^xsd:string ;
	bd:rule ""^^xsd:string ;
	bd:ordinal "22"^^xsd:positiveInteger ;
	bd:name "CMDOSFRM"^^xsd:string ;
	bd:description "Dose form for CMTRT. Examples: \"TABLET\", \"LOTION\"."^^xsd:string ;
	bd:format ""^^xsd:string ;
	bd:ctAndFormat "(FRM)"^^xsd:string ;
	bd:compliance <http://www.assero.co.uk/CSN#f7d9d4e1-a00a-487e-89db-ebece910ba0d> ;
	bd:ctReference <http://www.cdisc.org/SDTM_IG_CM/V4#IGD_CMDOSFRM_TMC1> ;
	bd:basedOnClassVariable <http://www.cdisc.org/SDTM_MODEL_INTERVENTIONS/V6#CL_--DOSFRM> ;
.
<http://www.cdisc.org/SDTM_IG_CM/V4#IGD_CMDOSFRM_TMC1>
	rdf:type bo:TMcReference ;
	isoC:label "FRM"^^xsd:string ;
	bo:enabled "true"^^xsd:boolean ;
	bo:optional "false"^^xsd:boolean ;
	bo:ordinal "1"^^xsd:positiveInteger ;
	bo:reference <http://www.cdisc.org/C66726/V54#C66726> ;
	bo:context <http://www.cdisc.org/CT/V57#TH> ;
.
<http://www.cdisc.org/SDTM_IG_CM/V4#IGD_CMDOSFRQ>
	rdf:type bd:SdtmDomainVariable ;
	isoC:label "Dosing Frequency per Interval"^^xsd:string ;
	bd:rule ""^^xsd:string ;
	bd:ordinal "23"^^xsd:positiveInteger ;
	bd:name "CMDOSFRQ"^^xsd:string ;
	bd:description "Usually expressed as the number of repeated administrations of CMDOSE within a specific time period. Examples: \"BID\" (twice daily), \"Q12H\" (every 12 hours)."^^xsd:string ;
	bd:format ""^^xsd:string ;
	bd:ctAndFormat "(FREQ)"^^xsd:string ;
	bd:compliance <http://www.assero.co.uk/CSN#f7d9d4e1-a00a-487e-89db-ebece910ba0d> ;
	bd:ctReference <http://www.cdisc.org/SDTM_IG_CM/V4#IGD_CMDOSFRQ_TMC1> ;
	bd:basedOnClassVariable <http://www.cdisc.org/SDTM_MODEL_INTERVENTIONS/V6#CL_--DOSFRQ> ;
.
<http://www.cdisc.org/SDTM_IG_CM/V4#IGD_CMDOSFRQ_TMC1>
	rdf:type bo:TMcReference ;
	isoC:label "FREQ"^^xsd:string ;
	bo:enabled "true"^^xsd:boolean ;
	bo:optional "false"^^xsd:boolean ;
	bo:ordinal "1"^^xsd:positiveInteger ;
	bo:reference <http://www.cdisc.org/C71113/V56#C71113> ;
	bo:context <http://www.cdisc.org/CT/V57#TH> ;
.
<http://www.cdisc.org/SDTM_IG_CM/V4#IGD_CMDOSTOT>
	rdf:type bd:SdtmDomainVariable ;
	isoC:label "Total Daily Dose"^^xsd:string ;
	bd:rule ""^^xsd:string ;
	bd:ordinal "24"^^xsd:positiveInteger ;
	bd:name "CMDOSTOT"^^xsd:string ;
	bd:description "Total daily dose of CMTRT using the units in CMDOSU. Used when dosing is collected as Total Daily Dose. Total dose over a period other than day could be recorded in a separate Supplemental Qualifier variable."^^xsd:string ;
	bd:format ""^^xsd:string ;
	bd:ctAndFormat ""^^xsd:string ;
	bd:compliance <http://www.assero.co.uk/CSN#f7d9d4e1-a00a-487e-89db-ebece910ba0d> ;
	bd:basedOnClassVariable <http://www.cdisc.org/SDTM_MODEL_INTERVENTIONS/V5#CL_--DOSTOT> ;
.
<http://www.cdisc.org/SDTM_IG_CM/V4#IGD_CMDOSRGM>
	rdf:type bd:SdtmDomainVariable ;
	isoC:label "Intended Dose Regimen"^^xsd:string ;
	bd:rule ""^^xsd:string ;
	bd:ordinal "25"^^xsd:positiveInteger ;
	bd:name "CMDOSRGM"^^xsd:string ;
	bd:description "Text description of the (intended) schedule or regimen for the Intervention. Example: \"TWO WEEKS ON, TWO WEEKS OFF\"."^^xsd:string ;
	bd:format ""^^xsd:string ;
	bd:ctAndFormat ""^^xsd:string ;
	bd:compliance <http://www.assero.co.uk/CSN#f7d9d4e1-a00a-487e-89db-ebece910ba0d> ;
	bd:basedOnClassVariable <http://www.cdisc.org/SDTM_MODEL_INTERVENTIONS/V6#CL_--DOSRGM> ;
.
<http://www.cdisc.org/SDTM_IG_CM/V4#IGD_CMROUTE>
	rdf:type bd:SdtmDomainVariable ;
	isoC:label "Route of Administration"^^xsd:string ;
	bd:rule ""^^xsd:string ;
	bd:ordinal "26"^^xsd:positiveInteger ;
	bd:name "CMROUTE"^^xsd:string ;
	bd:description "Route of administration for the intervention. Examples: \"ORAL\", \"INTRAVENOUS\"."^^xsd:string ;
	bd:format ""^^xsd:string ;
	bd:ctAndFormat "(ROUTE)"^^xsd:string ;
	bd:compliance <http://www.assero.co.uk/CSN#f7d9d4e1-a00a-487e-89db-ebece910ba0d> ;
	bd:ctReference <http://www.cdisc.org/SDTM_IG_CM/V4#IGD_CMROUTE_TMC1> ;
	bd:basedOnClassVariable <http://www.cdisc.org/SDTM_MODEL_INTERVENTIONS/V6#CL_--ROUTE> ;
.
<http://www.cdisc.org/SDTM_IG_CM/V4#IGD_CMROUTE_TMC1>
	rdf:type bo:TMcReference ;
	isoC:label "ROUTE"^^xsd:string ;
	bo:enabled "true"^^xsd:boolean ;
	bo:optional "false"^^xsd:boolean ;
	bo:ordinal "1"^^xsd:positiveInteger ;
	bo:reference <http://www.cdisc.org/C66738/V49#C66738_C38114> ;
	bo:context <http://www.cdisc.org/CT/V57#TH> ;
.
<http://www.cdisc.org/SDTM_IG_CM/V4#IGD_CMADJ>
	rdf:type bd:SdtmDomainVariable ;
	isoC:label "Reason for Dose Adjustment"^^xsd:string ;
	bd:rule ""^^xsd:string ;
	bd:ordinal "27"^^xsd:positiveInteger ;
	bd:name "CMADJ"^^xsd:string ;
	bd:description "Describes reason or explanation of why a dose is adjusted. Examples: \"ADVERSE EVENT\", \"INSUFFICIENT RESPONSE\", \"NON-MEDICAL REASON\"."^^xsd:string ;
	bd:format ""^^xsd:string ;
	bd:ctAndFormat ""^^xsd:string ;
	bd:compliance <http://www.assero.co.uk/CSN#f7d9d4e1-a00a-487e-89db-ebece910ba0d> ;
	bd:basedOnClassVariable <http://www.cdisc.org/SDTM_MODEL_INTERVENTIONS/V6#CL_--ADJ> ;
.
<http://www.cdisc.org/SDTM_IG_CM/V4#IGD_CMRSDISC>
	rdf:type bd:SdtmDomainVariable ;
	isoC:label "Reason the Intervention Was Discontinued"^^xsd:string ;
	bd:rule ""^^xsd:string ;
	bd:ordinal "28"^^xsd:positiveInteger ;
	bd:name "CMRSDISC"^^xsd:string ;
	bd:description "When dosing of a treatment is recorded over multiple successive records, this variable is applicable only for the (chronologically) last record for the treatment."^^xsd:string ;
	bd:format ""^^xsd:string ;
	bd:ctAndFormat ""^^xsd:string ;
	bd:compliance <http://www.assero.co.uk/CSN#f7d9d4e1-a00a-487e-89db-ebece910ba0d> ;
	bd:basedOnClassVariable <http://www.cdisc.org/SDTM_MODEL_INTERVENTIONS/V6#CL_--RSDISC> ;
.
<http://www.cdisc.org/SDTM_IG_CM/V4#IGD_TAETORD>
	rdf:type bd:SdtmDomainVariable ;
	isoC:label "Planned Order of Element within Arm"^^xsd:string ;
	bd:rule ""^^xsd:string ;
	bd:ordinal "29"^^xsd:positiveInteger ;
	bd:name "TAETORD"^^xsd:string ;
	bd:description "Number that gives the planned order of the Element within the Arm for the Element in which the medication administration started. Null for medications that started before study participation."^^xsd:string ;
	bd:format ""^^xsd:string ;
	bd:ctAndFormat ""^^xsd:string ;
	bd:compliance <http://www.assero.co.uk/CSN#f7d9d4e1-a00a-487e-89db-ebece910ba0d> ;
	bd:basedOnClassVariable <http://www.cdisc.org/SDTM_MODEL_ALL/V6#CL_TAETORD> ;
.
<http://www.cdisc.org/SDTM_IG_CM/V4#IGD_EPOCH>
	rdf:type bd:SdtmDomainVariable ;
	isoC:label "Epoch"^^xsd:string ;
	bd:rule ""^^xsd:string ;
	bd:ordinal "30"^^xsd:positiveInteger ;
	bd:name "EPOCH"^^xsd:string ;
	bd:description "Epoch associated with the start date/time of the medication administration. Null for medications that started before study participation."^^xsd:string ;
	bd:format ""^^xsd:string ;
	bd:ctAndFormat "(EPOCH)"^^xsd:string ;
	bd:compliance <http://www.assero.co.uk/CSN#f7d9d4e1-a00a-487e-89db-ebece910ba0d> ;
	bd:ctReference <http://www.cdisc.org/SDTM_IG_CM/V4#IGD_EPOCH_TMC1> ;
	bd:basedOnClassVariable <http://www.cdisc.org/SDTM_MODEL_ALL/V6#CL_EPOCH> ;
.
<http://www.cdisc.org/SDTM_IG_CM/V4#IGD_EPOCH_TMC1>
	rdf:type bo:TMcReference ;
	isoC:label "EPOCH"^^xsd:string ;
	bo:enabled "true"^^xsd:boolean ;
	bo:optional "false"^^xsd:boolean ;
	bo:ordinal "1"^^xsd:positiveInteger ;
	bo:reference <http://www.cdisc.org/C99079/V52#C99079> ;
	bo:context <http://www.cdisc.org/CT/V57#TH> ;
.
<http://www.cdisc.org/SDTM_IG_CM/V4#IGD_CMSTDTC>
	rdf:type bd:SdtmDomainVariable ;
	isoC:label "Start Date/Time of Medication"^^xsd:string ;
	bd:rule ""^^xsd:string ;
	bd:ordinal "31"^^xsd:positiveInteger ;
	bd:name "CMSTDTC"^^xsd:string ;
	bd:description "Start date/time of the medication administration represented in ISO 8601 character format."^^xsd:string ;
	bd:format "ISO 8601"^^xsd:string ;
	bd:ctAndFormat "ISO 8601"^^xsd:string ;
	bd:compliance <http://www.assero.co.uk/CSN#f7d9d4e1-a00a-487e-89db-ebece910ba0d> ;
	bd:basedOnClassVariable <http://www.cdisc.org/SDTM_MODEL_ALL/V5#CL_--STDTC> ;
	bd:isA <http://www.s-cubed.dk/CAR#83c87956785cde43c109e30fcbd95cca63a18d38> ;
.
<http://www.cdisc.org/SDTM_IG_CM/V4#IGD_CMENDTC>
	rdf:type bd:SdtmDomainVariable ;
	isoC:label "End Date/Time of Medication"^^xsd:string ;
	bd:rule ""^^xsd:string ;
	bd:ordinal "32"^^xsd:positiveInteger ;
	bd:name "CMENDTC"^^xsd:string ;
	bd:description "End date/time of the medication administration represented in ISO 8601 character format."^^xsd:string ;
	bd:format "ISO 8601"^^xsd:string ;
	bd:ctAndFormat "ISO 8601"^^xsd:string ;
	bd:compliance <http://www.assero.co.uk/CSN#f7d9d4e1-a00a-487e-89db-ebece910ba0d> ;
	bd:basedOnClassVariable <http://www.cdisc.org/SDTM_MODEL_ALL/V5#CL_--ENDTC> ;
	bd:isA <http://www.s-cubed.dk/CAR#71c54c70967ea84127e4bd588bd627ec0e581dfb> ;
.
<http://www.cdisc.org/SDTM_IG_CM/V4#IGD_CMSTDY>
	rdf:type bd:SdtmDomainVariable ;
	isoC:label "Study Day of Start of Medication"^^xsd:string ;
	bd:rule ""^^xsd:string ;
	bd:ordinal "33"^^xsd:positiveInteger ;
	bd:name "CMSTDY"^^xsd:string ;
	bd:description "Study day of start of medication relative to the sponsor-defined RFSTDTC."^^xsd:string ;
	bd:format ""^^xsd:string ;
	bd:ctAndFormat ""^^xsd:string ;
	bd:compliance <http://www.assero.co.uk/CSN#f7d9d4e1-a00a-487e-89db-ebece910ba0d> ;
	bd:basedOnClassVariable <http://www.cdisc.org/SDTM_MODEL_ALL/V5#CL_--STDY> ;
.
<http://www.cdisc.org/SDTM_IG_CM/V4#IGD_CMENDY>
	rdf:type bd:SdtmDomainVariable ;
	isoC:label "Study Day of End of Medication"^^xsd:string ;
	bd:rule ""^^xsd:string ;
	bd:ordinal "34"^^xsd:positiveInteger ;
	bd:name "CMENDY"^^xsd:string ;
	bd:description "Study day of end of medication relative to the sponsor-defined RFSTDTC."^^xsd:string ;
	bd:format ""^^xsd:string ;
	bd:ctAndFormat ""^^xsd:string ;
	bd:compliance <http://www.assero.co.uk/CSN#f7d9d4e1-a00a-487e-89db-ebece910ba0d> ;
	bd:basedOnClassVariable <http://www.cdisc.org/SDTM_MODEL_ALL/V5#CL_--ENDY> ;
.
<http://www.cdisc.org/SDTM_IG_CM/V4#IGD_CMDUR>
	rdf:type bd:SdtmDomainVariable ;
	isoC:label "Duration"^^xsd:string ;
	bd:rule ""^^xsd:string ;
	bd:ordinal "35"^^xsd:positiveInteger ;
	bd:name "CMDUR"^^xsd:string ;
	bd:description "Collected duration for a treatment episode. Used only if collected on the CRF and not derived from start and end date/times."^^xsd:string ;
	bd:format "ISO 8601"^^xsd:string ;
	bd:ctAndFormat "ISO 8601"^^xsd:string ;
	bd:compliance <http://www.assero.co.uk/CSN#f7d9d4e1-a00a-487e-89db-ebece910ba0d> ;
	bd:basedOnClassVariable <http://www.cdisc.org/SDTM_MODEL_ALL/V5#CL_--DUR> ;
.
<http://www.cdisc.org/SDTM_IG_CM/V4#IGD_CMSTRF>
	rdf:type bd:SdtmDomainVariable ;
	isoC:label "Start Relative to Reference Period"^^xsd:string ;
	bd:rule ""^^xsd:string ;
	bd:ordinal "36"^^xsd:positiveInteger ;
	bd:name "CMSTRF"^^xsd:string ;
	bd:description "Describes the start of the medication relative to sponsor-defined reference period. The sponsor-defined reference period is a continuous period of time defined by a discrete starting point and a discrete ending point (represented by RFSTDTC and RFENDTC in Demographics). If information such as \"PRIOR\" was collected, this information may be translated into CMSTRF. Not all values of the codelist are allowable for this variable. See Section 4.4.7, Use of Relative Timing Variables."^^xsd:string ;
	bd:format ""^^xsd:string ;
	bd:ctAndFormat "(STENRF)"^^xsd:string ;
	bd:compliance <http://www.assero.co.uk/CSN#f7d9d4e1-a00a-487e-89db-ebece910ba0d> ;
	bd:ctReference <http://www.cdisc.org/SDTM_IG_CM/V4#IGD_CMSTRF_TMC1> ;
	bd:basedOnClassVariable <http://www.cdisc.org/SDTM_MODEL_ALL/V5#CL_--STRF> ;
.
<http://www.cdisc.org/SDTM_IG_CM/V4#IGD_CMSTRF_TMC1>
	rdf:type bo:TMcReference ;
	isoC:label "STENRF"^^xsd:string ;
	bo:enabled "true"^^xsd:boolean ;
	bo:optional "false"^^xsd:boolean ;
	bo:ordinal "1"^^xsd:positiveInteger ;
	bo:reference <http://www.cdisc.org/C66728/V56#C66728> ;
	bo:context <http://www.cdisc.org/CT/V57#TH> ;
.
<http://www.cdisc.org/SDTM_IG_CM/V4#IGD_CMENRF>
	rdf:type bd:SdtmDomainVariable ;
	isoC:label "End Relative to Reference Period"^^xsd:string ;
	bd:rule ""^^xsd:string ;
	bd:ordinal "37"^^xsd:positiveInteger ;
	bd:name "CMENRF"^^xsd:string ;
	bd:description "Describes the end of the medication relative to the sponsor-defined reference period. The sponsor-defined reference period is a continuous period of time defined by a discrete starting point and a discrete ending point (represented by RFSTDTC and RFENDTC in Demographics). If information such as \"PRIOR\", \"ONGOING, or \"CONTINUING\" was collected, this information may be translated into CMENRF. Not all values of the codelist are allowable for this variable. See Section 4.4.7, Use of Relative Timing Variables."^^xsd:string ;
	bd:format ""^^xsd:string ;
	bd:ctAndFormat "(STENRF)"^^xsd:string ;
	bd:compliance <http://www.assero.co.uk/CSN#f7d9d4e1-a00a-487e-89db-ebece910ba0d> ;
	bd:ctReference <http://www.cdisc.org/SDTM_IG_CM/V4#IGD_CMENRF_TMC1> ;
	bd:basedOnClassVariable <http://www.cdisc.org/SDTM_MODEL_ALL/V5#CL_--ENRF> ;
.
<http://www.cdisc.org/SDTM_IG_CM/V4#IGD_CMENRF_TMC1>
	rdf:type bo:TMcReference ;
	isoC:label "STENRF"^^xsd:string ;
	bo:enabled "true"^^xsd:boolean ;
	bo:optional "false"^^xsd:boolean ;
	bo:ordinal "1"^^xsd:positiveInteger ;
	bo:reference <http://www.cdisc.org/C66728/V56#C66728> ;
	bo:context <http://www.cdisc.org/CT/V57#TH> ;
.
<http://www.cdisc.org/SDTM_IG_CM/V4#IGD_CMSTRTPT>
	rdf:type bd:SdtmDomainVariable ;
	isoC:label "Start Relative to Reference Time Point"^^xsd:string ;
	bd:rule ""^^xsd:string ;
	bd:ordinal "38"^^xsd:positiveInteger ;
	bd:name "CMSTRTPT"^^xsd:string ;
	bd:description "Identifies the start of the medication as being before or after the sponsor-defined reference time point defined by variable CMSTTPT. Not all values of the codelist are allowable for this variable. See Section 4.4.7, Use of Relative Timing Variables."^^xsd:string ;
	bd:format ""^^xsd:string ;
	bd:ctAndFormat "(STENRF)"^^xsd:string ;
	bd:compliance <http://www.assero.co.uk/CSN#f7d9d4e1-a00a-487e-89db-ebece910ba0d> ;
	bd:ctReference <http://www.cdisc.org/SDTM_IG_CM/V4#IGD_CMSTRTPT_TMC1> ;
	bd:basedOnClassVariable <http://www.cdisc.org/SDTM_MODEL_ALL/V5#CL_--STRTPT> ;
.
<http://www.cdisc.org/SDTM_IG_CM/V4#IGD_CMSTRTPT_TMC1>
	rdf:type bo:TMcReference ;
	isoC:label "STENRF"^^xsd:string ;
	bo:enabled "true"^^xsd:boolean ;
	bo:optional "false"^^xsd:boolean ;
	bo:ordinal "1"^^xsd:positiveInteger ;
	bo:reference <http://www.cdisc.org/C66728/V56#C66728> ;
	bo:context <http://www.cdisc.org/CT/V57#TH> ;
.
<http://www.cdisc.org/SDTM_IG_CM/V4#IGD_CMSTTPT>
	rdf:type bd:SdtmDomainVariable ;
	isoC:label "Start Reference Time Point"^^xsd:string ;
	bd:rule ""^^xsd:string ;
	bd:ordinal "39"^^xsd:positiveInteger ;
	bd:name "CMSTTPT"^^xsd:string ;
	bd:description "Description or date/time in ISO 8601 character format of the sponsor-defined reference point referred to by CMSTRTPT. Examples: \"2003-12-15\" or \"VISIT 1\"."^^xsd:string ;
	bd:format ""^^xsd:string ;
	bd:ctAndFormat ""^^xsd:string ;
	bd:compliance <http://www.assero.co.uk/CSN#f7d9d4e1-a00a-487e-89db-ebece910ba0d> ;
	bd:basedOnClassVariable <http://www.cdisc.org/SDTM_MODEL_ALL/V5#CL_--STTPT> ;
.
<http://www.cdisc.org/SDTM_IG_CM/V4#IGD_CMENRTPT>
	rdf:type bd:SdtmDomainVariable ;
	isoC:label "End Relative to Reference Time Point"^^xsd:string ;
	bd:rule ""^^xsd:string ;
	bd:ordinal "40"^^xsd:positiveInteger ;
	bd:name "CMENRTPT"^^xsd:string ;
	bd:description "Identifies the end of the medication as being before or after the sponsor-defined reference time point defined by variable CMENTPT. Not all values of the codelist are allowable for this variable. See Section 4.4.7, Use of Relative Timing Variables."^^xsd:string ;
	bd:format ""^^xsd:string ;
	bd:ctAndFormat "(STENRF)"^^xsd:string ;
	bd:compliance <http://www.assero.co.uk/CSN#f7d9d4e1-a00a-487e-89db-ebece910ba0d> ;
	bd:ctReference <http://www.cdisc.org/SDTM_IG_CM/V4#IGD_CMENRTPT_TMC1> ;
	bd:basedOnClassVariable <http://www.cdisc.org/SDTM_MODEL_ALL/V5#CL_--ENRTPT> ;
.
<http://www.cdisc.org/SDTM_IG_CM/V4#IGD_CMENRTPT_TMC1>
	rdf:type bo:TMcReference ;
	isoC:label "STENRF"^^xsd:string ;
	bo:enabled "true"^^xsd:boolean ;
	bo:optional "false"^^xsd:boolean ;
	bo:ordinal "1"^^xsd:positiveInteger ;
	bo:reference <http://www.cdisc.org/C66728/V56#C66728> ;
	bo:context <http://www.cdisc.org/CT/V57#TH> ;
.
<http://www.cdisc.org/SDTM_IG_CM/V4#IGD_CMENTPT>
	rdf:type bd:SdtmDomainVariable ;
	isoC:label "End Reference Time Point"^^xsd:string ;
	bd:rule ""^^xsd:string ;
	bd:ordinal "41"^^xsd:positiveInteger ;
	bd:name "CMENTPT"^^xsd:string ;
	bd:description "Description or date/time in ISO 8601 character format of the sponsor-defined reference point referred to by CMENRTPT. Examples: \"2003-12-25\" or \"VISIT 2\"."^^xsd:string ;
	bd:format ""^^xsd:string ;
	bd:ctAndFormat ""^^xsd:string ;
	bd:compliance <http://www.assero.co.uk/CSN#f7d9d4e1-a00a-487e-89db-ebece910ba0d> ;
	bd:basedOnClassVariable <http://www.cdisc.org/SDTM_MODEL_ALL/V5#CL_--ENTPT> ;
.
<http://www.cdisc.org/SDTM_IG_EX/V4#IGD>
	rdf:type bd:SdtmDomain ;
	isoC:label "Exposure"^^xsd:string ;
	isoT:hasState <http://www.cdisc.org/SDTM_IG_EX/V4#IGD_RS> ;
	isoT:hasIdentifier <http://www.cdisc.org/SDTM_IG_EX/V4#IGD_SI> ;
	isoT:hasPreviousVersion <http://www.cdisc.org/SDTM_IG_EX/V3#IGD> ;
	isoT:origin ""^^xsd:string ;
	isoT:changeDescription ""^^xsd:string ;
	isoT:creationDate "2018-11-20T00:00:00+00:00"^^xsd:dateTime ;
	isoT:lastChangeDate "2018-11-20T00:00:00+00:00"^^xsd:dateTime ;
	isoT:explanatoryComment ""^^xsd:string ;
	bd:rule ""^^xsd:string ;
	bd:ordinal "1"^^xsd:positiveInteger ;
	bd:includesColumn <http://www.cdisc.org/SDTM_IG_EX/V1#IGD_STUDYID> ;
	bd:includesColumn <http://www.cdisc.org/SDTM_IG_EX/V4#IGD_DOMAIN> ;
	bd:includesColumn <http://www.cdisc.org/SDTM_IG_EX/V1#IGD_USUBJID> ;
	bd:includesColumn <http://www.cdisc.org/SDTM_IG_EX/V4#IGD_EXSEQ> ;
	bd:includesColumn <http://www.cdisc.org/SDTM_IG_EX/V4#IGD_EXGRPID> ;
	bd:includesColumn <http://www.cdisc.org/SDTM_IG_EX/V4#IGD_EXREFID> ;
	bd:includesColumn <http://www.cdisc.org/SDTM_IG_EX/V4#IGD_EXSPID> ;
	bd:includesColumn <http://www.cdisc.org/SDTM_IG_EX/V4#IGD_EXLNKID> ;
	bd:includesColumn <http://www.cdisc.org/SDTM_IG_EX/V4#IGD_EXLNKGRP> ;
	bd:includesColumn <http://www.cdisc.org/SDTM_IG_EX/V4#IGD_EXTRT> ;
	bd:includesColumn <http://www.cdisc.org/SDTM_IG_EX/V4#IGD_EXCAT> ;
	bd:includesColumn <http://www.cdisc.org/SDTM_IG_EX/V4#IGD_EXSCAT> ;
	bd:includesColumn <http://www.cdisc.org/SDTM_IG_EX/V4#IGD_EXDOSE> ;
	bd:includesColumn <http://www.cdisc.org/SDTM_IG_EX/V4#IGD_EXDOSTXT> ;
	bd:includesColumn <http://www.cdisc.org/SDTM_IG_EX/V4#IGD_EXDOSU> ;
	bd:includesColumn <http://www.cdisc.org/SDTM_IG_EX/V4#IGD_EXDOSFRM> ;
	bd:includesColumn <http://www.cdisc.org/SDTM_IG_EX/V4#IGD_EXDOSFRQ> ;
	bd:includesColumn <http://www.cdisc.org/SDTM_IG_EX/V4#IGD_EXDOSRGM> ;
	bd:includesColumn <http://www.cdisc.org/SDTM_IG_EX/V4#IGD_EXROUTE> ;
	bd:includesColumn <http://www.cdisc.org/SDTM_IG_EX/V4#IGD_EXLOT> ;
	bd:includesColumn <http://www.cdisc.org/SDTM_IG_EX/V4#IGD_EXLOC> ;
	bd:includesColumn <http://www.cdisc.org/SDTM_IG_EX/V4#IGD_EXLAT> ;
	bd:includesColumn <http://www.cdisc.org/SDTM_IG_EX/V4#IGD_EXDIR> ;
	bd:includesColumn <http://www.cdisc.org/SDTM_IG_EX/V4#IGD_EXFAST> ;
	bd:includesColumn <http://www.cdisc.org/SDTM_IG_EX/V4#IGD_EXADJ> ;
	bd:includesColumn <http://www.cdisc.org/SDTM_IG_EX/V4#IGD_TAETORD> ;
	bd:includesColumn <http://www.cdisc.org/SDTM_IG_EX/V4#IGD_EPOCH> ;
	bd:includesColumn <http://www.cdisc.org/SDTM_IG_EX/V4#IGD_EXSTDTC> ;
	bd:includesColumn <http://www.cdisc.org/SDTM_IG_EX/V4#IGD_EXENDTC> ;
	bd:includesColumn <http://www.cdisc.org/SDTM_IG_EX/V4#IGD_EXSTDY> ;
	bd:includesColumn <http://www.cdisc.org/SDTM_IG_EX/V4#IGD_EXENDY> ;
	bd:includesColumn <http://www.cdisc.org/SDTM_IG_EX/V4#IGD_EXDUR> ;
	bd:includesColumn <http://www.cdisc.org/SDTM_IG_EX/V4#IGD_EXTPT> ;
	bd:includesColumn <http://www.cdisc.org/SDTM_IG_EX/V4#IGD_EXTPTNUM> ;
	bd:includesColumn <http://www.cdisc.org/SDTM_IG_EX/V4#IGD_EXELTM> ;
	bd:includesColumn <http://www.cdisc.org/SDTM_IG_EX/V4#IGD_EXTPTREF> ;
	bd:includesColumn <http://www.cdisc.org/SDTM_IG_EX/V4#IGD_EXRFTDTC> ;
	bd:prefix "EX"^^xsd:string ;
	bd:structure "One record per protocol-specified study treatment, constant-dosing interval, per subject"^^xsd:string ;
	bd:basedOnClass <http://www.cdisc.org/SDTM_MODEL_INTERVENTIONS/V6#CL> ;
.
<http://www.cdisc.org/SDTM_IG_EX/V4#IGD_RS>
	rdf:type isoR:RegistrationState ;
	isoR:registrationStatus "Standard"^^xsd:string ;
	isoR:administrativeNote ""^^xsd:string ;
	isoR:effectiveDate "2016-01-01T00:00:00+00:00"^^xsd:dateTime ;
	isoR:untilDate "2016-01-01T00:00:00+00:00"^^xsd:dateTime ;
	isoR:unresolvedIssue ""^^xsd:string ;
	isoR:administrativeStatus ""^^xsd:string ;
	isoR:previousState "Standard"^^xsd:string ;
	isoR:multipleEdit "false"^^xsd:boolean ;
	isoR:byAuthority <http://www.assero.co.uk/RA#DUNS084433759> ;
.
<http://www.cdisc.org/SDTM_IG_EX/V4#IGD_SI>
	rdf:type isoI:ScopedIdentifier ;
	isoI:identifier "SDTM IG EX"^^xsd:string ;
	isoI:versionLabel "2018-11-20 Release"^^xsd:string ;
	isoI:version "4"^^xsd:positiveInteger ;
	isoI:semanticVersion "3.3.0"^^xsd:string ;
	isoI:hasScope <http://www.assero.co.uk/NS#CDISC> ;
.
<http://www.cdisc.org/SDTM_IG_EX/V4#IGD_DOMAIN>
	rdf:type bd:SdtmDomainVariable ;
	isoC:label "Domain Abbreviation"^^xsd:string ;
	bd:rule ""^^xsd:string ;
	bd:ordinal "2"^^xsd:positiveInteger ;
	bd:name "DOMAIN"^^xsd:string ;
	bd:description "Two-character abbreviation for the domain."^^xsd:string ;
	bd:format "EX"^^xsd:string ;
	bd:ctAndFormat "EX"^^xsd:string ;
	bd:compliance <http://www.assero.co.uk/CSN#52070084-cdd3-4ba8-8377-f670e4b0276c> ;
	bd:basedOnClassVariable <http://www.cdisc.org/SDTM_MODEL_ALL/V6#CL_DOMAIN> ;
.
<http://www.cdisc.org/SDTM_IG_EX/V4#IGD_EXSEQ>
	rdf:type bd:SdtmDomainVariable ;
	isoC:label "Sequence Number"^^xsd:string ;
	bd:rule ""^^xsd:string ;
	bd:ordinal "4"^^xsd:positiveInteger ;
	bd:name "EXSEQ"^^xsd:string ;
	bd:description "Sequence Number given to ensure uniqueness of subject records within a domain. May be any valid number."^^xsd:string ;
	bd:format ""^^xsd:string ;
	bd:ctAndFormat ""^^xsd:string ;
	bd:compliance <http://www.assero.co.uk/CSN#52070084-cdd3-4ba8-8377-f670e4b0276c> ;
	bd:basedOnClassVariable <http://www.cdisc.org/SDTM_MODEL_ALL/V5#CL_--SEQ> ;
.
<http://www.cdisc.org/SDTM_IG_EX/V4#IGD_EXGRPID>
	rdf:type bd:SdtmDomainVariable ;
	isoC:label "Group ID"^^xsd:string ;
	bd:rule ""^^xsd:string ;
	bd:ordinal "5"^^xsd:positiveInteger ;
	bd:name "EXGRPID"^^xsd:string ;
	bd:description "Used to tie together a block of related records in a single domain for a subject."^^xsd:string ;
	bd:format ""^^xsd:string ;
	bd:ctAndFormat ""^^xsd:string ;
	bd:compliance <http://www.assero.co.uk/CSN#f7d9d4e1-a00a-487e-89db-ebece910ba0d> ;
	bd:basedOnClassVariable <http://www.cdisc.org/SDTM_MODEL_ALL/V6#CL_--GRPID> ;
.
<http://www.cdisc.org/SDTM_IG_EX/V4#IGD_EXREFID>
	rdf:type bd:SdtmDomainVariable ;
	isoC:label "Reference ID"^^xsd:string ;
	bd:rule ""^^xsd:string ;
	bd:ordinal "6"^^xsd:positiveInteger ;
	bd:name "EXREFID"^^xsd:string ;
	bd:description "Internal or external identifier (e.g., kit number, bottle label, vial identifier)."^^xsd:string ;
	bd:format ""^^xsd:string ;
	bd:ctAndFormat ""^^xsd:string ;
	bd:compliance <http://www.assero.co.uk/CSN#f7d9d4e1-a00a-487e-89db-ebece910ba0d> ;
	bd:basedOnClassVariable <http://www.cdisc.org/SDTM_MODEL_ALL/V5#CL_--REFID> ;
.
<http://www.cdisc.org/SDTM_IG_EX/V4#IGD_EXSPID>
	rdf:type bd:SdtmDomainVariable ;
	isoC:label "Sponsor-Defined Identifier"^^xsd:string ;
	bd:rule ""^^xsd:string ;
	bd:ordinal "7"^^xsd:positiveInteger ;
	bd:name "EXSPID"^^xsd:string ;
	bd:description "Sponsor-defined reference number. Perhaps pre-printed on the CRF as an explicit line identifier or defined in the sponsor's operational database. Example: Line number on a CRF Page."^^xsd:string ;
	bd:format ""^^xsd:string ;
	bd:ctAndFormat ""^^xsd:string ;
	bd:compliance <http://www.assero.co.uk/CSN#f7d9d4e1-a00a-487e-89db-ebece910ba0d> ;
	bd:basedOnClassVariable <http://www.cdisc.org/SDTM_MODEL_ALL/V5#CL_--SPID> ;
.
<http://www.cdisc.org/SDTM_IG_EX/V4#IGD_EXLNKID>
	rdf:type bd:SdtmDomainVariable ;
	isoC:label "Link ID"^^xsd:string ;
	bd:rule ""^^xsd:string ;
	bd:ordinal "8"^^xsd:positiveInteger ;
	bd:name "EXLNKID"^^xsd:string ;
	bd:description "Identifier used to link related records across domains."^^xsd:string ;
	bd:format ""^^xsd:string ;
	bd:ctAndFormat ""^^xsd:string ;
	bd:compliance <http://www.assero.co.uk/CSN#f7d9d4e1-a00a-487e-89db-ebece910ba0d> ;
	bd:basedOnClassVariable <http://www.cdisc.org/SDTM_MODEL_ALL/V6#CL_--LNKID> ;
.
<http://www.cdisc.org/SDTM_IG_EX/V4#IGD_EXLNKGRP>
	rdf:type bd:SdtmDomainVariable ;
	isoC:label "Link Group ID"^^xsd:string ;
	bd:rule ""^^xsd:string ;
	bd:ordinal "9"^^xsd:positiveInteger ;
	bd:name "EXLNKGRP"^^xsd:string ;
	bd:description "Identifier used to link related, grouped records across domains."^^xsd:string ;
	bd:format ""^^xsd:string ;
	bd:ctAndFormat ""^^xsd:string ;
	bd:compliance <http://www.assero.co.uk/CSN#f7d9d4e1-a00a-487e-89db-ebece910ba0d> ;
	bd:basedOnClassVariable <http://www.cdisc.org/SDTM_MODEL_ALL/V6#CL_--LNKGRP> ;
.
<http://www.cdisc.org/SDTM_IG_EX/V4#IGD_EXTRT>
	rdf:type bd:SdtmDomainVariable ;
	isoC:label "Name of Treatment"^^xsd:string ;
	bd:rule ""^^xsd:string ;
	bd:ordinal "10"^^xsd:positiveInteger ;
	bd:name "EXTRT"^^xsd:string ;
	bd:description "Name of the protocol-specified study treatment given during the dosing period for the observation."^^xsd:string ;
	bd:format ""^^xsd:string ;
	bd:ctAndFormat ""^^xsd:string ;
	bd:compliance <http://www.assero.co.uk/CSN#52070084-cdd3-4ba8-8377-f670e4b0276c> ;
	bd:basedOnClassVariable <http://www.cdisc.org/SDTM_MODEL_INTERVENTIONS/V5#CL_--TRT> ;
.
<http://www.cdisc.org/SDTM_IG_EX/V4#IGD_EXCAT>
	rdf:type bd:SdtmDomainVariable ;
	isoC:label "Category of Treatment"^^xsd:string ;
	bd:rule ""^^xsd:string ;
	bd:ordinal "11"^^xsd:positiveInteger ;
	bd:name "EXCAT"^^xsd:string ;
	bd:description "Used to define a category of EXTRT values."^^xsd:string ;
	bd:format ""^^xsd:string ;
	bd:ctAndFormat ""^^xsd:string ;
	bd:compliance <http://www.assero.co.uk/CSN#f7d9d4e1-a00a-487e-89db-ebece910ba0d> ;
	bd:basedOnClassVariable <http://www.cdisc.org/SDTM_MODEL_INTERVENTIONS/V5#CL_--CAT> ;
	bd:isA <http://www.s-cubed.dk/CAR#a3c686e711e4720f99b4562bb3dbaae7ab658cf2> ;
.
<http://www.cdisc.org/SDTM_IG_EX/V4#IGD_EXSCAT>
	rdf:type bd:SdtmDomainVariable ;
	isoC:label "Subcategory of Treatment"^^xsd:string ;
	bd:rule ""^^xsd:string ;
	bd:ordinal "12"^^xsd:positiveInteger ;
	bd:name "EXSCAT"^^xsd:string ;
	bd:description "A further categorization of EXCAT values."^^xsd:string ;
	bd:format ""^^xsd:string ;
	bd:ctAndFormat ""^^xsd:string ;
	bd:compliance <http://www.assero.co.uk/CSN#f7d9d4e1-a00a-487e-89db-ebece910ba0d> ;
	bd:basedOnClassVariable <http://www.cdisc.org/SDTM_MODEL_INTERVENTIONS/V5#CL_--SCAT> ;
	bd:isA <http://www.s-cubed.dk/CAR#479a67983e739413da55faf0dc509f83fd5dea64> ;
.
<http://www.cdisc.org/SDTM_IG_EX/V4#IGD_EXDOSE>
	rdf:type bd:SdtmDomainVariable ;
	isoC:label "Dose"^^xsd:string ;
	bd:rule ""^^xsd:string ;
	bd:ordinal "13"^^xsd:positiveInteger ;
	bd:name "EXDOSE"^^xsd:string ;
	bd:description "Amount of EXTRT when numeric. Not populated when EXDOSTXT is populated."^^xsd:string ;
	bd:format ""^^xsd:string ;
	bd:ctAndFormat ""^^xsd:string ;
	bd:compliance <http://www.assero.co.uk/CSN#046f6c24-9eaf-4f60-8390-f36328c82ec4> ;
	bd:basedOnClassVariable <http://www.cdisc.org/SDTM_MODEL_INTERVENTIONS/V5#CL_--DOSE> ;
.
<http://www.cdisc.org/SDTM_IG_EX/V4#IGD_EXDOSTXT>
	rdf:type bd:SdtmDomainVariable ;
	isoC:label "Dose Description"^^xsd:string ;
	bd:rule ""^^xsd:string ;
	bd:ordinal "14"^^xsd:positiveInteger ;
	bd:name "EXDOSTXT"^^xsd:string ;
	bd:description "Amount of EXTRT when non-numeric. Dosing amounts or a range of dosing information collected in text form. Example: 200-400. Not populated when EXDOSE is populated."^^xsd:string ;
	bd:format ""^^xsd:string ;
	bd:ctAndFormat ""^^xsd:string ;
	bd:compliance <http://www.assero.co.uk/CSN#f7d9d4e1-a00a-487e-89db-ebece910ba0d> ;
	bd:basedOnClassVariable <http://www.cdisc.org/SDTM_MODEL_INTERVENTIONS/V5#CL_--DOSTXT> ;
.
<http://www.cdisc.org/SDTM_IG_EX/V4#IGD_EXDOSU>
	rdf:type bd:SdtmDomainVariable ;
	isoC:label "Dose Units"^^xsd:string ;
	bd:rule ""^^xsd:string ;
	bd:ordinal "15"^^xsd:positiveInteger ;
	bd:name "EXDOSU"^^xsd:string ;
	bd:description "Units for EXDOSE, EXDOSTOT, or EXDOSTXT representing protocol-specified values. Examples: \"ng\", \"mg\", \"mg/kg\", \"mg/m2\"."^^xsd:string ;
	bd:format ""^^xsd:string ;
	bd:ctAndFormat "(UNIT)"^^xsd:string ;
	bd:compliance <http://www.assero.co.uk/CSN#046f6c24-9eaf-4f60-8390-f36328c82ec4> ;
	bd:ctReference <http://www.cdisc.org/SDTM_IG_EX/V4#IGD_EXDOSU_TMC1> ;
	bd:basedOnClassVariable <http://www.cdisc.org/SDTM_MODEL_INTERVENTIONS/V6#CL_--DOSU> ;
.
<http://www.cdisc.org/SDTM_IG_EX/V4#IGD_EXDOSU_TMC1>
	rdf:type bo:TMcReference ;
	isoC:label "UNIT"^^xsd:string ;
	bo:enabled "true"^^xsd:boolean ;
	bo:optional "false"^^xsd:boolean ;
	bo:ordinal "1"^^xsd:positiveInteger ;
	bo:reference <http://www.cdisc.org/C71620/V57#C71620> ;
	bo:context <http://www.cdisc.org/CT/V57#TH> ;
.
<http://www.cdisc.org/SDTM_IG_EX/V4#IGD_EXDOSFRM>
	rdf:type bd:SdtmDomainVariable ;
	isoC:label "Dose Form"^^xsd:string ;
	bd:rule ""^^xsd:string ;
	bd:ordinal "16"^^xsd:positiveInteger ;
	bd:name "EXDOSFRM"^^xsd:string ;
	bd:description "Dose form for EXTRT. Examples: \"TABLET\", \"LOTION\"."^^xsd:string ;
	bd:format ""^^xsd:string ;
	bd:ctAndFormat "(FRM)"^^xsd:string ;
	bd:compliance <http://www.assero.co.uk/CSN#046f6c24-9eaf-4f60-8390-f36328c82ec4> ;
	bd:ctReference <http://www.cdisc.org/SDTM_IG_EX/V4#IGD_EXDOSFRM_TMC1> ;
	bd:basedOnClassVariable <http://www.cdisc.org/SDTM_MODEL_INTERVENTIONS/V6#CL_--DOSFRM> ;
.
<http://www.cdisc.org/SDTM_IG_EX/V4#IGD_EXDOSFRM_TMC1>
	rdf:type bo:TMcReference ;
	isoC:label "FRM"^^xsd:string ;
	bo:enabled "true"^^xsd:boolean ;
	bo:optional "false"^^xsd:boolean ;
	bo:ordinal "1"^^xsd:positiveInteger ;
	bo:reference <http://www.cdisc.org/C66726/V54#C66726> ;
	bo:context <http://www.cdisc.org/CT/V57#TH> ;
.
<http://www.cdisc.org/SDTM_IG_EX/V4#IGD_EXDOSFRQ>
	rdf:type bd:SdtmDomainVariable ;
	isoC:label "Dosing Frequency per Interval"^^xsd:string ;
	bd:rule ""^^xsd:string ;
	bd:ordinal "17"^^xsd:positiveInteger ;
	bd:name "EXDOSFRQ"^^xsd:string ;
	bd:description "Usually expressed as the number of repeated administrations of EXDOSE within a specific time period. Examples: \"Q2H\", \"QD\", \"BID\"."^^xsd:string ;
	bd:format ""^^xsd:string ;
	bd:ctAndFormat "(FREQ)"^^xsd:string ;
	bd:compliance <http://www.assero.co.uk/CSN#f7d9d4e1-a00a-487e-89db-ebece910ba0d> ;
	bd:ctReference <http://www.cdisc.org/SDTM_IG_EX/V4#IGD_EXDOSFRQ_TMC1> ;
	bd:basedOnClassVariable <http://www.cdisc.org/SDTM_MODEL_INTERVENTIONS/V6#CL_--DOSFRQ> ;
.
<http://www.cdisc.org/SDTM_IG_EX/V4#IGD_EXDOSFRQ_TMC1>
	rdf:type bo:TMcReference ;
	isoC:label "FREQ"^^xsd:string ;
	bo:enabled "true"^^xsd:boolean ;
	bo:optional "false"^^xsd:boolean ;
	bo:ordinal "1"^^xsd:positiveInteger ;
	bo:reference <http://www.cdisc.org/C71113/V56#C71113> ;
	bo:context <http://www.cdisc.org/CT/V57#TH> ;
.
<http://www.cdisc.org/SDTM_IG_EX/V4#IGD_EXDOSRGM>
	rdf:type bd:SdtmDomainVariable ;
	isoC:label "Intended Dose Regimen"^^xsd:string ;
	bd:rule ""^^xsd:string ;
	bd:ordinal "18"^^xsd:positiveInteger ;
	bd:name "EXDOSRGM"^^xsd:string ;
	bd:description "Text description of the intended schedule or regimen for the Intervention. Example: \"TWO WEEKS ON, TWO WEEKS OFF\"."^^xsd:string ;
	bd:format ""^^xsd:string ;
	bd:ctAndFormat ""^^xsd:string ;
	bd:compliance <http://www.assero.co.uk/CSN#f7d9d4e1-a00a-487e-89db-ebece910ba0d> ;
	bd:basedOnClassVariable <http://www.cdisc.org/SDTM_MODEL_INTERVENTIONS/V6#CL_--DOSRGM> ;
.
<http://www.cdisc.org/SDTM_IG_EX/V4#IGD_EXROUTE>
	rdf:type bd:SdtmDomainVariable ;
	isoC:label "Route of Administration"^^xsd:string ;
	bd:rule ""^^xsd:string ;
	bd:ordinal "19"^^xsd:positiveInteger ;
	bd:name "EXROUTE"^^xsd:string ;
	bd:description "Route of administration for the intervention. Examples: \"ORAL\", \"INTRAVENOUS\"."^^xsd:string ;
	bd:format ""^^xsd:string ;
	bd:ctAndFormat "(ROUTE)"^^xsd:string ;
	bd:compliance <http://www.assero.co.uk/CSN#f7d9d4e1-a00a-487e-89db-ebece910ba0d> ;
	bd:ctReference <http://www.cdisc.org/SDTM_IG_EX/V4#IGD_EXROUTE_TMC1> ;
	bd:basedOnClassVariable <http://www.cdisc.org/SDTM_MODEL_INTERVENTIONS/V6#CL_--ROUTE> ;
.
<http://www.cdisc.org/SDTM_IG_EX/V4#IGD_EXROUTE_TMC1>
	rdf:type bo:TMcReference ;
	isoC:label "ROUTE"^^xsd:string ;
	bo:enabled "true"^^xsd:boolean ;
	bo:optional "false"^^xsd:boolean ;
	bo:ordinal "1"^^xsd:positiveInteger ;
	bo:reference <http://www.cdisc.org/C66738/V49#C66738_C38114> ;
	bo:context <http://www.cdisc.org/CT/V57#TH> ;
.
<http://www.cdisc.org/SDTM_IG_EX/V4#IGD_EXLOT>
	rdf:type bd:SdtmDomainVariable ;
	isoC:label "Lot Number"^^xsd:string ;
	bd:rule ""^^xsd:string ;
	bd:ordinal "20"^^xsd:positiveInteger ;
	bd:name "EXLOT"^^xsd:string ;
	bd:description "Lot number of the intervention product."^^xsd:string ;
	bd:format ""^^xsd:string ;
	bd:ctAndFormat ""^^xsd:string ;
	bd:compliance <http://www.assero.co.uk/CSN#f7d9d4e1-a00a-487e-89db-ebece910ba0d> ;
	bd:basedOnClassVariable <http://www.cdisc.org/SDTM_MODEL_INTERVENTIONS/V5#CL_--LOT> ;
.
<http://www.cdisc.org/SDTM_IG_EX/V4#IGD_EXLOC>
	rdf:type bd:SdtmDomainVariable ;
	isoC:label "Location of Dose Administration"^^xsd:string ;
	bd:rule ""^^xsd:string ;
	bd:ordinal "21"^^xsd:positiveInteger ;
	bd:name "EXLOC"^^xsd:string ;
	bd:description "Specifies location of administration. Examples: \"ARM\", \"LIP\"."^^xsd:string ;
	bd:format ""^^xsd:string ;
	bd:ctAndFormat "(LOC)"^^xsd:string ;
	bd:compliance <http://www.assero.co.uk/CSN#f7d9d4e1-a00a-487e-89db-ebece910ba0d> ;
	bd:ctReference <http://www.cdisc.org/SDTM_IG_EX/V4#IGD_EXLOC_TMC1> ;
	bd:basedOnClassVariable <http://www.cdisc.org/SDTM_MODEL_INTERVENTIONS/V5#CL_--LOC> ;
	bd:isA <http://www.s-cubed.dk/CAR#d219c68101f532de10add2cf42fb9dbeca73d3be> ;
.
<http://www.cdisc.org/SDTM_IG_EX/V4#IGD_EXLOC_TMC1>
	rdf:type bo:TMcReference ;
	isoC:label "LOC"^^xsd:string ;
	bo:enabled "true"^^xsd:boolean ;
	bo:optional "false"^^xsd:boolean ;
	bo:ordinal "1"^^xsd:positiveInteger ;
	bo:reference <http://www.cdisc.org/C74456/V57#C74456> ;
	bo:context <http://www.cdisc.org/CT/V57#TH> ;
.
<http://www.cdisc.org/SDTM_IG_EX/V4#IGD_EXLAT>
	rdf:type bd:SdtmDomainVariable ;
	isoC:label "Laterality"^^xsd:string ;
	bd:rule ""^^xsd:string ;
	bd:ordinal "22"^^xsd:positiveInteger ;
	bd:name "EXLAT"^^xsd:string ;
	bd:description "Qualifier for anatomical location further detailing laterality of the intervention administration. Examples: \"LEFT\", \"RIGHT\"."^^xsd:string ;
	bd:format ""^^xsd:string ;
	bd:ctAndFormat "(LAT)"^^xsd:string ;
	bd:compliance <http://www.assero.co.uk/CSN#f7d9d4e1-a00a-487e-89db-ebece910ba0d> ;
	bd:ctReference <http://www.cdisc.org/SDTM_IG_EX/V4#IGD_EXLAT_TMC1> ;
	bd:basedOnClassVariable <http://www.cdisc.org/SDTM_MODEL_INTERVENTIONS/V6#CL_--LAT> ;
	bd:isA <http://www.s-cubed.dk/CAR#ef3aa1b3b12817712a7c3e62022cbe06bd6c3f08> ;
.
<http://www.cdisc.org/SDTM_IG_EX/V4#IGD_EXLAT_TMC1>
	rdf:type bo:TMcReference ;
	isoC:label "LAT"^^xsd:string ;
	bo:enabled "true"^^xsd:boolean ;
	bo:optional "false"^^xsd:boolean ;
	bo:ordinal "1"^^xsd:positiveInteger ;
	bo:reference <http://www.cdisc.org/C99073/V57#C99073> ;
	bo:context <http://www.cdisc.org/CT/V57#TH> ;
.
<http://www.cdisc.org/SDTM_IG_EX/V4#IGD_EXDIR>
	rdf:type bd:SdtmDomainVariable ;
	isoC:label "Directionality"^^xsd:string ;
	bd:rule ""^^xsd:string ;
	bd:ordinal "23"^^xsd:positiveInteger ;
	bd:name "EXDIR"^^xsd:string ;
	bd:description "Qualifier for anatomical location further detailing directionality. Examples: \"ANTERIOR\", \"LOWER\", \"PROXIMAL\", \"UPPER\"."^^xsd:string ;
	bd:format ""^^xsd:string ;
	bd:ctAndFormat "(DIR)"^^xsd:string ;
	bd:compliance <http://www.assero.co.uk/CSN#f7d9d4e1-a00a-487e-89db-ebece910ba0d> ;
	bd:ctReference <http://www.cdisc.org/SDTM_IG_EX/V4#IGD_EXDIR_TMC1> ;
	bd:basedOnClassVariable <http://www.cdisc.org/SDTM_MODEL_INTERVENTIONS/V6#CL_--DIR> ;
	bd:isA <http://www.s-cubed.dk/CAR#b8480e9c78891769429c713a44f238f2ca3c3abb> ;
.
<http://www.cdisc.org/SDTM_IG_EX/V4#IGD_EXDIR_TMC1>
	rdf:type bo:TMcReference ;
	isoC:label "DIR"^^xsd:string ;
	bo:enabled "true"^^xsd:boolean ;
	bo:optional "false"^^xsd:boolean ;
	bo:ordinal "1"^^xsd:positiveInteger ;
	bo:reference <http://www.cdisc.org/C99074/V55#C99074> ;
	bo:context <http://www.cdisc.org/CT/V57#TH> ;
.
<http://www.cdisc.org/SDTM_IG_EX/V4#IGD_EXFAST>
	rdf:type bd:SdtmDomainVariable ;
	isoC:label "Fasting Status"^^xsd:string ;
	bd:rule ""^^xsd:string ;
	bd:ordinal "24"^^xsd:positiveInteger ;
	bd:name "EXFAST"^^xsd:string ;
	bd:description "Indicator used to identify fasting status. Examples: \"Y\", \"N\"."^^xsd:string ;
	bd:format ""^^xsd:string ;
	bd:ctAndFormat "(NY)"^^xsd:string ;
	bd:compliance <http://www.assero.co.uk/CSN#f7d9d4e1-a00a-487e-89db-ebece910ba0d> ;
	bd:ctReference <http://www.cdisc.org/SDTM_IG_EX/V4#IGD_EXFAST_TMC1> ;
	bd:basedOnClassVariable <http://www.cdisc.org/SDTM_MODEL_INTERVENTIONS/V6#CL_--FAST> ;
.
<http://www.cdisc.org/SDTM_IG_EX/V4#IGD_EXFAST_TMC1>
	rdf:type bo:TMcReference ;
	isoC:label "NY"^^xsd:string ;
	bo:enabled "true"^^xsd:boolean ;
	bo:optional "false"^^xsd:boolean ;
	bo:ordinal "1"^^xsd:positiveInteger ;
	bo:reference <http://www.cdisc.org/C66742/V56#C66742> ;
	bo:context <http://www.cdisc.org/CT/V57#TH> ;
.
<http://www.cdisc.org/SDTM_IG_EX/V4#IGD_EXADJ>
	rdf:type bd:SdtmDomainVariable ;
	isoC:label "Reason for Dose Adjustment"^^xsd:string ;
	bd:rule ""^^xsd:string ;
	bd:ordinal "25"^^xsd:positiveInteger ;
	bd:name "EXADJ"^^xsd:string ;
	bd:description "Describes reason or explanation of why a dose is adjusted."^^xsd:string ;
	bd:format ""^^xsd:string ;
	bd:ctAndFormat ""^^xsd:string ;
	bd:compliance <http://www.assero.co.uk/CSN#f7d9d4e1-a00a-487e-89db-ebece910ba0d> ;
	bd:basedOnClassVariable <http://www.cdisc.org/SDTM_MODEL_INTERVENTIONS/V6#CL_--ADJ> ;
.
<http://www.cdisc.org/SDTM_IG_EX/V4#IGD_TAETORD>
	rdf:type bd:SdtmDomainVariable ;
	isoC:label "Planned Order of Element within Arm"^^xsd:string ;
	bd:rule ""^^xsd:string ;
	bd:ordinal "26"^^xsd:positiveInteger ;
	bd:name "TAETORD"^^xsd:string ;
	bd:description "Number that gives the planned order of the Element within the Arm."^^xsd:string ;
	bd:format ""^^xsd:string ;
	bd:ctAndFormat ""^^xsd:string ;
	bd:compliance <http://www.assero.co.uk/CSN#f7d9d4e1-a00a-487e-89db-ebece910ba0d> ;
	bd:basedOnClassVariable <http://www.cdisc.org/SDTM_MODEL_ALL/V6#CL_TAETORD> ;
.
<http://www.cdisc.org/SDTM_IG_EX/V4#IGD_EPOCH>
	rdf:type bd:SdtmDomainVariable ;
	isoC:label "Epoch"^^xsd:string ;
	bd:rule ""^^xsd:string ;
	bd:ordinal "27"^^xsd:positiveInteger ;
	bd:name "EPOCH"^^xsd:string ;
	bd:description "Trial Epoch of the Exposure record. Examples: \"RUN-IN\", \"TREATMENT\"."^^xsd:string ;
	bd:format ""^^xsd:string ;
	bd:ctAndFormat "(EPOCH)"^^xsd:string ;
	bd:compliance <http://www.assero.co.uk/CSN#f7d9d4e1-a00a-487e-89db-ebece910ba0d> ;
	bd:ctReference <http://www.cdisc.org/SDTM_IG_EX/V4#IGD_EPOCH_TMC1> ;
	bd:basedOnClassVariable <http://www.cdisc.org/SDTM_MODEL_ALL/V6#CL_EPOCH> ;
.
<http://www.cdisc.org/SDTM_IG_EX/V4#IGD_EPOCH_TMC1>
	rdf:type bo:TMcReference ;
	isoC:label "EPOCH"^^xsd:string ;
	bo:enabled "true"^^xsd:boolean ;
	bo:optional "false"^^xsd:boolean ;
	bo:ordinal "1"^^xsd:positiveInteger ;
	bo:reference <http://www.cdisc.org/C99079/V52#C99079> ;
	bo:context <http://www.cdisc.org/CT/V57#TH> ;
.
<http://www.cdisc.org/SDTM_IG_EX/V4#IGD_EXSTDTC>
	rdf:type bd:SdtmDomainVariable ;
	isoC:label "Start Date/Time of Treatment"^^xsd:string ;
	bd:rule ""^^xsd:string ;
	bd:ordinal "28"^^xsd:positiveInteger ;
	bd:name "EXSTDTC"^^xsd:string ;
	bd:description "The date/time when administration of the treatment indicated by EXTRT and EXDOSE began."^^xsd:string ;
	bd:format "ISO 8601"^^xsd:string ;
	bd:ctAndFormat "ISO 8601"^^xsd:string ;
	bd:compliance <http://www.assero.co.uk/CSN#046f6c24-9eaf-4f60-8390-f36328c82ec4> ;
	bd:basedOnClassVariable <http://www.cdisc.org/SDTM_MODEL_ALL/V5#CL_--STDTC> ;
	bd:isA <http://www.s-cubed.dk/CAR#83c87956785cde43c109e30fcbd95cca63a18d38> ;
.
<http://www.cdisc.org/SDTM_IG_EX/V4#IGD_EXENDTC>
	rdf:type bd:SdtmDomainVariable ;
	isoC:label "End Date/Time of Treatment"^^xsd:string ;
	bd:rule ""^^xsd:string ;
	bd:ordinal "29"^^xsd:positiveInteger ;
	bd:name "EXENDTC"^^xsd:string ;
	bd:description "The date/time when administration of the treatment indicated by EXTRT and EXDOSE ended. For administrations considered given at a point in time (e.g., oral tablet, pre-filled syringe injection), where only an administration date/time is collected, EXSTDTC should be copied to EXENDTC as the standard representation."^^xsd:string ;
	bd:format "ISO 8601"^^xsd:string ;
	bd:ctAndFormat "ISO 8601"^^xsd:string ;
	bd:compliance <http://www.assero.co.uk/CSN#046f6c24-9eaf-4f60-8390-f36328c82ec4> ;
	bd:basedOnClassVariable <http://www.cdisc.org/SDTM_MODEL_ALL/V5#CL_--ENDTC> ;
	bd:isA <http://www.s-cubed.dk/CAR#71c54c70967ea84127e4bd588bd627ec0e581dfb> ;
.
<http://www.cdisc.org/SDTM_IG_EX/V4#IGD_EXSTDY>
	rdf:type bd:SdtmDomainVariable ;
	isoC:label "Study Day of Start of Treatment"^^xsd:string ;
	bd:rule ""^^xsd:string ;
	bd:ordinal "30"^^xsd:positiveInteger ;
	bd:name "EXSTDY"^^xsd:string ;
	bd:description "Study day of EXSTDTC relative to DM.RFSTDTC."^^xsd:string ;
	bd:format ""^^xsd:string ;
	bd:ctAndFormat ""^^xsd:string ;
	bd:compliance <http://www.assero.co.uk/CSN#f7d9d4e1-a00a-487e-89db-ebece910ba0d> ;
	bd:basedOnClassVariable <http://www.cdisc.org/SDTM_MODEL_ALL/V5#CL_--STDY> ;
.
<http://www.cdisc.org/SDTM_IG_EX/V4#IGD_EXENDY>
	rdf:type bd:SdtmDomainVariable ;
	isoC:label "Study Day of End of Treatment"^^xsd:string ;
	bd:rule ""^^xsd:string ;
	bd:ordinal "31"^^xsd:positiveInteger ;
	bd:name "EXENDY"^^xsd:string ;
	bd:description "Study day of EXENDTC relative to DM.RFSTDTC."^^xsd:string ;
	bd:format ""^^xsd:string ;
	bd:ctAndFormat ""^^xsd:string ;
	bd:compliance <http://www.assero.co.uk/CSN#f7d9d4e1-a00a-487e-89db-ebece910ba0d> ;
	bd:basedOnClassVariable <http://www.cdisc.org/SDTM_MODEL_ALL/V5#CL_--ENDY> ;
.
<http://www.cdisc.org/SDTM_IG_EX/V4#IGD_EXDUR>
	rdf:type bd:SdtmDomainVariable ;
	isoC:label "Duration of Treatment"^^xsd:string ;
	bd:rule ""^^xsd:string ;
	bd:ordinal "32"^^xsd:positiveInteger ;
	bd:name "EXDUR"^^xsd:string ;
	bd:description "Collected duration of administration. Used only if collected on the CRF and not derived from start and end date/times."^^xsd:string ;
	bd:format "ISO 8601"^^xsd:string ;
	bd:ctAndFormat "ISO 8601"^^xsd:string ;
	bd:compliance <http://www.assero.co.uk/CSN#f7d9d4e1-a00a-487e-89db-ebece910ba0d> ;
	bd:basedOnClassVariable <http://www.cdisc.org/SDTM_MODEL_ALL/V5#CL_--DUR> ;
.
<http://www.cdisc.org/SDTM_IG_EX/V4#IGD_EXTPT>
	rdf:type bd:SdtmDomainVariable ;
	isoC:label "Planned Time Point Name"^^xsd:string ;
	bd:rule ""^^xsd:string ;
	bd:ordinal "33"^^xsd:positiveInteger ;
	bd:name "EXTPT"^^xsd:string ;
	bd:description "1. Text Description of time when administration should occur. 2. This may be represented as an elapsed time relative to a fixed reference point, such as time of last dose. See EXTPTNUM and EXTPTREF."^^xsd:string ;
	bd:format ""^^xsd:string ;
	bd:ctAndFormat ""^^xsd:string ;
	bd:compliance <http://www.assero.co.uk/CSN#f7d9d4e1-a00a-487e-89db-ebece910ba0d> ;
	bd:basedOnClassVariable <http://www.cdisc.org/SDTM_MODEL_ALL/V5#CL_--TPT> ;
.
<http://www.cdisc.org/SDTM_IG_EX/V4#IGD_EXTPTNUM>
	rdf:type bd:SdtmDomainVariable ;
	isoC:label "Planned Time Point Number"^^xsd:string ;
	bd:rule ""^^xsd:string ;
	bd:ordinal "34"^^xsd:positiveInteger ;
	bd:name "EXTPTNUM"^^xsd:string ;
	bd:description "Numerical version of EXTPT to aid in sorting."^^xsd:string ;
	bd:format ""^^xsd:string ;
	bd:ctAndFormat ""^^xsd:string ;
	bd:compliance <http://www.assero.co.uk/CSN#f7d9d4e1-a00a-487e-89db-ebece910ba0d> ;
	bd:basedOnClassVariable <http://www.cdisc.org/SDTM_MODEL_ALL/V5#CL_--TPTNUM> ;
.
<http://www.cdisc.org/SDTM_IG_EX/V4#IGD_EXELTM>
	rdf:type bd:SdtmDomainVariable ;
	isoC:label "Planned Elapsed Time from Time Point Ref"^^xsd:string ;
	bd:rule ""^^xsd:string ;
	bd:ordinal "35"^^xsd:positiveInteger ;
	bd:name "EXELTM"^^xsd:string ;
	bd:description "Planned elapsed time relative to the planned fixed reference (EXTPTREF). This variable is useful where there are repetitive measures. Not a clock time."^^xsd:string ;
	bd:format "ISO 8601"^^xsd:string ;
	bd:ctAndFormat "ISO 8601"^^xsd:string ;
	bd:compliance <http://www.assero.co.uk/CSN#f7d9d4e1-a00a-487e-89db-ebece910ba0d> ;
	bd:basedOnClassVariable <http://www.cdisc.org/SDTM_MODEL_ALL/V5#CL_--ELTM> ;
.
<http://www.cdisc.org/SDTM_IG_EX/V4#IGD_EXTPTREF>
	rdf:type bd:SdtmDomainVariable ;
	isoC:label "Time Point Reference"^^xsd:string ;
	bd:rule ""^^xsd:string ;
	bd:ordinal "36"^^xsd:positiveInteger ;
	bd:name "EXTPTREF"^^xsd:string ;
	bd:description "Name of the fixed reference point referred to by EXELTM, EXTPTNUM, and EXTPT. Examples: PREVIOUS DOSE, PREVIOUS MEAL."^^xsd:string ;
	bd:format ""^^xsd:string ;
	bd:ctAndFormat ""^^xsd:string ;
	bd:compliance <http://www.assero.co.uk/CSN#f7d9d4e1-a00a-487e-89db-ebece910ba0d> ;
	bd:basedOnClassVariable <http://www.cdisc.org/SDTM_MODEL_ALL/V6#CL_--TPTREF> ;
.
<http://www.cdisc.org/SDTM_IG_EX/V4#IGD_EXRFTDTC>
	rdf:type bd:SdtmDomainVariable ;
	isoC:label "Date/Time of Reference Time Point"^^xsd:string ;
	bd:rule ""^^xsd:string ;
	bd:ordinal "37"^^xsd:positiveInteger ;
	bd:name "EXRFTDTC"^^xsd:string ;
	bd:description "Date/time for a fixed reference time point defined by EXTPTREF."^^xsd:string ;
	bd:format "ISO 8601"^^xsd:string ;
	bd:ctAndFormat "ISO 8601"^^xsd:string ;
	bd:compliance <http://www.assero.co.uk/CSN#f7d9d4e1-a00a-487e-89db-ebece910ba0d> ;
	bd:basedOnClassVariable <http://www.cdisc.org/SDTM_MODEL_ALL/V5#CL_--RFTDTC> ;
.
<http://www.cdisc.org/SDTM_IG_EC/V4#IGD>
	rdf:type bd:SdtmDomain ;
	isoC:label "Exposure as Collected"^^xsd:string ;
	isoT:hasState <http://www.cdisc.org/SDTM_IG_EC/V4#IGD_RS> ;
	isoT:hasIdentifier <http://www.cdisc.org/SDTM_IG_EC/V4#IGD_SI> ;
	isoT:hasPreviousVersion <http://www.cdisc.org/SDTM_IG_EC/V3#IGD> ;
	isoT:origin ""^^xsd:string ;
	isoT:changeDescription ""^^xsd:string ;
	isoT:creationDate "2018-11-20T00:00:00+00:00"^^xsd:dateTime ;
	isoT:lastChangeDate "2018-11-20T00:00:00+00:00"^^xsd:dateTime ;
	isoT:explanatoryComment ""^^xsd:string ;
	bd:rule ""^^xsd:string ;
	bd:ordinal "1"^^xsd:positiveInteger ;
	bd:includesColumn <http://www.cdisc.org/SDTM_IG_EC/V3#IGD_STUDYID> ;
	bd:includesColumn <http://www.cdisc.org/SDTM_IG_EC/V4#IGD_DOMAIN> ;
	bd:includesColumn <http://www.cdisc.org/SDTM_IG_EC/V3#IGD_USUBJID> ;
	bd:includesColumn <http://www.cdisc.org/SDTM_IG_EC/V4#IGD_ECSEQ> ;
	bd:includesColumn <http://www.cdisc.org/SDTM_IG_EC/V4#IGD_ECGRPID> ;
	bd:includesColumn <http://www.cdisc.org/SDTM_IG_EC/V4#IGD_ECREFID> ;
	bd:includesColumn <http://www.cdisc.org/SDTM_IG_EC/V4#IGD_ECSPID> ;
	bd:includesColumn <http://www.cdisc.org/SDTM_IG_EC/V4#IGD_ECLNKID> ;
	bd:includesColumn <http://www.cdisc.org/SDTM_IG_EC/V4#IGD_ECLNKGRP> ;
	bd:includesColumn <http://www.cdisc.org/SDTM_IG_EC/V4#IGD_ECTRT> ;
	bd:includesColumn <http://www.cdisc.org/SDTM_IG_EC/V4#IGD_ECMOOD> ;
	bd:includesColumn <http://www.cdisc.org/SDTM_IG_EC/V4#IGD_ECCAT> ;
	bd:includesColumn <http://www.cdisc.org/SDTM_IG_EC/V4#IGD_ECSCAT> ;
	bd:includesColumn <http://www.cdisc.org/SDTM_IG_EC/V4#IGD_ECPRESP> ;
	bd:includesColumn <http://www.cdisc.org/SDTM_IG_EC/V4#IGD_ECOCCUR> ;
	bd:includesColumn <http://www.cdisc.org/SDTM_IG_EC/V4#IGD_ECDOSE> ;
	bd:includesColumn <http://www.cdisc.org/SDTM_IG_EC/V4#IGD_ECDOSTXT> ;
	bd:includesColumn <http://www.cdisc.org/SDTM_IG_EC/V4#IGD_ECDOSU> ;
	bd:includesColumn <http://www.cdisc.org/SDTM_IG_EC/V4#IGD_ECDOSFRM> ;
	bd:includesColumn <http://www.cdisc.org/SDTM_IG_EC/V4#IGD_ECDOSFRQ> ;
	bd:includesColumn <http://www.cdisc.org/SDTM_IG_EC/V4#IGD_ECDOSTOT> ;
	bd:includesColumn <http://www.cdisc.org/SDTM_IG_EC/V4#IGD_ECDOSRGM> ;
	bd:includesColumn <http://www.cdisc.org/SDTM_IG_EC/V4#IGD_ECROUTE> ;
	bd:includesColumn <http://www.cdisc.org/SDTM_IG_EC/V4#IGD_ECLOT> ;
	bd:includesColumn <http://www.cdisc.org/SDTM_IG_EC/V4#IGD_ECLOC> ;
	bd:includesColumn <http://www.cdisc.org/SDTM_IG_EC/V4#IGD_ECLAT> ;
	bd:includesColumn <http://www.cdisc.org/SDTM_IG_EC/V4#IGD_ECDIR> ;
	bd:includesColumn <http://www.cdisc.org/SDTM_IG_EC/V4#IGD_ECPORTOT> ;
	bd:includesColumn <http://www.cdisc.org/SDTM_IG_EC/V4#IGD_ECFAST> ;
	bd:includesColumn <http://www.cdisc.org/SDTM_IG_EC/V4#IGD_ECPSTRG> ;
	bd:includesColumn <http://www.cdisc.org/SDTM_IG_EC/V4#IGD_ECPSTRGU> ;
	bd:includesColumn <http://www.cdisc.org/SDTM_IG_EC/V4#IGD_ECADJ> ;
	bd:includesColumn <http://www.cdisc.org/SDTM_IG_EC/V4#IGD_TAETORD> ;
	bd:includesColumn <http://www.cdisc.org/SDTM_IG_EC/V4#IGD_EPOCH> ;
	bd:includesColumn <http://www.cdisc.org/SDTM_IG_EC/V4#IGD_ECSTDTC> ;
	bd:includesColumn <http://www.cdisc.org/SDTM_IG_EC/V4#IGD_ECENDTC> ;
	bd:includesColumn <http://www.cdisc.org/SDTM_IG_EC/V4#IGD_ECSTDY> ;
	bd:includesColumn <http://www.cdisc.org/SDTM_IG_EC/V4#IGD_ECENDY> ;
	bd:includesColumn <http://www.cdisc.org/SDTM_IG_EC/V4#IGD_ECDUR> ;
	bd:includesColumn <http://www.cdisc.org/SDTM_IG_EC/V4#IGD_ECTPT> ;
	bd:includesColumn <http://www.cdisc.org/SDTM_IG_EC/V4#IGD_ECTPTNUM> ;
	bd:includesColumn <http://www.cdisc.org/SDTM_IG_EC/V4#IGD_ECELTM> ;
	bd:includesColumn <http://www.cdisc.org/SDTM_IG_EC/V4#IGD_ECTPTREF> ;
	bd:includesColumn <http://www.cdisc.org/SDTM_IG_EC/V4#IGD_ECRFTDTC> ;
	bd:prefix "EC"^^xsd:string ;
	bd:structure "One record per protocol-specified study treatment, collected-dosing interval, per subject, per mood"^^xsd:string ;
	bd:basedOnClass <http://www.cdisc.org/SDTM_MODEL_INTERVENTIONS/V6#CL> ;
.
<http://www.cdisc.org/SDTM_IG_EC/V4#IGD_RS>
	rdf:type isoR:RegistrationState ;
	isoR:registrationStatus "Standard"^^xsd:string ;
	isoR:administrativeNote ""^^xsd:string ;
	isoR:effectiveDate "2016-01-01T00:00:00+00:00"^^xsd:dateTime ;
	isoR:untilDate "2016-01-01T00:00:00+00:00"^^xsd:dateTime ;
	isoR:unresolvedIssue ""^^xsd:string ;
	isoR:administrativeStatus ""^^xsd:string ;
	isoR:previousState "Standard"^^xsd:string ;
	isoR:multipleEdit "false"^^xsd:boolean ;
	isoR:byAuthority <http://www.assero.co.uk/RA#DUNS084433759> ;
.
<http://www.cdisc.org/SDTM_IG_EC/V4#IGD_SI>
	rdf:type isoI:ScopedIdentifier ;
	isoI:identifier "SDTM IG EC"^^xsd:string ;
	isoI:versionLabel "2018-11-20 Release"^^xsd:string ;
	isoI:version "4"^^xsd:positiveInteger ;
	isoI:semanticVersion "3.3.0"^^xsd:string ;
	isoI:hasScope <http://www.assero.co.uk/NS#CDISC> ;
.
<http://www.cdisc.org/SDTM_IG_EC/V4#IGD_DOMAIN>
	rdf:type bd:SdtmDomainVariable ;
	isoC:label "Domain Abbreviation"^^xsd:string ;
	bd:rule ""^^xsd:string ;
	bd:ordinal "2"^^xsd:positiveInteger ;
	bd:name "DOMAIN"^^xsd:string ;
	bd:description "Two-character abbreviation for the domain."^^xsd:string ;
	bd:format "EC"^^xsd:string ;
	bd:ctAndFormat "EC"^^xsd:string ;
	bd:compliance <http://www.assero.co.uk/CSN#52070084-cdd3-4ba8-8377-f670e4b0276c> ;
	bd:basedOnClassVariable <http://www.cdisc.org/SDTM_MODEL_ALL/V6#CL_DOMAIN> ;
.
<http://www.cdisc.org/SDTM_IG_EC/V4#IGD_ECSEQ>
	rdf:type bd:SdtmDomainVariable ;
	isoC:label "Sequence Number"^^xsd:string ;
	bd:rule ""^^xsd:string ;
	bd:ordinal "4"^^xsd:positiveInteger ;
	bd:name "ECSEQ"^^xsd:string ;
	bd:description "Sequence Number given to ensure uniqueness of subject records within a domain. May be any valid number."^^xsd:string ;
	bd:format ""^^xsd:string ;
	bd:ctAndFormat ""^^xsd:string ;
	bd:compliance <http://www.assero.co.uk/CSN#52070084-cdd3-4ba8-8377-f670e4b0276c> ;
	bd:basedOnClassVariable <http://www.cdisc.org/SDTM_MODEL_ALL/V5#CL_--SEQ> ;
.
<http://www.cdisc.org/SDTM_IG_EC/V4#IGD_ECGRPID>
	rdf:type bd:SdtmDomainVariable ;
	isoC:label "Group ID"^^xsd:string ;
	bd:rule ""^^xsd:string ;
	bd:ordinal "5"^^xsd:positiveInteger ;
	bd:name "ECGRPID"^^xsd:string ;
	bd:description "Used to tie together a block of related records in a single domain for a subject."^^xsd:string ;
	bd:format ""^^xsd:string ;
	bd:ctAndFormat ""^^xsd:string ;
	bd:compliance <http://www.assero.co.uk/CSN#f7d9d4e1-a00a-487e-89db-ebece910ba0d> ;
	bd:basedOnClassVariable <http://www.cdisc.org/SDTM_MODEL_ALL/V6#CL_--GRPID> ;
.
<http://www.cdisc.org/SDTM_IG_EC/V4#IGD_ECREFID>
	rdf:type bd:SdtmDomainVariable ;
	isoC:label "Reference ID"^^xsd:string ;
	bd:rule ""^^xsd:string ;
	bd:ordinal "6"^^xsd:positiveInteger ;
	bd:name "ECREFID"^^xsd:string ;
	bd:description "Internal or external identifier (e.g., kit number, bottle label, vial identifier)."^^xsd:string ;
	bd:format ""^^xsd:string ;
	bd:ctAndFormat ""^^xsd:string ;
	bd:compliance <http://www.assero.co.uk/CSN#f7d9d4e1-a00a-487e-89db-ebece910ba0d> ;
	bd:basedOnClassVariable <http://www.cdisc.org/SDTM_MODEL_ALL/V5#CL_--REFID> ;
.
<http://www.cdisc.org/SDTM_IG_EC/V4#IGD_ECSPID>
	rdf:type bd:SdtmDomainVariable ;
	isoC:label "Sponsor-Defined Identifier"^^xsd:string ;
	bd:rule ""^^xsd:string ;
	bd:ordinal "7"^^xsd:positiveInteger ;
	bd:name "ECSPID"^^xsd:string ;
	bd:description "Sponsor-defined reference number. Perhaps pre-printed on the CRF as an explicit line identifier or defined in the sponsor's operational database. Example: Line number on a CRF Page."^^xsd:string ;
	bd:format ""^^xsd:string ;
	bd:ctAndFormat ""^^xsd:string ;
	bd:compliance <http://www.assero.co.uk/CSN#f7d9d4e1-a00a-487e-89db-ebece910ba0d> ;
	bd:basedOnClassVariable <http://www.cdisc.org/SDTM_MODEL_ALL/V5#CL_--SPID> ;
.
<http://www.cdisc.org/SDTM_IG_EC/V4#IGD_ECLNKID>
	rdf:type bd:SdtmDomainVariable ;
	isoC:label "Link ID"^^xsd:string ;
	bd:rule ""^^xsd:string ;
	bd:ordinal "8"^^xsd:positiveInteger ;
	bd:name "ECLNKID"^^xsd:string ;
	bd:description "Identifier used to link related records across domains."^^xsd:string ;
	bd:format ""^^xsd:string ;
	bd:ctAndFormat ""^^xsd:string ;
	bd:compliance <http://www.assero.co.uk/CSN#f7d9d4e1-a00a-487e-89db-ebece910ba0d> ;
	bd:basedOnClassVariable <http://www.cdisc.org/SDTM_MODEL_ALL/V6#CL_--LNKID> ;
.
<http://www.cdisc.org/SDTM_IG_EC/V4#IGD_ECLNKGRP>
	rdf:type bd:SdtmDomainVariable ;
	isoC:label "Link Group ID"^^xsd:string ;
	bd:rule ""^^xsd:string ;
	bd:ordinal "9"^^xsd:positiveInteger ;
	bd:name "ECLNKGRP"^^xsd:string ;
	bd:description "Identifier used to link related, grouped records across domains."^^xsd:string ;
	bd:format ""^^xsd:string ;
	bd:ctAndFormat ""^^xsd:string ;
	bd:compliance <http://www.assero.co.uk/CSN#f7d9d4e1-a00a-487e-89db-ebece910ba0d> ;
	bd:basedOnClassVariable <http://www.cdisc.org/SDTM_MODEL_ALL/V6#CL_--LNKGRP> ;
.
<http://www.cdisc.org/SDTM_IG_EC/V4#IGD_ECTRT>
	rdf:type bd:SdtmDomainVariable ;
	isoC:label "Name of Treatment"^^xsd:string ;
	bd:rule ""^^xsd:string ;
	bd:ordinal "10"^^xsd:positiveInteger ;
	bd:name "ECTRT"^^xsd:string ;
	bd:description "Name of the intervention treatment known to the subject and/or administrator."^^xsd:string ;
	bd:format ""^^xsd:string ;
	bd:ctAndFormat ""^^xsd:string ;
	bd:compliance <http://www.assero.co.uk/CSN#52070084-cdd3-4ba8-8377-f670e4b0276c> ;
	bd:basedOnClassVariable <http://www.cdisc.org/SDTM_MODEL_INTERVENTIONS/V5#CL_--TRT> ;
.
<http://www.cdisc.org/SDTM_IG_EC/V4#IGD_ECMOOD>
	rdf:type bd:SdtmDomainVariable ;
	isoC:label "Mood"^^xsd:string ;
	bd:rule ""^^xsd:string ;
	bd:ordinal "11"^^xsd:positiveInteger ;
	bd:name "ECMOOD"^^xsd:string ;
	bd:description "Mode or condition of the record specifying whether the intervention (activity) is intended to happen or has happened. Values align with BRIDG pillars (e.g., scheduled context, performed context) and HL7 activity moods (e.g., intent, event). Examples: \"SCHEDULED\", \"PERFORMED\"."^^xsd:string ;
	bd:format ""^^xsd:string ;
	bd:ctAndFormat "(BRDGMOOD)"^^xsd:string ;
	bd:compliance <http://www.assero.co.uk/CSN#f7d9d4e1-a00a-487e-89db-ebece910ba0d> ;
	bd:ctReference <http://www.cdisc.org/SDTM_IG_EC/V4#IGD_ECMOOD_TMC1> ;
	bd:basedOnClassVariable <http://www.cdisc.org/SDTM_MODEL_INTERVENTIONS/V6#CL_--MOOD> ;
.
<http://www.cdisc.org/SDTM_IG_EC/V4#IGD_ECMOOD_TMC1>
	rdf:type bo:TMcReference ;
	isoC:label "BRDGMOOD"^^xsd:string ;
	bo:enabled "true"^^xsd:boolean ;
	bo:optional "false"^^xsd:boolean ;
	bo:ordinal "1"^^xsd:positiveInteger ;
	bo:reference <http://www.cdisc.org/C125923/V47#C125923> ;
	bo:context <http://www.cdisc.org/CT/V57#TH> ;
.
<http://www.cdisc.org/SDTM_IG_EC/V4#IGD_ECCAT>
	rdf:type bd:SdtmDomainVariable ;
	isoC:label "Category of Treatment"^^xsd:string ;
	bd:rule ""^^xsd:string ;
	bd:ordinal "12"^^xsd:positiveInteger ;
	bd:name "ECCAT"^^xsd:string ;
	bd:description "Used to define a category of related ECTRT values."^^xsd:string ;
	bd:format ""^^xsd:string ;
	bd:ctAndFormat ""^^xsd:string ;
	bd:compliance <http://www.assero.co.uk/CSN#f7d9d4e1-a00a-487e-89db-ebece910ba0d> ;
	bd:basedOnClassVariable <http://www.cdisc.org/SDTM_MODEL_INTERVENTIONS/V5#CL_--CAT> ;
	bd:isA <http://www.s-cubed.dk/CAR#a3c686e711e4720f99b4562bb3dbaae7ab658cf2> ;
.
<http://www.cdisc.org/SDTM_IG_EC/V4#IGD_ECSCAT>
	rdf:type bd:SdtmDomainVariable ;
	isoC:label "Subcategory of Treatment"^^xsd:string ;
	bd:rule ""^^xsd:string ;
	bd:ordinal "13"^^xsd:positiveInteger ;
	bd:name "ECSCAT"^^xsd:string ;
	bd:description "A further categorization of ECCAT values."^^xsd:string ;
	bd:format ""^^xsd:string ;
	bd:ctAndFormat ""^^xsd:string ;
	bd:compliance <http://www.assero.co.uk/CSN#f7d9d4e1-a00a-487e-89db-ebece910ba0d> ;
	bd:basedOnClassVariable <http://www.cdisc.org/SDTM_MODEL_INTERVENTIONS/V5#CL_--SCAT> ;
	bd:isA <http://www.s-cubed.dk/CAR#479a67983e739413da55faf0dc509f83fd5dea64> ;
.
<http://www.cdisc.org/SDTM_IG_EC/V4#IGD_ECPRESP>
	rdf:type bd:SdtmDomainVariable ;
	isoC:label "Pre-Specified"^^xsd:string ;
	bd:rule ""^^xsd:string ;
	bd:ordinal "14"^^xsd:positiveInteger ;
	bd:name "ECPRESP"^^xsd:string ;
	bd:description "Used when a specific intervention is pre-specified. Values should be \"Y\" or null."^^xsd:string ;
	bd:format ""^^xsd:string ;
	bd:ctAndFormat "(NY)"^^xsd:string ;
	bd:compliance <http://www.assero.co.uk/CSN#f7d9d4e1-a00a-487e-89db-ebece910ba0d> ;
	bd:ctReference <http://www.cdisc.org/SDTM_IG_EC/V4#IGD_ECPRESP_TMC1> ;
	bd:basedOnClassVariable <http://www.cdisc.org/SDTM_MODEL_INTERVENTIONS/V5#CL_--PRESP> ;
.
<http://www.cdisc.org/SDTM_IG_EC/V4#IGD_ECPRESP_TMC1>
	rdf:type bo:TMcReference ;
	isoC:label "NY"^^xsd:string ;
	bo:enabled "true"^^xsd:boolean ;
	bo:optional "false"^^xsd:boolean ;
	bo:ordinal "1"^^xsd:positiveInteger ;
	bo:reference <http://www.cdisc.org/C66742/V56#C66742> ;
	bo:context <http://www.cdisc.org/CT/V57#TH> ;
.
<http://www.cdisc.org/SDTM_IG_EC/V4#IGD_ECOCCUR>
	rdf:type bd:SdtmDomainVariable ;
	isoC:label "Occurrence"^^xsd:string ;
	bd:rule ""^^xsd:string ;
	bd:ordinal "15"^^xsd:positiveInteger ;
	bd:name "ECOCCUR"^^xsd:string ;
	bd:description "Used to indicate whether a treatment occurred when information about the occurrence is solicited. ECOCCUR = \"N\" when a treatment was not taken, not given, or missed."^^xsd:string ;
	bd:format ""^^xsd:string ;
	bd:ctAndFormat "(NY)"^^xsd:string ;
	bd:compliance <http://www.assero.co.uk/CSN#f7d9d4e1-a00a-487e-89db-ebece910ba0d> ;
	bd:ctReference <http://www.cdisc.org/SDTM_IG_EC/V4#IGD_ECOCCUR_TMC1> ;
	bd:basedOnClassVariable <http://www.cdisc.org/SDTM_MODEL_INTERVENTIONS/V6#CL_--OCCUR> ;
.
<http://www.cdisc.org/SDTM_IG_EC/V4#IGD_ECOCCUR_TMC1>
	rdf:type bo:TMcReference ;
	isoC:label "NY"^^xsd:string ;
	bo:enabled "true"^^xsd:boolean ;
	bo:optional "false"^^xsd:boolean ;
	bo:ordinal "1"^^xsd:positiveInteger ;
	bo:reference <http://www.cdisc.org/C66742/V56#C66742> ;
	bo:context <http://www.cdisc.org/CT/V57#TH> ;
.
<http://www.cdisc.org/SDTM_IG_EC/V4#IGD_ECDOSE>
	rdf:type bd:SdtmDomainVariable ;
	isoC:label "Dose"^^xsd:string ;
	bd:rule ""^^xsd:string ;
	bd:ordinal "16"^^xsd:positiveInteger ;
	bd:name "ECDOSE"^^xsd:string ;
	bd:description "Amount of ECTRT when numeric. Not populated when ECDOSTXT is populated."^^xsd:string ;
	bd:format ""^^xsd:string ;
	bd:ctAndFormat ""^^xsd:string ;
	bd:compliance <http://www.assero.co.uk/CSN#046f6c24-9eaf-4f60-8390-f36328c82ec4> ;
	bd:basedOnClassVariable <http://www.cdisc.org/SDTM_MODEL_INTERVENTIONS/V5#CL_--DOSE> ;
.
<http://www.cdisc.org/SDTM_IG_EC/V4#IGD_ECDOSTXT>
	rdf:type bd:SdtmDomainVariable ;
	isoC:label "Dose Description"^^xsd:string ;
	bd:rule ""^^xsd:string ;
	bd:ordinal "17"^^xsd:positiveInteger ;
	bd:name "ECDOSTXT"^^xsd:string ;
	bd:description "Amount of ECTRT when non-numeric. Dosing amounts or a range of dosing information collected in text form. Example: \"200-400\". Not populated when ECDOSE is populated."^^xsd:string ;
	bd:format ""^^xsd:string ;
	bd:ctAndFormat ""^^xsd:string ;
	bd:compliance <http://www.assero.co.uk/CSN#f7d9d4e1-a00a-487e-89db-ebece910ba0d> ;
	bd:basedOnClassVariable <http://www.cdisc.org/SDTM_MODEL_INTERVENTIONS/V5#CL_--DOSTXT> ;
.
<http://www.cdisc.org/SDTM_IG_EC/V4#IGD_ECDOSU>
	rdf:type bd:SdtmDomainVariable ;
	isoC:label "Dose Units"^^xsd:string ;
	bd:rule ""^^xsd:string ;
	bd:ordinal "18"^^xsd:positiveInteger ;
	bd:name "ECDOSU"^^xsd:string ;
	bd:description "Units for ECDOSE, ECDOSTOT, or ECDOSTXT."^^xsd:string ;
	bd:format ""^^xsd:string ;
	bd:ctAndFormat "(UNIT)"^^xsd:string ;
	bd:compliance <http://www.assero.co.uk/CSN#046f6c24-9eaf-4f60-8390-f36328c82ec4> ;
	bd:ctReference <http://www.cdisc.org/SDTM_IG_EC/V4#IGD_ECDOSU_TMC1> ;
	bd:basedOnClassVariable <http://www.cdisc.org/SDTM_MODEL_INTERVENTIONS/V6#CL_--DOSU> ;
.
<http://www.cdisc.org/SDTM_IG_EC/V4#IGD_ECDOSU_TMC1>
	rdf:type bo:TMcReference ;
	isoC:label "UNIT"^^xsd:string ;
	bo:enabled "true"^^xsd:boolean ;
	bo:optional "false"^^xsd:boolean ;
	bo:ordinal "1"^^xsd:positiveInteger ;
	bo:reference <http://www.cdisc.org/C71620/V57#C71620> ;
	bo:context <http://www.cdisc.org/CT/V57#TH> ;
.
<http://www.cdisc.org/SDTM_IG_EC/V4#IGD_ECDOSFRM>
	rdf:type bd:SdtmDomainVariable ;
	isoC:label "Dose Form"^^xsd:string ;
	bd:rule ""^^xsd:string ;
	bd:ordinal "19"^^xsd:positiveInteger ;
	bd:name "ECDOSFRM"^^xsd:string ;
	bd:description "Dose form for ECTRT. Examples: \"TABLET\", \"LOTION\"."^^xsd:string ;
	bd:format ""^^xsd:string ;
	bd:ctAndFormat "(FRM)"^^xsd:string ;
	bd:compliance <http://www.assero.co.uk/CSN#046f6c24-9eaf-4f60-8390-f36328c82ec4> ;
	bd:ctReference <http://www.cdisc.org/SDTM_IG_EC/V4#IGD_ECDOSFRM_TMC1> ;
	bd:basedOnClassVariable <http://www.cdisc.org/SDTM_MODEL_INTERVENTIONS/V6#CL_--DOSFRM> ;
.
<http://www.cdisc.org/SDTM_IG_EC/V4#IGD_ECDOSFRM_TMC1>
	rdf:type bo:TMcReference ;
	isoC:label "FRM"^^xsd:string ;
	bo:enabled "true"^^xsd:boolean ;
	bo:optional "false"^^xsd:boolean ;
	bo:ordinal "1"^^xsd:positiveInteger ;
	bo:reference <http://www.cdisc.org/C66726/V54#C66726> ;
	bo:context <http://www.cdisc.org/CT/V57#TH> ;
.
<http://www.cdisc.org/SDTM_IG_EC/V4#IGD_ECDOSFRQ>
	rdf:type bd:SdtmDomainVariable ;
	isoC:label "Dosing Frequency per Interval"^^xsd:string ;
	bd:rule ""^^xsd:string ;
	bd:ordinal "20"^^xsd:positiveInteger ;
	bd:name "ECDOSFRQ"^^xsd:string ;
	bd:description "Usually expressed as the number of repeated administrations of ECDOSE within a specific time period. Examples: \"Q2H\", \"QD\", \"BID\"."^^xsd:string ;
	bd:format ""^^xsd:string ;
	bd:ctAndFormat "(FREQ)"^^xsd:string ;
	bd:compliance <http://www.assero.co.uk/CSN#f7d9d4e1-a00a-487e-89db-ebece910ba0d> ;
	bd:ctReference <http://www.cdisc.org/SDTM_IG_EC/V4#IGD_ECDOSFRQ_TMC1> ;
	bd:basedOnClassVariable <http://www.cdisc.org/SDTM_MODEL_INTERVENTIONS/V6#CL_--DOSFRQ> ;
.
<http://www.cdisc.org/SDTM_IG_EC/V4#IGD_ECDOSFRQ_TMC1>
	rdf:type bo:TMcReference ;
	isoC:label "FREQ"^^xsd:string ;
	bo:enabled "true"^^xsd:boolean ;
	bo:optional "false"^^xsd:boolean ;
	bo:ordinal "1"^^xsd:positiveInteger ;
	bo:reference <http://www.cdisc.org/C71113/V56#C71113> ;
	bo:context <http://www.cdisc.org/CT/V57#TH> ;
.
<http://www.cdisc.org/SDTM_IG_EC/V4#IGD_ECDOSTOT>
	rdf:type bd:SdtmDomainVariable ;
	isoC:label "Total Daily Dose"^^xsd:string ;
	bd:rule ""^^xsd:string ;
	bd:ordinal "21"^^xsd:positiveInteger ;
	bd:name "ECDOSTOT"^^xsd:string ;
	bd:description "Total daily dose of ECTRT using the units in ECDOSU. Used when dosing is collected as Total Daily Dose."^^xsd:string ;
	bd:format ""^^xsd:string ;
	bd:ctAndFormat ""^^xsd:string ;
	bd:compliance <http://www.assero.co.uk/CSN#f7d9d4e1-a00a-487e-89db-ebece910ba0d> ;
	bd:basedOnClassVariable <http://www.cdisc.org/SDTM_MODEL_INTERVENTIONS/V5#CL_--DOSTOT> ;
.
<http://www.cdisc.org/SDTM_IG_EC/V4#IGD_ECDOSRGM>
	rdf:type bd:SdtmDomainVariable ;
	isoC:label "Intended Dose Regimen"^^xsd:string ;
	bd:rule ""^^xsd:string ;
	bd:ordinal "22"^^xsd:positiveInteger ;
	bd:name "ECDOSRGM"^^xsd:string ;
	bd:description "Text description of the intended schedule or regimen for the Intervention. Example: \"TWO WEEKS ON\", \"TWO WEEKS OFF\"."^^xsd:string ;
	bd:format ""^^xsd:string ;
	bd:ctAndFormat ""^^xsd:string ;
	bd:compliance <http://www.assero.co.uk/CSN#f7d9d4e1-a00a-487e-89db-ebece910ba0d> ;
	bd:basedOnClassVariable <http://www.cdisc.org/SDTM_MODEL_INTERVENTIONS/V6#CL_--DOSRGM> ;
.
<http://www.cdisc.org/SDTM_IG_EC/V4#IGD_ECROUTE>
	rdf:type bd:SdtmDomainVariable ;
	isoC:label "Route of Administration"^^xsd:string ;
	bd:rule ""^^xsd:string ;
	bd:ordinal "23"^^xsd:positiveInteger ;
	bd:name "ECROUTE"^^xsd:string ;
	bd:description "Route of administration for the intervention. Examples: \"ORAL\", \"INTRAVENOUS\"."^^xsd:string ;
	bd:format ""^^xsd:string ;
	bd:ctAndFormat "(ROUTE)"^^xsd:string ;
	bd:compliance <http://www.assero.co.uk/CSN#f7d9d4e1-a00a-487e-89db-ebece910ba0d> ;
	bd:ctReference <http://www.cdisc.org/SDTM_IG_EC/V4#IGD_ECROUTE_TMC1> ;
	bd:basedOnClassVariable <http://www.cdisc.org/SDTM_MODEL_INTERVENTIONS/V6#CL_--ROUTE> ;
.
<http://www.cdisc.org/SDTM_IG_EC/V4#IGD_ECROUTE_TMC1>
	rdf:type bo:TMcReference ;
	isoC:label "ROUTE"^^xsd:string ;
	bo:enabled "true"^^xsd:boolean ;
	bo:optional "false"^^xsd:boolean ;
	bo:ordinal "1"^^xsd:positiveInteger ;
	bo:reference <http://www.cdisc.org/C66738/V49#C66738_C38114> ;
	bo:context <http://www.cdisc.org/CT/V57#TH> ;
.
<http://www.cdisc.org/SDTM_IG_EC/V4#IGD_ECLOT>
	rdf:type bd:SdtmDomainVariable ;
	isoC:label "Lot Number"^^xsd:string ;
	bd:rule ""^^xsd:string ;
	bd:ordinal "24"^^xsd:positiveInteger ;
	bd:name "ECLOT"^^xsd:string ;
	bd:description "Lot Number of the ECTRT product."^^xsd:string ;
	bd:format ""^^xsd:string ;
	bd:ctAndFormat ""^^xsd:string ;
	bd:compliance <http://www.assero.co.uk/CSN#f7d9d4e1-a00a-487e-89db-ebece910ba0d> ;
	bd:basedOnClassVariable <http://www.cdisc.org/SDTM_MODEL_INTERVENTIONS/V5#CL_--LOT> ;
.
<http://www.cdisc.org/SDTM_IG_EC/V4#IGD_ECLOC>
	rdf:type bd:SdtmDomainVariable ;
	isoC:label "Location of Dose Administration"^^xsd:string ;
	bd:rule ""^^xsd:string ;
	bd:ordinal "25"^^xsd:positiveInteger ;
	bd:name "ECLOC"^^xsd:string ;
	bd:description "Specifies location of administration. Example: \"ARM\", \"LIP\"."^^xsd:string ;
	bd:format ""^^xsd:string ;
	bd:ctAndFormat "(LOC)"^^xsd:string ;
	bd:compliance <http://www.assero.co.uk/CSN#f7d9d4e1-a00a-487e-89db-ebece910ba0d> ;
	bd:ctReference <http://www.cdisc.org/SDTM_IG_EC/V4#IGD_ECLOC_TMC1> ;
	bd:basedOnClassVariable <http://www.cdisc.org/SDTM_MODEL_INTERVENTIONS/V5#CL_--LOC> ;
	bd:isA <http://www.s-cubed.dk/CAR#d219c68101f532de10add2cf42fb9dbeca73d3be> ;
.
<http://www.cdisc.org/SDTM_IG_EC/V4#IGD_ECLOC_TMC1>
	rdf:type bo:TMcReference ;
	isoC:label "LOC"^^xsd:string ;
	bo:enabled "true"^^xsd:boolean ;
	bo:optional "false"^^xsd:boolean ;
	bo:ordinal "1"^^xsd:positiveInteger ;
	bo:reference <http://www.cdisc.org/C74456/V57#C74456> ;
	bo:context <http://www.cdisc.org/CT/V57#TH> ;
.
<http://www.cdisc.org/SDTM_IG_EC/V4#IGD_ECLAT>
	rdf:type bd:SdtmDomainVariable ;
	isoC:label "Laterality"^^xsd:string ;
	bd:rule ""^^xsd:string ;
	bd:ordinal "26"^^xsd:positiveInteger ;
	bd:name "ECLAT"^^xsd:string ;
	bd:description "Qualifier for anatomical location further detailing laterality of the intervention administration. Examples: \"LEFT\", \"RIGHT\"."^^xsd:string ;
	bd:format ""^^xsd:string ;
	bd:ctAndFormat "(LAT)"^^xsd:string ;
	bd:compliance <http://www.assero.co.uk/CSN#f7d9d4e1-a00a-487e-89db-ebece910ba0d> ;
	bd:ctReference <http://www.cdisc.org/SDTM_IG_EC/V4#IGD_ECLAT_TMC1> ;
	bd:basedOnClassVariable <http://www.cdisc.org/SDTM_MODEL_INTERVENTIONS/V6#CL_--LAT> ;
	bd:isA <http://www.s-cubed.dk/CAR#ef3aa1b3b12817712a7c3e62022cbe06bd6c3f08> ;
.
<http://www.cdisc.org/SDTM_IG_EC/V4#IGD_ECLAT_TMC1>
	rdf:type bo:TMcReference ;
	isoC:label "LAT"^^xsd:string ;
	bo:enabled "true"^^xsd:boolean ;
	bo:optional "false"^^xsd:boolean ;
	bo:ordinal "1"^^xsd:positiveInteger ;
	bo:reference <http://www.cdisc.org/C99073/V57#C99073> ;
	bo:context <http://www.cdisc.org/CT/V57#TH> ;
.
<http://www.cdisc.org/SDTM_IG_EC/V4#IGD_ECDIR>
	rdf:type bd:SdtmDomainVariable ;
	isoC:label "Directionality"^^xsd:string ;
	bd:rule ""^^xsd:string ;
	bd:ordinal "27"^^xsd:positiveInteger ;
	bd:name "ECDIR"^^xsd:string ;
	bd:description "Qualifier for anatomical location further detailing directionality. Examples: \"ANTERIOR\", \"LOWER\", \"PROXIMAL\", \"UPPER\"."^^xsd:string ;
	bd:format ""^^xsd:string ;
	bd:ctAndFormat "(DIR)"^^xsd:string ;
	bd:compliance <http://www.assero.co.uk/CSN#f7d9d4e1-a00a-487e-89db-ebece910ba0d> ;
	bd:ctReference <http://www.cdisc.org/SDTM_IG_EC/V4#IGD_ECDIR_TMC1> ;
	bd:basedOnClassVariable <http://www.cdisc.org/SDTM_MODEL_INTERVENTIONS/V6#CL_--DIR> ;
	bd:isA <http://www.s-cubed.dk/CAR#b8480e9c78891769429c713a44f238f2ca3c3abb> ;
.
<http://www.cdisc.org/SDTM_IG_EC/V4#IGD_ECDIR_TMC1>
	rdf:type bo:TMcReference ;
	isoC:label "DIR"^^xsd:string ;
	bo:enabled "true"^^xsd:boolean ;
	bo:optional "false"^^xsd:boolean ;
	bo:ordinal "1"^^xsd:positiveInteger ;
	bo:reference <http://www.cdisc.org/C99074/V55#C99074> ;
	bo:context <http://www.cdisc.org/CT/V57#TH> ;
.
<http://www.cdisc.org/SDTM_IG_EC/V4#IGD_ECPORTOT>
	rdf:type bd:SdtmDomainVariable ;
	isoC:label "Portion or Totality"^^xsd:string ;
	bd:rule ""^^xsd:string ;
	bd:ordinal "28"^^xsd:positiveInteger ;
	bd:name "ECPORTOT"^^xsd:string ;
	bd:description "Qualifier for anatomical location further detailing distribution, which means arrangement of, apportioning of. Examples: \"ENTIRE\", \"SINGLE\", \"SEGMENT\"."^^xsd:string ;
	bd:format ""^^xsd:string ;
	bd:ctAndFormat "(PORTOT)"^^xsd:string ;
	bd:compliance <http://www.assero.co.uk/CSN#f7d9d4e1-a00a-487e-89db-ebece910ba0d> ;
	bd:ctReference <http://www.cdisc.org/SDTM_IG_EC/V4#IGD_ECPORTOT_TMC1> ;
	bd:basedOnClassVariable <http://www.cdisc.org/SDTM_MODEL_INTERVENTIONS/V6#CL_--PORTOT> ;
.
<http://www.cdisc.org/SDTM_IG_EC/V4#IGD_ECPORTOT_TMC1>
	rdf:type bo:TMcReference ;
	isoC:label "PORTOT"^^xsd:string ;
	bo:enabled "true"^^xsd:boolean ;
	bo:optional "false"^^xsd:boolean ;
	bo:ordinal "1"^^xsd:positiveInteger ;
