@prefix : <http://www.cdisc.org/SDTM_IG/V2#> .
@prefix bd: <http://www.assero.co.uk/Tabulation#> .
@prefix isoC: <http://www.assero.co.uk/ISO11179Concepts#> .
@prefix isoT: <http://www.assero.co.uk/ISO11179Types#> .
@prefix isoR: <http://www.assero.co.uk/ISO11179Registration#> .
@prefix isoI: <http://www.assero.co.uk/ISO11179Identification#> .
@prefix bo: <http://www.assero.co.uk/BusinessOperational#> .
@prefix owl: <http://www.w3.org/2002/07/owl#> .
@prefix rdf: <http://www.w3.org/1999/02/22-rdf-syntax-ns#> .
@prefix rdfs: <http://www.w3.org/2000/01/rdf-schema#> .
@prefix xsd: <http://www.w3.org/2001/XMLSchema#> .
@prefix skos: <http://www.w3.org/2004/02/skos/core#> .

<http://www.cdisc.org/SDTM_IG/V2>
	rdf:type owl:Ontology ;
.
:IG
	rdf:type bd:SDTMImplementationGuide ;
	isoC:label "Controlled Terminology"^^xsd:string ;
	isoT:hasState :IG_RS ;
	isoT:hasIdentifier :IG_SI ;
	isoT:hasPreviousVersion <http://www.cdisc.org/SDTM_IG/V1#IG> ;
	isoT:origin "Created from files: 'sdtm_ig_3-1-3.xlsx'"^^xsd:string ;
	isoT:changeDescription ""^^xsd:string ;
	isoT:creationDate "2012-07-16T00:00:00+00:00"^^xsd:dateTime ;
	isoT:lastChangeDate "2012-07-16T00:00:00+00:00"^^xsd:dateTime ;
	isoT:explanatoryComment ""^^xsd:string ;
	bo:hasManaged :IG_R1 ;
	bo:hasManaged :IG_R2 ;
	bo:hasManaged :IG_R3 ;
	bo:hasManaged :IG_R4 ;
	bo:hasManaged :IG_R5 ;
	bo:hasManaged :IG_R6 ;
	bo:hasManaged :IG_R7 ;
	bo:hasManaged :IG_R8 ;
	bo:hasManaged :IG_R9 ;
	bo:hasManaged :IG_R10 ;
	bo:hasManaged :IG_R11 ;
	bo:hasManaged :IG_R12 ;
	bo:hasManaged :IG_R13 ;
	bo:hasManaged :IG_R14 ;
	bo:hasManaged :IG_R15 ;
	bo:hasManaged :IG_R16 ;
	bo:hasManaged :IG_R17 ;
	bo:hasManaged :IG_R18 ;
	bo:hasManaged :IG_R19 ;
	bo:hasManaged :IG_R20 ;
	bo:hasManaged :IG_R21 ;
	bo:hasManaged :IG_R22 ;
	bo:hasManaged :IG_R23 ;
	bo:hasManaged :IG_R24 ;
	bo:hasManaged :IG_R25 ;
	bo:hasManaged :IG_R26 ;
	bo:hasManaged :IG_R27 ;
	bo:hasManaged :IG_R28 ;
	bo:hasManaged :IG_R29 ;
	bo:hasManaged :IG_R30 ;
	bo:hasManaged :IG_R31 ;
	bo:hasManaged :IG_R32 ;
	bo:hasManaged :IG_R33 ;
	bo:hasManaged :IG_R34 ;
	bo:hasManaged :IG_R35 ;
.
:IG_RS
	rdf:type isoR:RegistrationState ;
	isoR:registrationStatus "Standard"^^xsd:string ;
	isoR:administrativeNote ""^^xsd:string ;
	isoR:effectiveDate "2016-01-01T00:00:00+00:00"^^xsd:dateTime ;
	isoR:untilDate "2016-01-01T00:00:00+00:00"^^xsd:dateTime ;
	isoR:unresolvedIssue ""^^xsd:string ;
	isoR:administrativeStatus ""^^xsd:string ;
	isoR:previousState "Standard"^^xsd:string ;
	isoR:multipleEdit "false"^^xsd:boolean ;
	isoR:byAuthority <http://www.assero.co.uk/RA#DUNS084433759> ;
.
:IG_SI
	rdf:type isoI:ScopedIdentifier ;
	isoI:identifier "SDTM IG"^^xsd:string ;
	isoI:versionLabel "2012-07-16 Release"^^xsd:string ;
	isoI:version "2"^^xsd:positiveInteger ;
	isoI:semanticVersion "2.0.0"^^xsd:string ;
	isoI:hasScope <http://www.assero.co.uk/NS#CDISC> ;
.
:IG_R1
	rdf:type bo:Reference ;
	isoC:label ""^^xsd:string ;
	bo:enabled "true"^^xsd:boolean ;
	bo:optional "false"^^xsd:boolean ;
	bo:ordinal "1"^^xsd:positiveInteger ;
	bo:reference <http://www.cdisc.org/DM/V2> ;
.
:IG_R2
	rdf:type bo:Reference ;
	isoC:label ""^^xsd:string ;
	bo:enabled "true"^^xsd:boolean ;
	bo:optional "false"^^xsd:boolean ;
	bo:ordinal "2"^^xsd:positiveInteger ;
	bo:reference <http://www.cdisc.org/CO/V2> ;
.
:IG_R3
	rdf:type bo:Reference ;
	isoC:label ""^^xsd:string ;
	bo:enabled "true"^^xsd:boolean ;
	bo:optional "false"^^xsd:boolean ;
	bo:ordinal "3"^^xsd:positiveInteger ;
	bo:reference <http://www.cdisc.org/SE/V2> ;
.
:IG_R4
	rdf:type bo:Reference ;
	isoC:label ""^^xsd:string ;
	bo:enabled "true"^^xsd:boolean ;
	bo:optional "false"^^xsd:boolean ;
	bo:ordinal "4"^^xsd:positiveInteger ;
	bo:reference <http://www.cdisc.org/SV/V2> ;
.
:IG_R5
	rdf:type bo:Reference ;
	isoC:label ""^^xsd:string ;
	bo:enabled "true"^^xsd:boolean ;
	bo:optional "false"^^xsd:boolean ;
	bo:ordinal "5"^^xsd:positiveInteger ;
	bo:reference <http://www.cdisc.org/CM/V2> ;
.
:IG_R6
	rdf:type bo:Reference ;
	isoC:label ""^^xsd:string ;
	bo:enabled "true"^^xsd:boolean ;
	bo:optional "false"^^xsd:boolean ;
	bo:ordinal "6"^^xsd:positiveInteger ;
	bo:reference <http://www.cdisc.org/EX/V2> ;
.
:IG_R7
	rdf:type bo:Reference ;
	isoC:label ""^^xsd:string ;
	bo:enabled "true"^^xsd:boolean ;
	bo:optional "false"^^xsd:boolean ;
	bo:ordinal "7"^^xsd:positiveInteger ;
	bo:reference <http://www.cdisc.org/SU/V2> ;
.
:IG_R8
	rdf:type bo:Reference ;
	isoC:label ""^^xsd:string ;
	bo:enabled "true"^^xsd:boolean ;
	bo:optional "false"^^xsd:boolean ;
	bo:ordinal "8"^^xsd:positiveInteger ;
	bo:reference <http://www.cdisc.org/AE/V2> ;
.
:IG_R9
	rdf:type bo:Reference ;
	isoC:label ""^^xsd:string ;
	bo:enabled "true"^^xsd:boolean ;
	bo:optional "false"^^xsd:boolean ;
	bo:ordinal "9"^^xsd:positiveInteger ;
	bo:reference <http://www.cdisc.org/DS/V2> ;
.
:IG_R10
	rdf:type bo:Reference ;
	isoC:label ""^^xsd:string ;
	bo:enabled "true"^^xsd:boolean ;
	bo:optional "false"^^xsd:boolean ;
	bo:ordinal "10"^^xsd:positiveInteger ;
	bo:reference <http://www.cdisc.org/MH/V2> ;
.
:IG_R11
	rdf:type bo:Reference ;
	isoC:label ""^^xsd:string ;
	bo:enabled "true"^^xsd:boolean ;
	bo:optional "false"^^xsd:boolean ;
	bo:ordinal "11"^^xsd:positiveInteger ;
	bo:reference <http://www.cdisc.org/DV/V2> ;
.
:IG_R12
	rdf:type bo:Reference ;
	isoC:label ""^^xsd:string ;
	bo:enabled "true"^^xsd:boolean ;
	bo:optional "false"^^xsd:boolean ;
	bo:ordinal "12"^^xsd:positiveInteger ;
	bo:reference <http://www.cdisc.org/CE/V2> ;
.
:IG_R13
	rdf:type bo:Reference ;
	isoC:label ""^^xsd:string ;
	bo:enabled "true"^^xsd:boolean ;
	bo:optional "false"^^xsd:boolean ;
	bo:ordinal "13"^^xsd:positiveInteger ;
	bo:reference <http://www.cdisc.org/EG/V2> ;
.
:IG_R14
	rdf:type bo:Reference ;
	isoC:label ""^^xsd:string ;
	bo:enabled "true"^^xsd:boolean ;
	bo:optional "false"^^xsd:boolean ;
	bo:ordinal "14"^^xsd:positiveInteger ;
	bo:reference <http://www.cdisc.org/IE/V2> ;
.
:IG_R15
	rdf:type bo:Reference ;
	isoC:label ""^^xsd:string ;
	bo:enabled "true"^^xsd:boolean ;
	bo:optional "false"^^xsd:boolean ;
	bo:ordinal "15"^^xsd:positiveInteger ;
	bo:reference <http://www.cdisc.org/LB/V2> ;
.
:IG_R16
	rdf:type bo:Reference ;
	isoC:label ""^^xsd:string ;
	bo:enabled "true"^^xsd:boolean ;
	bo:optional "false"^^xsd:boolean ;
	bo:ordinal "16"^^xsd:positiveInteger ;
	bo:reference <http://www.cdisc.org/PE/V2> ;
.
:IG_R17
	rdf:type bo:Reference ;
	isoC:label ""^^xsd:string ;
	bo:enabled "true"^^xsd:boolean ;
	bo:optional "false"^^xsd:boolean ;
	bo:ordinal "17"^^xsd:positiveInteger ;
	bo:reference <http://www.cdisc.org/QS/V2> ;
.
:IG_R18
	rdf:type bo:Reference ;
	isoC:label ""^^xsd:string ;
	bo:enabled "true"^^xsd:boolean ;
	bo:optional "false"^^xsd:boolean ;
	bo:ordinal "18"^^xsd:positiveInteger ;
	bo:reference <http://www.cdisc.org/SC/V2> ;
.
:IG_R19
	rdf:type bo:Reference ;
	isoC:label ""^^xsd:string ;
	bo:enabled "true"^^xsd:boolean ;
	bo:optional "false"^^xsd:boolean ;
	bo:ordinal "19"^^xsd:positiveInteger ;
	bo:reference <http://www.cdisc.org/VS/V2> ;
.
:IG_R20
	rdf:type bo:Reference ;
	isoC:label ""^^xsd:string ;
	bo:enabled "true"^^xsd:boolean ;
	bo:optional "false"^^xsd:boolean ;
	bo:ordinal "20"^^xsd:positiveInteger ;
	bo:reference <http://www.cdisc.org/DA/V2> ;
.
:IG_R21
	rdf:type bo:Reference ;
	isoC:label ""^^xsd:string ;
	bo:enabled "true"^^xsd:boolean ;
	bo:optional "false"^^xsd:boolean ;
	bo:ordinal "21"^^xsd:positiveInteger ;
	bo:reference <http://www.cdisc.org/MB/V2> ;
.
:IG_R22
	rdf:type bo:Reference ;
	isoC:label ""^^xsd:string ;
	bo:enabled "true"^^xsd:boolean ;
	bo:optional "false"^^xsd:boolean ;
	bo:ordinal "22"^^xsd:positiveInteger ;
	bo:reference <http://www.cdisc.org/MS/V2> ;
.
:IG_R23
	rdf:type bo:Reference ;
	isoC:label ""^^xsd:string ;
	bo:enabled "true"^^xsd:boolean ;
	bo:optional "false"^^xsd:boolean ;
	bo:ordinal "23"^^xsd:positiveInteger ;
	bo:reference <http://www.cdisc.org/PC/V2> ;
.
:IG_R24
	rdf:type bo:Reference ;
	isoC:label ""^^xsd:string ;
	bo:enabled "true"^^xsd:boolean ;
	bo:optional "false"^^xsd:boolean ;
	bo:ordinal "24"^^xsd:positiveInteger ;
	bo:reference <http://www.cdisc.org/PP/V2> ;
.
:IG_R25
	rdf:type bo:Reference ;
	isoC:label ""^^xsd:string ;
	bo:enabled "true"^^xsd:boolean ;
	bo:optional "false"^^xsd:boolean ;
	bo:ordinal "25"^^xsd:positiveInteger ;
	bo:reference <http://www.cdisc.org/TU/V2> ;
.
:IG_R26
	rdf:type bo:Reference ;
	isoC:label ""^^xsd:string ;
	bo:enabled "true"^^xsd:boolean ;
	bo:optional "false"^^xsd:boolean ;
	bo:ordinal "26"^^xsd:positiveInteger ;
	bo:reference <http://www.cdisc.org/TR/V2> ;
.
:IG_R27
	rdf:type bo:Reference ;
	isoC:label ""^^xsd:string ;
	bo:enabled "true"^^xsd:boolean ;
	bo:optional "false"^^xsd:boolean ;
	bo:ordinal "27"^^xsd:positiveInteger ;
	bo:reference <http://www.cdisc.org/RS/V2> ;
.
:IG_R28
	rdf:type bo:Reference ;
	isoC:label ""^^xsd:string ;
	bo:enabled "true"^^xsd:boolean ;
	bo:optional "false"^^xsd:boolean ;
	bo:ordinal "28"^^xsd:positiveInteger ;
	bo:reference <http://www.cdisc.org/FA/V2> ;
.
:IG_R29
	rdf:type bo:Reference ;
	isoC:label ""^^xsd:string ;
	bo:enabled "true"^^xsd:boolean ;
	bo:optional "false"^^xsd:boolean ;
	bo:ordinal "29"^^xsd:positiveInteger ;
	bo:reference <http://www.cdisc.org/TA/V2> ;
.
:IG_R30
	rdf:type bo:Reference ;
	isoC:label ""^^xsd:string ;
	bo:enabled "true"^^xsd:boolean ;
	bo:optional "false"^^xsd:boolean ;
	bo:ordinal "30"^^xsd:positiveInteger ;
	bo:reference <http://www.cdisc.org/TE/V2> ;
.
:IG_R31
	rdf:type bo:Reference ;
	isoC:label ""^^xsd:string ;
	bo:enabled "true"^^xsd:boolean ;
	bo:optional "false"^^xsd:boolean ;
	bo:ordinal "31"^^xsd:positiveInteger ;
	bo:reference <http://www.cdisc.org/TV/V2> ;
.
:IG_R32
	rdf:type bo:Reference ;
	isoC:label ""^^xsd:string ;
	bo:enabled "true"^^xsd:boolean ;
	bo:optional "false"^^xsd:boolean ;
	bo:ordinal "32"^^xsd:positiveInteger ;
	bo:reference <http://www.cdisc.org/TI/V2> ;
.
:IG_R33
	rdf:type bo:Reference ;
	isoC:label ""^^xsd:string ;
	bo:enabled "true"^^xsd:boolean ;
	bo:optional "false"^^xsd:boolean ;
	bo:ordinal "33"^^xsd:positiveInteger ;
	bo:reference <http://www.cdisc.org/TS/V2> ;
.
:IG_R34
	rdf:type bo:Reference ;
	isoC:label ""^^xsd:string ;
	bo:enabled "true"^^xsd:boolean ;
	bo:optional "false"^^xsd:boolean ;
	bo:ordinal "34"^^xsd:positiveInteger ;
	bo:reference <http://www.cdisc.org/RELREC/V2> ;
.
:IG_R35
	rdf:type bo:Reference ;
	isoC:label ""^^xsd:string ;
	bo:enabled "true"^^xsd:boolean ;
	bo:optional "false"^^xsd:boolean ;
	bo:ordinal "35"^^xsd:positiveInteger ;
	bo:reference <http://www.cdisc.org/SUPPQUAL/V2> ;
.
<http://www.cdisc.org/DM/V2>
	rdf:type bd:SdtmDomain ;
	isoC:label "Demographics"^^xsd:string ;
	isoT:hasState <http://www.cdisc.org/DM/V2#RS> ;
	isoT:hasIdentifier <http://www.cdisc.org/DM/V2#SI> ;
	isoT:hasPreviousVersion <http://www.cdisc.org/DM/V1> ;
	isoT:origin ""^^xsd:string ;
	isoT:changeDescription ""^^xsd:string ;
	isoT:creationDate "2012-07-16T00:00:00+00:00"^^xsd:dateTime ;
	isoT:lastChangeDate "2012-07-16T00:00:00+00:00"^^xsd:dateTime ;
	isoT:explanatoryComment ""^^xsd:string ;
	bd:rule ""^^xsd:string ;
	bd:ordinal "1"^^xsd:positiveInteger ;
	bd:includesColumn <http://www.cdisc.org/DM/V2#STUDYID> ;
	bd:includesColumn <http://www.cdisc.org/DM/V2#DOMAIN> ;
	bd:includesColumn <http://www.cdisc.org/DM/V2#USUBJID> ;
	bd:includesColumn <http://www.cdisc.org/DM/V2#SUBJID> ;
	bd:includesColumn <http://www.cdisc.org/DM/V2#RFSTDTC> ;
	bd:includesColumn <http://www.cdisc.org/DM/V2#RFENDTC> ;
	bd:includesColumn <http://www.cdisc.org/DM/V2#RFXSTDTC> ;
	bd:includesColumn <http://www.cdisc.org/DM/V2#RFXENDTC> ;
	bd:includesColumn <http://www.cdisc.org/DM/V2#RFICDTC> ;
	bd:includesColumn <http://www.cdisc.org/DM/V2#RFPENDTC> ;
	bd:includesColumn <http://www.cdisc.org/DM/V2#DTHDTC> ;
	bd:includesColumn <http://www.cdisc.org/DM/V2#DTHFL> ;
	bd:includesColumn <http://www.cdisc.org/DM/V2#SITEID> ;
	bd:includesColumn <http://www.cdisc.org/DM/V2#INVID> ;
	bd:includesColumn <http://www.cdisc.org/DM/V2#INVNAM> ;
	bd:includesColumn <http://www.cdisc.org/DM/V2#BRTHDTC> ;
	bd:includesColumn <http://www.cdisc.org/DM/V2#AGE> ;
	bd:includesColumn <http://www.cdisc.org/DM/V2#AGEU> ;
	bd:includesColumn <http://www.cdisc.org/DM/V2#SEX> ;
	bd:includesColumn <http://www.cdisc.org/DM/V2#RACE> ;
	bd:includesColumn <http://www.cdisc.org/DM/V2#ETHNIC> ;
	bd:includesColumn <http://www.cdisc.org/DM/V2#ARMCD> ;
	bd:includesColumn <http://www.cdisc.org/DM/V2#ARM> ;
	bd:includesColumn <http://www.cdisc.org/DM/V2#ACTARMCD> ;
	bd:includesColumn <http://www.cdisc.org/DM/V2#ACTARM> ;
	bd:includesColumn <http://www.cdisc.org/DM/V2#COUNTRY> ;
	bd:includesColumn <http://www.cdisc.org/DM/V2#DMDTC> ;
	bd:includesColumn <http://www.cdisc.org/DM/V2#DMDY> ;
	bd:prefix "DM"^^xsd:string ;
	bd:structure "One record per subject"^^xsd:string ;
	bd:basedOnClass <http://www.cdisc.org/SDTM_MODEL_DM/V2#CL> ;
.
<http://www.cdisc.org/DM/V2#RS>
	rdf:type isoR:RegistrationState ;
	isoR:registrationStatus "Standard"^^xsd:string ;
	isoR:administrativeNote ""^^xsd:string ;
	isoR:effectiveDate "2016-01-01T00:00:00+00:00"^^xsd:dateTime ;
	isoR:untilDate "2016-01-01T00:00:00+00:00"^^xsd:dateTime ;
	isoR:unresolvedIssue ""^^xsd:string ;
	isoR:administrativeStatus ""^^xsd:string ;
	isoR:previousState "Standard"^^xsd:string ;
	isoR:multipleEdit "false"^^xsd:boolean ;
	isoR:byAuthority <http://www.assero.co.uk/RA#DUNS084433759> ;
.
<http://www.cdisc.org/DM/V2#SI>
	rdf:type isoI:ScopedIdentifier ;
	isoI:identifier "DM"^^xsd:string ;
	isoI:versionLabel "2012-07-16 Release"^^xsd:string ;
	isoI:version "2"^^xsd:positiveInteger ;
	isoI:semanticVersion "2.0.0"^^xsd:string ;
	isoI:hasScope <http://www.assero.co.uk/NS#CDISC> ;
.
<http://www.cdisc.org/DM/V2#STUDYID>
	rdf:type bd:SdtmDomainVariable ;
	isoC:label "Study Identifier"^^xsd:string ;
	bd:rule ""^^xsd:string ;
	bd:ordinal "1"^^xsd:positiveInteger ;
	bd:name "STUDYID"^^xsd:string ;
	bd:description "Unique identifier for a study."^^xsd:string ;
	bd:format ""^^xsd:string ;
	bd:ctAndFormat ""^^xsd:string ;
	bd:compliance <http://www.assero.co.uk/CSN#8f112ba7-caa3-4f34-a9fc-8bc808b13955> ;
	bd:basedOnClassVariable <http://www.cdisc.org/SDTM_MODEL_DM/V1#CL_STUDYID> ;
.
<http://www.cdisc.org/DM/V2#DOMAIN>
	rdf:type bd:SdtmDomainVariable ;
	isoC:label "Domain Abbreviation"^^xsd:string ;
	bd:rule ""^^xsd:string ;
	bd:ordinal "2"^^xsd:positiveInteger ;
	bd:name "DOMAIN"^^xsd:string ;
	bd:description "Two-character abbreviation for the domain."^^xsd:string ;
	bd:format ""^^xsd:string ;
	bd:ctAndFormat "(DOMAIN)"^^xsd:string ;
	bd:compliance <http://www.assero.co.uk/CSN#8f112ba7-caa3-4f34-a9fc-8bc808b13955> ;
	bd:ctReference <http://www.cdisc.org/DM/V2#DOMAIN_TMC1> ;
	bd:basedOnClassVariable <http://www.cdisc.org/SDTM_MODEL_DM/V1#CL_DOMAIN> ;
.
<http://www.cdisc.org/DM/V2#DOMAIN_TMC1>
	rdf:type bo:TMcReference ;
	isoC:label "DOMAIN"^^xsd:string ;
	bo:enabled "true"^^xsd:boolean ;
	bo:optional "false"^^xsd:boolean ;
	bo:ordinal "1"^^xsd:positiveInteger ;
	bo:reference <http://www.cdisc.org/C66734/V28#C66734> ;
	bo:context <http://www.cdisc.org/CT/V31#TH> ;
.
<http://www.cdisc.org/DM/V2#USUBJID>
	rdf:type bd:SdtmDomainVariable ;
	isoC:label "Unique Subject Identifier"^^xsd:string ;
	bd:rule ""^^xsd:string ;
	bd:ordinal "3"^^xsd:positiveInteger ;
	bd:name "USUBJID"^^xsd:string ;
	bd:description "Identifier used to uniquely identify a subject across all studies for all applications or submissions involving the product. This must be a unique number, and could be a compound identifier formed by concatenating STUDYID-SITEID-SUBJID."^^xsd:string ;
	bd:format ""^^xsd:string ;
	bd:ctAndFormat ""^^xsd:string ;
	bd:compliance <http://www.assero.co.uk/CSN#8f112ba7-caa3-4f34-a9fc-8bc808b13955> ;
	bd:basedOnClassVariable <http://www.cdisc.org/SDTM_MODEL_DM/V2#CL_USUBJID> ;
.
<http://www.cdisc.org/DM/V2#SUBJID>
	rdf:type bd:SdtmDomainVariable ;
	isoC:label "Subject Identifier for the Study"^^xsd:string ;
	bd:rule ""^^xsd:string ;
	bd:ordinal "4"^^xsd:positiveInteger ;
	bd:name "SUBJID"^^xsd:string ;
	bd:description "Subject identifier, which must be unique within the study. Often the ID of the subject as recorded on a CRF."^^xsd:string ;
	bd:format ""^^xsd:string ;
	bd:ctAndFormat ""^^xsd:string ;
	bd:compliance <http://www.assero.co.uk/CSN#8f112ba7-caa3-4f34-a9fc-8bc808b13955> ;
	bd:basedOnClassVariable <http://www.cdisc.org/SDTM_MODEL_DM/V1#CL_SUBJID> ;
.
<http://www.cdisc.org/DM/V2#RFSTDTC>
	rdf:type bd:SdtmDomainVariable ;
	isoC:label "Subject Reference Start Date/Time"^^xsd:string ;
	bd:rule ""^^xsd:string ;
	bd:ordinal "5"^^xsd:positiveInteger ;
	bd:name "RFSTDTC"^^xsd:string ;
	bd:description "Reference Start Date/time for the subject in ISO 8601 character format. Usually equivalent to date/time when subject was first exposed to study treatment. Required for all randomized subjects; will be null for all subjects who did not meet the milestone the date requires, such as screen failures or unassigned subjects."^^xsd:string ;
	bd:format "ISO 8601"^^xsd:string ;
	bd:ctAndFormat "ISO 8601"^^xsd:string ;
	bd:compliance <http://www.assero.co.uk/CSN#fc544083-2437-4ec0-97f4-767598bee682> ;
	bd:basedOnClassVariable <http://www.cdisc.org/SDTM_MODEL_DM/V1#CL_RFSTDTC> ;
.
<http://www.cdisc.org/DM/V2#RFENDTC>
	rdf:type bd:SdtmDomainVariable ;
	isoC:label "Subject Reference End Date/Time"^^xsd:string ;
	bd:rule ""^^xsd:string ;
	bd:ordinal "6"^^xsd:positiveInteger ;
	bd:name "RFENDTC"^^xsd:string ;
	bd:description "Reference End Date/time for the subject in ISO 8601 character format. Usually equivalent to the date/time when subject was determined to have ended the trial, and often equivalent to date/time of last exposure to study treatment. Required for all randomized subjects; null for screen failures or unassigned subjects."^^xsd:string ;
	bd:format "ISO 8601"^^xsd:string ;
	bd:ctAndFormat "ISO 8601"^^xsd:string ;
	bd:compliance <http://www.assero.co.uk/CSN#fc544083-2437-4ec0-97f4-767598bee682> ;
	bd:basedOnClassVariable <http://www.cdisc.org/SDTM_MODEL_DM/V1#CL_RFENDTC> ;
.
<http://www.cdisc.org/DM/V2#RFXSTDTC>
	rdf:type bd:SdtmDomainVariable ;
	isoC:label "Date/Time of First Study Treatment"^^xsd:string ;
	bd:rule ""^^xsd:string ;
	bd:ordinal "7"^^xsd:positiveInteger ;
	bd:name "RFXSTDTC"^^xsd:string ;
	bd:description "First date of exposure to any protocol-specified treatment or therapy, equal to the earliest value of EXSTDTC."^^xsd:string ;
	bd:format "ISO 8601"^^xsd:string ;
	bd:ctAndFormat "ISO 8601"^^xsd:string ;
	bd:compliance <http://www.assero.co.uk/CSN#fc544083-2437-4ec0-97f4-767598bee682> ;
	bd:basedOnClassVariable <http://www.cdisc.org/SDTM_MODEL_DM/V2#CL_RFXSTDTC> ;
.
<http://www.cdisc.org/DM/V2#RFXENDTC>
	rdf:type bd:SdtmDomainVariable ;
	isoC:label "Date/Time of Last Study Treatment"^^xsd:string ;
	bd:rule ""^^xsd:string ;
	bd:ordinal "8"^^xsd:positiveInteger ;
	bd:name "RFXENDTC"^^xsd:string ;
	bd:description "Last date of exposure to any protocol-specified treatment or therapy, equal to the latest value of EXENDTC (or the latest value of EXSTDTC if EXENDTC was not collected or is missing)."^^xsd:string ;
	bd:format "ISO 8601"^^xsd:string ;
	bd:ctAndFormat "ISO 8601"^^xsd:string ;
	bd:compliance <http://www.assero.co.uk/CSN#fc544083-2437-4ec0-97f4-767598bee682> ;
	bd:basedOnClassVariable <http://www.cdisc.org/SDTM_MODEL_DM/V2#CL_RFXENDTC> ;
.
<http://www.cdisc.org/DM/V2#RFICDTC>
	rdf:type bd:SdtmDomainVariable ;
	isoC:label "Date/Time of Informed Consent"^^xsd:string ;
	bd:rule ""^^xsd:string ;
	bd:ordinal "9"^^xsd:positiveInteger ;
	bd:name "RFICDTC"^^xsd:string ;
	bd:description "Date/time of informed consent in ISO 8601 character format. This will be the same as the date of informed consent in the Disposition domain, if that protocol milestone is documented. Would be null only in studies not collecting the date of informed consent."^^xsd:string ;
	bd:format "ISO 8601"^^xsd:string ;
	bd:ctAndFormat "ISO 8601"^^xsd:string ;
	bd:compliance <http://www.assero.co.uk/CSN#fc544083-2437-4ec0-97f4-767598bee682> ;
	bd:basedOnClassVariable <http://www.cdisc.org/SDTM_MODEL_DM/V2#CL_RFICDTC> ;
.
<http://www.cdisc.org/DM/V2#RFPENDTC>
	rdf:type bd:SdtmDomainVariable ;
	isoC:label "Date/Time of End of Participation"^^xsd:string ;
	bd:rule ""^^xsd:string ;
	bd:ordinal "10"^^xsd:positiveInteger ;
	bd:name "RFPENDTC"^^xsd:string ;
	bd:description "Date/time when subject ended participation or follow-up in a trial, as defined in the protocol, in ISO 8601 character format. Should correspond to the last known date of contact. Examples include completion date, withdrawal date, last follow-up, date recorded for lost to follow up, or death date."^^xsd:string ;
	bd:format "ISO 8601"^^xsd:string ;
	bd:ctAndFormat "ISO 8601"^^xsd:string ;
	bd:compliance <http://www.assero.co.uk/CSN#fc544083-2437-4ec0-97f4-767598bee682> ;
	bd:basedOnClassVariable <http://www.cdisc.org/SDTM_MODEL_DM/V2#CL_RFPENDTC> ;
.
<http://www.cdisc.org/DM/V2#DTHDTC>
	rdf:type bd:SdtmDomainVariable ;
	isoC:label "Date/Time of Death"^^xsd:string ;
	bd:rule ""^^xsd:string ;
	bd:ordinal "11"^^xsd:positiveInteger ;
	bd:name "DTHDTC"^^xsd:string ;
	bd:description "Date/time of death for any subject who died, in ISO 8601 format. Should represent the date/time that is captured in the clinical-trial database."^^xsd:string ;
	bd:format "ISO 8601"^^xsd:string ;
	bd:ctAndFormat "ISO 8601"^^xsd:string ;
	bd:compliance <http://www.assero.co.uk/CSN#fc544083-2437-4ec0-97f4-767598bee682> ;
	bd:basedOnClassVariable <http://www.cdisc.org/SDTM_MODEL_DM/V2#CL_DTHDTC> ;
.
<http://www.cdisc.org/DM/V2#DTHFL>
	rdf:type bd:SdtmDomainVariable ;
	isoC:label "Subject Death Flag"^^xsd:string ;
	bd:rule ""^^xsd:string ;
	bd:ordinal "12"^^xsd:positiveInteger ;
	bd:name "DTHFL"^^xsd:string ;
	bd:description "Indicates the subject died. Should be Y or null. Should be populated even when the death date is unknown."^^xsd:string ;
	bd:format ""^^xsd:string ;
	bd:ctAndFormat "(NY)"^^xsd:string ;
	bd:compliance <http://www.assero.co.uk/CSN#fc544083-2437-4ec0-97f4-767598bee682> ;
	bd:ctReference <http://www.cdisc.org/DM/V2#DTHFL_TMC1> ;
	bd:basedOnClassVariable <http://www.cdisc.org/SDTM_MODEL_DM/V2#CL_DTHFL> ;
.
<http://www.cdisc.org/DM/V2#DTHFL_TMC1>
	rdf:type bo:TMcReference ;
	isoC:label "NY"^^xsd:string ;
	bo:enabled "true"^^xsd:boolean ;
	bo:optional "false"^^xsd:boolean ;
	bo:ordinal "1"^^xsd:positiveInteger ;
	bo:reference <http://www.cdisc.org/C66742/V4#C66742> ;
	bo:context <http://www.cdisc.org/CT/V31#TH> ;
.
<http://www.cdisc.org/DM/V2#SITEID>
	rdf:type bd:SdtmDomainVariable ;
	isoC:label "Study Site Identifier"^^xsd:string ;
	bd:rule ""^^xsd:string ;
	bd:ordinal "13"^^xsd:positiveInteger ;
	bd:name "SITEID"^^xsd:string ;
	bd:description "Unique identifier for a site within a study."^^xsd:string ;
	bd:format ""^^xsd:string ;
	bd:ctAndFormat ""^^xsd:string ;
	bd:compliance <http://www.assero.co.uk/CSN#8f112ba7-caa3-4f34-a9fc-8bc808b13955> ;
	bd:basedOnClassVariable <http://www.cdisc.org/SDTM_MODEL_DM/V2#CL_SITEID> ;
.
<http://www.cdisc.org/DM/V2#INVID>
	rdf:type bd:SdtmDomainVariable ;
	isoC:label "Investigator Identifier"^^xsd:string ;
	bd:rule ""^^xsd:string ;
	bd:ordinal "14"^^xsd:positiveInteger ;
	bd:name "INVID"^^xsd:string ;
	bd:description "An identifier to describe the Investigator for the study. May be used in addition to SITEID. Not needed if SITEID is equivalent to INVID."^^xsd:string ;
	bd:format ""^^xsd:string ;
	bd:ctAndFormat ""^^xsd:string ;
	bd:compliance <http://www.assero.co.uk/CSN#da9f1092-7a20-4c97-9144-8bac2e72d1ea> ;
	bd:basedOnClassVariable <http://www.cdisc.org/SDTM_MODEL_DM/V2#CL_INVID> ;
.
<http://www.cdisc.org/DM/V2#INVNAM>
	rdf:type bd:SdtmDomainVariable ;
	isoC:label "Investigator Name"^^xsd:string ;
	bd:rule ""^^xsd:string ;
	bd:ordinal "15"^^xsd:positiveInteger ;
	bd:name "INVNAM"^^xsd:string ;
	bd:description "Name of the investigator for a site."^^xsd:string ;
	bd:format ""^^xsd:string ;
	bd:ctAndFormat ""^^xsd:string ;
	bd:compliance <http://www.assero.co.uk/CSN#da9f1092-7a20-4c97-9144-8bac2e72d1ea> ;
	bd:basedOnClassVariable <http://www.cdisc.org/SDTM_MODEL_DM/V2#CL_INVNAM> ;
.
<http://www.cdisc.org/DM/V2#BRTHDTC>
	rdf:type bd:SdtmDomainVariable ;
	isoC:label "Date/Time of Birth"^^xsd:string ;
	bd:rule ""^^xsd:string ;
	bd:ordinal "16"^^xsd:positiveInteger ;
	bd:name "BRTHDTC"^^xsd:string ;
	bd:description "Date/time of birth of the subject."^^xsd:string ;
	bd:format "ISO 8601"^^xsd:string ;
	bd:ctAndFormat "ISO 8601"^^xsd:string ;
	bd:compliance <http://www.assero.co.uk/CSN#da9f1092-7a20-4c97-9144-8bac2e72d1ea> ;
	bd:basedOnClassVariable <http://www.cdisc.org/SDTM_MODEL_DM/V2#CL_BRTHDTC> ;
.
<http://www.cdisc.org/DM/V2#AGE>
	rdf:type bd:SdtmDomainVariable ;
	isoC:label "Age"^^xsd:string ;
	bd:rule ""^^xsd:string ;
	bd:ordinal "17"^^xsd:positiveInteger ;
	bd:name "AGE"^^xsd:string ;
	bd:description "Age expressed in AGEU. May be derived from RFSTDTC and BRTHDTC, but BRTHDTC may not be available in all cases (due to subject privacy concerns)."^^xsd:string ;
	bd:format ""^^xsd:string ;
	bd:ctAndFormat ""^^xsd:string ;
	bd:compliance <http://www.assero.co.uk/CSN#fc544083-2437-4ec0-97f4-767598bee682> ;
	bd:basedOnClassVariable <http://www.cdisc.org/SDTM_MODEL_DM/V2#CL_AGE> ;
.
<http://www.cdisc.org/DM/V2#AGEU>
	rdf:type bd:SdtmDomainVariable ;
	isoC:label "Age Units"^^xsd:string ;
	bd:rule ""^^xsd:string ;
	bd:ordinal "18"^^xsd:positiveInteger ;
	bd:name "AGEU"^^xsd:string ;
	bd:description "Units associated with AGE."^^xsd:string ;
	bd:format ""^^xsd:string ;
	bd:ctAndFormat "(AGEU)"^^xsd:string ;
	bd:compliance <http://www.assero.co.uk/CSN#fc544083-2437-4ec0-97f4-767598bee682> ;
	bd:ctReference <http://www.cdisc.org/DM/V2#AGEU_TMC1> ;
	bd:basedOnClassVariable <http://www.cdisc.org/SDTM_MODEL_DM/V2#CL_AGEU> ;
.
<http://www.cdisc.org/DM/V2#AGEU_TMC1>
	rdf:type bo:TMcReference ;
	isoC:label "AGEU"^^xsd:string ;
	bo:enabled "true"^^xsd:boolean ;
	bo:optional "false"^^xsd:boolean ;
	bo:ordinal "1"^^xsd:positiveInteger ;
	bo:reference <http://www.cdisc.org/C66781/V28#C66781> ;
	bo:context <http://www.cdisc.org/CT/V31#TH> ;
.
<http://www.cdisc.org/DM/V2#SEX>
	rdf:type bd:SdtmDomainVariable ;
	isoC:label "Sex"^^xsd:string ;
	bd:rule ""^^xsd:string ;
	bd:ordinal "19"^^xsd:positiveInteger ;
	bd:name "SEX"^^xsd:string ;
	bd:description "Sex of the subject."^^xsd:string ;
	bd:format ""^^xsd:string ;
	bd:ctAndFormat "(SEX)"^^xsd:string ;
	bd:compliance <http://www.assero.co.uk/CSN#8f112ba7-caa3-4f34-a9fc-8bc808b13955> ;
	bd:ctReference <http://www.cdisc.org/DM/V2#SEX_TMC1> ;
	bd:basedOnClassVariable <http://www.cdisc.org/SDTM_MODEL_DM/V2#CL_SEX> ;
.
<http://www.cdisc.org/DM/V2#SEX_TMC1>
	rdf:type bo:TMcReference ;
	isoC:label "SEX"^^xsd:string ;
	bo:enabled "true"^^xsd:boolean ;
	bo:optional "false"^^xsd:boolean ;
	bo:ordinal "1"^^xsd:positiveInteger ;
	bo:reference <http://www.cdisc.org/C66731/V16#C66731> ;
	bo:context <http://www.cdisc.org/CT/V31#TH> ;
.
<http://www.cdisc.org/DM/V2#RACE>
	rdf:type bd:SdtmDomainVariable ;
	isoC:label "Race"^^xsd:string ;
	bd:rule ""^^xsd:string ;
	bd:ordinal "20"^^xsd:positiveInteger ;
	bd:name "RACE"^^xsd:string ;
	bd:description "Race of the subject. Sponsors should refer to \"Collection of Race and Ethnicity Data in Clinical Trials\" (FDA, September 2005) for guidance regarding the collection of race (http://www.fda.gov/cder/guidance/5656fnl.htm) See Assumption below regarding RACE."^^xsd:string ;
	bd:format ""^^xsd:string ;
	bd:ctAndFormat "(RACE)"^^xsd:string ;
	bd:compliance <http://www.assero.co.uk/CSN#fc544083-2437-4ec0-97f4-767598bee682> ;
	bd:ctReference <http://www.cdisc.org/DM/V2#RACE_TMC1> ;
	bd:basedOnClassVariable <http://www.cdisc.org/SDTM_MODEL_DM/V2#CL_RACE> ;
.
<http://www.cdisc.org/DM/V2#RACE_TMC1>
	rdf:type bo:TMcReference ;
	isoC:label "RACE"^^xsd:string ;
	bo:enabled "true"^^xsd:boolean ;
	bo:optional "false"^^xsd:boolean ;
	bo:ordinal "1"^^xsd:positiveInteger ;
	bo:reference <http://www.cdisc.org/C74457/V10#C74457> ;
	bo:context <http://www.cdisc.org/CT/V31#TH> ;
.
<http://www.cdisc.org/DM/V2#ETHNIC>
	rdf:type bd:SdtmDomainVariable ;
	isoC:label "Ethnicity"^^xsd:string ;
	bd:rule ""^^xsd:string ;
	bd:ordinal "21"^^xsd:positiveInteger ;
	bd:name "ETHNIC"^^xsd:string ;
	bd:description "The ethnicity of the subject. Sponsors should refer to \"Collection of Race and Ethnicity Data in Clinical Trials\" (FDA, September 2005) for guidance regarding the collection of ethnicity (http://www.fda.gov/cder/guidance/5656fnl.htm)."^^xsd:string ;
	bd:format ""^^xsd:string ;
	bd:ctAndFormat "(ETHNIC)"^^xsd:string ;
	bd:compliance <http://www.assero.co.uk/CSN#da9f1092-7a20-4c97-9144-8bac2e72d1ea> ;
	bd:ctReference <http://www.cdisc.org/DM/V2#ETHNIC_TMC1> ;
	bd:basedOnClassVariable <http://www.cdisc.org/SDTM_MODEL_DM/V2#CL_ETHNIC> ;
.
<http://www.cdisc.org/DM/V2#ETHNIC_TMC1>
	rdf:type bo:TMcReference ;
	isoC:label "ETHNIC"^^xsd:string ;
	bo:enabled "true"^^xsd:boolean ;
	bo:optional "false"^^xsd:boolean ;
	bo:ordinal "1"^^xsd:positiveInteger ;
	bo:reference <http://www.cdisc.org/C66790/V19#C66790> ;
	bo:context <http://www.cdisc.org/CT/V31#TH> ;
.
<http://www.cdisc.org/DM/V2#ARMCD>
	rdf:type bd:SdtmDomainVariable ;
	isoC:label "Planned Arm Code"^^xsd:string ;
	bd:rule ""^^xsd:string ;
	bd:ordinal "22"^^xsd:positiveInteger ;
	bd:name "ARMCD"^^xsd:string ;
	bd:description "ARMCD is limited to 20 characters and does not have special character restrictions. The maximum length of ARMCD is longer than for other \"short\" variables to accommodate the kind of values that are likely to be needed for crossover trials. For example, if ARMCD values for a seven-period crossover were constructed using two-character abbreviations for each treatment and separating hyphens, the length of ARMCD values would be 20."^^xsd:string ;
	bd:format ""^^xsd:string ;
	bd:ctAndFormat ""^^xsd:string ;
	bd:compliance <http://www.assero.co.uk/CSN#8f112ba7-caa3-4f34-a9fc-8bc808b13955> ;
	bd:basedOnClassVariable <http://www.cdisc.org/SDTM_MODEL_DM/V2#CL_ARMCD> ;
.
<http://www.cdisc.org/DM/V2#ARM>
	rdf:type bd:SdtmDomainVariable ;
	isoC:label "Description of Planned Arm"^^xsd:string ;
	bd:rule ""^^xsd:string ;
	bd:ordinal "23"^^xsd:positiveInteger ;
	bd:name "ARM"^^xsd:string ;
	bd:description "Name of the Arm to which the subject was assigned."^^xsd:string ;
	bd:format ""^^xsd:string ;
	bd:ctAndFormat ""^^xsd:string ;
	bd:compliance <http://www.assero.co.uk/CSN#8f112ba7-caa3-4f34-a9fc-8bc808b13955> ;
	bd:basedOnClassVariable <http://www.cdisc.org/SDTM_MODEL_DM/V2#CL_ARM> ;
.
<http://www.cdisc.org/DM/V2#ACTARMCD>
	rdf:type bd:SdtmDomainVariable ;
	isoC:label "Actual Arm Code"^^xsd:string ;
	bd:rule ""^^xsd:string ;
	bd:ordinal "24"^^xsd:positiveInteger ;
	bd:name "ACTARMCD"^^xsd:string ;
	bd:description "Code of actual Arm. When an Arm is not planned (not in Trial Arms), ACTARMCD will be UNPLAN. Randomized subjects who were not treated will be given a value of NOTTRT. Values should be \"SCRNFAIL\" for screen failures and \"NOTASSGN\" for subjects not assigned to treatment. Restricted to values in Trial Arms in all other cases.\n\nACTARMCD is limited to 20 characters and does not have special character restrictions. The maximum length of ACTARMCD is longer than for other short variables to accommodate the kind of values that are likely to be needed for crossover trials."^^xsd:string ;
	bd:format ""^^xsd:string ;
	bd:ctAndFormat ""^^xsd:string ;
	bd:compliance <http://www.assero.co.uk/CSN#8f112ba7-caa3-4f34-a9fc-8bc808b13955> ;
	bd:basedOnClassVariable <http://www.cdisc.org/SDTM_MODEL_DM/V2#CL_ACTARMCD> ;
.
<http://www.cdisc.org/DM/V2#ACTARM>
	rdf:type bd:SdtmDomainVariable ;
	isoC:label "Description of Actual Arm"^^xsd:string ;
	bd:rule ""^^xsd:string ;
	bd:ordinal "25"^^xsd:positiveInteger ;
	bd:name "ACTARM"^^xsd:string ;
	bd:description "Description of actual Arm. When an Arm is not planned (not in Trial Arms), ACTARM will be \"Unplanned Treatment\". Randomized subjects who were not treated will be given a value of \"Not Treated\". Values should be \"Screen Failure\" for screen failures and \"Not Assigned\" for subjects not assigned to treatment. Restricted to values in Trial Arms in all other cases."^^xsd:string ;
	bd:format ""^^xsd:string ;
	bd:ctAndFormat ""^^xsd:string ;
	bd:compliance <http://www.assero.co.uk/CSN#8f112ba7-caa3-4f34-a9fc-8bc808b13955> ;
	bd:basedOnClassVariable <http://www.cdisc.org/SDTM_MODEL_DM/V2#CL_ACTARM> ;
.
<http://www.cdisc.org/DM/V2#COUNTRY>
	rdf:type bd:SdtmDomainVariable ;
	isoC:label "Country"^^xsd:string ;
	bd:rule ""^^xsd:string ;
	bd:ordinal "26"^^xsd:positiveInteger ;
	bd:name "COUNTRY"^^xsd:string ;
	bd:description "Country of the investigational site in which the subject participated in the trial."^^xsd:string ;
	bd:format ""^^xsd:string ;
	bd:ctAndFormat "(COUNTRY)\nISO 3166"^^xsd:string ;
	bd:compliance <http://www.assero.co.uk/CSN#8f112ba7-caa3-4f34-a9fc-8bc808b13955> ;
	bd:ctReference <http://www.cdisc.org/DM/V2#COUNTRY_TMC1> ;
	bd:basedOnClassVariable <http://www.cdisc.org/SDTM_MODEL_DM/V2#CL_COUNTRY> ;
.
<http://www.cdisc.org/DM/V2#COUNTRY_TMC1>
	rdf:type bo:TMcReference ;
	isoC:label "COUNTRY"^^xsd:string ;
	bo:enabled "true"^^xsd:boolean ;
	bo:optional "false"^^xsd:boolean ;
	bo:ordinal "1"^^xsd:positiveInteger ;
	bo:reference <http://www.cdisc.org/C66786/V31#C66786> ;
	bo:context <http://www.cdisc.org/CT/V31#TH> ;
.
<http://www.cdisc.org/DM/V2#DMDTC>
	rdf:type bd:SdtmDomainVariable ;
	isoC:label "Date/Time of Collection"^^xsd:string ;
	bd:rule ""^^xsd:string ;
	bd:ordinal "27"^^xsd:positiveInteger ;
	bd:name "DMDTC"^^xsd:string ;
	bd:description "Date/time of demographic data collection."^^xsd:string ;
	bd:format "ISO 8601"^^xsd:string ;
	bd:ctAndFormat "ISO 8601"^^xsd:string ;
	bd:compliance <http://www.assero.co.uk/CSN#da9f1092-7a20-4c97-9144-8bac2e72d1ea> ;
	bd:basedOnClassVariable <http://www.cdisc.org/SDTM_MODEL_DM/V2#CL_DMDTC> ;
.
<http://www.cdisc.org/DM/V2#DMDY>
	rdf:type bd:SdtmDomainVariable ;
	isoC:label "Study Day of Collection"^^xsd:string ;
	bd:rule ""^^xsd:string ;
	bd:ordinal "28"^^xsd:positiveInteger ;
	bd:name "DMDY"^^xsd:string ;
	bd:description "Study day of collection measured as integer days."^^xsd:string ;
	bd:format ""^^xsd:string ;
	bd:ctAndFormat ""^^xsd:string ;
	bd:compliance <http://www.assero.co.uk/CSN#da9f1092-7a20-4c97-9144-8bac2e72d1ea> ;
	bd:basedOnClassVariable <http://www.cdisc.org/SDTM_MODEL_DM/V2#CL_DMDY> ;
.
<http://www.cdisc.org/CO/V2>
	rdf:type bd:SdtmDomain ;
	isoC:label "Comments"^^xsd:string ;
	isoT:hasState <http://www.cdisc.org/CO/V2#RS> ;
	isoT:hasIdentifier <http://www.cdisc.org/CO/V2#SI> ;
	isoT:hasPreviousVersion <http://www.cdisc.org/CO/V1> ;
	isoT:origin ""^^xsd:string ;
	isoT:changeDescription ""^^xsd:string ;
	isoT:creationDate "2012-07-16T00:00:00+00:00"^^xsd:dateTime ;
	isoT:lastChangeDate "2012-07-16T00:00:00+00:00"^^xsd:dateTime ;
	isoT:explanatoryComment ""^^xsd:string ;
	bd:rule ""^^xsd:string ;
	bd:ordinal "1"^^xsd:positiveInteger ;
	bd:includesColumn <http://www.cdisc.org/CO/V2#STUDYID> ;
	bd:includesColumn <http://www.cdisc.org/CO/V2#DOMAIN> ;
	bd:includesColumn <http://www.cdisc.org/CO/V2#RDOMAIN> ;
	bd:includesColumn <http://www.cdisc.org/CO/V2#USUBJID> ;
	bd:includesColumn <http://www.cdisc.org/CO/V2#COSEQ> ;
	bd:includesColumn <http://www.cdisc.org/CO/V2#IDVAR> ;
	bd:includesColumn <http://www.cdisc.org/CO/V2#IDVARVAL> ;
	bd:includesColumn <http://www.cdisc.org/CO/V2#COREF> ;
	bd:includesColumn <http://www.cdisc.org/CO/V2#COVAL> ;
	bd:includesColumn <http://www.cdisc.org/CO/V2#COEVAL> ;
	bd:includesColumn <http://www.cdisc.org/CO/V2#CODTC> ;
	bd:prefix "CO"^^xsd:string ;
	bd:structure "One record per comment per subject"^^xsd:string ;
	bd:basedOnClass <http://www.cdisc.org/SDTM_MODEL_CO/V2#CL> ;
.
<http://www.cdisc.org/CO/V2#RS>
	rdf:type isoR:RegistrationState ;
	isoR:registrationStatus "Standard"^^xsd:string ;
	isoR:administrativeNote ""^^xsd:string ;
	isoR:effectiveDate "2016-01-01T00:00:00+00:00"^^xsd:dateTime ;
	isoR:untilDate "2016-01-01T00:00:00+00:00"^^xsd:dateTime ;
	isoR:unresolvedIssue ""^^xsd:string ;
	isoR:administrativeStatus ""^^xsd:string ;
	isoR:previousState "Standard"^^xsd:string ;
	isoR:multipleEdit "false"^^xsd:boolean ;
	isoR:byAuthority <http://www.assero.co.uk/RA#DUNS084433759> ;
.
<http://www.cdisc.org/CO/V2#SI>
	rdf:type isoI:ScopedIdentifier ;
	isoI:identifier "CO"^^xsd:string ;
	isoI:versionLabel "2012-07-16 Release"^^xsd:string ;
	isoI:version "2"^^xsd:positiveInteger ;
	isoI:semanticVersion "2.0.0"^^xsd:string ;
	isoI:hasScope <http://www.assero.co.uk/NS#CDISC> ;
.
<http://www.cdisc.org/CO/V2#STUDYID>
	rdf:type bd:SdtmDomainVariable ;
	isoC:label "Study Identifier"^^xsd:string ;
	bd:rule ""^^xsd:string ;
	bd:ordinal "1"^^xsd:positiveInteger ;
	bd:name "STUDYID"^^xsd:string ;
	bd:description "Unique identifier for a study."^^xsd:string ;
	bd:format ""^^xsd:string ;
	bd:ctAndFormat ""^^xsd:string ;
	bd:compliance <http://www.assero.co.uk/CSN#8f112ba7-caa3-4f34-a9fc-8bc808b13955> ;
	bd:basedOnClassVariable <http://www.cdisc.org/SDTM_MODEL_CO/V1#CL_STUDYID> ;
.
<http://www.cdisc.org/CO/V2#DOMAIN>
	rdf:type bd:SdtmDomainVariable ;
	isoC:label "Domain Abbreviation"^^xsd:string ;
	bd:rule ""^^xsd:string ;
	bd:ordinal "2"^^xsd:positiveInteger ;
	bd:name "DOMAIN"^^xsd:string ;
	bd:description "Two-character abbreviation for the domain."^^xsd:string ;
	bd:format ""^^xsd:string ;
	bd:ctAndFormat "(DOMAIN)"^^xsd:string ;
	bd:compliance <http://www.assero.co.uk/CSN#8f112ba7-caa3-4f34-a9fc-8bc808b13955> ;
	bd:ctReference <http://www.cdisc.org/CO/V2#DOMAIN_TMC1> ;
	bd:basedOnClassVariable <http://www.cdisc.org/SDTM_MODEL_CO/V1#CL_DOMAIN> ;
.
<http://www.cdisc.org/CO/V2#DOMAIN_TMC1>
	rdf:type bo:TMcReference ;
	isoC:label "DOMAIN"^^xsd:string ;
	bo:enabled "true"^^xsd:boolean ;
	bo:optional "false"^^xsd:boolean ;
	bo:ordinal "1"^^xsd:positiveInteger ;
	bo:reference <http://www.cdisc.org/C66734/V28#C66734> ;
	bo:context <http://www.cdisc.org/CT/V31#TH> ;
.
<http://www.cdisc.org/CO/V2#RDOMAIN>
	rdf:type bd:SdtmDomainVariable ;
	isoC:label "Related Domain Abbreviation"^^xsd:string ;
	bd:rule ""^^xsd:string ;
	bd:ordinal "3"^^xsd:positiveInteger ;
	bd:name "RDOMAIN"^^xsd:string ;
	bd:description "Two-character abbreviation for the domain of the parent record(s). Null for comments collected on a general comments or additional information CRF page."^^xsd:string ;
	bd:format ""^^xsd:string ;
	bd:ctAndFormat ""^^xsd:string ;
	bd:compliance <http://www.assero.co.uk/CSN#da9f1092-7a20-4c97-9144-8bac2e72d1ea> ;
	bd:basedOnClassVariable <http://www.cdisc.org/SDTM_MODEL_CO/V2#CL_RDOMAIN> ;
.
<http://www.cdisc.org/CO/V2#USUBJID>
	rdf:type bd:SdtmDomainVariable ;
	isoC:label "Unique Subject Identifier"^^xsd:string ;
	bd:rule ""^^xsd:string ;
	bd:ordinal "4"^^xsd:positiveInteger ;
	bd:name "USUBJID"^^xsd:string ;
	bd:description "Identifier used to uniquely identify a subject across all studies for all applications or submissions involving the product."^^xsd:string ;
	bd:format ""^^xsd:string ;
	bd:ctAndFormat ""^^xsd:string ;
	bd:compliance <http://www.assero.co.uk/CSN#8f112ba7-caa3-4f34-a9fc-8bc808b13955> ;
	bd:basedOnClassVariable <http://www.cdisc.org/SDTM_MODEL_CO/V1#CL_USUBJID> ;
.
<http://www.cdisc.org/CO/V2#COSEQ>
	rdf:type bd:SdtmDomainVariable ;
	isoC:label "Sequence Number"^^xsd:string ;
	bd:rule ""^^xsd:string ;
	bd:ordinal "5"^^xsd:positiveInteger ;
	bd:name "COSEQ"^^xsd:string ;
	bd:description "Sequence Number given to ensure uniqueness of subject records within a domain. May be any valid number."^^xsd:string ;
	bd:format ""^^xsd:string ;
	bd:ctAndFormat ""^^xsd:string ;
	bd:compliance <http://www.assero.co.uk/CSN#8f112ba7-caa3-4f34-a9fc-8bc808b13955> ;
	bd:basedOnClassVariable <http://www.cdisc.org/SDTM_MODEL_CO/V1#CL_COSEQ> ;
.
<http://www.cdisc.org/CO/V2#IDVAR>
	rdf:type bd:SdtmDomainVariable ;
	isoC:label "Identifying Variable"^^xsd:string ;
	bd:rule ""^^xsd:string ;
	bd:ordinal "6"^^xsd:positiveInteger ;
	bd:name "IDVAR"^^xsd:string ;
	bd:description "Identifying variable in the parent dataset that identifies the record(s) to which the comment applies. Examples AESEQ or CMGRPID. Used only when individual comments are related to domain records. Null for comments collected on separate CRFs."^^xsd:string ;
	bd:format ""^^xsd:string ;
	bd:ctAndFormat ""^^xsd:string ;
	bd:compliance <http://www.assero.co.uk/CSN#da9f1092-7a20-4c97-9144-8bac2e72d1ea> ;
	bd:basedOnClassVariable <http://www.cdisc.org/SDTM_MODEL_CO/V2#CL_IDVAR> ;
.
<http://www.cdisc.org/CO/V2#IDVARVAL>
	rdf:type bd:SdtmDomainVariable ;
	isoC:label "Identifying Variable Value"^^xsd:string ;
	bd:rule ""^^xsd:string ;
	bd:ordinal "7"^^xsd:positiveInteger ;
	bd:name "IDVARVAL"^^xsd:string ;
	bd:description "Value of identifying variable of the parent record(s). Used only when individual comments are related to domain records. Null for comments collected on separate CRFs."^^xsd:string ;
	bd:format ""^^xsd:string ;
	bd:ctAndFormat ""^^xsd:string ;
	bd:compliance <http://www.assero.co.uk/CSN#da9f1092-7a20-4c97-9144-8bac2e72d1ea> ;
	bd:basedOnClassVariable <http://www.cdisc.org/SDTM_MODEL_CO/V2#CL_IDVARVAL> ;
.
<http://www.cdisc.org/CO/V2#COREF>
	rdf:type bd:SdtmDomainVariable ;
	isoC:label "Comment Reference"^^xsd:string ;
	bd:rule ""^^xsd:string ;
	bd:ordinal "8"^^xsd:positiveInteger ;
	bd:name "COREF"^^xsd:string ;
	bd:description "Sponsor-defined reference associated with the comment. May be the CRF page number (e.g. 650), or a module name (e.g. DEMOG), or a combination of information that identifies the reference (e.g. 650-VITALS-VISIT 2)."^^xsd:string ;
	bd:format ""^^xsd:string ;
	bd:ctAndFormat ""^^xsd:string ;
	bd:compliance <http://www.assero.co.uk/CSN#da9f1092-7a20-4c97-9144-8bac2e72d1ea> ;
	bd:basedOnClassVariable <http://www.cdisc.org/SDTM_MODEL_CO/V1#CL_COREF> ;
.
<http://www.cdisc.org/CO/V2#COVAL>
	rdf:type bd:SdtmDomainVariable ;
	isoC:label "Comment"^^xsd:string ;
	bd:rule ""^^xsd:string ;
	bd:ordinal "9"^^xsd:positiveInteger ;
	bd:name "COVAL"^^xsd:string ;
	bd:description "The text of the comment. Text over 200 characters can be added to additional columns COVAL1-COVALn. See assumption 5.2.1.1.3."^^xsd:string ;
	bd:format ""^^xsd:string ;
	bd:ctAndFormat ""^^xsd:string ;
	bd:compliance <http://www.assero.co.uk/CSN#8f112ba7-caa3-4f34-a9fc-8bc808b13955> ;
	bd:basedOnClassVariable <http://www.cdisc.org/SDTM_MODEL_CO/V1#CL_COVAL> ;
.
<http://www.cdisc.org/CO/V2#COEVAL>
	rdf:type bd:SdtmDomainVariable ;
	isoC:label "Evaluator"^^xsd:string ;
	bd:rule ""^^xsd:string ;
	bd:ordinal "10"^^xsd:positiveInteger ;
	bd:name "COEVAL"^^xsd:string ;
	bd:description "Used to describe the originator of the comment. Examples: CENTRAL, REVIEWER, ADJUDICATION COMMITTEE, PRINCIPAL INVESTIGATOR."^^xsd:string ;
	bd:format ""^^xsd:string ;
	bd:ctAndFormat ""^^xsd:string ;
	bd:compliance <http://www.assero.co.uk/CSN#da9f1092-7a20-4c97-9144-8bac2e72d1ea> ;
	bd:basedOnClassVariable <http://www.cdisc.org/SDTM_MODEL_CO/V1#CL_COEVAL> ;
.
<http://www.cdisc.org/CO/V2#CODTC>
	rdf:type bd:SdtmDomainVariable ;
	isoC:label "Date/Time of Comment"^^xsd:string ;
	bd:rule ""^^xsd:string ;
	bd:ordinal "11"^^xsd:positiveInteger ;
	bd:name "CODTC"^^xsd:string ;
	bd:description "Date/time of comment on dedicated comment form. Should be null if this is a child record of another domain or if comment date was not collected."^^xsd:string ;
	bd:format "ISO 8601"^^xsd:string ;
	bd:ctAndFormat "ISO 8601"^^xsd:string ;
	bd:compliance <http://www.assero.co.uk/CSN#da9f1092-7a20-4c97-9144-8bac2e72d1ea> ;
	bd:basedOnClassVariable <http://www.cdisc.org/SDTM_MODEL_CO/V1#CL_CODTC> ;
.
<http://www.cdisc.org/SE/V2>
	rdf:type bd:SdtmDomain ;
	isoC:label "Subject Elements"^^xsd:string ;
	isoT:hasState <http://www.cdisc.org/SE/V2#RS> ;
	isoT:hasIdentifier <http://www.cdisc.org/SE/V2#SI> ;
	isoT:hasPreviousVersion <http://www.cdisc.org/SE/V1> ;
	isoT:origin ""^^xsd:string ;
	isoT:changeDescription ""^^xsd:string ;
	isoT:creationDate "2012-07-16T00:00:00+00:00"^^xsd:dateTime ;
	isoT:lastChangeDate "2012-07-16T00:00:00+00:00"^^xsd:dateTime ;
	isoT:explanatoryComment ""^^xsd:string ;
	bd:rule ""^^xsd:string ;
	bd:ordinal "1"^^xsd:positiveInteger ;
	bd:includesColumn <http://www.cdisc.org/SE/V2#STUDYID> ;
	bd:includesColumn <http://www.cdisc.org/SE/V2#DOMAIN> ;
	bd:includesColumn <http://www.cdisc.org/SE/V2#USUBJID> ;
	bd:includesColumn <http://www.cdisc.org/SE/V2#SESEQ> ;
	bd:includesColumn <http://www.cdisc.org/SE/V2#ETCD> ;
	bd:includesColumn <http://www.cdisc.org/SE/V2#ELEMENT> ;
	bd:includesColumn <http://www.cdisc.org/SE/V2#SESTDTC> ;
	bd:includesColumn <http://www.cdisc.org/SE/V2#SEENDTC> ;
	bd:includesColumn <http://www.cdisc.org/SE/V2#TAETORD> ;
	bd:includesColumn <http://www.cdisc.org/SE/V2#EPOCH> ;
	bd:includesColumn <http://www.cdisc.org/SE/V2#SEUPDES> ;
	bd:prefix "SE"^^xsd:string ;
	bd:structure "One record per actual Element per subject"^^xsd:string ;
	bd:basedOnClass <http://www.cdisc.org/SDTM_MODEL_SE/V2#CL> ;
.
<http://www.cdisc.org/SE/V2#RS>
	rdf:type isoR:RegistrationState ;
	isoR:registrationStatus "Standard"^^xsd:string ;
	isoR:administrativeNote ""^^xsd:string ;
	isoR:effectiveDate "2016-01-01T00:00:00+00:00"^^xsd:dateTime ;
	isoR:untilDate "2016-01-01T00:00:00+00:00"^^xsd:dateTime ;
	isoR:unresolvedIssue ""^^xsd:string ;
	isoR:administrativeStatus ""^^xsd:string ;
	isoR:previousState "Standard"^^xsd:string ;
	isoR:multipleEdit "false"^^xsd:boolean ;
	isoR:byAuthority <http://www.assero.co.uk/RA#DUNS084433759> ;
.
<http://www.cdisc.org/SE/V2#SI>
	rdf:type isoI:ScopedIdentifier ;
	isoI:identifier "SE"^^xsd:string ;
	isoI:versionLabel "2012-07-16 Release"^^xsd:string ;
	isoI:version "2"^^xsd:positiveInteger ;
	isoI:semanticVersion "2.0.0"^^xsd:string ;
	isoI:hasScope <http://www.assero.co.uk/NS#CDISC> ;
.
<http://www.cdisc.org/SE/V2#STUDYID>
	rdf:type bd:SdtmDomainVariable ;
	isoC:label "Study Identifier"^^xsd:string ;
	bd:rule ""^^xsd:string ;
	bd:ordinal "1"^^xsd:positiveInteger ;
	bd:name "STUDYID"^^xsd:string ;
	bd:description "Unique identifier for a study."^^xsd:string ;
	bd:format ""^^xsd:string ;
	bd:ctAndFormat ""^^xsd:string ;
	bd:compliance <http://www.assero.co.uk/CSN#8f112ba7-caa3-4f34-a9fc-8bc808b13955> ;
	bd:basedOnClassVariable <http://www.cdisc.org/SDTM_MODEL_SE/V1#CL_STUDYID> ;
.
<http://www.cdisc.org/SE/V2#DOMAIN>
	rdf:type bd:SdtmDomainVariable ;
	isoC:label "Domain Abbreviation"^^xsd:string ;
	bd:rule ""^^xsd:string ;
	bd:ordinal "2"^^xsd:positiveInteger ;
	bd:name "DOMAIN"^^xsd:string ;
	bd:description "Two-character abbreviation for the domain."^^xsd:string ;
	bd:format ""^^xsd:string ;
	bd:ctAndFormat "(DOMAIN)"^^xsd:string ;
	bd:compliance <http://www.assero.co.uk/CSN#8f112ba7-caa3-4f34-a9fc-8bc808b13955> ;
	bd:ctReference <http://www.cdisc.org/SE/V2#DOMAIN_TMC1> ;
	bd:basedOnClassVariable <http://www.cdisc.org/SDTM_MODEL_SE/V1#CL_DOMAIN> ;
.
<http://www.cdisc.org/SE/V2#DOMAIN_TMC1>
	rdf:type bo:TMcReference ;
	isoC:label "DOMAIN"^^xsd:string ;
	bo:enabled "true"^^xsd:boolean ;
	bo:optional "false"^^xsd:boolean ;
	bo:ordinal "1"^^xsd:positiveInteger ;
	bo:reference <http://www.cdisc.org/C66734/V28#C66734> ;
	bo:context <http://www.cdisc.org/CT/V31#TH> ;
.
<http://www.cdisc.org/SE/V2#USUBJID>
	rdf:type bd:SdtmDomainVariable ;
	isoC:label "Unique Subject Identifier"^^xsd:string ;
	bd:rule ""^^xsd:string ;
	bd:ordinal "3"^^xsd:positiveInteger ;
	bd:name "USUBJID"^^xsd:string ;
	bd:description "Identifier used to uniquely identify a subject across all studies for all applications or submissions involving the product."^^xsd:string ;
	bd:format ""^^xsd:string ;
	bd:ctAndFormat ""^^xsd:string ;
	bd:compliance <http://www.assero.co.uk/CSN#8f112ba7-caa3-4f34-a9fc-8bc808b13955> ;
	bd:basedOnClassVariable <http://www.cdisc.org/SDTM_MODEL_SE/V1#CL_USUBJID> ;
.
<http://www.cdisc.org/SE/V2#SESEQ>
	rdf:type bd:SdtmDomainVariable ;
	isoC:label "Sequence Number"^^xsd:string ;
	bd:rule ""^^xsd:string ;
	bd:ordinal "4"^^xsd:positiveInteger ;
	bd:name "SESEQ"^^xsd:string ;
	bd:description "Sequence Number given to ensure uniqueness of subject records within a domain. Should be assigned to be consistent chronological order."^^xsd:string ;
	bd:format ""^^xsd:string ;
	bd:ctAndFormat ""^^xsd:string ;
	bd:compliance <http://www.assero.co.uk/CSN#8f112ba7-caa3-4f34-a9fc-8bc808b13955> ;
	bd:basedOnClassVariable <http://www.cdisc.org/SDTM_MODEL_SE/V1#CL_SESEQ> ;
.
<http://www.cdisc.org/SE/V2#ETCD>
	rdf:type bd:SdtmDomainVariable ;
	isoC:label "Element Code"^^xsd:string ;
	bd:rule ""^^xsd:string ;
	bd:ordinal "5"^^xsd:positiveInteger ;
	bd:name "ETCD"^^xsd:string ;
	bd:description "1. ETCD (the companion to ELEMENT) is limited to 8 characters and does not have special character restrictions. These values should be short for ease of use in programming, but it is not expected that ETCD will need to serve as a variable name.\n2. If an encountered Element differs from the planned Element to the point that it is considered a new Element, then use \"UNPLAN\" as the value for ETCD to represent this Element."^^xsd:string ;
	bd:format ""^^xsd:string ;
	bd:ctAndFormat ""^^xsd:string ;
	bd:compliance <http://www.assero.co.uk/CSN#8f112ba7-caa3-4f34-a9fc-8bc808b13955> ;
	bd:basedOnClassVariable <http://www.cdisc.org/SDTM_MODEL_SE/V2#CL_ETCD> ;
.
<http://www.cdisc.org/SE/V2#ELEMENT>
	rdf:type bd:SdtmDomainVariable ;
	isoC:label "Description of Element"^^xsd:string ;
	bd:rule ""^^xsd:string ;
	bd:ordinal "6"^^xsd:positiveInteger ;
	bd:name "ELEMENT"^^xsd:string ;
	bd:description "The name of the Element. If ETCD has a value of \"UNPLAN\" then ELEMENT should be Null."^^xsd:string ;
	bd:format ""^^xsd:string ;
	bd:ctAndFormat ""^^xsd:string ;
	bd:compliance <http://www.assero.co.uk/CSN#da9f1092-7a20-4c97-9144-8bac2e72d1ea> ;
	bd:basedOnClassVariable <http://www.cdisc.org/SDTM_MODEL_SE/V2#CL_ELEMENT> ;
.
<http://www.cdisc.org/SE/V2#SESTDTC>
	rdf:type bd:SdtmDomainVariable ;
	isoC:label "Start Date/Time of Element"^^xsd:string ;
	bd:rule ""^^xsd:string ;
	bd:ordinal "7"^^xsd:positiveInteger ;
	bd:name "SESTDTC"^^xsd:string ;
	bd:description "Start date/time for an Element for each subject."^^xsd:string ;
	bd:format "ISO 8601"^^xsd:string ;
	bd:ctAndFormat "ISO 8601"^^xsd:string ;
	bd:compliance <http://www.assero.co.uk/CSN#8f112ba7-caa3-4f34-a9fc-8bc808b13955> ;
	bd:basedOnClassVariable <http://www.cdisc.org/SDTM_MODEL_SE/V1#CL_SESTDTC> ;
.
<http://www.cdisc.org/SE/V2#SEENDTC>
	rdf:type bd:SdtmDomainVariable ;
	isoC:label "End Date/Time of Element"^^xsd:string ;
	bd:rule ""^^xsd:string ;
	bd:ordinal "8"^^xsd:positiveInteger ;
	bd:name "SEENDTC"^^xsd:string ;
	bd:description "End date/time for an Element for each subject."^^xsd:string ;
	bd:format "ISO 8601"^^xsd:string ;
	bd:ctAndFormat "ISO 8601"^^xsd:string ;
	bd:compliance <http://www.assero.co.uk/CSN#fc544083-2437-4ec0-97f4-767598bee682> ;
	bd:basedOnClassVariable <http://www.cdisc.org/SDTM_MODEL_SE/V1#CL_SEENDTC> ;
.
<http://www.cdisc.org/SE/V2#TAETORD>
	rdf:type bd:SdtmDomainVariable ;
	isoC:label "Planned Order of Element within Arm"^^xsd:string ;
	bd:rule ""^^xsd:string ;
	bd:ordinal "9"^^xsd:positiveInteger ;
	bd:name "TAETORD"^^xsd:string ;
	bd:description "Number that gives the planned order of the Element within the subject's assigned ARM."^^xsd:string ;
	bd:format ""^^xsd:string ;
	bd:ctAndFormat ""^^xsd:string ;
	bd:compliance <http://www.assero.co.uk/CSN#da9f1092-7a20-4c97-9144-8bac2e72d1ea> ;
	bd:basedOnClassVariable <http://www.cdisc.org/SDTM_MODEL_SE/V2#CL_TAETORD> ;
.
<http://www.cdisc.org/SE/V2#EPOCH>
	rdf:type bd:SdtmDomainVariable ;
	isoC:label "Epoch"^^xsd:string ;
	bd:rule ""^^xsd:string ;
	bd:ordinal "10"^^xsd:positiveInteger ;
	bd:name "EPOCH"^^xsd:string ;
	bd:description "Epoch associated with the Element in the planned sequence of Elements for the ARM to which the subject was assigned"^^xsd:string ;
	bd:format ""^^xsd:string ;
	bd:ctAndFormat ""^^xsd:string ;
	bd:compliance <http://www.assero.co.uk/CSN#da9f1092-7a20-4c97-9144-8bac2e72d1ea> ;
	bd:basedOnClassVariable <http://www.cdisc.org/SDTM_MODEL_SE/V1#CL_EPOCH> ;
.
<http://www.cdisc.org/SE/V2#SEUPDES>
	rdf:type bd:SdtmDomainVariable ;
	isoC:label "Description of Unplanned Element"^^xsd:string ;
	bd:rule ""^^xsd:string ;
	bd:ordinal "11"^^xsd:positiveInteger ;
	bd:name "SEUPDES"^^xsd:string ;
	bd:description "Description of what happened to the subject during this unplanned Element. Used only if ETCD has the value of \"UNPLAN\"."^^xsd:string ;
	bd:format ""^^xsd:string ;
	bd:ctAndFormat ""^^xsd:string ;
	bd:compliance <http://www.assero.co.uk/CSN#da9f1092-7a20-4c97-9144-8bac2e72d1ea> ;
	bd:basedOnClassVariable <http://www.cdisc.org/SDTM_MODEL_SE/V2#CL_SEUPDES> ;
.
<http://www.cdisc.org/SV/V2>
	rdf:type bd:SdtmDomain ;
	isoC:label "Subject Visits"^^xsd:string ;
	isoT:hasState <http://www.cdisc.org/SV/V2#RS> ;
	isoT:hasIdentifier <http://www.cdisc.org/SV/V2#SI> ;
	isoT:hasPreviousVersion <http://www.cdisc.org/SV/V1> ;
	isoT:origin ""^^xsd:string ;
	isoT:changeDescription ""^^xsd:string ;
	isoT:creationDate "2012-07-16T00:00:00+00:00"^^xsd:dateTime ;
	isoT:lastChangeDate "2012-07-16T00:00:00+00:00"^^xsd:dateTime ;
	isoT:explanatoryComment ""^^xsd:string ;
	bd:rule ""^^xsd:string ;
	bd:ordinal "1"^^xsd:positiveInteger ;
	bd:includesColumn <http://www.cdisc.org/SV/V2#STUDYID> ;
	bd:includesColumn <http://www.cdisc.org/SV/V2#DOMAIN> ;
	bd:includesColumn <http://www.cdisc.org/SV/V2#USUBJID> ;
	bd:includesColumn <http://www.cdisc.org/SV/V2#VISITNUM> ;
	bd:includesColumn <http://www.cdisc.org/SV/V2#VISIT> ;
	bd:includesColumn <http://www.cdisc.org/SV/V2#VISITDY> ;
	bd:includesColumn <http://www.cdisc.org/SV/V2#SVSTDTC> ;
	bd:includesColumn <http://www.cdisc.org/SV/V2#SVENDTC> ;
	bd:includesColumn <http://www.cdisc.org/SV/V2#SVSTDY> ;
	bd:includesColumn <http://www.cdisc.org/SV/V2#SVENDY> ;
	bd:includesColumn <http://www.cdisc.org/SV/V2#SVUPDES> ;
	bd:prefix "SV"^^xsd:string ;
	bd:structure "One record per subject per actual visit"^^xsd:string ;
	bd:basedOnClass <http://www.cdisc.org/SDTM_MODEL_SV/V2#CL> ;
.
<http://www.cdisc.org/SV/V2#RS>
	rdf:type isoR:RegistrationState ;
	isoR:registrationStatus "Standard"^^xsd:string ;
	isoR:administrativeNote ""^^xsd:string ;
	isoR:effectiveDate "2016-01-01T00:00:00+00:00"^^xsd:dateTime ;
	isoR:untilDate "2016-01-01T00:00:00+00:00"^^xsd:dateTime ;
	isoR:unresolvedIssue ""^^xsd:string ;
	isoR:administrativeStatus ""^^xsd:string ;
	isoR:previousState "Standard"^^xsd:string ;
	isoR:multipleEdit "false"^^xsd:boolean ;
	isoR:byAuthority <http://www.assero.co.uk/RA#DUNS084433759> ;
.
<http://www.cdisc.org/SV/V2#SI>
	rdf:type isoI:ScopedIdentifier ;
	isoI:identifier "SV"^^xsd:string ;
	isoI:versionLabel "2012-07-16 Release"^^xsd:string ;
	isoI:version "2"^^xsd:positiveInteger ;
	isoI:semanticVersion "2.0.0"^^xsd:string ;
	isoI:hasScope <http://www.assero.co.uk/NS#CDISC> ;
.
<http://www.cdisc.org/SV/V2#STUDYID>
	rdf:type bd:SdtmDomainVariable ;
	isoC:label "Study Identifier"^^xsd:string ;
	bd:rule ""^^xsd:string ;
	bd:ordinal "1"^^xsd:positiveInteger ;
	bd:name "STUDYID"^^xsd:string ;
	bd:description "Unique identifier for a study."^^xsd:string ;
	bd:format ""^^xsd:string ;
	bd:ctAndFormat ""^^xsd:string ;
	bd:compliance <http://www.assero.co.uk/CSN#8f112ba7-caa3-4f34-a9fc-8bc808b13955> ;
	bd:basedOnClassVariable <http://www.cdisc.org/SDTM_MODEL_SV/V1#CL_STUDYID> ;
.
<http://www.cdisc.org/SV/V2#DOMAIN>
	rdf:type bd:SdtmDomainVariable ;
	isoC:label "Domain Abbreviation"^^xsd:string ;
	bd:rule ""^^xsd:string ;
	bd:ordinal "2"^^xsd:positiveInteger ;
	bd:name "DOMAIN"^^xsd:string ;
	bd:description "Two-character abbreviation for the domain."^^xsd:string ;
	bd:format ""^^xsd:string ;
	bd:ctAndFormat "(DOMAIN)"^^xsd:string ;
	bd:compliance <http://www.assero.co.uk/CSN#8f112ba7-caa3-4f34-a9fc-8bc808b13955> ;
	bd:ctReference <http://www.cdisc.org/SV/V2#DOMAIN_TMC1> ;
	bd:basedOnClassVariable <http://www.cdisc.org/SDTM_MODEL_SV/V1#CL_DOMAIN> ;
.
<http://www.cdisc.org/SV/V2#DOMAIN_TMC1>
	rdf:type bo:TMcReference ;
	isoC:label "DOMAIN"^^xsd:string ;
	bo:enabled "true"^^xsd:boolean ;
	bo:optional "false"^^xsd:boolean ;
	bo:ordinal "1"^^xsd:positiveInteger ;
	bo:reference <http://www.cdisc.org/C66734/V28#C66734> ;
	bo:context <http://www.cdisc.org/CT/V31#TH> ;
.
<http://www.cdisc.org/SV/V2#USUBJID>
	rdf:type bd:SdtmDomainVariable ;
	isoC:label "Unique Subject Identifier"^^xsd:string ;
	bd:rule ""^^xsd:string ;
	bd:ordinal "3"^^xsd:positiveInteger ;
	bd:name "USUBJID"^^xsd:string ;
	bd:description "Identifier used to uniquely identify a subject across all studies for all applications or submissions involving the product."^^xsd:string ;
	bd:format ""^^xsd:string ;
	bd:ctAndFormat ""^^xsd:string ;
	bd:compliance <http://www.assero.co.uk/CSN#8f112ba7-caa3-4f34-a9fc-8bc808b13955> ;
	bd:basedOnClassVariable <http://www.cdisc.org/SDTM_MODEL_SV/V1#CL_USUBJID> ;
.
<http://www.cdisc.org/SV/V2#VISITNUM>
	rdf:type bd:SdtmDomainVariable ;
	isoC:label "Visit Number"^^xsd:string ;
	bd:rule ""^^xsd:string ;
	bd:ordinal "4"^^xsd:positiveInteger ;
	bd:name "VISITNUM"^^xsd:string ;
	bd:description "1. Clinical encounter number. (Decimal numbering may be useful for inserting unplanned visits.)\n2. Numeric version of VISIT, used for sorting."^^xsd:string ;
	bd:format ""^^xsd:string ;
	bd:ctAndFormat ""^^xsd:string ;
	bd:compliance <http://www.assero.co.uk/CSN#8f112ba7-caa3-4f34-a9fc-8bc808b13955> ;
	bd:basedOnClassVariable <http://www.cdisc.org/SDTM_MODEL_SV/V2#CL_VISITNUM> ;
.
<http://www.cdisc.org/SV/V2#VISIT>
	rdf:type bd:SdtmDomainVariable ;
	isoC:label "Visit Name"^^xsd:string ;
	bd:rule ""^^xsd:string ;
	bd:ordinal "5"^^xsd:positiveInteger ;
	bd:name "VISIT"^^xsd:string ;
	bd:description "1. Protocol-defined description of clinical encounter.\n2. May be used in addition to VISITNUM and/or VISITDY as a text description of the clinical encounter."^^xsd:string ;
	bd:format ""^^xsd:string ;
	bd:ctAndFormat ""^^xsd:string ;
	bd:compliance <http://www.assero.co.uk/CSN#da9f1092-7a20-4c97-9144-8bac2e72d1ea> ;
	bd:basedOnClassVariable <http://www.cdisc.org/SDTM_MODEL_SV/V2#CL_VISIT> ;
.
<http://www.cdisc.org/SV/V2#VISITDY>
	rdf:type bd:SdtmDomainVariable ;
	isoC:label "Planned Study Day of Visit"^^xsd:string ;
	bd:rule ""^^xsd:string ;
	bd:ordinal "6"^^xsd:positiveInteger ;
	bd:name "VISITDY"^^xsd:string ;
	bd:description "Planned study day of the start of the visit based upon RFSTDTC in Demographics."^^xsd:string ;
	bd:format ""^^xsd:string ;
	bd:ctAndFormat ""^^xsd:string ;
	bd:compliance <http://www.assero.co.uk/CSN#da9f1092-7a20-4c97-9144-8bac2e72d1ea> ;
	bd:basedOnClassVariable <http://www.cdisc.org/SDTM_MODEL_SV/V2#CL_VISITDY> ;
.
<http://www.cdisc.org/SV/V2#SVSTDTC>
	rdf:type bd:SdtmDomainVariable ;
	isoC:label "Start Date/Time of Visit"^^xsd:string ;
	bd:rule ""^^xsd:string ;
	bd:ordinal "7"^^xsd:positiveInteger ;
	bd:name "SVSTDTC"^^xsd:string ;
	bd:description "Start date/time for a Visit."^^xsd:string ;
	bd:format "ISO 8601"^^xsd:string ;
	bd:ctAndFormat "ISO 8601"^^xsd:string ;
	bd:compliance <http://www.assero.co.uk/CSN#fc544083-2437-4ec0-97f4-767598bee682> ;
	bd:basedOnClassVariable <http://www.cdisc.org/SDTM_MODEL_SV/V1#CL_SVSTDTC> ;
.
<http://www.cdisc.org/SV/V2#SVENDTC>
	rdf:type bd:SdtmDomainVariable ;
	isoC:label "End Date/Time of Visit"^^xsd:string ;
	bd:rule ""^^xsd:string ;
	bd:ordinal "8"^^xsd:positiveInteger ;
	bd:name "SVENDTC"^^xsd:string ;
	bd:description "End date/time of a Visit."^^xsd:string ;
	bd:format "ISO 8601"^^xsd:string ;
	bd:ctAndFormat "ISO 8601"^^xsd:string ;
	bd:compliance <http://www.assero.co.uk/CSN#fc544083-2437-4ec0-97f4-767598bee682> ;
	bd:basedOnClassVariable <http://www.cdisc.org/SDTM_MODEL_SV/V1#CL_SVENDTC> ;
.
<http://www.cdisc.org/SV/V2#SVSTDY>
	rdf:type bd:SdtmDomainVariable ;
	isoC:label "Study Day of Start of Visit"^^xsd:string ;
	bd:rule ""^^xsd:string ;
	bd:ordinal "9"^^xsd:positiveInteger ;
	bd:name "SVSTDY"^^xsd:string ;
	bd:description "Study day of start of visit relative to the sponsor-defined RFSTDTC."^^xsd:string ;
	bd:format ""^^xsd:string ;
	bd:ctAndFormat ""^^xsd:string ;
	bd:compliance <http://www.assero.co.uk/CSN#da9f1092-7a20-4c97-9144-8bac2e72d1ea> ;
	bd:basedOnClassVariable <http://www.cdisc.org/SDTM_MODEL_SV/V1#CL_SVSTDY> ;
.
<http://www.cdisc.org/SV/V2#SVENDY>
	rdf:type bd:SdtmDomainVariable ;
	isoC:label "Study Day of End of Visit"^^xsd:string ;
	bd:rule ""^^xsd:string ;
	bd:ordinal "10"^^xsd:positiveInteger ;
	bd:name "SVENDY"^^xsd:string ;
	bd:description "Study day of end of visit relative to the sponsor-defined RFSTDTC."^^xsd:string ;
	bd:format ""^^xsd:string ;
	bd:ctAndFormat ""^^xsd:string ;
	bd:compliance <http://www.assero.co.uk/CSN#da9f1092-7a20-4c97-9144-8bac2e72d1ea> ;
	bd:basedOnClassVariable <http://www.cdisc.org/SDTM_MODEL_SV/V1#CL_SVENDY> ;
.
<http://www.cdisc.org/SV/V2#SVUPDES>
	rdf:type bd:SdtmDomainVariable ;
	isoC:label "Description of Unplanned Visit"^^xsd:string ;
	bd:rule ""^^xsd:string ;
	bd:ordinal "11"^^xsd:positiveInteger ;
	bd:name "SVUPDES"^^xsd:string ;
	bd:description "Description of what happened to the subject during an unplanned visit."^^xsd:string ;
	bd:format ""^^xsd:string ;
	bd:ctAndFormat ""^^xsd:string ;
	bd:compliance <http://www.assero.co.uk/CSN#da9f1092-7a20-4c97-9144-8bac2e72d1ea> ;
	bd:basedOnClassVariable <http://www.cdisc.org/SDTM_MODEL_SV/V1#CL_SVUPDES> ;
.
<http://www.cdisc.org/CM/V2>
	rdf:type bd:SdtmDomain ;
	isoC:label "Concomitant/Prior Medications"^^xsd:string ;
	isoT:hasState <http://www.cdisc.org/CM/V2#RS> ;
	isoT:hasIdentifier <http://www.cdisc.org/CM/V2#SI> ;
	isoT:hasPreviousVersion <http://www.cdisc.org/CM/V1> ;
	isoT:origin ""^^xsd:string ;
	isoT:changeDescription ""^^xsd:string ;
	isoT:creationDate "2012-07-16T00:00:00+00:00"^^xsd:dateTime ;
	isoT:lastChangeDate "2012-07-16T00:00:00+00:00"^^xsd:dateTime ;
	isoT:explanatoryComment ""^^xsd:string ;
	bd:rule ""^^xsd:string ;
	bd:ordinal "1"^^xsd:positiveInteger ;
	bd:includesColumn <http://www.cdisc.org/CM/V2#STUDYID> ;
	bd:includesColumn <http://www.cdisc.org/CM/V2#DOMAIN> ;
	bd:includesColumn <http://www.cdisc.org/CM/V2#USUBJID> ;
	bd:includesColumn <http://www.cdisc.org/CM/V2#CMSEQ> ;
	bd:includesColumn <http://www.cdisc.org/CM/V2#CMGRPID> ;
	bd:includesColumn <http://www.cdisc.org/CM/V2#CMSPID> ;
	bd:includesColumn <http://www.cdisc.org/CM/V2#CMTRT> ;
	bd:includesColumn <http://www.cdisc.org/CM/V2#CMMODIFY> ;
	bd:includesColumn <http://www.cdisc.org/CM/V2#CMDECOD> ;
	bd:includesColumn <http://www.cdisc.org/CM/V2#CMCAT> ;
	bd:includesColumn <http://www.cdisc.org/CM/V2#CMSCAT> ;
	bd:includesColumn <http://www.cdisc.org/CM/V2#CMPRESP> ;
	bd:includesColumn <http://www.cdisc.org/CM/V2#CMOCCUR> ;
	bd:includesColumn <http://www.cdisc.org/CM/V2#CMSTAT> ;
	bd:includesColumn <http://www.cdisc.org/CM/V2#CMREASND> ;
	bd:includesColumn <http://www.cdisc.org/CM/V2#CMINDC> ;
	bd:includesColumn <http://www.cdisc.org/CM/V2#CMCLAS> ;
	bd:includesColumn <http://www.cdisc.org/CM/V2#CMCLASCD> ;
	bd:includesColumn <http://www.cdisc.org/CM/V2#CMDOSE> ;
	bd:includesColumn <http://www.cdisc.org/CM/V2#CMDOSTXT> ;
	bd:includesColumn <http://www.cdisc.org/CM/V2#CMDOSU> ;
	bd:includesColumn <http://www.cdisc.org/CM/V2#CMDOSFRM> ;
	bd:includesColumn <http://www.cdisc.org/CM/V2#CMDOSFRQ> ;
	bd:includesColumn <http://www.cdisc.org/CM/V2#CMDOSTOT> ;
	bd:includesColumn <http://www.cdisc.org/CM/V2#CMDOSRGM> ;
	bd:includesColumn <http://www.cdisc.org/CM/V2#CMROUTE> ;
	bd:includesColumn <http://www.cdisc.org/CM/V2#CMSTDTC> ;
	bd:includesColumn <http://www.cdisc.org/CM/V2#CMENDTC> ;
	bd:includesColumn <http://www.cdisc.org/CM/V2#CMSTDY> ;
	bd:includesColumn <http://www.cdisc.org/CM/V2#CMENDY> ;
	bd:includesColumn <http://www.cdisc.org/CM/V2#CMDUR> ;
	bd:includesColumn <http://www.cdisc.org/CM/V2#CMSTRF> ;
	bd:includesColumn <http://www.cdisc.org/CM/V2#CMENRF> ;
	bd:includesColumn <http://www.cdisc.org/CM/V2#CMSTRTPT> ;
	bd:includesColumn <http://www.cdisc.org/CM/V2#CMSTTPT> ;
	bd:includesColumn <http://www.cdisc.org/CM/V2#CMENRTPT> ;
	bd:includesColumn <http://www.cdisc.org/CM/V2#CMENTPT> ;
	bd:prefix "CM"^^xsd:string ;
	bd:structure "One record per recorded intervention occurrence or constant-dosing interval per subject"^^xsd:string ;
	bd:basedOnClass <http://www.cdisc.org/SDTM_MODEL_INTERVENTIONS/V2#CL> ;
.
<http://www.cdisc.org/CM/V2#RS>
	rdf:type isoR:RegistrationState ;
	isoR:registrationStatus "Standard"^^xsd:string ;
	isoR:administrativeNote ""^^xsd:string ;
	isoR:effectiveDate "2016-01-01T00:00:00+00:00"^^xsd:dateTime ;
	isoR:untilDate "2016-01-01T00:00:00+00:00"^^xsd:dateTime ;
	isoR:unresolvedIssue ""^^xsd:string ;
	isoR:administrativeStatus ""^^xsd:string ;
	isoR:previousState "Standard"^^xsd:string ;
	isoR:multipleEdit "false"^^xsd:boolean ;
	isoR:byAuthority <http://www.assero.co.uk/RA#DUNS084433759> ;
.
<http://www.cdisc.org/CM/V2#SI>
	rdf:type isoI:ScopedIdentifier ;
	isoI:identifier "CM"^^xsd:string ;
	isoI:versionLabel "2012-07-16 Release"^^xsd:string ;
	isoI:version "2"^^xsd:positiveInteger ;
	isoI:semanticVersion "2.0.0"^^xsd:string ;
	isoI:hasScope <http://www.assero.co.uk/NS#CDISC> ;
.
<http://www.cdisc.org/CM/V2#STUDYID>
	rdf:type bd:SdtmDomainVariable ;
	isoC:label "Study Identifier"^^xsd:string ;
	bd:rule ""^^xsd:string ;
	bd:ordinal "1"^^xsd:positiveInteger ;
	bd:name "STUDYID"^^xsd:string ;
	bd:description "Unique identifier for a study."^^xsd:string ;
	bd:format ""^^xsd:string ;
	bd:ctAndFormat ""^^xsd:string ;
	bd:compliance <http://www.assero.co.uk/CSN#8f112ba7-caa3-4f34-a9fc-8bc808b13955> ;
	bd:basedOnClassVariable <http://www.cdisc.org/SDTM_MODEL_ALL/V1#CL_STUDYID> ;
.
<http://www.cdisc.org/CM/V2#DOMAIN>
	rdf:type bd:SdtmDomainVariable ;
	isoC:label "Domain Abbreviation"^^xsd:string ;
	bd:rule ""^^xsd:string ;
	bd:ordinal "2"^^xsd:positiveInteger ;
	bd:name "DOMAIN"^^xsd:string ;
	bd:description "Two-character abbreviation for the domain."^^xsd:string ;
	bd:format ""^^xsd:string ;
	bd:ctAndFormat "(DOMAIN)"^^xsd:string ;
	bd:compliance <http://www.assero.co.uk/CSN#8f112ba7-caa3-4f34-a9fc-8bc808b13955> ;
	bd:ctReference <http://www.cdisc.org/CM/V2#DOMAIN_TMC1> ;
	bd:basedOnClassVariable <http://www.cdisc.org/SDTM_MODEL_ALL/V2#CL_DOMAIN> ;
.
<http://www.cdisc.org/CM/V2#DOMAIN_TMC1>
	rdf:type bo:TMcReference ;
	isoC:label "DOMAIN"^^xsd:string ;
	bo:enabled "true"^^xsd:boolean ;
	bo:optional "false"^^xsd:boolean ;
	bo:ordinal "1"^^xsd:positiveInteger ;
	bo:reference <http://www.cdisc.org/C66734/V28#C66734> ;
	bo:context <http://www.cdisc.org/CT/V31#TH> ;
.
<http://www.cdisc.org/CM/V2#USUBJID>
	rdf:type bd:SdtmDomainVariable ;
	isoC:label "Unique Subject Identifier"^^xsd:string ;
	bd:rule ""^^xsd:string ;
	bd:ordinal "3"^^xsd:positiveInteger ;
	bd:name "USUBJID"^^xsd:string ;
	bd:description "Identifier used to uniquely identify a subject across all studies for all applications or submissions involving the product."^^xsd:string ;
	bd:format ""^^xsd:string ;
	bd:ctAndFormat ""^^xsd:string ;
	bd:compliance <http://www.assero.co.uk/CSN#8f112ba7-caa3-4f34-a9fc-8bc808b13955> ;
	bd:basedOnClassVariable <http://www.cdisc.org/SDTM_MODEL_ALL/V1#CL_USUBJID> ;
.
<http://www.cdisc.org/CM/V2#CMSEQ>
	rdf:type bd:SdtmDomainVariable ;
	isoC:label "Sequence Number"^^xsd:string ;
	bd:rule ""^^xsd:string ;
	bd:ordinal "4"^^xsd:positiveInteger ;
	bd:name "CMSEQ"^^xsd:string ;
	bd:description "Sequence Number given to ensure uniqueness of subject records within a domain. May be any valid number."^^xsd:string ;
	bd:format ""^^xsd:string ;
	bd:ctAndFormat ""^^xsd:string ;
	bd:compliance <http://www.assero.co.uk/CSN#8f112ba7-caa3-4f34-a9fc-8bc808b13955> ;
	bd:basedOnClassVariable <http://www.cdisc.org/SDTM_MODEL_ALL/V2#CL_--SEQ> ;
.
<http://www.cdisc.org/CM/V2#CMGRPID>
	rdf:type bd:SdtmDomainVariable ;
	isoC:label "Group ID"^^xsd:string ;
	bd:rule ""^^xsd:string ;
	bd:ordinal "5"^^xsd:positiveInteger ;
	bd:name "CMGRPID"^^xsd:string ;
	bd:description "Used to tie together a block of related records in a single domain for a subject."^^xsd:string ;
	bd:format ""^^xsd:string ;
	bd:ctAndFormat ""^^xsd:string ;
	bd:compliance <http://www.assero.co.uk/CSN#da9f1092-7a20-4c97-9144-8bac2e72d1ea> ;
	bd:basedOnClassVariable <http://www.cdisc.org/SDTM_MODEL_ALL/V2#CL_--GRPID> ;
.
<http://www.cdisc.org/CM/V2#CMSPID>
	rdf:type bd:SdtmDomainVariable ;
	isoC:label "Sponsor-Defined Identifier"^^xsd:string ;
	bd:rule ""^^xsd:string ;
	bd:ordinal "6"^^xsd:positiveInteger ;
	bd:name "CMSPID"^^xsd:string ;
	bd:description "Sponsor-defined reference number. Examples: a number pre-printed on the CRF as an explicit line identifier or record identifier defined in the sponsor's operational database. Example: line number on a concomitant medication page."^^xsd:string ;
	bd:format ""^^xsd:string ;
	bd:ctAndFormat ""^^xsd:string ;
	bd:compliance <http://www.assero.co.uk/CSN#da9f1092-7a20-4c97-9144-8bac2e72d1ea> ;
	bd:basedOnClassVariable <http://www.cdisc.org/SDTM_MODEL_ALL/V2#CL_--SPID> ;
.
<http://www.cdisc.org/CM/V2#CMTRT>
	rdf:type bd:SdtmDomainVariable ;
	isoC:label "Reported Name of Drug, Med, or Therapy"^^xsd:string ;
	bd:rule ""^^xsd:string ;
	bd:ordinal "7"^^xsd:positiveInteger ;
	bd:name "CMTRT"^^xsd:string ;
	bd:description "Verbatim medication name that is either pre-printed or collected on a CRF."^^xsd:string ;
	bd:format ""^^xsd:string ;
	bd:ctAndFormat ""^^xsd:string ;
	bd:compliance <http://www.assero.co.uk/CSN#8f112ba7-caa3-4f34-a9fc-8bc808b13955> ;
	bd:basedOnClassVariable <http://www.cdisc.org/SDTM_MODEL_INTERVENTIONS/V1#CL_--TRT> ;
.
<http://www.cdisc.org/CM/V2#CMMODIFY>
	rdf:type bd:SdtmDomainVariable ;
	isoC:label "Modified Reported Name"^^xsd:string ;
	bd:rule ""^^xsd:string ;
	bd:ordinal "8"^^xsd:positiveInteger ;
	bd:name "CMMODIFY"^^xsd:string ;
	bd:description "If CMTRT is modified to facilitate coding, then CMMODIFY will contain the modified text."^^xsd:string ;
	bd:format ""^^xsd:string ;
	bd:ctAndFormat ""^^xsd:string ;
	bd:compliance <http://www.assero.co.uk/CSN#da9f1092-7a20-4c97-9144-8bac2e72d1ea> ;
	bd:basedOnClassVariable <http://www.cdisc.org/SDTM_MODEL_INTERVENTIONS/V1#CL_--MODIFY> ;
.
<http://www.cdisc.org/CM/V2#CMDECOD>
	rdf:type bd:SdtmDomainVariable ;
	isoC:label "Standardized Medication Name"^^xsd:string ;
	bd:rule ""^^xsd:string ;
	bd:ordinal "9"^^xsd:positiveInteger ;
	bd:name "CMDECOD"^^xsd:string ;
	bd:description "Standardized or dictionary-derived text description of CMTRT or CMMODIFY. Equivalent to the generic medication name in WHO Drug. The sponsor is expected to provide the dictionary name and version used to map the terms utilizing the define.xml external codelist attributes. If an intervention term does not have a decode value in the dictionary then CMDECOD will be left blank."^^xsd:string ;
	bd:format ""^^xsd:string ;
	bd:ctAndFormat ""^^xsd:string ;
	bd:compliance <http://www.assero.co.uk/CSN#da9f1092-7a20-4c97-9144-8bac2e72d1ea> ;
	bd:basedOnClassVariable <http://www.cdisc.org/SDTM_MODEL_INTERVENTIONS/V1#CL_--DECOD> ;
.
<http://www.cdisc.org/CM/V2#CMCAT>
	rdf:type bd:SdtmDomainVariable ;
	isoC:label "Category for Medication"^^xsd:string ;
	bd:rule ""^^xsd:string ;
	bd:ordinal "10"^^xsd:positiveInteger ;
	bd:name "CMCAT"^^xsd:string ;
	bd:description "Used to define a category of medications/treatments. Examples: PRIOR, CONCOMITANT, ANTI-CANCER MEDICATION, or GENERAL CONMED."^^xsd:string ;
	bd:format ""^^xsd:string ;
	bd:ctAndFormat ""^^xsd:string ;
	bd:compliance <http://www.assero.co.uk/CSN#da9f1092-7a20-4c97-9144-8bac2e72d1ea> ;
	bd:basedOnClassVariable <http://www.cdisc.org/SDTM_MODEL_INTERVENTIONS/V2#CL_--CAT> ;
	bd:isA <http://www.s-cubed.dk/CAR#a3c686e711e4720f99b4562bb3dbaae7ab658cf2> ;
.
<http://www.cdisc.org/CM/V2#CMSCAT>
	rdf:type bd:SdtmDomainVariable ;
	isoC:label "Subcategory for Medication"^^xsd:string ;
	bd:rule ""^^xsd:string ;
	bd:ordinal "11"^^xsd:positiveInteger ;
	bd:name "CMSCAT"^^xsd:string ;
	bd:description "A further categorization of medications/ treatment. Examples: CHEMOTHERAPY, HORMONAL THERAPY, ALTERNATIVE THERAPY."^^xsd:string ;
	bd:format ""^^xsd:string ;
	bd:ctAndFormat ""^^xsd:string ;
	bd:compliance <http://www.assero.co.uk/CSN#da9f1092-7a20-4c97-9144-8bac2e72d1ea> ;
	bd:basedOnClassVariable <http://www.cdisc.org/SDTM_MODEL_INTERVENTIONS/V1#CL_--SCAT> ;
	bd:isA <http://www.s-cubed.dk/CAR#479a67983e739413da55faf0dc509f83fd5dea64> ;
.
<http://www.cdisc.org/CM/V2#CMPRESP>
	rdf:type bd:SdtmDomainVariable ;
	isoC:label "CM Pre-Specified"^^xsd:string ;
	bd:rule ""^^xsd:string ;
	bd:ordinal "12"^^xsd:positiveInteger ;
	bd:name "CMPRESP"^^xsd:string ;
	bd:description "Used to indicate whether (Y/null) information about the use of a specific medication was solicited on the CRF."^^xsd:string ;
	bd:format ""^^xsd:string ;
	bd:ctAndFormat "(NY)"^^xsd:string ;
	bd:compliance <http://www.assero.co.uk/CSN#da9f1092-7a20-4c97-9144-8bac2e72d1ea> ;
	bd:ctReference <http://www.cdisc.org/CM/V2#CMPRESP_TMC1> ;
	bd:basedOnClassVariable <http://www.cdisc.org/SDTM_MODEL_INTERVENTIONS/V2#CL_--PRESP> ;
.
<http://www.cdisc.org/CM/V2#CMPRESP_TMC1>
	rdf:type bo:TMcReference ;
	isoC:label "NY"^^xsd:string ;
	bo:enabled "true"^^xsd:boolean ;
	bo:optional "false"^^xsd:boolean ;
	bo:ordinal "1"^^xsd:positiveInteger ;
	bo:reference <http://www.cdisc.org/C66742/V4#C66742> ;
	bo:context <http://www.cdisc.org/CT/V31#TH> ;
.
<http://www.cdisc.org/CM/V2#CMOCCUR>
	rdf:type bd:SdtmDomainVariable ;
	isoC:label "CM Occurrence"^^xsd:string ;
	bd:rule ""^^xsd:string ;
	bd:ordinal "13"^^xsd:positiveInteger ;
	bd:name "CMOCCUR"^^xsd:string ;
	bd:description "When the use of specific medications is solicited, CMOCCUR is used to indicate whether or not (Y/N) use of the medication occurred. Values are null for medications not specifically solicited."^^xsd:string ;
	bd:format ""^^xsd:string ;
	bd:ctAndFormat "(NY)"^^xsd:string ;
	bd:compliance <http://www.assero.co.uk/CSN#da9f1092-7a20-4c97-9144-8bac2e72d1ea> ;
	bd:ctReference <http://www.cdisc.org/CM/V2#CMOCCUR_TMC1> ;
	bd:basedOnClassVariable <http://www.cdisc.org/SDTM_MODEL_INTERVENTIONS/V2#CL_--OCCUR> ;
.
<http://www.cdisc.org/CM/V2#CMOCCUR_TMC1>
	rdf:type bo:TMcReference ;
	isoC:label "NY"^^xsd:string ;
	bo:enabled "true"^^xsd:boolean ;
	bo:optional "false"^^xsd:boolean ;
	bo:ordinal "1"^^xsd:positiveInteger ;
	bo:reference <http://www.cdisc.org/C66742/V4#C66742> ;
	bo:context <http://www.cdisc.org/CT/V31#TH> ;
.
<http://www.cdisc.org/CM/V2#CMSTAT>
	rdf:type bd:SdtmDomainVariable ;
	isoC:label "Completion Status"^^xsd:string ;
	bd:rule ""^^xsd:string ;
	bd:ordinal "14"^^xsd:positiveInteger ;
	bd:name "CMSTAT"^^xsd:string ;
	bd:description "Used to indicate that a question about a pre-specified medication was not answered. Should be null or have a value of NOT DONE."^^xsd:string ;
	bd:format ""^^xsd:string ;
	bd:ctAndFormat "(ND)"^^xsd:string ;
	bd:compliance <http://www.assero.co.uk/CSN#da9f1092-7a20-4c97-9144-8bac2e72d1ea> ;
	bd:ctReference <http://www.cdisc.org/CM/V2#CMSTAT_TMC1> ;
	bd:basedOnClassVariable <http://www.cdisc.org/SDTM_MODEL_INTERVENTIONS/V2#CL_--STAT> ;
	bd:isA <http://www.s-cubed.dk/CAR#bae7d5be70820ed56467bd9a63744e23b47bd711> ;
.
<http://www.cdisc.org/CM/V2#CMSTAT_TMC1>
	rdf:type bo:TMcReference ;
	isoC:label "ND"^^xsd:string ;
	bo:enabled "true"^^xsd:boolean ;
	bo:optional "false"^^xsd:boolean ;
	bo:ordinal "1"^^xsd:positiveInteger ;
	bo:reference <http://www.cdisc.org/C66789/V13#C66789> ;
	bo:context <http://www.cdisc.org/CT/V31#TH> ;
.
<http://www.cdisc.org/CM/V2#CMREASND>
	rdf:type bd:SdtmDomainVariable ;
	isoC:label "Reason Medication Not Collected"^^xsd:string ;
	bd:rule ""^^xsd:string ;
	bd:ordinal "15"^^xsd:positiveInteger ;
	bd:name "CMREASND"^^xsd:string ;
	bd:description "Describes the reason concomitant medication was not collected. Used in conjunction with CMSTAT when value is NOT DONE."^^xsd:string ;
	bd:format ""^^xsd:string ;
	bd:ctAndFormat ""^^xsd:string ;
	bd:compliance <http://www.assero.co.uk/CSN#da9f1092-7a20-4c97-9144-8bac2e72d1ea> ;
	bd:basedOnClassVariable <http://www.cdisc.org/SDTM_MODEL_INTERVENTIONS/V1#CL_--REASND> ;
.
<http://www.cdisc.org/CM/V2#CMINDC>
	rdf:type bd:SdtmDomainVariable ;
	isoC:label "Indication"^^xsd:string ;
	bd:rule ""^^xsd:string ;
	bd:ordinal "16"^^xsd:positiveInteger ;
	bd:name "CMINDC"^^xsd:string ;
	bd:description "Denotes why a medication was taken or administered. Examples: NAUSEA, HYPERTENSION."^^xsd:string ;
	bd:format ""^^xsd:string ;
	bd:ctAndFormat ""^^xsd:string ;
	bd:compliance <http://www.assero.co.uk/CSN#da9f1092-7a20-4c97-9144-8bac2e72d1ea> ;
	bd:basedOnClassVariable <http://www.cdisc.org/SDTM_MODEL_INTERVENTIONS/V1#CL_--INDC> ;
.
<http://www.cdisc.org/CM/V2#CMCLAS>
	rdf:type bd:SdtmDomainVariable ;
	isoC:label "Medication Class"^^xsd:string ;
	bd:rule ""^^xsd:string ;
	bd:ordinal "17"^^xsd:positiveInteger ;
	bd:name "CMCLAS"^^xsd:string ;
	bd:description "Drug class. May be obtained from coding. When coding to a single class, populate with class value. If using a dictionary and coding to multiple classes, then follow assumption 4.1.2.8.3 or omit CMCLAS."^^xsd:string ;
	bd:format ""^^xsd:string ;
	bd:ctAndFormat ""^^xsd:string ;
	bd:compliance <http://www.assero.co.uk/CSN#da9f1092-7a20-4c97-9144-8bac2e72d1ea> ;
	bd:basedOnClassVariable <http://www.cdisc.org/SDTM_MODEL_INTERVENTIONS/V1#CL_--CLAS> ;
.
<http://www.cdisc.org/CM/V2#CMCLASCD>
	rdf:type bd:SdtmDomainVariable ;
	isoC:label "Medication Class Code"^^xsd:string ;
	bd:rule ""^^xsd:string ;
	bd:ordinal "18"^^xsd:positiveInteger ;
	bd:name "CMCLASCD"^^xsd:string ;
	bd:description "Class code corresponding to CMCLAS. Drug class. May be obtained from coding. When coding to a single class, populate with class code. If using a dictionary and coding to multiple classes, then follow assumption 4.1.2.8.3 or omit CMCLASCD."^^xsd:string ;
	bd:format ""^^xsd:string ;
	bd:ctAndFormat ""^^xsd:string ;
	bd:compliance <http://www.assero.co.uk/CSN#da9f1092-7a20-4c97-9144-8bac2e72d1ea> ;
	bd:basedOnClassVariable <http://www.cdisc.org/SDTM_MODEL_INTERVENTIONS/V1#CL_--CLASCD> ;
.
<http://www.cdisc.org/CM/V2#CMDOSE>
	rdf:type bd:SdtmDomainVariable ;
	isoC:label "Dose per Administration"^^xsd:string ;
	bd:rule ""^^xsd:string ;
	bd:ordinal "19"^^xsd:positiveInteger ;
	bd:name "CMDOSE"^^xsd:string ;
	bd:description "Amount of CMTRT taken."^^xsd:string ;
	bd:format ""^^xsd:string ;
	bd:ctAndFormat ""^^xsd:string ;
	bd:compliance <http://www.assero.co.uk/CSN#da9f1092-7a20-4c97-9144-8bac2e72d1ea> ;
	bd:basedOnClassVariable <http://www.cdisc.org/SDTM_MODEL_INTERVENTIONS/V1#CL_--DOSE> ;
.
<http://www.cdisc.org/CM/V2#CMDOSTXT>
	rdf:type bd:SdtmDomainVariable ;
	isoC:label "Dose Description"^^xsd:string ;
	bd:rule ""^^xsd:string ;
	bd:ordinal "20"^^xsd:positiveInteger ;
	bd:name "CMDOSTXT"^^xsd:string ;
	bd:description "Dosing amounts or a range of dosing information collected in text form. Units may be stored in CMDOSU. Example: 200-400, 15-20."^^xsd:string ;
	bd:format ""^^xsd:string ;
	bd:ctAndFormat ""^^xsd:string ;
	bd:compliance <http://www.assero.co.uk/CSN#da9f1092-7a20-4c97-9144-8bac2e72d1ea> ;
	bd:basedOnClassVariable <http://www.cdisc.org/SDTM_MODEL_INTERVENTIONS/V1#CL_--DOSTXT> ;
.
<http://www.cdisc.org/CM/V2#CMDOSU>
	rdf:type bd:SdtmDomainVariable ;
	isoC:label "Dose Units"^^xsd:string ;
	bd:rule ""^^xsd:string ;
	bd:ordinal "21"^^xsd:positiveInteger ;
	bd:name "CMDOSU"^^xsd:string ;
	bd:description "Units for CMDOSE, CMDOSTXT, and CMDOSTOT. Examples: ng, mg, or mg/kg."^^xsd:string ;
	bd:format ""^^xsd:string ;
	bd:ctAndFormat "(UNIT)"^^xsd:string ;
	bd:compliance <http://www.assero.co.uk/CSN#da9f1092-7a20-4c97-9144-8bac2e72d1ea> ;
	bd:ctReference <http://www.cdisc.org/CM/V2#CMDOSU_TMC1> ;
	bd:basedOnClassVariable <http://www.cdisc.org/SDTM_MODEL_INTERVENTIONS/V1#CL_--DOSU> ;
.
<http://www.cdisc.org/CM/V2#CMDOSU_TMC1>
	rdf:type bo:TMcReference ;
	isoC:label "UNIT"^^xsd:string ;
	bo:enabled "true"^^xsd:boolean ;
	bo:optional "false"^^xsd:boolean ;
	bo:ordinal "1"^^xsd:positiveInteger ;
	bo:reference <http://www.cdisc.org/C71620/V31#C71620> ;
	bo:context <http://www.cdisc.org/CT/V31#TH> ;
.
<http://www.cdisc.org/CM/V2#CMDOSFRM>
	rdf:type bd:SdtmDomainVariable ;
	isoC:label "Dose Form"^^xsd:string ;
	bd:rule ""^^xsd:string ;
	bd:ordinal "22"^^xsd:positiveInteger ;
	bd:name "CMDOSFRM"^^xsd:string ;
	bd:description "Dose form for CMTRT. Examples: TABLET, LOTION."^^xsd:string ;
	bd:format ""^^xsd:string ;
	bd:ctAndFormat "(FRM)"^^xsd:string ;
	bd:compliance <http://www.assero.co.uk/CSN#da9f1092-7a20-4c97-9144-8bac2e72d1ea> ;
	bd:ctReference <http://www.cdisc.org/CM/V2#CMDOSFRM_TMC1> ;
	bd:basedOnClassVariable <http://www.cdisc.org/SDTM_MODEL_INTERVENTIONS/V1#CL_--DOSFRM> ;
.
<http://www.cdisc.org/CM/V2#CMDOSFRM_TMC1>
	rdf:type bo:TMcReference ;
	isoC:label "FRM"^^xsd:string ;
	bo:enabled "true"^^xsd:boolean ;
	bo:optional "false"^^xsd:boolean ;
	bo:ordinal "1"^^xsd:positiveInteger ;
	bo:reference <http://www.cdisc.org/C66726/V30#C66726> ;
	bo:context <http://www.cdisc.org/CT/V31#TH> ;
.
<http://www.cdisc.org/CM/V2#CMDOSFRQ>
	rdf:type bd:SdtmDomainVariable ;
	isoC:label "Dosing Frequency per Interval"^^xsd:string ;
	bd:rule ""^^xsd:string ;
	bd:ordinal "23"^^xsd:positiveInteger ;
	bd:name "CMDOSFRQ"^^xsd:string ;
	bd:description "Usually expressed as the number of repeated administrations of CMDOSE within a specific time period. Examples: BID (twice daily), Q12H (every 12 hours)."^^xsd:string ;
	bd:format ""^^xsd:string ;
	bd:ctAndFormat "(FREQ)"^^xsd:string ;
	bd:compliance <http://www.assero.co.uk/CSN#da9f1092-7a20-4c97-9144-8bac2e72d1ea> ;
	bd:ctReference <http://www.cdisc.org/CM/V2#CMDOSFRQ_TMC1> ;
	bd:basedOnClassVariable <http://www.cdisc.org/SDTM_MODEL_INTERVENTIONS/V1#CL_--DOSFRQ> ;
.
<http://www.cdisc.org/CM/V2#CMDOSFRQ_TMC1>
	rdf:type bo:TMcReference ;
	isoC:label "FREQ"^^xsd:string ;
	bo:enabled "true"^^xsd:boolean ;
	bo:optional "false"^^xsd:boolean ;
	bo:ordinal "1"^^xsd:positiveInteger ;
	bo:reference <http://www.cdisc.org/C71113/V31#C71113> ;
	bo:context <http://www.cdisc.org/CT/V31#TH> ;
.
<http://www.cdisc.org/CM/V2#CMDOSTOT>
	rdf:type bd:SdtmDomainVariable ;
	isoC:label "Total Daily Dose"^^xsd:string ;
	bd:rule ""^^xsd:string ;
	bd:ordinal "24"^^xsd:positiveInteger ;
	bd:name "CMDOSTOT"^^xsd:string ;
	bd:description "Total daily dose of CMTRT using the units in CMDOSU. Total dose over a period other than day could be recorded in a separate Supplemental Qualifier variable. CMDOSTOT should be used in addition to CMDOSE, and not in place of it."^^xsd:string ;
	bd:format ""^^xsd:string ;
	bd:ctAndFormat ""^^xsd:string ;
	bd:compliance <http://www.assero.co.uk/CSN#da9f1092-7a20-4c97-9144-8bac2e72d1ea> ;
	bd:basedOnClassVariable <http://www.cdisc.org/SDTM_MODEL_INTERVENTIONS/V1#CL_--DOSTOT> ;
.
<http://www.cdisc.org/CM/V2#CMDOSRGM>
	rdf:type bd:SdtmDomainVariable ;
	isoC:label "Intended Dose Regimen"^^xsd:string ;
	bd:rule ""^^xsd:string ;
	bd:ordinal "25"^^xsd:positiveInteger ;
	bd:name "CMDOSRGM"^^xsd:string ;
	bd:description "Text description of the (intended) schedule or regimen for the Intervention. Examples: TWO WEEKS ON, TWO WEEKS OFF."^^xsd:string ;
	bd:format ""^^xsd:string ;
	bd:ctAndFormat ""^^xsd:string ;
	bd:compliance <http://www.assero.co.uk/CSN#da9f1092-7a20-4c97-9144-8bac2e72d1ea> ;
	bd:basedOnClassVariable <http://www.cdisc.org/SDTM_MODEL_INTERVENTIONS/V1#CL_--DOSRGM> ;
.
<http://www.cdisc.org/CM/V2#CMROUTE>
	rdf:type bd:SdtmDomainVariable ;
	isoC:label "Route of Administration"^^xsd:string ;
	bd:rule ""^^xsd:string ;
	bd:ordinal "26"^^xsd:positiveInteger ;
	bd:name "CMROUTE"^^xsd:string ;
	bd:description "Route of administration for CMTRT. Examples: ORAL, INTRAVENOUS."^^xsd:string ;
	bd:format ""^^xsd:string ;
	bd:ctAndFormat "(ROUTE)"^^xsd:string ;
	bd:compliance <http://www.assero.co.uk/CSN#da9f1092-7a20-4c97-9144-8bac2e72d1ea> ;
	bd:ctReference <http://www.cdisc.org/CM/V2#CMROUTE_TMC1> ;
	bd:basedOnClassVariable <http://www.cdisc.org/SDTM_MODEL_INTERVENTIONS/V1#CL_--ROUTE> ;
.
<http://www.cdisc.org/CM/V2#CMROUTE_TMC1>
	rdf:type bo:TMcReference ;
	isoC:label "ROUTE"^^xsd:string ;
	bo:enabled "true"^^xsd:boolean ;
	bo:optional "false"^^xsd:boolean ;
	bo:ordinal "1"^^xsd:positiveInteger ;
	bo:reference <http://www.cdisc.org/C90009/V26#C90009_C38114> ;
	bo:context <http://www.cdisc.org/CT/V31#TH> ;
.
<http://www.cdisc.org/CM/V2#CMSTDTC>
	rdf:type bd:SdtmDomainVariable ;
	isoC:label "Start Date/Time of Medication"^^xsd:string ;
	bd:rule ""^^xsd:string ;
	bd:ordinal "27"^^xsd:positiveInteger ;
	bd:name "CMSTDTC"^^xsd:string ;
	bd:description ""^^xsd:string ;
	bd:format "ISO 8601"^^xsd:string ;
	bd:ctAndFormat "ISO 8601"^^xsd:string ;
	bd:compliance <http://www.assero.co.uk/CSN#da9f1092-7a20-4c97-9144-8bac2e72d1ea> ;
	bd:basedOnClassVariable <http://www.cdisc.org/SDTM_MODEL_ALL/V2#CL_--STDTC> ;
	bd:isA <http://www.s-cubed.dk/CAR#83c87956785cde43c109e30fcbd95cca63a18d38> ;
.
<http://www.cdisc.org/CM/V2#CMENDTC>
	rdf:type bd:SdtmDomainVariable ;
	isoC:label "End Date/Time of Medication"^^xsd:string ;
	bd:rule ""^^xsd:string ;
	bd:ordinal "28"^^xsd:positiveInteger ;
	bd:name "CMENDTC"^^xsd:string ;
	bd:description ""^^xsd:string ;
	bd:format "ISO 8601"^^xsd:string ;
	bd:ctAndFormat "ISO 8601"^^xsd:string ;
	bd:compliance <http://www.assero.co.uk/CSN#da9f1092-7a20-4c97-9144-8bac2e72d1ea> ;
	bd:basedOnClassVariable <http://www.cdisc.org/SDTM_MODEL_ALL/V2#CL_--ENDTC> ;
	bd:isA <http://www.s-cubed.dk/CAR#71c54c70967ea84127e4bd588bd627ec0e581dfb> ;
.
<http://www.cdisc.org/CM/V2#CMSTDY>
	rdf:type bd:SdtmDomainVariable ;
	isoC:label "Study Day of Start of Medication"^^xsd:string ;
	bd:rule ""^^xsd:string ;
	bd:ordinal "29"^^xsd:positiveInteger ;
	bd:name "CMSTDY"^^xsd:string ;
	bd:description "Study day of start of medication relative to the sponsor-defined RFSTDTC."^^xsd:string ;
	bd:format ""^^xsd:string ;
	bd:ctAndFormat ""^^xsd:string ;
	bd:compliance <http://www.assero.co.uk/CSN#da9f1092-7a20-4c97-9144-8bac2e72d1ea> ;
	bd:basedOnClassVariable <http://www.cdisc.org/SDTM_MODEL_ALL/V2#CL_--STDY> ;
.
<http://www.cdisc.org/CM/V2#CMENDY>
	rdf:type bd:SdtmDomainVariable ;
	isoC:label "Study Day of End of Medication"^^xsd:string ;
	bd:rule ""^^xsd:string ;
	bd:ordinal "30"^^xsd:positiveInteger ;
	bd:name "CMENDY"^^xsd:string ;
	bd:description "Study day of end of medication relative to the sponsor-defined RFSTDTC."^^xsd:string ;
	bd:format ""^^xsd:string ;
	bd:ctAndFormat ""^^xsd:string ;
	bd:compliance <http://www.assero.co.uk/CSN#da9f1092-7a20-4c97-9144-8bac2e72d1ea> ;
	bd:basedOnClassVariable <http://www.cdisc.org/SDTM_MODEL_ALL/V2#CL_--ENDY> ;
.
<http://www.cdisc.org/CM/V2#CMDUR>
	rdf:type bd:SdtmDomainVariable ;
	isoC:label "Duration of Medication"^^xsd:string ;
	bd:rule ""^^xsd:string ;
	bd:ordinal "31"^^xsd:positiveInteger ;
	bd:name "CMDUR"^^xsd:string ;
	bd:description "Collected duration for a treatment episode. Used only if collected on the CRF and not derived from start and end date/times."^^xsd:string ;
	bd:format "ISO 8601"^^xsd:string ;
	bd:ctAndFormat "ISO 8601"^^xsd:string ;
	bd:compliance <http://www.assero.co.uk/CSN#da9f1092-7a20-4c97-9144-8bac2e72d1ea> ;
	bd:basedOnClassVariable <http://www.cdisc.org/SDTM_MODEL_ALL/V2#CL_--DUR> ;
.
<http://www.cdisc.org/CM/V2#CMSTRF>
	rdf:type bd:SdtmDomainVariable ;
	isoC:label "Start Relative to Reference Period"^^xsd:string ;
	bd:rule ""^^xsd:string ;
	bd:ordinal "32"^^xsd:positiveInteger ;
	bd:name "CMSTRF"^^xsd:string ;
	bd:description "Describes the start of the medication relative to sponsor-defined reference period. The sponsor-defined reference period is a continuous period of time defined by a discrete starting point and a discrete ending point (represented by RFSTDTC and RFENDTC in Demographics). If information such as \"PRIOR\", \"ONGOING\", or \"CONTINUING\" was collected, this information may be translated into CMSTRF."^^xsd:string ;
	bd:format ""^^xsd:string ;
	bd:ctAndFormat "(STENRF)"^^xsd:string ;
	bd:compliance <http://www.assero.co.uk/CSN#da9f1092-7a20-4c97-9144-8bac2e72d1ea> ;
	bd:ctReference <http://www.cdisc.org/CM/V2#CMSTRF_TMC1> ;
	bd:basedOnClassVariable <http://www.cdisc.org/SDTM_MODEL_ALL/V2#CL_--STRF> ;
.
<http://www.cdisc.org/CM/V2#CMSTRF_TMC1>
	rdf:type bo:TMcReference ;
	isoC:label "STENRF"^^xsd:string ;
	bo:enabled "true"^^xsd:boolean ;
	bo:optional "false"^^xsd:boolean ;
	bo:ordinal "1"^^xsd:positiveInteger ;
	bo:reference <http://www.cdisc.org/C66728/V27#C66728> ;
	bo:context <http://www.cdisc.org/CT/V31#TH> ;
.
<http://www.cdisc.org/CM/V2#CMENRF>
	rdf:type bd:SdtmDomainVariable ;
	isoC:label "End Relative to Reference Period"^^xsd:string ;
	bd:rule ""^^xsd:string ;
	bd:ordinal "33"^^xsd:positiveInteger ;
	bd:name "CMENRF"^^xsd:string ;
	bd:description "Describes the end of the medication relative to the sponsor-defined reference period. The sponsor-defined reference period is a continuous period of time defined by a discrete starting point and a discrete ending point (represented by RFSTDTC and RFENDTC in Demographics). If information such as \"PRIOR\", \"ONGOING\", or \"CONTINUING\" was collected, this information may be translated into CMENRF."^^xsd:string ;
	bd:format ""^^xsd:string ;
	bd:ctAndFormat "(STENRF)"^^xsd:string ;
	bd:compliance <http://www.assero.co.uk/CSN#da9f1092-7a20-4c97-9144-8bac2e72d1ea> ;
	bd:ctReference <http://www.cdisc.org/CM/V2#CMENRF_TMC1> ;
	bd:basedOnClassVariable <http://www.cdisc.org/SDTM_MODEL_ALL/V2#CL_--ENRF> ;
.
<http://www.cdisc.org/CM/V2#CMENRF_TMC1>
	rdf:type bo:TMcReference ;
	isoC:label "STENRF"^^xsd:string ;
	bo:enabled "true"^^xsd:boolean ;
	bo:optional "false"^^xsd:boolean ;
	bo:ordinal "1"^^xsd:positiveInteger ;
	bo:reference <http://www.cdisc.org/C66728/V27#C66728> ;
	bo:context <http://www.cdisc.org/CT/V31#TH> ;
.
<http://www.cdisc.org/CM/V2#CMSTRTPT>
	rdf:type bd:SdtmDomainVariable ;
	isoC:label "Start Relative to Reference Time Point"^^xsd:string ;
	bd:rule ""^^xsd:string ;
	bd:ordinal "34"^^xsd:positiveInteger ;
	bd:name "CMSTRTPT"^^xsd:string ;
	bd:description "Identifies the start of the medication as being before or after the reference time point defined by variable CMSTTPT."^^xsd:string ;
	bd:format "BEFORE, COINCIDENT, AFTER, U"^^xsd:string ;
	bd:ctAndFormat "BEFORE, COINCIDENT, AFTER, U"^^xsd:string ;
	bd:compliance <http://www.assero.co.uk/CSN#da9f1092-7a20-4c97-9144-8bac2e72d1ea> ;
	bd:basedOnClassVariable <http://www.cdisc.org/SDTM_MODEL_ALL/V2#CL_--STRTPT> ;
.
<http://www.cdisc.org/CM/V2#CMSTTPT>
	rdf:type bd:SdtmDomainVariable ;
	isoC:label "Start Reference Time Point"^^xsd:string ;
	bd:rule ""^^xsd:string ;
	bd:ordinal "35"^^xsd:positiveInteger ;
	bd:name "CMSTTPT"^^xsd:string ;
	bd:description "Description or date/time in ISO 8601 character format of the reference point referred to by CMSTRTPT. Examples: \"2003-12-15\" or \"VISIT 1\"."^^xsd:string ;
	bd:format ""^^xsd:string ;
	bd:ctAndFormat ""^^xsd:string ;
	bd:compliance <http://www.assero.co.uk/CSN#da9f1092-7a20-4c97-9144-8bac2e72d1ea> ;
	bd:basedOnClassVariable <http://www.cdisc.org/SDTM_MODEL_ALL/V2#CL_--STTPT> ;
.
<http://www.cdisc.org/CM/V2#CMENRTPT>
	rdf:type bd:SdtmDomainVariable ;
	isoC:label "End Relative to Reference Time Point"^^xsd:string ;
	bd:rule ""^^xsd:string ;
	bd:ordinal "36"^^xsd:positiveInteger ;
	bd:name "CMENRTPT"^^xsd:string ;
	bd:description "Identifies the end of the medication as being before or after the reference time point defined by variable CMENTPT."^^xsd:string ;
	bd:format "BEFORE, COINCIDENT, AFTER, ONGOING, U"^^xsd:string ;
	bd:ctAndFormat "BEFORE, COINCIDENT, AFTER, ONGOING, U"^^xsd:string ;
	bd:compliance <http://www.assero.co.uk/CSN#da9f1092-7a20-4c97-9144-8bac2e72d1ea> ;
	bd:basedOnClassVariable <http://www.cdisc.org/SDTM_MODEL_ALL/V2#CL_--ENRTPT> ;
.
<http://www.cdisc.org/CM/V2#CMENTPT>
	rdf:type bd:SdtmDomainVariable ;
	isoC:label "End Reference Time Point"^^xsd:string ;
	bd:rule ""^^xsd:string ;
	bd:ordinal "37"^^xsd:positiveInteger ;
	bd:name "CMENTPT"^^xsd:string ;
	bd:description "Description or date/time in ISO 8601 character format of the reference point referred to by CMENRTPT. Examples: \"2003-12-25\" or \"VISIT 2\"."^^xsd:string ;
	bd:format ""^^xsd:string ;
	bd:ctAndFormat ""^^xsd:string ;
	bd:compliance <http://www.assero.co.uk/CSN#da9f1092-7a20-4c97-9144-8bac2e72d1ea> ;
	bd:basedOnClassVariable <http://www.cdisc.org/SDTM_MODEL_ALL/V2#CL_--ENTPT> ;
.
<http://www.cdisc.org/EX/V2>
	rdf:type bd:SdtmDomain ;
	isoC:label "Exposure"^^xsd:string ;
	isoT:hasState <http://www.cdisc.org/EX/V2#RS> ;
	isoT:hasIdentifier <http://www.cdisc.org/EX/V2#SI> ;
	isoT:hasPreviousVersion <http://www.cdisc.org/EX/V1> ;
	isoT:origin ""^^xsd:string ;
	isoT:changeDescription ""^^xsd:string ;
	isoT:creationDate "2012-07-16T00:00:00+00:00"^^xsd:dateTime ;
	isoT:lastChangeDate "2012-07-16T00:00:00+00:00"^^xsd:dateTime ;
	isoT:explanatoryComment ""^^xsd:string ;
	bd:rule ""^^xsd:string ;
	bd:ordinal "1"^^xsd:positiveInteger ;
	bd:includesColumn <http://www.cdisc.org/EX/V2#STUDYID> ;
	bd:includesColumn <http://www.cdisc.org/EX/V2#DOMAIN> ;
	bd:includesColumn <http://www.cdisc.org/EX/V2#USUBJID> ;
	bd:includesColumn <http://www.cdisc.org/EX/V2#EXSEQ> ;
	bd:includesColumn <http://www.cdisc.org/EX/V2#EXGRPID> ;
	bd:includesColumn <http://www.cdisc.org/EX/V2#EXSPID> ;
	bd:includesColumn <http://www.cdisc.org/EX/V2#EXTRT> ;
	bd:includesColumn <http://www.cdisc.org/EX/V2#EXCAT> ;
	bd:includesColumn <http://www.cdisc.org/EX/V2#EXSCAT> ;
	bd:includesColumn <http://www.cdisc.org/EX/V2#EXDOSE> ;
	bd:includesColumn <http://www.cdisc.org/EX/V2#EXDOSTXT> ;
	bd:includesColumn <http://www.cdisc.org/EX/V2#EXDOSU> ;
	bd:includesColumn <http://www.cdisc.org/EX/V2#EXDOSFRM> ;
	bd:includesColumn <http://www.cdisc.org/EX/V2#EXDOSFRQ> ;
	bd:includesColumn <http://www.cdisc.org/EX/V2#EXDOSTOT> ;
	bd:includesColumn <http://www.cdisc.org/EX/V2#EXDOSRGM> ;
	bd:includesColumn <http://www.cdisc.org/EX/V2#EXROUTE> ;
	bd:includesColumn <http://www.cdisc.org/EX/V2#EXLOT> ;
	bd:includesColumn <http://www.cdisc.org/EX/V2#EXLOC> ;
	bd:includesColumn <http://www.cdisc.org/EX/V2#EXTRTV> ;
	bd:includesColumn <http://www.cdisc.org/EX/V2#EXVAMT> ;
	bd:includesColumn <http://www.cdisc.org/EX/V2#EXVAMTU> ;
	bd:includesColumn <http://www.cdisc.org/EX/V2#EXADJ> ;
	bd:includesColumn <http://www.cdisc.org/EX/V2#TAETORD> ;
	bd:includesColumn <http://www.cdisc.org/EX/V2#EPOCH> ;
	bd:includesColumn <http://www.cdisc.org/EX/V2#EXSTDTC> ;
	bd:includesColumn <http://www.cdisc.org/EX/V2#EXENDTC> ;
	bd:includesColumn <http://www.cdisc.org/EX/V2#EXSTDY> ;
	bd:includesColumn <http://www.cdisc.org/EX/V2#EXENDY> ;
	bd:includesColumn <http://www.cdisc.org/EX/V2#EXDUR> ;
	bd:includesColumn <http://www.cdisc.org/EX/V2#EXTPT> ;
	bd:includesColumn <http://www.cdisc.org/EX/V2#EXTPTNUM> ;
	bd:includesColumn <http://www.cdisc.org/EX/V2#EXELTM> ;
	bd:includesColumn <http://www.cdisc.org/EX/V2#EXTPTREF> ;
	bd:prefix "EX"^^xsd:string ;
	bd:structure "One record per protocol-specified study treatment, constant-dosing interval, per subject"^^xsd:string ;
	bd:basedOnClass <http://www.cdisc.org/SDTM_MODEL_INTERVENTIONS/V2#CL> ;
.
<http://www.cdisc.org/EX/V2#RS>
	rdf:type isoR:RegistrationState ;
	isoR:registrationStatus "Standard"^^xsd:string ;
	isoR:administrativeNote ""^^xsd:string ;
	isoR:effectiveDate "2016-01-01T00:00:00+00:00"^^xsd:dateTime ;
	isoR:untilDate "2016-01-01T00:00:00+00:00"^^xsd:dateTime ;
	isoR:unresolvedIssue ""^^xsd:string ;
	isoR:administrativeStatus ""^^xsd:string ;
	isoR:previousState "Standard"^^xsd:string ;
	isoR:multipleEdit "false"^^xsd:boolean ;
	isoR:byAuthority <http://www.assero.co.uk/RA#DUNS084433759> ;
.
<http://www.cdisc.org/EX/V2#SI>
	rdf:type isoI:ScopedIdentifier ;
	isoI:identifier "EX"^^xsd:string ;
	isoI:versionLabel "2012-07-16 Release"^^xsd:string ;
	isoI:version "2"^^xsd:positiveInteger ;
	isoI:semanticVersion "2.0.0"^^xsd:string ;
	isoI:hasScope <http://www.assero.co.uk/NS#CDISC> ;
.
<http://www.cdisc.org/EX/V2#STUDYID>
	rdf:type bd:SdtmDomainVariable ;
	isoC:label "Study Identifier"^^xsd:string ;
	bd:rule ""^^xsd:string ;
	bd:ordinal "1"^^xsd:positiveInteger ;
	bd:name "STUDYID"^^xsd:string ;
	bd:description "Unique identifier for a study."^^xsd:string ;
	bd:format ""^^xsd:string ;
	bd:ctAndFormat ""^^xsd:string ;
	bd:compliance <http://www.assero.co.uk/CSN#8f112ba7-caa3-4f34-a9fc-8bc808b13955> ;
	bd:basedOnClassVariable <http://www.cdisc.org/SDTM_MODEL_ALL/V1#CL_STUDYID> ;
.
<http://www.cdisc.org/EX/V2#DOMAIN>
	rdf:type bd:SdtmDomainVariable ;
	isoC:label "Domain Abbreviation"^^xsd:string ;
	bd:rule ""^^xsd:string ;
	bd:ordinal "2"^^xsd:positiveInteger ;
	bd:name "DOMAIN"^^xsd:string ;
	bd:description "Two-character abbreviation for the domain."^^xsd:string ;
	bd:format ""^^xsd:string ;
	bd:ctAndFormat "(DOMAIN)"^^xsd:string ;
	bd:compliance <http://www.assero.co.uk/CSN#8f112ba7-caa3-4f34-a9fc-8bc808b13955> ;
	bd:ctReference <http://www.cdisc.org/EX/V2#DOMAIN_TMC1> ;
	bd:basedOnClassVariable <http://www.cdisc.org/SDTM_MODEL_ALL/V2#CL_DOMAIN> ;
.
<http://www.cdisc.org/EX/V2#DOMAIN_TMC1>
	rdf:type bo:TMcReference ;
	isoC:label "DOMAIN"^^xsd:string ;
	bo:enabled "true"^^xsd:boolean ;
	bo:optional "false"^^xsd:boolean ;
	bo:ordinal "1"^^xsd:positiveInteger ;
	bo:reference <http://www.cdisc.org/C66734/V28#C66734> ;
	bo:context <http://www.cdisc.org/CT/V31#TH> ;
.
<http://www.cdisc.org/EX/V2#USUBJID>
	rdf:type bd:SdtmDomainVariable ;
	isoC:label "Unique Subject Identifier"^^xsd:string ;
	bd:rule ""^^xsd:string ;
	bd:ordinal "3"^^xsd:positiveInteger ;
	bd:name "USUBJID"^^xsd:string ;
	bd:description "Identifier used to uniquely identify a subject across all studies for all applications or submissions involving the product."^^xsd:string ;
	bd:format ""^^xsd:string ;
	bd:ctAndFormat ""^^xsd:string ;
	bd:compliance <http://www.assero.co.uk/CSN#8f112ba7-caa3-4f34-a9fc-8bc808b13955> ;
	bd:basedOnClassVariable <http://www.cdisc.org/SDTM_MODEL_ALL/V1#CL_USUBJID> ;
.
<http://www.cdisc.org/EX/V2#EXSEQ>
	rdf:type bd:SdtmDomainVariable ;
	isoC:label "Sequence Number"^^xsd:string ;
	bd:rule ""^^xsd:string ;
	bd:ordinal "4"^^xsd:positiveInteger ;
	bd:name "EXSEQ"^^xsd:string ;
	bd:description "Sequence Number given to ensure uniqueness of subject records within a domain. May be any valid number."^^xsd:string ;
	bd:format ""^^xsd:string ;
	bd:ctAndFormat ""^^xsd:string ;
	bd:compliance <http://www.assero.co.uk/CSN#8f112ba7-caa3-4f34-a9fc-8bc808b13955> ;
	bd:basedOnClassVariable <http://www.cdisc.org/SDTM_MODEL_ALL/V2#CL_--SEQ> ;
.
<http://www.cdisc.org/EX/V2#EXGRPID>
	rdf:type bd:SdtmDomainVariable ;
	isoC:label "Group ID"^^xsd:string ;
	bd:rule ""^^xsd:string ;
	bd:ordinal "5"^^xsd:positiveInteger ;
	bd:name "EXGRPID"^^xsd:string ;
	bd:description "Used to tie together a block of related records in a single domain for a subject."^^xsd:string ;
	bd:format ""^^xsd:string ;
	bd:ctAndFormat ""^^xsd:string ;
	bd:compliance <http://www.assero.co.uk/CSN#da9f1092-7a20-4c97-9144-8bac2e72d1ea> ;
	bd:basedOnClassVariable <http://www.cdisc.org/SDTM_MODEL_ALL/V2#CL_--GRPID> ;
.
<http://www.cdisc.org/EX/V2#EXSPID>
	rdf:type bd:SdtmDomainVariable ;
	isoC:label "Sponsor-Defined Identifier"^^xsd:string ;
	bd:rule ""^^xsd:string ;
	bd:ordinal "6"^^xsd:positiveInteger ;
	bd:name "EXSPID"^^xsd:string ;
	bd:description "Sponsor-defined identifier. Perhaps pre-printed on the CRF as an explicit line identifier or defined in the sponsor's operational database. Example: Line number on a CRF Page."^^xsd:string ;
	bd:format ""^^xsd:string ;
	bd:ctAndFormat ""^^xsd:string ;
	bd:compliance <http://www.assero.co.uk/CSN#da9f1092-7a20-4c97-9144-8bac2e72d1ea> ;
	bd:basedOnClassVariable <http://www.cdisc.org/SDTM_MODEL_ALL/V2#CL_--SPID> ;
.
<http://www.cdisc.org/EX/V2#EXTRT>
	rdf:type bd:SdtmDomainVariable ;
	isoC:label "Name of Actual Treatment"^^xsd:string ;
	bd:rule ""^^xsd:string ;
	bd:ordinal "7"^^xsd:positiveInteger ;
	bd:name "EXTRT"^^xsd:string ;
	bd:description "Name of the intervention treatment - usually the verbatim name of the investigational treatment given during the dosing period for the observation."^^xsd:string ;
	bd:format ""^^xsd:string ;
	bd:ctAndFormat ""^^xsd:string ;
	bd:compliance <http://www.assero.co.uk/CSN#8f112ba7-caa3-4f34-a9fc-8bc808b13955> ;
	bd:basedOnClassVariable <http://www.cdisc.org/SDTM_MODEL_INTERVENTIONS/V1#CL_--TRT> ;
.
<http://www.cdisc.org/EX/V2#EXCAT>
	rdf:type bd:SdtmDomainVariable ;
	isoC:label "Category for Treatment"^^xsd:string ;
	bd:rule ""^^xsd:string ;
	bd:ordinal "8"^^xsd:positiveInteger ;
	bd:name "EXCAT"^^xsd:string ;
	bd:description "Used to define a category of related records. Example: COMPARATOR CLASS."^^xsd:string ;
	bd:format ""^^xsd:string ;
	bd:ctAndFormat ""^^xsd:string ;
	bd:compliance <http://www.assero.co.uk/CSN#da9f1092-7a20-4c97-9144-8bac2e72d1ea> ;
	bd:basedOnClassVariable <http://www.cdisc.org/SDTM_MODEL_INTERVENTIONS/V2#CL_--CAT> ;
	bd:isA <http://www.s-cubed.dk/CAR#a3c686e711e4720f99b4562bb3dbaae7ab658cf2> ;
.
<http://www.cdisc.org/EX/V2#EXSCAT>
	rdf:type bd:SdtmDomainVariable ;
	isoC:label "Subcategory for Treatment"^^xsd:string ;
	bd:rule ""^^xsd:string ;
	bd:ordinal "9"^^xsd:positiveInteger ;
	bd:name "EXSCAT"^^xsd:string ;
	bd:description "A further categorization of treatment."^^xsd:string ;
	bd:format ""^^xsd:string ;
	bd:ctAndFormat ""^^xsd:string ;
	bd:compliance <http://www.assero.co.uk/CSN#da9f1092-7a20-4c97-9144-8bac2e72d1ea> ;
	bd:basedOnClassVariable <http://www.cdisc.org/SDTM_MODEL_INTERVENTIONS/V1#CL_--SCAT> ;
	bd:isA <http://www.s-cubed.dk/CAR#479a67983e739413da55faf0dc509f83fd5dea64> ;
.
<http://www.cdisc.org/EX/V2#EXDOSE>
	rdf:type bd:SdtmDomainVariable ;
	isoC:label "Dose per Administration"^^xsd:string ;
	bd:rule ""^^xsd:string ;
	bd:ordinal "10"^^xsd:positiveInteger ;
	bd:name "EXDOSE"^^xsd:string ;
	bd:description "Amount of EXTRT administered or given."^^xsd:string ;
	bd:format ""^^xsd:string ;
	bd:ctAndFormat ""^^xsd:string ;
	bd:compliance <http://www.assero.co.uk/CSN#fc544083-2437-4ec0-97f4-767598bee682> ;
	bd:basedOnClassVariable <http://www.cdisc.org/SDTM_MODEL_INTERVENTIONS/V1#CL_--DOSE> ;
.
<http://www.cdisc.org/EX/V2#EXDOSTXT>
	rdf:type bd:SdtmDomainVariable ;
	isoC:label "Dose Description"^^xsd:string ;
	bd:rule ""^^xsd:string ;
	bd:ordinal "11"^^xsd:positiveInteger ;
	bd:name "EXDOSTXT"^^xsd:string ;
	bd:description "Dosing amounts or a range of dosing information collected in text form. Example: 200-400."^^xsd:string ;
	bd:format ""^^xsd:string ;
	bd:ctAndFormat ""^^xsd:string ;
	bd:compliance <http://www.assero.co.uk/CSN#da9f1092-7a20-4c97-9144-8bac2e72d1ea> ;
	bd:basedOnClassVariable <http://www.cdisc.org/SDTM_MODEL_INTERVENTIONS/V1#CL_--DOSTXT> ;
.
<http://www.cdisc.org/EX/V2#EXDOSU>
	rdf:type bd:SdtmDomainVariable ;
	isoC:label "Dose Units"^^xsd:string ;
	bd:rule ""^^xsd:string ;
	bd:ordinal "12"^^xsd:positiveInteger ;
	bd:name "EXDOSU"^^xsd:string ;
	bd:description "Units for EXDOSE and EXDOSTOT. Examples: ng, mg, or mg/kg."^^xsd:string ;
	bd:format ""^^xsd:string ;
	bd:ctAndFormat "(UNIT)"^^xsd:string ;
	bd:compliance <http://www.assero.co.uk/CSN#fc544083-2437-4ec0-97f4-767598bee682> ;
	bd:ctReference <http://www.cdisc.org/EX/V2#EXDOSU_TMC1> ;
	bd:basedOnClassVariable <http://www.cdisc.org/SDTM_MODEL_INTERVENTIONS/V1#CL_--DOSU> ;
.
<http://www.cdisc.org/EX/V2#EXDOSU_TMC1>
	rdf:type bo:TMcReference ;
	isoC:label "UNIT"^^xsd:string ;
	bo:enabled "true"^^xsd:boolean ;
	bo:optional "false"^^xsd:boolean ;
	bo:ordinal "1"^^xsd:positiveInteger ;
	bo:reference <http://www.cdisc.org/C71620/V31#C71620> ;
	bo:context <http://www.cdisc.org/CT/V31#TH> ;
.
<http://www.cdisc.org/EX/V2#EXDOSFRM>
	rdf:type bd:SdtmDomainVariable ;
	isoC:label "Dose Form"^^xsd:string ;
	bd:rule ""^^xsd:string ;
	bd:ordinal "13"^^xsd:positiveInteger ;
	bd:name "EXDOSFRM"^^xsd:string ;
	bd:description "Dose form for EXTRT. Examples: TABLET, LOTION."^^xsd:string ;
	bd:format ""^^xsd:string ;
	bd:ctAndFormat "(FRM)"^^xsd:string ;
	bd:compliance <http://www.assero.co.uk/CSN#fc544083-2437-4ec0-97f4-767598bee682> ;
	bd:ctReference <http://www.cdisc.org/EX/V2#EXDOSFRM_TMC1> ;
	bd:basedOnClassVariable <http://www.cdisc.org/SDTM_MODEL_INTERVENTIONS/V1#CL_--DOSFRM> ;
.
<http://www.cdisc.org/EX/V2#EXDOSFRM_TMC1>
	rdf:type bo:TMcReference ;
	isoC:label "FRM"^^xsd:string ;
	bo:enabled "true"^^xsd:boolean ;
	bo:optional "false"^^xsd:boolean ;
	bo:ordinal "1"^^xsd:positiveInteger ;
	bo:reference <http://www.cdisc.org/C66726/V30#C66726> ;
	bo:context <http://www.cdisc.org/CT/V31#TH> ;
.
<http://www.cdisc.org/EX/V2#EXDOSFRQ>
	rdf:type bd:SdtmDomainVariable ;
	isoC:label "Dosing Frequency per Interval"^^xsd:string ;
	bd:rule ""^^xsd:string ;
	bd:ordinal "14"^^xsd:positiveInteger ;
	bd:name "EXDOSFRQ"^^xsd:string ;
	bd:description "Usually expressed as the number of repeated administrations of EXDOSE within a specific time period. Examples: BID (twice daily), Q4S (once every four weeks), BIS (twice a week)."^^xsd:string ;
	bd:format ""^^xsd:string ;
	bd:ctAndFormat "(FREQ)"^^xsd:string ;
	bd:compliance <http://www.assero.co.uk/CSN#da9f1092-7a20-4c97-9144-8bac2e72d1ea> ;
	bd:ctReference <http://www.cdisc.org/EX/V2#EXDOSFRQ_TMC1> ;
	bd:basedOnClassVariable <http://www.cdisc.org/SDTM_MODEL_INTERVENTIONS/V1#CL_--DOSFRQ> ;
.
<http://www.cdisc.org/EX/V2#EXDOSFRQ_TMC1>
	rdf:type bo:TMcReference ;
	isoC:label "FREQ"^^xsd:string ;
	bo:enabled "true"^^xsd:boolean ;
	bo:optional "false"^^xsd:boolean ;
	bo:ordinal "1"^^xsd:positiveInteger ;
	bo:reference <http://www.cdisc.org/C71113/V31#C71113> ;
	bo:context <http://www.cdisc.org/CT/V31#TH> ;
.
<http://www.cdisc.org/EX/V2#EXDOSTOT>
	rdf:type bd:SdtmDomainVariable ;
	isoC:label "Total Daily Dose"^^xsd:string ;
	bd:rule ""^^xsd:string ;
	bd:ordinal "15"^^xsd:positiveInteger ;
	bd:name "EXDOSTOT"^^xsd:string ;
	bd:description "Total daily dose of EXTRT using the units in EXDOSU. Total dose over a period other than day could be recorded in a separate Supplemental Qualifier variable."^^xsd:string ;
	bd:format ""^^xsd:string ;
	bd:ctAndFormat ""^^xsd:string ;
	bd:compliance <http://www.assero.co.uk/CSN#da9f1092-7a20-4c97-9144-8bac2e72d1ea> ;
	bd:basedOnClassVariable <http://www.cdisc.org/SDTM_MODEL_INTERVENTIONS/V1#CL_--DOSTOT> ;
.
<http://www.cdisc.org/EX/V2#EXDOSRGM>
	rdf:type bd:SdtmDomainVariable ;
	isoC:label "Intended Dose Regimen"^^xsd:string ;
	bd:rule ""^^xsd:string ;
	bd:ordinal "16"^^xsd:positiveInteger ;
	bd:name "EXDOSRGM"^^xsd:string ;
	bd:description "Text description of the (intended) schedule or regimen for the Intervention. Examples: TWO WEEKS ON, TWO WEEKS OFF."^^xsd:string ;
	bd:format ""^^xsd:string ;
	bd:ctAndFormat ""^^xsd:string ;
	bd:compliance <http://www.assero.co.uk/CSN#da9f1092-7a20-4c97-9144-8bac2e72d1ea> ;
	bd:basedOnClassVariable <http://www.cdisc.org/SDTM_MODEL_INTERVENTIONS/V1#CL_--DOSRGM> ;
.
<http://www.cdisc.org/EX/V2#EXROUTE>
	rdf:type bd:SdtmDomainVariable ;
	isoC:label "Route of Administration"^^xsd:string ;
	bd:rule ""^^xsd:string ;
	bd:ordinal "17"^^xsd:positiveInteger ;
	bd:name "EXROUTE"^^xsd:string ;
	bd:description "Route of administration for EXTRT. Examples: ORAL, INTRAVENOUS."^^xsd:string ;
	bd:format ""^^xsd:string ;
	bd:ctAndFormat "(ROUTE)"^^xsd:string ;
	bd:compliance <http://www.assero.co.uk/CSN#da9f1092-7a20-4c97-9144-8bac2e72d1ea> ;
	bd:ctReference <http://www.cdisc.org/EX/V2#EXROUTE_TMC1> ;
	bd:basedOnClassVariable <http://www.cdisc.org/SDTM_MODEL_INTERVENTIONS/V1#CL_--ROUTE> ;
.
<http://www.cdisc.org/EX/V2#EXROUTE_TMC1>
	rdf:type bo:TMcReference ;
	isoC:label "ROUTE"^^xsd:string ;
	bo:enabled "true"^^xsd:boolean ;
	bo:optional "false"^^xsd:boolean ;
	bo:ordinal "1"^^xsd:positiveInteger ;
	bo:reference <http://www.cdisc.org/C90009/V26#C90009_C38114> ;
	bo:context <http://www.cdisc.org/CT/V31#TH> ;
.
<http://www.cdisc.org/EX/V2#EXLOT>
	rdf:type bd:SdtmDomainVariable ;
	isoC:label "Lot Number"^^xsd:string ;
	bd:rule ""^^xsd:string ;
	bd:ordinal "18"^^xsd:positiveInteger ;
	bd:name "EXLOT"^^xsd:string ;
	bd:description "Lot Number of the EXTRT product."^^xsd:string ;
	bd:format ""^^xsd:string ;
	bd:ctAndFormat ""^^xsd:string ;
	bd:compliance <http://www.assero.co.uk/CSN#da9f1092-7a20-4c97-9144-8bac2e72d1ea> ;
	bd:basedOnClassVariable <http://www.cdisc.org/SDTM_MODEL_INTERVENTIONS/V1#CL_--LOT> ;
.
<http://www.cdisc.org/EX/V2#EXLOC>
	rdf:type bd:SdtmDomainVariable ;
	isoC:label "Location of Dose Administration"^^xsd:string ;
	bd:rule ""^^xsd:string ;
	bd:ordinal "19"^^xsd:positiveInteger ;
	bd:name "EXLOC"^^xsd:string ;
	bd:description "Specifies location of administration. Example: LEFT ARM for a topical application."^^xsd:string ;
	bd:format ""^^xsd:string ;
	bd:ctAndFormat "(LOC)"^^xsd:string ;
	bd:compliance <http://www.assero.co.uk/CSN#da9f1092-7a20-4c97-9144-8bac2e72d1ea> ;
	bd:ctReference <http://www.cdisc.org/EX/V2#EXLOC_TMC1> ;
	bd:basedOnClassVariable <http://www.cdisc.org/SDTM_MODEL_INTERVENTIONS/V2#CL_--LOC> ;
	bd:isA <http://www.s-cubed.dk/CAR#d219c68101f532de10add2cf42fb9dbeca73d3be> ;
.
<http://www.cdisc.org/EX/V2#EXLOC_TMC1>
	rdf:type bo:TMcReference ;
	isoC:label "LOC"^^xsd:string ;
	bo:enabled "true"^^xsd:boolean ;
	bo:optional "false"^^xsd:boolean ;
	bo:ordinal "1"^^xsd:positiveInteger ;
	bo:reference <http://www.cdisc.org/C74456/V31#C74456> ;
	bo:context <http://www.cdisc.org/CT/V31#TH> ;
.
<http://www.cdisc.org/EX/V2#EXTRTV>
	rdf:type bd:SdtmDomainVariable ;
	isoC:label "Treatment Vehicle"^^xsd:string ;
	bd:rule ""^^xsd:string ;
	bd:ordinal "20"^^xsd:positiveInteger ;
	bd:name "EXTRTV"^^xsd:string ;
	bd:description "Describes vehicle used for treatment. Example: SALINE."^^xsd:string ;
	bd:format ""^^xsd:string ;
	bd:ctAndFormat ""^^xsd:string ;
	bd:compliance <http://www.assero.co.uk/CSN#da9f1092-7a20-4c97-9144-8bac2e72d1ea> ;
	bd:basedOnClassVariable <http://www.cdisc.org/SDTM_MODEL_INTERVENTIONS/V1#CL_--TRTV> ;
.
<http://www.cdisc.org/EX/V2#EXVAMT>
	rdf:type bd:SdtmDomainVariable ;
	isoC:label "Treatment Vehicle Amount"^^xsd:string ;
	bd:rule ""^^xsd:string ;
	bd:ordinal "21"^^xsd:positiveInteger ;
	bd:name "EXVAMT"^^xsd:string ;
	bd:description "Amount administered of the treatment vehicle indicated by EXTRTV"^^xsd:string ;
	bd:format ""^^xsd:string ;
	bd:ctAndFormat ""^^xsd:string ;
	bd:compliance <http://www.assero.co.uk/CSN#da9f1092-7a20-4c97-9144-8bac2e72d1ea> ;
	bd:basedOnClassVariable <http://www.cdisc.org/SDTM_MODEL_INTERVENTIONS/V1#CL_--VAMT> ;
.
<http://www.cdisc.org/EX/V2#EXVAMTU>
	rdf:type bd:SdtmDomainVariable ;
	isoC:label "Treatment Vehicle Amount Units"^^xsd:string ;
	bd:rule ""^^xsd:string ;
	bd:ordinal "22"^^xsd:positiveInteger ;
	bd:name "EXVAMTU"^^xsd:string ;
	bd:description "Units of the treatment vehicle amount indicated by EXVAMT"^^xsd:string ;
	bd:format ""^^xsd:string ;
	bd:ctAndFormat "(UNIT)"^^xsd:string ;
	bd:compliance <http://www.assero.co.uk/CSN#da9f1092-7a20-4c97-9144-8bac2e72d1ea> ;
	bd:ctReference <http://www.cdisc.org/EX/V2#EXVAMTU_TMC1> ;
	bd:basedOnClassVariable <http://www.cdisc.org/SDTM_MODEL_INTERVENTIONS/V1#CL_--VAMTU> ;
.
<http://www.cdisc.org/EX/V2#EXVAMTU_TMC1>
	rdf:type bo:TMcReference ;
	isoC:label "UNIT"^^xsd:string ;
	bo:enabled "true"^^xsd:boolean ;
	bo:optional "false"^^xsd:boolean ;
	bo:ordinal "1"^^xsd:positiveInteger ;
	bo:reference <http://www.cdisc.org/C71620/V31#C71620> ;
	bo:context <http://www.cdisc.org/CT/V31#TH> ;
.
<http://www.cdisc.org/EX/V2#EXADJ>
	rdf:type bd:SdtmDomainVariable ;
	isoC:label "Reason for Dose Adjustment"^^xsd:string ;
	bd:rule ""^^xsd:string ;
	bd:ordinal "23"^^xsd:positiveInteger ;
	bd:name "EXADJ"^^xsd:string ;
	bd:description "Describes reason or explanation of why a dose is adjusted - used only when an adjustment is represented in EX."^^xsd:string ;
	bd:format ""^^xsd:string ;
	bd:ctAndFormat ""^^xsd:string ;
	bd:compliance <http://www.assero.co.uk/CSN#da9f1092-7a20-4c97-9144-8bac2e72d1ea> ;
	bd:basedOnClassVariable <http://www.cdisc.org/SDTM_MODEL_INTERVENTIONS/V1#CL_--ADJ> ;
.
<http://www.cdisc.org/EX/V2#TAETORD>
	rdf:type bd:SdtmDomainVariable ;
	isoC:label "Planned Order of Element within Arm"^^xsd:string ;
	bd:rule ""^^xsd:string ;
	bd:ordinal "24"^^xsd:positiveInteger ;
	bd:name "TAETORD"^^xsd:string ;
	bd:description "Number that gives the order of the Element within the Arm."^^xsd:string ;
	bd:format ""^^xsd:string ;
	bd:ctAndFormat ""^^xsd:string ;
	bd:compliance <http://www.assero.co.uk/CSN#da9f1092-7a20-4c97-9144-8bac2e72d1ea> ;
	bd:basedOnClassVariable <http://www.cdisc.org/SDTM_MODEL_ALL/V2#CL_TAETORD> ;
.
<http://www.cdisc.org/EX/V2#EPOCH>
	rdf:type bd:SdtmDomainVariable ;
	isoC:label "Epoch"^^xsd:string ;
	bd:rule ""^^xsd:string ;
	bd:ordinal "25"^^xsd:positiveInteger ;
	bd:name "EPOCH"^^xsd:string ;
	bd:description "Trial Epoch of the Exposure record. Examples: SCREENING, TREATMENT PHASE, FOLLOW-UP"^^xsd:string ;
	bd:format ""^^xsd:string ;
	bd:ctAndFormat ""^^xsd:string ;
	bd:compliance <http://www.assero.co.uk/CSN#da9f1092-7a20-4c97-9144-8bac2e72d1ea> ;
	bd:basedOnClassVariable <http://www.cdisc.org/SDTM_MODEL_ALL/V2#CL_EPOCH> ;
.
<http://www.cdisc.org/EX/V2#EXSTDTC>
	rdf:type bd:SdtmDomainVariable ;
	isoC:label "Start Date/Time of Treatment"^^xsd:string ;
	bd:rule ""^^xsd:string ;
	bd:ordinal "26"^^xsd:positiveInteger ;
	bd:name "EXSTDTC"^^xsd:string ;
	bd:description "The time when administration of the treatment indicated by EXTRT and EXDOSE began."^^xsd:string ;
	bd:format "ISO 8601"^^xsd:string ;
	bd:ctAndFormat "ISO 8601"^^xsd:string ;
	bd:compliance <http://www.assero.co.uk/CSN#fc544083-2437-4ec0-97f4-767598bee682> ;
	bd:basedOnClassVariable <http://www.cdisc.org/SDTM_MODEL_ALL/V2#CL_--STDTC> ;
	bd:isA <http://www.s-cubed.dk/CAR#83c87956785cde43c109e30fcbd95cca63a18d38> ;
.
<http://www.cdisc.org/EX/V2#EXENDTC>
	rdf:type bd:SdtmDomainVariable ;
	isoC:label "End Date/Time of Treatment"^^xsd:string ;
	bd:rule ""^^xsd:string ;
	bd:ordinal "27"^^xsd:positiveInteger ;
	bd:name "EXENDTC"^^xsd:string ;
	bd:description "The time when administration of the treatment indicated by EXTRT and EXDOSE ended."^^xsd:string ;
	bd:format "ISO 8601"^^xsd:string ;
	bd:ctAndFormat "ISO 8601"^^xsd:string ;
	bd:compliance <http://www.assero.co.uk/CSN#da9f1092-7a20-4c97-9144-8bac2e72d1ea> ;
	bd:basedOnClassVariable <http://www.cdisc.org/SDTM_MODEL_ALL/V2#CL_--ENDTC> ;
	bd:isA <http://www.s-cubed.dk/CAR#71c54c70967ea84127e4bd588bd627ec0e581dfb> ;
.
<http://www.cdisc.org/EX/V2#EXSTDY>
	rdf:type bd:SdtmDomainVariable ;
	isoC:label "Study Day of Start of Treatment"^^xsd:string ;
	bd:rule ""^^xsd:string ;
	bd:ordinal "28"^^xsd:positiveInteger ;
	bd:name "EXSTDY"^^xsd:string ;
	bd:description "Study day of start of treatment relative to the sponsor-defined RFSTDTC."^^xsd:string ;
	bd:format ""^^xsd:string ;
	bd:ctAndFormat ""^^xsd:string ;
	bd:compliance <http://www.assero.co.uk/CSN#da9f1092-7a20-4c97-9144-8bac2e72d1ea> ;
	bd:basedOnClassVariable <http://www.cdisc.org/SDTM_MODEL_ALL/V2#CL_--STDY> ;
.
<http://www.cdisc.org/EX/V2#EXENDY>
	rdf:type bd:SdtmDomainVariable ;
	isoC:label "Study Day of End of Treatment"^^xsd:string ;
	bd:rule ""^^xsd:string ;
	bd:ordinal "29"^^xsd:positiveInteger ;
	bd:name "EXENDY"^^xsd:string ;
	bd:description "Study day of end of treatment relative to the sponsor-defined RFSTDTC."^^xsd:string ;
	bd:format ""^^xsd:string ;
	bd:ctAndFormat ""^^xsd:string ;
	bd:compliance <http://www.assero.co.uk/CSN#da9f1092-7a20-4c97-9144-8bac2e72d1ea> ;
	bd:basedOnClassVariable <http://www.cdisc.org/SDTM_MODEL_ALL/V2#CL_--ENDY> ;
.
<http://www.cdisc.org/EX/V2#EXDUR>
	rdf:type bd:SdtmDomainVariable ;
	isoC:label "Duration of Treatment"^^xsd:string ;
	bd:rule ""^^xsd:string ;
	bd:ordinal "30"^^xsd:positiveInteger ;
	bd:name "EXDUR"^^xsd:string ;
	bd:description "Collected duration and unit of a treatment. Used only if collected on the CRF and not derived from start and end date/times."^^xsd:string ;
	bd:format "ISO 8601"^^xsd:string ;
	bd:ctAndFormat "ISO 8601"^^xsd:string ;
	bd:compliance <http://www.assero.co.uk/CSN#da9f1092-7a20-4c97-9144-8bac2e72d1ea> ;
	bd:basedOnClassVariable <http://www.cdisc.org/SDTM_MODEL_ALL/V2#CL_--DUR> ;
.
<http://www.cdisc.org/EX/V2#EXTPT>
	rdf:type bd:SdtmDomainVariable ;
	isoC:label "Planned Time Point Name"^^xsd:string ;
	bd:rule ""^^xsd:string ;
	bd:ordinal "31"^^xsd:positiveInteger ;
	bd:name "EXTPT"^^xsd:string ;
	bd:description "1. Text Description of time when a dose should be given.\n2. This may be represented as an elapsed time relative to a fixed reference point, such as time of last dose. See EXTPTNUM and EXTPTREF. Examples: Start or 5 min post."^^xsd:string ;
	bd:format ""^^xsd:string ;
	bd:ctAndFormat ""^^xsd:string ;
	bd:compliance <http://www.assero.co.uk/CSN#da9f1092-7a20-4c97-9144-8bac2e72d1ea> ;
	bd:basedOnClassVariable <http://www.cdisc.org/SDTM_MODEL_ALL/V2#CL_--TPT> ;
.
<http://www.cdisc.org/EX/V2#EXTPTNUM>
	rdf:type bd:SdtmDomainVariable ;
	isoC:label "Planned Time Point Number"^^xsd:string ;
	bd:rule ""^^xsd:string ;
	bd:ordinal "32"^^xsd:positiveInteger ;
	bd:name "EXTPTNUM"^^xsd:string ;
	bd:description "Numerical version of EXTPT to aid in sorting."^^xsd:string ;
	bd:format ""^^xsd:string ;
	bd:ctAndFormat ""^^xsd:string ;
	bd:compliance <http://www.assero.co.uk/CSN#da9f1092-7a20-4c97-9144-8bac2e72d1ea> ;
	bd:basedOnClassVariable <http://www.cdisc.org/SDTM_MODEL_ALL/V2#CL_--TPTNUM> ;
.
<http://www.cdisc.org/EX/V2#EXELTM>
	rdf:type bd:SdtmDomainVariable ;
	isoC:label "Planned Elapsed Time from Time Point Ref"^^xsd:string ;
	bd:rule ""^^xsd:string ;
	bd:ordinal "33"^^xsd:positiveInteger ;
	bd:name "EXELTM"^^xsd:string ;
	bd:description "Planned elapsed time (in ISO 8601 format) relative to the planned fixed reference (EXTPTREF). This variable is useful where there are repetitive measures. Not a clock time. Represented as an ISO duration."^^xsd:string ;
	bd:format "ISO 8601"^^xsd:string ;
	bd:ctAndFormat "ISO 8601"^^xsd:string ;
	bd:compliance <http://www.assero.co.uk/CSN#da9f1092-7a20-4c97-9144-8bac2e72d1ea> ;
	bd:basedOnClassVariable <http://www.cdisc.org/SDTM_MODEL_ALL/V2#CL_--ELTM> ;
.
<http://www.cdisc.org/EX/V2#EXTPTREF>
	rdf:type bd:SdtmDomainVariable ;
	isoC:label "Time Point Reference"^^xsd:string ;
	bd:rule ""^^xsd:string ;
	bd:ordinal "34"^^xsd:positiveInteger ;
	bd:name "EXTPTREF"^^xsd:string ;
	bd:description "Name of the fixed reference point referred to by EXELTM, EXTPTNUM, and EXTPT. Examples: PREVIOUS DOSE, PREVIOUS MEAL."^^xsd:string ;
	bd:format ""^^xsd:string ;
	bd:ctAndFormat ""^^xsd:string ;
	bd:compliance <http://www.assero.co.uk/CSN#da9f1092-7a20-4c97-9144-8bac2e72d1ea> ;
	bd:basedOnClassVariable <http://www.cdisc.org/SDTM_MODEL_ALL/V2#CL_--TPTREF> ;
.
<http://www.cdisc.org/SU/V2>
	rdf:type bd:SdtmDomain ;
	isoC:label "Substance Use"^^xsd:string ;
	isoT:hasState <http://www.cdisc.org/SU/V2#RS> ;
	isoT:hasIdentifier <http://www.cdisc.org/SU/V2#SI> ;
	isoT:hasPreviousVersion <http://www.cdisc.org/SU/V1> ;
	isoT:origin ""^^xsd:string ;
	isoT:changeDescription ""^^xsd:string ;
	isoT:creationDate "2012-07-16T00:00:00+00:00"^^xsd:dateTime ;
	isoT:lastChangeDate "2012-07-16T00:00:00+00:00"^^xsd:dateTime ;
	isoT:explanatoryComment ""^^xsd:string ;
	bd:rule ""^^xsd:string ;
	bd:ordinal "1"^^xsd:positiveInteger ;
	bd:includesColumn <http://www.cdisc.org/SU/V2#STUDYID> ;
	bd:includesColumn <http://www.cdisc.org/SU/V2#DOMAIN> ;
	bd:includesColumn <http://www.cdisc.org/SU/V2#USUBJID> ;
	bd:includesColumn <http://www.cdisc.org/SU/V2#SUSEQ> ;
	bd:includesColumn <http://www.cdisc.org/SU/V2#SUGRPID> ;
	bd:includesColumn <http://www.cdisc.org/SU/V2#SUSPID> ;
	bd:includesColumn <http://www.cdisc.org/SU/V2#SUTRT> ;
	bd:includesColumn <http://www.cdisc.org/SU/V2#SUMODIFY> ;
	bd:includesColumn <http://www.cdisc.org/SU/V2#SUDECOD> ;
	bd:includesColumn <http://www.cdisc.org/SU/V2#SUCAT> ;
	bd:includesColumn <http://www.cdisc.org/SU/V2#SUSCAT> ;
	bd:includesColumn <http://www.cdisc.org/SU/V2#SUPRESP> ;
	bd:includesColumn <http://www.cdisc.org/SU/V2#SUOCCUR> ;
	bd:includesColumn <http://www.cdisc.org/SU/V2#SUSTAT> ;
	bd:includesColumn <http://www.cdisc.org/SU/V2#SUREASND> ;
	bd:includesColumn <http://www.cdisc.org/SU/V2#SUCLAS> ;
	bd:includesColumn <http://www.cdisc.org/SU/V2#SUCLASCD> ;
	bd:includesColumn <http://www.cdisc.org/SU/V2#SUDOSE> ;
	bd:includesColumn <http://www.cdisc.org/SU/V2#SUDOSTXT> ;
	bd:includesColumn <http://www.cdisc.org/SU/V2#SUDOSU> ;
	bd:includesColumn <http://www.cdisc.org/SU/V2#SUDOSFRM> ;
	bd:includesColumn <http://www.cdisc.org/SU/V2#SUDOSFRQ> ;
	bd:includesColumn <http://www.cdisc.org/SU/V2#SUDOSTOT> ;
	bd:includesColumn <http://www.cdisc.org/SU/V2#SUROUTE> ;
	bd:includesColumn <http://www.cdisc.org/SU/V2#SUSTDTC> ;
	bd:includesColumn <http://www.cdisc.org/SU/V2#SUENDTC> ;
	bd:includesColumn <http://www.cdisc.org/SU/V2#SUSTDY> ;
	bd:includesColumn <http://www.cdisc.org/SU/V2#SUENDY> ;
	bd:includesColumn <http://www.cdisc.org/SU/V2#SUDUR> ;
	bd:includesColumn <http://www.cdisc.org/SU/V2#SUSTRF> ;
	bd:includesColumn <http://www.cdisc.org/SU/V2#SUENRF> ;
	bd:includesColumn <http://www.cdisc.org/SU/V2#SUSTRTPT> ;
	bd:includesColumn <http://www.cdisc.org/SU/V2#SUSTTPT> ;
	bd:includesColumn <http://www.cdisc.org/SU/V2#SUENRTPT> ;
	bd:includesColumn <http://www.cdisc.org/SU/V2#SUENTPT> ;
	bd:prefix "SU"^^xsd:string ;
	bd:structure "One record per substance type per reported occurrence per subject"^^xsd:string ;
	bd:basedOnClass <http://www.cdisc.org/SDTM_MODEL_INTERVENTIONS/V2#CL> ;
.
<http://www.cdisc.org/SU/V2#RS>
	rdf:type isoR:RegistrationState ;
	isoR:registrationStatus "Standard"^^xsd:string ;
	isoR:administrativeNote ""^^xsd:string ;
	isoR:effectiveDate "2016-01-01T00:00:00+00:00"^^xsd:dateTime ;
	isoR:untilDate "2016-01-01T00:00:00+00:00"^^xsd:dateTime ;
	isoR:unresolvedIssue ""^^xsd:string ;
	isoR:administrativeStatus ""^^xsd:string ;
	isoR:previousState "Standard"^^xsd:string ;
	isoR:multipleEdit "false"^^xsd:boolean ;
	isoR:byAuthority <http://www.assero.co.uk/RA#DUNS084433759> ;
.
<http://www.cdisc.org/SU/V2#SI>
	rdf:type isoI:ScopedIdentifier ;
	isoI:identifier "SU"^^xsd:string ;
	isoI:versionLabel "2012-07-16 Release"^^xsd:string ;
	isoI:version "2"^^xsd:positiveInteger ;
	isoI:semanticVersion "2.0.0"^^xsd:string ;
	isoI:hasScope <http://www.assero.co.uk/NS#CDISC> ;
.
<http://www.cdisc.org/SU/V2#STUDYID>
	rdf:type bd:SdtmDomainVariable ;
	isoC:label "Study Identifier"^^xsd:string ;
	bd:rule ""^^xsd:string ;
	bd:ordinal "1"^^xsd:positiveInteger ;
	bd:name "STUDYID"^^xsd:string ;
	bd:description "Unique identifier for a study."^^xsd:string ;
	bd:format ""^^xsd:string ;
	bd:ctAndFormat ""^^xsd:string ;
	bd:compliance <http://www.assero.co.uk/CSN#8f112ba7-caa3-4f34-a9fc-8bc808b13955> ;
	bd:basedOnClassVariable <http://www.cdisc.org/SDTM_MODEL_ALL/V1#CL_STUDYID> ;
.
<http://www.cdisc.org/SU/V2#DOMAIN>
	rdf:type bd:SdtmDomainVariable ;
	isoC:label "Domain Abbreviation"^^xsd:string ;
	bd:rule ""^^xsd:string ;
	bd:ordinal "2"^^xsd:positiveInteger ;
	bd:name "DOMAIN"^^xsd:string ;
	bd:description "Two-character abbreviation for the domain."^^xsd:string ;
	bd:format ""^^xsd:string ;
	bd:ctAndFormat "(DOMAIN)"^^xsd:string ;
	bd:compliance <http://www.assero.co.uk/CSN#8f112ba7-caa3-4f34-a9fc-8bc808b13955> ;
	bd:ctReference <http://www.cdisc.org/SU/V2#DOMAIN_TMC1> ;
	bd:basedOnClassVariable <http://www.cdisc.org/SDTM_MODEL_ALL/V2#CL_DOMAIN> ;
.
<http://www.cdisc.org/SU/V2#DOMAIN_TMC1>
	rdf:type bo:TMcReference ;
	isoC:label "DOMAIN"^^xsd:string ;
	bo:enabled "true"^^xsd:boolean ;
	bo:optional "false"^^xsd:boolean ;
	bo:ordinal "1"^^xsd:positiveInteger ;
	bo:reference <http://www.cdisc.org/C66734/V28#C66734> ;
	bo:context <http://www.cdisc.org/CT/V31#TH> ;
.
<http://www.cdisc.org/SU/V2#USUBJID>
	rdf:type bd:SdtmDomainVariable ;
	isoC:label "Unique Subject Identifier"^^xsd:string ;
	bd:rule ""^^xsd:string ;
	bd:ordinal "3"^^xsd:positiveInteger ;
	bd:name "USUBJID"^^xsd:string ;
	bd:description "Identifier used to uniquely identify a subject across all studies for all applications or submissions involving the product."^^xsd:string ;
	bd:format ""^^xsd:string ;
	bd:ctAndFormat ""^^xsd:string ;
	bd:compliance <http://www.assero.co.uk/CSN#8f112ba7-caa3-4f34-a9fc-8bc808b13955> ;
	bd:basedOnClassVariable <http://www.cdisc.org/SDTM_MODEL_ALL/V1#CL_USUBJID> ;
.
<http://www.cdisc.org/SU/V2#SUSEQ>
	rdf:type bd:SdtmDomainVariable ;
	isoC:label "Sequence Number"^^xsd:string ;
	bd:rule ""^^xsd:string ;
	bd:ordinal "4"^^xsd:positiveInteger ;
	bd:name "SUSEQ"^^xsd:string ;
	bd:description "Sequence Number given to ensure uniqueness of subject records within a domain. May be any valid number."^^xsd:string ;
	bd:format ""^^xsd:string ;
	bd:ctAndFormat ""^^xsd:string ;
	bd:compliance <http://www.assero.co.uk/CSN#8f112ba7-caa3-4f34-a9fc-8bc808b13955> ;
	bd:basedOnClassVariable <http://www.cdisc.org/SDTM_MODEL_ALL/V2#CL_--SEQ> ;
.
<http://www.cdisc.org/SU/V2#SUGRPID>
	rdf:type bd:SdtmDomainVariable ;
	isoC:label "Group ID"^^xsd:string ;
	bd:rule ""^^xsd:string ;
	bd:ordinal "5"^^xsd:positiveInteger ;
	bd:name "SUGRPID"^^xsd:string ;
	bd:description "Used to tie together a block of related records in a single domain for a subject."^^xsd:string ;
	bd:format ""^^xsd:string ;
	bd:ctAndFormat ""^^xsd:string ;
	bd:compliance <http://www.assero.co.uk/CSN#da9f1092-7a20-4c97-9144-8bac2e72d1ea> ;
	bd:basedOnClassVariable <http://www.cdisc.org/SDTM_MODEL_ALL/V2#CL_--GRPID> ;
.
<http://www.cdisc.org/SU/V2#SUSPID>
	rdf:type bd:SdtmDomainVariable ;
	isoC:label "Sponsor-Defined Identifier"^^xsd:string ;
	bd:rule ""^^xsd:string ;
	bd:ordinal "6"^^xsd:positiveInteger ;
	bd:name "SUSPID"^^xsd:string ;
	bd:description "Sponsor-defined reference number. Perhaps pre-printed on the CRF as an explicit line identifier or defined in the sponsor's operational database. Example: Line number on a Tobacco & Alcohol use CRF page."^^xsd:string ;
	bd:format ""^^xsd:string ;
	bd:ctAndFormat ""^^xsd:string ;
	bd:compliance <http://www.assero.co.uk/CSN#da9f1092-7a20-4c97-9144-8bac2e72d1ea> ;
	bd:basedOnClassVariable <http://www.cdisc.org/SDTM_MODEL_ALL/V2#CL_--SPID> ;
.
<http://www.cdisc.org/SU/V2#SUTRT>
	rdf:type bd:SdtmDomainVariable ;
	isoC:label "Reported Name of Substance"^^xsd:string ;
	bd:rule ""^^xsd:string ;
	bd:ordinal "7"^^xsd:positiveInteger ;
	bd:name "SUTRT"^^xsd:string ;
	bd:description "Substance name. Examples: Cigarettes, Coffee."^^xsd:string ;
	bd:format ""^^xsd:string ;
	bd:ctAndFormat ""^^xsd:string ;
	bd:compliance <http://www.assero.co.uk/CSN#8f112ba7-caa3-4f34-a9fc-8bc808b13955> ;
	bd:basedOnClassVariable <http://www.cdisc.org/SDTM_MODEL_INTERVENTIONS/V1#CL_--TRT> ;
.
<http://www.cdisc.org/SU/V2#SUMODIFY>
	rdf:type bd:SdtmDomainVariable ;
	isoC:label "Modified Substance Name"^^xsd:string ;
	bd:rule ""^^xsd:string ;
	bd:ordinal "8"^^xsd:positiveInteger ;
	bd:name "SUMODIFY"^^xsd:string ;
	bd:description "If SUTRT is modified, then the modified text is placed here."^^xsd:string ;
	bd:format ""^^xsd:string ;
	bd:ctAndFormat ""^^xsd:string ;
	bd:compliance <http://www.assero.co.uk/CSN#da9f1092-7a20-4c97-9144-8bac2e72d1ea> ;
	bd:basedOnClassVariable <http://www.cdisc.org/SDTM_MODEL_INTERVENTIONS/V1#CL_--MODIFY> ;
.
<http://www.cdisc.org/SU/V2#SUDECOD>
	rdf:type bd:SdtmDomainVariable ;
	isoC:label "Standardized Substance Name"^^xsd:string ;
	bd:rule ""^^xsd:string ;
	bd:ordinal "9"^^xsd:positiveInteger ;
	bd:name "SUDECOD"^^xsd:string ;
	bd:description "Standardized or dictionary-derived text description of SUTRT or SUMODIFY if the sponsor chooses to code the substance use. The sponsor is expected to provide the dictionary name and version used to map the terms utilizing the define.xml external codelist attributes."^^xsd:string ;
	bd:format ""^^xsd:string ;
	bd:ctAndFormat ""^^xsd:string ;
	bd:compliance <http://www.assero.co.uk/CSN#da9f1092-7a20-4c97-9144-8bac2e72d1ea> ;
	bd:basedOnClassVariable <http://www.cdisc.org/SDTM_MODEL_INTERVENTIONS/V1#CL_--DECOD> ;
.
<http://www.cdisc.org/SU/V2#SUCAT>
	rdf:type bd:SdtmDomainVariable ;
	isoC:label "Category for Substance Use"^^xsd:string ;
	bd:rule ""^^xsd:string ;
	bd:ordinal "10"^^xsd:positiveInteger ;
	bd:name "SUCAT"^^xsd:string ;
	bd:description "Used to define a category of related records. Examples: TOBACCO, ALCOHOL, or CAFFEINE."^^xsd:string ;
	bd:format ""^^xsd:string ;
	bd:ctAndFormat ""^^xsd:string ;
	bd:compliance <http://www.assero.co.uk/CSN#da9f1092-7a20-4c97-9144-8bac2e72d1ea> ;
	bd:basedOnClassVariable <http://www.cdisc.org/SDTM_MODEL_INTERVENTIONS/V2#CL_--CAT> ;
	bd:isA <http://www.s-cubed.dk/CAR#a3c686e711e4720f99b4562bb3dbaae7ab658cf2> ;
.
<http://www.cdisc.org/SU/V2#SUSCAT>
	rdf:type bd:SdtmDomainVariable ;
	isoC:label "Subcategory for Substance Use"^^xsd:string ;
	bd:rule ""^^xsd:string ;
	bd:ordinal "11"^^xsd:positiveInteger ;
	bd:name "SUSCAT"^^xsd:string ;
	bd:description "A further categorization of substance use. Examples: CIGARS, CIGARETTES, BEER, WINE"^^xsd:string ;
	bd:format ""^^xsd:string ;
	bd:ctAndFormat ""^^xsd:string ;
	bd:compliance <http://www.assero.co.uk/CSN#da9f1092-7a20-4c97-9144-8bac2e72d1ea> ;
	bd:basedOnClassVariable <http://www.cdisc.org/SDTM_MODEL_INTERVENTIONS/V1#CL_--SCAT> ;
	bd:isA <http://www.s-cubed.dk/CAR#479a67983e739413da55faf0dc509f83fd5dea64> ;
.
<http://www.cdisc.org/SU/V2#SUPRESP>
	rdf:type bd:SdtmDomainVariable ;
	isoC:label "SU Pre-Specified"^^xsd:string ;
	bd:rule ""^^xsd:string ;
	bd:ordinal "12"^^xsd:positiveInteger ;
	bd:name "SUPRESP"^^xsd:string ;
	bd:description "Used to indicate whether (Y/null) information about the use of a specific substance was solicited on the CRF."^^xsd:string ;
	bd:format ""^^xsd:string ;
	bd:ctAndFormat "(NY)"^^xsd:string ;
	bd:compliance <http://www.assero.co.uk/CSN#da9f1092-7a20-4c97-9144-8bac2e72d1ea> ;
	bd:ctReference <http://www.cdisc.org/SU/V2#SUPRESP_TMC1> ;
	bd:basedOnClassVariable <http://www.cdisc.org/SDTM_MODEL_INTERVENTIONS/V2#CL_--PRESP> ;
.
<http://www.cdisc.org/SU/V2#SUPRESP_TMC1>
	rdf:type bo:TMcReference ;
	isoC:label "NY"^^xsd:string ;
	bo:enabled "true"^^xsd:boolean ;
	bo:optional "false"^^xsd:boolean ;
	bo:ordinal "1"^^xsd:positiveInteger ;
	bo:reference <http://www.cdisc.org/C66742/V4#C66742> ;
	bo:context <http://www.cdisc.org/CT/V31#TH> ;
.
<http://www.cdisc.org/SU/V2#SUOCCUR>
	rdf:type bd:SdtmDomainVariable ;
	isoC:label "SU Occurrence"^^xsd:string ;
	bd:rule ""^^xsd:string ;
	bd:ordinal "13"^^xsd:positiveInteger ;
	bd:name "SUOCCUR"^^xsd:string ;
	bd:description "When the use of specific substances is solicited, SUOCCUR is used to indicate whether or not (Y/N) a particular pre-specified substance was used. Values are null for substances not specifically solicited."^^xsd:string ;
	bd:format ""^^xsd:string ;
	bd:ctAndFormat "(NY)"^^xsd:string ;
	bd:compliance <http://www.assero.co.uk/CSN#da9f1092-7a20-4c97-9144-8bac2e72d1ea> ;
	bd:ctReference <http://www.cdisc.org/SU/V2#SUOCCUR_TMC1> ;
	bd:basedOnClassVariable <http://www.cdisc.org/SDTM_MODEL_INTERVENTIONS/V2#CL_--OCCUR> ;
.
<http://www.cdisc.org/SU/V2#SUOCCUR_TMC1>
	rdf:type bo:TMcReference ;
	isoC:label "NY"^^xsd:string ;
	bo:enabled "true"^^xsd:boolean ;
	bo:optional "false"^^xsd:boolean ;
	bo:ordinal "1"^^xsd:positiveInteger ;
	bo:reference <http://www.cdisc.org/C66742/V4#C66742> ;
	bo:context <http://www.cdisc.org/CT/V31#TH> ;
.
<http://www.cdisc.org/SU/V2#SUSTAT>
	rdf:type bd:SdtmDomainVariable ;
	isoC:label "Completion Status"^^xsd:string ;
	bd:rule ""^^xsd:string ;
	bd:ordinal "14"^^xsd:positiveInteger ;
	bd:name "SUSTAT"^^xsd:string ;
	bd:description "When the use of pre-specified substances is solicited, the completion status indicates that there was no response to the question about the pre-specified substance. When there is no pre-specified list on the CRF, then the completion status indicates that substance use was not assessed for the subject."^^xsd:string ;
	bd:format ""^^xsd:string ;
	bd:ctAndFormat "(ND)"^^xsd:string ;
	bd:compliance <http://www.assero.co.uk/CSN#da9f1092-7a20-4c97-9144-8bac2e72d1ea> ;
	bd:ctReference <http://www.cdisc.org/SU/V2#SUSTAT_TMC1> ;
	bd:basedOnClassVariable <http://www.cdisc.org/SDTM_MODEL_INTERVENTIONS/V2#CL_--STAT> ;
	bd:isA <http://www.s-cubed.dk/CAR#bae7d5be70820ed56467bd9a63744e23b47bd711> ;
.
<http://www.cdisc.org/SU/V2#SUSTAT_TMC1>
	rdf:type bo:TMcReference ;
	isoC:label "ND"^^xsd:string ;
	bo:enabled "true"^^xsd:boolean ;
	bo:optional "false"^^xsd:boolean ;
	bo:ordinal "1"^^xsd:positiveInteger ;
	bo:reference <http://www.cdisc.org/C66789/V13#C66789> ;
	bo:context <http://www.cdisc.org/CT/V31#TH> ;
.
<http://www.cdisc.org/SU/V2#SUREASND>
	rdf:type bd:SdtmDomainVariable ;
	isoC:label "Reason Substance Use Not Collected"^^xsd:string ;
	bd:rule ""^^xsd:string ;
	bd:ordinal "15"^^xsd:positiveInteger ;
	bd:name "SUREASND"^^xsd:string ;
	bd:description "Describes the reason substance use was not collected. Used in conjunction with SUSTAT when value of SUSTAT is NOT DONE."^^xsd:string ;
	bd:format ""^^xsd:string ;
	bd:ctAndFormat ""^^xsd:string ;
	bd:compliance <http://www.assero.co.uk/CSN#da9f1092-7a20-4c97-9144-8bac2e72d1ea> ;
	bd:basedOnClassVariable <http://www.cdisc.org/SDTM_MODEL_INTERVENTIONS/V1#CL_--REASND> ;
.
<http://www.cdisc.org/SU/V2#SUCLAS>
	rdf:type bd:SdtmDomainVariable ;
	isoC:label "Substance Use Class"^^xsd:string ;
	bd:rule ""^^xsd:string ;
	bd:ordinal "16"^^xsd:positiveInteger ;
	bd:name "SUCLAS"^^xsd:string ;
	bd:description "Substance use class. May be obtained from coding. When coding to a single class, populate with class value. If using a dictionary and coding to multiple classes, then follow assumption 4.1.2.8.3 or omit SUCLAS."^^xsd:string ;
	bd:format ""^^xsd:string ;
	bd:ctAndFormat ""^^xsd:string ;
	bd:compliance <http://www.assero.co.uk/CSN#da9f1092-7a20-4c97-9144-8bac2e72d1ea> ;
	bd:basedOnClassVariable <http://www.cdisc.org/SDTM_MODEL_INTERVENTIONS/V1#CL_--CLAS> ;
.
<http://www.cdisc.org/SU/V2#SUCLASCD>
	rdf:type bd:SdtmDomainVariable ;
	isoC:label "Substance Use Class Code"^^xsd:string ;
	bd:rule ""^^xsd:string ;
	bd:ordinal "17"^^xsd:positiveInteger ;
	bd:name "SUCLASCD"^^xsd:string ;
	bd:description "Code corresponding to SUCLAS. May be obtained from coding."^^xsd:string ;
	bd:format ""^^xsd:string ;
	bd:ctAndFormat ""^^xsd:string ;
	bd:compliance <http://www.assero.co.uk/CSN#da9f1092-7a20-4c97-9144-8bac2e72d1ea> ;
	bd:basedOnClassVariable <http://www.cdisc.org/SDTM_MODEL_INTERVENTIONS/V1#CL_--CLASCD> ;
.
<http://www.cdisc.org/SU/V2#SUDOSE>
	rdf:type bd:SdtmDomainVariable ;
	isoC:label "Substance Use Consumption"^^xsd:string ;
	bd:rule ""^^xsd:string ;
	bd:ordinal "18"^^xsd:positiveInteger ;
	bd:name "SUDOSE"^^xsd:string ;
	bd:description "Amount of SUTRT consumed."^^xsd:string ;
	bd:format ""^^xsd:string ;
	bd:ctAndFormat ""^^xsd:string ;
	bd:compliance <http://www.assero.co.uk/CSN#da9f1092-7a20-4c97-9144-8bac2e72d1ea> ;
	bd:basedOnClassVariable <http://www.cdisc.org/SDTM_MODEL_INTERVENTIONS/V1#CL_--DOSE> ;
.
<http://www.cdisc.org/SU/V2#SUDOSTXT>
	rdf:type bd:SdtmDomainVariable ;
	isoC:label "Substance Use Consumption Text"^^xsd:string ;
	bd:rule ""^^xsd:string ;
	bd:ordinal "19"^^xsd:positiveInteger ;
	bd:name "SUDOSTXT"^^xsd:string ;
	bd:description "Substance use consumption amounts or a range of consumption information collected in text form."^^xsd:string ;
	bd:format ""^^xsd:string ;
	bd:ctAndFormat ""^^xsd:string ;
	bd:compliance <http://www.assero.co.uk/CSN#da9f1092-7a20-4c97-9144-8bac2e72d1ea> ;
	bd:basedOnClassVariable <http://www.cdisc.org/SDTM_MODEL_INTERVENTIONS/V1#CL_--DOSTXT> ;
.
<http://www.cdisc.org/SU/V2#SUDOSU>
	rdf:type bd:SdtmDomainVariable ;
	isoC:label "Consumption Units"^^xsd:string ;
	bd:rule ""^^xsd:string ;
	bd:ordinal "20"^^xsd:positiveInteger ;
	bd:name "SUDOSU"^^xsd:string ;
	bd:description "Units for SUDOSE, SUDOSTXT, and SUDOSTOT. Examples: OUNCES, CIGARETTE EQUIVALENTS, or GRAMS."^^xsd:string ;
	bd:format ""^^xsd:string ;
	bd:ctAndFormat "(UNIT)"^^xsd:string ;
	bd:compliance <http://www.assero.co.uk/CSN#da9f1092-7a20-4c97-9144-8bac2e72d1ea> ;
	bd:ctReference <http://www.cdisc.org/SU/V2#SUDOSU_TMC1> ;
	bd:basedOnClassVariable <http://www.cdisc.org/SDTM_MODEL_INTERVENTIONS/V1#CL_--DOSU> ;
.
<http://www.cdisc.org/SU/V2#SUDOSU_TMC1>
	rdf:type bo:TMcReference ;
	isoC:label "UNIT"^^xsd:string ;
	bo:enabled "true"^^xsd:boolean ;
	bo:optional "false"^^xsd:boolean ;
	bo:ordinal "1"^^xsd:positiveInteger ;
	bo:reference <http://www.cdisc.org/C71620/V31#C71620> ;
	bo:context <http://www.cdisc.org/CT/V31#TH> ;
.
<http://www.cdisc.org/SU/V2#SUDOSFRM>
	rdf:type bd:SdtmDomainVariable ;
	isoC:label "Dose Form"^^xsd:string ;
	bd:rule ""^^xsd:string ;
	bd:ordinal "21"^^xsd:positiveInteger ;
	bd:name "SUDOSFRM"^^xsd:string ;
	bd:description "Dose form for SUTRT. Examples: INJECTABLE, LIQUID, or POWDER."^^xsd:string ;
	bd:format ""^^xsd:string ;
	bd:ctAndFormat ""^^xsd:string ;
	bd:compliance <http://www.assero.co.uk/CSN#da9f1092-7a20-4c97-9144-8bac2e72d1ea> ;
	bd:basedOnClassVariable <http://www.cdisc.org/SDTM_MODEL_INTERVENTIONS/V1#CL_--DOSFRM> ;
.
<http://www.cdisc.org/SU/V2#SUDOSFRQ>
	rdf:type bd:SdtmDomainVariable ;
	isoC:label "Use Frequency Per Interval"^^xsd:string ;
	bd:rule ""^^xsd:string ;
	bd:ordinal "22"^^xsd:positiveInteger ;
	bd:name "SUDOSFRQ"^^xsd:string ;
	bd:description "Usually expressed as the number of repeated administrations of SUDOSE within a specific time period. Example: Q24H (every day)"^^xsd:string ;
	bd:format ""^^xsd:string ;
	bd:ctAndFormat "(FREQ)"^^xsd:string ;
	bd:compliance <http://www.assero.co.uk/CSN#da9f1092-7a20-4c97-9144-8bac2e72d1ea> ;
	bd:ctReference <http://www.cdisc.org/SU/V2#SUDOSFRQ_TMC1> ;
	bd:basedOnClassVariable <http://www.cdisc.org/SDTM_MODEL_INTERVENTIONS/V1#CL_--DOSFRQ> ;
.
<http://www.cdisc.org/SU/V2#SUDOSFRQ_TMC1>
	rdf:type bo:TMcReference ;
	isoC:label "FREQ"^^xsd:string ;
	bo:enabled "true"^^xsd:boolean ;
	bo:optional "false"^^xsd:boolean ;
	bo:ordinal "1"^^xsd:positiveInteger ;
	bo:reference <http://www.cdisc.org/C71113/V31#C71113> ;
	bo:context <http://www.cdisc.org/CT/V31#TH> ;
.
<http://www.cdisc.org/SU/V2#SUDOSTOT>
	rdf:type bd:SdtmDomainVariable ;
	isoC:label "Total Daily Consumption"^^xsd:string ;
	bd:rule ""^^xsd:string ;
	bd:ordinal "23"^^xsd:positiveInteger ;
	bd:name "SUDOSTOT"^^xsd:string ;
	bd:description "Total daily use of SUTRT using the units in SUDOSU. If sponsor needs to aggregate the data over a period other than daily, then the aggregated total could be recorded in a Supplemental Qualifier variable."^^xsd:string ;
	bd:format ""^^xsd:string ;
	bd:ctAndFormat ""^^xsd:string ;
	bd:compliance <http://www.assero.co.uk/CSN#da9f1092-7a20-4c97-9144-8bac2e72d1ea> ;
	bd:basedOnClassVariable <http://www.cdisc.org/SDTM_MODEL_INTERVENTIONS/V1#CL_--DOSTOT> ;
.
<http://www.cdisc.org/SU/V2#SUROUTE>
	rdf:type bd:SdtmDomainVariable ;
	isoC:label "Route of Administration"^^xsd:string ;
	bd:rule ""^^xsd:string ;
	bd:ordinal "24"^^xsd:positiveInteger ;
	bd:name "SUROUTE"^^xsd:string ;
	bd:description "Route of administration for SUTRT. Examples: ORAL, INTRAVENOUS."^^xsd:string ;
	bd:format ""^^xsd:string ;
	bd:ctAndFormat "(ROUTE)"^^xsd:string ;
	bd:compliance <http://www.assero.co.uk/CSN#da9f1092-7a20-4c97-9144-8bac2e72d1ea> ;
	bd:ctReference <http://www.cdisc.org/SU/V2#SUROUTE_TMC1> ;
	bd:basedOnClassVariable <http://www.cdisc.org/SDTM_MODEL_INTERVENTIONS/V1#CL_--ROUTE> ;
.
<http://www.cdisc.org/SU/V2#SUROUTE_TMC1>
	rdf:type bo:TMcReference ;
	isoC:label "ROUTE"^^xsd:string ;
	bo:enabled "true"^^xsd:boolean ;
	bo:optional "false"^^xsd:boolean ;
	bo:ordinal "1"^^xsd:positiveInteger ;
	bo:reference <http://www.cdisc.org/C90009/V26#C90009_C38114> ;
	bo:context <http://www.cdisc.org/CT/V31#TH> ;
.
<http://www.cdisc.org/SU/V2#SUSTDTC>
	rdf:type bd:SdtmDomainVariable ;
	isoC:label "Start Date/Time of Substance Use"^^xsd:string ;
	bd:rule ""^^xsd:string ;
	bd:ordinal "25"^^xsd:positiveInteger ;
	bd:name "SUSTDTC"^^xsd:string ;
	bd:description ""^^xsd:string ;
	bd:format "ISO 8601"^^xsd:string ;
	bd:ctAndFormat "ISO 8601"^^xsd:string ;
	bd:compliance <http://www.assero.co.uk/CSN#da9f1092-7a20-4c97-9144-8bac2e72d1ea> ;
	bd:basedOnClassVariable <http://www.cdisc.org/SDTM_MODEL_ALL/V2#CL_--STDTC> ;
	bd:isA <http://www.s-cubed.dk/CAR#83c87956785cde43c109e30fcbd95cca63a18d38> ;
.
<http://www.cdisc.org/SU/V2#SUENDTC>
	rdf:type bd:SdtmDomainVariable ;
	isoC:label "End Date/Time of Substance Use"^^xsd:string ;
	bd:rule ""^^xsd:string ;
	bd:ordinal "26"^^xsd:positiveInteger ;
	bd:name "SUENDTC"^^xsd:string ;
	bd:description ""^^xsd:string ;
	bd:format "ISO 8601"^^xsd:string ;
	bd:ctAndFormat "ISO 8601"^^xsd:string ;
	bd:compliance <http://www.assero.co.uk/CSN#da9f1092-7a20-4c97-9144-8bac2e72d1ea> ;
	bd:basedOnClassVariable <http://www.cdisc.org/SDTM_MODEL_ALL/V2#CL_--ENDTC> ;
	bd:isA <http://www.s-cubed.dk/CAR#71c54c70967ea84127e4bd588bd627ec0e581dfb> ;
.
<http://www.cdisc.org/SU/V2#SUSTDY>
	rdf:type bd:SdtmDomainVariable ;
	isoC:label "Study Day of Start of Substance Use"^^xsd:string ;
	bd:rule ""^^xsd:string ;
	bd:ordinal "27"^^xsd:positiveInteger ;
	bd:name "SUSTDY"^^xsd:string ;
	bd:description "Study day of start of substance use relative to the sponsor-defined RFSTDTC."^^xsd:string ;
	bd:format ""^^xsd:string ;
	bd:ctAndFormat ""^^xsd:string ;
	bd:compliance <http://www.assero.co.uk/CSN#da9f1092-7a20-4c97-9144-8bac2e72d1ea> ;
	bd:basedOnClassVariable <http://www.cdisc.org/SDTM_MODEL_ALL/V2#CL_--STDY> ;
.
<http://www.cdisc.org/SU/V2#SUENDY>
	rdf:type bd:SdtmDomainVariable ;
	isoC:label "Study Day of End of Substance Use"^^xsd:string ;
	bd:rule ""^^xsd:string ;
	bd:ordinal "28"^^xsd:positiveInteger ;
	bd:name "SUENDY"^^xsd:string ;
	bd:description "Study day of end of substance use relative to the sponsor-defined RFSTDTC."^^xsd:string ;
	bd:format ""^^xsd:string ;
	bd:ctAndFormat ""^^xsd:string ;
	bd:compliance <http://www.assero.co.uk/CSN#da9f1092-7a20-4c97-9144-8bac2e72d1ea> ;
	bd:basedOnClassVariable <http://www.cdisc.org/SDTM_MODEL_ALL/V2#CL_--ENDY> ;
.
<http://www.cdisc.org/SU/V2#SUDUR>
	rdf:type bd:SdtmDomainVariable ;
	isoC:label "Duration of Substance Use"^^xsd:string ;
	bd:rule ""^^xsd:string ;
	bd:ordinal "29"^^xsd:positiveInteger ;
	bd:name "SUDUR"^^xsd:string ;
	bd:description "Collected duration of substance use in ISO 8601 format. Used only if collected on the CRF and not derived from start and end date/times."^^xsd:string ;
	bd:format "ISO 8601"^^xsd:string ;
	bd:ctAndFormat "ISO 8601"^^xsd:string ;
	bd:compliance <http://www.assero.co.uk/CSN#da9f1092-7a20-4c97-9144-8bac2e72d1ea> ;
	bd:basedOnClassVariable <http://www.cdisc.org/SDTM_MODEL_ALL/V2#CL_--DUR> ;
.
<http://www.cdisc.org/SU/V2#SUSTRF>
	rdf:type bd:SdtmDomainVariable ;
	isoC:label "Start Relative to Reference Period"^^xsd:string ;
	bd:rule ""^^xsd:string ;
	bd:ordinal "30"^^xsd:positiveInteger ;
	bd:name "SUSTRF"^^xsd:string ;
	bd:description "Describes the start of the substance use relative to the sponsor-defined reference period. The sponsor-defined reference period is a continuous period of time defined by a discrete starting point and a discrete ending point (represented by RFSTDTC and RFENDTC in Demographics). If information such as \"PRIOR\", \"ONGOING\", or \"CONTINUING\" was collected, this information may be translated into SUSTRF."^^xsd:string ;
	bd:format ""^^xsd:string ;
	bd:ctAndFormat "(STENRF)"^^xsd:string ;
	bd:compliance <http://www.assero.co.uk/CSN#da9f1092-7a20-4c97-9144-8bac2e72d1ea> ;
	bd:ctReference <http://www.cdisc.org/SU/V2#SUSTRF_TMC1> ;
	bd:basedOnClassVariable <http://www.cdisc.org/SDTM_MODEL_ALL/V2#CL_--STRF> ;
.
<http://www.cdisc.org/SU/V2#SUSTRF_TMC1>
	rdf:type bo:TMcReference ;
	isoC:label "STENRF"^^xsd:string ;
	bo:enabled "true"^^xsd:boolean ;
	bo:optional "false"^^xsd:boolean ;
	bo:ordinal "1"^^xsd:positiveInteger ;
	bo:reference <http://www.cdisc.org/C66728/V27#C66728> ;
	bo:context <http://www.cdisc.org/CT/V31#TH> ;
.
<http://www.cdisc.org/SU/V2#SUENRF>
	rdf:type bd:SdtmDomainVariable ;
	isoC:label "End Relative to Reference Period"^^xsd:string ;
	bd:rule ""^^xsd:string ;
	bd:ordinal "31"^^xsd:positiveInteger ;
	bd:name "SUENRF"^^xsd:string ;
	bd:description "Describes the end of the substance use with relative to the sponsor-defined reference period. The sponsor-defined reference period is a continuous period of time defined by a discrete starting point and a discrete ending point (represented by RFSTDTC and RFENDTC in Demographics). If information such as \"PRIOR\", \"ONGOING\", or \"CONTINUING\" was collected, this information may be translated into SUENRF."^^xsd:string ;
	bd:format ""^^xsd:string ;
	bd:ctAndFormat "(STENRF)"^^xsd:string ;
	bd:compliance <http://www.assero.co.uk/CSN#da9f1092-7a20-4c97-9144-8bac2e72d1ea> ;
	bd:ctReference <http://www.cdisc.org/SU/V2#SUENRF_TMC1> ;
	bd:basedOnClassVariable <http://www.cdisc.org/SDTM_MODEL_ALL/V2#CL_--ENRF> ;
.
<http://www.cdisc.org/SU/V2#SUENRF_TMC1>
	rdf:type bo:TMcReference ;
	isoC:label "STENRF"^^xsd:string ;
	bo:enabled "true"^^xsd:boolean ;
	bo:optional "false"^^xsd:boolean ;
	bo:ordinal "1"^^xsd:positiveInteger ;
	bo:reference <http://www.cdisc.org/C66728/V27#C66728> ;
	bo:context <http://www.cdisc.org/CT/V31#TH> ;
.
<http://www.cdisc.org/SU/V2#SUSTRTPT>
	rdf:type bd:SdtmDomainVariable ;
	isoC:label "Start Relative to Reference Time Point"^^xsd:string ;
	bd:rule ""^^xsd:string ;
	bd:ordinal "32"^^xsd:positiveInteger ;
	bd:name "SUSTRTPT"^^xsd:string ;
	bd:description "Identifies the start of the substance as being before or after the reference time point defined by variable SUSTTPT."^^xsd:string ;
	bd:format "BEFORE, COINCIDENT, AFTER, U"^^xsd:string ;
	bd:ctAndFormat "BEFORE, COINCIDENT, AFTER, U"^^xsd:string ;
	bd:compliance <http://www.assero.co.uk/CSN#da9f1092-7a20-4c97-9144-8bac2e72d1ea> ;
	bd:basedOnClassVariable <http://www.cdisc.org/SDTM_MODEL_ALL/V2#CL_--STRTPT> ;
.
<http://www.cdisc.org/SU/V2#SUSTTPT>
	rdf:type bd:SdtmDomainVariable ;
	isoC:label "Start Reference Time Point"^^xsd:string ;
	bd:rule ""^^xsd:string ;
	bd:ordinal "33"^^xsd:positiveInteger ;
	bd:name "SUSTTPT"^^xsd:string ;
	bd:description "Description or date/time in ISO 8601 character format of the reference point referred to by SUSTRTPT. Examples: \"2003-12-15\" or \"VISIT 1\"."^^xsd:string ;
	bd:format ""^^xsd:string ;
	bd:ctAndFormat ""^^xsd:string ;
	bd:compliance <http://www.assero.co.uk/CSN#da9f1092-7a20-4c97-9144-8bac2e72d1ea> ;
	bd:basedOnClassVariable <http://www.cdisc.org/SDTM_MODEL_ALL/V2#CL_--STTPT> ;
.
<http://www.cdisc.org/SU/V2#SUENRTPT>
	rdf:type bd:SdtmDomainVariable ;
	isoC:label "End Relative to Reference Time Point"^^xsd:string ;
	bd:rule ""^^xsd:string ;
	bd:ordinal "34"^^xsd:positiveInteger ;
	bd:name "SUENRTPT"^^xsd:string ;
	bd:description "Identifies the end of the substance as being before or after the reference time point defined by variable SUENTPT."^^xsd:string ;
	bd:format "BEFORE, COINCIDENT, AFTER, ONGOING, U"^^xsd:string ;
	bd:ctAndFormat "BEFORE, COINCIDENT, AFTER, ONGOING, U"^^xsd:string ;
	bd:compliance <http://www.assero.co.uk/CSN#da9f1092-7a20-4c97-9144-8bac2e72d1ea> ;
	bd:basedOnClassVariable <http://www.cdisc.org/SDTM_MODEL_ALL/V2#CL_--ENRTPT> ;
.
<http://www.cdisc.org/SU/V2#SUENTPT>
	rdf:type bd:SdtmDomainVariable ;
	isoC:label "End Reference Time Point"^^xsd:string ;
	bd:rule ""^^xsd:string ;
	bd:ordinal "35"^^xsd:positiveInteger ;
	bd:name "SUENTPT"^^xsd:string ;
	bd:description "Description or date/time in ISO 8601 character format of the reference point referred to by SUENRTPT. Examples: \"2003-12-25\" or \"VISIT 2\"."^^xsd:string ;
	bd:format ""^^xsd:string ;
	bd:ctAndFormat ""^^xsd:string ;
	bd:compliance <http://www.assero.co.uk/CSN#da9f1092-7a20-4c97-9144-8bac2e72d1ea> ;
	bd:basedOnClassVariable <http://www.cdisc.org/SDTM_MODEL_ALL/V2#CL_--ENTPT> ;
.
<http://www.cdisc.org/AE/V2>
	rdf:type bd:SdtmDomain ;
	isoC:label "Adverse Events"^^xsd:string ;
	isoT:hasState <http://www.cdisc.org/AE/V2#RS> ;
	isoT:hasIdentifier <http://www.cdisc.org/AE/V2#SI> ;
	isoT:hasPreviousVersion <http://www.cdisc.org/AE/V1> ;
	isoT:origin ""^^xsd:string ;
	isoT:changeDescription ""^^xsd:string ;
	isoT:creationDate "2012-07-16T00:00:00+00:00"^^xsd:dateTime ;
	isoT:lastChangeDate "2012-07-16T00:00:00+00:00"^^xsd:dateTime ;
	isoT:explanatoryComment ""^^xsd:string ;
	bd:rule ""^^xsd:string ;
	bd:ordinal "1"^^xsd:positiveInteger ;
	bd:includesColumn <http://www.cdisc.org/AE/V2#STUDYID> ;
	bd:includesColumn <http://www.cdisc.org/AE/V2#DOMAIN> ;
	bd:includesColumn <http://www.cdisc.org/AE/V2#USUBJID> ;
	bd:includesColumn <http://www.cdisc.org/AE/V2#AESEQ> ;
	bd:includesColumn <http://www.cdisc.org/AE/V2#AEGRPID> ;
	bd:includesColumn <http://www.cdisc.org/AE/V2#AEREFID> ;
	bd:includesColumn <http://www.cdisc.org/AE/V2#AESPID> ;
	bd:includesColumn <http://www.cdisc.org/AE/V2#AETERM> ;
	bd:includesColumn <http://www.cdisc.org/AE/V2#AEMODIFY> ;
	bd:includesColumn <http://www.cdisc.org/AE/V2#AELLT> ;
	bd:includesColumn <http://www.cdisc.org/AE/V2#AELLTCD> ;
	bd:includesColumn <http://www.cdisc.org/AE/V2#AEDECOD> ;
	bd:includesColumn <http://www.cdisc.org/AE/V2#AEPTCD> ;
	bd:includesColumn <http://www.cdisc.org/AE/V2#AEHLT> ;
	bd:includesColumn <http://www.cdisc.org/AE/V2#AEHLTCD> ;
	bd:includesColumn <http://www.cdisc.org/AE/V2#AEHLGT> ;
	bd:includesColumn <http://www.cdisc.org/AE/V2#AEHLGTCD> ;
	bd:includesColumn <http://www.cdisc.org/AE/V2#AECAT> ;
	bd:includesColumn <http://www.cdisc.org/AE/V2#AESCAT> ;
	bd:includesColumn <http://www.cdisc.org/AE/V2#AEPRESP> ;
	bd:includesColumn <http://www.cdisc.org/AE/V2#AEBODSYS> ;
	bd:includesColumn <http://www.cdisc.org/AE/V2#AEBDSYCD> ;
	bd:includesColumn <http://www.cdisc.org/AE/V2#AESOC> ;
	bd:includesColumn <http://www.cdisc.org/AE/V2#AESOCCD> ;
	bd:includesColumn <http://www.cdisc.org/AE/V2#AELOC> ;
	bd:includesColumn <http://www.cdisc.org/AE/V2#AESEV> ;
	bd:includesColumn <http://www.cdisc.org/AE/V2#AESER> ;
	bd:includesColumn <http://www.cdisc.org/AE/V2#AEACN> ;
	bd:includesColumn <http://www.cdisc.org/AE/V2#AEACNOTH> ;
	bd:includesColumn <http://www.cdisc.org/AE/V2#AEREL> ;
	bd:includesColumn <http://www.cdisc.org/AE/V2#AERELNST> ;
	bd:includesColumn <http://www.cdisc.org/AE/V2#AEPATT> ;
	bd:includesColumn <http://www.cdisc.org/AE/V2#AEOUT> ;
	bd:includesColumn <http://www.cdisc.org/AE/V2#AESCAN> ;
	bd:includesColumn <http://www.cdisc.org/AE/V2#AESCONG> ;
	bd:includesColumn <http://www.cdisc.org/AE/V2#AESDISAB> ;
	bd:includesColumn <http://www.cdisc.org/AE/V2#AESDTH> ;
	bd:includesColumn <http://www.cdisc.org/AE/V2#AESHOSP> ;
	bd:includesColumn <http://www.cdisc.org/AE/V2#AESLIFE> ;
	bd:includesColumn <http://www.cdisc.org/AE/V2#AESOD> ;
	bd:includesColumn <http://www.cdisc.org/AE/V2#AESMIE> ;
	bd:includesColumn <http://www.cdisc.org/AE/V2#AECONTRT> ;
	bd:includesColumn <http://www.cdisc.org/AE/V2#AETOXGR> ;
	bd:includesColumn <http://www.cdisc.org/AE/V2#AESTDTC> ;
	bd:includesColumn <http://www.cdisc.org/AE/V2#AEENDTC> ;
	bd:includesColumn <http://www.cdisc.org/AE/V2#AESTDY> ;
	bd:includesColumn <http://www.cdisc.org/AE/V2#AEENDY> ;
	bd:includesColumn <http://www.cdisc.org/AE/V2#AEDUR> ;
	bd:includesColumn <http://www.cdisc.org/AE/V2#AEENRF> ;
	bd:includesColumn <http://www.cdisc.org/AE/V2#AEENRTPT> ;
	bd:includesColumn <http://www.cdisc.org/AE/V2#AEENTPT> ;
	bd:prefix "AE"^^xsd:string ;
	bd:structure "One record per adverse event per subject"^^xsd:string ;
	bd:basedOnClass <http://www.cdisc.org/SDTM_MODEL_EVENTS/V2#CL> ;
.
<http://www.cdisc.org/AE/V2#RS>
	rdf:type isoR:RegistrationState ;
	isoR:registrationStatus "Standard"^^xsd:string ;
	isoR:administrativeNote ""^^xsd:string ;
	isoR:effectiveDate "2016-01-01T00:00:00+00:00"^^xsd:dateTime ;
	isoR:untilDate "2016-01-01T00:00:00+00:00"^^xsd:dateTime ;
	isoR:unresolvedIssue ""^^xsd:string ;
	isoR:administrativeStatus ""^^xsd:string ;
	isoR:previousState "Standard"^^xsd:string ;
	isoR:multipleEdit "false"^^xsd:boolean ;
	isoR:byAuthority <http://www.assero.co.uk/RA#DUNS084433759> ;
.
<http://www.cdisc.org/AE/V2#SI>
	rdf:type isoI:ScopedIdentifier ;
	isoI:identifier "AE"^^xsd:string ;
	isoI:versionLabel "2012-07-16 Release"^^xsd:string ;
	isoI:version "2"^^xsd:positiveInteger ;
	isoI:semanticVersion "2.0.0"^^xsd:string ;
	isoI:hasScope <http://www.assero.co.uk/NS#CDISC> ;
.
<http://www.cdisc.org/AE/V2#STUDYID>
	rdf:type bd:SdtmDomainVariable ;
	isoC:label "Study Identifier"^^xsd:string ;
	bd:rule ""^^xsd:string ;
	bd:ordinal "1"^^xsd:positiveInteger ;
	bd:name "STUDYID"^^xsd:string ;
	bd:description "Unique identifier for a study."^^xsd:string ;
	bd:format ""^^xsd:string ;
	bd:ctAndFormat ""^^xsd:string ;
	bd:compliance <http://www.assero.co.uk/CSN#8f112ba7-caa3-4f34-a9fc-8bc808b13955> ;
	bd:basedOnClassVariable <http://www.cdisc.org/SDTM_MODEL_ALL/V1#CL_STUDYID> ;
.
<http://www.cdisc.org/AE/V2#DOMAIN>
	rdf:type bd:SdtmDomainVariable ;
	isoC:label "Domain Abbreviation"^^xsd:string ;
	bd:rule ""^^xsd:string ;
	bd:ordinal "2"^^xsd:positiveInteger ;
	bd:name "DOMAIN"^^xsd:string ;
	bd:description "Two-character abbreviation for the domain."^^xsd:string ;
	bd:format ""^^xsd:string ;
	bd:ctAndFormat "(DOMAIN)"^^xsd:string ;
	bd:compliance <http://www.assero.co.uk/CSN#8f112ba7-caa3-4f34-a9fc-8bc808b13955> ;
	bd:ctReference <http://www.cdisc.org/AE/V2#DOMAIN_TMC1> ;
	bd:basedOnClassVariable <http://www.cdisc.org/SDTM_MODEL_ALL/V2#CL_DOMAIN> ;
.
<http://www.cdisc.org/AE/V2#DOMAIN_TMC1>
	rdf:type bo:TMcReference ;
	isoC:label "DOMAIN"^^xsd:string ;
	bo:enabled "true"^^xsd:boolean ;
	bo:optional "false"^^xsd:boolean ;
	bo:ordinal "1"^^xsd:positiveInteger ;
	bo:reference <http://www.cdisc.org/C66734/V28#C66734> ;
	bo:context <http://www.cdisc.org/CT/V31#TH> ;
.
<http://www.cdisc.org/AE/V2#USUBJID>
	rdf:type bd:SdtmDomainVariable ;
	isoC:label "Unique Subject Identifier"^^xsd:string ;
	bd:rule ""^^xsd:string ;
	bd:ordinal "3"^^xsd:positiveInteger ;
	bd:name "USUBJID"^^xsd:string ;
	bd:description "Identifier used to uniquely identify a subject across all studies for all applications or submissions involving the product."^^xsd:string ;
	bd:format ""^^xsd:string ;
	bd:ctAndFormat ""^^xsd:string ;
	bd:compliance <http://www.assero.co.uk/CSN#8f112ba7-caa3-4f34-a9fc-8bc808b13955> ;
	bd:basedOnClassVariable <http://www.cdisc.org/SDTM_MODEL_ALL/V1#CL_USUBJID> ;
.
<http://www.cdisc.org/AE/V2#AESEQ>
	rdf:type bd:SdtmDomainVariable ;
	isoC:label "Sequence Number"^^xsd:string ;
	bd:rule ""^^xsd:string ;
	bd:ordinal "4"^^xsd:positiveInteger ;
	bd:name "AESEQ"^^xsd:string ;
	bd:description "Sequence Number given to ensure uniqueness of subject records within a domain. May be any valid number."^^xsd:string ;
	bd:format ""^^xsd:string ;
	bd:ctAndFormat ""^^xsd:string ;
	bd:compliance <http://www.assero.co.uk/CSN#8f112ba7-caa3-4f34-a9fc-8bc808b13955> ;
	bd:basedOnClassVariable <http://www.cdisc.org/SDTM_MODEL_ALL/V2#CL_--SEQ> ;
.
<http://www.cdisc.org/AE/V2#AEGRPID>
	rdf:type bd:SdtmDomainVariable ;
	isoC:label "Group ID"^^xsd:string ;
	bd:rule ""^^xsd:string ;
	bd:ordinal "5"^^xsd:positiveInteger ;
	bd:name "AEGRPID"^^xsd:string ;
	bd:description "Used to tie together a block of related records in a single domain for a subject."^^xsd:string ;
	bd:format ""^^xsd:string ;
	bd:ctAndFormat ""^^xsd:string ;
	bd:compliance <http://www.assero.co.uk/CSN#da9f1092-7a20-4c97-9144-8bac2e72d1ea> ;
	bd:basedOnClassVariable <http://www.cdisc.org/SDTM_MODEL_ALL/V2#CL_--GRPID> ;
.
<http://www.cdisc.org/AE/V2#AEREFID>
	rdf:type bd:SdtmDomainVariable ;
	isoC:label "Reference ID"^^xsd:string ;
	bd:rule ""^^xsd:string ;
	bd:ordinal "6"^^xsd:positiveInteger ;
	bd:name "AEREFID"^^xsd:string ;
	bd:description "Internal or external identifier such as a serial number on an SAE reporting form"^^xsd:string ;
	bd:format ""^^xsd:string ;
	bd:ctAndFormat ""^^xsd:string ;
	bd:compliance <http://www.assero.co.uk/CSN#da9f1092-7a20-4c97-9144-8bac2e72d1ea> ;
	bd:basedOnClassVariable <http://www.cdisc.org/SDTM_MODEL_ALL/V2#CL_--REFID> ;
.
<http://www.cdisc.org/AE/V2#AESPID>
	rdf:type bd:SdtmDomainVariable ;
	isoC:label "Sponsor-Defined Identifier"^^xsd:string ;
	bd:rule ""^^xsd:string ;
	bd:ordinal "7"^^xsd:positiveInteger ;
	bd:name "AESPID"^^xsd:string ;
	bd:description "Sponsor-defined identifier. It may be pre-printed on the CRF as an explicit line identifier or defined in the sponsor's operational database. Example: Line number on an Adverse Events page."^^xsd:string ;
	bd:format ""^^xsd:string ;
	bd:ctAndFormat ""^^xsd:string ;
	bd:compliance <http://www.assero.co.uk/CSN#da9f1092-7a20-4c97-9144-8bac2e72d1ea> ;
	bd:basedOnClassVariable <http://www.cdisc.org/SDTM_MODEL_ALL/V2#CL_--SPID> ;
.
<http://www.cdisc.org/AE/V2#AETERM>
	rdf:type bd:SdtmDomainVariable ;
	isoC:label "Reported Term for the Adverse Event"^^xsd:string ;
	bd:rule ""^^xsd:string ;
	bd:ordinal "8"^^xsd:positiveInteger ;
	bd:name "AETERM"^^xsd:string ;
	bd:description "Verbatim name of the event."^^xsd:string ;
	bd:format ""^^xsd:string ;
	bd:ctAndFormat ""^^xsd:string ;
	bd:compliance <http://www.assero.co.uk/CSN#8f112ba7-caa3-4f34-a9fc-8bc808b13955> ;
	bd:basedOnClassVariable <http://www.cdisc.org/SDTM_MODEL_EVENTS/V1#CL_--TERM> ;
	bd:isA <http://www.s-cubed.dk/CAR#2a4eb8036d87ab68656ba5b80bbf77123f088904> ;
.
<http://www.cdisc.org/AE/V2#AEMODIFY>
	rdf:type bd:SdtmDomainVariable ;
	isoC:label "Modified Reported Term"^^xsd:string ;
	bd:rule ""^^xsd:string ;
	bd:ordinal "9"^^xsd:positiveInteger ;
	bd:name "AEMODIFY"^^xsd:string ;
	bd:description "If AETERM is modified to facilitate coding, then AEMODIFY will contain the modified text."^^xsd:string ;
	bd:format ""^^xsd:string ;
	bd:ctAndFormat ""^^xsd:string ;
	bd:compliance <http://www.assero.co.uk/CSN#da9f1092-7a20-4c97-9144-8bac2e72d1ea> ;
	bd:basedOnClassVariable <http://www.cdisc.org/SDTM_MODEL_EVENTS/V2#CL_--MODIFY> ;
.
<http://www.cdisc.org/AE/V2#AELLT>
	rdf:type bd:SdtmDomainVariable ;
	isoC:label "Lowest Level Term"^^xsd:string ;
	bd:rule ""^^xsd:string ;
	bd:ordinal "10"^^xsd:positiveInteger ;
	bd:name "AELLT"^^xsd:string ;
	bd:description "Dictionary-derived text description of the Lowest Level Term."^^xsd:string ;
	bd:format "MedDRA"^^xsd:string ;
	bd:ctAndFormat "MedDRA"^^xsd:string ;
	bd:compliance <http://www.assero.co.uk/CSN#fc544083-2437-4ec0-97f4-767598bee682> ;
	bd:basedOnClassVariable <http://www.cdisc.org/SDTM_MODEL_EVENTS/V2#CL_--LLT> ;
.
<http://www.cdisc.org/AE/V2#AELLTCD>
	rdf:type bd:SdtmDomainVariable ;
	isoC:label "Lowest Level Term Code"^^xsd:string ;
	bd:rule ""^^xsd:string ;
	bd:ordinal "11"^^xsd:positiveInteger ;
	bd:name "AELLTCD"^^xsd:string ;
	bd:description "Dictionary-derived code for the Lowest Level Term."^^xsd:string ;
	bd:format "MedDRA"^^xsd:string ;
	bd:ctAndFormat "MedDRA"^^xsd:string ;
	bd:compliance <http://www.assero.co.uk/CSN#fc544083-2437-4ec0-97f4-767598bee682> ;
	bd:basedOnClassVariable <http://www.cdisc.org/SDTM_MODEL_EVENTS/V2#CL_--LLTCD> ;
.
<http://www.cdisc.org/AE/V2#AEDECOD>
	rdf:type bd:SdtmDomainVariable ;
	isoC:label "Dictionary-Derived Term"^^xsd:string ;
	bd:rule ""^^xsd:string ;
	bd:ordinal "12"^^xsd:positiveInteger ;
	bd:name "AEDECOD"^^xsd:string ;
	bd:description "Dictionary-derived text description of AETERM or AEMODIFY. Equivalent to the Preferred Term (PT in MedDRA). The sponsor is expected to provide the dictionary name and version used to map the terms utilizing the define.xml external codelist attributes"^^xsd:string ;
	bd:format ""^^xsd:string ;
	bd:ctAndFormat ""^^xsd:string ;
	bd:compliance <http://www.assero.co.uk/CSN#8f112ba7-caa3-4f34-a9fc-8bc808b13955> ;
	bd:basedOnClassVariable <http://www.cdisc.org/SDTM_MODEL_EVENTS/V2#CL_--DECOD> ;
.
<http://www.cdisc.org/AE/V2#AEPTCD>
	rdf:type bd:SdtmDomainVariable ;
	isoC:label "Preferred Term Code"^^xsd:string ;
	bd:rule ""^^xsd:string ;
	bd:ordinal "13"^^xsd:positiveInteger ;
	bd:name "AEPTCD"^^xsd:string ;
	bd:description "Dictionary-derived code for the Preferred Term."^^xsd:string ;
	bd:format "MedDRA"^^xsd:string ;
	bd:ctAndFormat "MedDRA"^^xsd:string ;
	bd:compliance <http://www.assero.co.uk/CSN#fc544083-2437-4ec0-97f4-767598bee682> ;
	bd:basedOnClassVariable <http://www.cdisc.org/SDTM_MODEL_EVENTS/V2#CL_--PTCD> ;
.
<http://www.cdisc.org/AE/V2#AEHLT>
	rdf:type bd:SdtmDomainVariable ;
	isoC:label "High Level Term"^^xsd:string ;
	bd:rule ""^^xsd:string ;
	bd:ordinal "14"^^xsd:positiveInteger ;
	bd:name "AEHLT"^^xsd:string ;
	bd:description "Dictionary-derived text description of the High Level Term for the primary System Organ Class."^^xsd:string ;
	bd:format "MedDRA"^^xsd:string ;
	bd:ctAndFormat "MedDRA"^^xsd:string ;
	bd:compliance <http://www.assero.co.uk/CSN#fc544083-2437-4ec0-97f4-767598bee682> ;
	bd:basedOnClassVariable <http://www.cdisc.org/SDTM_MODEL_EVENTS/V2#CL_--HLT> ;
.
<http://www.cdisc.org/AE/V2#AEHLTCD>
	rdf:type bd:SdtmDomainVariable ;
	isoC:label "High Level Term Code"^^xsd:string ;
	bd:rule ""^^xsd:string ;
	bd:ordinal "15"^^xsd:positiveInteger ;
	bd:name "AEHLTCD"^^xsd:string ;
	bd:description "Dictionary-derived code for the High Level Term for the primary System Organ Class."^^xsd:string ;
	bd:format "MedDRA"^^xsd:string ;
	bd:ctAndFormat "MedDRA"^^xsd:string ;
	bd:compliance <http://www.assero.co.uk/CSN#fc544083-2437-4ec0-97f4-767598bee682> ;
	bd:basedOnClassVariable <http://www.cdisc.org/SDTM_MODEL_EVENTS/V2#CL_--HLTCD> ;
.
<http://www.cdisc.org/AE/V2#AEHLGT>
	rdf:type bd:SdtmDomainVariable ;
	isoC:label "High Level Group Term"^^xsd:string ;
	bd:rule ""^^xsd:string ;
	bd:ordinal "16"^^xsd:positiveInteger ;
	bd:name "AEHLGT"^^xsd:string ;
	bd:description "Dictionary-derived text description of the High Level Group Term for the primary System Organ Class."^^xsd:string ;
	bd:format "MedDRA"^^xsd:string ;
	bd:ctAndFormat "MedDRA"^^xsd:string ;
	bd:compliance <http://www.assero.co.uk/CSN#fc544083-2437-4ec0-97f4-767598bee682> ;
	bd:basedOnClassVariable <http://www.cdisc.org/SDTM_MODEL_EVENTS/V2#CL_--HLGT> ;
.
<http://www.cdisc.org/AE/V2#AEHLGTCD>
	rdf:type bd:SdtmDomainVariable ;
	isoC:label "High Level Group Term Code"^^xsd:string ;
	bd:rule ""^^xsd:string ;
	bd:ordinal "17"^^xsd:positiveInteger ;
	bd:name "AEHLGTCD"^^xsd:string ;
	bd:description "Dictionary-derived code for the High Level Group Term for the primary System Organ Class."^^xsd:string ;
	bd:format "MedDRA"^^xsd:string ;
	bd:ctAndFormat "MedDRA"^^xsd:string ;
	bd:compliance <http://www.assero.co.uk/CSN#fc544083-2437-4ec0-97f4-767598bee682> ;
	bd:basedOnClassVariable <http://www.cdisc.org/SDTM_MODEL_EVENTS/V2#CL_--HLGTCD> ;
.
<http://www.cdisc.org/AE/V2#AECAT>
	rdf:type bd:SdtmDomainVariable ;
	isoC:label "Category for Adverse Event"^^xsd:string ;
	bd:rule ""^^xsd:string ;
	bd:ordinal "18"^^xsd:positiveInteger ;
	bd:name "AECAT"^^xsd:string ;
	bd:description "Used to define a category of related records. Example: BLEEDING, NEUROPSYCHIATRIC."^^xsd:string ;
	bd:format ""^^xsd:string ;
	bd:ctAndFormat ""^^xsd:string ;
	bd:compliance <http://www.assero.co.uk/CSN#da9f1092-7a20-4c97-9144-8bac2e72d1ea> ;
	bd:basedOnClassVariable <http://www.cdisc.org/SDTM_MODEL_EVENTS/V2#CL_--CAT> ;
	bd:isA <http://www.s-cubed.dk/CAR#a3c686e711e4720f99b4562bb3dbaae7ab658cf2> ;
.
<http://www.cdisc.org/AE/V2#AESCAT>
	rdf:type bd:SdtmDomainVariable ;
	isoC:label "Subcategory for Adverse Event"^^xsd:string ;
	bd:rule ""^^xsd:string ;
	bd:ordinal "19"^^xsd:positiveInteger ;
	bd:name "AESCAT"^^xsd:string ;
	bd:description "A further categorization of adverse event. Example: NEUROLOGIC."^^xsd:string ;
	bd:format ""^^xsd:string ;
	bd:ctAndFormat ""^^xsd:string ;
	bd:compliance <http://www.assero.co.uk/CSN#da9f1092-7a20-4c97-9144-8bac2e72d1ea> ;
	bd:basedOnClassVariable <http://www.cdisc.org/SDTM_MODEL_EVENTS/V2#CL_--SCAT> ;
	bd:isA <http://www.s-cubed.dk/CAR#479a67983e739413da55faf0dc509f83fd5dea64> ;
.
<http://www.cdisc.org/AE/V2#AEPRESP>
	rdf:type bd:SdtmDomainVariable ;
	isoC:label "Pre-Specified Adverse Event"^^xsd:string ;
	bd:rule ""^^xsd:string ;
	bd:ordinal "20"^^xsd:positiveInteger ;
	bd:name "AEPRESP"^^xsd:string ;
	bd:description "A value of \"Y\" indicates that this adverse event was pre-specified on the CRF. Values are null for spontaneously reported events (i.e., those collected as free-text verbatim terms)"^^xsd:string ;
	bd:format ""^^xsd:string ;
	bd:ctAndFormat "(NY)"^^xsd:string ;
	bd:compliance <http://www.assero.co.uk/CSN#da9f1092-7a20-4c97-9144-8bac2e72d1ea> ;
	bd:ctReference <http://www.cdisc.org/AE/V2#AEPRESP_TMC1> ;
	bd:basedOnClassVariable <http://www.cdisc.org/SDTM_MODEL_EVENTS/V2#CL_--PRESP> ;
.
<http://www.cdisc.org/AE/V2#AEPRESP_TMC1>
	rdf:type bo:TMcReference ;
	isoC:label "NY"^^xsd:string ;
	bo:enabled "true"^^xsd:boolean ;
	bo:optional "false"^^xsd:boolean ;
	bo:ordinal "1"^^xsd:positiveInteger ;
	bo:reference <http://www.cdisc.org/C66742/V4#C66742> ;
	bo:context <http://www.cdisc.org/CT/V31#TH> ;
.
<http://www.cdisc.org/AE/V2#AEBODSYS>
	rdf:type bd:SdtmDomainVariable ;
	isoC:label "Body System or Organ Class"^^xsd:string ;
	bd:rule ""^^xsd:string ;
	bd:ordinal "21"^^xsd:positiveInteger ;
	bd:name "AEBODSYS"^^xsd:string ;
	bd:description "Dictionary derived. Body system or organ class used by the sponsor from the coding dictionary (e.g., MedDRA). When using a multi-axial dictionary such as MedDRA, this should contain the SOC used for the sponsor's analyses and summary tables which may not necessarily be the primary SOC."^^xsd:string ;
	bd:format ""^^xsd:string ;
	bd:ctAndFormat ""^^xsd:string ;
	bd:compliance <http://www.assero.co.uk/CSN#fc544083-2437-4ec0-97f4-767598bee682> ;
	bd:basedOnClassVariable <http://www.cdisc.org/SDTM_MODEL_EVENTS/V2#CL_--BODSYS> ;
.
<http://www.cdisc.org/AE/V2#AEBDSYCD>
	rdf:type bd:SdtmDomainVariable ;
	isoC:label "Body System or Organ Class Code"^^xsd:string ;
	bd:rule ""^^xsd:string ;
	bd:ordinal "22"^^xsd:positiveInteger ;
	bd:name "AEBDSYCD"^^xsd:string ;
	bd:description "Dictionary derived. Code for the body system or organ class used by the sponsor. When using a multi-axial dictionary such as MedDRA, this should contain the SOC used for the sponsor's analyses and summary tables, which may not necessarily be the primary SOC."^^xsd:string ;
	bd:format "MedDRA"^^xsd:string ;
	bd:ctAndFormat "MedDRA"^^xsd:string ;
	bd:compliance <http://www.assero.co.uk/CSN#fc544083-2437-4ec0-97f4-767598bee682> ;
	bd:basedOnClassVariable <http://www.cdisc.org/SDTM_MODEL_EVENTS/V2#CL_--BDSYCD> ;
.
<http://www.cdisc.org/AE/V2#AESOC>
	rdf:type bd:SdtmDomainVariable ;
	isoC:label "Primary System Organ Class"^^xsd:string ;
	bd:rule ""^^xsd:string ;
	bd:ordinal "23"^^xsd:positiveInteger ;
	bd:name "AESOC"^^xsd:string ;
	bd:description "Dictionary-derived text description of the primary System Organ Class. Will be the same as AEBODSYS if the primary SOC was used for analysis."^^xsd:string ;
	bd:format "MedDRA"^^xsd:string ;
	bd:ctAndFormat "MedDRA"^^xsd:string ;
	bd:compliance <http://www.assero.co.uk/CSN#fc544083-2437-4ec0-97f4-767598bee682> ;
	bd:basedOnClassVariable <http://www.cdisc.org/SDTM_MODEL_EVENTS/V2#CL_--SOC> ;
.
<http://www.cdisc.org/AE/V2#AESOCCD>
	rdf:type bd:SdtmDomainVariable ;
	isoC:label "Primary System Organ Class Code"^^xsd:string ;
	bd:rule ""^^xsd:string ;
	bd:ordinal "24"^^xsd:positiveInteger ;
	bd:name "AESOCCD"^^xsd:string ;
	bd:description "Dictionary-derived code for the primary System Organ Class. Will be the same as AEBDSYCD if the primary SOC was used for analysis."^^xsd:string ;
	bd:format "MedDRA"^^xsd:string ;
	bd:ctAndFormat "MedDRA"^^xsd:string ;
	bd:compliance <http://www.assero.co.uk/CSN#fc544083-2437-4ec0-97f4-767598bee682> ;
	bd:basedOnClassVariable <http://www.cdisc.org/SDTM_MODEL_EVENTS/V2#CL_--SOCCD> ;
.
<http://www.cdisc.org/AE/V2#AELOC>
	rdf:type bd:SdtmDomainVariable ;
	isoC:label "Location of Event"^^xsd:string ;
	bd:rule ""^^xsd:string ;
	bd:ordinal "25"^^xsd:positiveInteger ;
	bd:name "AELOC"^^xsd:string ;
	bd:description "Describes anatomical location relevant for the event (e.g., LEFT ARM for skin rash)."^^xsd:string ;
	bd:format ""^^xsd:string ;
	bd:ctAndFormat "(LOC)"^^xsd:string ;
	bd:compliance <http://www.assero.co.uk/CSN#da9f1092-7a20-4c97-9144-8bac2e72d1ea> ;
	bd:ctReference <http://www.cdisc.org/AE/V2#AELOC_TMC1> ;
	bd:basedOnClassVariable <http://www.cdisc.org/SDTM_MODEL_EVENTS/V2#CL_--LOC> ;
	bd:isA <http://www.s-cubed.dk/CAR#d219c68101f532de10add2cf42fb9dbeca73d3be> ;
.
<http://www.cdisc.org/AE/V2#AELOC_TMC1>
	rdf:type bo:TMcReference ;
	isoC:label "LOC"^^xsd:string ;
	bo:enabled "true"^^xsd:boolean ;
	bo:optional "false"^^xsd:boolean ;
	bo:ordinal "1"^^xsd:positiveInteger ;
	bo:reference <http://www.cdisc.org/C74456/V31#C74456> ;
	bo:context <http://www.cdisc.org/CT/V31#TH> ;
.
<http://www.cdisc.org/AE/V2#AESEV>
	rdf:type bd:SdtmDomainVariable ;
	isoC:label "Severity/Intensity"^^xsd:string ;
	bd:rule ""^^xsd:string ;
	bd:ordinal "26"^^xsd:positiveInteger ;
	bd:name "AESEV"^^xsd:string ;
	bd:description "The severity or intensity of the event. Examples: MILD, MODERATE, SEVERE."^^xsd:string ;
	bd:format ""^^xsd:string ;
	bd:ctAndFormat "(AESEV)"^^xsd:string ;
	bd:compliance <http://www.assero.co.uk/CSN#da9f1092-7a20-4c97-9144-8bac2e72d1ea> ;
	bd:ctReference <http://www.cdisc.org/AE/V2#AESEV_TMC1> ;
	bd:basedOnClassVariable <http://www.cdisc.org/SDTM_MODEL_EVENTS/V2#CL_--SEV> ;
	bd:isA <http://www.s-cubed.dk/CAR#de314fa0c9d9e359b633f2fdab4659c886fe5986> ;
.
<http://www.cdisc.org/AE/V2#AESEV_TMC1>
	rdf:type bo:TMcReference ;
	isoC:label "AESEV"^^xsd:string ;
	bo:enabled "true"^^xsd:boolean ;
	bo:optional "false"^^xsd:boolean ;
	bo:ordinal "1"^^xsd:positiveInteger ;
	bo:reference <http://www.cdisc.org/C66769/V17#C66769> ;
	bo:context <http://www.cdisc.org/CT/V31#TH> ;
.
<http://www.cdisc.org/AE/V2#AESER>
	rdf:type bd:SdtmDomainVariable ;
	isoC:label "Serious Event"^^xsd:string ;
	bd:rule ""^^xsd:string ;
	bd:ordinal "27"^^xsd:positiveInteger ;
	bd:name "AESER"^^xsd:string ;
	bd:description "Is this a serious event?"^^xsd:string ;
	bd:format ""^^xsd:string ;
	bd:ctAndFormat "(NY)"^^xsd:string ;
	bd:compliance <http://www.assero.co.uk/CSN#fc544083-2437-4ec0-97f4-767598bee682> ;
	bd:ctReference <http://www.cdisc.org/AE/V2#AESER_TMC1> ;
	bd:basedOnClassVariable <http://www.cdisc.org/SDTM_MODEL_EVENTS/V2#CL_--SER> ;
	bd:isA <http://www.s-cubed.dk/CAR#bc7845e67c63c354e69a957bab304d72da2f9fb7> ;
.
<http://www.cdisc.org/AE/V2#AESER_TMC1>
	rdf:type bo:TMcReference ;
	isoC:label "NY"^^xsd:string ;
	bo:enabled "true"^^xsd:boolean ;
	bo:optional "false"^^xsd:boolean ;
	bo:ordinal "1"^^xsd:positiveInteger ;
	bo:reference <http://www.cdisc.org/C66742/V4#C66742> ;
	bo:context <http://www.cdisc.org/CT/V31#TH> ;
.
<http://www.cdisc.org/AE/V2#AEACN>
	rdf:type bd:SdtmDomainVariable ;
	isoC:label "Action Taken with Study Treatment"^^xsd:string ;
	bd:rule ""^^xsd:string ;
	bd:ordinal "28"^^xsd:positiveInteger ;
	bd:name "AEACN"^^xsd:string ;
	bd:description "Describes changes to the study treatment as a result of the event. AEACN is specifically for the relationship to study treatment. AEACNOTH is for actions unrelated to dose adjustments of study treatment. Examples of AEACN values include ICH E2B values: DRUG WITHDRAWN, DOSE REDUCED, DOSE INCREASED, DOSE NOT CHANGED, UNKNOWN or NOT APPLICABLE"^^xsd:string ;
	bd:format ""^^xsd:string ;
	bd:ctAndFormat "(ACN)"^^xsd:string ;
	bd:compliance <http://www.assero.co.uk/CSN#fc544083-2437-4ec0-97f4-767598bee682> ;
	bd:ctReference <http://www.cdisc.org/AE/V2#AEACN_TMC1> ;
	bd:basedOnClassVariable <http://www.cdisc.org/SDTM_MODEL_EVENTS/V2#CL_--ACN> ;
	bd:isA <http://www.s-cubed.dk/CAR#485290959383eee39c093e50e84fdc851ac37a32> ;
.
<http://www.cdisc.org/AE/V2#AEACN_TMC1>
	rdf:type bo:TMcReference ;
	isoC:label "ACN"^^xsd:string ;
	bo:enabled "true"^^xsd:boolean ;
	bo:optional "false"^^xsd:boolean ;
	bo:ordinal "1"^^xsd:positiveInteger ;
	bo:reference <http://www.cdisc.org/C66767/V28#C66767> ;
	bo:context <http://www.cdisc.org/CT/V31#TH> ;
.
<http://www.cdisc.org/AE/V2#AEACNOTH>
	rdf:type bd:SdtmDomainVariable ;
	isoC:label "Other Action Taken"^^xsd:string ;
	bd:rule ""^^xsd:string ;
	bd:ordinal "29"^^xsd:positiveInteger ;
	bd:name "AEACNOTH"^^xsd:string ;
	bd:description "Describes other actions taken as a result of the event that are unrelated to dose adjustments of study treatment. Usually reported as free text. Example: \"TREATMENT UNBLINDED. PRIMARY CARE PHYSICIAN NOTIFIED.\""^^xsd:string ;
	bd:format ""^^xsd:string ;
	bd:ctAndFormat ""^^xsd:string ;
	bd:compliance <http://www.assero.co.uk/CSN#da9f1092-7a20-4c97-9144-8bac2e72d1ea> ;
	bd:basedOnClassVariable <http://www.cdisc.org/SDTM_MODEL_EVENTS/V2#CL_--ACNOTH> ;
	bd:isA <http://www.s-cubed.dk/CAR#1baf5ac06f7430ac72727c2dfb3f152e07d9d5da> ;
.
<http://www.cdisc.org/AE/V2#AEREL>
	rdf:type bd:SdtmDomainVariable ;
	isoC:label "Causality"^^xsd:string ;
	bd:rule ""^^xsd:string ;
	bd:ordinal "30"^^xsd:positiveInteger ;
	bd:name "AEREL"^^xsd:string ;
	bd:description "Records the investigator's opinion as to the causality of the event to the treatment. ICH E2A and E2B examples include NOT RELATED, UNLIKELY RELATED, POSSIBLY RELATED, RELATED. Controlled Terminology may be defined in the future. Check with regulatory authority for population of this variable"^^xsd:string ;
	bd:format ""^^xsd:string ;
	bd:ctAndFormat ""^^xsd:string ;
	bd:compliance <http://www.assero.co.uk/CSN#fc544083-2437-4ec0-97f4-767598bee682> ;
	bd:basedOnClassVariable <http://www.cdisc.org/SDTM_MODEL_EVENTS/V2#CL_--REL> ;
.
<http://www.cdisc.org/AE/V2#AERELNST>
	rdf:type bd:SdtmDomainVariable ;
	isoC:label "Relationship to Non-Study Treatment"^^xsd:string ;
	bd:rule ""^^xsd:string ;
	bd:ordinal "31"^^xsd:positiveInteger ;
	bd:name "AERELNST"^^xsd:string ;
	bd:description "Records the investigator's opinion as to whether the event may have been due to a treatment other than study drug. May be reported as free text. Example: \"MORE LIKELY RELATED TO ASPIRIN USE.\"."^^xsd:string ;
	bd:format ""^^xsd:string ;
	bd:ctAndFormat ""^^xsd:string ;
	bd:compliance <http://www.assero.co.uk/CSN#da9f1092-7a20-4c97-9144-8bac2e72d1ea> ;
	bd:basedOnClassVariable <http://www.cdisc.org/SDTM_MODEL_EVENTS/V2#CL_--RELNST> ;
.
<http://www.cdisc.org/AE/V2#AEPATT>
	rdf:type bd:SdtmDomainVariable ;
	isoC:label "Pattern of Adverse Event"^^xsd:string ;
	bd:rule ""^^xsd:string ;
	bd:ordinal "32"^^xsd:positiveInteger ;
	bd:name "AEPATT"^^xsd:string ;
	bd:description "Used to indicate the pattern of the event over time. Examples: INTERMITTENT, CONTINUOUS, SINGLE EVENT."^^xsd:string ;
	bd:format ""^^xsd:string ;
	bd:ctAndFormat ""^^xsd:string ;
	bd:compliance <http://www.assero.co.uk/CSN#da9f1092-7a20-4c97-9144-8bac2e72d1ea> ;
	bd:basedOnClassVariable <http://www.cdisc.org/SDTM_MODEL_EVENTS/V2#CL_--PATT> ;
	bd:isA <http://www.s-cubed.dk/CAR#1fff6a31661b491fc40cc9c1ad7fe5e479cb7500> ;
.
<http://www.cdisc.org/AE/V2#AEOUT>
	rdf:type bd:SdtmDomainVariable ;
	isoC:label "Outcome of Adverse Event"^^xsd:string ;
	bd:rule ""^^xsd:string ;
	bd:ordinal "33"^^xsd:positiveInteger ;
	bd:name "AEOUT"^^xsd:string ;
	bd:description "Description of the outcome of an event."^^xsd:string ;
	bd:format ""^^xsd:string ;
	bd:ctAndFormat "(OUT)"^^xsd:string ;
	bd:compliance <http://www.assero.co.uk/CSN#da9f1092-7a20-4c97-9144-8bac2e72d1ea> ;
	bd:ctReference <http://www.cdisc.org/AE/V2#AEOUT_TMC1> ;
	bd:basedOnClassVariable <http://www.cdisc.org/SDTM_MODEL_EVENTS/V2#CL_--OUT> ;
	bd:isA <http://www.s-cubed.dk/CAR#73a0f131076b513c16bfe3f4cff9ab8b765c9f23> ;
.
<http://www.cdisc.org/AE/V2#AEOUT_TMC1>
	rdf:type bo:TMcReference ;
	isoC:label "OUT"^^xsd:string ;
	bo:enabled "true"^^xsd:boolean ;
	bo:optional "false"^^xsd:boolean ;
	bo:ordinal "1"^^xsd:positiveInteger ;
	bo:reference <http://www.cdisc.org/C66768/V28#C66768> ;
	bo:context <http://www.cdisc.org/CT/V31#TH> ;
.
<http://www.cdisc.org/AE/V2#AESCAN>
	rdf:type bd:SdtmDomainVariable ;
	isoC:label "Involves Cancer"^^xsd:string ;
	bd:rule ""^^xsd:string ;
	bd:ordinal "34"^^xsd:positiveInteger ;
	bd:name "AESCAN"^^xsd:string ;
	bd:description "Was the serious event associated with the development of cancer?"^^xsd:string ;
	bd:format ""^^xsd:string ;
	bd:ctAndFormat "(NY)"^^xsd:string ;
	bd:compliance <http://www.assero.co.uk/CSN#da9f1092-7a20-4c97-9144-8bac2e72d1ea> ;
	bd:ctReference <http://www.cdisc.org/AE/V2#AESCAN_TMC1> ;
	bd:basedOnClassVariable <http://www.cdisc.org/SDTM_MODEL_EVENTS/V2#CL_--SCAN> ;
.
<http://www.cdisc.org/AE/V2#AESCAN_TMC1>
	rdf:type bo:TMcReference ;
	isoC:label "NY"^^xsd:string ;
	bo:enabled "true"^^xsd:boolean ;
	bo:optional "false"^^xsd:boolean ;
	bo:ordinal "1"^^xsd:positiveInteger ;
	bo:reference <http://www.cdisc.org/C66742/V4#C66742> ;
	bo:context <http://www.cdisc.org/CT/V31#TH> ;
.
<http://www.cdisc.org/AE/V2#AESCONG>
	rdf:type bd:SdtmDomainVariable ;
	isoC:label "Congenital Anomaly or Birth Defect"^^xsd:string ;
	bd:rule ""^^xsd:string ;
	bd:ordinal "35"^^xsd:positiveInteger ;
	bd:name "AESCONG"^^xsd:string ;
	bd:description "Was the serious event associated with congenital anomaly or birth defect?"^^xsd:string ;
	bd:format ""^^xsd:string ;
	bd:ctAndFormat "(NY)"^^xsd:string ;
	bd:compliance <http://www.assero.co.uk/CSN#da9f1092-7a20-4c97-9144-8bac2e72d1ea> ;
	bd:ctReference <http://www.cdisc.org/AE/V2#AESCONG_TMC1> ;
	bd:basedOnClassVariable <http://www.cdisc.org/SDTM_MODEL_EVENTS/V2#CL_--SCONG> ;
.
<http://www.cdisc.org/AE/V2#AESCONG_TMC1>
	rdf:type bo:TMcReference ;
	isoC:label "NY"^^xsd:string ;
	bo:enabled "true"^^xsd:boolean ;
	bo:optional "false"^^xsd:boolean ;
	bo:ordinal "1"^^xsd:positiveInteger ;
	bo:reference <http://www.cdisc.org/C66742/V4#C66742> ;
	bo:context <http://www.cdisc.org/CT/V31#TH> ;
.
<http://www.cdisc.org/AE/V2#AESDISAB>
	rdf:type bd:SdtmDomainVariable ;
	isoC:label "Persist or Signif Disability/Incapacity"^^xsd:string ;
	bd:rule ""^^xsd:string ;
	bd:ordinal "36"^^xsd:positiveInteger ;
	bd:name "AESDISAB"^^xsd:string ;
	bd:description "Did the serious event result in persistent or significant disability/incapacity?"^^xsd:string ;
	bd:format ""^^xsd:string ;
	bd:ctAndFormat "(NY)"^^xsd:string ;
	bd:compliance <http://www.assero.co.uk/CSN#da9f1092-7a20-4c97-9144-8bac2e72d1ea> ;
	bd:ctReference <http://www.cdisc.org/AE/V2#AESDISAB_TMC1> ;
	bd:basedOnClassVariable <http://www.cdisc.org/SDTM_MODEL_EVENTS/V2#CL_--SDISAB> ;
.
<http://www.cdisc.org/AE/V2#AESDISAB_TMC1>
	rdf:type bo:TMcReference ;
	isoC:label "NY"^^xsd:string ;
	bo:enabled "true"^^xsd:boolean ;
	bo:optional "false"^^xsd:boolean ;
	bo:ordinal "1"^^xsd:positiveInteger ;
	bo:reference <http://www.cdisc.org/C66742/V4#C66742> ;
	bo:context <http://www.cdisc.org/CT/V31#TH> ;
.
<http://www.cdisc.org/AE/V2#AESDTH>
	rdf:type bd:SdtmDomainVariable ;
	isoC:label "Results in Death"^^xsd:string ;
	bd:rule ""^^xsd:string ;
	bd:ordinal "37"^^xsd:positiveInteger ;
	bd:name "AESDTH"^^xsd:string ;
	bd:description "Did the serious event result in death?"^^xsd:string ;
	bd:format ""^^xsd:string ;
	bd:ctAndFormat "(NY)"^^xsd:string ;
	bd:compliance <http://www.assero.co.uk/CSN#da9f1092-7a20-4c97-9144-8bac2e72d1ea> ;
	bd:ctReference <http://www.cdisc.org/AE/V2#AESDTH_TMC1> ;
	bd:basedOnClassVariable <http://www.cdisc.org/SDTM_MODEL_EVENTS/V2#CL_--SDTH> ;
.
<http://www.cdisc.org/AE/V2#AESDTH_TMC1>
	rdf:type bo:TMcReference ;
	isoC:label "NY"^^xsd:string ;
	bo:enabled "true"^^xsd:boolean ;
	bo:optional "false"^^xsd:boolean ;
	bo:ordinal "1"^^xsd:positiveInteger ;
	bo:reference <http://www.cdisc.org/C66742/V4#C66742> ;
	bo:context <http://www.cdisc.org/CT/V31#TH> ;
.
<http://www.cdisc.org/AE/V2#AESHOSP>
	rdf:type bd:SdtmDomainVariable ;
	isoC:label "Requires or Prolongs Hospitalization"^^xsd:string ;
	bd:rule ""^^xsd:string ;
	bd:ordinal "38"^^xsd:positiveInteger ;
	bd:name "AESHOSP"^^xsd:string ;
	bd:description "Did the serious event require or prolong hospitalization?"^^xsd:string ;
	bd:format ""^^xsd:string ;
	bd:ctAndFormat "(NY)"^^xsd:string ;
	bd:compliance <http://www.assero.co.uk/CSN#da9f1092-7a20-4c97-9144-8bac2e72d1ea> ;
	bd:ctReference <http://www.cdisc.org/AE/V2#AESHOSP_TMC1> ;
	bd:basedOnClassVariable <http://www.cdisc.org/SDTM_MODEL_EVENTS/V2#CL_--SHOSP> ;
	bd:isA <http://www.s-cubed.dk/CAR#3239c890f4b1b44ea81233e5766557a1008c0b6b> ;
.
<http://www.cdisc.org/AE/V2#AESHOSP_TMC1>
	rdf:type bo:TMcReference ;
	isoC:label "NY"^^xsd:string ;
	bo:enabled "true"^^xsd:boolean ;
	bo:optional "false"^^xsd:boolean ;
	bo:ordinal "1"^^xsd:positiveInteger ;
	bo:reference <http://www.cdisc.org/C66742/V4#C66742> ;
	bo:context <http://www.cdisc.org/CT/V31#TH> ;
.
<http://www.cdisc.org/AE/V2#AESLIFE>
	rdf:type bd:SdtmDomainVariable ;
	isoC:label "Is Life Threatening"^^xsd:string ;
	bd:rule ""^^xsd:string ;
	bd:ordinal "39"^^xsd:positiveInteger ;
	bd:name "AESLIFE"^^xsd:string ;
	bd:description "Was the serious event life threatening?"^^xsd:string ;
	bd:format ""^^xsd:string ;
	bd:ctAndFormat "(NY)"^^xsd:string ;
	bd:compliance <http://www.assero.co.uk/CSN#da9f1092-7a20-4c97-9144-8bac2e72d1ea> ;
	bd:ctReference <http://www.cdisc.org/AE/V2#AESLIFE_TMC1> ;
	bd:basedOnClassVariable <http://www.cdisc.org/SDTM_MODEL_EVENTS/V2#CL_--SLIFE> ;
.
<http://www.cdisc.org/AE/V2#AESLIFE_TMC1>
	rdf:type bo:TMcReference ;
	isoC:label "NY"^^xsd:string ;
	bo:enabled "true"^^xsd:boolean ;
	bo:optional "false"^^xsd:boolean ;
	bo:ordinal "1"^^xsd:positiveInteger ;
	bo:reference <http://www.cdisc.org/C66742/V4#C66742> ;
	bo:context <http://www.cdisc.org/CT/V31#TH> ;
.
<http://www.cdisc.org/AE/V2#AESOD>
	rdf:type bd:SdtmDomainVariable ;
	isoC:label "Occurred with Overdose"^^xsd:string ;
	bd:rule ""^^xsd:string ;
	bd:ordinal "40"^^xsd:positiveInteger ;
	bd:name "AESOD"^^xsd:string ;
	bd:description "Did the serious event occur with an overdose?"^^xsd:string ;
	bd:format ""^^xsd:string ;
	bd:ctAndFormat "(NY)"^^xsd:string ;
	bd:compliance <http://www.assero.co.uk/CSN#da9f1092-7a20-4c97-9144-8bac2e72d1ea> ;
	bd:ctReference <http://www.cdisc.org/AE/V2#AESOD_TMC1> ;
	bd:basedOnClassVariable <http://www.cdisc.org/SDTM_MODEL_EVENTS/V2#CL_--SOD> ;
.
<http://www.cdisc.org/AE/V2#AESOD_TMC1>
	rdf:type bo:TMcReference ;
	isoC:label "NY"^^xsd:string ;
	bo:enabled "true"^^xsd:boolean ;
	bo:optional "false"^^xsd:boolean ;
	bo:ordinal "1"^^xsd:positiveInteger ;
	bo:reference <http://www.cdisc.org/C66742/V4#C66742> ;
	bo:context <http://www.cdisc.org/CT/V31#TH> ;
.
<http://www.cdisc.org/AE/V2#AESMIE>
	rdf:type bd:SdtmDomainVariable ;
	isoC:label "Other Medically Important Serious Event"^^xsd:string ;
	bd:rule ""^^xsd:string ;
	bd:ordinal "41"^^xsd:positiveInteger ;
	bd:name "AESMIE"^^xsd:string ;
	bd:description "Do additional categories for seriousness apply?"^^xsd:string ;
	bd:format ""^^xsd:string ;
	bd:ctAndFormat "(NY)"^^xsd:string ;
	bd:compliance <http://www.assero.co.uk/CSN#da9f1092-7a20-4c97-9144-8bac2e72d1ea> ;
	bd:ctReference <http://www.cdisc.org/AE/V2#AESMIE_TMC1> ;
	bd:basedOnClassVariable <http://www.cdisc.org/SDTM_MODEL_EVENTS/V2#CL_--SMIE> ;
.
<http://www.cdisc.org/AE/V2#AESMIE_TMC1>
	rdf:type bo:TMcReference ;
	isoC:label "NY"^^xsd:string ;
	bo:enabled "true"^^xsd:boolean ;
	bo:optional "false"^^xsd:boolean ;
	bo:ordinal "1"^^xsd:positiveInteger ;
	bo:reference <http://www.cdisc.org/C66742/V4#C66742> ;
	bo:context <http://www.cdisc.org/CT/V31#TH> ;
.
<http://www.cdisc.org/AE/V2#AECONTRT>
	rdf:type bd:SdtmDomainVariable ;
	isoC:label "Concomitant or Additional Trtmnt Given"^^xsd:string ;
	bd:rule ""^^xsd:string ;
	bd:ordinal "42"^^xsd:positiveInteger ;
	bd:name "AECONTRT"^^xsd:string ;
	bd:description "Was another treatment given because of the occurrence of the event?"^^xsd:string ;
	bd:format ""^^xsd:string ;
	bd:ctAndFormat "(NY)"^^xsd:string ;
	bd:compliance <http://www.assero.co.uk/CSN#da9f1092-7a20-4c97-9144-8bac2e72d1ea> ;
	bd:ctReference <http://www.cdisc.org/AE/V2#AECONTRT_TMC1> ;
	bd:basedOnClassVariable <http://www.cdisc.org/SDTM_MODEL_EVENTS/V2#CL_--CONTRT> ;
.
<http://www.cdisc.org/AE/V2#AECONTRT_TMC1>
	rdf:type bo:TMcReference ;
	isoC:label "NY"^^xsd:string ;
	bo:enabled "true"^^xsd:boolean ;
	bo:optional "false"^^xsd:boolean ;
	bo:ordinal "1"^^xsd:positiveInteger ;
	bo:reference <http://www.cdisc.org/C66742/V4#C66742> ;
	bo:context <http://www.cdisc.org/CT/V31#TH> ;
.
<http://www.cdisc.org/AE/V2#AETOXGR>
	rdf:type bd:SdtmDomainVariable ;
	isoC:label "Standard Toxicity Grade"^^xsd:string ;
	bd:rule ""^^xsd:string ;
	bd:ordinal "43"^^xsd:positiveInteger ;
	bd:name "AETOXGR"^^xsd:string ;
	bd:description "Toxicity grade according to a standard toxicity scale such as Common Terminology Criteria for Adverse Events v3.0 (CTCAE). Sponsor should specify name of the scale and version used in the metadata (see Section 6.2.1.1, Assumption 6d). If value is from a numeric scale, represent only the number (e.g., \"2\" and not \"Grade 2\")."^^xsd:string ;
	bd:format ""^^xsd:string ;
	bd:ctAndFormat ""^^xsd:string ;
	bd:compliance <http://www.assero.co.uk/CSN#da9f1092-7a20-4c97-9144-8bac2e72d1ea> ;
	bd:basedOnClassVariable <http://www.cdisc.org/SDTM_MODEL_EVENTS/V2#CL_--TOXGR> ;
.
<http://www.cdisc.org/AE/V2#AESTDTC>
	rdf:type bd:SdtmDomainVariable ;
	isoC:label "Start Date/Time of Adverse Event"^^xsd:string ;
	bd:rule ""^^xsd:string ;
	bd:ordinal "44"^^xsd:positiveInteger ;
	bd:name "AESTDTC"^^xsd:string ;
	bd:description ""^^xsd:string ;
	bd:format "ISO 8601"^^xsd:string ;
	bd:ctAndFormat "ISO 8601"^^xsd:string ;
	bd:compliance <http://www.assero.co.uk/CSN#fc544083-2437-4ec0-97f4-767598bee682> ;
	bd:basedOnClassVariable <http://www.cdisc.org/SDTM_MODEL_ALL/V2#CL_--STDTC> ;
	bd:isA <http://www.s-cubed.dk/CAR#83c87956785cde43c109e30fcbd95cca63a18d38> ;
.
<http://www.cdisc.org/AE/V2#AEENDTC>
	rdf:type bd:SdtmDomainVariable ;
	isoC:label "End Date/Time of Adverse Event"^^xsd:string ;
	bd:rule ""^^xsd:string ;
	bd:ordinal "45"^^xsd:positiveInteger ;
	bd:name "AEENDTC"^^xsd:string ;
	bd:description ""^^xsd:string ;
	bd:format "ISO 8601"^^xsd:string ;
	bd:ctAndFormat "ISO 8601"^^xsd:string ;
	bd:compliance <http://www.assero.co.uk/CSN#fc544083-2437-4ec0-97f4-767598bee682> ;
	bd:basedOnClassVariable <http://www.cdisc.org/SDTM_MODEL_ALL/V2#CL_--ENDTC> ;
	bd:isA <http://www.s-cubed.dk/CAR#71c54c70967ea84127e4bd588bd627ec0e581dfb> ;
.
<http://www.cdisc.org/AE/V2#AESTDY>
	rdf:type bd:SdtmDomainVariable ;
	isoC:label "Study Day of Start of Adverse Event"^^xsd:string ;
	bd:rule ""^^xsd:string ;
	bd:ordinal "46"^^xsd:positiveInteger ;
	bd:name "AESTDY"^^xsd:string ;
	bd:description "Study day of start of adverse event relative to the sponsor-defined RFSTDTC."^^xsd:string ;
	bd:format ""^^xsd:string ;
	bd:ctAndFormat ""^^xsd:string ;
	bd:compliance <http://www.assero.co.uk/CSN#da9f1092-7a20-4c97-9144-8bac2e72d1ea> ;
	bd:basedOnClassVariable <http://www.cdisc.org/SDTM_MODEL_ALL/V2#CL_--STDY> ;
.
<http://www.cdisc.org/AE/V2#AEENDY>
	rdf:type bd:SdtmDomainVariable ;
	isoC:label "Study Day of End of Adverse Event"^^xsd:string ;
	bd:rule ""^^xsd:string ;
	bd:ordinal "47"^^xsd:positiveInteger ;
	bd:name "AEENDY"^^xsd:string ;
	bd:description "Study day of end of event relative to the sponsor-defined RFSTDTC."^^xsd:string ;
	bd:format ""^^xsd:string ;
	bd:ctAndFormat ""^^xsd:string ;
	bd:compliance <http://www.assero.co.uk/CSN#da9f1092-7a20-4c97-9144-8bac2e72d1ea> ;
	bd:basedOnClassVariable <http://www.cdisc.org/SDTM_MODEL_ALL/V2#CL_--ENDY> ;
.
<http://www.cdisc.org/AE/V2#AEDUR>
	rdf:type bd:SdtmDomainVariable ;
	isoC:label "Duration of Adverse Event"^^xsd:string ;
	bd:rule ""^^xsd:string ;
	bd:ordinal "48"^^xsd:positiveInteger ;
	bd:name "AEDUR"^^xsd:string ;
	bd:description "Collected duration and unit of an adverse event. Used only if collected on the CRF and not derived from start and end date/times. Example: P1DT2H (for 1 day, 2 hours)."^^xsd:string ;
	bd:format "ISO 8601"^^xsd:string ;
	bd:ctAndFormat "ISO 8601"^^xsd:string ;
	bd:compliance <http://www.assero.co.uk/CSN#da9f1092-7a20-4c97-9144-8bac2e72d1ea> ;
	bd:basedOnClassVariable <http://www.cdisc.org/SDTM_MODEL_ALL/V2#CL_--DUR> ;
.
<http://www.cdisc.org/AE/V2#AEENRF>
	rdf:type bd:SdtmDomainVariable ;
	isoC:label "End Relative to Reference Period"^^xsd:string ;
	bd:rule ""^^xsd:string ;
	bd:ordinal "49"^^xsd:positiveInteger ;
	bd:name "AEENRF"^^xsd:string ;
	bd:description "Describes the end of the event relative to the sponsor-defined reference period. The sponsor-defined reference period is a continuous period of time defined by a discrete starting point (RFSTDTC) and a discrete ending point (RFENDTC) of the trial."^^xsd:string ;
	bd:format ""^^xsd:string ;
	bd:ctAndFormat "(STENRF)"^^xsd:string ;
	bd:compliance <http://www.assero.co.uk/CSN#da9f1092-7a20-4c97-9144-8bac2e72d1ea> ;
	bd:ctReference <http://www.cdisc.org/AE/V2#AEENRF_TMC1> ;
	bd:basedOnClassVariable <http://www.cdisc.org/SDTM_MODEL_ALL/V2#CL_--ENRF> ;
.
<http://www.cdisc.org/AE/V2#AEENRF_TMC1>
	rdf:type bo:TMcReference ;
	isoC:label "STENRF"^^xsd:string ;
	bo:enabled "true"^^xsd:boolean ;
	bo:optional "false"^^xsd:boolean ;
	bo:ordinal "1"^^xsd:positiveInteger ;
	bo:reference <http://www.cdisc.org/C66728/V27#C66728> ;
	bo:context <http://www.cdisc.org/CT/V31#TH> ;
.
<http://www.cdisc.org/AE/V2#AEENRTPT>
	rdf:type bd:SdtmDomainVariable ;
	isoC:label "End Relative to Reference Time Point"^^xsd:string ;
	bd:rule ""^^xsd:string ;
	bd:ordinal "50"^^xsd:positiveInteger ;
	bd:name "AEENRTPT"^^xsd:string ;
	bd:description "Identifies the end of the event as being before or after the reference time point defined by variable AEENTPT."^^xsd:string ;
	bd:format "BEFORE, AFTER, COINCIDENT, ONGOING, U"^^xsd:string ;
	bd:ctAndFormat "BEFORE, AFTER, COINCIDENT, ONGOING, U"^^xsd:string ;
	bd:compliance <http://www.assero.co.uk/CSN#da9f1092-7a20-4c97-9144-8bac2e72d1ea> ;
	bd:basedOnClassVariable <http://www.cdisc.org/SDTM_MODEL_ALL/V2#CL_--ENRTPT> ;
.
<http://www.cdisc.org/AE/V2#AEENTPT>
	rdf:type bd:SdtmDomainVariable ;
	isoC:label "End Reference Time Point"^^xsd:string ;
	bd:rule ""^^xsd:string ;
	bd:ordinal "51"^^xsd:positiveInteger ;
	bd:name "AEENTPT"^^xsd:string ;
	bd:description "Description of date/time in ISO 8601 character format of the reference point referred to by AEENRTPT. Examples: \"2003-12-25\" or \"VISIT 2\"."^^xsd:string ;
	bd:format ""^^xsd:string ;
	bd:ctAndFormat ""^^xsd:string ;
	bd:compliance <http://www.assero.co.uk/CSN#da9f1092-7a20-4c97-9144-8bac2e72d1ea> ;
	bd:basedOnClassVariable <http://www.cdisc.org/SDTM_MODEL_ALL/V2#CL_--ENTPT> ;
.
<http://www.cdisc.org/DS/V2>
	rdf:type bd:SdtmDomain ;
	isoC:label "Disposition"^^xsd:string ;
	isoT:hasState <http://www.cdisc.org/DS/V2#RS> ;
	isoT:hasIdentifier <http://www.cdisc.org/DS/V2#SI> ;
	isoT:hasPreviousVersion <http://www.cdisc.org/DS/V1> ;
	isoT:origin ""^^xsd:string ;
	isoT:changeDescription ""^^xsd:string ;
	isoT:creationDate "2012-07-16T00:00:00+00:00"^^xsd:dateTime ;
	isoT:lastChangeDate "2012-07-16T00:00:00+00:00"^^xsd:dateTime ;
	isoT:explanatoryComment ""^^xsd:string ;
	bd:rule ""^^xsd:string ;
	bd:ordinal "1"^^xsd:positiveInteger ;
	bd:includesColumn <http://www.cdisc.org/DS/V2#STUDYID> ;
	bd:includesColumn <http://www.cdisc.org/DS/V2#DOMAIN> ;
	bd:includesColumn <http://www.cdisc.org/DS/V2#USUBJID> ;
	bd:includesColumn <http://www.cdisc.org/DS/V2#DSSEQ> ;
	bd:includesColumn <http://www.cdisc.org/DS/V2#DSGRPID> ;
	bd:includesColumn <http://www.cdisc.org/DS/V2#DSREFID> ;
	bd:includesColumn <http://www.cdisc.org/DS/V2#DSSPID> ;
	bd:includesColumn <http://www.cdisc.org/DS/V2#DSTERM> ;
	bd:includesColumn <http://www.cdisc.org/DS/V2#DSDECOD> ;
	bd:includesColumn <http://www.cdisc.org/DS/V2#DSCAT> ;
	bd:includesColumn <http://www.cdisc.org/DS/V2#DSSCAT> ;
	bd:includesColumn <http://www.cdisc.org/DS/V2#EPOCH> ;
	bd:includesColumn <http://www.cdisc.org/DS/V2#DSDTC> ;
	bd:includesColumn <http://www.cdisc.org/DS/V2#DSSTDTC> ;
	bd:includesColumn <http://www.cdisc.org/DS/V2#DSSTDY> ;
	bd:prefix "DS"^^xsd:string ;
	bd:structure "One record per disposition status or protocol milestone per subject"^^xsd:string ;
	bd:basedOnClass <http://www.cdisc.org/SDTM_MODEL_EVENTS/V2#CL> ;
.
<http://www.cdisc.org/DS/V2#RS>
	rdf:type isoR:RegistrationState ;
	isoR:registrationStatus "Standard"^^xsd:string ;
	isoR:administrativeNote ""^^xsd:string ;
	isoR:effectiveDate "2016-01-01T00:00:00+00:00"^^xsd:dateTime ;
	isoR:untilDate "2016-01-01T00:00:00+00:00"^^xsd:dateTime ;
	isoR:unresolvedIssue ""^^xsd:string ;
	isoR:administrativeStatus ""^^xsd:string ;
	isoR:previousState "Standard"^^xsd:string ;
	isoR:multipleEdit "false"^^xsd:boolean ;
	isoR:byAuthority <http://www.assero.co.uk/RA#DUNS084433759> ;
.
<http://www.cdisc.org/DS/V2#SI>
	rdf:type isoI:ScopedIdentifier ;
	isoI:identifier "DS"^^xsd:string ;
	isoI:versionLabel "2012-07-16 Release"^^xsd:string ;
	isoI:version "2"^^xsd:positiveInteger ;
	isoI:semanticVersion "2.0.0"^^xsd:string ;
	isoI:hasScope <http://www.assero.co.uk/NS#CDISC> ;
.
<http://www.cdisc.org/DS/V2#STUDYID>
	rdf:type bd:SdtmDomainVariable ;
	isoC:label "Study Identifier"^^xsd:string ;
	bd:rule ""^^xsd:string ;
	bd:ordinal "1"^^xsd:positiveInteger ;
	bd:name "STUDYID"^^xsd:string ;
	bd:description "Unique identifier for a study."^^xsd:string ;
	bd:format ""^^xsd:string ;
	bd:ctAndFormat ""^^xsd:string ;
	bd:compliance <http://www.assero.co.uk/CSN#8f112ba7-caa3-4f34-a9fc-8bc808b13955> ;
	bd:basedOnClassVariable <http://www.cdisc.org/SDTM_MODEL_ALL/V1#CL_STUDYID> ;
.
<http://www.cdisc.org/DS/V2#DOMAIN>
	rdf:type bd:SdtmDomainVariable ;
	isoC:label "Domain Abbreviation"^^xsd:string ;
	bd:rule ""^^xsd:string ;
	bd:ordinal "2"^^xsd:positiveInteger ;
	bd:name "DOMAIN"^^xsd:string ;
	bd:description "Two-character abbreviation for the domain."^^xsd:string ;
	bd:format ""^^xsd:string ;
	bd:ctAndFormat "(DOMAIN)"^^xsd:string ;
	bd:compliance <http://www.assero.co.uk/CSN#8f112ba7-caa3-4f34-a9fc-8bc808b13955> ;
	bd:ctReference <http://www.cdisc.org/DS/V2#DOMAIN_TMC1> ;
	bd:basedOnClassVariable <http://www.cdisc.org/SDTM_MODEL_ALL/V2#CL_DOMAIN> ;
.
<http://www.cdisc.org/DS/V2#DOMAIN_TMC1>
	rdf:type bo:TMcReference ;
	isoC:label "DOMAIN"^^xsd:string ;
	bo:enabled "true"^^xsd:boolean ;
	bo:optional "false"^^xsd:boolean ;
	bo:ordinal "1"^^xsd:positiveInteger ;
	bo:reference <http://www.cdisc.org/C66734/V28#C66734> ;
	bo:context <http://www.cdisc.org/CT/V31#TH> ;
.
<http://www.cdisc.org/DS/V2#USUBJID>
	rdf:type bd:SdtmDomainVariable ;
	isoC:label "Unique Subject Identifier"^^xsd:string ;
	bd:rule ""^^xsd:string ;
	bd:ordinal "3"^^xsd:positiveInteger ;
	bd:name "USUBJID"^^xsd:string ;
	bd:description "Identifier used to uniquely identify a subject across all studies for all applications or submissions involving the product."^^xsd:string ;
	bd:format ""^^xsd:string ;
	bd:ctAndFormat ""^^xsd:string ;
	bd:compliance <http://www.assero.co.uk/CSN#8f112ba7-caa3-4f34-a9fc-8bc808b13955> ;
	bd:basedOnClassVariable <http://www.cdisc.org/SDTM_MODEL_ALL/V1#CL_USUBJID> ;
.
<http://www.cdisc.org/DS/V2#DSSEQ>
	rdf:type bd:SdtmDomainVariable ;
	isoC:label "Sequence Number"^^xsd:string ;
	bd:rule ""^^xsd:string ;
	bd:ordinal "4"^^xsd:positiveInteger ;
	bd:name "DSSEQ"^^xsd:string ;
	bd:description "Sequence Number given to ensure uniqueness of subject records within a domain. May be any valid number."^^xsd:string ;
	bd:format ""^^xsd:string ;
	bd:ctAndFormat ""^^xsd:string ;
	bd:compliance <http://www.assero.co.uk/CSN#8f112ba7-caa3-4f34-a9fc-8bc808b13955> ;
	bd:basedOnClassVariable <http://www.cdisc.org/SDTM_MODEL_ALL/V2#CL_--SEQ> ;
.
<http://www.cdisc.org/DS/V2#DSGRPID>
	rdf:type bd:SdtmDomainVariable ;
	isoC:label "Group ID"^^xsd:string ;
	bd:rule ""^^xsd:string ;
	bd:ordinal "5"^^xsd:positiveInteger ;
	bd:name "DSGRPID"^^xsd:string ;
	bd:description "Used to tie together a block of related records in a single domain for a subject."^^xsd:string ;
	bd:format ""^^xsd:string ;
	bd:ctAndFormat ""^^xsd:string ;
	bd:compliance <http://www.assero.co.uk/CSN#da9f1092-7a20-4c97-9144-8bac2e72d1ea> ;
	bd:basedOnClassVariable <http://www.cdisc.org/SDTM_MODEL_ALL/V2#CL_--GRPID> ;
.
<http://www.cdisc.org/DS/V2#DSREFID>
	rdf:type bd:SdtmDomainVariable ;
	isoC:label "Reference ID"^^xsd:string ;
	bd:rule ""^^xsd:string ;
	bd:ordinal "6"^^xsd:positiveInteger ;
	bd:name "DSREFID"^^xsd:string ;
	bd:description "Internal or external identifier."^^xsd:string ;
	bd:format ""^^xsd:string ;
	bd:ctAndFormat ""^^xsd:string ;
	bd:compliance <http://www.assero.co.uk/CSN#da9f1092-7a20-4c97-9144-8bac2e72d1ea> ;
	bd:basedOnClassVariable <http://www.cdisc.org/SDTM_MODEL_ALL/V2#CL_--REFID> ;
.
<http://www.cdisc.org/DS/V2#DSSPID>
	rdf:type bd:SdtmDomainVariable ;
	isoC:label "Sponsor-Defined Identifier"^^xsd:string ;
	bd:rule ""^^xsd:string ;
	bd:ordinal "7"^^xsd:positiveInteger ;
	bd:name "DSSPID"^^xsd:string ;
	bd:description "Sponsor-defined reference number. Perhaps pre-printed on the CRF as an explicit line identifier or defined in the sponsor's operational database. Example: Line number on a Disposition page."^^xsd:string ;
	bd:format ""^^xsd:string ;
	bd:ctAndFormat ""^^xsd:string ;
	bd:compliance <http://www.assero.co.uk/CSN#da9f1092-7a20-4c97-9144-8bac2e72d1ea> ;
	bd:basedOnClassVariable <http://www.cdisc.org/SDTM_MODEL_ALL/V2#CL_--SPID> ;
.
<http://www.cdisc.org/DS/V2#DSTERM>
	rdf:type bd:SdtmDomainVariable ;
	isoC:label "Reported Term for the Disposition Event"^^xsd:string ;
	bd:rule ""^^xsd:string ;
	bd:ordinal "8"^^xsd:positiveInteger ;
	bd:name "DSTERM"^^xsd:string ;
	bd:description "Verbatim name of the event or protocol milestone. Some terms in DSTERM will match DSDECOD, but others, such as \"Subject moved\" will map to controlled terminology in DSDECOD, such as \"LOST TO FOLLOW-UP.\""^^xsd:string ;
	bd:format ""^^xsd:string ;
	bd:ctAndFormat ""^^xsd:string ;
	bd:compliance <http://www.assero.co.uk/CSN#8f112ba7-caa3-4f34-a9fc-8bc808b13955> ;
	bd:basedOnClassVariable <http://www.cdisc.org/SDTM_MODEL_EVENTS/V1#CL_--TERM> ;
	bd:isA <http://www.s-cubed.dk/CAR#2a4eb8036d87ab68656ba5b80bbf77123f088904> ;
.
<http://www.cdisc.org/DS/V2#DSDECOD>
	rdf:type bd:SdtmDomainVariable ;
	isoC:label "Standardized Disposition Term"^^xsd:string ;
	bd:rule ""^^xsd:string ;
	bd:ordinal "9"^^xsd:positiveInteger ;
	bd:name "DSDECOD"^^xsd:string ;
	bd:description "Controlled terminology for the name of disposition event or protocol milestone. Examples of protocol milestones: INFORMED CONSENT OBTAINED, RANDOMIZED"^^xsd:string ;
	bd:format ""^^xsd:string ;
	bd:ctAndFormat "(NCOMPLT)"^^xsd:string ;
	bd:compliance <http://www.assero.co.uk/CSN#8f112ba7-caa3-4f34-a9fc-8bc808b13955> ;
	bd:ctReference <http://www.cdisc.org/DS/V2#DSDECOD_TMC1> ;
	bd:basedOnClassVariable <http://www.cdisc.org/SDTM_MODEL_EVENTS/V2#CL_--DECOD> ;
.
<http://www.cdisc.org/DS/V2#DSDECOD_TMC1>
	rdf:type bo:TMcReference ;
	isoC:label "NCOMPLT"^^xsd:string ;
	bo:enabled "true"^^xsd:boolean ;
	bo:optional "false"^^xsd:boolean ;
	bo:ordinal "1"^^xsd:positiveInteger ;
	bo:reference <http://www.cdisc.org/C66727/V31#C66727> ;
	bo:context <http://www.cdisc.org/CT/V31#TH> ;
.
<http://www.cdisc.org/DS/V2#DSCAT>
	rdf:type bd:SdtmDomainVariable ;
	isoC:label "Category for Disposition Event"^^xsd:string ;
	bd:rule ""^^xsd:string ;
	bd:ordinal "10"^^xsd:positiveInteger ;
	bd:name "DSCAT"^^xsd:string ;
	bd:description "Used to define a category of related records. DSCAT is now an \"Expected\" variable. DSCAT was permissible in SDTMIG 3.1.1 and earlier versions. The change from \"permissible\" to \"expected\" is based on the requirement to distinguish protocol milestones and/or other events from disposition events. DSCAT may be null if there are only \"disposition events\"; however, it is recommended that DSCAT always be populated."^^xsd:string ;
	bd:format ""^^xsd:string ;
	bd:ctAndFormat "(DSCAT)"^^xsd:string ;
	bd:compliance <http://www.assero.co.uk/CSN#fc544083-2437-4ec0-97f4-767598bee682> ;
	bd:ctReference <http://www.cdisc.org/DS/V2#DSCAT_TMC1> ;
	bd:basedOnClassVariable <http://www.cdisc.org/SDTM_MODEL_EVENTS/V2#CL_--CAT> ;
	bd:isA <http://www.s-cubed.dk/CAR#a3c686e711e4720f99b4562bb3dbaae7ab658cf2> ;
.
<http://www.cdisc.org/DS/V2#DSCAT_TMC1>
	rdf:type bo:TMcReference ;
	isoC:label "DSCAT"^^xsd:string ;
	bo:enabled "true"^^xsd:boolean ;
	bo:optional "false"^^xsd:boolean ;
	bo:ordinal "1"^^xsd:positiveInteger ;
	bo:reference <http://www.cdisc.org/C74558/V8#C74558> ;
