@prefix : <http://www.cdisc.org/SDTM_IG/V3#> .
@prefix bd: <http://www.assero.co.uk/Tabulation#> .
@prefix isoC: <http://www.assero.co.uk/ISO11179Concepts#> .
@prefix isoT: <http://www.assero.co.uk/ISO11179Types#> .
@prefix isoR: <http://www.assero.co.uk/ISO11179Registration#> .
@prefix isoI: <http://www.assero.co.uk/ISO11179Identification#> .
@prefix bo: <http://www.assero.co.uk/BusinessOperational#> .
@prefix owl: <http://www.w3.org/2002/07/owl#> .
@prefix rdf: <http://www.w3.org/1999/02/22-rdf-syntax-ns#> .
@prefix rdfs: <http://www.w3.org/2000/01/rdf-schema#> .
@prefix xsd: <http://www.w3.org/2001/XMLSchema#> .
@prefix skos: <http://www.w3.org/2004/02/skos/core#> .

<http://www.cdisc.org/SDTM_IG/V3>
	rdf:type owl:Ontology ;
.
:IG
	rdf:type bd:SDTMImplementationGuide ;
	isoC:label "SDTM Implementation Guide"^^xsd:string ;
	isoT:hasState :IG_RS ;
	isoT:hasIdentifier :IG_SI ;
	isoT:hasPreviousVersion <http://www.cdisc.org/SDTM_IG/V2#IG> ;
	isoT:origin "Created from files: 'sdtm_ig_3-2.xlsx'"^^xsd:string ;
	isoT:changeDescription ""^^xsd:string ;
	isoT:creationDate "2013-11-26T00:00:00+00:00"^^xsd:dateTime ;
	isoT:lastChangeDate "2013-11-26T00:00:00+00:00"^^xsd:dateTime ;
	isoT:explanatoryComment ""^^xsd:string ;
	bo:hasManaged :IG_R1 ;
	bo:hasManaged :IG_R2 ;
	bo:hasManaged :IG_R3 ;
	bo:hasManaged :IG_R4 ;
	bo:hasManaged :IG_R5 ;
	bo:hasManaged :IG_R6 ;
	bo:hasManaged :IG_R7 ;
	bo:hasManaged :IG_R8 ;
	bo:hasManaged :IG_R9 ;
	bo:hasManaged :IG_R10 ;
	bo:hasManaged :IG_R11 ;
	bo:hasManaged :IG_R12 ;
	bo:hasManaged :IG_R13 ;
	bo:hasManaged :IG_R14 ;
	bo:hasManaged :IG_R15 ;
	bo:hasManaged :IG_R16 ;
	bo:hasManaged :IG_R17 ;
	bo:hasManaged :IG_R18 ;
	bo:hasManaged :IG_R19 ;
	bo:hasManaged :IG_R20 ;
	bo:hasManaged :IG_R21 ;
	bo:hasManaged :IG_R22 ;
	bo:hasManaged :IG_R23 ;
	bo:hasManaged :IG_R24 ;
	bo:hasManaged :IG_R25 ;
	bo:hasManaged :IG_R26 ;
	bo:hasManaged :IG_R27 ;
	bo:hasManaged :IG_R28 ;
	bo:hasManaged :IG_R29 ;
	bo:hasManaged :IG_R30 ;
	bo:hasManaged :IG_R31 ;
	bo:hasManaged :IG_R32 ;
	bo:hasManaged :IG_R33 ;
	bo:hasManaged :IG_R34 ;
	bo:hasManaged :IG_R35 ;
	bo:hasManaged :IG_R36 ;
	bo:hasManaged :IG_R37 ;
	bo:hasManaged :IG_R38 ;
	bo:hasManaged :IG_R39 ;
	bo:hasManaged :IG_R40 ;
	bo:hasManaged :IG_R41 ;
	bo:hasManaged :IG_R42 ;
	bo:hasManaged :IG_R43 ;
	bo:hasManaged :IG_R44 ;
	bo:hasManaged :IG_R45 ;
	bo:hasManaged :IG_R46 ;
	bo:hasManaged :IG_R47 ;
	bo:hasManaged :IG_R48 ;
.
:IG_RS
	rdf:type isoR:RegistrationState ;
	isoR:registrationStatus "Standard"^^xsd:string ;
	isoR:administrativeNote ""^^xsd:string ;
	isoR:effectiveDate "2016-01-01T00:00:00+00:00"^^xsd:dateTime ;
	isoR:untilDate "2016-01-01T00:00:00+00:00"^^xsd:dateTime ;
	isoR:unresolvedIssue ""^^xsd:string ;
	isoR:administrativeStatus ""^^xsd:string ;
	isoR:previousState "Standard"^^xsd:string ;
	isoR:multipleEdit "false"^^xsd:boolean ;
	isoR:byAuthority <http://www.assero.co.uk/RA#DUNS084433759> ;
.
:IG_SI
	rdf:type isoI:ScopedIdentifier ;
	isoI:identifier "SDTM IG"^^xsd:string ;
	isoI:versionLabel "2013-11-26 Release"^^xsd:string ;
	isoI:version "3"^^xsd:positiveInteger ;
	isoI:semanticVersion "3.2.0"^^xsd:string ;
	isoI:hasScope <http://www.assero.co.uk/NS#CDISC> ;
.
:IG_R1
	rdf:type bo:Reference ;
	isoC:label ""^^xsd:string ;
	bo:enabled "true"^^xsd:boolean ;
	bo:optional "false"^^xsd:boolean ;
	bo:ordinal "1"^^xsd:positiveInteger ;
	bo:reference <http://www.cdisc.org/SDTM_IG_AE/V3#IGD> ;
.
:IG_R2
	rdf:type bo:Reference ;
	isoC:label ""^^xsd:string ;
	bo:enabled "true"^^xsd:boolean ;
	bo:optional "false"^^xsd:boolean ;
	bo:ordinal "2"^^xsd:positiveInteger ;
	bo:reference <http://www.cdisc.org/SDTM_IG_CE/V3#IGD> ;
.
:IG_R3
	rdf:type bo:Reference ;
	isoC:label ""^^xsd:string ;
	bo:enabled "true"^^xsd:boolean ;
	bo:optional "false"^^xsd:boolean ;
	bo:ordinal "3"^^xsd:positiveInteger ;
	bo:reference <http://www.cdisc.org/SDTM_IG_DS/V3#IGD> ;
.
:IG_R4
	rdf:type bo:Reference ;
	isoC:label ""^^xsd:string ;
	bo:enabled "true"^^xsd:boolean ;
	bo:optional "false"^^xsd:boolean ;
	bo:ordinal "4"^^xsd:positiveInteger ;
	bo:reference <http://www.cdisc.org/SDTM_IG_DV/V3#IGD> ;
.
:IG_R5
	rdf:type bo:Reference ;
	isoC:label ""^^xsd:string ;
	bo:enabled "true"^^xsd:boolean ;
	bo:optional "false"^^xsd:boolean ;
	bo:ordinal "5"^^xsd:positiveInteger ;
	bo:reference <http://www.cdisc.org/SDTM_IG_MH/V3#IGD> ;
.
:IG_R6
	rdf:type bo:Reference ;
	isoC:label ""^^xsd:string ;
	bo:enabled "true"^^xsd:boolean ;
	bo:optional "false"^^xsd:boolean ;
	bo:ordinal "6"^^xsd:positiveInteger ;
	bo:reference <http://www.cdisc.org/SDTM_IG_DA/V3#IGD> ;
.
:IG_R7
	rdf:type bo:Reference ;
	isoC:label ""^^xsd:string ;
	bo:enabled "true"^^xsd:boolean ;
	bo:optional "false"^^xsd:boolean ;
	bo:ordinal "7"^^xsd:positiveInteger ;
	bo:reference <http://www.cdisc.org/SDTM_IG_DD/V3#IGD> ;
.
:IG_R8
	rdf:type bo:Reference ;
	isoC:label ""^^xsd:string ;
	bo:enabled "true"^^xsd:boolean ;
	bo:optional "false"^^xsd:boolean ;
	bo:ordinal "8"^^xsd:positiveInteger ;
	bo:reference <http://www.cdisc.org/SDTM_IG_EG/V3#IGD> ;
.
:IG_R9
	rdf:type bo:Reference ;
	isoC:label ""^^xsd:string ;
	bo:enabled "true"^^xsd:boolean ;
	bo:optional "false"^^xsd:boolean ;
	bo:ordinal "9"^^xsd:positiveInteger ;
	bo:reference <http://www.cdisc.org/SDTM_IG_IE/V3#IGD> ;
.
:IG_R10
	rdf:type bo:Reference ;
	isoC:label ""^^xsd:string ;
	bo:enabled "true"^^xsd:boolean ;
	bo:optional "false"^^xsd:boolean ;
	bo:ordinal "10"^^xsd:positiveInteger ;
	bo:reference <http://www.cdisc.org/SDTM_IG_IS/V3#IGD> ;
.
:IG_R11
	rdf:type bo:Reference ;
	isoC:label ""^^xsd:string ;
	bo:enabled "true"^^xsd:boolean ;
	bo:optional "false"^^xsd:boolean ;
	bo:ordinal "11"^^xsd:positiveInteger ;
	bo:reference <http://www.cdisc.org/SDTM_IG_LB/V3#IGD> ;
.
:IG_R12
	rdf:type bo:Reference ;
	isoC:label ""^^xsd:string ;
	bo:enabled "true"^^xsd:boolean ;
	bo:optional "false"^^xsd:boolean ;
	bo:ordinal "12"^^xsd:positiveInteger ;
	bo:reference <http://www.cdisc.org/SDTM_IG_MB/V3#IGD> ;
.
:IG_R13
	rdf:type bo:Reference ;
	isoC:label ""^^xsd:string ;
	bo:enabled "true"^^xsd:boolean ;
	bo:optional "false"^^xsd:boolean ;
	bo:ordinal "13"^^xsd:positiveInteger ;
	bo:reference <http://www.cdisc.org/SDTM_IG_MI/V3#IGD> ;
.
:IG_R14
	rdf:type bo:Reference ;
	isoC:label ""^^xsd:string ;
	bo:enabled "true"^^xsd:boolean ;
	bo:optional "false"^^xsd:boolean ;
	bo:ordinal "14"^^xsd:positiveInteger ;
	bo:reference <http://www.cdisc.org/SDTM_IG_MO/V3#IGD> ;
.
:IG_R15
	rdf:type bo:Reference ;
	isoC:label ""^^xsd:string ;
	bo:enabled "true"^^xsd:boolean ;
	bo:optional "false"^^xsd:boolean ;
	bo:ordinal "15"^^xsd:positiveInteger ;
	bo:reference <http://www.cdisc.org/SDTM_IG_MS/V3#IGD> ;
.
:IG_R16
	rdf:type bo:Reference ;
	isoC:label ""^^xsd:string ;
	bo:enabled "true"^^xsd:boolean ;
	bo:optional "false"^^xsd:boolean ;
	bo:ordinal "16"^^xsd:positiveInteger ;
	bo:reference <http://www.cdisc.org/SDTM_IG_PC/V3#IGD> ;
.
:IG_R17
	rdf:type bo:Reference ;
	isoC:label ""^^xsd:string ;
	bo:enabled "true"^^xsd:boolean ;
	bo:optional "false"^^xsd:boolean ;
	bo:ordinal "17"^^xsd:positiveInteger ;
	bo:reference <http://www.cdisc.org/SDTM_IG_PE/V3#IGD> ;
.
:IG_R18
	rdf:type bo:Reference ;
	isoC:label ""^^xsd:string ;
	bo:enabled "true"^^xsd:boolean ;
	bo:optional "false"^^xsd:boolean ;
	bo:ordinal "18"^^xsd:positiveInteger ;
	bo:reference <http://www.cdisc.org/SDTM_IG_PP/V3#IGD> ;
.
:IG_R19
	rdf:type bo:Reference ;
	isoC:label ""^^xsd:string ;
	bo:enabled "true"^^xsd:boolean ;
	bo:optional "false"^^xsd:boolean ;
	bo:ordinal "19"^^xsd:positiveInteger ;
	bo:reference <http://www.cdisc.org/SDTM_IG_QS/V3#IGD> ;
.
:IG_R20
	rdf:type bo:Reference ;
	isoC:label ""^^xsd:string ;
	bo:enabled "true"^^xsd:boolean ;
	bo:optional "false"^^xsd:boolean ;
	bo:ordinal "20"^^xsd:positiveInteger ;
	bo:reference <http://www.cdisc.org/SDTM_IG_RP/V3#IGD> ;
.
:IG_R21
	rdf:type bo:Reference ;
	isoC:label ""^^xsd:string ;
	bo:enabled "true"^^xsd:boolean ;
	bo:optional "false"^^xsd:boolean ;
	bo:ordinal "21"^^xsd:positiveInteger ;
	bo:reference <http://www.cdisc.org/SDTM_IG_RS/V3#IGD> ;
.
:IG_R22
	rdf:type bo:Reference ;
	isoC:label ""^^xsd:string ;
	bo:enabled "true"^^xsd:boolean ;
	bo:optional "false"^^xsd:boolean ;
	bo:ordinal "22"^^xsd:positiveInteger ;
	bo:reference <http://www.cdisc.org/SDTM_IG_SC/V3#IGD> ;
.
:IG_R23
	rdf:type bo:Reference ;
	isoC:label ""^^xsd:string ;
	bo:enabled "true"^^xsd:boolean ;
	bo:optional "false"^^xsd:boolean ;
	bo:ordinal "23"^^xsd:positiveInteger ;
	bo:reference <http://www.cdisc.org/SDTM_IG_SS/V3#IGD> ;
.
:IG_R24
	rdf:type bo:Reference ;
	isoC:label ""^^xsd:string ;
	bo:enabled "true"^^xsd:boolean ;
	bo:optional "false"^^xsd:boolean ;
	bo:ordinal "24"^^xsd:positiveInteger ;
	bo:reference <http://www.cdisc.org/SDTM_IG_TR/V3#IGD> ;
.
:IG_R25
	rdf:type bo:Reference ;
	isoC:label ""^^xsd:string ;
	bo:enabled "true"^^xsd:boolean ;
	bo:optional "false"^^xsd:boolean ;
	bo:ordinal "25"^^xsd:positiveInteger ;
	bo:reference <http://www.cdisc.org/SDTM_IG_TU/V3#IGD> ;
.
:IG_R26
	rdf:type bo:Reference ;
	isoC:label ""^^xsd:string ;
	bo:enabled "true"^^xsd:boolean ;
	bo:optional "false"^^xsd:boolean ;
	bo:ordinal "26"^^xsd:positiveInteger ;
	bo:reference <http://www.cdisc.org/SDTM_IG_VS/V3#IGD> ;
.
:IG_R27
	rdf:type bo:Reference ;
	isoC:label ""^^xsd:string ;
	bo:enabled "true"^^xsd:boolean ;
	bo:optional "false"^^xsd:boolean ;
	bo:ordinal "27"^^xsd:positiveInteger ;
	bo:reference <http://www.cdisc.org/SDTM_IG_FA/V3#IGD> ;
.
:IG_R28
	rdf:type bo:Reference ;
	isoC:label ""^^xsd:string ;
	bo:enabled "true"^^xsd:boolean ;
	bo:optional "false"^^xsd:boolean ;
	bo:ordinal "28"^^xsd:positiveInteger ;
	bo:reference <http://www.cdisc.org/SDTM_IG_SR/V3#IGD> ;
.
:IG_R29
	rdf:type bo:Reference ;
	isoC:label ""^^xsd:string ;
	bo:enabled "true"^^xsd:boolean ;
	bo:optional "false"^^xsd:boolean ;
	bo:ordinal "29"^^xsd:positiveInteger ;
	bo:reference <http://www.cdisc.org/SDTM_IG_CM/V3#IGD> ;
.
:IG_R30
	rdf:type bo:Reference ;
	isoC:label ""^^xsd:string ;
	bo:enabled "true"^^xsd:boolean ;
	bo:optional "false"^^xsd:boolean ;
	bo:ordinal "30"^^xsd:positiveInteger ;
	bo:reference <http://www.cdisc.org/SDTM_IG_EC/V3#IGD> ;
.
:IG_R31
	rdf:type bo:Reference ;
	isoC:label ""^^xsd:string ;
	bo:enabled "true"^^xsd:boolean ;
	bo:optional "false"^^xsd:boolean ;
	bo:ordinal "31"^^xsd:positiveInteger ;
	bo:reference <http://www.cdisc.org/SDTM_IG_EX/V3#IGD> ;
.
:IG_R32
	rdf:type bo:Reference ;
	isoC:label ""^^xsd:string ;
	bo:enabled "true"^^xsd:boolean ;
	bo:optional "false"^^xsd:boolean ;
	bo:ordinal "32"^^xsd:positiveInteger ;
	bo:reference <http://www.cdisc.org/SDTM_IG_HO/V3#IGD> ;
.
:IG_R33
	rdf:type bo:Reference ;
	isoC:label ""^^xsd:string ;
	bo:enabled "true"^^xsd:boolean ;
	bo:optional "false"^^xsd:boolean ;
	bo:ordinal "33"^^xsd:positiveInteger ;
	bo:reference <http://www.cdisc.org/SDTM_IG_PR/V3#IGD> ;
.
:IG_R34
	rdf:type bo:Reference ;
	isoC:label ""^^xsd:string ;
	bo:enabled "true"^^xsd:boolean ;
	bo:optional "false"^^xsd:boolean ;
	bo:ordinal "34"^^xsd:positiveInteger ;
	bo:reference <http://www.cdisc.org/SDTM_IG_SU/V3#IGD> ;
.
:IG_R35
	rdf:type bo:Reference ;
	isoC:label ""^^xsd:string ;
	bo:enabled "true"^^xsd:boolean ;
	bo:optional "false"^^xsd:boolean ;
	bo:ordinal "35"^^xsd:positiveInteger ;
	bo:reference <http://www.cdisc.org/SDTM_IG_RELREC/V3#IGD> ;
.
:IG_R36
	rdf:type bo:Reference ;
	isoC:label ""^^xsd:string ;
	bo:enabled "true"^^xsd:boolean ;
	bo:optional "false"^^xsd:boolean ;
	bo:ordinal "36"^^xsd:positiveInteger ;
	bo:reference <http://www.cdisc.org/SDTM_IG_SUPPQUAL/V3#IGD> ;
.
:IG_R37
	rdf:type bo:Reference ;
	isoC:label ""^^xsd:string ;
	bo:enabled "true"^^xsd:boolean ;
	bo:optional "false"^^xsd:boolean ;
	bo:ordinal "37"^^xsd:positiveInteger ;
	bo:reference <http://www.cdisc.org/SDTM_IG_CO/V3#IGD> ;
.
:IG_R38
	rdf:type bo:Reference ;
	isoC:label ""^^xsd:string ;
	bo:enabled "true"^^xsd:boolean ;
	bo:optional "false"^^xsd:boolean ;
	bo:ordinal "38"^^xsd:positiveInteger ;
	bo:reference <http://www.cdisc.org/SDTM_IG_DM/V3#IGD> ;
.
:IG_R39
	rdf:type bo:Reference ;
	isoC:label ""^^xsd:string ;
	bo:enabled "true"^^xsd:boolean ;
	bo:optional "false"^^xsd:boolean ;
	bo:ordinal "39"^^xsd:positiveInteger ;
	bo:reference <http://www.cdisc.org/SDTM_IG_SE/V3#IGD> ;
.
:IG_R40
	rdf:type bo:Reference ;
	isoC:label ""^^xsd:string ;
	bo:enabled "true"^^xsd:boolean ;
	bo:optional "false"^^xsd:boolean ;
	bo:ordinal "40"^^xsd:positiveInteger ;
	bo:reference <http://www.cdisc.org/SDTM_IG_SV/V3#IGD> ;
.
:IG_R41
	rdf:type bo:Reference ;
	isoC:label ""^^xsd:string ;
	bo:enabled "true"^^xsd:boolean ;
	bo:optional "false"^^xsd:boolean ;
	bo:ordinal "41"^^xsd:positiveInteger ;
	bo:reference <http://www.cdisc.org/SDTM_IG_TA/V3#IGD> ;
.
:IG_R42
	rdf:type bo:Reference ;
	isoC:label ""^^xsd:string ;
	bo:enabled "true"^^xsd:boolean ;
	bo:optional "false"^^xsd:boolean ;
	bo:ordinal "42"^^xsd:positiveInteger ;
	bo:reference <http://www.cdisc.org/SDTM_IG_TD/V3#IGD> ;
.
:IG_R43
	rdf:type bo:Reference ;
	isoC:label ""^^xsd:string ;
	bo:enabled "true"^^xsd:boolean ;
	bo:optional "false"^^xsd:boolean ;
	bo:ordinal "43"^^xsd:positiveInteger ;
	bo:reference <http://www.cdisc.org/SDTM_IG_TE/V3#IGD> ;
.
:IG_R44
	rdf:type bo:Reference ;
	isoC:label ""^^xsd:string ;
	bo:enabled "true"^^xsd:boolean ;
	bo:optional "false"^^xsd:boolean ;
	bo:ordinal "44"^^xsd:positiveInteger ;
	bo:reference <http://www.cdisc.org/SDTM_IG_TI/V3#IGD> ;
.
:IG_R45
	rdf:type bo:Reference ;
	isoC:label ""^^xsd:string ;
	bo:enabled "true"^^xsd:boolean ;
	bo:optional "false"^^xsd:boolean ;
	bo:ordinal "45"^^xsd:positiveInteger ;
	bo:reference <http://www.cdisc.org/SDTM_IG_TS/V3#IGD> ;
.
:IG_R46
	rdf:type bo:Reference ;
	isoC:label ""^^xsd:string ;
	bo:enabled "true"^^xsd:boolean ;
	bo:optional "false"^^xsd:boolean ;
	bo:ordinal "46"^^xsd:positiveInteger ;
	bo:reference <http://www.cdisc.org/SDTM_IG_TV/V3#IGD> ;
.
:IG_R47
	rdf:type bo:Reference ;
	isoC:label ""^^xsd:string ;
	bo:enabled "true"^^xsd:boolean ;
	bo:optional "false"^^xsd:boolean ;
	bo:ordinal "47"^^xsd:positiveInteger ;
	bo:reference <http://www.cdisc.org/SDTM_IG_APDM/V3#IGD> ;
.
:IG_R48
	rdf:type bo:Reference ;
	isoC:label ""^^xsd:string ;
	bo:enabled "true"^^xsd:boolean ;
	bo:optional "false"^^xsd:boolean ;
	bo:ordinal "48"^^xsd:positiveInteger ;
	bo:reference <http://www.cdisc.org/SDTM_IG_RELSUB/V3#IGD> ;
.
<http://www.cdisc.org/SDTM_IG_AE/V3#IGD>
	rdf:type bd:SdtmDomain ;
	isoC:label "Adverse Events"^^xsd:string ;
	isoT:hasState <http://www.cdisc.org/SDTM_IG_AE/V3#IGD_RS> ;
	isoT:hasIdentifier <http://www.cdisc.org/SDTM_IG_AE/V3#IGD_SI> ;
	isoT:hasPreviousVersion <http://www.cdisc.org/SDTM_IG_AE/V2#IGD> ;
	isoT:origin ""^^xsd:string ;
	isoT:changeDescription ""^^xsd:string ;
	isoT:creationDate "2013-11-26T00:00:00+00:00"^^xsd:dateTime ;
	isoT:lastChangeDate "2013-11-26T00:00:00+00:00"^^xsd:dateTime ;
	isoT:explanatoryComment ""^^xsd:string ;
	bd:rule ""^^xsd:string ;
	bd:ordinal "1"^^xsd:positiveInteger ;
	bd:includesColumn <http://www.cdisc.org/SDTM_IG_AE/V1#IGD_STUDYID> ;
	bd:includesColumn <http://www.cdisc.org/SDTM_IG_AE/V2#IGD_DOMAIN> ;
	bd:includesColumn <http://www.cdisc.org/SDTM_IG_AE/V1#IGD_USUBJID> ;
	bd:includesColumn <http://www.cdisc.org/SDTM_IG_AE/V3#IGD_AESEQ> ;
	bd:includesColumn <http://www.cdisc.org/SDTM_IG_AE/V3#IGD_AEGRPID> ;
	bd:includesColumn <http://www.cdisc.org/SDTM_IG_AE/V3#IGD_AEREFID> ;
	bd:includesColumn <http://www.cdisc.org/SDTM_IG_AE/V3#IGD_AESPID> ;
	bd:includesColumn <http://www.cdisc.org/SDTM_IG_AE/V3#IGD_AETERM> ;
	bd:includesColumn <http://www.cdisc.org/SDTM_IG_AE/V3#IGD_AEMODIFY> ;
	bd:includesColumn <http://www.cdisc.org/SDTM_IG_AE/V3#IGD_AELLT> ;
	bd:includesColumn <http://www.cdisc.org/SDTM_IG_AE/V3#IGD_AELLTCD> ;
	bd:includesColumn <http://www.cdisc.org/SDTM_IG_AE/V3#IGD_AEDECOD> ;
	bd:includesColumn <http://www.cdisc.org/SDTM_IG_AE/V3#IGD_AEPTCD> ;
	bd:includesColumn <http://www.cdisc.org/SDTM_IG_AE/V3#IGD_AEHLT> ;
	bd:includesColumn <http://www.cdisc.org/SDTM_IG_AE/V3#IGD_AEHLTCD> ;
	bd:includesColumn <http://www.cdisc.org/SDTM_IG_AE/V3#IGD_AEHLGT> ;
	bd:includesColumn <http://www.cdisc.org/SDTM_IG_AE/V3#IGD_AEHLGTCD> ;
	bd:includesColumn <http://www.cdisc.org/SDTM_IG_AE/V3#IGD_AECAT> ;
	bd:includesColumn <http://www.cdisc.org/SDTM_IG_AE/V3#IGD_AESCAT> ;
	bd:includesColumn <http://www.cdisc.org/SDTM_IG_AE/V3#IGD_AEPRESP> ;
	bd:includesColumn <http://www.cdisc.org/SDTM_IG_AE/V3#IGD_AEBODSYS> ;
	bd:includesColumn <http://www.cdisc.org/SDTM_IG_AE/V3#IGD_AEBDSYCD> ;
	bd:includesColumn <http://www.cdisc.org/SDTM_IG_AE/V3#IGD_AESOC> ;
	bd:includesColumn <http://www.cdisc.org/SDTM_IG_AE/V3#IGD_AESOCCD> ;
	bd:includesColumn <http://www.cdisc.org/SDTM_IG_AE/V3#IGD_AELOC> ;
	bd:includesColumn <http://www.cdisc.org/SDTM_IG_AE/V3#IGD_AESEV> ;
	bd:includesColumn <http://www.cdisc.org/SDTM_IG_AE/V3#IGD_AESER> ;
	bd:includesColumn <http://www.cdisc.org/SDTM_IG_AE/V3#IGD_AEACN> ;
	bd:includesColumn <http://www.cdisc.org/SDTM_IG_AE/V3#IGD_AEACNOTH> ;
	bd:includesColumn <http://www.cdisc.org/SDTM_IG_AE/V3#IGD_AEREL> ;
	bd:includesColumn <http://www.cdisc.org/SDTM_IG_AE/V3#IGD_AERELNST> ;
	bd:includesColumn <http://www.cdisc.org/SDTM_IG_AE/V3#IGD_AEPATT> ;
	bd:includesColumn <http://www.cdisc.org/SDTM_IG_AE/V3#IGD_AEOUT> ;
	bd:includesColumn <http://www.cdisc.org/SDTM_IG_AE/V3#IGD_AESCAN> ;
	bd:includesColumn <http://www.cdisc.org/SDTM_IG_AE/V3#IGD_AESCONG> ;
	bd:includesColumn <http://www.cdisc.org/SDTM_IG_AE/V3#IGD_AESDISAB> ;
	bd:includesColumn <http://www.cdisc.org/SDTM_IG_AE/V3#IGD_AESDTH> ;
	bd:includesColumn <http://www.cdisc.org/SDTM_IG_AE/V3#IGD_AESHOSP> ;
	bd:includesColumn <http://www.cdisc.org/SDTM_IG_AE/V3#IGD_AESLIFE> ;
	bd:includesColumn <http://www.cdisc.org/SDTM_IG_AE/V3#IGD_AESOD> ;
	bd:includesColumn <http://www.cdisc.org/SDTM_IG_AE/V3#IGD_AESMIE> ;
	bd:includesColumn <http://www.cdisc.org/SDTM_IG_AE/V3#IGD_AECONTRT> ;
	bd:includesColumn <http://www.cdisc.org/SDTM_IG_AE/V3#IGD_AETOXGR> ;
	bd:includesColumn <http://www.cdisc.org/SDTM_IG_AE/V3#IGD_AESTDTC> ;
	bd:includesColumn <http://www.cdisc.org/SDTM_IG_AE/V3#IGD_AEENDTC> ;
	bd:includesColumn <http://www.cdisc.org/SDTM_IG_AE/V3#IGD_AESTDY> ;
	bd:includesColumn <http://www.cdisc.org/SDTM_IG_AE/V3#IGD_AEENDY> ;
	bd:includesColumn <http://www.cdisc.org/SDTM_IG_AE/V3#IGD_AEDUR> ;
	bd:includesColumn <http://www.cdisc.org/SDTM_IG_AE/V3#IGD_AEENRF> ;
	bd:includesColumn <http://www.cdisc.org/SDTM_IG_AE/V3#IGD_AEENRTPT> ;
	bd:includesColumn <http://www.cdisc.org/SDTM_IG_AE/V3#IGD_AEENTPT> ;
	bd:prefix "AE"^^xsd:string ;
	bd:structure "One record per adverse event per subject"^^xsd:string ;
	bd:basedOnClass <http://www.cdisc.org/SDTM_MODEL_EVENTS/V3#CL> ;
.
<http://www.cdisc.org/SDTM_IG_AE/V3#IGD_RS>
	rdf:type isoR:RegistrationState ;
	isoR:registrationStatus "Standard"^^xsd:string ;
	isoR:administrativeNote ""^^xsd:string ;
	isoR:effectiveDate "2016-01-01T00:00:00+00:00"^^xsd:dateTime ;
	isoR:untilDate "2016-01-01T00:00:00+00:00"^^xsd:dateTime ;
	isoR:unresolvedIssue ""^^xsd:string ;
	isoR:administrativeStatus ""^^xsd:string ;
	isoR:previousState "Standard"^^xsd:string ;
	isoR:multipleEdit "false"^^xsd:boolean ;
	isoR:byAuthority <http://www.assero.co.uk/RA#DUNS084433759> ;
.
<http://www.cdisc.org/SDTM_IG_AE/V3#IGD_SI>
	rdf:type isoI:ScopedIdentifier ;
	isoI:identifier "SDTM IG AE"^^xsd:string ;
	isoI:versionLabel "2013-11-26 Release"^^xsd:string ;
	isoI:version "3"^^xsd:positiveInteger ;
	isoI:semanticVersion "3.2.0"^^xsd:string ;
	isoI:hasScope <http://www.assero.co.uk/NS#CDISC> ;
.
<http://www.cdisc.org/SDTM_IG_AE/V3#IGD_AESEQ>
	rdf:type bd:SdtmDomainVariable ;
	isoC:label "Sequence Number"^^xsd:string ;
	bd:rule ""^^xsd:string ;
	bd:ordinal "4"^^xsd:positiveInteger ;
	bd:name "AESEQ"^^xsd:string ;
	bd:description "Sequence Number given to ensure uniqueness of subject records within a domain. May be any valid number."^^xsd:string ;
	bd:format ""^^xsd:string ;
	bd:ctAndFormat ""^^xsd:string ;
	bd:compliance <http://www.assero.co.uk/CSN#52070084-cdd3-4ba8-8377-f670e4b0276c> ;
	bd:basedOnClassVariable <http://www.cdisc.org/SDTM_MODEL_ALL/V3#CL_--SEQ> ;
.
<http://www.cdisc.org/SDTM_IG_AE/V3#IGD_AEGRPID>
	rdf:type bd:SdtmDomainVariable ;
	isoC:label "Group ID"^^xsd:string ;
	bd:rule ""^^xsd:string ;
	bd:ordinal "5"^^xsd:positiveInteger ;
	bd:name "AEGRPID"^^xsd:string ;
	bd:description "Used to tie together a block of related records in a single domain for a subject."^^xsd:string ;
	bd:format ""^^xsd:string ;
	bd:ctAndFormat ""^^xsd:string ;
	bd:compliance <http://www.assero.co.uk/CSN#f7d9d4e1-a00a-487e-89db-ebece910ba0d> ;
	bd:basedOnClassVariable <http://www.cdisc.org/SDTM_MODEL_ALL/V3#CL_--GRPID> ;
.
<http://www.cdisc.org/SDTM_IG_AE/V3#IGD_AEREFID>
	rdf:type bd:SdtmDomainVariable ;
	isoC:label "Reference ID"^^xsd:string ;
	bd:rule ""^^xsd:string ;
	bd:ordinal "6"^^xsd:positiveInteger ;
	bd:name "AEREFID"^^xsd:string ;
	bd:description "Internal or external identifier such as a serial number on an SAE reporting form."^^xsd:string ;
	bd:format ""^^xsd:string ;
	bd:ctAndFormat ""^^xsd:string ;
	bd:compliance <http://www.assero.co.uk/CSN#f7d9d4e1-a00a-487e-89db-ebece910ba0d> ;
	bd:basedOnClassVariable <http://www.cdisc.org/SDTM_MODEL_ALL/V3#CL_--REFID> ;
.
<http://www.cdisc.org/SDTM_IG_AE/V3#IGD_AESPID>
	rdf:type bd:SdtmDomainVariable ;
	isoC:label "Sponsor-Defined Identifier"^^xsd:string ;
	bd:rule ""^^xsd:string ;
	bd:ordinal "7"^^xsd:positiveInteger ;
	bd:name "AESPID"^^xsd:string ;
	bd:description "Sponsor-defined identifier. It may be pre-printed on the CRF as an explicit line identifier or defined in the sponsor's operational database. Example: Line number on an Adverse Events page."^^xsd:string ;
	bd:format ""^^xsd:string ;
	bd:ctAndFormat ""^^xsd:string ;
	bd:compliance <http://www.assero.co.uk/CSN#f7d9d4e1-a00a-487e-89db-ebece910ba0d> ;
	bd:basedOnClassVariable <http://www.cdisc.org/SDTM_MODEL_ALL/V3#CL_--SPID> ;
.
<http://www.cdisc.org/SDTM_IG_AE/V3#IGD_AETERM>
	rdf:type bd:SdtmDomainVariable ;
	isoC:label "Reported Term for the Adverse Event"^^xsd:string ;
	bd:rule ""^^xsd:string ;
	bd:ordinal "8"^^xsd:positiveInteger ;
	bd:name "AETERM"^^xsd:string ;
	bd:description "Verbatim name of the event."^^xsd:string ;
	bd:format ""^^xsd:string ;
	bd:ctAndFormat ""^^xsd:string ;
	bd:compliance <http://www.assero.co.uk/CSN#52070084-cdd3-4ba8-8377-f670e4b0276c> ;
	bd:basedOnClassVariable <http://www.cdisc.org/SDTM_MODEL_EVENTS/V3#CL_--TERM> ;
	bd:isA <http://www.s-cubed.dk/CAR#2a4eb8036d87ab68656ba5b80bbf77123f088904> ;
.
<http://www.cdisc.org/SDTM_IG_AE/V3#IGD_AEMODIFY>
	rdf:type bd:SdtmDomainVariable ;
	isoC:label "Modified Reported Term"^^xsd:string ;
	bd:rule ""^^xsd:string ;
	bd:ordinal "9"^^xsd:positiveInteger ;
	bd:name "AEMODIFY"^^xsd:string ;
	bd:description "If AETERM is modified to facilitate coding, then AEMODIFY will contain the modified text."^^xsd:string ;
	bd:format ""^^xsd:string ;
	bd:ctAndFormat ""^^xsd:string ;
	bd:compliance <http://www.assero.co.uk/CSN#f7d9d4e1-a00a-487e-89db-ebece910ba0d> ;
	bd:basedOnClassVariable <http://www.cdisc.org/SDTM_MODEL_EVENTS/V3#CL_--MODIFY> ;
.
<http://www.cdisc.org/SDTM_IG_AE/V3#IGD_AELLT>
	rdf:type bd:SdtmDomainVariable ;
	isoC:label "Lowest Level Term"^^xsd:string ;
	bd:rule ""^^xsd:string ;
	bd:ordinal "10"^^xsd:positiveInteger ;
	bd:name "AELLT"^^xsd:string ;
	bd:description "Dictionary-derived text description of the Lowest Level Term."^^xsd:string ;
	bd:format "MedDRA"^^xsd:string ;
	bd:ctAndFormat "MedDRA"^^xsd:string ;
	bd:compliance <http://www.assero.co.uk/CSN#046f6c24-9eaf-4f60-8390-f36328c82ec4> ;
	bd:basedOnClassVariable <http://www.cdisc.org/SDTM_MODEL_EVENTS/V3#CL_--LLT> ;
.
<http://www.cdisc.org/SDTM_IG_AE/V3#IGD_AELLTCD>
	rdf:type bd:SdtmDomainVariable ;
	isoC:label "Lowest Level Term Code"^^xsd:string ;
	bd:rule ""^^xsd:string ;
	bd:ordinal "11"^^xsd:positiveInteger ;
	bd:name "AELLTCD"^^xsd:string ;
	bd:description "Dictionary-derived code for the Lowest Level Term."^^xsd:string ;
	bd:format "MedDRA"^^xsd:string ;
	bd:ctAndFormat "MedDRA"^^xsd:string ;
	bd:compliance <http://www.assero.co.uk/CSN#046f6c24-9eaf-4f60-8390-f36328c82ec4> ;
	bd:basedOnClassVariable <http://www.cdisc.org/SDTM_MODEL_EVENTS/V3#CL_--LLTCD> ;
.
<http://www.cdisc.org/SDTM_IG_AE/V3#IGD_AEDECOD>
	rdf:type bd:SdtmDomainVariable ;
	isoC:label "Dictionary-Derived Term"^^xsd:string ;
	bd:rule ""^^xsd:string ;
	bd:ordinal "12"^^xsd:positiveInteger ;
	bd:name "AEDECOD"^^xsd:string ;
	bd:description "Dictionary-derived text description of AETERM or AEMODIFY. Equivalent to the Preferred Term (PT in MedDRA). The sponsor is expected to provide the dictionary name and version used to map the terms utilizing the define.xml external codelist attributes."^^xsd:string ;
	bd:format "MedDRA"^^xsd:string ;
	bd:ctAndFormat "MedDRA"^^xsd:string ;
	bd:compliance <http://www.assero.co.uk/CSN#52070084-cdd3-4ba8-8377-f670e4b0276c> ;
	bd:basedOnClassVariable <http://www.cdisc.org/SDTM_MODEL_EVENTS/V3#CL_--DECOD> ;
.
<http://www.cdisc.org/SDTM_IG_AE/V3#IGD_AEPTCD>
	rdf:type bd:SdtmDomainVariable ;
	isoC:label "Preferred Term Code"^^xsd:string ;
	bd:rule ""^^xsd:string ;
	bd:ordinal "13"^^xsd:positiveInteger ;
	bd:name "AEPTCD"^^xsd:string ;
	bd:description "Dictionary-derived code for the Preferred Term."^^xsd:string ;
	bd:format "MedDRA"^^xsd:string ;
	bd:ctAndFormat "MedDRA"^^xsd:string ;
	bd:compliance <http://www.assero.co.uk/CSN#046f6c24-9eaf-4f60-8390-f36328c82ec4> ;
	bd:basedOnClassVariable <http://www.cdisc.org/SDTM_MODEL_EVENTS/V3#CL_--PTCD> ;
.
<http://www.cdisc.org/SDTM_IG_AE/V3#IGD_AEHLT>
	rdf:type bd:SdtmDomainVariable ;
	isoC:label "High Level Term"^^xsd:string ;
	bd:rule ""^^xsd:string ;
	bd:ordinal "14"^^xsd:positiveInteger ;
	bd:name "AEHLT"^^xsd:string ;
	bd:description "Dictionary-derived text description of the High Level Term for the primary System Organ Class."^^xsd:string ;
	bd:format "MedDRA"^^xsd:string ;
	bd:ctAndFormat "MedDRA"^^xsd:string ;
	bd:compliance <http://www.assero.co.uk/CSN#046f6c24-9eaf-4f60-8390-f36328c82ec4> ;
	bd:basedOnClassVariable <http://www.cdisc.org/SDTM_MODEL_EVENTS/V3#CL_--HLT> ;
.
<http://www.cdisc.org/SDTM_IG_AE/V3#IGD_AEHLTCD>
	rdf:type bd:SdtmDomainVariable ;
	isoC:label "High Level Term Code"^^xsd:string ;
	bd:rule ""^^xsd:string ;
	bd:ordinal "15"^^xsd:positiveInteger ;
	bd:name "AEHLTCD"^^xsd:string ;
	bd:description "Dictionary-derived code for the High Level Term for the primary System Organ Class."^^xsd:string ;
	bd:format "MedDRA"^^xsd:string ;
	bd:ctAndFormat "MedDRA"^^xsd:string ;
	bd:compliance <http://www.assero.co.uk/CSN#046f6c24-9eaf-4f60-8390-f36328c82ec4> ;
	bd:basedOnClassVariable <http://www.cdisc.org/SDTM_MODEL_EVENTS/V3#CL_--HLTCD> ;
.
<http://www.cdisc.org/SDTM_IG_AE/V3#IGD_AEHLGT>
	rdf:type bd:SdtmDomainVariable ;
	isoC:label "High Level Group Term"^^xsd:string ;
	bd:rule ""^^xsd:string ;
	bd:ordinal "16"^^xsd:positiveInteger ;
	bd:name "AEHLGT"^^xsd:string ;
	bd:description "Dictionary-derived text description of the High Level Group Term for the primary System Organ Class."^^xsd:string ;
	bd:format "MedDRA"^^xsd:string ;
	bd:ctAndFormat "MedDRA"^^xsd:string ;
	bd:compliance <http://www.assero.co.uk/CSN#046f6c24-9eaf-4f60-8390-f36328c82ec4> ;
	bd:basedOnClassVariable <http://www.cdisc.org/SDTM_MODEL_EVENTS/V3#CL_--HLGT> ;
.
<http://www.cdisc.org/SDTM_IG_AE/V3#IGD_AEHLGTCD>
	rdf:type bd:SdtmDomainVariable ;
	isoC:label "High Level Group Term Code"^^xsd:string ;
	bd:rule ""^^xsd:string ;
	bd:ordinal "17"^^xsd:positiveInteger ;
	bd:name "AEHLGTCD"^^xsd:string ;
	bd:description "Dictionary-derived code for the High Level Group Term for the primary System Organ Class."^^xsd:string ;
	bd:format "MedDRA"^^xsd:string ;
	bd:ctAndFormat "MedDRA"^^xsd:string ;
	bd:compliance <http://www.assero.co.uk/CSN#046f6c24-9eaf-4f60-8390-f36328c82ec4> ;
	bd:basedOnClassVariable <http://www.cdisc.org/SDTM_MODEL_EVENTS/V3#CL_--HLGTCD> ;
.
<http://www.cdisc.org/SDTM_IG_AE/V3#IGD_AECAT>
	rdf:type bd:SdtmDomainVariable ;
	isoC:label "Category for Adverse Event"^^xsd:string ;
	bd:rule ""^^xsd:string ;
	bd:ordinal "18"^^xsd:positiveInteger ;
	bd:name "AECAT"^^xsd:string ;
	bd:description "Used to define a category of related records. Example: BLEEDING, NEUROPSYCHIATRIC."^^xsd:string ;
	bd:format ""^^xsd:string ;
	bd:ctAndFormat ""^^xsd:string ;
	bd:compliance <http://www.assero.co.uk/CSN#f7d9d4e1-a00a-487e-89db-ebece910ba0d> ;
	bd:basedOnClassVariable <http://www.cdisc.org/SDTM_MODEL_EVENTS/V3#CL_--CAT> ;
	bd:isA <http://www.s-cubed.dk/CAR#a3c686e711e4720f99b4562bb3dbaae7ab658cf2> ;
.
<http://www.cdisc.org/SDTM_IG_AE/V3#IGD_AESCAT>
	rdf:type bd:SdtmDomainVariable ;
	isoC:label "Subcategory for Adverse Event"^^xsd:string ;
	bd:rule ""^^xsd:string ;
	bd:ordinal "19"^^xsd:positiveInteger ;
	bd:name "AESCAT"^^xsd:string ;
	bd:description "A further categorization of adverse event. Example: NEUROLOGIC."^^xsd:string ;
	bd:format ""^^xsd:string ;
	bd:ctAndFormat ""^^xsd:string ;
	bd:compliance <http://www.assero.co.uk/CSN#f7d9d4e1-a00a-487e-89db-ebece910ba0d> ;
	bd:basedOnClassVariable <http://www.cdisc.org/SDTM_MODEL_EVENTS/V3#CL_--SCAT> ;
	bd:isA <http://www.s-cubed.dk/CAR#479a67983e739413da55faf0dc509f83fd5dea64> ;
.
<http://www.cdisc.org/SDTM_IG_AE/V3#IGD_AEPRESP>
	rdf:type bd:SdtmDomainVariable ;
	isoC:label "Pre-Specified Adverse Event"^^xsd:string ;
	bd:rule ""^^xsd:string ;
	bd:ordinal "20"^^xsd:positiveInteger ;
	bd:name "AEPRESP"^^xsd:string ;
	bd:description "A value of \"Y\" indicates that this adverse event was pre-specified on the CRF. Values are null for spontaneously reported events (i.e., those collected as free-text verbatim terms)"^^xsd:string ;
	bd:format ""^^xsd:string ;
	bd:ctAndFormat "(NY)"^^xsd:string ;
	bd:compliance <http://www.assero.co.uk/CSN#f7d9d4e1-a00a-487e-89db-ebece910ba0d> ;
	bd:ctReference <http://www.cdisc.org/SDTM_IG_AE/V3#IGD_AEPRESP_TMC1> ;
	bd:basedOnClassVariable <http://www.cdisc.org/SDTM_MODEL_EVENTS/V3#CL_--PRESP> ;
.
<http://www.cdisc.org/SDTM_IG_AE/V3#IGD_AEPRESP_TMC1>
	rdf:type bo:TMcReference ;
	isoC:label "NY"^^xsd:string ;
	bo:enabled "true"^^xsd:boolean ;
	bo:optional "false"^^xsd:boolean ;
	bo:ordinal "1"^^xsd:positiveInteger ;
	bo:reference <http://www.cdisc.org/C66742/V36#C66742> ;
	bo:context <http://www.cdisc.org/CT/V36#TH> ;
.
<http://www.cdisc.org/SDTM_IG_AE/V3#IGD_AEBODSYS>
	rdf:type bd:SdtmDomainVariable ;
	isoC:label "Body System or Organ Class"^^xsd:string ;
	bd:rule ""^^xsd:string ;
	bd:ordinal "21"^^xsd:positiveInteger ;
	bd:name "AEBODSYS"^^xsd:string ;
	bd:description "Dictionary derived. Body system or organ class used by the sponsor from the coding dictionary (e.g., MedDRA). When using a multi-axial dictionary such as MedDRA, this should contain the SOC used for the sponsor's analyses and summary tables which may not necessarily be the primary SOC."^^xsd:string ;
	bd:format ""^^xsd:string ;
	bd:ctAndFormat ""^^xsd:string ;
	bd:compliance <http://www.assero.co.uk/CSN#046f6c24-9eaf-4f60-8390-f36328c82ec4> ;
	bd:basedOnClassVariable <http://www.cdisc.org/SDTM_MODEL_EVENTS/V3#CL_--BODSYS> ;
.
<http://www.cdisc.org/SDTM_IG_AE/V3#IGD_AEBDSYCD>
	rdf:type bd:SdtmDomainVariable ;
	isoC:label "Body System or Organ Class Code"^^xsd:string ;
	bd:rule ""^^xsd:string ;
	bd:ordinal "22"^^xsd:positiveInteger ;
	bd:name "AEBDSYCD"^^xsd:string ;
	bd:description "Dictionary derived. Code for the body system or organ class used by the sponsor. When using a multi-axial dictionary such as MedDRA, this should contain the SOC used for the sponsor's analyses and summary tables, which may not necessarily be the primary SOC."^^xsd:string ;
	bd:format "MedDRA"^^xsd:string ;
	bd:ctAndFormat "MedDRA"^^xsd:string ;
	bd:compliance <http://www.assero.co.uk/CSN#046f6c24-9eaf-4f60-8390-f36328c82ec4> ;
	bd:basedOnClassVariable <http://www.cdisc.org/SDTM_MODEL_EVENTS/V3#CL_--BDSYCD> ;
.
<http://www.cdisc.org/SDTM_IG_AE/V3#IGD_AESOC>
	rdf:type bd:SdtmDomainVariable ;
	isoC:label "Primary System Organ Class"^^xsd:string ;
	bd:rule ""^^xsd:string ;
	bd:ordinal "23"^^xsd:positiveInteger ;
	bd:name "AESOC"^^xsd:string ;
	bd:description "Dictionary-derived text description of the primary System Organ Class. Will be the same as AEBODSYS if the primary SOC was used for analysis."^^xsd:string ;
	bd:format "MedDRA"^^xsd:string ;
	bd:ctAndFormat "MedDRA"^^xsd:string ;
	bd:compliance <http://www.assero.co.uk/CSN#046f6c24-9eaf-4f60-8390-f36328c82ec4> ;
	bd:basedOnClassVariable <http://www.cdisc.org/SDTM_MODEL_EVENTS/V3#CL_--SOC> ;
.
<http://www.cdisc.org/SDTM_IG_AE/V3#IGD_AESOCCD>
	rdf:type bd:SdtmDomainVariable ;
	isoC:label "Primary System Organ Class Code"^^xsd:string ;
	bd:rule ""^^xsd:string ;
	bd:ordinal "24"^^xsd:positiveInteger ;
	bd:name "AESOCCD"^^xsd:string ;
	bd:description "Dictionary-derived code for the primary System Organ Class. Will be the same as AEBDSYCD if the primary SOC was used for analysis."^^xsd:string ;
	bd:format "MedDRA"^^xsd:string ;
	bd:ctAndFormat "MedDRA"^^xsd:string ;
	bd:compliance <http://www.assero.co.uk/CSN#046f6c24-9eaf-4f60-8390-f36328c82ec4> ;
	bd:basedOnClassVariable <http://www.cdisc.org/SDTM_MODEL_EVENTS/V3#CL_--SOCCD> ;
.
<http://www.cdisc.org/SDTM_IG_AE/V3#IGD_AELOC>
	rdf:type bd:SdtmDomainVariable ;
	isoC:label "Location of Event"^^xsd:string ;
	bd:rule ""^^xsd:string ;
	bd:ordinal "25"^^xsd:positiveInteger ;
	bd:name "AELOC"^^xsd:string ;
	bd:description "Describes anatomical location relevant for the event (e.g., ARM for skin rash)."^^xsd:string ;
	bd:format ""^^xsd:string ;
	bd:ctAndFormat "(LOC)"^^xsd:string ;
	bd:compliance <http://www.assero.co.uk/CSN#f7d9d4e1-a00a-487e-89db-ebece910ba0d> ;
	bd:ctReference <http://www.cdisc.org/SDTM_IG_AE/V3#IGD_AELOC_TMC1> ;
	bd:basedOnClassVariable <http://www.cdisc.org/SDTM_MODEL_EVENTS/V3#CL_--LOC> ;
	bd:isA <http://www.s-cubed.dk/CAR#d219c68101f532de10add2cf42fb9dbeca73d3be> ;
.
<http://www.cdisc.org/SDTM_IG_AE/V3#IGD_AELOC_TMC1>
	rdf:type bo:TMcReference ;
	isoC:label "LOC"^^xsd:string ;
	bo:enabled "true"^^xsd:boolean ;
	bo:optional "false"^^xsd:boolean ;
	bo:ordinal "1"^^xsd:positiveInteger ;
	bo:reference <http://www.cdisc.org/C74456/V36#C74456> ;
	bo:context <http://www.cdisc.org/CT/V36#TH> ;
.
<http://www.cdisc.org/SDTM_IG_AE/V3#IGD_AESEV>
	rdf:type bd:SdtmDomainVariable ;
	isoC:label "Severity/Intensity"^^xsd:string ;
	bd:rule ""^^xsd:string ;
	bd:ordinal "26"^^xsd:positiveInteger ;
	bd:name "AESEV"^^xsd:string ;
	bd:description "The severity or intensity of the event. Examples: MILD, MODERATE, SEVERE."^^xsd:string ;
	bd:format ""^^xsd:string ;
	bd:ctAndFormat "(AESEV)"^^xsd:string ;
	bd:compliance <http://www.assero.co.uk/CSN#f7d9d4e1-a00a-487e-89db-ebece910ba0d> ;
	bd:ctReference <http://www.cdisc.org/SDTM_IG_AE/V3#IGD_AESEV_TMC1> ;
	bd:basedOnClassVariable <http://www.cdisc.org/SDTM_MODEL_EVENTS/V3#CL_--SEV> ;
	bd:isA <http://www.s-cubed.dk/CAR#de314fa0c9d9e359b633f2fdab4659c886fe5986> ;
.
<http://www.cdisc.org/SDTM_IG_AE/V3#IGD_AESEV_TMC1>
	rdf:type bo:TMcReference ;
	isoC:label "AESEV"^^xsd:string ;
	bo:enabled "true"^^xsd:boolean ;
	bo:optional "false"^^xsd:boolean ;
	bo:ordinal "1"^^xsd:positiveInteger ;
	bo:reference <http://www.cdisc.org/C66769/V17#C66769> ;
	bo:context <http://www.cdisc.org/CT/V36#TH> ;
.
<http://www.cdisc.org/SDTM_IG_AE/V3#IGD_AESER>
	rdf:type bd:SdtmDomainVariable ;
	isoC:label "Serious Event"^^xsd:string ;
	bd:rule ""^^xsd:string ;
	bd:ordinal "27"^^xsd:positiveInteger ;
	bd:name "AESER"^^xsd:string ;
	bd:description "Is this a serious event?"^^xsd:string ;
	bd:format ""^^xsd:string ;
	bd:ctAndFormat "(NY)"^^xsd:string ;
	bd:compliance <http://www.assero.co.uk/CSN#046f6c24-9eaf-4f60-8390-f36328c82ec4> ;
	bd:ctReference <http://www.cdisc.org/SDTM_IG_AE/V3#IGD_AESER_TMC1> ;
	bd:basedOnClassVariable <http://www.cdisc.org/SDTM_MODEL_EVENTS/V3#CL_--SER> ;
	bd:isA <http://www.s-cubed.dk/CAR#bc7845e67c63c354e69a957bab304d72da2f9fb7> ;
.
<http://www.cdisc.org/SDTM_IG_AE/V3#IGD_AESER_TMC1>
	rdf:type bo:TMcReference ;
	isoC:label "NY"^^xsd:string ;
	bo:enabled "true"^^xsd:boolean ;
	bo:optional "false"^^xsd:boolean ;
	bo:ordinal "1"^^xsd:positiveInteger ;
	bo:reference <http://www.cdisc.org/C66742/V36#C66742> ;
	bo:context <http://www.cdisc.org/CT/V36#TH> ;
.
<http://www.cdisc.org/SDTM_IG_AE/V3#IGD_AEACN>
	rdf:type bd:SdtmDomainVariable ;
	isoC:label "Action Taken with Study Treatment"^^xsd:string ;
	bd:rule ""^^xsd:string ;
	bd:ordinal "28"^^xsd:positiveInteger ;
	bd:name "AEACN"^^xsd:string ;
	bd:description "Describes changes to the study treatment as a result of the event. AEACN is specifically for the relationship to study treatment. AEACNOTH is for actions unrelated to dose adjustments of study treatment. Examples of AEACN values include ICH E2B values: DRUG WITHDRAWN, DOSE REDUCED, DOSE INCREASED, DOSE NOT CHANGED, UNKNOWN or NOT APPLICABLE."^^xsd:string ;
	bd:format ""^^xsd:string ;
	bd:ctAndFormat "(ACN)"^^xsd:string ;
	bd:compliance <http://www.assero.co.uk/CSN#046f6c24-9eaf-4f60-8390-f36328c82ec4> ;
	bd:ctReference <http://www.cdisc.org/SDTM_IG_AE/V3#IGD_AEACN_TMC1> ;
	bd:basedOnClassVariable <http://www.cdisc.org/SDTM_MODEL_EVENTS/V3#CL_--ACN> ;
	bd:isA <http://www.s-cubed.dk/CAR#485290959383eee39c093e50e84fdc851ac37a32> ;
.
<http://www.cdisc.org/SDTM_IG_AE/V3#IGD_AEACN_TMC1>
	rdf:type bo:TMcReference ;
	isoC:label "ACN"^^xsd:string ;
	bo:enabled "true"^^xsd:boolean ;
	bo:optional "false"^^xsd:boolean ;
	bo:ordinal "1"^^xsd:positiveInteger ;
	bo:reference <http://www.cdisc.org/C66767/V35#C66767> ;
	bo:context <http://www.cdisc.org/CT/V36#TH> ;
.
<http://www.cdisc.org/SDTM_IG_AE/V3#IGD_AEACNOTH>
	rdf:type bd:SdtmDomainVariable ;
	isoC:label "Other Action Taken"^^xsd:string ;
	bd:rule ""^^xsd:string ;
	bd:ordinal "29"^^xsd:positiveInteger ;
	bd:name "AEACNOTH"^^xsd:string ;
	bd:description "Describes other actions taken as a result of the event that are unrelated to dose adjustments of study treatment. Usually reported as free text. Example: \"TREATMENT UNBLINDED. PRIMARY CARE PHYSICIAN NOTIFIED.\""^^xsd:string ;
	bd:format ""^^xsd:string ;
	bd:ctAndFormat ""^^xsd:string ;
	bd:compliance <http://www.assero.co.uk/CSN#f7d9d4e1-a00a-487e-89db-ebece910ba0d> ;
	bd:basedOnClassVariable <http://www.cdisc.org/SDTM_MODEL_EVENTS/V3#CL_--ACNOTH> ;
	bd:isA <http://www.s-cubed.dk/CAR#1baf5ac06f7430ac72727c2dfb3f152e07d9d5da> ;
.
<http://www.cdisc.org/SDTM_IG_AE/V3#IGD_AEREL>
	rdf:type bd:SdtmDomainVariable ;
	isoC:label "Causality"^^xsd:string ;
	bd:rule ""^^xsd:string ;
	bd:ordinal "30"^^xsd:positiveInteger ;
	bd:name "AEREL"^^xsd:string ;
	bd:description "Records the investigator's opinion as to the causality of the event to the treatment. ICH E2A and E2B examples include NOT RELATED, UNLIKELY RELATED, POSSIBLY RELATED, RELATED. Controlled Terminology may be defined in the future. Check with regulatory authority for population of this variable."^^xsd:string ;
	bd:format ""^^xsd:string ;
	bd:ctAndFormat ""^^xsd:string ;
	bd:compliance <http://www.assero.co.uk/CSN#046f6c24-9eaf-4f60-8390-f36328c82ec4> ;
	bd:basedOnClassVariable <http://www.cdisc.org/SDTM_MODEL_EVENTS/V3#CL_--REL> ;
.
<http://www.cdisc.org/SDTM_IG_AE/V3#IGD_AERELNST>
	rdf:type bd:SdtmDomainVariable ;
	isoC:label "Relationship to Non-Study Treatment"^^xsd:string ;
	bd:rule ""^^xsd:string ;
	bd:ordinal "31"^^xsd:positiveInteger ;
	bd:name "AERELNST"^^xsd:string ;
	bd:description "Records the investigator's opinion as to whether the event may have been due to a treatment other than study drug. May be reported as free text. Example: \"MORE LIKELY RELATED TO ASPIRIN USE.\"."^^xsd:string ;
	bd:format ""^^xsd:string ;
	bd:ctAndFormat ""^^xsd:string ;
	bd:compliance <http://www.assero.co.uk/CSN#f7d9d4e1-a00a-487e-89db-ebece910ba0d> ;
	bd:basedOnClassVariable <http://www.cdisc.org/SDTM_MODEL_EVENTS/V3#CL_--RELNST> ;
.
<http://www.cdisc.org/SDTM_IG_AE/V3#IGD_AEPATT>
	rdf:type bd:SdtmDomainVariable ;
	isoC:label "Pattern of Adverse Event"^^xsd:string ;
	bd:rule ""^^xsd:string ;
	bd:ordinal "32"^^xsd:positiveInteger ;
	bd:name "AEPATT"^^xsd:string ;
	bd:description "Used to indicate the pattern of the event over time. Examples: INTERMITTENT, CONTINUOUS, SINGLE EVENT."^^xsd:string ;
	bd:format ""^^xsd:string ;
	bd:ctAndFormat ""^^xsd:string ;
	bd:compliance <http://www.assero.co.uk/CSN#f7d9d4e1-a00a-487e-89db-ebece910ba0d> ;
	bd:basedOnClassVariable <http://www.cdisc.org/SDTM_MODEL_EVENTS/V3#CL_--PATT> ;
	bd:isA <http://www.s-cubed.dk/CAR#1fff6a31661b491fc40cc9c1ad7fe5e479cb7500> ;
.
<http://www.cdisc.org/SDTM_IG_AE/V3#IGD_AEOUT>
	rdf:type bd:SdtmDomainVariable ;
	isoC:label "Outcome of Adverse Event"^^xsd:string ;
	bd:rule ""^^xsd:string ;
	bd:ordinal "33"^^xsd:positiveInteger ;
	bd:name "AEOUT"^^xsd:string ;
	bd:description "Description of the outcome of an event."^^xsd:string ;
	bd:format ""^^xsd:string ;
	bd:ctAndFormat "(OUT)"^^xsd:string ;
	bd:compliance <http://www.assero.co.uk/CSN#f7d9d4e1-a00a-487e-89db-ebece910ba0d> ;
	bd:ctReference <http://www.cdisc.org/SDTM_IG_AE/V3#IGD_AEOUT_TMC1> ;
	bd:basedOnClassVariable <http://www.cdisc.org/SDTM_MODEL_EVENTS/V3#CL_--OUT> ;
	bd:isA <http://www.s-cubed.dk/CAR#73a0f131076b513c16bfe3f4cff9ab8b765c9f23> ;
.
<http://www.cdisc.org/SDTM_IG_AE/V3#IGD_AEOUT_TMC1>
	rdf:type bo:TMcReference ;
	isoC:label "OUT"^^xsd:string ;
	bo:enabled "true"^^xsd:boolean ;
	bo:optional "false"^^xsd:boolean ;
	bo:ordinal "1"^^xsd:positiveInteger ;
	bo:reference <http://www.cdisc.org/C66768/V28#C66768> ;
	bo:context <http://www.cdisc.org/CT/V36#TH> ;
.
<http://www.cdisc.org/SDTM_IG_AE/V3#IGD_AESCAN>
	rdf:type bd:SdtmDomainVariable ;
	isoC:label "Involves Cancer"^^xsd:string ;
	bd:rule ""^^xsd:string ;
	bd:ordinal "34"^^xsd:positiveInteger ;
	bd:name "AESCAN"^^xsd:string ;
	bd:description "Was the serious event associated with the development of cancer?"^^xsd:string ;
	bd:format ""^^xsd:string ;
	bd:ctAndFormat "(NY)"^^xsd:string ;
	bd:compliance <http://www.assero.co.uk/CSN#f7d9d4e1-a00a-487e-89db-ebece910ba0d> ;
	bd:ctReference <http://www.cdisc.org/SDTM_IG_AE/V3#IGD_AESCAN_TMC1> ;
	bd:basedOnClassVariable <http://www.cdisc.org/SDTM_MODEL_EVENTS/V3#CL_--SCAN> ;
.
<http://www.cdisc.org/SDTM_IG_AE/V3#IGD_AESCAN_TMC1>
	rdf:type bo:TMcReference ;
	isoC:label "NY"^^xsd:string ;
	bo:enabled "true"^^xsd:boolean ;
	bo:optional "false"^^xsd:boolean ;
	bo:ordinal "1"^^xsd:positiveInteger ;
	bo:reference <http://www.cdisc.org/C66742/V36#C66742> ;
	bo:context <http://www.cdisc.org/CT/V36#TH> ;
.
<http://www.cdisc.org/SDTM_IG_AE/V3#IGD_AESCONG>
	rdf:type bd:SdtmDomainVariable ;
	isoC:label "Congenital Anomaly or Birth Defect"^^xsd:string ;
	bd:rule ""^^xsd:string ;
	bd:ordinal "35"^^xsd:positiveInteger ;
	bd:name "AESCONG"^^xsd:string ;
	bd:description "Was the serious event associated with congenital anomaly or birth defect?"^^xsd:string ;
	bd:format ""^^xsd:string ;
	bd:ctAndFormat "(NY)"^^xsd:string ;
	bd:compliance <http://www.assero.co.uk/CSN#f7d9d4e1-a00a-487e-89db-ebece910ba0d> ;
	bd:ctReference <http://www.cdisc.org/SDTM_IG_AE/V3#IGD_AESCONG_TMC1> ;
	bd:basedOnClassVariable <http://www.cdisc.org/SDTM_MODEL_EVENTS/V3#CL_--SCONG> ;
.
<http://www.cdisc.org/SDTM_IG_AE/V3#IGD_AESCONG_TMC1>
	rdf:type bo:TMcReference ;
	isoC:label "NY"^^xsd:string ;
	bo:enabled "true"^^xsd:boolean ;
	bo:optional "false"^^xsd:boolean ;
	bo:ordinal "1"^^xsd:positiveInteger ;
	bo:reference <http://www.cdisc.org/C66742/V36#C66742> ;
	bo:context <http://www.cdisc.org/CT/V36#TH> ;
.
<http://www.cdisc.org/SDTM_IG_AE/V3#IGD_AESDISAB>
	rdf:type bd:SdtmDomainVariable ;
	isoC:label "Persist or Signif Disability/Incapacity"^^xsd:string ;
	bd:rule ""^^xsd:string ;
	bd:ordinal "36"^^xsd:positiveInteger ;
	bd:name "AESDISAB"^^xsd:string ;
	bd:description "Did the serious event result in persistent or significant disability/incapacity?"^^xsd:string ;
	bd:format ""^^xsd:string ;
	bd:ctAndFormat "(NY)"^^xsd:string ;
	bd:compliance <http://www.assero.co.uk/CSN#f7d9d4e1-a00a-487e-89db-ebece910ba0d> ;
	bd:ctReference <http://www.cdisc.org/SDTM_IG_AE/V3#IGD_AESDISAB_TMC1> ;
	bd:basedOnClassVariable <http://www.cdisc.org/SDTM_MODEL_EVENTS/V3#CL_--SDISAB> ;
.
<http://www.cdisc.org/SDTM_IG_AE/V3#IGD_AESDISAB_TMC1>
	rdf:type bo:TMcReference ;
	isoC:label "NY"^^xsd:string ;
	bo:enabled "true"^^xsd:boolean ;
	bo:optional "false"^^xsd:boolean ;
	bo:ordinal "1"^^xsd:positiveInteger ;
	bo:reference <http://www.cdisc.org/C66742/V36#C66742> ;
	bo:context <http://www.cdisc.org/CT/V36#TH> ;
.
<http://www.cdisc.org/SDTM_IG_AE/V3#IGD_AESDTH>
	rdf:type bd:SdtmDomainVariable ;
	isoC:label "Results in Death"^^xsd:string ;
	bd:rule ""^^xsd:string ;
	bd:ordinal "37"^^xsd:positiveInteger ;
	bd:name "AESDTH"^^xsd:string ;
	bd:description "Did the serious event result in death?"^^xsd:string ;
	bd:format ""^^xsd:string ;
	bd:ctAndFormat "(NY)"^^xsd:string ;
	bd:compliance <http://www.assero.co.uk/CSN#f7d9d4e1-a00a-487e-89db-ebece910ba0d> ;
	bd:ctReference <http://www.cdisc.org/SDTM_IG_AE/V3#IGD_AESDTH_TMC1> ;
	bd:basedOnClassVariable <http://www.cdisc.org/SDTM_MODEL_EVENTS/V3#CL_--SDTH> ;
.
<http://www.cdisc.org/SDTM_IG_AE/V3#IGD_AESDTH_TMC1>
	rdf:type bo:TMcReference ;
	isoC:label "NY"^^xsd:string ;
	bo:enabled "true"^^xsd:boolean ;
	bo:optional "false"^^xsd:boolean ;
	bo:ordinal "1"^^xsd:positiveInteger ;
	bo:reference <http://www.cdisc.org/C66742/V36#C66742> ;
	bo:context <http://www.cdisc.org/CT/V36#TH> ;
.
<http://www.cdisc.org/SDTM_IG_AE/V3#IGD_AESHOSP>
	rdf:type bd:SdtmDomainVariable ;
	isoC:label "Requires or Prolongs Hospitalization"^^xsd:string ;
	bd:rule ""^^xsd:string ;
	bd:ordinal "38"^^xsd:positiveInteger ;
	bd:name "AESHOSP"^^xsd:string ;
	bd:description "Did the serious event require or prolong hospitalization?"^^xsd:string ;
	bd:format ""^^xsd:string ;
	bd:ctAndFormat "(NY)"^^xsd:string ;
	bd:compliance <http://www.assero.co.uk/CSN#f7d9d4e1-a00a-487e-89db-ebece910ba0d> ;
	bd:ctReference <http://www.cdisc.org/SDTM_IG_AE/V3#IGD_AESHOSP_TMC1> ;
	bd:basedOnClassVariable <http://www.cdisc.org/SDTM_MODEL_EVENTS/V3#CL_--SHOSP> ;
	bd:isA <http://www.s-cubed.dk/CAR#3239c890f4b1b44ea81233e5766557a1008c0b6b> ;
.
<http://www.cdisc.org/SDTM_IG_AE/V3#IGD_AESHOSP_TMC1>
	rdf:type bo:TMcReference ;
	isoC:label "NY"^^xsd:string ;
	bo:enabled "true"^^xsd:boolean ;
	bo:optional "false"^^xsd:boolean ;
	bo:ordinal "1"^^xsd:positiveInteger ;
	bo:reference <http://www.cdisc.org/C66742/V36#C66742> ;
	bo:context <http://www.cdisc.org/CT/V36#TH> ;
.
<http://www.cdisc.org/SDTM_IG_AE/V3#IGD_AESLIFE>
	rdf:type bd:SdtmDomainVariable ;
	isoC:label "Is Life Threatening"^^xsd:string ;
	bd:rule ""^^xsd:string ;
	bd:ordinal "39"^^xsd:positiveInteger ;
	bd:name "AESLIFE"^^xsd:string ;
	bd:description "Was the serious event life threatening?"^^xsd:string ;
	bd:format ""^^xsd:string ;
	bd:ctAndFormat "(NY)"^^xsd:string ;
	bd:compliance <http://www.assero.co.uk/CSN#f7d9d4e1-a00a-487e-89db-ebece910ba0d> ;
	bd:ctReference <http://www.cdisc.org/SDTM_IG_AE/V3#IGD_AESLIFE_TMC1> ;
	bd:basedOnClassVariable <http://www.cdisc.org/SDTM_MODEL_EVENTS/V3#CL_--SLIFE> ;
.
<http://www.cdisc.org/SDTM_IG_AE/V3#IGD_AESLIFE_TMC1>
	rdf:type bo:TMcReference ;
	isoC:label "NY"^^xsd:string ;
	bo:enabled "true"^^xsd:boolean ;
	bo:optional "false"^^xsd:boolean ;
	bo:ordinal "1"^^xsd:positiveInteger ;
	bo:reference <http://www.cdisc.org/C66742/V36#C66742> ;
	bo:context <http://www.cdisc.org/CT/V36#TH> ;
.
<http://www.cdisc.org/SDTM_IG_AE/V3#IGD_AESOD>
	rdf:type bd:SdtmDomainVariable ;
	isoC:label "Occurred with Overdose"^^xsd:string ;
	bd:rule ""^^xsd:string ;
	bd:ordinal "40"^^xsd:positiveInteger ;
	bd:name "AESOD"^^xsd:string ;
	bd:description "Did the serious event occur with an overdose?"^^xsd:string ;
	bd:format ""^^xsd:string ;
	bd:ctAndFormat "(NY)"^^xsd:string ;
	bd:compliance <http://www.assero.co.uk/CSN#f7d9d4e1-a00a-487e-89db-ebece910ba0d> ;
	bd:ctReference <http://www.cdisc.org/SDTM_IG_AE/V3#IGD_AESOD_TMC1> ;
	bd:basedOnClassVariable <http://www.cdisc.org/SDTM_MODEL_EVENTS/V3#CL_--SOD> ;
.
<http://www.cdisc.org/SDTM_IG_AE/V3#IGD_AESOD_TMC1>
	rdf:type bo:TMcReference ;
	isoC:label "NY"^^xsd:string ;
	bo:enabled "true"^^xsd:boolean ;
	bo:optional "false"^^xsd:boolean ;
	bo:ordinal "1"^^xsd:positiveInteger ;
	bo:reference <http://www.cdisc.org/C66742/V36#C66742> ;
	bo:context <http://www.cdisc.org/CT/V36#TH> ;
.
<http://www.cdisc.org/SDTM_IG_AE/V3#IGD_AESMIE>
	rdf:type bd:SdtmDomainVariable ;
	isoC:label "Other Medically Important Serious Event"^^xsd:string ;
	bd:rule ""^^xsd:string ;
	bd:ordinal "41"^^xsd:positiveInteger ;
	bd:name "AESMIE"^^xsd:string ;
	bd:description "Do additional categories for seriousness apply?"^^xsd:string ;
	bd:format ""^^xsd:string ;
	bd:ctAndFormat "(NY)"^^xsd:string ;
	bd:compliance <http://www.assero.co.uk/CSN#f7d9d4e1-a00a-487e-89db-ebece910ba0d> ;
	bd:ctReference <http://www.cdisc.org/SDTM_IG_AE/V3#IGD_AESMIE_TMC1> ;
	bd:basedOnClassVariable <http://www.cdisc.org/SDTM_MODEL_EVENTS/V3#CL_--SMIE> ;
.
<http://www.cdisc.org/SDTM_IG_AE/V3#IGD_AESMIE_TMC1>
	rdf:type bo:TMcReference ;
	isoC:label "NY"^^xsd:string ;
	bo:enabled "true"^^xsd:boolean ;
	bo:optional "false"^^xsd:boolean ;
	bo:ordinal "1"^^xsd:positiveInteger ;
	bo:reference <http://www.cdisc.org/C66742/V36#C66742> ;
	bo:context <http://www.cdisc.org/CT/V36#TH> ;
.
<http://www.cdisc.org/SDTM_IG_AE/V3#IGD_AECONTRT>
	rdf:type bd:SdtmDomainVariable ;
	isoC:label "Concomitant or Additional Trtmnt Given"^^xsd:string ;
	bd:rule ""^^xsd:string ;
	bd:ordinal "42"^^xsd:positiveInteger ;
	bd:name "AECONTRT"^^xsd:string ;
	bd:description "Was another treatment given because of the occurrence of the event?"^^xsd:string ;
	bd:format ""^^xsd:string ;
	bd:ctAndFormat "(NY)"^^xsd:string ;
	bd:compliance <http://www.assero.co.uk/CSN#f7d9d4e1-a00a-487e-89db-ebece910ba0d> ;
	bd:ctReference <http://www.cdisc.org/SDTM_IG_AE/V3#IGD_AECONTRT_TMC1> ;
	bd:basedOnClassVariable <http://www.cdisc.org/SDTM_MODEL_EVENTS/V3#CL_--CONTRT> ;
.
<http://www.cdisc.org/SDTM_IG_AE/V3#IGD_AECONTRT_TMC1>
	rdf:type bo:TMcReference ;
	isoC:label "NY"^^xsd:string ;
	bo:enabled "true"^^xsd:boolean ;
	bo:optional "false"^^xsd:boolean ;
	bo:ordinal "1"^^xsd:positiveInteger ;
	bo:reference <http://www.cdisc.org/C66742/V36#C66742> ;
	bo:context <http://www.cdisc.org/CT/V36#TH> ;
.
<http://www.cdisc.org/SDTM_IG_AE/V3#IGD_AETOXGR>
	rdf:type bd:SdtmDomainVariable ;
	isoC:label "Standard Toxicity Grade"^^xsd:string ;
	bd:rule ""^^xsd:string ;
	bd:ordinal "43"^^xsd:positiveInteger ;
	bd:name "AETOXGR"^^xsd:string ;
	bd:description "Toxicity grade according to a standard toxicity scale such as Common Terminology Criteria for Adverse Events v3.0 (CTCAE). Sponsor should specify name of the scale and version used in the metadata (see Assumption 6d). If value is from a numeric scale, represent only the number (e.g., \"2\" and not \"Grade 2\")."^^xsd:string ;
	bd:format ""^^xsd:string ;
	bd:ctAndFormat ""^^xsd:string ;
	bd:compliance <http://www.assero.co.uk/CSN#f7d9d4e1-a00a-487e-89db-ebece910ba0d> ;
	bd:basedOnClassVariable <http://www.cdisc.org/SDTM_MODEL_EVENTS/V3#CL_--TOXGR> ;
.
<http://www.cdisc.org/SDTM_IG_AE/V3#IGD_AESTDTC>
	rdf:type bd:SdtmDomainVariable ;
	isoC:label "Start Date/Time of Adverse Event"^^xsd:string ;
	bd:rule ""^^xsd:string ;
	bd:ordinal "44"^^xsd:positiveInteger ;
	bd:name "AESTDTC"^^xsd:string ;
	bd:description ""^^xsd:string ;
	bd:format "ISO 8601"^^xsd:string ;
	bd:ctAndFormat "ISO 8601"^^xsd:string ;
	bd:compliance <http://www.assero.co.uk/CSN#046f6c24-9eaf-4f60-8390-f36328c82ec4> ;
	bd:basedOnClassVariable <http://www.cdisc.org/SDTM_MODEL_ALL/V3#CL_--STDTC> ;
	bd:isA <http://www.s-cubed.dk/CAR#83c87956785cde43c109e30fcbd95cca63a18d38> ;
.
<http://www.cdisc.org/SDTM_IG_AE/V3#IGD_AEENDTC>
	rdf:type bd:SdtmDomainVariable ;
	isoC:label "End Date/Time of Adverse Event"^^xsd:string ;
	bd:rule ""^^xsd:string ;
	bd:ordinal "45"^^xsd:positiveInteger ;
	bd:name "AEENDTC"^^xsd:string ;
	bd:description ""^^xsd:string ;
	bd:format "ISO 8601"^^xsd:string ;
	bd:ctAndFormat "ISO 8601"^^xsd:string ;
	bd:compliance <http://www.assero.co.uk/CSN#046f6c24-9eaf-4f60-8390-f36328c82ec4> ;
	bd:basedOnClassVariable <http://www.cdisc.org/SDTM_MODEL_ALL/V3#CL_--ENDTC> ;
	bd:isA <http://www.s-cubed.dk/CAR#71c54c70967ea84127e4bd588bd627ec0e581dfb> ;
.
<http://www.cdisc.org/SDTM_IG_AE/V3#IGD_AESTDY>
	rdf:type bd:SdtmDomainVariable ;
	isoC:label "Study Day of Start of Adverse Event"^^xsd:string ;
	bd:rule ""^^xsd:string ;
	bd:ordinal "46"^^xsd:positiveInteger ;
	bd:name "AESTDY"^^xsd:string ;
	bd:description "Study day of start of adverse event relative to the sponsor-defined RFSTDTC."^^xsd:string ;
	bd:format ""^^xsd:string ;
	bd:ctAndFormat ""^^xsd:string ;
	bd:compliance <http://www.assero.co.uk/CSN#f7d9d4e1-a00a-487e-89db-ebece910ba0d> ;
	bd:basedOnClassVariable <http://www.cdisc.org/SDTM_MODEL_ALL/V3#CL_--STDY> ;
.
<http://www.cdisc.org/SDTM_IG_AE/V3#IGD_AEENDY>
	rdf:type bd:SdtmDomainVariable ;
	isoC:label "Study Day of End of Adverse Event"^^xsd:string ;
	bd:rule ""^^xsd:string ;
	bd:ordinal "47"^^xsd:positiveInteger ;
	bd:name "AEENDY"^^xsd:string ;
	bd:description "Study day of end of event relative to the sponsor-defined RFSTDTC."^^xsd:string ;
	bd:format ""^^xsd:string ;
	bd:ctAndFormat ""^^xsd:string ;
	bd:compliance <http://www.assero.co.uk/CSN#f7d9d4e1-a00a-487e-89db-ebece910ba0d> ;
	bd:basedOnClassVariable <http://www.cdisc.org/SDTM_MODEL_ALL/V3#CL_--ENDY> ;
.
<http://www.cdisc.org/SDTM_IG_AE/V3#IGD_AEDUR>
	rdf:type bd:SdtmDomainVariable ;
	isoC:label "Duration of Adverse Event"^^xsd:string ;
	bd:rule ""^^xsd:string ;
	bd:ordinal "48"^^xsd:positiveInteger ;
	bd:name "AEDUR"^^xsd:string ;
	bd:description "Collected duration and unit of an adverse event. Used only if collected on the CRF and not derived from start and end date/times. Example: P1DT2H (for 1 day, 2 hours)."^^xsd:string ;
	bd:format "ISO 8601"^^xsd:string ;
	bd:ctAndFormat "ISO 8601"^^xsd:string ;
	bd:compliance <http://www.assero.co.uk/CSN#f7d9d4e1-a00a-487e-89db-ebece910ba0d> ;
	bd:basedOnClassVariable <http://www.cdisc.org/SDTM_MODEL_ALL/V3#CL_--DUR> ;
.
<http://www.cdisc.org/SDTM_IG_AE/V3#IGD_AEENRF>
	rdf:type bd:SdtmDomainVariable ;
	isoC:label "End Relative to Reference Period"^^xsd:string ;
	bd:rule ""^^xsd:string ;
	bd:ordinal "49"^^xsd:positiveInteger ;
	bd:name "AEENRF"^^xsd:string ;
	bd:description "Describes the end of the event relative to the sponsor-defined reference period. The sponsor-defined reference period is a continuous period of time defined by a discrete starting point (RFSTDTC) and a discrete ending point (RFENDTC) of the trial."^^xsd:string ;
	bd:format ""^^xsd:string ;
	bd:ctAndFormat "(STENRF)"^^xsd:string ;
	bd:compliance <http://www.assero.co.uk/CSN#f7d9d4e1-a00a-487e-89db-ebece910ba0d> ;
	bd:ctReference <http://www.cdisc.org/SDTM_IG_AE/V3#IGD_AEENRF_TMC1> ;
	bd:basedOnClassVariable <http://www.cdisc.org/SDTM_MODEL_ALL/V3#CL_--ENRF> ;
.
<http://www.cdisc.org/SDTM_IG_AE/V3#IGD_AEENRF_TMC1>
	rdf:type bo:TMcReference ;
	isoC:label "STENRF"^^xsd:string ;
	bo:enabled "true"^^xsd:boolean ;
	bo:optional "false"^^xsd:boolean ;
	bo:ordinal "1"^^xsd:positiveInteger ;
	bo:reference <http://www.cdisc.org/C66728/V27#C66728> ;
	bo:context <http://www.cdisc.org/CT/V36#TH> ;
.
<http://www.cdisc.org/SDTM_IG_AE/V3#IGD_AEENRTPT>
	rdf:type bd:SdtmDomainVariable ;
	isoC:label "End Relative to Reference Time Point"^^xsd:string ;
	bd:rule ""^^xsd:string ;
	bd:ordinal "50"^^xsd:positiveInteger ;
	bd:name "AEENRTPT"^^xsd:string ;
	bd:description "Identifies the end of the event as being before or after the reference time point defined by variable AEENTPT."^^xsd:string ;
	bd:format ""^^xsd:string ;
	bd:ctAndFormat "(STENRF)"^^xsd:string ;
	bd:compliance <http://www.assero.co.uk/CSN#f7d9d4e1-a00a-487e-89db-ebece910ba0d> ;
	bd:ctReference <http://www.cdisc.org/SDTM_IG_AE/V3#IGD_AEENRTPT_TMC1> ;
	bd:basedOnClassVariable <http://www.cdisc.org/SDTM_MODEL_ALL/V3#CL_--ENRTPT> ;
.
<http://www.cdisc.org/SDTM_IG_AE/V3#IGD_AEENRTPT_TMC1>
	rdf:type bo:TMcReference ;
	isoC:label "STENRF"^^xsd:string ;
	bo:enabled "true"^^xsd:boolean ;
	bo:optional "false"^^xsd:boolean ;
	bo:ordinal "1"^^xsd:positiveInteger ;
	bo:reference <http://www.cdisc.org/C66728/V27#C66728> ;
	bo:context <http://www.cdisc.org/CT/V36#TH> ;
.
<http://www.cdisc.org/SDTM_IG_AE/V3#IGD_AEENTPT>
	rdf:type bd:SdtmDomainVariable ;
	isoC:label "End Reference Time Point"^^xsd:string ;
	bd:rule ""^^xsd:string ;
	bd:ordinal "51"^^xsd:positiveInteger ;
	bd:name "AEENTPT"^^xsd:string ;
	bd:description "Description of date/time in ISO 8601 character format of the reference point referred to by AEENRTPT. Examples: \"2003-12-25\" or \"VISIT 2\"."^^xsd:string ;
	bd:format ""^^xsd:string ;
	bd:ctAndFormat ""^^xsd:string ;
	bd:compliance <http://www.assero.co.uk/CSN#f7d9d4e1-a00a-487e-89db-ebece910ba0d> ;
	bd:basedOnClassVariable <http://www.cdisc.org/SDTM_MODEL_ALL/V3#CL_--ENTPT> ;
.
<http://www.cdisc.org/SDTM_IG_CE/V3#IGD>
	rdf:type bd:SdtmDomain ;
	isoC:label "Clinical Events"^^xsd:string ;
	isoT:hasState <http://www.cdisc.org/SDTM_IG_CE/V3#IGD_RS> ;
	isoT:hasIdentifier <http://www.cdisc.org/SDTM_IG_CE/V3#IGD_SI> ;
	isoT:hasPreviousVersion <http://www.cdisc.org/SDTM_IG_CE/V2#IGD> ;
	isoT:origin ""^^xsd:string ;
	isoT:changeDescription ""^^xsd:string ;
	isoT:creationDate "2013-11-26T00:00:00+00:00"^^xsd:dateTime ;
	isoT:lastChangeDate "2013-11-26T00:00:00+00:00"^^xsd:dateTime ;
	isoT:explanatoryComment ""^^xsd:string ;
	bd:rule ""^^xsd:string ;
	bd:ordinal "1"^^xsd:positiveInteger ;
	bd:includesColumn <http://www.cdisc.org/SDTM_IG_CE/V1#IGD_STUDYID> ;
	bd:includesColumn <http://www.cdisc.org/SDTM_IG_CE/V2#IGD_DOMAIN> ;
	bd:includesColumn <http://www.cdisc.org/SDTM_IG_CE/V1#IGD_USUBJID> ;
	bd:includesColumn <http://www.cdisc.org/SDTM_IG_CE/V3#IGD_CESEQ> ;
	bd:includesColumn <http://www.cdisc.org/SDTM_IG_CE/V3#IGD_CEGRPID> ;
	bd:includesColumn <http://www.cdisc.org/SDTM_IG_CE/V3#IGD_CEREFID> ;
	bd:includesColumn <http://www.cdisc.org/SDTM_IG_CE/V3#IGD_CESPID> ;
	bd:includesColumn <http://www.cdisc.org/SDTM_IG_CE/V3#IGD_CETERM> ;
	bd:includesColumn <http://www.cdisc.org/SDTM_IG_CE/V3#IGD_CEDECOD> ;
	bd:includesColumn <http://www.cdisc.org/SDTM_IG_CE/V3#IGD_CECAT> ;
	bd:includesColumn <http://www.cdisc.org/SDTM_IG_CE/V3#IGD_CESCAT> ;
	bd:includesColumn <http://www.cdisc.org/SDTM_IG_CE/V3#IGD_CEPRESP> ;
	bd:includesColumn <http://www.cdisc.org/SDTM_IG_CE/V3#IGD_CEOCCUR> ;
	bd:includesColumn <http://www.cdisc.org/SDTM_IG_CE/V3#IGD_CESTAT> ;
	bd:includesColumn <http://www.cdisc.org/SDTM_IG_CE/V3#IGD_CEREASND> ;
	bd:includesColumn <http://www.cdisc.org/SDTM_IG_CE/V3#IGD_CEBODSYS> ;
	bd:includesColumn <http://www.cdisc.org/SDTM_IG_CE/V3#IGD_CESEV> ;
	bd:includesColumn <http://www.cdisc.org/SDTM_IG_CE/V3#IGD_CEDTC> ;
	bd:includesColumn <http://www.cdisc.org/SDTM_IG_CE/V3#IGD_CESTDTC> ;
	bd:includesColumn <http://www.cdisc.org/SDTM_IG_CE/V3#IGD_CEENDTC> ;
	bd:includesColumn <http://www.cdisc.org/SDTM_IG_CE/V3#IGD_CEDY> ;
	bd:includesColumn <http://www.cdisc.org/SDTM_IG_CE/V3#IGD_CESTRF> ;
	bd:includesColumn <http://www.cdisc.org/SDTM_IG_CE/V3#IGD_CEENRF> ;
	bd:includesColumn <http://www.cdisc.org/SDTM_IG_CE/V3#IGD_CESTRTPT> ;
	bd:includesColumn <http://www.cdisc.org/SDTM_IG_CE/V3#IGD_CESTTPT> ;
	bd:includesColumn <http://www.cdisc.org/SDTM_IG_CE/V3#IGD_CEENRTPT> ;
	bd:includesColumn <http://www.cdisc.org/SDTM_IG_CE/V3#IGD_CEENTPT> ;
	bd:prefix "CE"^^xsd:string ;
	bd:structure "One record per event per subject"^^xsd:string ;
	bd:basedOnClass <http://www.cdisc.org/SDTM_MODEL_EVENTS/V3#CL> ;
.
<http://www.cdisc.org/SDTM_IG_CE/V3#IGD_RS>
	rdf:type isoR:RegistrationState ;
	isoR:registrationStatus "Standard"^^xsd:string ;
	isoR:administrativeNote ""^^xsd:string ;
	isoR:effectiveDate "2016-01-01T00:00:00+00:00"^^xsd:dateTime ;
	isoR:untilDate "2016-01-01T00:00:00+00:00"^^xsd:dateTime ;
	isoR:unresolvedIssue ""^^xsd:string ;
	isoR:administrativeStatus ""^^xsd:string ;
	isoR:previousState "Standard"^^xsd:string ;
	isoR:multipleEdit "false"^^xsd:boolean ;
	isoR:byAuthority <http://www.assero.co.uk/RA#DUNS084433759> ;
.
<http://www.cdisc.org/SDTM_IG_CE/V3#IGD_SI>
	rdf:type isoI:ScopedIdentifier ;
	isoI:identifier "SDTM IG CE"^^xsd:string ;
	isoI:versionLabel "2013-11-26 Release"^^xsd:string ;
	isoI:version "3"^^xsd:positiveInteger ;
	isoI:semanticVersion "3.2.0"^^xsd:string ;
	isoI:hasScope <http://www.assero.co.uk/NS#CDISC> ;
.
<http://www.cdisc.org/SDTM_IG_CE/V3#IGD_CESEQ>
	rdf:type bd:SdtmDomainVariable ;
	isoC:label "Sequence Number"^^xsd:string ;
	bd:rule ""^^xsd:string ;
	bd:ordinal "4"^^xsd:positiveInteger ;
	bd:name "CESEQ"^^xsd:string ;
	bd:description "Sequence Number given to ensure uniqueness of subject records within a domain. May be any valid number."^^xsd:string ;
	bd:format ""^^xsd:string ;
	bd:ctAndFormat ""^^xsd:string ;
	bd:compliance <http://www.assero.co.uk/CSN#52070084-cdd3-4ba8-8377-f670e4b0276c> ;
	bd:basedOnClassVariable <http://www.cdisc.org/SDTM_MODEL_ALL/V3#CL_--SEQ> ;
.
<http://www.cdisc.org/SDTM_IG_CE/V3#IGD_CEGRPID>
	rdf:type bd:SdtmDomainVariable ;
	isoC:label "Group ID"^^xsd:string ;
	bd:rule ""^^xsd:string ;
	bd:ordinal "5"^^xsd:positiveInteger ;
	bd:name "CEGRPID"^^xsd:string ;
	bd:description "Used to tie together a block of related records for a subject within a domain."^^xsd:string ;
	bd:format ""^^xsd:string ;
	bd:ctAndFormat ""^^xsd:string ;
	bd:compliance <http://www.assero.co.uk/CSN#f7d9d4e1-a00a-487e-89db-ebece910ba0d> ;
	bd:basedOnClassVariable <http://www.cdisc.org/SDTM_MODEL_ALL/V3#CL_--GRPID> ;
.
<http://www.cdisc.org/SDTM_IG_CE/V3#IGD_CEREFID>
	rdf:type bd:SdtmDomainVariable ;
	isoC:label "Reference ID"^^xsd:string ;
	bd:rule ""^^xsd:string ;
	bd:ordinal "6"^^xsd:positiveInteger ;
	bd:name "CEREFID"^^xsd:string ;
	bd:description "Internal or external identifier."^^xsd:string ;
	bd:format ""^^xsd:string ;
	bd:ctAndFormat ""^^xsd:string ;
	bd:compliance <http://www.assero.co.uk/CSN#f7d9d4e1-a00a-487e-89db-ebece910ba0d> ;
	bd:basedOnClassVariable <http://www.cdisc.org/SDTM_MODEL_ALL/V3#CL_--REFID> ;
.
<http://www.cdisc.org/SDTM_IG_CE/V3#IGD_CESPID>
	rdf:type bd:SdtmDomainVariable ;
	isoC:label "Sponsor-Defined Identifier"^^xsd:string ;
	bd:rule ""^^xsd:string ;
	bd:ordinal "7"^^xsd:positiveInteger ;
	bd:name "CESPID"^^xsd:string ;
	bd:description "Sponsor-defined reference number. Perhaps pre-printed on the CRF as an explicit line identifier or defined in the sponsor's operational database. Example: Line number on a CRF page."^^xsd:string ;
	bd:format ""^^xsd:string ;
	bd:ctAndFormat ""^^xsd:string ;
	bd:compliance <http://www.assero.co.uk/CSN#f7d9d4e1-a00a-487e-89db-ebece910ba0d> ;
	bd:basedOnClassVariable <http://www.cdisc.org/SDTM_MODEL_ALL/V3#CL_--SPID> ;
.
<http://www.cdisc.org/SDTM_IG_CE/V3#IGD_CETERM>
	rdf:type bd:SdtmDomainVariable ;
	isoC:label "Reported Term for the Clinical Event"^^xsd:string ;
	bd:rule ""^^xsd:string ;
	bd:ordinal "8"^^xsd:positiveInteger ;
	bd:name "CETERM"^^xsd:string ;
	bd:description "Term for the medical condition or event. Most likely pre-printed on CRF."^^xsd:string ;
	bd:format ""^^xsd:string ;
	bd:ctAndFormat ""^^xsd:string ;
	bd:compliance <http://www.assero.co.uk/CSN#52070084-cdd3-4ba8-8377-f670e4b0276c> ;
	bd:basedOnClassVariable <http://www.cdisc.org/SDTM_MODEL_EVENTS/V3#CL_--TERM> ;
	bd:isA <http://www.s-cubed.dk/CAR#2a4eb8036d87ab68656ba5b80bbf77123f088904> ;
.
<http://www.cdisc.org/SDTM_IG_CE/V3#IGD_CEDECOD>
	rdf:type bd:SdtmDomainVariable ;
	isoC:label "Dictionary-Derived Term"^^xsd:string ;
	bd:rule ""^^xsd:string ;
	bd:ordinal "9"^^xsd:positiveInteger ;
	bd:name "CEDECOD"^^xsd:string ;
	bd:description "Controlled terminology for the name of the clinical event. The sponsor is expected to provide the dictionary name and version used to map the terms utilizing the define.xml external codelist attributes"^^xsd:string ;
	bd:format ""^^xsd:string ;
	bd:ctAndFormat ""^^xsd:string ;
	bd:compliance <http://www.assero.co.uk/CSN#f7d9d4e1-a00a-487e-89db-ebece910ba0d> ;
	bd:basedOnClassVariable <http://www.cdisc.org/SDTM_MODEL_EVENTS/V3#CL_--DECOD> ;
.
<http://www.cdisc.org/SDTM_IG_CE/V3#IGD_CECAT>
	rdf:type bd:SdtmDomainVariable ;
	isoC:label "Category for Clinical Event"^^xsd:string ;
	bd:rule ""^^xsd:string ;
	bd:ordinal "10"^^xsd:positiveInteger ;
	bd:name "CECAT"^^xsd:string ;
	bd:description "Used to define a category of related records."^^xsd:string ;
	bd:format ""^^xsd:string ;
	bd:ctAndFormat ""^^xsd:string ;
	bd:compliance <http://www.assero.co.uk/CSN#f7d9d4e1-a00a-487e-89db-ebece910ba0d> ;
	bd:basedOnClassVariable <http://www.cdisc.org/SDTM_MODEL_EVENTS/V3#CL_--CAT> ;
	bd:isA <http://www.s-cubed.dk/CAR#a3c686e711e4720f99b4562bb3dbaae7ab658cf2> ;
.
<http://www.cdisc.org/SDTM_IG_CE/V3#IGD_CESCAT>
	rdf:type bd:SdtmDomainVariable ;
	isoC:label "Subcategory for Clinical Event"^^xsd:string ;
	bd:rule ""^^xsd:string ;
	bd:ordinal "11"^^xsd:positiveInteger ;
	bd:name "CESCAT"^^xsd:string ;
	bd:description "A further categorization of the condition or event."^^xsd:string ;
	bd:format ""^^xsd:string ;
	bd:ctAndFormat ""^^xsd:string ;
	bd:compliance <http://www.assero.co.uk/CSN#f7d9d4e1-a00a-487e-89db-ebece910ba0d> ;
	bd:basedOnClassVariable <http://www.cdisc.org/SDTM_MODEL_EVENTS/V3#CL_--SCAT> ;
	bd:isA <http://www.s-cubed.dk/CAR#479a67983e739413da55faf0dc509f83fd5dea64> ;
.
<http://www.cdisc.org/SDTM_IG_CE/V3#IGD_CEPRESP>
	rdf:type bd:SdtmDomainVariable ;
	isoC:label "Clinical Event Pre-Specified"^^xsd:string ;
	bd:rule ""^^xsd:string ;
	bd:ordinal "12"^^xsd:positiveInteger ;
	bd:name "CEPRESP"^^xsd:string ;
	bd:description "Used to indicate whether the Event in CETERM was pre-specified. Value is Y for pre-specified events, null for spontaneously reported events."^^xsd:string ;
	bd:format ""^^xsd:string ;
	bd:ctAndFormat "(NY)"^^xsd:string ;
	bd:compliance <http://www.assero.co.uk/CSN#f7d9d4e1-a00a-487e-89db-ebece910ba0d> ;
	bd:ctReference <http://www.cdisc.org/SDTM_IG_CE/V3#IGD_CEPRESP_TMC1> ;
	bd:basedOnClassVariable <http://www.cdisc.org/SDTM_MODEL_EVENTS/V3#CL_--PRESP> ;
.
<http://www.cdisc.org/SDTM_IG_CE/V3#IGD_CEPRESP_TMC1>
	rdf:type bo:TMcReference ;
	isoC:label "NY"^^xsd:string ;
	bo:enabled "true"^^xsd:boolean ;
	bo:optional "false"^^xsd:boolean ;
	bo:ordinal "1"^^xsd:positiveInteger ;
	bo:reference <http://www.cdisc.org/C66742/V36#C66742> ;
	bo:context <http://www.cdisc.org/CT/V36#TH> ;
.
<http://www.cdisc.org/SDTM_IG_CE/V3#IGD_CEOCCUR>
	rdf:type bd:SdtmDomainVariable ;
	isoC:label "Clinical Event Occurrence"^^xsd:string ;
	bd:rule ""^^xsd:string ;
	bd:ordinal "13"^^xsd:positiveInteger ;
	bd:name "CEOCCUR"^^xsd:string ;
	bd:description "Used when the occurrence of specific events is solicited to indicate whether or not a clinical event occurred. Values are null for spontaneously reported events."^^xsd:string ;
	bd:format ""^^xsd:string ;
	bd:ctAndFormat "(NY)"^^xsd:string ;
	bd:compliance <http://www.assero.co.uk/CSN#f7d9d4e1-a00a-487e-89db-ebece910ba0d> ;
	bd:ctReference <http://www.cdisc.org/SDTM_IG_CE/V3#IGD_CEOCCUR_TMC1> ;
	bd:basedOnClassVariable <http://www.cdisc.org/SDTM_MODEL_EVENTS/V3#CL_--OCCUR> ;
.
<http://www.cdisc.org/SDTM_IG_CE/V3#IGD_CEOCCUR_TMC1>
	rdf:type bo:TMcReference ;
	isoC:label "NY"^^xsd:string ;
	bo:enabled "true"^^xsd:boolean ;
	bo:optional "false"^^xsd:boolean ;
	bo:ordinal "1"^^xsd:positiveInteger ;
	bo:reference <http://www.cdisc.org/C66742/V36#C66742> ;
	bo:context <http://www.cdisc.org/CT/V36#TH> ;
.
<http://www.cdisc.org/SDTM_IG_CE/V3#IGD_CESTAT>
	rdf:type bd:SdtmDomainVariable ;
	isoC:label "Completion Status"^^xsd:string ;
	bd:rule ""^^xsd:string ;
	bd:ordinal "14"^^xsd:positiveInteger ;
	bd:name "CESTAT"^^xsd:string ;
	bd:description "The status indicates that a question from a pre-specified list was not answered."^^xsd:string ;
	bd:format ""^^xsd:string ;
	bd:ctAndFormat "(ND)"^^xsd:string ;
	bd:compliance <http://www.assero.co.uk/CSN#f7d9d4e1-a00a-487e-89db-ebece910ba0d> ;
	bd:ctReference <http://www.cdisc.org/SDTM_IG_CE/V3#IGD_CESTAT_TMC1> ;
	bd:basedOnClassVariable <http://www.cdisc.org/SDTM_MODEL_EVENTS/V3#CL_--STAT> ;
	bd:isA <http://www.s-cubed.dk/CAR#bae7d5be70820ed56467bd9a63744e23b47bd711> ;
.
<http://www.cdisc.org/SDTM_IG_CE/V3#IGD_CESTAT_TMC1>
	rdf:type bo:TMcReference ;
	isoC:label "ND"^^xsd:string ;
	bo:enabled "true"^^xsd:boolean ;
	bo:optional "false"^^xsd:boolean ;
	bo:ordinal "1"^^xsd:positiveInteger ;
	bo:reference <http://www.cdisc.org/C66789/V13#C66789> ;
	bo:context <http://www.cdisc.org/CT/V36#TH> ;
.
<http://www.cdisc.org/SDTM_IG_CE/V3#IGD_CEREASND>
	rdf:type bd:SdtmDomainVariable ;
	isoC:label "Reason Clinical Event Not Collected"^^xsd:string ;
	bd:rule ""^^xsd:string ;
	bd:ordinal "15"^^xsd:positiveInteger ;
	bd:name "CEREASND"^^xsd:string ;
	bd:description "Describes the reason clinical event data was not collected. Used in conjunction with CESTAT when value is NOT DONE."^^xsd:string ;
	bd:format ""^^xsd:string ;
	bd:ctAndFormat ""^^xsd:string ;
	bd:compliance <http://www.assero.co.uk/CSN#f7d9d4e1-a00a-487e-89db-ebece910ba0d> ;
	bd:basedOnClassVariable <http://www.cdisc.org/SDTM_MODEL_EVENTS/V3#CL_--REASND> ;
.
<http://www.cdisc.org/SDTM_IG_CE/V3#IGD_CEBODSYS>
	rdf:type bd:SdtmDomainVariable ;
	isoC:label "Body System or Organ Class"^^xsd:string ;
	bd:rule ""^^xsd:string ;
	bd:ordinal "16"^^xsd:positiveInteger ;
	bd:name "CEBODSYS"^^xsd:string ;
	bd:description "Dictionary-derived. Body system or organ class that is involved in an event or measurement from a standard hierarchy (e.g., MedDRA). When using a multi-axial dictionary such as MedDRA, this should contain the SOC used for the sponsor's analyses and summary tables which may not necessarily be the primary SOC."^^xsd:string ;
	bd:format ""^^xsd:string ;
	bd:ctAndFormat ""^^xsd:string ;
	bd:compliance <http://www.assero.co.uk/CSN#f7d9d4e1-a00a-487e-89db-ebece910ba0d> ;
	bd:basedOnClassVariable <http://www.cdisc.org/SDTM_MODEL_EVENTS/V3#CL_--BODSYS> ;
.
<http://www.cdisc.org/SDTM_IG_CE/V3#IGD_CESEV>
	rdf:type bd:SdtmDomainVariable ;
	isoC:label "Severity/Intensity"^^xsd:string ;
	bd:rule ""^^xsd:string ;
	bd:ordinal "17"^^xsd:positiveInteger ;
	bd:name "CESEV"^^xsd:string ;
	bd:description "The severity or intensity of the event. Examples: MILD, MODERATE, SEVERE"^^xsd:string ;
	bd:format ""^^xsd:string ;
	bd:ctAndFormat ""^^xsd:string ;
	bd:compliance <http://www.assero.co.uk/CSN#f7d9d4e1-a00a-487e-89db-ebece910ba0d> ;
	bd:basedOnClassVariable <http://www.cdisc.org/SDTM_MODEL_EVENTS/V3#CL_--SEV> ;
	bd:isA <http://www.s-cubed.dk/CAR#de314fa0c9d9e359b633f2fdab4659c886fe5986> ;
.
<http://www.cdisc.org/SDTM_IG_CE/V3#IGD_CEDTC>
	rdf:type bd:SdtmDomainVariable ;
	isoC:label "Date/Time of Event Collection"^^xsd:string ;
	bd:rule ""^^xsd:string ;
	bd:ordinal "18"^^xsd:positiveInteger ;
	bd:name "CEDTC"^^xsd:string ;
	bd:description ""^^xsd:string ;
	bd:format "ISO 8601"^^xsd:string ;
	bd:ctAndFormat "ISO 8601"^^xsd:string ;
	bd:compliance <http://www.assero.co.uk/CSN#f7d9d4e1-a00a-487e-89db-ebece910ba0d> ;
	bd:basedOnClassVariable <http://www.cdisc.org/SDTM_MODEL_ALL/V3#CL_--DTC> ;
	bd:isA <http://www.s-cubed.dk/CAR#232daabe4ca2dfdb32645c572b1d34ddb4fe9995> ;
.
<http://www.cdisc.org/SDTM_IG_CE/V3#IGD_CESTDTC>
	rdf:type bd:SdtmDomainVariable ;
	isoC:label "Start Date/Time of Clinical Event"^^xsd:string ;
	bd:rule ""^^xsd:string ;
	bd:ordinal "19"^^xsd:positiveInteger ;
	bd:name "CESTDTC"^^xsd:string ;
	bd:description ""^^xsd:string ;
	bd:format "ISO 8601"^^xsd:string ;
	bd:ctAndFormat "ISO 8601"^^xsd:string ;
	bd:compliance <http://www.assero.co.uk/CSN#f7d9d4e1-a00a-487e-89db-ebece910ba0d> ;
	bd:basedOnClassVariable <http://www.cdisc.org/SDTM_MODEL_ALL/V3#CL_--STDTC> ;
	bd:isA <http://www.s-cubed.dk/CAR#83c87956785cde43c109e30fcbd95cca63a18d38> ;
.
<http://www.cdisc.org/SDTM_IG_CE/V3#IGD_CEENDTC>
	rdf:type bd:SdtmDomainVariable ;
	isoC:label "End Date/Time of Clinical Event"^^xsd:string ;
	bd:rule ""^^xsd:string ;
	bd:ordinal "20"^^xsd:positiveInteger ;
	bd:name "CEENDTC"^^xsd:string ;
	bd:description ""^^xsd:string ;
	bd:format "ISO 8601"^^xsd:string ;
	bd:ctAndFormat "ISO 8601"^^xsd:string ;
	bd:compliance <http://www.assero.co.uk/CSN#f7d9d4e1-a00a-487e-89db-ebece910ba0d> ;
	bd:basedOnClassVariable <http://www.cdisc.org/SDTM_MODEL_ALL/V3#CL_--ENDTC> ;
	bd:isA <http://www.s-cubed.dk/CAR#71c54c70967ea84127e4bd588bd627ec0e581dfb> ;
.
<http://www.cdisc.org/SDTM_IG_CE/V3#IGD_CEDY>
	rdf:type bd:SdtmDomainVariable ;
	isoC:label "Study Day of Event Collection"^^xsd:string ;
	bd:rule ""^^xsd:string ;
	bd:ordinal "21"^^xsd:positiveInteger ;
	bd:name "CEDY"^^xsd:string ;
	bd:description "1. Study day of clinical event collection, measured as integer days.\n2. Algorithm for calculations must be relative to the sponsor-defined RFSTDTC variable in Demographics. This formula should be consistent across the submission."^^xsd:string ;
	bd:format ""^^xsd:string ;
	bd:ctAndFormat ""^^xsd:string ;
	bd:compliance <http://www.assero.co.uk/CSN#f7d9d4e1-a00a-487e-89db-ebece910ba0d> ;
	bd:basedOnClassVariable <http://www.cdisc.org/SDTM_MODEL_ALL/V3#CL_--DY> ;
.
<http://www.cdisc.org/SDTM_IG_CE/V3#IGD_CESTRF>
	rdf:type bd:SdtmDomainVariable ;
	isoC:label "Start Relative to Reference Period"^^xsd:string ;
	bd:rule ""^^xsd:string ;
	bd:ordinal "22"^^xsd:positiveInteger ;
	bd:name "CESTRF"^^xsd:string ;
	bd:description "Describes the start of the clinical event relative to the sponsor-defined reference period. The sponsor-defined reference period is a continuous period of time defined by a discrete starting point and a discrete ending point (represented by RFSTDTC and RFENDTC in Demographics)."^^xsd:string ;
	bd:format ""^^xsd:string ;
	bd:ctAndFormat "(STENRF)"^^xsd:string ;
	bd:compliance <http://www.assero.co.uk/CSN#f7d9d4e1-a00a-487e-89db-ebece910ba0d> ;
	bd:ctReference <http://www.cdisc.org/SDTM_IG_CE/V3#IGD_CESTRF_TMC1> ;
	bd:basedOnClassVariable <http://www.cdisc.org/SDTM_MODEL_ALL/V3#CL_--STRF> ;
.
<http://www.cdisc.org/SDTM_IG_CE/V3#IGD_CESTRF_TMC1>
	rdf:type bo:TMcReference ;
	isoC:label "STENRF"^^xsd:string ;
	bo:enabled "true"^^xsd:boolean ;
	bo:optional "false"^^xsd:boolean ;
	bo:ordinal "1"^^xsd:positiveInteger ;
	bo:reference <http://www.cdisc.org/C66728/V27#C66728> ;
	bo:context <http://www.cdisc.org/CT/V36#TH> ;
.
<http://www.cdisc.org/SDTM_IG_CE/V3#IGD_CEENRF>
	rdf:type bd:SdtmDomainVariable ;
	isoC:label "End Relative to Reference Period"^^xsd:string ;
	bd:rule ""^^xsd:string ;
	bd:ordinal "23"^^xsd:positiveInteger ;
	bd:name "CEENRF"^^xsd:string ;
	bd:description "Describes the end of the event relative to the sponsor-defined reference period. The sponsor-defined reference period is a continuous period of time defined by a discrete starting point and a discrete ending point (represented by RFSTDTC and RFENDTC in Demographics)."^^xsd:string ;
	bd:format ""^^xsd:string ;
	bd:ctAndFormat "(STENRF)"^^xsd:string ;
	bd:compliance <http://www.assero.co.uk/CSN#f7d9d4e1-a00a-487e-89db-ebece910ba0d> ;
	bd:ctReference <http://www.cdisc.org/SDTM_IG_CE/V3#IGD_CEENRF_TMC1> ;
	bd:basedOnClassVariable <http://www.cdisc.org/SDTM_MODEL_ALL/V3#CL_--ENRF> ;
.
<http://www.cdisc.org/SDTM_IG_CE/V3#IGD_CEENRF_TMC1>
	rdf:type bo:TMcReference ;
	isoC:label "STENRF"^^xsd:string ;
	bo:enabled "true"^^xsd:boolean ;
	bo:optional "false"^^xsd:boolean ;
	bo:ordinal "1"^^xsd:positiveInteger ;
	bo:reference <http://www.cdisc.org/C66728/V27#C66728> ;
	bo:context <http://www.cdisc.org/CT/V36#TH> ;
.
<http://www.cdisc.org/SDTM_IG_CE/V3#IGD_CESTRTPT>
	rdf:type bd:SdtmDomainVariable ;
	isoC:label "Start Relative to Reference Time Point"^^xsd:string ;
	bd:rule ""^^xsd:string ;
	bd:ordinal "24"^^xsd:positiveInteger ;
	bd:name "CESTRTPT"^^xsd:string ;
	bd:description "Identifies the start of the observation as being before or after the reference time point defined by variable CESTTPT."^^xsd:string ;
	bd:format ""^^xsd:string ;
	bd:ctAndFormat "(STENRF)"^^xsd:string ;
	bd:compliance <http://www.assero.co.uk/CSN#f7d9d4e1-a00a-487e-89db-ebece910ba0d> ;
	bd:ctReference <http://www.cdisc.org/SDTM_IG_CE/V3#IGD_CESTRTPT_TMC1> ;
	bd:basedOnClassVariable <http://www.cdisc.org/SDTM_MODEL_ALL/V3#CL_--STRTPT> ;
.
<http://www.cdisc.org/SDTM_IG_CE/V3#IGD_CESTRTPT_TMC1>
	rdf:type bo:TMcReference ;
	isoC:label "STENRF"^^xsd:string ;
	bo:enabled "true"^^xsd:boolean ;
	bo:optional "false"^^xsd:boolean ;
	bo:ordinal "1"^^xsd:positiveInteger ;
	bo:reference <http://www.cdisc.org/C66728/V27#C66728> ;
	bo:context <http://www.cdisc.org/CT/V36#TH> ;
.
<http://www.cdisc.org/SDTM_IG_CE/V3#IGD_CESTTPT>
	rdf:type bd:SdtmDomainVariable ;
	isoC:label "Start Reference Time Point"^^xsd:string ;
	bd:rule ""^^xsd:string ;
	bd:ordinal "25"^^xsd:positiveInteger ;
	bd:name "CESTTPT"^^xsd:string ;
	bd:description "Description or date/time in ISO 8601 character format of the sponsor-defined reference point referred to by --STRTPT. Examples: \"2003‑12‑15\" or \"VISIT 1\"."^^xsd:string ;
	bd:format ""^^xsd:string ;
	bd:ctAndFormat ""^^xsd:string ;
	bd:compliance <http://www.assero.co.uk/CSN#f7d9d4e1-a00a-487e-89db-ebece910ba0d> ;
	bd:basedOnClassVariable <http://www.cdisc.org/SDTM_MODEL_ALL/V3#CL_--STTPT> ;
.
<http://www.cdisc.org/SDTM_IG_CE/V3#IGD_CEENRTPT>
	rdf:type bd:SdtmDomainVariable ;
	isoC:label "End Relative to Reference Time Point"^^xsd:string ;
	bd:rule ""^^xsd:string ;
	bd:ordinal "26"^^xsd:positiveInteger ;
	bd:name "CEENRTPT"^^xsd:string ;
	bd:description "Identifies the end of the event as being before or after the reference time point defined by variable CEENTPT."^^xsd:string ;
	bd:format ""^^xsd:string ;
	bd:ctAndFormat "(STENRF)"^^xsd:string ;
	bd:compliance <http://www.assero.co.uk/CSN#f7d9d4e1-a00a-487e-89db-ebece910ba0d> ;
	bd:ctReference <http://www.cdisc.org/SDTM_IG_CE/V3#IGD_CEENRTPT_TMC1> ;
	bd:basedOnClassVariable <http://www.cdisc.org/SDTM_MODEL_ALL/V3#CL_--ENRTPT> ;
.
<http://www.cdisc.org/SDTM_IG_CE/V3#IGD_CEENRTPT_TMC1>
	rdf:type bo:TMcReference ;
	isoC:label "STENRF"^^xsd:string ;
	bo:enabled "true"^^xsd:boolean ;
	bo:optional "false"^^xsd:boolean ;
	bo:ordinal "1"^^xsd:positiveInteger ;
	bo:reference <http://www.cdisc.org/C66728/V27#C66728> ;
	bo:context <http://www.cdisc.org/CT/V36#TH> ;
.
<http://www.cdisc.org/SDTM_IG_CE/V3#IGD_CEENTPT>
	rdf:type bd:SdtmDomainVariable ;
	isoC:label "End Reference Time Point"^^xsd:string ;
	bd:rule ""^^xsd:string ;
	bd:ordinal "27"^^xsd:positiveInteger ;
	bd:name "CEENTPT"^^xsd:string ;
	bd:description "Description or date/time in ISO 8601 character format of the reference point referred to by CEENRTPT. Examples: \"2003-12-25\" or \"VISIT 2\"."^^xsd:string ;
	bd:format ""^^xsd:string ;
	bd:ctAndFormat ""^^xsd:string ;
	bd:compliance <http://www.assero.co.uk/CSN#f7d9d4e1-a00a-487e-89db-ebece910ba0d> ;
	bd:basedOnClassVariable <http://www.cdisc.org/SDTM_MODEL_ALL/V3#CL_--ENTPT> ;
.
<http://www.cdisc.org/SDTM_IG_DS/V3#IGD>
	rdf:type bd:SdtmDomain ;
	isoC:label "Disposition"^^xsd:string ;
	isoT:hasState <http://www.cdisc.org/SDTM_IG_DS/V3#IGD_RS> ;
	isoT:hasIdentifier <http://www.cdisc.org/SDTM_IG_DS/V3#IGD_SI> ;
	isoT:hasPreviousVersion <http://www.cdisc.org/SDTM_IG_DS/V2#IGD> ;
	isoT:origin ""^^xsd:string ;
	isoT:changeDescription ""^^xsd:string ;
	isoT:creationDate "2013-11-26T00:00:00+00:00"^^xsd:dateTime ;
	isoT:lastChangeDate "2013-11-26T00:00:00+00:00"^^xsd:dateTime ;
	isoT:explanatoryComment ""^^xsd:string ;
	bd:rule ""^^xsd:string ;
	bd:ordinal "1"^^xsd:positiveInteger ;
	bd:includesColumn <http://www.cdisc.org/SDTM_IG_DS/V1#IGD_STUDYID> ;
	bd:includesColumn <http://www.cdisc.org/SDTM_IG_DS/V2#IGD_DOMAIN> ;
	bd:includesColumn <http://www.cdisc.org/SDTM_IG_DS/V1#IGD_USUBJID> ;
	bd:includesColumn <http://www.cdisc.org/SDTM_IG_DS/V3#IGD_DSSEQ> ;
	bd:includesColumn <http://www.cdisc.org/SDTM_IG_DS/V3#IGD_DSGRPID> ;
	bd:includesColumn <http://www.cdisc.org/SDTM_IG_DS/V3#IGD_DSREFID> ;
	bd:includesColumn <http://www.cdisc.org/SDTM_IG_DS/V3#IGD_DSSPID> ;
	bd:includesColumn <http://www.cdisc.org/SDTM_IG_DS/V3#IGD_DSTERM> ;
	bd:includesColumn <http://www.cdisc.org/SDTM_IG_DS/V3#IGD_DSDECOD> ;
	bd:includesColumn <http://www.cdisc.org/SDTM_IG_DS/V3#IGD_DSCAT> ;
	bd:includesColumn <http://www.cdisc.org/SDTM_IG_DS/V3#IGD_DSSCAT> ;
	bd:includesColumn <http://www.cdisc.org/SDTM_IG_DS/V3#IGD_EPOCH> ;
	bd:includesColumn <http://www.cdisc.org/SDTM_IG_DS/V3#IGD_DSDTC> ;
	bd:includesColumn <http://www.cdisc.org/SDTM_IG_DS/V3#IGD_DSSTDTC> ;
	bd:includesColumn <http://www.cdisc.org/SDTM_IG_DS/V3#IGD_DSSTDY> ;
	bd:prefix "DS"^^xsd:string ;
	bd:structure "One record per disposition status or protocol milestone per subject"^^xsd:string ;
	bd:basedOnClass <http://www.cdisc.org/SDTM_MODEL_EVENTS/V3#CL> ;
.
<http://www.cdisc.org/SDTM_IG_DS/V3#IGD_RS>
	rdf:type isoR:RegistrationState ;
	isoR:registrationStatus "Standard"^^xsd:string ;
	isoR:administrativeNote ""^^xsd:string ;
	isoR:effectiveDate "2016-01-01T00:00:00+00:00"^^xsd:dateTime ;
	isoR:untilDate "2016-01-01T00:00:00+00:00"^^xsd:dateTime ;
	isoR:unresolvedIssue ""^^xsd:string ;
	isoR:administrativeStatus ""^^xsd:string ;
	isoR:previousState "Standard"^^xsd:string ;
	isoR:multipleEdit "false"^^xsd:boolean ;
	isoR:byAuthority <http://www.assero.co.uk/RA#DUNS084433759> ;
.
<http://www.cdisc.org/SDTM_IG_DS/V3#IGD_SI>
	rdf:type isoI:ScopedIdentifier ;
	isoI:identifier "SDTM IG DS"^^xsd:string ;
	isoI:versionLabel "2013-11-26 Release"^^xsd:string ;
	isoI:version "3"^^xsd:positiveInteger ;
	isoI:semanticVersion "3.2.0"^^xsd:string ;
	isoI:hasScope <http://www.assero.co.uk/NS#CDISC> ;
.
<http://www.cdisc.org/SDTM_IG_DS/V3#IGD_DSSEQ>
	rdf:type bd:SdtmDomainVariable ;
	isoC:label "Sequence Number"^^xsd:string ;
	bd:rule ""^^xsd:string ;
	bd:ordinal "4"^^xsd:positiveInteger ;
	bd:name "DSSEQ"^^xsd:string ;
	bd:description "Sequence Number given to ensure uniqueness of subject records within a domain. May be any valid number."^^xsd:string ;
	bd:format ""^^xsd:string ;
	bd:ctAndFormat ""^^xsd:string ;
	bd:compliance <http://www.assero.co.uk/CSN#52070084-cdd3-4ba8-8377-f670e4b0276c> ;
	bd:basedOnClassVariable <http://www.cdisc.org/SDTM_MODEL_ALL/V3#CL_--SEQ> ;
.
<http://www.cdisc.org/SDTM_IG_DS/V3#IGD_DSGRPID>
	rdf:type bd:SdtmDomainVariable ;
	isoC:label "Group ID"^^xsd:string ;
	bd:rule ""^^xsd:string ;
	bd:ordinal "5"^^xsd:positiveInteger ;
	bd:name "DSGRPID"^^xsd:string ;
	bd:description "Used to tie together a block of related records in a single domain for a subject."^^xsd:string ;
	bd:format ""^^xsd:string ;
	bd:ctAndFormat ""^^xsd:string ;
	bd:compliance <http://www.assero.co.uk/CSN#f7d9d4e1-a00a-487e-89db-ebece910ba0d> ;
	bd:basedOnClassVariable <http://www.cdisc.org/SDTM_MODEL_ALL/V3#CL_--GRPID> ;
.
<http://www.cdisc.org/SDTM_IG_DS/V3#IGD_DSREFID>
	rdf:type bd:SdtmDomainVariable ;
	isoC:label "Reference ID"^^xsd:string ;
	bd:rule ""^^xsd:string ;
	bd:ordinal "6"^^xsd:positiveInteger ;
	bd:name "DSREFID"^^xsd:string ;
	bd:description "Internal or external identifier."^^xsd:string ;
	bd:format ""^^xsd:string ;
	bd:ctAndFormat ""^^xsd:string ;
	bd:compliance <http://www.assero.co.uk/CSN#f7d9d4e1-a00a-487e-89db-ebece910ba0d> ;
	bd:basedOnClassVariable <http://www.cdisc.org/SDTM_MODEL_ALL/V3#CL_--REFID> ;
.
<http://www.cdisc.org/SDTM_IG_DS/V3#IGD_DSSPID>
	rdf:type bd:SdtmDomainVariable ;
	isoC:label "Sponsor-Defined Identifier"^^xsd:string ;
	bd:rule ""^^xsd:string ;
	bd:ordinal "7"^^xsd:positiveInteger ;
	bd:name "DSSPID"^^xsd:string ;
	bd:description "Sponsor-defined reference number. Perhaps pre-printed on the CRF as an explicit line identifier or defined in the sponsor's operational database. Example: Line number on a Disposition page."^^xsd:string ;
	bd:format ""^^xsd:string ;
	bd:ctAndFormat ""^^xsd:string ;
	bd:compliance <http://www.assero.co.uk/CSN#f7d9d4e1-a00a-487e-89db-ebece910ba0d> ;
	bd:basedOnClassVariable <http://www.cdisc.org/SDTM_MODEL_ALL/V3#CL_--SPID> ;
.
<http://www.cdisc.org/SDTM_IG_DS/V3#IGD_DSTERM>
	rdf:type bd:SdtmDomainVariable ;
	isoC:label "Reported Term for the Disposition Event"^^xsd:string ;
	bd:rule ""^^xsd:string ;
	bd:ordinal "8"^^xsd:positiveInteger ;
	bd:name "DSTERM"^^xsd:string ;
	bd:description "Verbatim name of the event or protocol milestone. Some terms in DSTERM will match DSDECOD, but others, such as \"Subject moved\" will map to controlled terminology in DSDECOD, such as \"LOST TO FOLLOW-UP.\""^^xsd:string ;
	bd:format ""^^xsd:string ;
	bd:ctAndFormat ""^^xsd:string ;
	bd:compliance <http://www.assero.co.uk/CSN#52070084-cdd3-4ba8-8377-f670e4b0276c> ;
	bd:basedOnClassVariable <http://www.cdisc.org/SDTM_MODEL_EVENTS/V3#CL_--TERM> ;
	bd:isA <http://www.s-cubed.dk/CAR#2a4eb8036d87ab68656ba5b80bbf77123f088904> ;
.
<http://www.cdisc.org/SDTM_IG_DS/V3#IGD_DSDECOD>
	rdf:type bd:SdtmDomainVariable ;
	isoC:label "Standardized Disposition Term"^^xsd:string ;
	bd:rule ""^^xsd:string ;
	bd:ordinal "9"^^xsd:positiveInteger ;
	bd:name "DSDECOD"^^xsd:string ;
	bd:description "Controlled terminology for the name of disposition event or protocol milestone. Examples of protocol milestones: INFORMED CONSENT OBTAINED, RANDOMIZED"^^xsd:string ;
	bd:format ""^^xsd:string ;
	bd:ctAndFormat "(NCOMPLT)"^^xsd:string ;
	bd:compliance <http://www.assero.co.uk/CSN#52070084-cdd3-4ba8-8377-f670e4b0276c> ;
	bd:ctReference <http://www.cdisc.org/SDTM_IG_DS/V3#IGD_DSDECOD_TMC1> ;
	bd:basedOnClassVariable <http://www.cdisc.org/SDTM_MODEL_EVENTS/V3#CL_--DECOD> ;
.
<http://www.cdisc.org/SDTM_IG_DS/V3#IGD_DSDECOD_TMC1>
	rdf:type bo:TMcReference ;
	isoC:label "NCOMPLT"^^xsd:string ;
	bo:enabled "true"^^xsd:boolean ;
	bo:optional "false"^^xsd:boolean ;
	bo:ordinal "1"^^xsd:positiveInteger ;
	bo:reference <http://www.cdisc.org/C66727/V36#C66727> ;
	bo:context <http://www.cdisc.org/CT/V36#TH> ;
.
<http://www.cdisc.org/SDTM_IG_DS/V3#IGD_DSCAT>
	rdf:type bd:SdtmDomainVariable ;
	isoC:label "Category for Disposition Event"^^xsd:string ;
	bd:rule ""^^xsd:string ;
	bd:ordinal "10"^^xsd:positiveInteger ;
	bd:name "DSCAT"^^xsd:string ;
	bd:description "Used to define a category of related records. DSCAT is now an \"Expected\" variable. DSCAT was permissible in SDTMIG 3.1.1 and earlier versions. The change from \"permissible\" to \"expected\" is based on the requirement to distinguish protocol milestones and/or other events from disposition events. DSCAT may be null if there are only \"disposition events\"; however, it is recommended that DSCAT always be populated."^^xsd:string ;
	bd:format ""^^xsd:string ;
	bd:ctAndFormat "(DSCAT)"^^xsd:string ;
	bd:compliance <http://www.assero.co.uk/CSN#046f6c24-9eaf-4f60-8390-f36328c82ec4> ;
	bd:ctReference <http://www.cdisc.org/SDTM_IG_DS/V3#IGD_DSCAT_TMC1> ;
	bd:basedOnClassVariable <http://www.cdisc.org/SDTM_MODEL_EVENTS/V3#CL_--CAT> ;
	bd:isA <http://www.s-cubed.dk/CAR#a3c686e711e4720f99b4562bb3dbaae7ab658cf2> ;
.
<http://www.cdisc.org/SDTM_IG_DS/V3#IGD_DSCAT_TMC1>
	rdf:type bo:TMcReference ;
	isoC:label "DSCAT"^^xsd:string ;
	bo:enabled "true"^^xsd:boolean ;
	bo:optional "false"^^xsd:boolean ;
	bo:ordinal "1"^^xsd:positiveInteger ;
	bo:reference <http://www.cdisc.org/C74558/V8#C74558> ;
	bo:context <http://www.cdisc.org/CT/V36#TH> ;
.
<http://www.cdisc.org/SDTM_IG_DS/V3#IGD_DSSCAT>
	rdf:type bd:SdtmDomainVariable ;
	isoC:label "Subcategory for Disposition Event"^^xsd:string ;
	bd:rule ""^^xsd:string ;
	bd:ordinal "11"^^xsd:positiveInteger ;
	bd:name "DSSCAT"^^xsd:string ;
	bd:description "A further categorization of disposition event."^^xsd:string ;
	bd:format ""^^xsd:string ;
	bd:ctAndFormat ""^^xsd:string ;
	bd:compliance <http://www.assero.co.uk/CSN#f7d9d4e1-a00a-487e-89db-ebece910ba0d> ;
	bd:basedOnClassVariable <http://www.cdisc.org/SDTM_MODEL_EVENTS/V3#CL_--SCAT> ;
	bd:isA <http://www.s-cubed.dk/CAR#479a67983e739413da55faf0dc509f83fd5dea64> ;
.
<http://www.cdisc.org/SDTM_IG_DS/V3#IGD_EPOCH>
	rdf:type bd:SdtmDomainVariable ;
	isoC:label "Epoch"^^xsd:string ;
	bd:rule ""^^xsd:string ;
	bd:ordinal "12"^^xsd:positiveInteger ;
	bd:name "EPOCH"^^xsd:string ;
	bd:description "EPOCH may be used when DSCAT = \"DISPOSITION EVENT\". Examples: SCREENING, TREATMENT, FOLLOW-UP"^^xsd:string ;
	bd:format ""^^xsd:string ;
	bd:ctAndFormat "(EPOCH)"^^xsd:string ;
	bd:compliance <http://www.assero.co.uk/CSN#f7d9d4e1-a00a-487e-89db-ebece910ba0d> ;
	bd:ctReference <http://www.cdisc.org/SDTM_IG_DS/V3#IGD_EPOCH_TMC1> ;
	bd:basedOnClassVariable <http://www.cdisc.org/SDTM_MODEL_ALL/V3#CL_EPOCH> ;
.
<http://www.cdisc.org/SDTM_IG_DS/V3#IGD_EPOCH_TMC1>
	rdf:type bo:TMcReference ;
	isoC:label "EPOCH"^^xsd:string ;
	bo:enabled "true"^^xsd:boolean ;
	bo:optional "false"^^xsd:boolean ;
	bo:ordinal "1"^^xsd:positiveInteger ;
	bo:reference <http://www.cdisc.org/C99079/V34#C99079> ;
	bo:context <http://www.cdisc.org/CT/V36#TH> ;
.
<http://www.cdisc.org/SDTM_IG_DS/V3#IGD_DSDTC>
	rdf:type bd:SdtmDomainVariable ;
	isoC:label "Date/Time of Collection"^^xsd:string ;
	bd:rule ""^^xsd:string ;
	bd:ordinal "13"^^xsd:positiveInteger ;
	bd:name "DSDTC"^^xsd:string ;
	bd:description ""^^xsd:string ;
	bd:format "ISO 8601"^^xsd:string ;
	bd:ctAndFormat "ISO 8601"^^xsd:string ;
	bd:compliance <http://www.assero.co.uk/CSN#f7d9d4e1-a00a-487e-89db-ebece910ba0d> ;
	bd:basedOnClassVariable <http://www.cdisc.org/SDTM_MODEL_ALL/V3#CL_--DTC> ;
	bd:isA <http://www.s-cubed.dk/CAR#232daabe4ca2dfdb32645c572b1d34ddb4fe9995> ;
.
<http://www.cdisc.org/SDTM_IG_DS/V3#IGD_DSSTDTC>
	rdf:type bd:SdtmDomainVariable ;
	isoC:label "Start Date/Time of Disposition Event"^^xsd:string ;
	bd:rule ""^^xsd:string ;
	bd:ordinal "14"^^xsd:positiveInteger ;
	bd:name "DSSTDTC"^^xsd:string ;
	bd:description ""^^xsd:string ;
	bd:format "ISO 8601"^^xsd:string ;
	bd:ctAndFormat "ISO 8601"^^xsd:string ;
	bd:compliance <http://www.assero.co.uk/CSN#046f6c24-9eaf-4f60-8390-f36328c82ec4> ;
	bd:basedOnClassVariable <http://www.cdisc.org/SDTM_MODEL_ALL/V3#CL_--STDTC> ;
	bd:isA <http://www.s-cubed.dk/CAR#83c87956785cde43c109e30fcbd95cca63a18d38> ;
.
<http://www.cdisc.org/SDTM_IG_DS/V3#IGD_DSSTDY>
	rdf:type bd:SdtmDomainVariable ;
	isoC:label "Study Day of Start of Disposition Event"^^xsd:string ;
	bd:rule ""^^xsd:string ;
	bd:ordinal "15"^^xsd:positiveInteger ;
	bd:name "DSSTDY"^^xsd:string ;
	bd:description "Study day of start of event relative to the sponsor-defined RFSTDTC."^^xsd:string ;
	bd:format ""^^xsd:string ;
	bd:ctAndFormat ""^^xsd:string ;
	bd:compliance <http://www.assero.co.uk/CSN#f7d9d4e1-a00a-487e-89db-ebece910ba0d> ;
	bd:basedOnClassVariable <http://www.cdisc.org/SDTM_MODEL_ALL/V3#CL_--STDY> ;
.
<http://www.cdisc.org/SDTM_IG_DV/V3#IGD>
	rdf:type bd:SdtmDomain ;
	isoC:label "Protocol Deviations"^^xsd:string ;
	isoT:hasState <http://www.cdisc.org/SDTM_IG_DV/V3#IGD_RS> ;
	isoT:hasIdentifier <http://www.cdisc.org/SDTM_IG_DV/V3#IGD_SI> ;
	isoT:hasPreviousVersion <http://www.cdisc.org/SDTM_IG_DV/V2#IGD> ;
	isoT:origin ""^^xsd:string ;
	isoT:changeDescription ""^^xsd:string ;
	isoT:creationDate "2013-11-26T00:00:00+00:00"^^xsd:dateTime ;
	isoT:lastChangeDate "2013-11-26T00:00:00+00:00"^^xsd:dateTime ;
	isoT:explanatoryComment ""^^xsd:string ;
	bd:rule ""^^xsd:string ;
	bd:ordinal "1"^^xsd:positiveInteger ;
	bd:includesColumn <http://www.cdisc.org/SDTM_IG_DV/V1#IGD_STUDYID> ;
	bd:includesColumn <http://www.cdisc.org/SDTM_IG_DV/V2#IGD_DOMAIN> ;
	bd:includesColumn <http://www.cdisc.org/SDTM_IG_DV/V1#IGD_USUBJID> ;
	bd:includesColumn <http://www.cdisc.org/SDTM_IG_DV/V3#IGD_DVSEQ> ;
	bd:includesColumn <http://www.cdisc.org/SDTM_IG_DV/V3#IGD_DVREFID> ;
	bd:includesColumn <http://www.cdisc.org/SDTM_IG_DV/V3#IGD_DVSPID> ;
	bd:includesColumn <http://www.cdisc.org/SDTM_IG_DV/V3#IGD_DVTERM> ;
	bd:includesColumn <http://www.cdisc.org/SDTM_IG_DV/V3#IGD_DVDECOD> ;
	bd:includesColumn <http://www.cdisc.org/SDTM_IG_DV/V3#IGD_DVCAT> ;
	bd:includesColumn <http://www.cdisc.org/SDTM_IG_DV/V3#IGD_DVSCAT> ;
	bd:includesColumn <http://www.cdisc.org/SDTM_IG_DV/V3#IGD_EPOCH> ;
	bd:includesColumn <http://www.cdisc.org/SDTM_IG_DV/V3#IGD_DVSTDTC> ;
	bd:includesColumn <http://www.cdisc.org/SDTM_IG_DV/V3#IGD_DVENDTC> ;
	bd:prefix "DV"^^xsd:string ;
	bd:structure "One record per protocol deviation per subject"^^xsd:string ;
	bd:basedOnClass <http://www.cdisc.org/SDTM_MODEL_EVENTS/V3#CL> ;
.
<http://www.cdisc.org/SDTM_IG_DV/V3#IGD_RS>
	rdf:type isoR:RegistrationState ;
	isoR:registrationStatus "Standard"^^xsd:string ;
	isoR:administrativeNote ""^^xsd:string ;
	isoR:effectiveDate "2016-01-01T00:00:00+00:00"^^xsd:dateTime ;
	isoR:untilDate "2016-01-01T00:00:00+00:00"^^xsd:dateTime ;
	isoR:unresolvedIssue ""^^xsd:string ;
	isoR:administrativeStatus ""^^xsd:string ;
	isoR:previousState "Standard"^^xsd:string ;
	isoR:multipleEdit "false"^^xsd:boolean ;
	isoR:byAuthority <http://www.assero.co.uk/RA#DUNS084433759> ;
.
<http://www.cdisc.org/SDTM_IG_DV/V3#IGD_SI>
	rdf:type isoI:ScopedIdentifier ;
	isoI:identifier "SDTM IG DV"^^xsd:string ;
	isoI:versionLabel "2013-11-26 Release"^^xsd:string ;
	isoI:version "3"^^xsd:positiveInteger ;
	isoI:semanticVersion "3.2.0"^^xsd:string ;
	isoI:hasScope <http://www.assero.co.uk/NS#CDISC> ;
.
<http://www.cdisc.org/SDTM_IG_DV/V3#IGD_DVSEQ>
	rdf:type bd:SdtmDomainVariable ;
	isoC:label "Sequence Number"^^xsd:string ;
	bd:rule ""^^xsd:string ;
	bd:ordinal "4"^^xsd:positiveInteger ;
	bd:name "DVSEQ"^^xsd:string ;
	bd:description "Sequence Number given to ensure uniqueness of subject records within a domain. May be any valid number."^^xsd:string ;
	bd:format ""^^xsd:string ;
	bd:ctAndFormat ""^^xsd:string ;
	bd:compliance <http://www.assero.co.uk/CSN#52070084-cdd3-4ba8-8377-f670e4b0276c> ;
	bd:basedOnClassVariable <http://www.cdisc.org/SDTM_MODEL_ALL/V3#CL_--SEQ> ;
.
<http://www.cdisc.org/SDTM_IG_DV/V3#IGD_DVREFID>
	rdf:type bd:SdtmDomainVariable ;
	isoC:label "Reference ID"^^xsd:string ;
	bd:rule ""^^xsd:string ;
	bd:ordinal "5"^^xsd:positiveInteger ;
	bd:name "DVREFID"^^xsd:string ;
	bd:description "Internal or external identifier."^^xsd:string ;
	bd:format ""^^xsd:string ;
	bd:ctAndFormat ""^^xsd:string ;
	bd:compliance <http://www.assero.co.uk/CSN#f7d9d4e1-a00a-487e-89db-ebece910ba0d> ;
	bd:basedOnClassVariable <http://www.cdisc.org/SDTM_MODEL_ALL/V3#CL_--REFID> ;
.
<http://www.cdisc.org/SDTM_IG_DV/V3#IGD_DVSPID>
	rdf:type bd:SdtmDomainVariable ;
	isoC:label "Sponsor-Defined Identifier"^^xsd:string ;
	bd:rule ""^^xsd:string ;
	bd:ordinal "6"^^xsd:positiveInteger ;
	bd:name "DVSPID"^^xsd:string ;
	bd:description "Sponsor-defined reference number. Perhaps pre-printed on the CRF as an explicit line identifier or defined in the sponsor's operational database. Example: Line number on a CRF page."^^xsd:string ;
	bd:format ""^^xsd:string ;
	bd:ctAndFormat ""^^xsd:string ;
	bd:compliance <http://www.assero.co.uk/CSN#f7d9d4e1-a00a-487e-89db-ebece910ba0d> ;
	bd:basedOnClassVariable <http://www.cdisc.org/SDTM_MODEL_ALL/V3#CL_--SPID> ;
.
<http://www.cdisc.org/SDTM_IG_DV/V3#IGD_DVTERM>
	rdf:type bd:SdtmDomainVariable ;
	isoC:label "Protocol Deviation Term"^^xsd:string ;
	bd:rule ""^^xsd:string ;
	bd:ordinal "7"^^xsd:positiveInteger ;
	bd:name "DVTERM"^^xsd:string ;
	bd:description "Verbatim name of the protocol deviation criterion. Example: IVRS PROCESS DEVIATION - NO DOSE CALL PERFORMED. The DVTERM values will map to the controlled terminology in DVDECOD, such as TREATMENT DEVIATION."^^xsd:string ;
	bd:format ""^^xsd:string ;
	bd:ctAndFormat ""^^xsd:string ;
	bd:compliance <http://www.assero.co.uk/CSN#52070084-cdd3-4ba8-8377-f670e4b0276c> ;
	bd:basedOnClassVariable <http://www.cdisc.org/SDTM_MODEL_EVENTS/V3#CL_--TERM> ;
	bd:isA <http://www.s-cubed.dk/CAR#2a4eb8036d87ab68656ba5b80bbf77123f088904> ;
.
<http://www.cdisc.org/SDTM_IG_DV/V3#IGD_DVDECOD>
	rdf:type bd:SdtmDomainVariable ;
	isoC:label "Protocol Deviation Coded Term"^^xsd:string ;
	bd:rule ""^^xsd:string ;
	bd:ordinal "8"^^xsd:positiveInteger ;
	bd:name "DVDECOD"^^xsd:string ;
	bd:description "Controlled terminology for the name of the protocol deviation. Examples:\nSUBJECT NOT WITHDRAWN AS PER PROTOCOL, SELECTION CRITERIA NOT MET, EXCLUDED CONCOMITANT MEDICATION, TREATMENT DEVIATION."^^xsd:string ;
	bd:format ""^^xsd:string ;
	bd:ctAndFormat ""^^xsd:string ;
	bd:compliance <http://www.assero.co.uk/CSN#f7d9d4e1-a00a-487e-89db-ebece910ba0d> ;
	bd:basedOnClassVariable <http://www.cdisc.org/SDTM_MODEL_EVENTS/V3#CL_--DECOD> ;
.
<http://www.cdisc.org/SDTM_IG_DV/V3#IGD_DVCAT>
	rdf:type bd:SdtmDomainVariable ;
	isoC:label "Category for Protocol Deviation"^^xsd:string ;
	bd:rule ""^^xsd:string ;
	bd:ordinal "9"^^xsd:positiveInteger ;
	bd:name "DVCAT"^^xsd:string ;
	bd:description "Category of the protocol deviation criterion."^^xsd:string ;
	bd:format ""^^xsd:string ;
	bd:ctAndFormat ""^^xsd:string ;
	bd:compliance <http://www.assero.co.uk/CSN#f7d9d4e1-a00a-487e-89db-ebece910ba0d> ;
	bd:basedOnClassVariable <http://www.cdisc.org/SDTM_MODEL_EVENTS/V3#CL_--CAT> ;
	bd:isA <http://www.s-cubed.dk/CAR#a3c686e711e4720f99b4562bb3dbaae7ab658cf2> ;
.
<http://www.cdisc.org/SDTM_IG_DV/V3#IGD_DVSCAT>
	rdf:type bd:SdtmDomainVariable ;
	isoC:label "Subcategory for Protocol Deviation"^^xsd:string ;
	bd:rule ""^^xsd:string ;
	bd:ordinal "10"^^xsd:positiveInteger ;
	bd:name "DVSCAT"^^xsd:string ;
	bd:description "A further categorization of the protocol deviation."^^xsd:string ;
	bd:format ""^^xsd:string ;
	bd:ctAndFormat ""^^xsd:string ;
	bd:compliance <http://www.assero.co.uk/CSN#f7d9d4e1-a00a-487e-89db-ebece910ba0d> ;
	bd:basedOnClassVariable <http://www.cdisc.org/SDTM_MODEL_EVENTS/V3#CL_--SCAT> ;
	bd:isA <http://www.s-cubed.dk/CAR#479a67983e739413da55faf0dc509f83fd5dea64> ;
.
<http://www.cdisc.org/SDTM_IG_DV/V3#IGD_EPOCH>
	rdf:type bd:SdtmDomainVariable ;
	isoC:label "Epoch"^^xsd:string ;
	bd:rule ""^^xsd:string ;
	bd:ordinal "11"^^xsd:positiveInteger ;
	bd:name "EPOCH"^^xsd:string ;
	bd:description "Epoch associated with the start date/time of the deviation. Examples: TREATMENT PHASE, SCREENING, and FOLLOW-UP."^^xsd:string ;
	bd:format ""^^xsd:string ;
	bd:ctAndFormat "(EPOCH)"^^xsd:string ;
	bd:compliance <http://www.assero.co.uk/CSN#f7d9d4e1-a00a-487e-89db-ebece910ba0d> ;
	bd:ctReference <http://www.cdisc.org/SDTM_IG_DV/V3#IGD_EPOCH_TMC1> ;
	bd:basedOnClassVariable <http://www.cdisc.org/SDTM_MODEL_ALL/V3#CL_EPOCH> ;
.
<http://www.cdisc.org/SDTM_IG_DV/V3#IGD_EPOCH_TMC1>
	rdf:type bo:TMcReference ;
	isoC:label "EPOCH"^^xsd:string ;
	bo:enabled "true"^^xsd:boolean ;
	bo:optional "false"^^xsd:boolean ;
	bo:ordinal "1"^^xsd:positiveInteger ;
	bo:reference <http://www.cdisc.org/C99079/V34#C99079> ;
	bo:context <http://www.cdisc.org/CT/V36#TH> ;
.
<http://www.cdisc.org/SDTM_IG_DV/V3#IGD_DVSTDTC>
	rdf:type bd:SdtmDomainVariable ;
	isoC:label "Start Date/Time of Deviation"^^xsd:string ;
	bd:rule ""^^xsd:string ;
	bd:ordinal "12"^^xsd:positiveInteger ;
	bd:name "DVSTDTC"^^xsd:string ;
	bd:description "Start date/time of deviation represented in ISO 8601 character format."^^xsd:string ;
	bd:format "ISO 8601"^^xsd:string ;
	bd:ctAndFormat "ISO 8601"^^xsd:string ;
	bd:compliance <http://www.assero.co.uk/CSN#f7d9d4e1-a00a-487e-89db-ebece910ba0d> ;
	bd:basedOnClassVariable <http://www.cdisc.org/SDTM_MODEL_ALL/V3#CL_--STDTC> ;
	bd:isA <http://www.s-cubed.dk/CAR#83c87956785cde43c109e30fcbd95cca63a18d38> ;
.
<http://www.cdisc.org/SDTM_IG_DV/V3#IGD_DVENDTC>
	rdf:type bd:SdtmDomainVariable ;
	isoC:label "End Date/Time of Deviation"^^xsd:string ;
	bd:rule ""^^xsd:string ;
	bd:ordinal "13"^^xsd:positiveInteger ;
	bd:name "DVENDTC"^^xsd:string ;
	bd:description "End date/time of deviation represented in ISO 8601 character format."^^xsd:string ;
	bd:format "ISO 8601"^^xsd:string ;
	bd:ctAndFormat "ISO 8601"^^xsd:string ;
	bd:compliance <http://www.assero.co.uk/CSN#f7d9d4e1-a00a-487e-89db-ebece910ba0d> ;
	bd:basedOnClassVariable <http://www.cdisc.org/SDTM_MODEL_ALL/V3#CL_--ENDTC> ;
	bd:isA <http://www.s-cubed.dk/CAR#71c54c70967ea84127e4bd588bd627ec0e581dfb> ;
.
<http://www.cdisc.org/SDTM_IG_MH/V3#IGD>
	rdf:type bd:SdtmDomain ;
	isoC:label "Medical History"^^xsd:string ;
	isoT:hasState <http://www.cdisc.org/SDTM_IG_MH/V3#IGD_RS> ;
	isoT:hasIdentifier <http://www.cdisc.org/SDTM_IG_MH/V3#IGD_SI> ;
	isoT:hasPreviousVersion <http://www.cdisc.org/SDTM_IG_MH/V2#IGD> ;
	isoT:origin ""^^xsd:string ;
	isoT:changeDescription ""^^xsd:string ;
	isoT:creationDate "2013-11-26T00:00:00+00:00"^^xsd:dateTime ;
	isoT:lastChangeDate "2013-11-26T00:00:00+00:00"^^xsd:dateTime ;
	isoT:explanatoryComment ""^^xsd:string ;
	bd:rule ""^^xsd:string ;
	bd:ordinal "1"^^xsd:positiveInteger ;
	bd:includesColumn <http://www.cdisc.org/SDTM_IG_MH/V1#IGD_STUDYID> ;
	bd:includesColumn <http://www.cdisc.org/SDTM_IG_MH/V2#IGD_DOMAIN> ;
	bd:includesColumn <http://www.cdisc.org/SDTM_IG_MH/V1#IGD_USUBJID> ;
	bd:includesColumn <http://www.cdisc.org/SDTM_IG_MH/V3#IGD_MHSEQ> ;
	bd:includesColumn <http://www.cdisc.org/SDTM_IG_MH/V3#IGD_MHGRPID> ;
	bd:includesColumn <http://www.cdisc.org/SDTM_IG_MH/V3#IGD_MHREFID> ;
	bd:includesColumn <http://www.cdisc.org/SDTM_IG_MH/V3#IGD_MHSPID> ;
	bd:includesColumn <http://www.cdisc.org/SDTM_IG_MH/V3#IGD_MHTERM> ;
	bd:includesColumn <http://www.cdisc.org/SDTM_IG_MH/V3#IGD_MHMODIFY> ;
	bd:includesColumn <http://www.cdisc.org/SDTM_IG_MH/V3#IGD_MHDECOD> ;
	bd:includesColumn <http://www.cdisc.org/SDTM_IG_MH/V3#IGD_MHCAT> ;
	bd:includesColumn <http://www.cdisc.org/SDTM_IG_MH/V3#IGD_MHSCAT> ;
	bd:includesColumn <http://www.cdisc.org/SDTM_IG_MH/V3#IGD_MHPRESP> ;
	bd:includesColumn <http://www.cdisc.org/SDTM_IG_MH/V3#IGD_MHOCCUR> ;
	bd:includesColumn <http://www.cdisc.org/SDTM_IG_MH/V3#IGD_MHSTAT> ;
	bd:includesColumn <http://www.cdisc.org/SDTM_IG_MH/V3#IGD_MHREASND> ;
	bd:includesColumn <http://www.cdisc.org/SDTM_IG_MH/V3#IGD_MHBODSYS> ;
	bd:includesColumn <http://www.cdisc.org/SDTM_IG_MH/V3#IGD_MHDTC> ;
	bd:includesColumn <http://www.cdisc.org/SDTM_IG_MH/V3#IGD_MHSTDTC> ;
	bd:includesColumn <http://www.cdisc.org/SDTM_IG_MH/V3#IGD_MHENDTC> ;
	bd:includesColumn <http://www.cdisc.org/SDTM_IG_MH/V3#IGD_MHDY> ;
	bd:includesColumn <http://www.cdisc.org/SDTM_IG_MH/V3#IGD_MHENRF> ;
	bd:includesColumn <http://www.cdisc.org/SDTM_IG_MH/V3#IGD_MHENRTPT> ;
	bd:includesColumn <http://www.cdisc.org/SDTM_IG_MH/V3#IGD_MHENTPT> ;
	bd:prefix "MH"^^xsd:string ;
	bd:structure "One record per medical history event per subject"^^xsd:string ;
	bd:basedOnClass <http://www.cdisc.org/SDTM_MODEL_EVENTS/V3#CL> ;
.
<http://www.cdisc.org/SDTM_IG_MH/V3#IGD_RS>
	rdf:type isoR:RegistrationState ;
	isoR:registrationStatus "Standard"^^xsd:string ;
	isoR:administrativeNote ""^^xsd:string ;
	isoR:effectiveDate "2016-01-01T00:00:00+00:00"^^xsd:dateTime ;
	isoR:untilDate "2016-01-01T00:00:00+00:00"^^xsd:dateTime ;
	isoR:unresolvedIssue ""^^xsd:string ;
	isoR:administrativeStatus ""^^xsd:string ;
	isoR:previousState "Standard"^^xsd:string ;
	isoR:multipleEdit "false"^^xsd:boolean ;
	isoR:byAuthority <http://www.assero.co.uk/RA#DUNS084433759> ;
.
<http://www.cdisc.org/SDTM_IG_MH/V3#IGD_SI>
	rdf:type isoI:ScopedIdentifier ;
	isoI:identifier "SDTM IG MH"^^xsd:string ;
	isoI:versionLabel "2013-11-26 Release"^^xsd:string ;
	isoI:version "3"^^xsd:positiveInteger ;
	isoI:semanticVersion "3.2.0"^^xsd:string ;
	isoI:hasScope <http://www.assero.co.uk/NS#CDISC> ;
.
<http://www.cdisc.org/SDTM_IG_MH/V3#IGD_MHSEQ>
	rdf:type bd:SdtmDomainVariable ;
	isoC:label "Sequence Number"^^xsd:string ;
	bd:rule ""^^xsd:string ;
	bd:ordinal "4"^^xsd:positiveInteger ;
	bd:name "MHSEQ"^^xsd:string ;
	bd:description "Sequence Number given to ensure uniqueness of subject records within a domain. May be any valid number."^^xsd:string ;
	bd:format ""^^xsd:string ;
	bd:ctAndFormat ""^^xsd:string ;
	bd:compliance <http://www.assero.co.uk/CSN#52070084-cdd3-4ba8-8377-f670e4b0276c> ;
	bd:basedOnClassVariable <http://www.cdisc.org/SDTM_MODEL_ALL/V3#CL_--SEQ> ;
.
<http://www.cdisc.org/SDTM_IG_MH/V3#IGD_MHGRPID>
	rdf:type bd:SdtmDomainVariable ;
	isoC:label "Group ID"^^xsd:string ;
	bd:rule ""^^xsd:string ;
	bd:ordinal "5"^^xsd:positiveInteger ;
	bd:name "MHGRPID"^^xsd:string ;
	bd:description "Used to tie together a block of related records in a single domain for a subject."^^xsd:string ;
	bd:format ""^^xsd:string ;
	bd:ctAndFormat ""^^xsd:string ;
	bd:compliance <http://www.assero.co.uk/CSN#f7d9d4e1-a00a-487e-89db-ebece910ba0d> ;
	bd:basedOnClassVariable <http://www.cdisc.org/SDTM_MODEL_ALL/V3#CL_--GRPID> ;
.
<http://www.cdisc.org/SDTM_IG_MH/V3#IGD_MHREFID>
	rdf:type bd:SdtmDomainVariable ;
	isoC:label "Reference ID"^^xsd:string ;
	bd:rule ""^^xsd:string ;
	bd:ordinal "6"^^xsd:positiveInteger ;
	bd:name "MHREFID"^^xsd:string ;
	bd:description "Internal or external medical history identifier."^^xsd:string ;
	bd:format ""^^xsd:string ;
	bd:ctAndFormat ""^^xsd:string ;
	bd:compliance <http://www.assero.co.uk/CSN#f7d9d4e1-a00a-487e-89db-ebece910ba0d> ;
	bd:basedOnClassVariable <http://www.cdisc.org/SDTM_MODEL_ALL/V3#CL_--REFID> ;
.
<http://www.cdisc.org/SDTM_IG_MH/V3#IGD_MHSPID>
	rdf:type bd:SdtmDomainVariable ;
	isoC:label "Sponsor-Defined Identifier"^^xsd:string ;
	bd:rule ""^^xsd:string ;
	bd:ordinal "7"^^xsd:positiveInteger ;
	bd:name "MHSPID"^^xsd:string ;
	bd:description "Sponsor-defined reference number. Perhaps pre-printed on the CRF as an explicit line identifier or defined in the sponsor's operational database. Example: Line number on a Medical History page."^^xsd:string ;
	bd:format ""^^xsd:string ;
	bd:ctAndFormat ""^^xsd:string ;
	bd:compliance <http://www.assero.co.uk/CSN#f7d9d4e1-a00a-487e-89db-ebece910ba0d> ;
	bd:basedOnClassVariable <http://www.cdisc.org/SDTM_MODEL_ALL/V3#CL_--SPID> ;
.
<http://www.cdisc.org/SDTM_IG_MH/V3#IGD_MHTERM>
	rdf:type bd:SdtmDomainVariable ;
	isoC:label "Reported Term for the Medical History"^^xsd:string ;
	bd:rule ""^^xsd:string ;
	bd:ordinal "8"^^xsd:positiveInteger ;
	bd:name "MHTERM"^^xsd:string ;
	bd:description "Verbatim or preprinted CRF term for the medical condition or event."^^xsd:string ;
	bd:format ""^^xsd:string ;
	bd:ctAndFormat ""^^xsd:string ;
	bd:compliance <http://www.assero.co.uk/CSN#52070084-cdd3-4ba8-8377-f670e4b0276c> ;
	bd:basedOnClassVariable <http://www.cdisc.org/SDTM_MODEL_EVENTS/V3#CL_--TERM> ;
	bd:isA <http://www.s-cubed.dk/CAR#2a4eb8036d87ab68656ba5b80bbf77123f088904> ;
.
<http://www.cdisc.org/SDTM_IG_MH/V3#IGD_MHMODIFY>
	rdf:type bd:SdtmDomainVariable ;
	isoC:label "Modified Reported Term"^^xsd:string ;
	bd:rule ""^^xsd:string ;
	bd:ordinal "9"^^xsd:positiveInteger ;
	bd:name "MHMODIFY"^^xsd:string ;
	bd:description "If MHTERM is modified to facilitate coding, then MHMODIFY will contain the modified text."^^xsd:string ;
	bd:format ""^^xsd:string ;
	bd:ctAndFormat ""^^xsd:string ;
	bd:compliance <http://www.assero.co.uk/CSN#f7d9d4e1-a00a-487e-89db-ebece910ba0d> ;
	bd:basedOnClassVariable <http://www.cdisc.org/SDTM_MODEL_EVENTS/V3#CL_--MODIFY> ;
.
<http://www.cdisc.org/SDTM_IG_MH/V3#IGD_MHDECOD>
	rdf:type bd:SdtmDomainVariable ;
	isoC:label "Dictionary-Derived Term"^^xsd:string ;
	bd:rule ""^^xsd:string ;
	bd:ordinal "10"^^xsd:positiveInteger ;
	bd:name "MHDECOD"^^xsd:string ;
	bd:description "Dictionary-derived text description of MHTERM or MHMODIFY. Equivalent to the Preferred Term (PT in MedDRA). The sponsor is expected to provide the dictionary name and version used to map the terms utilizing the define.xml external codelist attributes."^^xsd:string ;
	bd:format ""^^xsd:string ;
	bd:ctAndFormat ""^^xsd:string ;
	bd:compliance <http://www.assero.co.uk/CSN#f7d9d4e1-a00a-487e-89db-ebece910ba0d> ;
	bd:basedOnClassVariable <http://www.cdisc.org/SDTM_MODEL_EVENTS/V3#CL_--DECOD> ;
.
<http://www.cdisc.org/SDTM_IG_MH/V3#IGD_MHCAT>
	rdf:type bd:SdtmDomainVariable ;
	isoC:label "Category for Medical History"^^xsd:string ;
	bd:rule ""^^xsd:string ;
	bd:ordinal "11"^^xsd:positiveInteger ;
	bd:name "MHCAT"^^xsd:string ;
	bd:description "Used to define a category of related records. Examples: CARDIAC or GENERAL"^^xsd:string ;
	bd:format ""^^xsd:string ;
	bd:ctAndFormat ""^^xsd:string ;
	bd:compliance <http://www.assero.co.uk/CSN#f7d9d4e1-a00a-487e-89db-ebece910ba0d> ;
	bd:basedOnClassVariable <http://www.cdisc.org/SDTM_MODEL_EVENTS/V3#CL_--CAT> ;
	bd:isA <http://www.s-cubed.dk/CAR#a3c686e711e4720f99b4562bb3dbaae7ab658cf2> ;
.
<http://www.cdisc.org/SDTM_IG_MH/V3#IGD_MHSCAT>
	rdf:type bd:SdtmDomainVariable ;
	isoC:label "Subcategory for Medical History"^^xsd:string ;
	bd:rule ""^^xsd:string ;
	bd:ordinal "12"^^xsd:positiveInteger ;
	bd:name "MHSCAT"^^xsd:string ;
	bd:description "A further categorization of the condition or event."^^xsd:string ;
	bd:format ""^^xsd:string ;
	bd:ctAndFormat ""^^xsd:string ;
	bd:compliance <http://www.assero.co.uk/CSN#f7d9d4e1-a00a-487e-89db-ebece910ba0d> ;
	bd:basedOnClassVariable <http://www.cdisc.org/SDTM_MODEL_EVENTS/V3#CL_--SCAT> ;
	bd:isA <http://www.s-cubed.dk/CAR#479a67983e739413da55faf0dc509f83fd5dea64> ;
.
<http://www.cdisc.org/SDTM_IG_MH/V3#IGD_MHPRESP>
	rdf:type bd:SdtmDomainVariable ;
	isoC:label "Medical History Event Pre-Specified"^^xsd:string ;
	bd:rule ""^^xsd:string ;
	bd:ordinal "13"^^xsd:positiveInteger ;
	bd:name "MHPRESP"^^xsd:string ;
	bd:description "A value of \"Y\" indicates that this medical history event was pre-specified on the CRF. Values are null for spontaneously reported events (i.e., those collected as free-text verbatim terms)"^^xsd:string ;
	bd:format ""^^xsd:string ;
	bd:ctAndFormat "(NY)"^^xsd:string ;
	bd:compliance <http://www.assero.co.uk/CSN#f7d9d4e1-a00a-487e-89db-ebece910ba0d> ;
	bd:ctReference <http://www.cdisc.org/SDTM_IG_MH/V3#IGD_MHPRESP_TMC1> ;
	bd:basedOnClassVariable <http://www.cdisc.org/SDTM_MODEL_EVENTS/V3#CL_--PRESP> ;
.
<http://www.cdisc.org/SDTM_IG_MH/V3#IGD_MHPRESP_TMC1>
	rdf:type bo:TMcReference ;
	isoC:label "NY"^^xsd:string ;
	bo:enabled "true"^^xsd:boolean ;
	bo:optional "false"^^xsd:boolean ;
	bo:ordinal "1"^^xsd:positiveInteger ;
	bo:reference <http://www.cdisc.org/C66742/V36#C66742> ;
	bo:context <http://www.cdisc.org/CT/V36#TH> ;
.
<http://www.cdisc.org/SDTM_IG_MH/V3#IGD_MHOCCUR>
	rdf:type bd:SdtmDomainVariable ;
	isoC:label "Medical History Occurrence"^^xsd:string ;
	bd:rule ""^^xsd:string ;
	bd:ordinal "14"^^xsd:positiveInteger ;
	bd:name "MHOCCUR"^^xsd:string ;
	bd:description "Used when the occurrence of specific medical history conditions is solicited to indicate whether or not (Y/N) a medical condition (MHTERM) had ever occurred. Values are null for spontaneously reported events."^^xsd:string ;
	bd:format ""^^xsd:string ;
	bd:ctAndFormat "(NY)"^^xsd:string ;
	bd:compliance <http://www.assero.co.uk/CSN#f7d9d4e1-a00a-487e-89db-ebece910ba0d> ;
	bd:ctReference <http://www.cdisc.org/SDTM_IG_MH/V3#IGD_MHOCCUR_TMC1> ;
	bd:basedOnClassVariable <http://www.cdisc.org/SDTM_MODEL_EVENTS/V3#CL_--OCCUR> ;
.
<http://www.cdisc.org/SDTM_IG_MH/V3#IGD_MHOCCUR_TMC1>
	rdf:type bo:TMcReference ;
	isoC:label "NY"^^xsd:string ;
	bo:enabled "true"^^xsd:boolean ;
	bo:optional "false"^^xsd:boolean ;
	bo:ordinal "1"^^xsd:positiveInteger ;
	bo:reference <http://www.cdisc.org/C66742/V36#C66742> ;
	bo:context <http://www.cdisc.org/CT/V36#TH> ;
.
<http://www.cdisc.org/SDTM_IG_MH/V3#IGD_MHSTAT>
	rdf:type bd:SdtmDomainVariable ;
	isoC:label "Completion Status"^^xsd:string ;
	bd:rule ""^^xsd:string ;
	bd:ordinal "15"^^xsd:positiveInteger ;
	bd:name "MHSTAT"^^xsd:string ;
	bd:description "The status indicates that the pre-specified question was not asked/answered."^^xsd:string ;
	bd:format ""^^xsd:string ;
	bd:ctAndFormat "(ND)"^^xsd:string ;
	bd:compliance <http://www.assero.co.uk/CSN#f7d9d4e1-a00a-487e-89db-ebece910ba0d> ;
	bd:ctReference <http://www.cdisc.org/SDTM_IG_MH/V3#IGD_MHSTAT_TMC1> ;
	bd:basedOnClassVariable <http://www.cdisc.org/SDTM_MODEL_EVENTS/V3#CL_--STAT> ;
	bd:isA <http://www.s-cubed.dk/CAR#bae7d5be70820ed56467bd9a63744e23b47bd711> ;
.
<http://www.cdisc.org/SDTM_IG_MH/V3#IGD_MHSTAT_TMC1>
	rdf:type bo:TMcReference ;
	isoC:label "ND"^^xsd:string ;
	bo:enabled "true"^^xsd:boolean ;
	bo:optional "false"^^xsd:boolean ;
	bo:ordinal "1"^^xsd:positiveInteger ;
	bo:reference <http://www.cdisc.org/C66789/V13#C66789> ;
	bo:context <http://www.cdisc.org/CT/V36#TH> ;
.
<http://www.cdisc.org/SDTM_IG_MH/V3#IGD_MHREASND>
	rdf:type bd:SdtmDomainVariable ;
	isoC:label "Reason Medical History Not Done or Not Occurred"^^xsd:string ;
	bd:rule ""^^xsd:string ;
	bd:ordinal "16"^^xsd:positiveInteger ;
	bd:name "MHREASND"^^xsd:string ;
	bd:description "Reason the question was not asked/answered or an intervention did not occur. Used in conjunction with negation indicators --STAT of 'NOT DONE' or --OCCUR of 'N'"^^xsd:string ;
	bd:format ""^^xsd:string ;
	bd:ctAndFormat ""^^xsd:string ;
	bd:compliance <http://www.assero.co.uk/CSN#f7d9d4e1-a00a-487e-89db-ebece910ba0d> ;
	bd:basedOnClassVariable <http://www.cdisc.org/SDTM_MODEL_EVENTS/V3#CL_--REASND> ;
.
<http://www.cdisc.org/SDTM_IG_MH/V3#IGD_MHBODSYS>
	rdf:type bd:SdtmDomainVariable ;
	isoC:label "Body System or Organ Class"^^xsd:string ;
	bd:rule ""^^xsd:string ;
	bd:ordinal "17"^^xsd:positiveInteger ;
	bd:name "MHBODSYS"^^xsd:string ;
	bd:description "Dictionary-derived. Body system or organ class that is involved in an event or measurement from a standard hierarchy (e.g., MedDRA). When using a multi-axial dictionary such as MedDRA, this should contain the SOC used for the sponsor's analyses and summary tables which may not necessarily be the primary SOC."^^xsd:string ;
	bd:format ""^^xsd:string ;
	bd:ctAndFormat ""^^xsd:string ;
	bd:compliance <http://www.assero.co.uk/CSN#f7d9d4e1-a00a-487e-89db-ebece910ba0d> ;
	bd:basedOnClassVariable <http://www.cdisc.org/SDTM_MODEL_EVENTS/V3#CL_--BODSYS> ;
.
<http://www.cdisc.org/SDTM_IG_MH/V3#IGD_MHDTC>
	rdf:type bd:SdtmDomainVariable ;
	isoC:label "Date/Time of History Collection"^^xsd:string ;
	bd:rule ""^^xsd:string ;
	bd:ordinal "18"^^xsd:positiveInteger ;
	bd:name "MHDTC"^^xsd:string ;
	bd:description ""^^xsd:string ;
	bd:format "ISO 8601"^^xsd:string ;
	bd:ctAndFormat "ISO 8601"^^xsd:string ;
	bd:compliance <http://www.assero.co.uk/CSN#f7d9d4e1-a00a-487e-89db-ebece910ba0d> ;
	bd:basedOnClassVariable <http://www.cdisc.org/SDTM_MODEL_ALL/V3#CL_--DTC> ;
	bd:isA <http://www.s-cubed.dk/CAR#232daabe4ca2dfdb32645c572b1d34ddb4fe9995> ;
.
<http://www.cdisc.org/SDTM_IG_MH/V3#IGD_MHSTDTC>
	rdf:type bd:SdtmDomainVariable ;
	isoC:label "Start Date/Time of Medical History Event"^^xsd:string ;
	bd:rule ""^^xsd:string ;
	bd:ordinal "19"^^xsd:positiveInteger ;
	bd:name "MHSTDTC"^^xsd:string ;
	bd:description ""^^xsd:string ;
	bd:format "ISO 8601"^^xsd:string ;
	bd:ctAndFormat "ISO 8601"^^xsd:string ;
	bd:compliance <http://www.assero.co.uk/CSN#f7d9d4e1-a00a-487e-89db-ebece910ba0d> ;
	bd:basedOnClassVariable <http://www.cdisc.org/SDTM_MODEL_ALL/V3#CL_--STDTC> ;
	bd:isA <http://www.s-cubed.dk/CAR#83c87956785cde43c109e30fcbd95cca63a18d38> ;
.
<http://www.cdisc.org/SDTM_IG_MH/V3#IGD_MHENDTC>
	rdf:type bd:SdtmDomainVariable ;
	isoC:label "End Date/Time of Medical History Event"^^xsd:string ;
	bd:rule ""^^xsd:string ;
	bd:ordinal "20"^^xsd:positiveInteger ;
	bd:name "MHENDTC"^^xsd:string ;
	bd:description ""^^xsd:string ;
	bd:format "ISO 8601"^^xsd:string ;
	bd:ctAndFormat "ISO 8601"^^xsd:string ;
	bd:compliance <http://www.assero.co.uk/CSN#f7d9d4e1-a00a-487e-89db-ebece910ba0d> ;
	bd:basedOnClassVariable <http://www.cdisc.org/SDTM_MODEL_ALL/V3#CL_--ENDTC> ;
	bd:isA <http://www.s-cubed.dk/CAR#71c54c70967ea84127e4bd588bd627ec0e581dfb> ;
.
<http://www.cdisc.org/SDTM_IG_MH/V3#IGD_MHDY>
	rdf:type bd:SdtmDomainVariable ;
	isoC:label "Study Day of History Collection"^^xsd:string ;
	bd:rule ""^^xsd:string ;
	bd:ordinal "21"^^xsd:positiveInteger ;
	bd:name "MHDY"^^xsd:string ;
	bd:description "1. Study day of medical history collection, measured as integer days.\n2. Algorithm for calculations must be relative to the sponsor-defined RFSTDTC variable in Demographics. This formula should be consistent across the submission."^^xsd:string ;
	bd:format ""^^xsd:string ;
	bd:ctAndFormat ""^^xsd:string ;
	bd:compliance <http://www.assero.co.uk/CSN#f7d9d4e1-a00a-487e-89db-ebece910ba0d> ;
	bd:basedOnClassVariable <http://www.cdisc.org/SDTM_MODEL_ALL/V3#CL_--DY> ;
.
<http://www.cdisc.org/SDTM_IG_MH/V3#IGD_MHENRF>
	rdf:type bd:SdtmDomainVariable ;
	isoC:label "End Relative to Reference Period"^^xsd:string ;
	bd:rule ""^^xsd:string ;
	bd:ordinal "22"^^xsd:positiveInteger ;
	bd:name "MHENRF"^^xsd:string ;
	bd:description "Describes the end of the event relative to the sponsor-defined reference period. The sponsor-defined reference period is a continuous period of time defined by a discrete starting point and a discrete ending point (represented by RFSTDTC and RFENDTC in Demographics)"^^xsd:string ;
	bd:format ""^^xsd:string ;
	bd:ctAndFormat "(STENRF)"^^xsd:string ;
	bd:compliance <http://www.assero.co.uk/CSN#f7d9d4e1-a00a-487e-89db-ebece910ba0d> ;
	bd:ctReference <http://www.cdisc.org/SDTM_IG_MH/V3#IGD_MHENRF_TMC1> ;
	bd:basedOnClassVariable <http://www.cdisc.org/SDTM_MODEL_ALL/V3#CL_--ENRF> ;
.
<http://www.cdisc.org/SDTM_IG_MH/V3#IGD_MHENRF_TMC1>
	rdf:type bo:TMcReference ;
	isoC:label "STENRF"^^xsd:string ;
	bo:enabled "true"^^xsd:boolean ;
	bo:optional "false"^^xsd:boolean ;
	bo:ordinal "1"^^xsd:positiveInteger ;
	bo:reference <http://www.cdisc.org/C66728/V27#C66728> ;
	bo:context <http://www.cdisc.org/CT/V36#TH> ;
.
<http://www.cdisc.org/SDTM_IG_MH/V3#IGD_MHENRTPT>
	rdf:type bd:SdtmDomainVariable ;
	isoC:label "End Relative to Reference Time Point"^^xsd:string ;
	bd:rule ""^^xsd:string ;
	bd:ordinal "23"^^xsd:positiveInteger ;
	bd:name "MHENRTPT"^^xsd:string ;
	bd:description "Identifies the end of the event as being before or after the reference time point defined by variable MHENTPT."^^xsd:string ;
	bd:format "BEFORE, AFTER, COINCIDENT, ONGOING, U"^^xsd:string ;
	bd:ctAndFormat "BEFORE, AFTER, COINCIDENT, ONGOING, U"^^xsd:string ;
	bd:compliance <http://www.assero.co.uk/CSN#f7d9d4e1-a00a-487e-89db-ebece910ba0d> ;
	bd:basedOnClassVariable <http://www.cdisc.org/SDTM_MODEL_ALL/V3#CL_--ENRTPT> ;
.
<http://www.cdisc.org/SDTM_IG_MH/V3#IGD_MHENTPT>
	rdf:type bd:SdtmDomainVariable ;
	isoC:label "End Reference Time Point"^^xsd:string ;
	bd:rule ""^^xsd:string ;
	bd:ordinal "24"^^xsd:positiveInteger ;
	bd:name "MHENTPT"^^xsd:string ;
	bd:description "Description or date/time in ISO 8601 character format of the reference point referred to by MHENRTPT. Examples: \"2003-12-25\" or \"VISIT 2\"."^^xsd:string ;
	bd:format ""^^xsd:string ;
	bd:ctAndFormat ""^^xsd:string ;
	bd:compliance <http://www.assero.co.uk/CSN#f7d9d4e1-a00a-487e-89db-ebece910ba0d> ;
	bd:basedOnClassVariable <http://www.cdisc.org/SDTM_MODEL_ALL/V3#CL_--ENTPT> ;
.
<http://www.cdisc.org/SDTM_IG_DA/V3#IGD>
	rdf:type bd:SdtmDomain ;
	isoC:label "Drug Accountability"^^xsd:string ;
	isoT:hasState <http://www.cdisc.org/SDTM_IG_DA/V3#IGD_RS> ;
	isoT:hasIdentifier <http://www.cdisc.org/SDTM_IG_DA/V3#IGD_SI> ;
	isoT:hasPreviousVersion <http://www.cdisc.org/SDTM_IG_DA/V2#IGD> ;
	isoT:origin ""^^xsd:string ;
	isoT:changeDescription ""^^xsd:string ;
	isoT:creationDate "2013-11-26T00:00:00+00:00"^^xsd:dateTime ;
	isoT:lastChangeDate "2013-11-26T00:00:00+00:00"^^xsd:dateTime ;
	isoT:explanatoryComment ""^^xsd:string ;
	bd:rule ""^^xsd:string ;
	bd:ordinal "1"^^xsd:positiveInteger ;
	bd:includesColumn <http://www.cdisc.org/SDTM_IG_DA/V2#IGD_STUDYID> ;
	bd:includesColumn <http://www.cdisc.org/SDTM_IG_DA/V2#IGD_DOMAIN> ;
	bd:includesColumn <http://www.cdisc.org/SDTM_IG_DA/V2#IGD_USUBJID> ;
	bd:includesColumn <http://www.cdisc.org/SDTM_IG_DA/V3#IGD_DASEQ> ;
	bd:includesColumn <http://www.cdisc.org/SDTM_IG_DA/V3#IGD_DAGRPID> ;
	bd:includesColumn <http://www.cdisc.org/SDTM_IG_DA/V3#IGD_DAREFID> ;
	bd:includesColumn <http://www.cdisc.org/SDTM_IG_DA/V3#IGD_DASPID> ;
	bd:includesColumn <http://www.cdisc.org/SDTM_IG_DA/V3#IGD_DATESTCD> ;
	bd:includesColumn <http://www.cdisc.org/SDTM_IG_DA/V3#IGD_DATEST> ;
	bd:includesColumn <http://www.cdisc.org/SDTM_IG_DA/V3#IGD_DACAT> ;
	bd:includesColumn <http://www.cdisc.org/SDTM_IG_DA/V3#IGD_DASCAT> ;
	bd:includesColumn <http://www.cdisc.org/SDTM_IG_DA/V3#IGD_DAORRES> ;
	bd:includesColumn <http://www.cdisc.org/SDTM_IG_DA/V3#IGD_DAORRESU> ;
	bd:includesColumn <http://www.cdisc.org/SDTM_IG_DA/V3#IGD_DASTRESC> ;
	bd:includesColumn <http://www.cdisc.org/SDTM_IG_DA/V3#IGD_DASTRESN> ;
	bd:includesColumn <http://www.cdisc.org/SDTM_IG_DA/V3#IGD_DASTRESU> ;
	bd:includesColumn <http://www.cdisc.org/SDTM_IG_DA/V3#IGD_DASTAT> ;
	bd:includesColumn <http://www.cdisc.org/SDTM_IG_DA/V3#IGD_DAREASND> ;
	bd:includesColumn <http://www.cdisc.org/SDTM_IG_DA/V3#IGD_VISITNUM> ;
	bd:includesColumn <http://www.cdisc.org/SDTM_IG_DA/V3#IGD_VISIT> ;
	bd:includesColumn <http://www.cdisc.org/SDTM_IG_DA/V3#IGD_VISITDY> ;
	bd:includesColumn <http://www.cdisc.org/SDTM_IG_DA/V3#IGD_DADTC> ;
	bd:includesColumn <http://www.cdisc.org/SDTM_IG_DA/V3#IGD_DADY> ;
	bd:prefix "DA"^^xsd:string ;
	bd:structure "One record per drug accountability finding per subject"^^xsd:string ;
	bd:basedOnClass <http://www.cdisc.org/SDTM_MODEL_FINDINGS/V3#CL> ;
.
<http://www.cdisc.org/SDTM_IG_DA/V3#IGD_RS>
	rdf:type isoR:RegistrationState ;
	isoR:registrationStatus "Standard"^^xsd:string ;
	isoR:administrativeNote ""^^xsd:string ;
	isoR:effectiveDate "2016-01-01T00:00:00+00:00"^^xsd:dateTime ;
	isoR:untilDate "2016-01-01T00:00:00+00:00"^^xsd:dateTime ;
	isoR:unresolvedIssue ""^^xsd:string ;
	isoR:administrativeStatus ""^^xsd:string ;
	isoR:previousState "Standard"^^xsd:string ;
	isoR:multipleEdit "false"^^xsd:boolean ;
	isoR:byAuthority <http://www.assero.co.uk/RA#DUNS084433759> ;
.
<http://www.cdisc.org/SDTM_IG_DA/V3#IGD_SI>
	rdf:type isoI:ScopedIdentifier ;
	isoI:identifier "SDTM IG DA"^^xsd:string ;
	isoI:versionLabel "2013-11-26 Release"^^xsd:string ;
	isoI:version "3"^^xsd:positiveInteger ;
	isoI:semanticVersion "3.2.0"^^xsd:string ;
	isoI:hasScope <http://www.assero.co.uk/NS#CDISC> ;
.
<http://www.cdisc.org/SDTM_IG_DA/V3#IGD_DASEQ>
	rdf:type bd:SdtmDomainVariable ;
	isoC:label "Sequence Number"^^xsd:string ;
	bd:rule ""^^xsd:string ;
	bd:ordinal "4"^^xsd:positiveInteger ;
	bd:name "DASEQ"^^xsd:string ;
	bd:description "Sequence Number given to ensure uniqueness of subject records within a domain. May be any valid number."^^xsd:string ;
	bd:format ""^^xsd:string ;
	bd:ctAndFormat ""^^xsd:string ;
	bd:compliance <http://www.assero.co.uk/CSN#52070084-cdd3-4ba8-8377-f670e4b0276c> ;
	bd:basedOnClassVariable <http://www.cdisc.org/SDTM_MODEL_ALL/V3#CL_--SEQ> ;
.
<http://www.cdisc.org/SDTM_IG_DA/V3#IGD_DAGRPID>
	rdf:type bd:SdtmDomainVariable ;
	isoC:label "Group ID"^^xsd:string ;
	bd:rule ""^^xsd:string ;
	bd:ordinal "5"^^xsd:positiveInteger ;
	bd:name "DAGRPID"^^xsd:string ;
	bd:description "Used to tie together a block of related records in a single domain for a subject."^^xsd:string ;
	bd:format ""^^xsd:string ;
	bd:ctAndFormat ""^^xsd:string ;
	bd:compliance <http://www.assero.co.uk/CSN#f7d9d4e1-a00a-487e-89db-ebece910ba0d> ;
	bd:basedOnClassVariable <http://www.cdisc.org/SDTM_MODEL_ALL/V3#CL_--GRPID> ;
.
<http://www.cdisc.org/SDTM_IG_DA/V3#IGD_DAREFID>
	rdf:type bd:SdtmDomainVariable ;
	isoC:label "Reference ID"^^xsd:string ;
	bd:rule ""^^xsd:string ;
	bd:ordinal "6"^^xsd:positiveInteger ;
	bd:name "DAREFID"^^xsd:string ;
	bd:description "Internal or external identifier such as label number."^^xsd:string ;
	bd:format ""^^xsd:string ;
	bd:ctAndFormat ""^^xsd:string ;
	bd:compliance <http://www.assero.co.uk/CSN#f7d9d4e1-a00a-487e-89db-ebece910ba0d> ;
	bd:basedOnClassVariable <http://www.cdisc.org/SDTM_MODEL_ALL/V3#CL_--REFID> ;
.
<http://www.cdisc.org/SDTM_IG_DA/V3#IGD_DASPID>
	rdf:type bd:SdtmDomainVariable ;
	isoC:label "Sponsor-Defined Identifier"^^xsd:string ;
	bd:rule ""^^xsd:string ;
	bd:ordinal "7"^^xsd:positiveInteger ;
	bd:name "DASPID"^^xsd:string ;
	bd:description "Sponsor-defined reference number. Perhaps pre-printed on the CRF as an explicit line identifier or defined in the sponsor's operational database. Examples: Line number on the Drug Accountability page, drug label code."^^xsd:string ;
	bd:format ""^^xsd:string ;
	bd:ctAndFormat ""^^xsd:string ;
	bd:compliance <http://www.assero.co.uk/CSN#f7d9d4e1-a00a-487e-89db-ebece910ba0d> ;
	bd:basedOnClassVariable <http://www.cdisc.org/SDTM_MODEL_ALL/V3#CL_--SPID> ;
.
<http://www.cdisc.org/SDTM_IG_DA/V3#IGD_DATESTCD>
	rdf:type bd:SdtmDomainVariable ;
	isoC:label "Short Name of Accountability Assessment"^^xsd:string ;
	bd:rule ""^^xsd:string ;
	bd:ordinal "8"^^xsd:positiveInteger ;
	bd:name "DATESTCD"^^xsd:string ;
	bd:description "Short character value for DATEST used as a column name when converting a dataset from a vertical format to a horizontal format. The short value can be up to 8 characters and cannot begin with a number or contain characters other than letters, numbers or underscores. Example: DISPAMT, RETAMT."^^xsd:string ;
	bd:format ""^^xsd:string ;
	bd:ctAndFormat ""^^xsd:string ;
	bd:compliance <http://www.assero.co.uk/CSN#52070084-cdd3-4ba8-8377-f670e4b0276c> ;
	bd:basedOnClassVariable <http://www.cdisc.org/SDTM_MODEL_FINDINGS/V3#CL_--TESTCD> ;
	bd:isA <http://www.s-cubed.dk/CAR#18a302ee283ea042f30ca2cb852a2846f97c9413> ;
.
<http://www.cdisc.org/SDTM_IG_DA/V3#IGD_DATEST>
	rdf:type bd:SdtmDomainVariable ;
	isoC:label "Name of Accountability Assessment"^^xsd:string ;
	bd:rule ""^^xsd:string ;
	bd:ordinal "9"^^xsd:positiveInteger ;
	bd:name "DATEST"^^xsd:string ;
	bd:description "Verbatim name, corresponding to the topic variable, of the test or examination used to obtain the drug accountability assessment. The value in DATEST cannot be longer than 40 characters. Example: Dispensed Amount, Returned Amount."^^xsd:string ;
	bd:format ""^^xsd:string ;
	bd:ctAndFormat ""^^xsd:string ;
	bd:compliance <http://www.assero.co.uk/CSN#52070084-cdd3-4ba8-8377-f670e4b0276c> ;
	bd:basedOnClassVariable <http://www.cdisc.org/SDTM_MODEL_FINDINGS/V3#CL_--TEST> ;
.
<http://www.cdisc.org/SDTM_IG_DA/V3#IGD_DACAT>
	rdf:type bd:SdtmDomainVariable ;
	isoC:label "Category of Assessment"^^xsd:string ;
	bd:rule ""^^xsd:string ;
	bd:ordinal "10"^^xsd:positiveInteger ;
	bd:name "DACAT"^^xsd:string ;
	bd:description "Used to define a category of related records. Examples: STUDY MEDICATION, RESCUE MEDICATION."^^xsd:string ;
	bd:format ""^^xsd:string ;
	bd:ctAndFormat ""^^xsd:string ;
	bd:compliance <http://www.assero.co.uk/CSN#f7d9d4e1-a00a-487e-89db-ebece910ba0d> ;
	bd:basedOnClassVariable <http://www.cdisc.org/SDTM_MODEL_FINDINGS/V3#CL_--CAT> ;
	bd:isA <http://www.s-cubed.dk/CAR#a3c686e711e4720f99b4562bb3dbaae7ab658cf2> ;
.
<http://www.cdisc.org/SDTM_IG_DA/V3#IGD_DASCAT>
	rdf:type bd:SdtmDomainVariable ;
	isoC:label "Subcategory of Assessment"^^xsd:string ;
	bd:rule ""^^xsd:string ;
	bd:ordinal "11"^^xsd:positiveInteger ;
	bd:name "DASCAT"^^xsd:string ;
	bd:description "Used to define a further categorization level for a group of related records."^^xsd:string ;
	bd:format ""^^xsd:string ;
	bd:ctAndFormat ""^^xsd:string ;
	bd:compliance <http://www.assero.co.uk/CSN#f7d9d4e1-a00a-487e-89db-ebece910ba0d> ;
	bd:basedOnClassVariable <http://www.cdisc.org/SDTM_MODEL_FINDINGS/V3#CL_--SCAT> ;
	bd:isA <http://www.s-cubed.dk/CAR#479a67983e739413da55faf0dc509f83fd5dea64> ;
.
<http://www.cdisc.org/SDTM_IG_DA/V3#IGD_DAORRES>
	rdf:type bd:SdtmDomainVariable ;
	isoC:label "Assessment Result in Original Units"^^xsd:string ;
	bd:rule ""^^xsd:string ;
	bd:ordinal "12"^^xsd:positiveInteger ;
	bd:name "DAORRES"^^xsd:string ;
	bd:description "Result of the Drug Accountability assessment as originally received or collected."^^xsd:string ;
	bd:format ""^^xsd:string ;
	bd:ctAndFormat ""^^xsd:string ;
	bd:compliance <http://www.assero.co.uk/CSN#046f6c24-9eaf-4f60-8390-f36328c82ec4> ;
	bd:basedOnClassVariable <http://www.cdisc.org/SDTM_MODEL_FINDINGS/V3#CL_--ORRES> ;
	bd:isA <http://www.s-cubed.dk/CAR#af5f0ce4847da645162514a984a7b88b67016e80> ;
.
<http://www.cdisc.org/SDTM_IG_DA/V3#IGD_DAORRESU>
	rdf:type bd:SdtmDomainVariable ;
	isoC:label "Original Units"^^xsd:string ;
	bd:rule ""^^xsd:string ;
	bd:ordinal "13"^^xsd:positiveInteger ;
	bd:name "DAORRESU"^^xsd:string ;
	bd:description "Unit for DAORRES."^^xsd:string ;
	bd:format ""^^xsd:string ;
	bd:ctAndFormat "(UNIT)"^^xsd:string ;
	bd:compliance <http://www.assero.co.uk/CSN#f7d9d4e1-a00a-487e-89db-ebece910ba0d> ;
	bd:ctReference <http://www.cdisc.org/SDTM_IG_DA/V3#IGD_DAORRESU_TMC1> ;
	bd:basedOnClassVariable <http://www.cdisc.org/SDTM_MODEL_FINDINGS/V3#CL_--ORRESU> ;
	bd:isA <http://www.s-cubed.dk/CAR#7715259cc4b4ef877c53de5ab0e9673dff58ca35> ;
.
<http://www.cdisc.org/SDTM_IG_DA/V3#IGD_DAORRESU_TMC1>
	rdf:type bo:TMcReference ;
	isoC:label "UNIT"^^xsd:string ;
	bo:enabled "true"^^xsd:boolean ;
	bo:optional "false"^^xsd:boolean ;
	bo:ordinal "1"^^xsd:positiveInteger ;
	bo:reference <http://www.cdisc.org/C71620/V36#C71620> ;
	bo:context <http://www.cdisc.org/CT/V36#TH> ;
.
<http://www.cdisc.org/SDTM_IG_DA/V3#IGD_DASTRESC>
	rdf:type bd:SdtmDomainVariable ;
	isoC:label "Assessment Result in Std Format"^^xsd:string ;
	bd:rule ""^^xsd:string ;
	bd:ordinal "14"^^xsd:positiveInteger ;
	bd:name "DASTRESC"^^xsd:string ;
	bd:description "Contains the result value for all Drug Accountability assessments, copied or derived from DAORRES in a standard format or in standard units. DASTRESC should store all results or findings in character format; if results are numeric, they should also be stored in numeric format in DASTRESN."^^xsd:string ;
	bd:format ""^^xsd:string ;
	bd:ctAndFormat ""^^xsd:string ;
	bd:compliance <http://www.assero.co.uk/CSN#046f6c24-9eaf-4f60-8390-f36328c82ec4> ;
	bd:basedOnClassVariable <http://www.cdisc.org/SDTM_MODEL_FINDINGS/V3#CL_--STRESC> ;
.
<http://www.cdisc.org/SDTM_IG_DA/V3#IGD_DASTRESN>
	rdf:type bd:SdtmDomainVariable ;
	isoC:label "Numeric Result/Finding in Standard Units"^^xsd:string ;
	bd:rule ""^^xsd:string ;
	bd:ordinal "15"^^xsd:positiveInteger ;
	bd:name "DASTRESN"^^xsd:string ;
	bd:description "Used for continuous or numeric results or findings in standard format; copied in numeric format from DASTRESC. DASTRESN should store all numeric test results or findings."^^xsd:string ;
	bd:format ""^^xsd:string ;
	bd:ctAndFormat ""^^xsd:string ;
	bd:compliance <http://www.assero.co.uk/CSN#f7d9d4e1-a00a-487e-89db-ebece910ba0d> ;
	bd:basedOnClassVariable <http://www.cdisc.org/SDTM_MODEL_FINDINGS/V3#CL_--STRESN> ;
.
<http://www.cdisc.org/SDTM_IG_DA/V3#IGD_DASTRESU>
	rdf:type bd:SdtmDomainVariable ;
	isoC:label "Assessment Standard Units"^^xsd:string ;
	bd:rule ""^^xsd:string ;
	bd:ordinal "16"^^xsd:positiveInteger ;
	bd:name "DASTRESU"^^xsd:string ;
	bd:description "Standardized units used for DASTRESC and DASTRESN."^^xsd:string ;
	bd:format ""^^xsd:string ;
	bd:ctAndFormat "(UNIT)"^^xsd:string ;
	bd:compliance <http://www.assero.co.uk/CSN#f7d9d4e1-a00a-487e-89db-ebece910ba0d> ;
	bd:ctReference <http://www.cdisc.org/SDTM_IG_DA/V3#IGD_DASTRESU_TMC1> ;
	bd:basedOnClassVariable <http://www.cdisc.org/SDTM_MODEL_FINDINGS/V3#CL_--STRESU> ;
.
<http://www.cdisc.org/SDTM_IG_DA/V3#IGD_DASTRESU_TMC1>
	rdf:type bo:TMcReference ;
	isoC:label "UNIT"^^xsd:string ;
	bo:enabled "true"^^xsd:boolean ;
	bo:optional "false"^^xsd:boolean ;
	bo:ordinal "1"^^xsd:positiveInteger ;
	bo:reference <http://www.cdisc.org/C71620/V36#C71620> ;
	bo:context <http://www.cdisc.org/CT/V36#TH> ;
.
<http://www.cdisc.org/SDTM_IG_DA/V3#IGD_DASTAT>
	rdf:type bd:SdtmDomainVariable ;
	isoC:label "Completion Status"^^xsd:string ;
	bd:rule ""^^xsd:string ;
	bd:ordinal "17"^^xsd:positiveInteger ;
	bd:name "DASTAT"^^xsd:string ;
	bd:description "Used to indicate that a drug accountability assessment was not done. Should be null or have a value of NOT DONE."^^xsd:string ;
	bd:format ""^^xsd:string ;
	bd:ctAndFormat "(ND)"^^xsd:string ;
	bd:compliance <http://www.assero.co.uk/CSN#f7d9d4e1-a00a-487e-89db-ebece910ba0d> ;
	bd:ctReference <http://www.cdisc.org/SDTM_IG_DA/V3#IGD_DASTAT_TMC1> ;
	bd:basedOnClassVariable <http://www.cdisc.org/SDTM_MODEL_FINDINGS/V3#CL_--STAT> ;
	bd:isA <http://www.s-cubed.dk/CAR#bae7d5be70820ed56467bd9a63744e23b47bd711> ;
.
<http://www.cdisc.org/SDTM_IG_DA/V3#IGD_DASTAT_TMC1>
	rdf:type bo:TMcReference ;
	isoC:label "ND"^^xsd:string ;
	bo:enabled "true"^^xsd:boolean ;
	bo:optional "false"^^xsd:boolean ;
	bo:ordinal "1"^^xsd:positiveInteger ;
	bo:reference <http://www.cdisc.org/C66789/V13#C66789> ;
	bo:context <http://www.cdisc.org/CT/V36#TH> ;
.
<http://www.cdisc.org/SDTM_IG_DA/V3#IGD_DAREASND>
	rdf:type bd:SdtmDomainVariable ;
	isoC:label "Reason Not Performed"^^xsd:string ;
	bd:rule ""^^xsd:string ;
	bd:ordinal "18"^^xsd:positiveInteger ;
	bd:name "DAREASND"^^xsd:string ;
	bd:description "Reason not done. Used in conjunction with DASTAT when value is NOT DONE."^^xsd:string ;
	bd:format ""^^xsd:string ;
	bd:ctAndFormat ""^^xsd:string ;
	bd:compliance <http://www.assero.co.uk/CSN#f7d9d4e1-a00a-487e-89db-ebece910ba0d> ;
	bd:basedOnClassVariable <http://www.cdisc.org/SDTM_MODEL_FINDINGS/V3#CL_--REASND> ;
.
<http://www.cdisc.org/SDTM_IG_DA/V3#IGD_VISITNUM>
	rdf:type bd:SdtmDomainVariable ;
	isoC:label "Visit Number"^^xsd:string ;
	bd:rule ""^^xsd:string ;
	bd:ordinal "19"^^xsd:positiveInteger ;
	bd:name "VISITNUM"^^xsd:string ;
	bd:description "1. Clinical encounter number.\n2. Numeric version of VISIT, used for sorting."^^xsd:string ;
	bd:format ""^^xsd:string ;
	bd:ctAndFormat ""^^xsd:string ;
	bd:compliance <http://www.assero.co.uk/CSN#046f6c24-9eaf-4f60-8390-f36328c82ec4> ;
	bd:basedOnClassVariable <http://www.cdisc.org/SDTM_MODEL_ALL/V3#CL_VISITNUM> ;
.
<http://www.cdisc.org/SDTM_IG_DA/V3#IGD_VISIT>
	rdf:type bd:SdtmDomainVariable ;
	isoC:label "Visit Name"^^xsd:string ;
	bd:rule ""^^xsd:string ;
	bd:ordinal "20"^^xsd:positiveInteger ;
	bd:name "VISIT"^^xsd:string ;
	bd:description "1. Protocol-defined description of clinical encounter\n2. May be used in addition to VISITNUM and/or VISITDY"^^xsd:string ;
	bd:format ""^^xsd:string ;
	bd:ctAndFormat ""^^xsd:string ;
	bd:compliance <http://www.assero.co.uk/CSN#f7d9d4e1-a00a-487e-89db-ebece910ba0d> ;
	bd:basedOnClassVariable <http://www.cdisc.org/SDTM_MODEL_ALL/V3#CL_VISIT> ;
.
<http://www.cdisc.org/SDTM_IG_DA/V3#IGD_VISITDY>
	rdf:type bd:SdtmDomainVariable ;
	isoC:label "Planned Study Day of Visit"^^xsd:string ;
	bd:rule ""^^xsd:string ;
	bd:ordinal "21"^^xsd:positiveInteger ;
	bd:name "VISITDY"^^xsd:string ;
	bd:description "Planned study day of the visit based upon RFSTDTC in Demographics."^^xsd:string ;
	bd:format ""^^xsd:string ;
	bd:ctAndFormat ""^^xsd:string ;
	bd:compliance <http://www.assero.co.uk/CSN#f7d9d4e1-a00a-487e-89db-ebece910ba0d> ;
	bd:basedOnClassVariable <http://www.cdisc.org/SDTM_MODEL_ALL/V3#CL_VISITDY> ;
.
<http://www.cdisc.org/SDTM_IG_DA/V3#IGD_DADTC>
	rdf:type bd:SdtmDomainVariable ;
	isoC:label "Date/Time of Accountability Assessment"^^xsd:string ;
	bd:rule ""^^xsd:string ;
	bd:ordinal "22"^^xsd:positiveInteger ;
	bd:name "DADTC"^^xsd:string ;
	bd:description ""^^xsd:string ;
	bd:format "ISO 8601"^^xsd:string ;
	bd:ctAndFormat "ISO 8601"^^xsd:string ;
	bd:compliance <http://www.assero.co.uk/CSN#046f6c24-9eaf-4f60-8390-f36328c82ec4> ;
	bd:basedOnClassVariable <http://www.cdisc.org/SDTM_MODEL_ALL/V3#CL_--DTC> ;
	bd:isA <http://www.s-cubed.dk/CAR#232daabe4ca2dfdb32645c572b1d34ddb4fe9995> ;
.
<http://www.cdisc.org/SDTM_IG_DA/V3#IGD_DADY>
	rdf:type bd:SdtmDomainVariable ;
	isoC:label "Study Day of Accountability Assessment"^^xsd:string ;
	bd:rule ""^^xsd:string ;
	bd:ordinal "23"^^xsd:positiveInteger ;
	bd:name "DADY"^^xsd:string ;
	bd:description "1. Study day of drug accountability assessment, measured as integer days.\n2. Algorithm for calculations must be relative to the sponsor-defined RFSTDTC variable in Demographics."^^xsd:string ;
	bd:format ""^^xsd:string ;
	bd:ctAndFormat ""^^xsd:string ;
	bd:compliance <http://www.assero.co.uk/CSN#f7d9d4e1-a00a-487e-89db-ebece910ba0d> ;
	bd:basedOnClassVariable <http://www.cdisc.org/SDTM_MODEL_ALL/V3#CL_--DY> ;
.
<http://www.cdisc.org/SDTM_IG_DD/V3#IGD>
	rdf:type bd:SdtmDomain ;
	isoC:label "Death Details"^^xsd:string ;
	isoT:hasState <http://www.cdisc.org/SDTM_IG_DD/V3#IGD_RS> ;
	isoT:hasIdentifier <http://www.cdisc.org/SDTM_IG_DD/V3#IGD_SI> ;
	isoT:origin ""^^xsd:string ;
	isoT:changeDescription ""^^xsd:string ;
	isoT:creationDate "2013-11-26T00:00:00+00:00"^^xsd:dateTime ;
	isoT:lastChangeDate "2013-11-26T00:00:00+00:00"^^xsd:dateTime ;
	isoT:explanatoryComment ""^^xsd:string ;
	bd:rule ""^^xsd:string ;
	bd:ordinal "1"^^xsd:positiveInteger ;
	bd:includesColumn <http://www.cdisc.org/SDTM_IG_DD/V3#IGD_STUDYID> ;
	bd:includesColumn <http://www.cdisc.org/SDTM_IG_DD/V3#IGD_DOMAIN> ;
	bd:includesColumn <http://www.cdisc.org/SDTM_IG_DD/V3#IGD_USUBJID> ;
	bd:includesColumn <http://www.cdisc.org/SDTM_IG_DD/V3#IGD_DDSEQ> ;
	bd:includesColumn <http://www.cdisc.org/SDTM_IG_DD/V3#IGD_DDTESTCD> ;
	bd:includesColumn <http://www.cdisc.org/SDTM_IG_DD/V3#IGD_DDTEST> ;
	bd:includesColumn <http://www.cdisc.org/SDTM_IG_DD/V3#IGD_DDORRES> ;
	bd:includesColumn <http://www.cdisc.org/SDTM_IG_DD/V3#IGD_DDSTRESC> ;
	bd:includesColumn <http://www.cdisc.org/SDTM_IG_DD/V3#IGD_DDRESCAT> ;
	bd:includesColumn <http://www.cdisc.org/SDTM_IG_DD/V3#IGD_DDEVAL> ;
	bd:includesColumn <http://www.cdisc.org/SDTM_IG_DD/V3#IGD_DDDTC> ;
	bd:includesColumn <http://www.cdisc.org/SDTM_IG_DD/V3#IGD_DDDY> ;
	bd:prefix "DD"^^xsd:string ;
	bd:structure "One record per finding per subject"^^xsd:string ;
	bd:basedOnClass <http://www.cdisc.org/SDTM_MODEL_FINDINGS/V3#CL> ;
.
<http://www.cdisc.org/SDTM_IG_DD/V3#IGD_RS>
	rdf:type isoR:RegistrationState ;
	isoR:registrationStatus "Standard"^^xsd:string ;
	isoR:administrativeNote ""^^xsd:string ;
	isoR:effectiveDate "2016-01-01T00:00:00+00:00"^^xsd:dateTime ;
	isoR:untilDate "2016-01-01T00:00:00+00:00"^^xsd:dateTime ;
	isoR:unresolvedIssue ""^^xsd:string ;
	isoR:administrativeStatus ""^^xsd:string ;
	isoR:previousState "Standard"^^xsd:string ;
	isoR:multipleEdit "false"^^xsd:boolean ;
	isoR:byAuthority <http://www.assero.co.uk/RA#DUNS084433759> ;
.
<http://www.cdisc.org/SDTM_IG_DD/V3#IGD_SI>
	rdf:type isoI:ScopedIdentifier ;
	isoI:identifier "SDTM IG DD"^^xsd:string ;
	isoI:versionLabel "2013-11-26 Release"^^xsd:string ;
	isoI:version "3"^^xsd:positiveInteger ;
	isoI:semanticVersion "3.2.0"^^xsd:string ;
	isoI:hasScope <http://www.assero.co.uk/NS#CDISC> ;
.
<http://www.cdisc.org/SDTM_IG_DD/V3#IGD_STUDYID>
	rdf:type bd:SdtmDomainVariable ;
	isoC:label "Study Identifier"^^xsd:string ;
	bd:rule ""^^xsd:string ;
	bd:ordinal "1"^^xsd:positiveInteger ;
	bd:name "STUDYID"^^xsd:string ;
	bd:description "Unique identifier for a study."^^xsd:string ;
	bd:format ""^^xsd:string ;
	bd:ctAndFormat ""^^xsd:string ;
	bd:compliance <http://www.assero.co.uk/CSN#52070084-cdd3-4ba8-8377-f670e4b0276c> ;
	bd:basedOnClassVariable <http://www.cdisc.org/SDTM_MODEL_ALL/V1#CL_STUDYID> ;
.
<http://www.cdisc.org/SDTM_IG_DD/V3#IGD_DOMAIN>
	rdf:type bd:SdtmDomainVariable ;
	isoC:label "Domain Abbreviation"^^xsd:string ;
	bd:rule ""^^xsd:string ;
	bd:ordinal "2"^^xsd:positiveInteger ;
	bd:name "DOMAIN"^^xsd:string ;
	bd:description "Two-character abbreviation for the domain."^^xsd:string ;
	bd:format ""^^xsd:string ;
	bd:ctAndFormat "(DOMAIN)"^^xsd:string ;
	bd:compliance <http://www.assero.co.uk/CSN#52070084-cdd3-4ba8-8377-f670e4b0276c> ;
	bd:ctReference <http://www.cdisc.org/SDTM_IG_DD/V3#IGD_DOMAIN_TMC1> ;
	bd:basedOnClassVariable <http://www.cdisc.org/SDTM_MODEL_ALL/V2#CL_DOMAIN> ;
.
<http://www.cdisc.org/SDTM_IG_DD/V3#IGD_DOMAIN_TMC1>
	rdf:type bo:TMcReference ;
	isoC:label "DOMAIN"^^xsd:string ;
	bo:enabled "true"^^xsd:boolean ;
	bo:optional "false"^^xsd:boolean ;
	bo:ordinal "1"^^xsd:positiveInteger ;
	bo:reference <http://www.cdisc.org/C66734/V36#C66734> ;
	bo:context <http://www.cdisc.org/CT/V36#TH> ;
.
<http://www.cdisc.org/SDTM_IG_DD/V3#IGD_USUBJID>
	rdf:type bd:SdtmDomainVariable ;
	isoC:label "Unique Subject Identifier"^^xsd:string ;
	bd:rule ""^^xsd:string ;
	bd:ordinal "3"^^xsd:positiveInteger ;
	bd:name "USUBJID"^^xsd:string ;
	bd:description "Identifier used to uniquely identify a subject across all studies for all applications or submissions involving the product."^^xsd:string ;
	bd:format ""^^xsd:string ;
	bd:ctAndFormat ""^^xsd:string ;
	bd:compliance <http://www.assero.co.uk/CSN#52070084-cdd3-4ba8-8377-f670e4b0276c> ;
	bd:basedOnClassVariable <http://www.cdisc.org/SDTM_MODEL_ALL/V1#CL_USUBJID> ;
.
<http://www.cdisc.org/SDTM_IG_DD/V3#IGD_DDSEQ>
	rdf:type bd:SdtmDomainVariable ;
	isoC:label "Sequence Number"^^xsd:string ;
	bd:rule ""^^xsd:string ;
	bd:ordinal "4"^^xsd:positiveInteger ;
	bd:name "DDSEQ"^^xsd:string ;
	bd:description "Sequence number given to ensure uniqueness of subject records within a domain. May be any valid number."^^xsd:string ;
	bd:format ""^^xsd:string ;
	bd:ctAndFormat ""^^xsd:string ;
	bd:compliance <http://www.assero.co.uk/CSN#52070084-cdd3-4ba8-8377-f670e4b0276c> ;
	bd:basedOnClassVariable <http://www.cdisc.org/SDTM_MODEL_ALL/V3#CL_--SEQ> ;
.
<http://www.cdisc.org/SDTM_IG_DD/V3#IGD_DDTESTCD>
	rdf:type bd:SdtmDomainVariable ;
	isoC:label "Death Detail Assessment Short Name"^^xsd:string ;
	bd:rule ""^^xsd:string ;
	bd:ordinal "5"^^xsd:positiveInteger ;
	bd:name "DDTESTCD"^^xsd:string ;
	bd:description "Short name of the measurement, test, or examination described in DDTEST. It can be used as a column name when converting a dataset from a vertical to a horizontal format. The value in DDTESTCD cannot be longer than 8 characters, nor can it start with a number (e.g., \"1TEST\" is not valid). DDTESTCD cannot contain characters other than letters, numbers, or underscores. Examples: DIAGPRIM, DIAGSEC, DTHWIT"^^xsd:string ;
	bd:format ""^^xsd:string ;
	bd:ctAndFormat ""^^xsd:string ;
	bd:compliance <http://www.assero.co.uk/CSN#52070084-cdd3-4ba8-8377-f670e4b0276c> ;
	bd:basedOnClassVariable <http://www.cdisc.org/SDTM_MODEL_FINDINGS/V3#CL_--TESTCD> ;
	bd:isA <http://www.s-cubed.dk/CAR#18a302ee283ea042f30ca2cb852a2846f97c9413> ;
.
<http://www.cdisc.org/SDTM_IG_DD/V3#IGD_DDTEST>
	rdf:type bd:SdtmDomainVariable ;
	isoC:label "Death Detail Assessment Name"^^xsd:string ;
	bd:rule ""^^xsd:string ;
	bd:ordinal "6"^^xsd:positiveInteger ;
	bd:name "DDTEST"^^xsd:string ;
	bd:description "Long name for DDTESTCD. The value in DDTEST cannot be longer than 40 characters. Examples: Primary Diagnosis, Secondary Diagnosis, Was Death Witnessed?"^^xsd:string ;
	bd:format ""^^xsd:string ;
	bd:ctAndFormat ""^^xsd:string ;
	bd:compliance <http://www.assero.co.uk/CSN#52070084-cdd3-4ba8-8377-f670e4b0276c> ;
	bd:basedOnClassVariable <http://www.cdisc.org/SDTM_MODEL_FINDINGS/V3#CL_--TEST> ;
.
<http://www.cdisc.org/SDTM_IG_DD/V3#IGD_DDORRES>
	rdf:type bd:SdtmDomainVariable ;
	isoC:label "Result or Finding as Collected"^^xsd:string ;
	bd:rule ""^^xsd:string ;
	bd:ordinal "7"^^xsd:positiveInteger ;
	bd:name "DDORRES"^^xsd:string ;
	bd:description "Result of the test defined in DDTEST, as originally received or collected."^^xsd:string ;
	bd:format ""^^xsd:string ;
	bd:ctAndFormat ""^^xsd:string ;
	bd:compliance <http://www.assero.co.uk/CSN#046f6c24-9eaf-4f60-8390-f36328c82ec4> ;
	bd:basedOnClassVariable <http://www.cdisc.org/SDTM_MODEL_FINDINGS/V3#CL_--ORRES> ;
	bd:isA <http://www.s-cubed.dk/CAR#af5f0ce4847da645162514a984a7b88b67016e80> ;
.
<http://www.cdisc.org/SDTM_IG_DD/V3#IGD_DDSTRESC>
	rdf:type bd:SdtmDomainVariable ;
	isoC:label "Character Result/Finding in Std Format"^^xsd:string ;
	bd:rule ""^^xsd:string ;
	bd:ordinal "8"^^xsd:positiveInteger ;
	bd:name "DDSTRESC"^^xsd:string ;
	bd:description "Contains the result or finding copied or derived from DDORRES in a standard format."^^xsd:string ;
	bd:format ""^^xsd:string ;
	bd:ctAndFormat ""^^xsd:string ;
	bd:compliance <http://www.assero.co.uk/CSN#046f6c24-9eaf-4f60-8390-f36328c82ec4> ;
	bd:basedOnClassVariable <http://www.cdisc.org/SDTM_MODEL_FINDINGS/V3#CL_--STRESC> ;
.
<http://www.cdisc.org/SDTM_IG_DD/V3#IGD_DDRESCAT>
	rdf:type bd:SdtmDomainVariable ;
	isoC:label "Result Category"^^xsd:string ;
	bd:rule ""^^xsd:string ;
	bd:ordinal "9"^^xsd:positiveInteger ;
	bd:name "DDRESCAT"^^xsd:string ;
	bd:description "Used to categorize the result of a finding. Examples: TREATMENT RELATED, NONTREATMENT RELATED, UNDETERMINED, ACCIDENTAL"^^xsd:string ;
	bd:format ""^^xsd:string ;
	bd:ctAndFormat ""^^xsd:string ;
	bd:compliance <http://www.assero.co.uk/CSN#f7d9d4e1-a00a-487e-89db-ebece910ba0d> ;
	bd:basedOnClassVariable <http://www.cdisc.org/SDTM_MODEL_FINDINGS/V3#CL_--RESCAT> ;
.
<http://www.cdisc.org/SDTM_IG_DD/V3#IGD_DDEVAL>
	rdf:type bd:SdtmDomainVariable ;
	isoC:label "Evaluator"^^xsd:string ;
	bd:rule ""^^xsd:string ;
	bd:ordinal "10"^^xsd:positiveInteger ;
	bd:name "DDEVAL"^^xsd:string ;
	bd:description "Role of the person who provided the evaluation."^^xsd:string ;
	bd:format ""^^xsd:string ;
	bd:ctAndFormat "(EVAL)"^^xsd:string ;
	bd:compliance <http://www.assero.co.uk/CSN#f7d9d4e1-a00a-487e-89db-ebece910ba0d> ;
	bd:ctReference <http://www.cdisc.org/SDTM_IG_DD/V3#IGD_DDEVAL_TMC1> ;
	bd:basedOnClassVariable <http://www.cdisc.org/SDTM_MODEL_FINDINGS/V3#CL_--EVAL> ;
	bd:isA <http://www.s-cubed.dk/CAR#07500ad5733a5c873074c6df8d3e516da1de8ae1> ;
.
<http://www.cdisc.org/SDTM_IG_DD/V3#IGD_DDEVAL_TMC1>
	rdf:type bo:TMcReference ;
	isoC:label "EVAL"^^xsd:string ;
	bo:enabled "true"^^xsd:boolean ;
	bo:optional "false"^^xsd:boolean ;
	bo:ordinal "1"^^xsd:positiveInteger ;
	bo:reference <http://www.cdisc.org/C78735/V35#C78735> ;
	bo:context <http://www.cdisc.org/CT/V36#TH> ;
.
<http://www.cdisc.org/SDTM_IG_DD/V3#IGD_DDDTC>
	rdf:type bd:SdtmDomainVariable ;
	isoC:label "Date/Time of Collection"^^xsd:string ;
	bd:rule ""^^xsd:string ;
	bd:ordinal "11"^^xsd:positiveInteger ;
	bd:name "DDDTC"^^xsd:string ;
	bd:description "Date/time of collection of the diagnosis or other death assessment data in ISO 8601 format. This is not necessarily the date of death."^^xsd:string ;
	bd:format "ISO 8601"^^xsd:string ;
	bd:ctAndFormat "ISO 8601"^^xsd:string ;
	bd:compliance <http://www.assero.co.uk/CSN#046f6c24-9eaf-4f60-8390-f36328c82ec4> ;
	bd:basedOnClassVariable <http://www.cdisc.org/SDTM_MODEL_ALL/V3#CL_--DTC> ;
	bd:isA <http://www.s-cubed.dk/CAR#232daabe4ca2dfdb32645c572b1d34ddb4fe9995> ;
.
<http://www.cdisc.org/SDTM_IG_DD/V3#IGD_DDDY>
	rdf:type bd:SdtmDomainVariable ;
	isoC:label "Study Day of Collection"^^xsd:string ;
	bd:rule ""^^xsd:string ;
	bd:ordinal "12"^^xsd:positiveInteger ;
	bd:name "DDDY"^^xsd:string ;
	bd:description "Study day of the collection, in integer days. The algorithm for calculations must be relative to the sponsor-defined RFSTDTC variable in the Demographics (DM) domain."^^xsd:string ;
	bd:format ""^^xsd:string ;
	bd:ctAndFormat ""^^xsd:string ;
	bd:compliance <http://www.assero.co.uk/CSN#f7d9d4e1-a00a-487e-89db-ebece910ba0d> ;
	bd:basedOnClassVariable <http://www.cdisc.org/SDTM_MODEL_ALL/V3#CL_--DY> ;
.
<http://www.cdisc.org/SDTM_IG_EG/V3#IGD>
	rdf:type bd:SdtmDomain ;
	isoC:label "ECG Test Results"^^xsd:string ;
	isoT:hasState <http://www.cdisc.org/SDTM_IG_EG/V3#IGD_RS> ;
	isoT:hasIdentifier <http://www.cdisc.org/SDTM_IG_EG/V3#IGD_SI> ;
	isoT:hasPreviousVersion <http://www.cdisc.org/SDTM_IG_EG/V2#IGD> ;
	isoT:origin ""^^xsd:string ;
	isoT:changeDescription ""^^xsd:string ;
	isoT:creationDate "2013-11-26T00:00:00+00:00"^^xsd:dateTime ;
	isoT:lastChangeDate "2013-11-26T00:00:00+00:00"^^xsd:dateTime ;
	isoT:explanatoryComment ""^^xsd:string ;
	bd:rule ""^^xsd:string ;
	bd:ordinal "1"^^xsd:positiveInteger ;
	bd:includesColumn <http://www.cdisc.org/SDTM_IG_EG/V1#IGD_STUDYID> ;
	bd:includesColumn <http://www.cdisc.org/SDTM_IG_EG/V2#IGD_DOMAIN> ;
	bd:includesColumn <http://www.cdisc.org/SDTM_IG_EG/V1#IGD_USUBJID> ;
	bd:includesColumn <http://www.cdisc.org/SDTM_IG_EG/V3#IGD_EGSEQ> ;
	bd:includesColumn <http://www.cdisc.org/SDTM_IG_EG/V3#IGD_EGGRPID> ;
	bd:includesColumn <http://www.cdisc.org/SDTM_IG_EG/V3#IGD_EGREFID> ;
	bd:includesColumn <http://www.cdisc.org/SDTM_IG_EG/V3#IGD_EGSPID> ;
	bd:includesColumn <http://www.cdisc.org/SDTM_IG_EG/V3#IGD_EGTESTCD> ;
	bd:includesColumn <http://www.cdisc.org/SDTM_IG_EG/V3#IGD_EGTEST> ;
	bd:includesColumn <http://www.cdisc.org/SDTM_IG_EG/V3#IGD_EGCAT> ;
	bd:includesColumn <http://www.cdisc.org/SDTM_IG_EG/V3#IGD_EGSCAT> ;
	bd:includesColumn <http://www.cdisc.org/SDTM_IG_EG/V3#IGD_EGPOS> ;
	bd:includesColumn <http://www.cdisc.org/SDTM_IG_EG/V3#IGD_EGORRES> ;
	bd:includesColumn <http://www.cdisc.org/SDTM_IG_EG/V3#IGD_EGORRESU> ;
	bd:includesColumn <http://www.cdisc.org/SDTM_IG_EG/V3#IGD_EGSTRESC> ;
	bd:includesColumn <http://www.cdisc.org/SDTM_IG_EG/V3#IGD_EGSTRESN> ;
	bd:includesColumn <http://www.cdisc.org/SDTM_IG_EG/V3#IGD_EGSTRESU> ;
	bd:includesColumn <http://www.cdisc.org/SDTM_IG_EG/V3#IGD_EGSTAT> ;
	bd:includesColumn <http://www.cdisc.org/SDTM_IG_EG/V3#IGD_EGREASND> ;
	bd:includesColumn <http://www.cdisc.org/SDTM_IG_EG/V3#IGD_EGXFN> ;
	bd:includesColumn <http://www.cdisc.org/SDTM_IG_EG/V3#IGD_EGNAM> ;
	bd:includesColumn <http://www.cdisc.org/SDTM_IG_EG/V3#IGD_EGLEAD> ;
	bd:includesColumn <http://www.cdisc.org/SDTM_IG_EG/V3#IGD_EGMETHOD> ;
	bd:includesColumn <http://www.cdisc.org/SDTM_IG_EG/V3#IGD_EGBLFL> ;
	bd:includesColumn <http://www.cdisc.org/SDTM_IG_EG/V3#IGD_EGDRVFL> ;
	bd:includesColumn <http://www.cdisc.org/SDTM_IG_EG/V3#IGD_EGEVAL> ;
	bd:includesColumn <http://www.cdisc.org/SDTM_IG_EG/V3#IGD_VISITNUM> ;
	bd:includesColumn <http://www.cdisc.org/SDTM_IG_EG/V3#IGD_VISIT> ;
	bd:includesColumn <http://www.cdisc.org/SDTM_IG_EG/V3#IGD_VISITDY> ;
	bd:includesColumn <http://www.cdisc.org/SDTM_IG_EG/V3#IGD_EGDTC> ;
	bd:includesColumn <http://www.cdisc.org/SDTM_IG_EG/V3#IGD_EGDY> ;
	bd:includesColumn <http://www.cdisc.org/SDTM_IG_EG/V3#IGD_EGTPT> ;
	bd:includesColumn <http://www.cdisc.org/SDTM_IG_EG/V3#IGD_EGTPTNUM> ;
	bd:includesColumn <http://www.cdisc.org/SDTM_IG_EG/V3#IGD_EGELTM> ;
	bd:includesColumn <http://www.cdisc.org/SDTM_IG_EG/V3#IGD_EGTPTREF> ;
	bd:includesColumn <http://www.cdisc.org/SDTM_IG_EG/V3#IGD_EGRFTDTC> ;
	bd:prefix "EG"^^xsd:string ;
	bd:structure "One record per ECG observation per replicate per time point or one record per ECG observation per beat per visit per subject"^^xsd:string ;
	bd:basedOnClass <http://www.cdisc.org/SDTM_MODEL_FINDINGS/V3#CL> ;
.
<http://www.cdisc.org/SDTM_IG_EG/V3#IGD_RS>
	rdf:type isoR:RegistrationState ;
	isoR:registrationStatus "Standard"^^xsd:string ;
	isoR:administrativeNote ""^^xsd:string ;
	isoR:effectiveDate "2016-01-01T00:00:00+00:00"^^xsd:dateTime ;
	isoR:untilDate "2016-01-01T00:00:00+00:00"^^xsd:dateTime ;
	isoR:unresolvedIssue ""^^xsd:string ;
	isoR:administrativeStatus ""^^xsd:string ;
	isoR:previousState "Standard"^^xsd:string ;
	isoR:multipleEdit "false"^^xsd:boolean ;
	isoR:byAuthority <http://www.assero.co.uk/RA#DUNS084433759> ;
.
<http://www.cdisc.org/SDTM_IG_EG/V3#IGD_SI>
	rdf:type isoI:ScopedIdentifier ;
	isoI:identifier "SDTM IG EG"^^xsd:string ;
	isoI:versionLabel "2013-11-26 Release"^^xsd:string ;
	isoI:version "3"^^xsd:positiveInteger ;
	isoI:semanticVersion "3.2.0"^^xsd:string ;
	isoI:hasScope <http://www.assero.co.uk/NS#CDISC> ;
.
<http://www.cdisc.org/SDTM_IG_EG/V3#IGD_EGSEQ>
	rdf:type bd:SdtmDomainVariable ;
	isoC:label "Sequence Number"^^xsd:string ;
	bd:rule ""^^xsd:string ;
	bd:ordinal "4"^^xsd:positiveInteger ;
	bd:name "EGSEQ"^^xsd:string ;
	bd:description "Sequence Number given to ensure uniqueness of subject records within a domain. May be any valid number."^^xsd:string ;
	bd:format ""^^xsd:string ;
	bd:ctAndFormat ""^^xsd:string ;
	bd:compliance <http://www.assero.co.uk/CSN#52070084-cdd3-4ba8-8377-f670e4b0276c> ;
	bd:basedOnClassVariable <http://www.cdisc.org/SDTM_MODEL_ALL/V3#CL_--SEQ> ;
.
<http://www.cdisc.org/SDTM_IG_EG/V3#IGD_EGGRPID>
	rdf:type bd:SdtmDomainVariable ;
	isoC:label "Group ID"^^xsd:string ;
	bd:rule ""^^xsd:string ;
	bd:ordinal "5"^^xsd:positiveInteger ;
	bd:name "EGGRPID"^^xsd:string ;
	bd:description "Used to tie together a block of related records in a single domain for a subject."^^xsd:string ;
	bd:format ""^^xsd:string ;
	bd:ctAndFormat ""^^xsd:string ;
	bd:compliance <http://www.assero.co.uk/CSN#f7d9d4e1-a00a-487e-89db-ebece910ba0d> ;
	bd:basedOnClassVariable <http://www.cdisc.org/SDTM_MODEL_ALL/V3#CL_--GRPID> ;
.
<http://www.cdisc.org/SDTM_IG_EG/V3#IGD_EGREFID>
	rdf:type bd:SdtmDomainVariable ;
	isoC:label "ECG Reference ID"^^xsd:string ;
	bd:rule ""^^xsd:string ;
	bd:ordinal "6"^^xsd:positiveInteger ;
	bd:name "EGREFID"^^xsd:string ;
	bd:description "Internal or external ECG identifier. Example: UUID."^^xsd:string ;
	bd:format ""^^xsd:string ;
	bd:ctAndFormat ""^^xsd:string ;
	bd:compliance <http://www.assero.co.uk/CSN#f7d9d4e1-a00a-487e-89db-ebece910ba0d> ;
	bd:basedOnClassVariable <http://www.cdisc.org/SDTM_MODEL_ALL/V3#CL_--REFID> ;
.
<http://www.cdisc.org/SDTM_IG_EG/V3#IGD_EGSPID>
	rdf:type bd:SdtmDomainVariable ;
	isoC:label "Sponsor-Defined Identifier"^^xsd:string ;
	bd:rule ""^^xsd:string ;
	bd:ordinal "7"^^xsd:positiveInteger ;
	bd:name "EGSPID"^^xsd:string ;
	bd:description "Sponsor-defined reference number. Perhaps pre-printed on the CRF as an explicit line identifier or defined in the sponsor's operational database. Example: Line number from the ECG page."^^xsd:string ;
	bd:format ""^^xsd:string ;
	bd:ctAndFormat ""^^xsd:string ;
	bd:compliance <http://www.assero.co.uk/CSN#f7d9d4e1-a00a-487e-89db-ebece910ba0d> ;
	bd:basedOnClassVariable <http://www.cdisc.org/SDTM_MODEL_ALL/V3#CL_--SPID> ;
.
<http://www.cdisc.org/SDTM_IG_EG/V3#IGD_EGTESTCD>
	rdf:type bd:SdtmDomainVariable ;
	isoC:label "ECG Test or Examination Short Name"^^xsd:string ;
	bd:rule ""^^xsd:string ;
	bd:ordinal "8"^^xsd:positiveInteger ;
	bd:name "EGTESTCD"^^xsd:string ;
	bd:description "Short name of the measurement, test, or examination described in EGTEST. It can be used as a column name when converting a dataset from a vertical to a horizontal format. The value in EGTESTCD cannot be longer than 8 characters, nor can it start with a number (e.g., \"1TEST\"). EGTESTCD cannot contain characters other than letters, numbers, or underscores. Examples :PRMEAN, QTMEAN"^^xsd:string ;
	bd:format ""^^xsd:string ;
	bd:ctAndFormat "(EGTESTCD)"^^xsd:string ;
	bd:compliance <http://www.assero.co.uk/CSN#52070084-cdd3-4ba8-8377-f670e4b0276c> ;
	bd:ctReference <http://www.cdisc.org/SDTM_IG_EG/V3#IGD_EGTESTCD_TMC1> ;
	bd:basedOnClassVariable <http://www.cdisc.org/SDTM_MODEL_FINDINGS/V3#CL_--TESTCD> ;
	bd:isA <http://www.s-cubed.dk/CAR#18a302ee283ea042f30ca2cb852a2846f97c9413> ;
.
<http://www.cdisc.org/SDTM_IG_EG/V3#IGD_EGTESTCD_TMC1>
	rdf:type bo:TMcReference ;
	isoC:label "EGTESTCD"^^xsd:string ;
	bo:enabled "true"^^xsd:boolean ;
	bo:optional "false"^^xsd:boolean ;
	bo:ordinal "1"^^xsd:positiveInteger ;
	bo:reference <http://www.cdisc.org/C71153/V36#C71153> ;
	bo:context <http://www.cdisc.org/CT/V36#TH> ;
.
<http://www.cdisc.org/SDTM_IG_EG/V3#IGD_EGTEST>
	rdf:type bd:SdtmDomainVariable ;
	isoC:label "ECG Test or Examination Name"^^xsd:string ;
	bd:rule ""^^xsd:string ;
	bd:ordinal "9"^^xsd:positiveInteger ;
	bd:name "EGTEST"^^xsd:string ;
	bd:description "Verbatim name of the test or examination used to obtain the measurement or finding. The value in EGTEST cannot be longer than 40 characters. Examples: Summary (Mean) PR Duration, Summary (Mean) QT Duration"^^xsd:string ;
	bd:format ""^^xsd:string ;
	bd:ctAndFormat "(EGTEST)"^^xsd:string ;
	bd:compliance <http://www.assero.co.uk/CSN#52070084-cdd3-4ba8-8377-f670e4b0276c> ;
	bd:ctReference <http://www.cdisc.org/SDTM_IG_EG/V3#IGD_EGTEST_TMC1> ;
	bd:basedOnClassVariable <http://www.cdisc.org/SDTM_MODEL_FINDINGS/V3#CL_--TEST> ;
.
<http://www.cdisc.org/SDTM_IG_EG/V3#IGD_EGTEST_TMC1>
	rdf:type bo:TMcReference ;
	isoC:label "EGTEST"^^xsd:string ;
	bo:enabled "true"^^xsd:boolean ;
	bo:optional "false"^^xsd:boolean ;
	bo:ordinal "1"^^xsd:positiveInteger ;
	bo:reference <http://www.cdisc.org/C71152/V36#C71152> ;
	bo:context <http://www.cdisc.org/CT/V36#TH> ;
.
<http://www.cdisc.org/SDTM_IG_EG/V3#IGD_EGCAT>
	rdf:type bd:SdtmDomainVariable ;
	isoC:label "Category for ECG"^^xsd:string ;
	bd:rule ""^^xsd:string ;
	bd:ordinal "10"^^xsd:positiveInteger ;
	bd:name "EGCAT"^^xsd:string ;
	bd:description "Used to categorize ECG observations across subjects. Examples: MEASUREMENT, FINDING, INTERVAL"^^xsd:string ;
	bd:format ""^^xsd:string ;
	bd:ctAndFormat ""^^xsd:string ;
	bd:compliance <http://www.assero.co.uk/CSN#f7d9d4e1-a00a-487e-89db-ebece910ba0d> ;
	bd:basedOnClassVariable <http://www.cdisc.org/SDTM_MODEL_FINDINGS/V3#CL_--CAT> ;
	bd:isA <http://www.s-cubed.dk/CAR#a3c686e711e4720f99b4562bb3dbaae7ab658cf2> ;
.
<http://www.cdisc.org/SDTM_IG_EG/V3#IGD_EGSCAT>
	rdf:type bd:SdtmDomainVariable ;
	isoC:label "Subcategory for ECG"^^xsd:string ;
	bd:rule ""^^xsd:string ;
	bd:ordinal "11"^^xsd:positiveInteger ;
	bd:name "EGSCAT"^^xsd:string ;
	bd:description "A further categorization of the ECG."^^xsd:string ;
	bd:format ""^^xsd:string ;
	bd:ctAndFormat ""^^xsd:string ;
	bd:compliance <http://www.assero.co.uk/CSN#f7d9d4e1-a00a-487e-89db-ebece910ba0d> ;
	bd:basedOnClassVariable <http://www.cdisc.org/SDTM_MODEL_FINDINGS/V3#CL_--SCAT> ;
	bd:isA <http://www.s-cubed.dk/CAR#479a67983e739413da55faf0dc509f83fd5dea64> ;
.
<http://www.cdisc.org/SDTM_IG_EG/V3#IGD_EGPOS>
	rdf:type bd:SdtmDomainVariable ;
	isoC:label "ECG Position of Subject"^^xsd:string ;
	bd:rule ""^^xsd:string ;
	bd:ordinal "12"^^xsd:positiveInteger ;
	bd:name "EGPOS"^^xsd:string ;
	bd:description "Position of the subject during a measurement or examination. Examples: SUPINE, STANDING, SITTING."^^xsd:string ;
	bd:format ""^^xsd:string ;
	bd:ctAndFormat "(POSITION)"^^xsd:string ;
	bd:compliance <http://www.assero.co.uk/CSN#f7d9d4e1-a00a-487e-89db-ebece910ba0d> ;
	bd:ctReference <http://www.cdisc.org/SDTM_IG_EG/V3#IGD_EGPOS_TMC1> ;
	bd:basedOnClassVariable <http://www.cdisc.org/SDTM_MODEL_FINDINGS/V3#CL_--POS> ;
	bd:isA <http://www.s-cubed.dk/CAR#cf1c85adba548e8d681255278976584a7e4a44de> ;
.
<http://www.cdisc.org/SDTM_IG_EG/V3#IGD_EGPOS_TMC1>
	rdf:type bo:TMcReference ;
	isoC:label "POSITION"^^xsd:string ;
	bo:enabled "true"^^xsd:boolean ;
	bo:optional "false"^^xsd:boolean ;
	bo:ordinal "1"^^xsd:positiveInteger ;
	bo:reference <http://www.cdisc.org/C71148/V36#C71148> ;
	bo:context <http://www.cdisc.org/CT/V36#TH> ;
.
<http://www.cdisc.org/SDTM_IG_EG/V3#IGD_EGORRES>
	rdf:type bd:SdtmDomainVariable ;
	isoC:label "Result or Finding in Original Units"^^xsd:string ;
	bd:rule ""^^xsd:string ;
	bd:ordinal "13"^^xsd:positiveInteger ;
	bd:name "EGORRES"^^xsd:string ;
	bd:description "Result of the ECG measurement or finding as originally received or collected. Examples of expected values are 62 or 0.151 when the result is an interval or measurement, or \"ATRIAL FIBRILLATION\" or \"QT PROLONGATION\" when the result is a finding."^^xsd:string ;
	bd:format ""^^xsd:string ;
	bd:ctAndFormat ""^^xsd:string ;
	bd:compliance <http://www.assero.co.uk/CSN#046f6c24-9eaf-4f60-8390-f36328c82ec4> ;
	bd:basedOnClassVariable <http://www.cdisc.org/SDTM_MODEL_FINDINGS/V3#CL_--ORRES> ;
	bd:isA <http://www.s-cubed.dk/CAR#af5f0ce4847da645162514a984a7b88b67016e80> ;
.
<http://www.cdisc.org/SDTM_IG_EG/V3#IGD_EGORRESU>
	rdf:type bd:SdtmDomainVariable ;
	isoC:label "Original Units"^^xsd:string ;
	bd:rule ""^^xsd:string ;
	bd:ordinal "14"^^xsd:positiveInteger ;
	bd:name "EGORRESU"^^xsd:string ;
	bd:description "Original units in which the data were collected. The unit for EGORRES. Examples: sec or msec."^^xsd:string ;
	bd:format ""^^xsd:string ;
	bd:ctAndFormat "(UNIT)"^^xsd:string ;
	bd:compliance <http://www.assero.co.uk/CSN#f7d9d4e1-a00a-487e-89db-ebece910ba0d> ;
	bd:ctReference <http://www.cdisc.org/SDTM_IG_EG/V3#IGD_EGORRESU_TMC1> ;
	bd:basedOnClassVariable <http://www.cdisc.org/SDTM_MODEL_FINDINGS/V3#CL_--ORRESU> ;
	bd:isA <http://www.s-cubed.dk/CAR#7715259cc4b4ef877c53de5ab0e9673dff58ca35> ;
.
<http://www.cdisc.org/SDTM_IG_EG/V3#IGD_EGORRESU_TMC1>
	rdf:type bo:TMcReference ;
	isoC:label "UNIT"^^xsd:string ;
	bo:enabled "true"^^xsd:boolean ;
	bo:optional "false"^^xsd:boolean ;
	bo:ordinal "1"^^xsd:positiveInteger ;
	bo:reference <http://www.cdisc.org/C71620/V36#C71620> ;
	bo:context <http://www.cdisc.org/CT/V36#TH> ;
.
<http://www.cdisc.org/SDTM_IG_EG/V3#IGD_EGSTRESC>
	rdf:type bd:SdtmDomainVariable ;
	isoC:label "Character Result/Finding in Std Format"^^xsd:string ;
	bd:rule ""^^xsd:string ;
	bd:ordinal "15"^^xsd:positiveInteger ;
	bd:name "EGSTRESC"^^xsd:string ;
	bd:description "Contains the result value for all findings, copied or derived from EGORRES in a standard format or standard units. EGSTRESC should store all results or findings in character format; if results are numeric, they should also be stored in numeric format in EGSTRESN. For example, if a test has results of \"NONE\", \"NEG\", and \"NEGATIVE\" in EGORRES and these results effectively have the same meaning, they could be represented in standard format in EGSTRESC as \"NEGATIVE\". For other examples, see general assumptions. Additional examples of result data: SINUS BRADYCARDIA, ATRIAL FLUTTER, ATRIAL FIBRILLATION."^^xsd:string ;
	bd:format ""^^xsd:string ;
	bd:ctAndFormat "(EGSTRESC)"^^xsd:string ;
	bd:compliance <http://www.assero.co.uk/CSN#046f6c24-9eaf-4f60-8390-f36328c82ec4> ;
	bd:ctReference <http://www.cdisc.org/SDTM_IG_EG/V3#IGD_EGSTRESC_TMC1> ;
	bd:basedOnClassVariable <http://www.cdisc.org/SDTM_MODEL_FINDINGS/V3#CL_--STRESC> ;
.
<http://www.cdisc.org/SDTM_IG_EG/V3#IGD_EGSTRESC_TMC1>
	rdf:type bo:TMcReference ;
	isoC:label "EGSTRESC"^^xsd:string ;
	bo:enabled "true"^^xsd:boolean ;
	bo:optional "false"^^xsd:boolean ;
	bo:ordinal "1"^^xsd:positiveInteger ;
	bo:reference <http://www.cdisc.org/C71150/V36#C71150> ;
	bo:context <http://www.cdisc.org/CT/V36#TH> ;
.
<http://www.cdisc.org/SDTM_IG_EG/V3#IGD_EGSTRESN>
	rdf:type bd:SdtmDomainVariable ;
	isoC:label "Numeric Result/Finding in Standard Units"^^xsd:string ;
	bd:rule ""^^xsd:string ;
	bd:ordinal "16"^^xsd:positiveInteger ;
	bd:name "EGSTRESN"^^xsd:string ;
	bd:description "Used for continuous or numeric results or findings in standard format; copied in numeric format from EGSTRESC. EGSTRESN should store all numeric test results or findings."^^xsd:string ;
	bd:format ""^^xsd:string ;
	bd:ctAndFormat ""^^xsd:string ;
	bd:compliance <http://www.assero.co.uk/CSN#f7d9d4e1-a00a-487e-89db-ebece910ba0d> ;
	bd:basedOnClassVariable <http://www.cdisc.org/SDTM_MODEL_FINDINGS/V3#CL_--STRESN> ;
.
<http://www.cdisc.org/SDTM_IG_EG/V3#IGD_EGSTRESU>
	rdf:type bd:SdtmDomainVariable ;
	isoC:label "Standard Units"^^xsd:string ;
	bd:rule ""^^xsd:string ;
	bd:ordinal "17"^^xsd:positiveInteger ;
	bd:name "EGSTRESU"^^xsd:string ;
	bd:description "Standardized unit used for EGSTRESC or EGSTRESN."^^xsd:string ;
	bd:format ""^^xsd:string ;
	bd:ctAndFormat "(UNIT)"^^xsd:string ;
	bd:compliance <http://www.assero.co.uk/CSN#f7d9d4e1-a00a-487e-89db-ebece910ba0d> ;
	bd:ctReference <http://www.cdisc.org/SDTM_IG_EG/V3#IGD_EGSTRESU_TMC1> ;
	bd:basedOnClassVariable <http://www.cdisc.org/SDTM_MODEL_FINDINGS/V3#CL_--STRESU> ;
.
<http://www.cdisc.org/SDTM_IG_EG/V3#IGD_EGSTRESU_TMC1>
	rdf:type bo:TMcReference ;
	isoC:label "UNIT"^^xsd:string ;
	bo:enabled "true"^^xsd:boolean ;
	bo:optional "false"^^xsd:boolean ;
	bo:ordinal "1"^^xsd:positiveInteger ;
	bo:reference <http://www.cdisc.org/C71620/V36#C71620> ;
	bo:context <http://www.cdisc.org/CT/V36#TH> ;
.
<http://www.cdisc.org/SDTM_IG_EG/V3#IGD_EGSTAT>
	rdf:type bd:SdtmDomainVariable ;
	isoC:label "Completion Status"^^xsd:string ;
	bd:rule ""^^xsd:string ;
	bd:ordinal "18"^^xsd:positiveInteger ;
	bd:name "EGSTAT"^^xsd:string ;
	bd:description "Used to indicate an ECG was not done, or an ECG measurement was not taken. Should be null if a result exists in EGORRES."^^xsd:string ;
	bd:format ""^^xsd:string ;
	bd:ctAndFormat "(ND)"^^xsd:string ;
	bd:compliance <http://www.assero.co.uk/CSN#f7d9d4e1-a00a-487e-89db-ebece910ba0d> ;
	bd:ctReference <http://www.cdisc.org/SDTM_IG_EG/V3#IGD_EGSTAT_TMC1> ;
	bd:basedOnClassVariable <http://www.cdisc.org/SDTM_MODEL_FINDINGS/V3#CL_--STAT> ;
	bd:isA <http://www.s-cubed.dk/CAR#bae7d5be70820ed56467bd9a63744e23b47bd711> ;
.
<http://www.cdisc.org/SDTM_IG_EG/V3#IGD_EGSTAT_TMC1>
	rdf:type bo:TMcReference ;
	isoC:label "ND"^^xsd:string ;
	bo:enabled "true"^^xsd:boolean ;
	bo:optional "false"^^xsd:boolean ;
	bo:ordinal "1"^^xsd:positiveInteger ;
	bo:reference <http://www.cdisc.org/C66789/V13#C66789> ;
	bo:context <http://www.cdisc.org/CT/V36#TH> ;
.
<http://www.cdisc.org/SDTM_IG_EG/V3#IGD_EGREASND>
	rdf:type bd:SdtmDomainVariable ;
	isoC:label "Reason ECG Not Performed"^^xsd:string ;
	bd:rule ""^^xsd:string ;
	bd:ordinal "19"^^xsd:positiveInteger ;
	bd:name "EGREASND"^^xsd:string ;
	bd:description "Describes why a measurement or test was not performed. Examples: BROKEN EQUIPMENT or SUBJECT REFUSED. Used in conjunction with EGSTAT when value is NOT DONE."^^xsd:string ;
	bd:format ""^^xsd:string ;
	bd:ctAndFormat ""^^xsd:string ;
	bd:compliance <http://www.assero.co.uk/CSN#f7d9d4e1-a00a-487e-89db-ebece910ba0d> ;
	bd:basedOnClassVariable <http://www.cdisc.org/SDTM_MODEL_FINDINGS/V3#CL_--REASND> ;
.
<http://www.cdisc.org/SDTM_IG_EG/V3#IGD_EGXFN>
	rdf:type bd:SdtmDomainVariable ;
	isoC:label "ECG External File Path"^^xsd:string ;
	bd:rule ""^^xsd:string ;
	bd:ordinal "20"^^xsd:positiveInteger ;
	bd:name "EGXFN"^^xsd:string ;
	bd:description "File name and path for the external ECG Waveform file."^^xsd:string ;
	bd:format ""^^xsd:string ;
	bd:ctAndFormat ""^^xsd:string ;
	bd:compliance <http://www.assero.co.uk/CSN#f7d9d4e1-a00a-487e-89db-ebece910ba0d> ;
	bd:basedOnClassVariable <http://www.cdisc.org/SDTM_MODEL_FINDINGS/V3#CL_--XFN> ;
.
<http://www.cdisc.org/SDTM_IG_EG/V3#IGD_EGNAM>
	rdf:type bd:SdtmDomainVariable ;
	isoC:label "Vendor Name"^^xsd:string ;
	bd:rule ""^^xsd:string ;
	bd:ordinal "21"^^xsd:positiveInteger ;
	bd:name "EGNAM"^^xsd:string ;
	bd:description "Name or identifier of the laboratory or vendor who provided the test results."^^xsd:string ;
	bd:format ""^^xsd:string ;
	bd:ctAndFormat ""^^xsd:string ;
	bd:compliance <http://www.assero.co.uk/CSN#f7d9d4e1-a00a-487e-89db-ebece910ba0d> ;
	bd:basedOnClassVariable <http://www.cdisc.org/SDTM_MODEL_FINDINGS/V3#CL_--NAM> ;
.
<http://www.cdisc.org/SDTM_IG_EG/V3#IGD_EGLEAD>
	rdf:type bd:SdtmDomainVariable ;
	isoC:label "Lead Location Used for Measurement"^^xsd:string ;
	bd:rule ""^^xsd:string ;
	bd:ordinal "22"^^xsd:positiveInteger ;
	bd:name "EGLEAD"^^xsd:string ;
	bd:description "The lead used for the measurement, examples, V1, V6, aVR, I, II, III."^^xsd:string ;
	bd:format ""^^xsd:string ;
	bd:ctAndFormat "(LOC)"^^xsd:string ;
	bd:compliance <http://www.assero.co.uk/CSN#f7d9d4e1-a00a-487e-89db-ebece910ba0d> ;
	bd:ctReference <http://www.cdisc.org/SDTM_IG_EG/V3#IGD_EGLEAD_TMC1> ;
	bd:basedOnClassVariable <http://www.cdisc.org/SDTM_MODEL_FINDINGS/V3#CL_--LEAD> ;
.
<http://www.cdisc.org/SDTM_IG_EG/V3#IGD_EGLEAD_TMC1>
	rdf:type bo:TMcReference ;
	isoC:label "LOC"^^xsd:string ;
	bo:enabled "true"^^xsd:boolean ;
	bo:optional "false"^^xsd:boolean ;
	bo:ordinal "1"^^xsd:positiveInteger ;
	bo:reference <http://www.cdisc.org/C74456/V36#C74456> ;
	bo:context <http://www.cdisc.org/CT/V36#TH> ;
.
<http://www.cdisc.org/SDTM_IG_EG/V3#IGD_EGMETHOD>
	rdf:type bd:SdtmDomainVariable ;
	isoC:label "Method of ECG Test"^^xsd:string ;
	bd:rule ""^^xsd:string ;
	bd:ordinal "23"^^xsd:positiveInteger ;
	bd:name "EGMETHOD"^^xsd:string ;
	bd:description "Method of the ECG test. Examples: 12 LEAD STANDARD."^^xsd:string ;
	bd:format ""^^xsd:string ;
	bd:ctAndFormat "(EGMETHOD)"^^xsd:string ;
	bd:compliance <http://www.assero.co.uk/CSN#f7d9d4e1-a00a-487e-89db-ebece910ba0d> ;
	bd:ctReference <http://www.cdisc.org/SDTM_IG_EG/V3#IGD_EGMETHOD_TMC1> ;
	bd:basedOnClassVariable <http://www.cdisc.org/SDTM_MODEL_FINDINGS/V3#CL_--METHOD> ;
	bd:isA <http://www.s-cubed.dk/CAR#88306943fea7e76f9cd57cae0ea6d8b32d2e8434> ;
.
<http://www.cdisc.org/SDTM_IG_EG/V3#IGD_EGMETHOD_TMC1>
	rdf:type bo:TMcReference ;
	isoC:label "EGMETHOD"^^xsd:string ;
	bo:enabled "true"^^xsd:boolean ;
	bo:optional "false"^^xsd:boolean ;
	bo:ordinal "1"^^xsd:positiveInteger ;
	bo:reference <http://www.cdisc.org/C71151/V26#C71151> ;
	bo:context <http://www.cdisc.org/CT/V36#TH> ;
.
<http://www.cdisc.org/SDTM_IG_EG/V3#IGD_EGBLFL>
	rdf:type bd:SdtmDomainVariable ;
	isoC:label "Baseline Flag"^^xsd:string ;
	bd:rule ""^^xsd:string ;
	bd:ordinal "24"^^xsd:positiveInteger ;
	bd:name "EGBLFL"^^xsd:string ;
	bd:description "Indicator used to identify a baseline value. The value should be \"Y\" or null."^^xsd:string ;
	bd:format ""^^xsd:string ;
	bd:ctAndFormat "(NY)"^^xsd:string ;
	bd:compliance <http://www.assero.co.uk/CSN#046f6c24-9eaf-4f60-8390-f36328c82ec4> ;
	bd:ctReference <http://www.cdisc.org/SDTM_IG_EG/V3#IGD_EGBLFL_TMC1> ;
	bd:basedOnClassVariable <http://www.cdisc.org/SDTM_MODEL_FINDINGS/V3#CL_--BLFL> ;
.
<http://www.cdisc.org/SDTM_IG_EG/V3#IGD_EGBLFL_TMC1>
	rdf:type bo:TMcReference ;
	isoC:label "NY"^^xsd:string ;
	bo:enabled "true"^^xsd:boolean ;
	bo:optional "false"^^xsd:boolean ;
	bo:ordinal "1"^^xsd:positiveInteger ;
	bo:reference <http://www.cdisc.org/C66742/V36#C66742> ;
	bo:context <http://www.cdisc.org/CT/V36#TH> ;
.
<http://www.cdisc.org/SDTM_IG_EG/V3#IGD_EGDRVFL>
	rdf:type bd:SdtmDomainVariable ;
	isoC:label "Derived Flag"^^xsd:string ;
	bd:rule ""^^xsd:string ;
	bd:ordinal "25"^^xsd:positiveInteger ;
	bd:name "EGDRVFL"^^xsd:string ;
	bd:description "Used to indicate a derived record. The value should be Y or null. Records which represent the average of other records, or that do not come from the CRF, or are not as originally collected or received are examples of records that would be derived for the submission datasets. If EGDRVFL=Y, then EGORRES could be null, with EGSTRESC, and (if numeric) EGSTRESN having the derived value."^^xsd:string ;
	bd:format ""^^xsd:string ;
	bd:ctAndFormat "(NY)"^^xsd:string ;
	bd:compliance <http://www.assero.co.uk/CSN#f7d9d4e1-a00a-487e-89db-ebece910ba0d> ;
	bd:ctReference <http://www.cdisc.org/SDTM_IG_EG/V3#IGD_EGDRVFL_TMC1> ;
	bd:basedOnClassVariable <http://www.cdisc.org/SDTM_MODEL_FINDINGS/V3#CL_--DRVFL> ;
.
<http://www.cdisc.org/SDTM_IG_EG/V3#IGD_EGDRVFL_TMC1>
	rdf:type bo:TMcReference ;
	isoC:label "NY"^^xsd:string ;
	bo:enabled "true"^^xsd:boolean ;
	bo:optional "false"^^xsd:boolean ;
	bo:ordinal "1"^^xsd:positiveInteger ;
	bo:reference <http://www.cdisc.org/C66742/V36#C66742> ;
	bo:context <http://www.cdisc.org/CT/V36#TH> ;
.
<http://www.cdisc.org/SDTM_IG_EG/V3#IGD_EGEVAL>
	rdf:type bd:SdtmDomainVariable ;
	isoC:label "Evaluator"^^xsd:string ;
	bd:rule ""^^xsd:string ;
	bd:ordinal "26"^^xsd:positiveInteger ;
	bd:name "EGEVAL"^^xsd:string ;
	bd:description "Role of the person who provided the evaluation. Used only for results that are subjective (e.g., assigned by a person or a group). Should be null for records that contain collected or derived data. Examples: INVESTIGATOR, ADJUDICATION COMMITTEE, VENDOR."^^xsd:string ;
	bd:format ""^^xsd:string ;
	bd:ctAndFormat ""^^xsd:string ;
	bd:compliance <http://www.assero.co.uk/CSN#f7d9d4e1-a00a-487e-89db-ebece910ba0d> ;
	bd:basedOnClassVariable <http://www.cdisc.org/SDTM_MODEL_FINDINGS/V3#CL_--EVAL> ;
	bd:isA <http://www.s-cubed.dk/CAR#07500ad5733a5c873074c6df8d3e516da1de8ae1> ;
.
<http://www.cdisc.org/SDTM_IG_EG/V3#IGD_VISITNUM>
	rdf:type bd:SdtmDomainVariable ;
	isoC:label "Visit Number"^^xsd:string ;
	bd:rule ""^^xsd:string ;
	bd:ordinal "27"^^xsd:positiveInteger ;
	bd:name "VISITNUM"^^xsd:string ;
	bd:description "1. Clinical encounter number.\n2. Numeric version of VISIT, used for sorting."^^xsd:string ;
	bd:format ""^^xsd:string ;
	bd:ctAndFormat ""^^xsd:string ;
	bd:compliance <http://www.assero.co.uk/CSN#046f6c24-9eaf-4f60-8390-f36328c82ec4> ;
	bd:basedOnClassVariable <http://www.cdisc.org/SDTM_MODEL_ALL/V3#CL_VISITNUM> ;
.
<http://www.cdisc.org/SDTM_IG_EG/V3#IGD_VISIT>
	rdf:type bd:SdtmDomainVariable ;
	isoC:label "Visit Name"^^xsd:string ;
	bd:rule ""^^xsd:string ;
	bd:ordinal "28"^^xsd:positiveInteger ;
	bd:name "VISIT"^^xsd:string ;
	bd:description "1. Protocol-defined description of clinical encounter.\n2. May be used in addition to VISITNUM and/or VISITDY."^^xsd:string ;
	bd:format ""^^xsd:string ;
	bd:ctAndFormat ""^^xsd:string ;
	bd:compliance <http://www.assero.co.uk/CSN#f7d9d4e1-a00a-487e-89db-ebece910ba0d> ;
	bd:basedOnClassVariable <http://www.cdisc.org/SDTM_MODEL_ALL/V3#CL_VISIT> ;
.
<http://www.cdisc.org/SDTM_IG_EG/V3#IGD_VISITDY>
	rdf:type bd:SdtmDomainVariable ;
	isoC:label "Planned Study Day of Visit"^^xsd:string ;
	bd:rule ""^^xsd:string ;
	bd:ordinal "29"^^xsd:positiveInteger ;
	bd:name "VISITDY"^^xsd:string ;
	bd:description "Planned study day of the visit based upon RFSTDTC in Demographics."^^xsd:string ;
	bd:format ""^^xsd:string ;
	bd:ctAndFormat ""^^xsd:string ;
	bd:compliance <http://www.assero.co.uk/CSN#f7d9d4e1-a00a-487e-89db-ebece910ba0d> ;
	bd:basedOnClassVariable <http://www.cdisc.org/SDTM_MODEL_ALL/V3#CL_VISITDY> ;
.
<http://www.cdisc.org/SDTM_IG_EG/V3#IGD_EGDTC>
	rdf:type bd:SdtmDomainVariable ;
	isoC:label "Date/Time of ECG"^^xsd:string ;
	bd:rule ""^^xsd:string ;
	bd:ordinal "30"^^xsd:positiveInteger ;
	bd:name "EGDTC"^^xsd:string ;
	bd:description "Date of ECG."^^xsd:string ;
	bd:format "ISO 8601"^^xsd:string ;
	bd:ctAndFormat "ISO 8601"^^xsd:string ;
	bd:compliance <http://www.assero.co.uk/CSN#046f6c24-9eaf-4f60-8390-f36328c82ec4> ;
	bd:basedOnClassVariable <http://www.cdisc.org/SDTM_MODEL_ALL/V3#CL_--DTC> ;
	bd:isA <http://www.s-cubed.dk/CAR#232daabe4ca2dfdb32645c572b1d34ddb4fe9995> ;
.
<http://www.cdisc.org/SDTM_IG_EG/V3#IGD_EGDY>
	rdf:type bd:SdtmDomainVariable ;
	isoC:label "Study Day of ECG"^^xsd:string ;
	bd:rule ""^^xsd:string ;
	bd:ordinal "31"^^xsd:positiveInteger ;
	bd:name "EGDY"^^xsd:string ;
	bd:description "1. Study day of the ECG, measured as integer days.\n2. Algorithm for calculations must be relative to the sponsor-defined RFSTDTC variable in Demographics."^^xsd:string ;
	bd:format ""^^xsd:string ;
	bd:ctAndFormat ""^^xsd:string ;
	bd:compliance <http://www.assero.co.uk/CSN#f7d9d4e1-a00a-487e-89db-ebece910ba0d> ;
	bd:basedOnClassVariable <http://www.cdisc.org/SDTM_MODEL_ALL/V3#CL_--DY> ;
.
<http://www.cdisc.org/SDTM_IG_EG/V3#IGD_EGTPT>
	rdf:type bd:SdtmDomainVariable ;
	isoC:label "Planned Time Point Name"^^xsd:string ;
	bd:rule ""^^xsd:string ;
	bd:ordinal "32"^^xsd:positiveInteger ;
	bd:name "EGTPT"^^xsd:string ;
	bd:description "1. Text Description of time when measurement should be taken.\n2. This may be represented as an elapsed time relative to a fixed reference point, such as time of last dose. See EGTPTNUM and EGTPTREF. Examples: Start, 5 min post."^^xsd:string ;
	bd:format ""^^xsd:string ;
	bd:ctAndFormat ""^^xsd:string ;
	bd:compliance <http://www.assero.co.uk/CSN#f7d9d4e1-a00a-487e-89db-ebece910ba0d> ;
	bd:basedOnClassVariable <http://www.cdisc.org/SDTM_MODEL_ALL/V3#CL_--TPT> ;
.
<http://www.cdisc.org/SDTM_IG_EG/V3#IGD_EGTPTNUM>
	rdf:type bd:SdtmDomainVariable ;
	isoC:label "Planned Time Point Number"^^xsd:string ;
	bd:rule ""^^xsd:string ;
	bd:ordinal "33"^^xsd:positiveInteger ;
	bd:name "EGTPTNUM"^^xsd:string ;
	bd:description "Numerical version of EGTPT to aid in sorting."^^xsd:string ;
	bd:format ""^^xsd:string ;
	bd:ctAndFormat ""^^xsd:string ;
	bd:compliance <http://www.assero.co.uk/CSN#f7d9d4e1-a00a-487e-89db-ebece910ba0d> ;
	bd:basedOnClassVariable <http://www.cdisc.org/SDTM_MODEL_ALL/V3#CL_--TPTNUM> ;
.
<http://www.cdisc.org/SDTM_IG_EG/V3#IGD_EGELTM>
	rdf:type bd:SdtmDomainVariable ;
	isoC:label "Planned Elapsed Time from Time Point Ref"^^xsd:string ;
	bd:rule ""^^xsd:string ;
	bd:ordinal "34"^^xsd:positiveInteger ;
	bd:name "EGELTM"^^xsd:string ;
	bd:description "Planned elapsed time (in ISO 8601) relative to a fixed time point reference (EGTPTREF). Not a clock time or a date time variable. Represented as an ISO 8601 duration. Examples: \"-PT15M\" to represent the period of 15 minutes prior to the reference point indicated by EGTPTREF, or \"PT8H\" to represent the period of 8 hours after the reference point indicated by EGTPTREF."^^xsd:string ;
	bd:format "ISO 8601"^^xsd:string ;
	bd:ctAndFormat "ISO 8601"^^xsd:string ;
	bd:compliance <http://www.assero.co.uk/CSN#f7d9d4e1-a00a-487e-89db-ebece910ba0d> ;
	bd:basedOnClassVariable <http://www.cdisc.org/SDTM_MODEL_ALL/V3#CL_--ELTM> ;
.
<http://www.cdisc.org/SDTM_IG_EG/V3#IGD_EGTPTREF>
	rdf:type bd:SdtmDomainVariable ;
	isoC:label "Time Point Reference"^^xsd:string ;
	bd:rule ""^^xsd:string ;
	bd:ordinal "35"^^xsd:positiveInteger ;
	bd:name "EGTPTREF"^^xsd:string ;
	bd:description "Name of the fixed reference point referred to by EGELTM, EGTPTNUM, and EGTPT. Examples: PREVIOUS DOSE, PREVIOUS MEAL."^^xsd:string ;
	bd:format ""^^xsd:string ;
	bd:ctAndFormat ""^^xsd:string ;
	bd:compliance <http://www.assero.co.uk/CSN#f7d9d4e1-a00a-487e-89db-ebece910ba0d> ;
	bd:basedOnClassVariable <http://www.cdisc.org/SDTM_MODEL_ALL/V3#CL_--TPTREF> ;
.
<http://www.cdisc.org/SDTM_IG_EG/V3#IGD_EGRFTDTC>
	rdf:type bd:SdtmDomainVariable ;
	isoC:label "Date/Time of Reference Time Point"^^xsd:string ;
	bd:rule ""^^xsd:string ;
	bd:ordinal "36"^^xsd:positiveInteger ;
	bd:name "EGRFTDTC"^^xsd:string ;
	bd:description "Date/time of the reference time point, EGTPTREF."^^xsd:string ;
	bd:format "ISO 8601"^^xsd:string ;
	bd:ctAndFormat "ISO 8601"^^xsd:string ;
	bd:compliance <http://www.assero.co.uk/CSN#f7d9d4e1-a00a-487e-89db-ebece910ba0d> ;
	bd:basedOnClassVariable <http://www.cdisc.org/SDTM_MODEL_ALL/V3#CL_--RFTDTC> ;
.
<http://www.cdisc.org/SDTM_IG_IE/V3#IGD>
	rdf:type bd:SdtmDomain ;
	isoC:label "Inclusion/Exclusion Criteria Not Met"^^xsd:string ;
	isoT:hasState <http://www.cdisc.org/SDTM_IG_IE/V3#IGD_RS> ;
	isoT:hasIdentifier <http://www.cdisc.org/SDTM_IG_IE/V3#IGD_SI> ;
	isoT:hasPreviousVersion <http://www.cdisc.org/SDTM_IG_IE/V2#IGD> ;
	isoT:origin ""^^xsd:string ;
	isoT:changeDescription ""^^xsd:string ;
	isoT:creationDate "2013-11-26T00:00:00+00:00"^^xsd:dateTime ;
	isoT:lastChangeDate "2013-11-26T00:00:00+00:00"^^xsd:dateTime ;
	isoT:explanatoryComment ""^^xsd:string ;
	bd:rule ""^^xsd:string ;
	bd:ordinal "1"^^xsd:positiveInteger ;
	bd:includesColumn <http://www.cdisc.org/SDTM_IG_IE/V1#IGD_STUDYID> ;
	bd:includesColumn <http://www.cdisc.org/SDTM_IG_IE/V2#IGD_DOMAIN> ;
	bd:includesColumn <http://www.cdisc.org/SDTM_IG_IE/V1#IGD_USUBJID> ;
	bd:includesColumn <http://www.cdisc.org/SDTM_IG_IE/V3#IGD_IESEQ> ;
	bd:includesColumn <http://www.cdisc.org/SDTM_IG_IE/V3#IGD_IESPID> ;
	bd:includesColumn <http://www.cdisc.org/SDTM_IG_IE/V3#IGD_IETESTCD> ;
	bd:includesColumn <http://www.cdisc.org/SDTM_IG_IE/V3#IGD_IETEST> ;
	bd:includesColumn <http://www.cdisc.org/SDTM_IG_IE/V3#IGD_IECAT> ;
	bd:includesColumn <http://www.cdisc.org/SDTM_IG_IE/V3#IGD_IESCAT> ;
	bd:includesColumn <http://www.cdisc.org/SDTM_IG_IE/V3#IGD_IEORRES> ;
	bd:includesColumn <http://www.cdisc.org/SDTM_IG_IE/V3#IGD_IESTRESC> ;
	bd:includesColumn <http://www.cdisc.org/SDTM_IG_IE/V3#IGD_VISITNUM> ;
	bd:includesColumn <http://www.cdisc.org/SDTM_IG_IE/V3#IGD_VISIT> ;
	bd:includesColumn <http://www.cdisc.org/SDTM_IG_IE/V3#IGD_VISITDY> ;
	bd:includesColumn <http://www.cdisc.org/SDTM_IG_IE/V3#IGD_IEDTC> ;
	bd:includesColumn <http://www.cdisc.org/SDTM_IG_IE/V3#IGD_IEDY> ;
	bd:prefix "IE"^^xsd:string ;
	bd:structure "One record per inclusion/exclusion criterion not met per subject"^^xsd:string ;
	bd:basedOnClass <http://www.cdisc.org/SDTM_MODEL_FINDINGS/V3#CL> ;
.
<http://www.cdisc.org/SDTM_IG_IE/V3#IGD_RS>
	rdf:type isoR:RegistrationState ;
	isoR:registrationStatus "Standard"^^xsd:string ;
	isoR:administrativeNote ""^^xsd:string ;
	isoR:effectiveDate "2016-01-01T00:00:00+00:00"^^xsd:dateTime ;
	isoR:untilDate "2016-01-01T00:00:00+00:00"^^xsd:dateTime ;
	isoR:unresolvedIssue ""^^xsd:string ;
	isoR:administrativeStatus ""^^xsd:string ;
	isoR:previousState "Standard"^^xsd:string ;
	isoR:multipleEdit "false"^^xsd:boolean ;
	isoR:byAuthority <http://www.assero.co.uk/RA#DUNS084433759> ;
.
<http://www.cdisc.org/SDTM_IG_IE/V3#IGD_SI>
	rdf:type isoI:ScopedIdentifier ;
	isoI:identifier "SDTM IG IE"^^xsd:string ;
	isoI:versionLabel "2013-11-26 Release"^^xsd:string ;
	isoI:version "3"^^xsd:positiveInteger ;
	isoI:semanticVersion "3.2.0"^^xsd:string ;
	isoI:hasScope <http://www.assero.co.uk/NS#CDISC> ;
.
<http://www.cdisc.org/SDTM_IG_IE/V3#IGD_IESEQ>
	rdf:type bd:SdtmDomainVariable ;
	isoC:label "Sequence Number"^^xsd:string ;
	bd:rule ""^^xsd:string ;
	bd:ordinal "4"^^xsd:positiveInteger ;
	bd:name "IESEQ"^^xsd:string ;
	bd:description "Sequence Number given to ensure uniqueness of subject records within a domain. May be any valid number."^^xsd:string ;
	bd:format ""^^xsd:string ;
	bd:ctAndFormat ""^^xsd:string ;
	bd:compliance <http://www.assero.co.uk/CSN#52070084-cdd3-4ba8-8377-f670e4b0276c> ;
	bd:basedOnClassVariable <http://www.cdisc.org/SDTM_MODEL_ALL/V3#CL_--SEQ> ;
.
<http://www.cdisc.org/SDTM_IG_IE/V3#IGD_IESPID>
	rdf:type bd:SdtmDomainVariable ;
	isoC:label "Sponsor-Defined Identifier"^^xsd:string ;
	bd:rule ""^^xsd:string ;
	bd:ordinal "5"^^xsd:positiveInteger ;
	bd:name "IESPID"^^xsd:string ;
	bd:description "Sponsor-defined reference number. Perhaps pre-printed on the CRF as an explicit line identifier or defined in the sponsor's operational database. Example: Inclusion or Exclusion criteria number from CRF."^^xsd:string ;
	bd:format ""^^xsd:string ;
	bd:ctAndFormat ""^^xsd:string ;
	bd:compliance <http://www.assero.co.uk/CSN#f7d9d4e1-a00a-487e-89db-ebece910ba0d> ;
	bd:basedOnClassVariable <http://www.cdisc.org/SDTM_MODEL_ALL/V3#CL_--SPID> ;
.
<http://www.cdisc.org/SDTM_IG_IE/V3#IGD_IETESTCD>
	rdf:type bd:SdtmDomainVariable ;
	isoC:label "Inclusion/Exclusion Criterion Short Name"^^xsd:string ;
	bd:rule ""^^xsd:string ;
	bd:ordinal "6"^^xsd:positiveInteger ;
	bd:name "IETESTCD"^^xsd:string ;
	bd:description "Short name of the criterion described in IETEST. The value in IETESTCD cannot be longer than 8 characters, nor can it start with a number (e.g.\"1TEST\"). IETESTCD cannot contain characters other than letters, numbers, or underscores. Examples: IN01, EX01."^^xsd:string ;
	bd:format ""^^xsd:string ;
	bd:ctAndFormat ""^^xsd:string ;
	bd:compliance <http://www.assero.co.uk/CSN#52070084-cdd3-4ba8-8377-f670e4b0276c> ;
	bd:basedOnClassVariable <http://www.cdisc.org/SDTM_MODEL_FINDINGS/V3#CL_--TESTCD> ;
	bd:isA <http://www.s-cubed.dk/CAR#18a302ee283ea042f30ca2cb852a2846f97c9413> ;
.
<http://www.cdisc.org/SDTM_IG_IE/V3#IGD_IETEST>
	rdf:type bd:SdtmDomainVariable ;
	isoC:label "Inclusion/Exclusion Criterion"^^xsd:string ;
	bd:rule ""^^xsd:string ;
	bd:ordinal "7"^^xsd:positiveInteger ;
	bd:name "IETEST"^^xsd:string ;
	bd:description "Verbatim description of the inclusion or exclusion criterion that was the exception for the subject within the study. IETEST cannot be longer than 200 characters."^^xsd:string ;
	bd:format ""^^xsd:string ;
	bd:ctAndFormat ""^^xsd:string ;
	bd:compliance <http://www.assero.co.uk/CSN#52070084-cdd3-4ba8-8377-f670e4b0276c> ;
	bd:basedOnClassVariable <http://www.cdisc.org/SDTM_MODEL_FINDINGS/V3#CL_--TEST> ;
.
<http://www.cdisc.org/SDTM_IG_IE/V3#IGD_IECAT>
	rdf:type bd:SdtmDomainVariable ;
	isoC:label "Inclusion/Exclusion Category"^^xsd:string ;
	bd:rule ""^^xsd:string ;
	bd:ordinal "8"^^xsd:positiveInteger ;
	bd:name "IECAT"^^xsd:string ;
	bd:description "Used to define a category of related records across subjects."^^xsd:string ;
	bd:format ""^^xsd:string ;
	bd:ctAndFormat "(IECAT)"^^xsd:string ;
	bd:compliance <http://www.assero.co.uk/CSN#52070084-cdd3-4ba8-8377-f670e4b0276c> ;
	bd:ctReference <http://www.cdisc.org/SDTM_IG_IE/V3#IGD_IECAT_TMC1> ;
	bd:basedOnClassVariable <http://www.cdisc.org/SDTM_MODEL_FINDINGS/V3#CL_--CAT> ;
	bd:isA <http://www.s-cubed.dk/CAR#a3c686e711e4720f99b4562bb3dbaae7ab658cf2> ;
.
<http://www.cdisc.org/SDTM_IG_IE/V3#IGD_IECAT_TMC1>
	rdf:type bo:TMcReference ;
	isoC:label "IECAT"^^xsd:string ;
	bo:enabled "true"^^xsd:boolean ;
	bo:optional "false"^^xsd:boolean ;
	bo:ordinal "1"^^xsd:positiveInteger ;
	bo:reference <http://www.cdisc.org/C66797/V27#C66797> ;
	bo:context <http://www.cdisc.org/CT/V36#TH> ;
.
<http://www.cdisc.org/SDTM_IG_IE/V3#IGD_IESCAT>
	rdf:type bd:SdtmDomainVariable ;
	isoC:label "Inclusion/Exclusion Subcategory"^^xsd:string ;
	bd:rule ""^^xsd:string ;
	bd:ordinal "9"^^xsd:positiveInteger ;
	bd:name "IESCAT"^^xsd:string ;
	bd:description "A further categorization of the exception criterion. Can be used to distinguish criteria for a sub-study or for to categorize as a major or minor exceptions. Examples: MAJOR, MINOR."^^xsd:string ;
	bd:format ""^^xsd:string ;
	bd:ctAndFormat ""^^xsd:string ;
	bd:compliance <http://www.assero.co.uk/CSN#f7d9d4e1-a00a-487e-89db-ebece910ba0d> ;
	bd:basedOnClassVariable <http://www.cdisc.org/SDTM_MODEL_FINDINGS/V3#CL_--SCAT> ;
	bd:isA <http://www.s-cubed.dk/CAR#479a67983e739413da55faf0dc509f83fd5dea64> ;
.
<http://www.cdisc.org/SDTM_IG_IE/V3#IGD_IEORRES>
	rdf:type bd:SdtmDomainVariable ;
	isoC:label "I/E Criterion Original Result"^^xsd:string ;
	bd:rule ""^^xsd:string ;
	bd:ordinal "10"^^xsd:positiveInteger ;
	bd:name "IEORRES"^^xsd:string ;
	bd:description "Original response to Inclusion/Exclusion Criterion question. Inclusion or Exclusion criterion met?"^^xsd:string ;
	bd:format ""^^xsd:string ;
	bd:ctAndFormat "(NY)"^^xsd:string ;
	bd:compliance <http://www.assero.co.uk/CSN#52070084-cdd3-4ba8-8377-f670e4b0276c> ;
	bd:ctReference <http://www.cdisc.org/SDTM_IG_IE/V3#IGD_IEORRES_TMC1> ;
	bd:basedOnClassVariable <http://www.cdisc.org/SDTM_MODEL_FINDINGS/V3#CL_--ORRES> ;
	bd:isA <http://www.s-cubed.dk/CAR#af5f0ce4847da645162514a984a7b88b67016e80> ;
.
<http://www.cdisc.org/SDTM_IG_IE/V3#IGD_IEORRES_TMC1>
	rdf:type bo:TMcReference ;
	isoC:label "NY"^^xsd:string ;
	bo:enabled "true"^^xsd:boolean ;
	bo:optional "false"^^xsd:boolean ;
	bo:ordinal "1"^^xsd:positiveInteger ;
	bo:reference <http://www.cdisc.org/C66742/V36#C66742> ;
	bo:context <http://www.cdisc.org/CT/V36#TH> ;
.
<http://www.cdisc.org/SDTM_IG_IE/V3#IGD_IESTRESC>
	rdf:type bd:SdtmDomainVariable ;
	isoC:label "I/E Criterion Result in Std Format"^^xsd:string ;
	bd:rule ""^^xsd:string ;
	bd:ordinal "11"^^xsd:positiveInteger ;
	bd:name "IESTRESC"^^xsd:string ;
	bd:description "Response to Inclusion/Exclusion criterion result in standard format."^^xsd:string ;
	bd:format ""^^xsd:string ;
	bd:ctAndFormat "(NY)"^^xsd:string ;
	bd:compliance <http://www.assero.co.uk/CSN#52070084-cdd3-4ba8-8377-f670e4b0276c> ;
	bd:ctReference <http://www.cdisc.org/SDTM_IG_IE/V3#IGD_IESTRESC_TMC1> ;
	bd:basedOnClassVariable <http://www.cdisc.org/SDTM_MODEL_FINDINGS/V3#CL_--STRESC> ;
.
<http://www.cdisc.org/SDTM_IG_IE/V3#IGD_IESTRESC_TMC1>
	rdf:type bo:TMcReference ;
	isoC:label "NY"^^xsd:string ;
	bo:enabled "true"^^xsd:boolean ;
	bo:optional "false"^^xsd:boolean ;
	bo:ordinal "1"^^xsd:positiveInteger ;
	bo:reference <http://www.cdisc.org/C66742/V36#C66742> ;
	bo:context <http://www.cdisc.org/CT/V36#TH> ;
.
<http://www.cdisc.org/SDTM_IG_IE/V3#IGD_VISITNUM>
	rdf:type bd:SdtmDomainVariable ;
	isoC:label "Visit Number"^^xsd:string ;
	bd:rule ""^^xsd:string ;
	bd:ordinal "12"^^xsd:positiveInteger ;
	bd:name "VISITNUM"^^xsd:string ;
	bd:description "1. Clinical encounter number.\n2. Numeric version of VISIT, used for sorting."^^xsd:string ;
	bd:format ""^^xsd:string ;
	bd:ctAndFormat ""^^xsd:string ;
	bd:compliance <http://www.assero.co.uk/CSN#f7d9d4e1-a00a-487e-89db-ebece910ba0d> ;
	bd:basedOnClassVariable <http://www.cdisc.org/SDTM_MODEL_ALL/V3#CL_VISITNUM> ;
.
<http://www.cdisc.org/SDTM_IG_IE/V3#IGD_VISIT>
	rdf:type bd:SdtmDomainVariable ;
	isoC:label "Visit Name"^^xsd:string ;
	bd:rule ""^^xsd:string ;
	bd:ordinal "13"^^xsd:positiveInteger ;
	bd:name "VISIT"^^xsd:string ;
	bd:description "1. Protocol-defined description of clinical encounter.\n2. May be used in addition to VISITNUM and/or VISITDY."^^xsd:string ;
	bd:format ""^^xsd:string ;
	bd:ctAndFormat ""^^xsd:string ;
	bd:compliance <http://www.assero.co.uk/CSN#f7d9d4e1-a00a-487e-89db-ebece910ba0d> ;
	bd:basedOnClassVariable <http://www.cdisc.org/SDTM_MODEL_ALL/V3#CL_VISIT> ;
.
<http://www.cdisc.org/SDTM_IG_IE/V3#IGD_VISITDY>
	rdf:type bd:SdtmDomainVariable ;
	isoC:label "Planned Study Day of Visit"^^xsd:string ;
	bd:rule ""^^xsd:string ;
	bd:ordinal "14"^^xsd:positiveInteger ;
	bd:name "VISITDY"^^xsd:string ;
	bd:description "Planned study day of the visit based upon RFSTDTC in Demographics."^^xsd:string ;
	bd:format ""^^xsd:string ;
	bd:ctAndFormat ""^^xsd:string ;
	bd:compliance <http://www.assero.co.uk/CSN#f7d9d4e1-a00a-487e-89db-ebece910ba0d> ;
	bd:basedOnClassVariable <http://www.cdisc.org/SDTM_MODEL_ALL/V3#CL_VISITDY> ;
.
<http://www.cdisc.org/SDTM_IG_IE/V3#IGD_IEDTC>
	rdf:type bd:SdtmDomainVariable ;
	isoC:label "Date/Time of Collection"^^xsd:string ;
	bd:rule ""^^xsd:string ;
	bd:ordinal "15"^^xsd:positiveInteger ;
	bd:name "IEDTC"^^xsd:string ;
	bd:description ""^^xsd:string ;
	bd:format "ISO 8601"^^xsd:string ;
	bd:ctAndFormat "ISO 8601"^^xsd:string ;
	bd:compliance <http://www.assero.co.uk/CSN#f7d9d4e1-a00a-487e-89db-ebece910ba0d> ;
	bd:basedOnClassVariable <http://www.cdisc.org/SDTM_MODEL_ALL/V3#CL_--DTC> ;
	bd:isA <http://www.s-cubed.dk/CAR#232daabe4ca2dfdb32645c572b1d34ddb4fe9995> ;
.
<http://www.cdisc.org/SDTM_IG_IE/V3#IGD_IEDY>
	rdf:type bd:SdtmDomainVariable ;
	isoC:label "Study Day of Collection"^^xsd:string ;
	bd:rule ""^^xsd:string ;
	bd:ordinal "16"^^xsd:positiveInteger ;
	bd:name "IEDY"^^xsd:string ;
	bd:description "1. Study day of collection of the inclusion/exclusion exceptions, measured as integer days.\n2. Algorithm for calculations must be relative to the sponsor-defined RFSTDTC variable in Demographics. This formula should be consistent across the submission."^^xsd:string ;
	bd:format ""^^xsd:string ;
	bd:ctAndFormat ""^^xsd:string ;
	bd:compliance <http://www.assero.co.uk/CSN#f7d9d4e1-a00a-487e-89db-ebece910ba0d> ;
	bd:basedOnClassVariable <http://www.cdisc.org/SDTM_MODEL_ALL/V3#CL_--DY> ;
.
<http://www.cdisc.org/SDTM_IG_IS/V3#IGD>
	rdf:type bd:SdtmDomain ;
	isoC:label "Immunogenicity Specimen Assessments"^^xsd:string ;
	isoT:hasState <http://www.cdisc.org/SDTM_IG_IS/V3#IGD_RS> ;
	isoT:hasIdentifier <http://www.cdisc.org/SDTM_IG_IS/V3#IGD_SI> ;
	isoT:origin ""^^xsd:string ;
	isoT:changeDescription ""^^xsd:string ;
	isoT:creationDate "2013-11-26T00:00:00+00:00"^^xsd:dateTime ;
	isoT:lastChangeDate "2013-11-26T00:00:00+00:00"^^xsd:dateTime ;
	isoT:explanatoryComment ""^^xsd:string ;
	bd:rule ""^^xsd:string ;
	bd:ordinal "1"^^xsd:positiveInteger ;
	bd:includesColumn <http://www.cdisc.org/SDTM_IG_IS/V3#IGD_STUDYID> ;
	bd:includesColumn <http://www.cdisc.org/SDTM_IG_IS/V3#IGD_DOMAIN> ;
	bd:includesColumn <http://www.cdisc.org/SDTM_IG_IS/V3#IGD_USUBJID> ;
	bd:includesColumn <http://www.cdisc.org/SDTM_IG_IS/V3#IGD_ISSEQ> ;
	bd:includesColumn <http://www.cdisc.org/SDTM_IG_IS/V3#IGD_ISGRPID> ;
	bd:includesColumn <http://www.cdisc.org/SDTM_IG_IS/V3#IGD_ISREFID> ;
	bd:includesColumn <http://www.cdisc.org/SDTM_IG_IS/V3#IGD_ISSPID> ;
	bd:includesColumn <http://www.cdisc.org/SDTM_IG_IS/V3#IGD_ISTESTCD> ;
	bd:includesColumn <http://www.cdisc.org/SDTM_IG_IS/V3#IGD_ISTEST> ;
	bd:includesColumn <http://www.cdisc.org/SDTM_IG_IS/V3#IGD_ISCAT> ;
	bd:includesColumn <http://www.cdisc.org/SDTM_IG_IS/V3#IGD_ISSCAT> ;
	bd:includesColumn <http://www.cdisc.org/SDTM_IG_IS/V3#IGD_ISORRES> ;
	bd:includesColumn <http://www.cdisc.org/SDTM_IG_IS/V3#IGD_ISORRESU> ;
	bd:includesColumn <http://www.cdisc.org/SDTM_IG_IS/V3#IGD_ISSTRESC> ;
	bd:includesColumn <http://www.cdisc.org/SDTM_IG_IS/V3#IGD_ISSTRESN> ;
	bd:includesColumn <http://www.cdisc.org/SDTM_IG_IS/V3#IGD_ISSTRESU> ;
	bd:includesColumn <http://www.cdisc.org/SDTM_IG_IS/V3#IGD_ISSTAT> ;
	bd:includesColumn <http://www.cdisc.org/SDTM_IG_IS/V3#IGD_ISREASND> ;
	bd:includesColumn <http://www.cdisc.org/SDTM_IG_IS/V3#IGD_ISNAM> ;
	bd:includesColumn <http://www.cdisc.org/SDTM_IG_IS/V3#IGD_ISSPEC> ;
	bd:includesColumn <http://www.cdisc.org/SDTM_IG_IS/V3#IGD_ISMETHOD> ;
	bd:includesColumn <http://www.cdisc.org/SDTM_IG_IS/V3#IGD_ISBLFL> ;
	bd:includesColumn <http://www.cdisc.org/SDTM_IG_IS/V3#IGD_ISLLOQ> ;
	bd:includesColumn <http://www.cdisc.org/SDTM_IG_IS/V3#IGD_VISITNUM> ;
	bd:includesColumn <http://www.cdisc.org/SDTM_IG_IS/V3#IGD_VISIT> ;
	bd:includesColumn <http://www.cdisc.org/SDTM_IG_IS/V3#IGD_VISITDY> ;
	bd:includesColumn <http://www.cdisc.org/SDTM_IG_IS/V3#IGD_ISDTC> ;
	bd:includesColumn <http://www.cdisc.org/SDTM_IG_IS/V3#IGD_ISDY> ;
	bd:prefix "IS"^^xsd:string ;
	bd:structure "One record per test per visit per subject"^^xsd:string ;
	bd:basedOnClass <http://www.cdisc.org/SDTM_MODEL_FINDINGS/V3#CL> ;
.
<http://www.cdisc.org/SDTM_IG_IS/V3#IGD_RS>
	rdf:type isoR:RegistrationState ;
	isoR:registrationStatus "Standard"^^xsd:string ;
	isoR:administrativeNote ""^^xsd:string ;
	isoR:effectiveDate "2016-01-01T00:00:00+00:00"^^xsd:dateTime ;
	isoR:untilDate "2016-01-01T00:00:00+00:00"^^xsd:dateTime ;
	isoR:unresolvedIssue ""^^xsd:string ;
	isoR:administrativeStatus ""^^xsd:string ;
	isoR:previousState "Standard"^^xsd:string ;
	isoR:multipleEdit "false"^^xsd:boolean ;
	isoR:byAuthority <http://www.assero.co.uk/RA#DUNS084433759> ;
.
<http://www.cdisc.org/SDTM_IG_IS/V3#IGD_SI>
	rdf:type isoI:ScopedIdentifier ;
	isoI:identifier "SDTM IG IS"^^xsd:string ;
	isoI:versionLabel "2013-11-26 Release"^^xsd:string ;
	isoI:version "3"^^xsd:positiveInteger ;
	isoI:semanticVersion "3.2.0"^^xsd:string ;
	isoI:hasScope <http://www.assero.co.uk/NS#CDISC> ;
.
<http://www.cdisc.org/SDTM_IG_IS/V3#IGD_STUDYID>
	rdf:type bd:SdtmDomainVariable ;
	isoC:label "Study Identifier"^^xsd:string ;
	bd:rule ""^^xsd:string ;
	bd:ordinal "1"^^xsd:positiveInteger ;
	bd:name "STUDYID"^^xsd:string ;
	bd:description "Unique Identifier for a study."^^xsd:string ;
	bd:format ""^^xsd:string ;
	bd:ctAndFormat ""^^xsd:string ;
	bd:compliance <http://www.assero.co.uk/CSN#52070084-cdd3-4ba8-8377-f670e4b0276c> ;
	bd:basedOnClassVariable <http://www.cdisc.org/SDTM_MODEL_ALL/V1#CL_STUDYID> ;
.
<http://www.cdisc.org/SDTM_IG_IS/V3#IGD_DOMAIN>
	rdf:type bd:SdtmDomainVariable ;
	isoC:label "Domain Abbreviation"^^xsd:string ;
	bd:rule ""^^xsd:string ;
	bd:ordinal "2"^^xsd:positiveInteger ;
	bd:name "DOMAIN"^^xsd:string ;
	bd:description "Two-character abbreviation for the domain."^^xsd:string ;
	bd:format ""^^xsd:string ;
	bd:ctAndFormat "(DOMAIN)"^^xsd:string ;
	bd:compliance <http://www.assero.co.uk/CSN#52070084-cdd3-4ba8-8377-f670e4b0276c> ;
	bd:ctReference <http://www.cdisc.org/SDTM_IG_IS/V3#IGD_DOMAIN_TMC1> ;
	bd:basedOnClassVariable <http://www.cdisc.org/SDTM_MODEL_ALL/V2#CL_DOMAIN> ;
.
<http://www.cdisc.org/SDTM_IG_IS/V3#IGD_DOMAIN_TMC1>
	rdf:type bo:TMcReference ;
	isoC:label "DOMAIN"^^xsd:string ;
	bo:enabled "true"^^xsd:boolean ;
	bo:optional "false"^^xsd:boolean ;
	bo:ordinal "1"^^xsd:positiveInteger ;
	bo:reference <http://www.cdisc.org/C66734/V36#C66734> ;
	bo:context <http://www.cdisc.org/CT/V36#TH> ;
.
<http://www.cdisc.org/SDTM_IG_IS/V3#IGD_USUBJID>
	rdf:type bd:SdtmDomainVariable ;
	isoC:label "Unique Subject Identifier"^^xsd:string ;
	bd:rule ""^^xsd:string ;
	bd:ordinal "3"^^xsd:positiveInteger ;
	bd:name "USUBJID"^^xsd:string ;
	bd:description "Identifier used to uniquely identify a subject across a submission."^^xsd:string ;
	bd:format ""^^xsd:string ;
	bd:ctAndFormat ""^^xsd:string ;
	bd:compliance <http://www.assero.co.uk/CSN#52070084-cdd3-4ba8-8377-f670e4b0276c> ;
	bd:basedOnClassVariable <http://www.cdisc.org/SDTM_MODEL_ALL/V1#CL_USUBJID> ;
.
<http://www.cdisc.org/SDTM_IG_IS/V3#IGD_ISSEQ>
	rdf:type bd:SdtmDomainVariable ;
	isoC:label "Sequence Number"^^xsd:string ;
	bd:rule ""^^xsd:string ;
	bd:ordinal "4"^^xsd:positiveInteger ;
	bd:name "ISSEQ"^^xsd:string ;
	bd:description "Sequence number given to ensure uniqueness of subject records within a domain. May be any valid number."^^xsd:string ;
	bd:format ""^^xsd:string ;
	bd:ctAndFormat ""^^xsd:string ;
	bd:compliance <http://www.assero.co.uk/CSN#52070084-cdd3-4ba8-8377-f670e4b0276c> ;
	bd:basedOnClassVariable <http://www.cdisc.org/SDTM_MODEL_ALL/V3#CL_--SEQ> ;
.
<http://www.cdisc.org/SDTM_IG_IS/V3#IGD_ISGRPID>
	rdf:type bd:SdtmDomainVariable ;
	isoC:label "Group ID"^^xsd:string ;
	bd:rule ""^^xsd:string ;
	bd:ordinal "5"^^xsd:positiveInteger ;
	bd:name "ISGRPID"^^xsd:string ;
	bd:description "Used to tie together a block of related records in a single domain for a subject."^^xsd:string ;
	bd:format ""^^xsd:string ;
	bd:ctAndFormat ""^^xsd:string ;
	bd:compliance <http://www.assero.co.uk/CSN#f7d9d4e1-a00a-487e-89db-ebece910ba0d> ;
	bd:basedOnClassVariable <http://www.cdisc.org/SDTM_MODEL_ALL/V3#CL_--GRPID> ;
.
<http://www.cdisc.org/SDTM_IG_IS/V3#IGD_ISREFID>
	rdf:type bd:SdtmDomainVariable ;
	isoC:label "Reference ID"^^xsd:string ;
	bd:rule ""^^xsd:string ;
	bd:ordinal "6"^^xsd:positiveInteger ;
	bd:name "ISREFID"^^xsd:string ;
	bd:description "Internal or external specimen identifier. \nExample: 458975-01."^^xsd:string ;
	bd:format ""^^xsd:string ;
	bd:ctAndFormat ""^^xsd:string ;
	bd:compliance <http://www.assero.co.uk/CSN#f7d9d4e1-a00a-487e-89db-ebece910ba0d> ;
	bd:basedOnClassVariable <http://www.cdisc.org/SDTM_MODEL_ALL/V3#CL_--REFID> ;
.
<http://www.cdisc.org/SDTM_IG_IS/V3#IGD_ISSPID>
	rdf:type bd:SdtmDomainVariable ;
	isoC:label "Sponsor-Defined Identifier"^^xsd:string ;
	bd:rule ""^^xsd:string ;
	bd:ordinal "7"^^xsd:positiveInteger ;
	bd:name "ISSPID"^^xsd:string ;
	bd:description "Sponsor-defined identifier."^^xsd:string ;
	bd:format ""^^xsd:string ;
	bd:ctAndFormat ""^^xsd:string ;
	bd:compliance <http://www.assero.co.uk/CSN#f7d9d4e1-a00a-487e-89db-ebece910ba0d> ;
	bd:basedOnClassVariable <http://www.cdisc.org/SDTM_MODEL_ALL/V3#CL_--SPID> ;
.
<http://www.cdisc.org/SDTM_IG_IS/V3#IGD_ISTESTCD>
	rdf:type bd:SdtmDomainVariable ;
	isoC:label "Immunogenicity Test/Exam Short Name"^^xsd:string ;
	bd:rule ""^^xsd:string ;
	bd:ordinal "8"^^xsd:positiveInteger ;
	bd:name "ISTESTCD"^^xsd:string ;
	bd:description "Short name of the measurement, test, or examination described in ISTEST. It can be used as a column name when converting a dataset from a vertical to a horizontal format. The value in ISTESTCD cannot be longer than 8 characters, nor can it start with a number. ISTESTCD cannot contain characters other than letters, numbers, or underscores. \n\nSponsor should first check the lab terminology for the LBTEST/LBTESTCD values until CDISC attaches published controlled terminology."^^xsd:string ;
	bd:format ""^^xsd:string ;
	bd:ctAndFormat ""^^xsd:string ;
	bd:compliance <http://www.assero.co.uk/CSN#52070084-cdd3-4ba8-8377-f670e4b0276c> ;
	bd:basedOnClassVariable <http://www.cdisc.org/SDTM_MODEL_FINDINGS/V3#CL_--TESTCD> ;
	bd:isA <http://www.s-cubed.dk/CAR#18a302ee283ea042f30ca2cb852a2846f97c9413> ;
.
<http://www.cdisc.org/SDTM_IG_IS/V3#IGD_ISTEST>
	rdf:type bd:SdtmDomainVariable ;
	isoC:label "Immunogenicity Test or Examination Name"^^xsd:string ;
	bd:rule ""^^xsd:string ;
	bd:ordinal "9"^^xsd:positiveInteger ;
	bd:name "ISTEST"^^xsd:string ;
	bd:description "Verbatim name of the test or examination used to obtain the measurement or finding. The value in ISTEST cannot be longer than 40 characters. \n (Example: Immunoglobulin E).\n\nSponsor should first check the lab terminology for the LBTEST/LBTESTCD values until CDISC attaches published controlled terminology."^^xsd:string ;
	bd:format ""^^xsd:string ;
	bd:ctAndFormat ""^^xsd:string ;
	bd:compliance <http://www.assero.co.uk/CSN#52070084-cdd3-4ba8-8377-f670e4b0276c> ;
	bd:basedOnClassVariable <http://www.cdisc.org/SDTM_MODEL_FINDINGS/V3#CL_--TEST> ;
.
<http://www.cdisc.org/SDTM_IG_IS/V3#IGD_ISCAT>
	rdf:type bd:SdtmDomainVariable ;
	isoC:label "Category for Immunogenicity Test"^^xsd:string ;
	bd:rule ""^^xsd:string ;
	bd:ordinal "10"^^xsd:positiveInteger ;
	bd:name "ISCAT"^^xsd:string ;
	bd:description "Used to define a category of Topic-variable values across subjects. Example: SEROLOGY"^^xsd:string ;
	bd:format ""^^xsd:string ;
	bd:ctAndFormat ""^^xsd:string ;
	bd:compliance <http://www.assero.co.uk/CSN#f7d9d4e1-a00a-487e-89db-ebece910ba0d> ;
	bd:basedOnClassVariable <http://www.cdisc.org/SDTM_MODEL_FINDINGS/V3#CL_--CAT> ;
