@prefix : <http://www.cdisc.org/SDTM_IG/V1#> .
@prefix bd: <http://www.assero.co.uk/Tabulation#> .
@prefix isoC: <http://www.assero.co.uk/ISO11179Concepts#> .
@prefix isoT: <http://www.assero.co.uk/ISO11179Types#> .
@prefix isoR: <http://www.assero.co.uk/ISO11179Registration#> .
@prefix isoI: <http://www.assero.co.uk/ISO11179Identification#> .
@prefix bo: <http://www.assero.co.uk/BusinessOperational#> .
@prefix owl: <http://www.w3.org/2002/07/owl#> .
@prefix rdf: <http://www.w3.org/1999/02/22-rdf-syntax-ns#> .
@prefix rdfs: <http://www.w3.org/2000/01/rdf-schema#> .
@prefix xsd: <http://www.w3.org/2001/XMLSchema#> .
@prefix skos: <http://www.w3.org/2004/02/skos/core#> .

<http://www.cdisc.org/SDTM_IG/V1>
	rdf:type owl:Ontology ;
.
:IG
	rdf:type bd:SDTMImplementationGuide ;
	isoC:label "Controlled Terminology"^^xsd:string ;
	isoT:hasState :IG_RS ;
	isoT:hasIdentifier :IG_SI ;
	isoT:origin "Created from files: 'sdtm_3-1-2.xlsx'"^^xsd:string ;
	isoT:changeDescription ""^^xsd:string ;
	isoT:creationDate "2008-11-12T00:00:00+00:00"^^xsd:dateTime ;
	isoT:lastChangeDate "2008-11-12T00:00:00+00:00"^^xsd:dateTime ;
	isoT:explanatoryComment ""^^xsd:string ;
	bo:hasManaged :IG_R1 ;
	bo:hasManaged :IG_R2 ;
	bo:hasManaged :IG_R3 ;
	bo:hasManaged :IG_R4 ;
	bo:hasManaged :IG_R5 ;
	bo:hasManaged :IG_R6 ;
	bo:hasManaged :IG_R7 ;
	bo:hasManaged :IG_R8 ;
	bo:hasManaged :IG_R9 ;
	bo:hasManaged :IG_R10 ;
	bo:hasManaged :IG_R11 ;
	bo:hasManaged :IG_R12 ;
	bo:hasManaged :IG_R13 ;
	bo:hasManaged :IG_R14 ;
	bo:hasManaged :IG_R15 ;
	bo:hasManaged :IG_R16 ;
	bo:hasManaged :IG_R17 ;
	bo:hasManaged :IG_R18 ;
	bo:hasManaged :IG_R19 ;
	bo:hasManaged :IG_R20 ;
	bo:hasManaged :IG_R21 ;
	bo:hasManaged :IG_R22 ;
	bo:hasManaged :IG_R23 ;
	bo:hasManaged :IG_R24 ;
	bo:hasManaged :IG_R25 ;
	bo:hasManaged :IG_R26 ;
	bo:hasManaged :IG_R27 ;
	bo:hasManaged :IG_R28 ;
	bo:hasManaged :IG_R29 ;
	bo:hasManaged :IG_R30 ;
	bo:hasManaged :IG_R31 ;
	bo:hasManaged :IG_R32 ;
.
:IG_RS
	rdf:type isoR:RegistrationState ;
	isoR:registrationStatus "Standard"^^xsd:string ;
	isoR:administrativeNote ""^^xsd:string ;
	isoR:effectiveDate "2016-01-01T00:00:00+00:00"^^xsd:dateTime ;
	isoR:untilDate "2016-01-01T00:00:00+00:00"^^xsd:dateTime ;
	isoR:unresolvedIssue ""^^xsd:string ;
	isoR:administrativeStatus ""^^xsd:string ;
	isoR:previousState "Standard"^^xsd:string ;
	isoR:multipleEdit "false"^^xsd:boolean ;
	isoR:byAuthority <http://www.assero.co.uk/RA#DUNS084433759> ;
.
:IG_SI
	rdf:type isoI:ScopedIdentifier ;
	isoI:identifier "SDTM IG"^^xsd:string ;
	isoI:versionLabel "2008-11-12 Release"^^xsd:string ;
	isoI:version "1"^^xsd:positiveInteger ;
	isoI:semanticVersion "1.0.0"^^xsd:string ;
	isoI:hasScope <http://www.assero.co.uk/NS#CDISC> ;
.
:IG_R1
	rdf:type bo:Reference ;
	isoC:label ""^^xsd:string ;
	bo:enabled "true"^^xsd:boolean ;
	bo:optional "false"^^xsd:boolean ;
	bo:ordinal "1"^^xsd:positiveInteger ;
	bo:reference <http://www.cdisc.org/AE/V1> ;
.
:IG_R2
	rdf:type bo:Reference ;
	isoC:label ""^^xsd:string ;
	bo:enabled "true"^^xsd:boolean ;
	bo:optional "false"^^xsd:boolean ;
	bo:ordinal "2"^^xsd:positiveInteger ;
	bo:reference <http://www.cdisc.org/DS/V1> ;
.
:IG_R3
	rdf:type bo:Reference ;
	isoC:label ""^^xsd:string ;
	bo:enabled "true"^^xsd:boolean ;
	bo:optional "false"^^xsd:boolean ;
	bo:ordinal "3"^^xsd:positiveInteger ;
	bo:reference <http://www.cdisc.org/MH/V1> ;
.
:IG_R4
	rdf:type bo:Reference ;
	isoC:label ""^^xsd:string ;
	bo:enabled "true"^^xsd:boolean ;
	bo:optional "false"^^xsd:boolean ;
	bo:ordinal "4"^^xsd:positiveInteger ;
	bo:reference <http://www.cdisc.org/DV/V1> ;
.
:IG_R5
	rdf:type bo:Reference ;
	isoC:label ""^^xsd:string ;
	bo:enabled "true"^^xsd:boolean ;
	bo:optional "false"^^xsd:boolean ;
	bo:ordinal "5"^^xsd:positiveInteger ;
	bo:reference <http://www.cdisc.org/CE/V1> ;
.
:IG_R6
	rdf:type bo:Reference ;
	isoC:label ""^^xsd:string ;
	bo:enabled "true"^^xsd:boolean ;
	bo:optional "false"^^xsd:boolean ;
	bo:ordinal "6"^^xsd:positiveInteger ;
	bo:reference <http://www.cdisc.org/EG/V1> ;
.
:IG_R7
	rdf:type bo:Reference ;
	isoC:label ""^^xsd:string ;
	bo:enabled "true"^^xsd:boolean ;
	bo:optional "false"^^xsd:boolean ;
	bo:ordinal "7"^^xsd:positiveInteger ;
	bo:reference <http://www.cdisc.org/IE/V1> ;
.
:IG_R8
	rdf:type bo:Reference ;
	isoC:label ""^^xsd:string ;
	bo:enabled "true"^^xsd:boolean ;
	bo:optional "false"^^xsd:boolean ;
	bo:ordinal "8"^^xsd:positiveInteger ;
	bo:reference <http://www.cdisc.org/LB/V1> ;
.
:IG_R9
	rdf:type bo:Reference ;
	isoC:label ""^^xsd:string ;
	bo:enabled "true"^^xsd:boolean ;
	bo:optional "false"^^xsd:boolean ;
	bo:ordinal "9"^^xsd:positiveInteger ;
	bo:reference <http://www.cdisc.org/PE/V1> ;
.
:IG_R10
	rdf:type bo:Reference ;
	isoC:label ""^^xsd:string ;
	bo:enabled "true"^^xsd:boolean ;
	bo:optional "false"^^xsd:boolean ;
	bo:ordinal "10"^^xsd:positiveInteger ;
	bo:reference <http://www.cdisc.org/QS/V1> ;
.
:IG_R11
	rdf:type bo:Reference ;
	isoC:label ""^^xsd:string ;
	bo:enabled "true"^^xsd:boolean ;
	bo:optional "false"^^xsd:boolean ;
	bo:ordinal "11"^^xsd:positiveInteger ;
	bo:reference <http://www.cdisc.org/SC/V1> ;
.
:IG_R12
	rdf:type bo:Reference ;
	isoC:label ""^^xsd:string ;
	bo:enabled "true"^^xsd:boolean ;
	bo:optional "false"^^xsd:boolean ;
	bo:ordinal "12"^^xsd:positiveInteger ;
	bo:reference <http://www.cdisc.org/VS/V1> ;
.
:IG_R13
	rdf:type bo:Reference ;
	isoC:label ""^^xsd:string ;
	bo:enabled "true"^^xsd:boolean ;
	bo:optional "false"^^xsd:boolean ;
	bo:ordinal "13"^^xsd:positiveInteger ;
	bo:reference <http://www.cdisc.org/DA/V1> ;
.
:IG_R14
	rdf:type bo:Reference ;
	isoC:label ""^^xsd:string ;
	bo:enabled "true"^^xsd:boolean ;
	bo:optional "false"^^xsd:boolean ;
	bo:ordinal "14"^^xsd:positiveInteger ;
	bo:reference <http://www.cdisc.org/MB/V1> ;
.
:IG_R15
	rdf:type bo:Reference ;
	isoC:label ""^^xsd:string ;
	bo:enabled "true"^^xsd:boolean ;
	bo:optional "false"^^xsd:boolean ;
	bo:ordinal "15"^^xsd:positiveInteger ;
	bo:reference <http://www.cdisc.org/MS/V1> ;
.
:IG_R16
	rdf:type bo:Reference ;
	isoC:label ""^^xsd:string ;
	bo:enabled "true"^^xsd:boolean ;
	bo:optional "false"^^xsd:boolean ;
	bo:ordinal "16"^^xsd:positiveInteger ;
	bo:reference <http://www.cdisc.org/PC/V1> ;
.
:IG_R17
	rdf:type bo:Reference ;
	isoC:label ""^^xsd:string ;
	bo:enabled "true"^^xsd:boolean ;
	bo:optional "false"^^xsd:boolean ;
	bo:ordinal "17"^^xsd:positiveInteger ;
	bo:reference <http://www.cdisc.org/PP/V1> ;
.
:IG_R18
	rdf:type bo:Reference ;
	isoC:label ""^^xsd:string ;
	bo:enabled "true"^^xsd:boolean ;
	bo:optional "false"^^xsd:boolean ;
	bo:ordinal "18"^^xsd:positiveInteger ;
	bo:reference <http://www.cdisc.org/FA/V1> ;
.
:IG_R19
	rdf:type bo:Reference ;
	isoC:label ""^^xsd:string ;
	bo:enabled "true"^^xsd:boolean ;
	bo:optional "false"^^xsd:boolean ;
	bo:ordinal "19"^^xsd:positiveInteger ;
	bo:reference <http://www.cdisc.org/CM/V1> ;
.
:IG_R20
	rdf:type bo:Reference ;
	isoC:label ""^^xsd:string ;
	bo:enabled "true"^^xsd:boolean ;
	bo:optional "false"^^xsd:boolean ;
	bo:ordinal "20"^^xsd:positiveInteger ;
	bo:reference <http://www.cdisc.org/EX/V1> ;
.
:IG_R21
	rdf:type bo:Reference ;
	isoC:label ""^^xsd:string ;
	bo:enabled "true"^^xsd:boolean ;
	bo:optional "false"^^xsd:boolean ;
	bo:ordinal "21"^^xsd:positiveInteger ;
	bo:reference <http://www.cdisc.org/SU/V1> ;
.
:IG_R22
	rdf:type bo:Reference ;
	isoC:label ""^^xsd:string ;
	bo:enabled "true"^^xsd:boolean ;
	bo:optional "false"^^xsd:boolean ;
	bo:ordinal "22"^^xsd:positiveInteger ;
	bo:reference <http://www.cdisc.org/RELREC/V1> ;
.
:IG_R23
	rdf:type bo:Reference ;
	isoC:label ""^^xsd:string ;
	bo:enabled "true"^^xsd:boolean ;
	bo:optional "false"^^xsd:boolean ;
	bo:ordinal "23"^^xsd:positiveInteger ;
	bo:reference <http://www.cdisc.org/SE/V1> ;
.
:IG_R24
	rdf:type bo:Reference ;
	isoC:label ""^^xsd:string ;
	bo:enabled "true"^^xsd:boolean ;
	bo:optional "false"^^xsd:boolean ;
	bo:ordinal "24"^^xsd:positiveInteger ;
	bo:reference <http://www.cdisc.org/CO/V1> ;
.
:IG_R25
	rdf:type bo:Reference ;
	isoC:label ""^^xsd:string ;
	bo:enabled "true"^^xsd:boolean ;
	bo:optional "false"^^xsd:boolean ;
	bo:ordinal "25"^^xsd:positiveInteger ;
	bo:reference <http://www.cdisc.org/DM/V1> ;
.
:IG_R26
	rdf:type bo:Reference ;
	isoC:label ""^^xsd:string ;
	bo:enabled "true"^^xsd:boolean ;
	bo:optional "false"^^xsd:boolean ;
	bo:ordinal "26"^^xsd:positiveInteger ;
	bo:reference <http://www.cdisc.org/SV/V1> ;
.
:IG_R27
	rdf:type bo:Reference ;
	isoC:label ""^^xsd:string ;
	bo:enabled "true"^^xsd:boolean ;
	bo:optional "false"^^xsd:boolean ;
	bo:ordinal "27"^^xsd:positiveInteger ;
	bo:reference <http://www.cdisc.org/SUPPQUAL/V1> ;
.
:IG_R28
	rdf:type bo:Reference ;
	isoC:label ""^^xsd:string ;
	bo:enabled "true"^^xsd:boolean ;
	bo:optional "false"^^xsd:boolean ;
	bo:ordinal "28"^^xsd:positiveInteger ;
	bo:reference <http://www.cdisc.org/TA/V1> ;
.
:IG_R29
	rdf:type bo:Reference ;
	isoC:label ""^^xsd:string ;
	bo:enabled "true"^^xsd:boolean ;
	bo:optional "false"^^xsd:boolean ;
	bo:ordinal "29"^^xsd:positiveInteger ;
	bo:reference <http://www.cdisc.org/TV/V1> ;
.
:IG_R30
	rdf:type bo:Reference ;
	isoC:label ""^^xsd:string ;
	bo:enabled "true"^^xsd:boolean ;
	bo:optional "false"^^xsd:boolean ;
	bo:ordinal "30"^^xsd:positiveInteger ;
	bo:reference <http://www.cdisc.org/TE/V1> ;
.
:IG_R31
	rdf:type bo:Reference ;
	isoC:label ""^^xsd:string ;
	bo:enabled "true"^^xsd:boolean ;
	bo:optional "false"^^xsd:boolean ;
	bo:ordinal "31"^^xsd:positiveInteger ;
	bo:reference <http://www.cdisc.org/TI/V1> ;
.
:IG_R32
	rdf:type bo:Reference ;
	isoC:label ""^^xsd:string ;
	bo:enabled "true"^^xsd:boolean ;
	bo:optional "false"^^xsd:boolean ;
	bo:ordinal "32"^^xsd:positiveInteger ;
	bo:reference <http://www.cdisc.org/TS/V1> ;
.
<http://www.cdisc.org/AE/V1>
	rdf:type bd:SdtmDomain ;
	isoC:label "Adverse Events"^^xsd:string ;
	isoT:hasState <http://www.cdisc.org/AE/V1#RS> ;
	isoT:hasIdentifier <http://www.cdisc.org/AE/V1#SI> ;
	isoT:origin ""^^xsd:string ;
	isoT:changeDescription ""^^xsd:string ;
	isoT:creationDate "2008-11-12T00:00:00+00:00"^^xsd:dateTime ;
	isoT:lastChangeDate "2008-11-12T00:00:00+00:00"^^xsd:dateTime ;
	isoT:explanatoryComment ""^^xsd:string ;
	bd:rule ""^^xsd:string ;
	bd:ordinal "1"^^xsd:positiveInteger ;
	bd:includesColumn <http://www.cdisc.org/AE/V1#DVSTUDYID> ;
	bd:includesColumn <http://www.cdisc.org/AE/V1#DVDOMAIN> ;
	bd:includesColumn <http://www.cdisc.org/AE/V1#DVUSUBJID> ;
	bd:includesColumn <http://www.cdisc.org/AE/V1#DVAESEQ> ;
	bd:includesColumn <http://www.cdisc.org/AE/V1#DVAEGRPID> ;
	bd:includesColumn <http://www.cdisc.org/AE/V1#DVAEREFID> ;
	bd:includesColumn <http://www.cdisc.org/AE/V1#DVAESPID> ;
	bd:includesColumn <http://www.cdisc.org/AE/V1#DVAETERM> ;
	bd:includesColumn <http://www.cdisc.org/AE/V1#DVAEMODIFY> ;
	bd:includesColumn <http://www.cdisc.org/AE/V1#DVAEDECOD> ;
	bd:includesColumn <http://www.cdisc.org/AE/V1#DVAECAT> ;
	bd:includesColumn <http://www.cdisc.org/AE/V1#DVAESCAT> ;
	bd:includesColumn <http://www.cdisc.org/AE/V1#DVAEPRESP> ;
	bd:includesColumn <http://www.cdisc.org/AE/V1#DVAEBODSYS> ;
	bd:includesColumn <http://www.cdisc.org/AE/V1#DVAELOC> ;
	bd:includesColumn <http://www.cdisc.org/AE/V1#DVAESEV> ;
	bd:includesColumn <http://www.cdisc.org/AE/V1#DVAESER> ;
	bd:includesColumn <http://www.cdisc.org/AE/V1#DVAEACN> ;
	bd:includesColumn <http://www.cdisc.org/AE/V1#DVAEACNOTH> ;
	bd:includesColumn <http://www.cdisc.org/AE/V1#DVAEREL> ;
	bd:includesColumn <http://www.cdisc.org/AE/V1#DVAERELNST> ;
	bd:includesColumn <http://www.cdisc.org/AE/V1#DVAEPATT> ;
	bd:includesColumn <http://www.cdisc.org/AE/V1#DVAEOUT> ;
	bd:includesColumn <http://www.cdisc.org/AE/V1#DVAESCAN> ;
	bd:includesColumn <http://www.cdisc.org/AE/V1#DVAESCONG> ;
	bd:includesColumn <http://www.cdisc.org/AE/V1#DVAESDISAB> ;
	bd:includesColumn <http://www.cdisc.org/AE/V1#DVAESDTH> ;
	bd:includesColumn <http://www.cdisc.org/AE/V1#DVAESHOSP> ;
	bd:includesColumn <http://www.cdisc.org/AE/V1#DVAESLIFE> ;
	bd:includesColumn <http://www.cdisc.org/AE/V1#DVAESOD> ;
	bd:includesColumn <http://www.cdisc.org/AE/V1#DVAESMIE> ;
	bd:includesColumn <http://www.cdisc.org/AE/V1#DVAECONTRT> ;
	bd:includesColumn <http://www.cdisc.org/AE/V1#DVAETOXGR> ;
	bd:includesColumn <http://www.cdisc.org/AE/V1#DVAESTDTC> ;
	bd:includesColumn <http://www.cdisc.org/AE/V1#DVAEENDTC> ;
	bd:includesColumn <http://www.cdisc.org/AE/V1#DVAESTDY> ;
	bd:includesColumn <http://www.cdisc.org/AE/V1#DVAEENDY> ;
	bd:includesColumn <http://www.cdisc.org/AE/V1#DVAEDUR> ;
	bd:includesColumn <http://www.cdisc.org/AE/V1#DVAEENRF> ;
	bd:includesColumn <http://www.cdisc.org/AE/V1#DVAEENRTPT> ;
	bd:includesColumn <http://www.cdisc.org/AE/V1#DVAEENTPT> ;
	bd:prefix ""^^xsd:string ;
	bd:structure ""^^xsd:string ;
.
<http://www.cdisc.org/AE/V1#RS>
	rdf:type isoR:RegistrationState ;
	isoR:registrationStatus "Standard"^^xsd:string ;
	isoR:administrativeNote ""^^xsd:string ;
	isoR:effectiveDate "2016-01-01T00:00:00+00:00"^^xsd:dateTime ;
	isoR:untilDate "2016-01-01T00:00:00+00:00"^^xsd:dateTime ;
	isoR:unresolvedIssue ""^^xsd:string ;
	isoR:administrativeStatus ""^^xsd:string ;
	isoR:previousState "Standard"^^xsd:string ;
	isoR:multipleEdit "false"^^xsd:boolean ;
	isoR:byAuthority <http://www.assero.co.uk/RA#DUNS084433759> ;
.
<http://www.cdisc.org/AE/V1#SI>
	rdf:type isoI:ScopedIdentifier ;
	isoI:identifier "AE"^^xsd:string ;
	isoI:versionLabel "2008-11-12 Release"^^xsd:string ;
	isoI:version "1"^^xsd:positiveInteger ;
	isoI:semanticVersion "1.0.0"^^xsd:string ;
	isoI:hasScope <http://www.assero.co.uk/NS#CDISC> ;
.
<http://www.cdisc.org/AE/V1#DVSTUDYID>
	rdf:type bd:SdtmDomainVariable ;
	isoC:label "Study Identifier"^^xsd:string ;
	bd:rule ""^^xsd:string ;
	bd:ordinal "1"^^xsd:positiveInteger ;
	bd:name "STUDYID"^^xsd:string ;
	bd:description "Unique identifier for a study."^^xsd:string ;
	bd:format ""^^xsd:string ;
	bd:ctAndFormat ""^^xsd:string ;
	bd:compliance <http://www.assero.co.uk/CSN#8f112ba7-caa3-4f34-a9fc-8bc808b13955> ;
.
<http://www.cdisc.org/AE/V1#DVDOMAIN>
	rdf:type bd:SdtmDomainVariable ;
	isoC:label "Domain Abbreviation"^^xsd:string ;
	bd:rule ""^^xsd:string ;
	bd:ordinal "2"^^xsd:positiveInteger ;
	bd:name "DOMAIN"^^xsd:string ;
	bd:description "Two-character abbreviation for the domain."^^xsd:string ;
	bd:format ""^^xsd:string ;
	bd:ctAndFormat ""^^xsd:string ;
	bd:compliance <http://www.assero.co.uk/CSN#8f112ba7-caa3-4f34-a9fc-8bc808b13955> ;
.
<http://www.cdisc.org/AE/V1#DVUSUBJID>
	rdf:type bd:SdtmDomainVariable ;
	isoC:label "Unique Subject Identifier"^^xsd:string ;
	bd:rule ""^^xsd:string ;
	bd:ordinal "3"^^xsd:positiveInteger ;
	bd:name "USUBJID"^^xsd:string ;
	bd:description "Identifier used to uniquely identify a subject across all studies for all applications or submissions involving the product."^^xsd:string ;
	bd:format ""^^xsd:string ;
	bd:ctAndFormat ""^^xsd:string ;
	bd:compliance <http://www.assero.co.uk/CSN#8f112ba7-caa3-4f34-a9fc-8bc808b13955> ;
.
<http://www.cdisc.org/AE/V1#DVAESEQ>
	rdf:type bd:SdtmDomainVariable ;
	isoC:label "Sequence Number"^^xsd:string ;
	bd:rule ""^^xsd:string ;
	bd:ordinal "4"^^xsd:positiveInteger ;
	bd:name "AESEQ"^^xsd:string ;
	bd:description "Sequence Number given to ensure uniqueness of subject records within a domain. May be any valid number."^^xsd:string ;
	bd:format ""^^xsd:string ;
	bd:ctAndFormat ""^^xsd:string ;
	bd:compliance <http://www.assero.co.uk/CSN#8f112ba7-caa3-4f34-a9fc-8bc808b13955> ;
.
<http://www.cdisc.org/AE/V1#DVAEGRPID>
	rdf:type bd:SdtmDomainVariable ;
	isoC:label "Group ID"^^xsd:string ;
	bd:rule ""^^xsd:string ;
	bd:ordinal "5"^^xsd:positiveInteger ;
	bd:name "AEGRPID"^^xsd:string ;
	bd:description "Used to tie together a block of related records in a single domain for a subject."^^xsd:string ;
	bd:format ""^^xsd:string ;
	bd:ctAndFormat ""^^xsd:string ;
	bd:compliance <http://www.assero.co.uk/CSN#da9f1092-7a20-4c97-9144-8bac2e72d1ea> ;
.
<http://www.cdisc.org/AE/V1#DVAEREFID>
	rdf:type bd:SdtmDomainVariable ;
	isoC:label "Reference ID"^^xsd:string ;
	bd:rule ""^^xsd:string ;
	bd:ordinal "6"^^xsd:positiveInteger ;
	bd:name "AEREFID"^^xsd:string ;
	bd:description "Internal or external identifier such as a serial number on an SAE reporting form"^^xsd:string ;
	bd:format ""^^xsd:string ;
	bd:ctAndFormat ""^^xsd:string ;
	bd:compliance <http://www.assero.co.uk/CSN#da9f1092-7a20-4c97-9144-8bac2e72d1ea> ;
.
<http://www.cdisc.org/AE/V1#DVAESPID>
	rdf:type bd:SdtmDomainVariable ;
	isoC:label "Sponsor-Defined Identifier"^^xsd:string ;
	bd:rule ""^^xsd:string ;
	bd:ordinal "7"^^xsd:positiveInteger ;
	bd:name "AESPID"^^xsd:string ;
	bd:description "Sponsor-defined identifier. It may be pre-printed on the CRF as an explicit line identifier or defined in the sponsor's operational database. Example: Line number on an Adverse Events page."^^xsd:string ;
	bd:format ""^^xsd:string ;
	bd:ctAndFormat ""^^xsd:string ;
	bd:compliance <http://www.assero.co.uk/CSN#da9f1092-7a20-4c97-9144-8bac2e72d1ea> ;
.
<http://www.cdisc.org/AE/V1#DVAETERM>
	rdf:type bd:SdtmDomainVariable ;
	isoC:label "Reported Term for the Adverse Event"^^xsd:string ;
	bd:rule ""^^xsd:string ;
	bd:ordinal "8"^^xsd:positiveInteger ;
	bd:name "AETERM"^^xsd:string ;
	bd:description "Verbatim name of the event."^^xsd:string ;
	bd:format ""^^xsd:string ;
	bd:ctAndFormat ""^^xsd:string ;
	bd:compliance <http://www.assero.co.uk/CSN#8f112ba7-caa3-4f34-a9fc-8bc808b13955> ;
.
<http://www.cdisc.org/AE/V1#DVAEMODIFY>
	rdf:type bd:SdtmDomainVariable ;
	isoC:label "Modified Reported Term"^^xsd:string ;
	bd:rule ""^^xsd:string ;
	bd:ordinal "9"^^xsd:positiveInteger ;
	bd:name "AEMODIFY"^^xsd:string ;
	bd:description "If AETERM is modified to facilitate coding, then AEMODIFY will contain the modified text."^^xsd:string ;
	bd:format ""^^xsd:string ;
	bd:ctAndFormat ""^^xsd:string ;
	bd:compliance <http://www.assero.co.uk/CSN#da9f1092-7a20-4c97-9144-8bac2e72d1ea> ;
.
<http://www.cdisc.org/AE/V1#DVAEDECOD>
	rdf:type bd:SdtmDomainVariable ;
	isoC:label "Dictionary-Derived Term"^^xsd:string ;
	bd:rule ""^^xsd:string ;
	bd:ordinal "10"^^xsd:positiveInteger ;
	bd:name "AEDECOD"^^xsd:string ;
	bd:description "Dictionary-derived text description of AETERM or AEMODIFY. Equivalent to the Preferred Term (PT in MedDRA). The sponsor is expected to provide the dictionary name and version used to map the terms utilizing the define.xml external codelist attributes"^^xsd:string ;
	bd:format ""^^xsd:string ;
	bd:ctAndFormat ""^^xsd:string ;
	bd:compliance <http://www.assero.co.uk/CSN#8f112ba7-caa3-4f34-a9fc-8bc808b13955> ;
.
<http://www.cdisc.org/AE/V1#DVAECAT>
	rdf:type bd:SdtmDomainVariable ;
	isoC:label "Category for Adverse Event"^^xsd:string ;
	bd:rule ""^^xsd:string ;
	bd:ordinal "11"^^xsd:positiveInteger ;
	bd:name "AECAT"^^xsd:string ;
	bd:description "Used to define a category of related records. Example: BLEEDING, NEUROPSYCHIATRIC."^^xsd:string ;
	bd:format ""^^xsd:string ;
	bd:ctAndFormat ""^^xsd:string ;
	bd:compliance <http://www.assero.co.uk/CSN#da9f1092-7a20-4c97-9144-8bac2e72d1ea> ;
.
<http://www.cdisc.org/AE/V1#DVAESCAT>
	rdf:type bd:SdtmDomainVariable ;
	isoC:label "Subcategory for Adverse Event"^^xsd:string ;
	bd:rule ""^^xsd:string ;
	bd:ordinal "12"^^xsd:positiveInteger ;
	bd:name "AESCAT"^^xsd:string ;
	bd:description "A further categorization of adverse event. Example: NEUROLOGIC."^^xsd:string ;
	bd:format ""^^xsd:string ;
	bd:ctAndFormat ""^^xsd:string ;
	bd:compliance <http://www.assero.co.uk/CSN#da9f1092-7a20-4c97-9144-8bac2e72d1ea> ;
.
<http://www.cdisc.org/AE/V1#DVAEPRESP>
	rdf:type bd:SdtmDomainVariable ;
	isoC:label "Pre-Specified Adverse Event"^^xsd:string ;
	bd:rule ""^^xsd:string ;
	bd:ordinal "13"^^xsd:positiveInteger ;
	bd:name "AEPRESP"^^xsd:string ;
	bd:description "A value of 'Y' indicates that this adverse event was pre-specified on the CRF. Values are null for spontaneously reported events (i.e., those collected as free-text verbatim terms)"^^xsd:string ;
	bd:format ""^^xsd:string ;
	bd:ctAndFormat ""^^xsd:string ;
	bd:compliance <http://www.assero.co.uk/CSN#da9f1092-7a20-4c97-9144-8bac2e72d1ea> ;
.
<http://www.cdisc.org/AE/V1#DVAEBODSYS>
	rdf:type bd:SdtmDomainVariable ;
	isoC:label "Body System or Organ Class"^^xsd:string ;
	bd:rule ""^^xsd:string ;
	bd:ordinal "14"^^xsd:positiveInteger ;
	bd:name "AEBODSYS"^^xsd:string ;
	bd:description "Dictionary derived. Body system or organ class used by the sponsor from the coding dictionary (e.g., MedDRA). When using a multi-axial dictionary such as MedDRA, this should contain the SOC used for the sponsor's analyses and summary tables which may not necessarily be the primary SOC."^^xsd:string ;
	bd:format ""^^xsd:string ;
	bd:ctAndFormat ""^^xsd:string ;
	bd:compliance <http://www.assero.co.uk/CSN#fc544083-2437-4ec0-97f4-767598bee682> ;
.
<http://www.cdisc.org/AE/V1#DVAELOC>
	rdf:type bd:SdtmDomainVariable ;
	isoC:label "Location of Event"^^xsd:string ;
	bd:rule ""^^xsd:string ;
	bd:ordinal "15"^^xsd:positiveInteger ;
	bd:name "AELOC"^^xsd:string ;
	bd:description "Describes anatomical location relevant for the event (e.g., LEFT ARM for skin rash)."^^xsd:string ;
	bd:format ""^^xsd:string ;
	bd:ctAndFormat ""^^xsd:string ;
	bd:compliance <http://www.assero.co.uk/CSN#da9f1092-7a20-4c97-9144-8bac2e72d1ea> ;
.
<http://www.cdisc.org/AE/V1#DVAESEV>
	rdf:type bd:SdtmDomainVariable ;
	isoC:label "Severity/Intensity"^^xsd:string ;
	bd:rule ""^^xsd:string ;
	bd:ordinal "16"^^xsd:positiveInteger ;
	bd:name "AESEV"^^xsd:string ;
	bd:description "The severity or intensity of the event. Examples: MILD, MODERATE, SEVERE."^^xsd:string ;
	bd:format ""^^xsd:string ;
	bd:ctAndFormat ""^^xsd:string ;
	bd:compliance <http://www.assero.co.uk/CSN#da9f1092-7a20-4c97-9144-8bac2e72d1ea> ;
.
<http://www.cdisc.org/AE/V1#DVAESER>
	rdf:type bd:SdtmDomainVariable ;
	isoC:label "Serious Event"^^xsd:string ;
	bd:rule ""^^xsd:string ;
	bd:ordinal "17"^^xsd:positiveInteger ;
	bd:name "AESER"^^xsd:string ;
	bd:description "Is this a serious event?"^^xsd:string ;
	bd:format ""^^xsd:string ;
	bd:ctAndFormat ""^^xsd:string ;
	bd:compliance <http://www.assero.co.uk/CSN#fc544083-2437-4ec0-97f4-767598bee682> ;
.
<http://www.cdisc.org/AE/V1#DVAEACN>
	rdf:type bd:SdtmDomainVariable ;
	isoC:label "Action Taken with Study Treatment"^^xsd:string ;
	bd:rule ""^^xsd:string ;
	bd:ordinal "18"^^xsd:positiveInteger ;
	bd:name "AEACN"^^xsd:string ;
	bd:description "Describes changes to the study treatment as a result of the event. AEACN is specifically for the relationship to study treatment. AEACNOTH is for actions unrelated to dose adjustments of study treatment. Examples of AEACN values include ICH E2B values: DRUG WITHDRAWN, DOSE REDUCED, DOSE INCREASED, DOSE NOT CHANGED, UNKNOWN or NOT APPLICABLE"^^xsd:string ;
	bd:format ""^^xsd:string ;
	bd:ctAndFormat ""^^xsd:string ;
	bd:compliance <http://www.assero.co.uk/CSN#fc544083-2437-4ec0-97f4-767598bee682> ;
.
<http://www.cdisc.org/AE/V1#DVAEACNOTH>
	rdf:type bd:SdtmDomainVariable ;
	isoC:label "Other Action Taken"^^xsd:string ;
	bd:rule ""^^xsd:string ;
	bd:ordinal "19"^^xsd:positiveInteger ;
	bd:name "AEACNOTH"^^xsd:string ;
	bd:description "Describes other actions taken as a result of the event that are unrelated to dose adjustments of study treatment. Usually reported as free text. Example: 'TREATMENT UNBLINDED. PRIMARY CARE PHYSICIAN NOTIFIED.'"^^xsd:string ;
	bd:format ""^^xsd:string ;
	bd:ctAndFormat ""^^xsd:string ;
	bd:compliance <http://www.assero.co.uk/CSN#da9f1092-7a20-4c97-9144-8bac2e72d1ea> ;
.
<http://www.cdisc.org/AE/V1#DVAEREL>
	rdf:type bd:SdtmDomainVariable ;
	isoC:label "Causality"^^xsd:string ;
	bd:rule ""^^xsd:string ;
	bd:ordinal "20"^^xsd:positiveInteger ;
	bd:name "AEREL"^^xsd:string ;
	bd:description "Records the investigator's opinion as to the causality of the event to the treatment. ICH E2A and E2B examples include NOT RELATED, UNLIKELY RELATED, POSSIBLY RELATED, RELATED. Controlled Terminology may be defined in the future. Check with regulatory authority for population of this variable"^^xsd:string ;
	bd:format ""^^xsd:string ;
	bd:ctAndFormat ""^^xsd:string ;
	bd:compliance <http://www.assero.co.uk/CSN#fc544083-2437-4ec0-97f4-767598bee682> ;
.
<http://www.cdisc.org/AE/V1#DVAERELNST>
	rdf:type bd:SdtmDomainVariable ;
	isoC:label "Relationship to Non-Study Treatment"^^xsd:string ;
	bd:rule ""^^xsd:string ;
	bd:ordinal "21"^^xsd:positiveInteger ;
	bd:name "AERELNST"^^xsd:string ;
	bd:description "Records the investigator's opinion as to whether the event may have been due to a treatment other than study drug. May be reported as free text. Example: 'MORE LIKELY RELATED TO ASPIRIN USE.'."^^xsd:string ;
	bd:format ""^^xsd:string ;
	bd:ctAndFormat ""^^xsd:string ;
	bd:compliance <http://www.assero.co.uk/CSN#da9f1092-7a20-4c97-9144-8bac2e72d1ea> ;
.
<http://www.cdisc.org/AE/V1#DVAEPATT>
	rdf:type bd:SdtmDomainVariable ;
	isoC:label "Pattern of Adverse Event"^^xsd:string ;
	bd:rule ""^^xsd:string ;
	bd:ordinal "22"^^xsd:positiveInteger ;
	bd:name "AEPATT"^^xsd:string ;
	bd:description "Used to indicate the pattern of the event over time. Examples: INTERMITTENT, CONTINUOUS, SINGLE EVENT."^^xsd:string ;
	bd:format ""^^xsd:string ;
	bd:ctAndFormat ""^^xsd:string ;
	bd:compliance <http://www.assero.co.uk/CSN#da9f1092-7a20-4c97-9144-8bac2e72d1ea> ;
.
<http://www.cdisc.org/AE/V1#DVAEOUT>
	rdf:type bd:SdtmDomainVariable ;
	isoC:label "Outcome of Adverse Event"^^xsd:string ;
	bd:rule ""^^xsd:string ;
	bd:ordinal "23"^^xsd:positiveInteger ;
	bd:name "AEOUT"^^xsd:string ;
	bd:description "Description of the outcome of an event."^^xsd:string ;
	bd:format ""^^xsd:string ;
	bd:ctAndFormat ""^^xsd:string ;
	bd:compliance <http://www.assero.co.uk/CSN#da9f1092-7a20-4c97-9144-8bac2e72d1ea> ;
.
<http://www.cdisc.org/AE/V1#DVAESCAN>
	rdf:type bd:SdtmDomainVariable ;
	isoC:label "Involves Cancer"^^xsd:string ;
	bd:rule ""^^xsd:string ;
	bd:ordinal "24"^^xsd:positiveInteger ;
	bd:name "AESCAN"^^xsd:string ;
	bd:description "Was the serious event associated with the development of cancer?"^^xsd:string ;
	bd:format ""^^xsd:string ;
	bd:ctAndFormat ""^^xsd:string ;
	bd:compliance <http://www.assero.co.uk/CSN#da9f1092-7a20-4c97-9144-8bac2e72d1ea> ;
.
<http://www.cdisc.org/AE/V1#DVAESCONG>
	rdf:type bd:SdtmDomainVariable ;
	isoC:label "Congenital Anomaly or Birth Defect"^^xsd:string ;
	bd:rule ""^^xsd:string ;
	bd:ordinal "25"^^xsd:positiveInteger ;
	bd:name "AESCONG"^^xsd:string ;
	bd:description "Was the serious event associated with congenital anomaly or birth defect?"^^xsd:string ;
	bd:format ""^^xsd:string ;
	bd:ctAndFormat ""^^xsd:string ;
	bd:compliance <http://www.assero.co.uk/CSN#da9f1092-7a20-4c97-9144-8bac2e72d1ea> ;
.
<http://www.cdisc.org/AE/V1#DVAESDISAB>
	rdf:type bd:SdtmDomainVariable ;
	isoC:label "Persist or Signif Disability/Incapacity"^^xsd:string ;
	bd:rule ""^^xsd:string ;
	bd:ordinal "26"^^xsd:positiveInteger ;
	bd:name "AESDISAB"^^xsd:string ;
	bd:description "Did the serious event result in persistent or significant disability/incapacity?"^^xsd:string ;
	bd:format ""^^xsd:string ;
	bd:ctAndFormat ""^^xsd:string ;
	bd:compliance <http://www.assero.co.uk/CSN#da9f1092-7a20-4c97-9144-8bac2e72d1ea> ;
.
<http://www.cdisc.org/AE/V1#DVAESDTH>
	rdf:type bd:SdtmDomainVariable ;
	isoC:label "Results in Death"^^xsd:string ;
	bd:rule ""^^xsd:string ;
	bd:ordinal "27"^^xsd:positiveInteger ;
	bd:name "AESDTH"^^xsd:string ;
	bd:description "Did the serious event result in death?"^^xsd:string ;
	bd:format ""^^xsd:string ;
	bd:ctAndFormat ""^^xsd:string ;
	bd:compliance <http://www.assero.co.uk/CSN#da9f1092-7a20-4c97-9144-8bac2e72d1ea> ;
.
<http://www.cdisc.org/AE/V1#DVAESHOSP>
	rdf:type bd:SdtmDomainVariable ;
	isoC:label "Requires or Prolongs Hospitalization"^^xsd:string ;
	bd:rule ""^^xsd:string ;
	bd:ordinal "28"^^xsd:positiveInteger ;
	bd:name "AESHOSP"^^xsd:string ;
	bd:description "Did the serious event require or prolong hospitalization?"^^xsd:string ;
	bd:format ""^^xsd:string ;
	bd:ctAndFormat ""^^xsd:string ;
	bd:compliance <http://www.assero.co.uk/CSN#da9f1092-7a20-4c97-9144-8bac2e72d1ea> ;
.
<http://www.cdisc.org/AE/V1#DVAESLIFE>
	rdf:type bd:SdtmDomainVariable ;
	isoC:label "Is Life Threatening"^^xsd:string ;
	bd:rule ""^^xsd:string ;
	bd:ordinal "29"^^xsd:positiveInteger ;
	bd:name "AESLIFE"^^xsd:string ;
	bd:description "Was the serious event life threatening?"^^xsd:string ;
	bd:format ""^^xsd:string ;
	bd:ctAndFormat ""^^xsd:string ;
	bd:compliance <http://www.assero.co.uk/CSN#da9f1092-7a20-4c97-9144-8bac2e72d1ea> ;
.
<http://www.cdisc.org/AE/V1#DVAESOD>
	rdf:type bd:SdtmDomainVariable ;
	isoC:label "Occurred with Overdose"^^xsd:string ;
	bd:rule ""^^xsd:string ;
	bd:ordinal "30"^^xsd:positiveInteger ;
	bd:name "AESOD"^^xsd:string ;
	bd:description "Did the serious event occur with an overdose?"^^xsd:string ;
	bd:format ""^^xsd:string ;
	bd:ctAndFormat ""^^xsd:string ;
	bd:compliance <http://www.assero.co.uk/CSN#da9f1092-7a20-4c97-9144-8bac2e72d1ea> ;
.
<http://www.cdisc.org/AE/V1#DVAESMIE>
	rdf:type bd:SdtmDomainVariable ;
	isoC:label "Other Medically Important Serious Event"^^xsd:string ;
	bd:rule ""^^xsd:string ;
	bd:ordinal "31"^^xsd:positiveInteger ;
	bd:name "AESMIE"^^xsd:string ;
	bd:description "Do additional categories for seriousness apply?"^^xsd:string ;
	bd:format ""^^xsd:string ;
	bd:ctAndFormat ""^^xsd:string ;
	bd:compliance <http://www.assero.co.uk/CSN#da9f1092-7a20-4c97-9144-8bac2e72d1ea> ;
.
<http://www.cdisc.org/AE/V1#DVAECONTRT>
	rdf:type bd:SdtmDomainVariable ;
	isoC:label "Concomitant or Additional Trtmnt Given"^^xsd:string ;
	bd:rule ""^^xsd:string ;
	bd:ordinal "32"^^xsd:positiveInteger ;
	bd:name "AECONTRT"^^xsd:string ;
	bd:description "Was another treatment given because of the occurrence of the event?"^^xsd:string ;
	bd:format ""^^xsd:string ;
	bd:ctAndFormat ""^^xsd:string ;
	bd:compliance <http://www.assero.co.uk/CSN#da9f1092-7a20-4c97-9144-8bac2e72d1ea> ;
.
<http://www.cdisc.org/AE/V1#DVAETOXGR>
	rdf:type bd:SdtmDomainVariable ;
	isoC:label "Standard Toxicity Grade"^^xsd:string ;
	bd:rule ""^^xsd:string ;
	bd:ordinal "33"^^xsd:positiveInteger ;
	bd:name "AETOXGR"^^xsd:string ;
	bd:description "Toxicity grade according to a standard toxicity scale such as Common Terminology Criteria for Adverse Events v3.0 (CTCAE). Sponsor should specify name of the scale and version used in the metadata (see 6.2.1.1, Assumption 6c). If value is from a numeric scale, represent only the number (e.g., '2' and not 'Grade 2')."^^xsd:string ;
	bd:format ""^^xsd:string ;
	bd:ctAndFormat ""^^xsd:string ;
	bd:compliance <http://www.assero.co.uk/CSN#da9f1092-7a20-4c97-9144-8bac2e72d1ea> ;
.
<http://www.cdisc.org/AE/V1#DVAESTDTC>
	rdf:type bd:SdtmDomainVariable ;
	isoC:label "Start Date/Time of Adverse Event"^^xsd:string ;
	bd:rule ""^^xsd:string ;
	bd:ordinal "34"^^xsd:positiveInteger ;
	bd:name "AESTDTC"^^xsd:string ;
	bd:description ""^^xsd:string ;
	bd:format ""^^xsd:string ;
	bd:ctAndFormat ""^^xsd:string ;
	bd:compliance <http://www.assero.co.uk/CSN#fc544083-2437-4ec0-97f4-767598bee682> ;
.
<http://www.cdisc.org/AE/V1#DVAEENDTC>
	rdf:type bd:SdtmDomainVariable ;
	isoC:label "End Date/Time of Adverse Event"^^xsd:string ;
	bd:rule ""^^xsd:string ;
	bd:ordinal "35"^^xsd:positiveInteger ;
	bd:name "AEENDTC"^^xsd:string ;
	bd:description ""^^xsd:string ;
	bd:format ""^^xsd:string ;
	bd:ctAndFormat ""^^xsd:string ;
	bd:compliance <http://www.assero.co.uk/CSN#fc544083-2437-4ec0-97f4-767598bee682> ;
.
<http://www.cdisc.org/AE/V1#DVAESTDY>
	rdf:type bd:SdtmDomainVariable ;
	isoC:label "Study Day of Start of Adverse Event"^^xsd:string ;
	bd:rule ""^^xsd:string ;
	bd:ordinal "36"^^xsd:positiveInteger ;
	bd:name "AESTDY"^^xsd:string ;
	bd:description "Study day of start of adverse event relative to the sponsor-defined RFSTDTC."^^xsd:string ;
	bd:format ""^^xsd:string ;
	bd:ctAndFormat ""^^xsd:string ;
	bd:compliance <http://www.assero.co.uk/CSN#da9f1092-7a20-4c97-9144-8bac2e72d1ea> ;
.
<http://www.cdisc.org/AE/V1#DVAEENDY>
	rdf:type bd:SdtmDomainVariable ;
	isoC:label "Study Day of End of Adverse Event"^^xsd:string ;
	bd:rule ""^^xsd:string ;
	bd:ordinal "37"^^xsd:positiveInteger ;
	bd:name "AEENDY"^^xsd:string ;
	bd:description "Study day of end of event relative to the sponsor-defined RFSTDTC."^^xsd:string ;
	bd:format ""^^xsd:string ;
	bd:ctAndFormat ""^^xsd:string ;
	bd:compliance <http://www.assero.co.uk/CSN#da9f1092-7a20-4c97-9144-8bac2e72d1ea> ;
.
<http://www.cdisc.org/AE/V1#DVAEDUR>
	rdf:type bd:SdtmDomainVariable ;
	isoC:label "Duration of Adverse Event"^^xsd:string ;
	bd:rule ""^^xsd:string ;
	bd:ordinal "38"^^xsd:positiveInteger ;
	bd:name "AEDUR"^^xsd:string ;
	bd:description "Collected duration and unit of an adverse event. Used only if collected on the CRF and not derived from start and end date/times. Example: P1DT2H (for 1 day, 2 hours)."^^xsd:string ;
	bd:format ""^^xsd:string ;
	bd:ctAndFormat ""^^xsd:string ;
	bd:compliance <http://www.assero.co.uk/CSN#da9f1092-7a20-4c97-9144-8bac2e72d1ea> ;
.
<http://www.cdisc.org/AE/V1#DVAEENRF>
	rdf:type bd:SdtmDomainVariable ;
	isoC:label "End Relative to Reference Period"^^xsd:string ;
	bd:rule ""^^xsd:string ;
	bd:ordinal "39"^^xsd:positiveInteger ;
	bd:name "AEENRF"^^xsd:string ;
	bd:description "Describes the end of the event relative to the sponsor-defined reference period. The sponsor-defined reference period is a continuous period of time defined by a discrete starting point (RFSTDTC) and a discrete ending point (RFENDTC) of the trial."^^xsd:string ;
	bd:format ""^^xsd:string ;
	bd:ctAndFormat ""^^xsd:string ;
	bd:compliance <http://www.assero.co.uk/CSN#da9f1092-7a20-4c97-9144-8bac2e72d1ea> ;
.
<http://www.cdisc.org/AE/V1#DVAEENRTPT>
	rdf:type bd:SdtmDomainVariable ;
	isoC:label "End Relative to Reference Time Point"^^xsd:string ;
	bd:rule ""^^xsd:string ;
	bd:ordinal "40"^^xsd:positiveInteger ;
	bd:name "AEENRTPT"^^xsd:string ;
	bd:description "Identifies the end of the event as being before or after the reference time point defined by variable AEENTPT."^^xsd:string ;
	bd:format ""^^xsd:string ;
	bd:ctAndFormat ""^^xsd:string ;
	bd:compliance <http://www.assero.co.uk/CSN#da9f1092-7a20-4c97-9144-8bac2e72d1ea> ;
.
<http://www.cdisc.org/AE/V1#DVAEENTPT>
	rdf:type bd:SdtmDomainVariable ;
	isoC:label "End Reference Time Point"^^xsd:string ;
	bd:rule ""^^xsd:string ;
	bd:ordinal "41"^^xsd:positiveInteger ;
	bd:name "AEENTPT"^^xsd:string ;
	bd:description "Description of date/time in ISO 8601 character format of the reference point referred to by AEENRTPT. Examples: '2003-12-25' or 'VISIT 2'."^^xsd:string ;
	bd:format ""^^xsd:string ;
	bd:ctAndFormat ""^^xsd:string ;
	bd:compliance <http://www.assero.co.uk/CSN#da9f1092-7a20-4c97-9144-8bac2e72d1ea> ;
.
<http://www.cdisc.org/DS/V1>
	rdf:type bd:SdtmDomain ;
	isoC:label "Disposition"^^xsd:string ;
	isoT:hasState <http://www.cdisc.org/DS/V1#RS> ;
	isoT:hasIdentifier <http://www.cdisc.org/DS/V1#SI> ;
	isoT:origin ""^^xsd:string ;
	isoT:changeDescription ""^^xsd:string ;
	isoT:creationDate "2008-11-12T00:00:00+00:00"^^xsd:dateTime ;
	isoT:lastChangeDate "2008-11-12T00:00:00+00:00"^^xsd:dateTime ;
	isoT:explanatoryComment ""^^xsd:string ;
	bd:rule ""^^xsd:string ;
	bd:ordinal "1"^^xsd:positiveInteger ;
	bd:includesColumn <http://www.cdisc.org/DS/V1#DVSTUDYID> ;
	bd:includesColumn <http://www.cdisc.org/DS/V1#DVDOMAIN> ;
	bd:includesColumn <http://www.cdisc.org/DS/V1#DVUSUBJID> ;
	bd:includesColumn <http://www.cdisc.org/DS/V1#DVDSSEQ> ;
	bd:includesColumn <http://www.cdisc.org/DS/V1#DVDSGRPID> ;
	bd:includesColumn <http://www.cdisc.org/DS/V1#DVDSREFID> ;
	bd:includesColumn <http://www.cdisc.org/DS/V1#DVDSSPID> ;
	bd:includesColumn <http://www.cdisc.org/DS/V1#DVDSTERM> ;
	bd:includesColumn <http://www.cdisc.org/DS/V1#DVDSDECOD> ;
	bd:includesColumn <http://www.cdisc.org/DS/V1#DVDSCAT> ;
	bd:includesColumn <http://www.cdisc.org/DS/V1#DVDSSCAT> ;
	bd:includesColumn <http://www.cdisc.org/DS/V1#DVEPOCH> ;
	bd:includesColumn <http://www.cdisc.org/DS/V1#DVDSDTC> ;
	bd:includesColumn <http://www.cdisc.org/DS/V1#DVDSSTDTC> ;
	bd:includesColumn <http://www.cdisc.org/DS/V1#DVDSSTDY> ;
	bd:prefix ""^^xsd:string ;
	bd:structure ""^^xsd:string ;
.
<http://www.cdisc.org/DS/V1#RS>
	rdf:type isoR:RegistrationState ;
	isoR:registrationStatus "Standard"^^xsd:string ;
	isoR:administrativeNote ""^^xsd:string ;
	isoR:effectiveDate "2016-01-01T00:00:00+00:00"^^xsd:dateTime ;
	isoR:untilDate "2016-01-01T00:00:00+00:00"^^xsd:dateTime ;
	isoR:unresolvedIssue ""^^xsd:string ;
	isoR:administrativeStatus ""^^xsd:string ;
	isoR:previousState "Standard"^^xsd:string ;
	isoR:multipleEdit "false"^^xsd:boolean ;
	isoR:byAuthority <http://www.assero.co.uk/RA#DUNS084433759> ;
.
<http://www.cdisc.org/DS/V1#SI>
	rdf:type isoI:ScopedIdentifier ;
	isoI:identifier "DS"^^xsd:string ;
	isoI:versionLabel "2008-11-12 Release"^^xsd:string ;
	isoI:version "1"^^xsd:positiveInteger ;
	isoI:semanticVersion "1.0.0"^^xsd:string ;
	isoI:hasScope <http://www.assero.co.uk/NS#CDISC> ;
.
<http://www.cdisc.org/DS/V1#DVSTUDYID>
	rdf:type bd:SdtmDomainVariable ;
	isoC:label "Study Identifier"^^xsd:string ;
	bd:rule ""^^xsd:string ;
	bd:ordinal "1"^^xsd:positiveInteger ;
	bd:name "STUDYID"^^xsd:string ;
	bd:description "Unique identifier for a study."^^xsd:string ;
	bd:format ""^^xsd:string ;
	bd:ctAndFormat ""^^xsd:string ;
	bd:compliance <http://www.assero.co.uk/CSN#8f112ba7-caa3-4f34-a9fc-8bc808b13955> ;
.
<http://www.cdisc.org/DS/V1#DVDOMAIN>
	rdf:type bd:SdtmDomainVariable ;
	isoC:label "Domain Abbreviation"^^xsd:string ;
	bd:rule ""^^xsd:string ;
	bd:ordinal "2"^^xsd:positiveInteger ;
	bd:name "DOMAIN"^^xsd:string ;
	bd:description "Two-character abbreviation for the domain."^^xsd:string ;
	bd:format ""^^xsd:string ;
	bd:ctAndFormat ""^^xsd:string ;
	bd:compliance <http://www.assero.co.uk/CSN#8f112ba7-caa3-4f34-a9fc-8bc808b13955> ;
.
<http://www.cdisc.org/DS/V1#DVUSUBJID>
	rdf:type bd:SdtmDomainVariable ;
	isoC:label "Unique Subject Identifier"^^xsd:string ;
	bd:rule ""^^xsd:string ;
	bd:ordinal "3"^^xsd:positiveInteger ;
	bd:name "USUBJID"^^xsd:string ;
	bd:description "Identifier used to uniquely identify a subject across all studies for all applications or submissions involving the product."^^xsd:string ;
	bd:format ""^^xsd:string ;
	bd:ctAndFormat ""^^xsd:string ;
	bd:compliance <http://www.assero.co.uk/CSN#8f112ba7-caa3-4f34-a9fc-8bc808b13955> ;
.
<http://www.cdisc.org/DS/V1#DVDSSEQ>
	rdf:type bd:SdtmDomainVariable ;
	isoC:label "Sequence Number"^^xsd:string ;
	bd:rule ""^^xsd:string ;
	bd:ordinal "4"^^xsd:positiveInteger ;
	bd:name "DSSEQ"^^xsd:string ;
	bd:description "Sequence Number given to ensure uniqueness of subject records within a domain. May be any valid number."^^xsd:string ;
	bd:format ""^^xsd:string ;
	bd:ctAndFormat ""^^xsd:string ;
	bd:compliance <http://www.assero.co.uk/CSN#8f112ba7-caa3-4f34-a9fc-8bc808b13955> ;
.
<http://www.cdisc.org/DS/V1#DVDSGRPID>
	rdf:type bd:SdtmDomainVariable ;
	isoC:label "Group ID"^^xsd:string ;
	bd:rule ""^^xsd:string ;
	bd:ordinal "5"^^xsd:positiveInteger ;
	bd:name "DSGRPID"^^xsd:string ;
	bd:description "Used to tie together a block of related records in a single domain for a subject."^^xsd:string ;
	bd:format ""^^xsd:string ;
	bd:ctAndFormat ""^^xsd:string ;
	bd:compliance <http://www.assero.co.uk/CSN#da9f1092-7a20-4c97-9144-8bac2e72d1ea> ;
.
<http://www.cdisc.org/DS/V1#DVDSREFID>
	rdf:type bd:SdtmDomainVariable ;
	isoC:label "Reference ID"^^xsd:string ;
	bd:rule ""^^xsd:string ;
	bd:ordinal "6"^^xsd:positiveInteger ;
	bd:name "DSREFID"^^xsd:string ;
	bd:description "Internal or external identifier."^^xsd:string ;
	bd:format ""^^xsd:string ;
	bd:ctAndFormat ""^^xsd:string ;
	bd:compliance <http://www.assero.co.uk/CSN#da9f1092-7a20-4c97-9144-8bac2e72d1ea> ;
.
<http://www.cdisc.org/DS/V1#DVDSSPID>
	rdf:type bd:SdtmDomainVariable ;
	isoC:label "Sponsor-Defined Identifier"^^xsd:string ;
	bd:rule ""^^xsd:string ;
	bd:ordinal "7"^^xsd:positiveInteger ;
	bd:name "DSSPID"^^xsd:string ;
	bd:description "Sponsor-defined reference number. Perhaps pre-printed on the CRF as an explicit line identifier or defined in the sponsor's operational database. Example: Line number on a Disposition page."^^xsd:string ;
	bd:format ""^^xsd:string ;
	bd:ctAndFormat ""^^xsd:string ;
	bd:compliance <http://www.assero.co.uk/CSN#da9f1092-7a20-4c97-9144-8bac2e72d1ea> ;
.
<http://www.cdisc.org/DS/V1#DVDSTERM>
	rdf:type bd:SdtmDomainVariable ;
	isoC:label "Reported Term for the Disposition Event"^^xsd:string ;
	bd:rule ""^^xsd:string ;
	bd:ordinal "8"^^xsd:positiveInteger ;
	bd:name "DSTERM"^^xsd:string ;
	bd:description "Verbatim name of the event or protocol milestone. Some terms in DSTERM will match DSDECOD, but others, such as 'Subject moved' will map to controlled terminology in DSDECOD, such as 'LOST TO FOLLOW-UP.'"^^xsd:string ;
	bd:format ""^^xsd:string ;
	bd:ctAndFormat ""^^xsd:string ;
	bd:compliance <http://www.assero.co.uk/CSN#8f112ba7-caa3-4f34-a9fc-8bc808b13955> ;
.
<http://www.cdisc.org/DS/V1#DVDSDECOD>
	rdf:type bd:SdtmDomainVariable ;
	isoC:label "Standardized Disposition Term"^^xsd:string ;
	bd:rule ""^^xsd:string ;
	bd:ordinal "9"^^xsd:positiveInteger ;
	bd:name "DSDECOD"^^xsd:string ;
	bd:description "Controlled terminology for the name of disposition event or protocol milestone. Examples of protocol milestones: INFORMED CONSENT OBTAINED, RANDOMIZED"^^xsd:string ;
	bd:format ""^^xsd:string ;
	bd:ctAndFormat ""^^xsd:string ;
	bd:compliance <http://www.assero.co.uk/CSN#8f112ba7-caa3-4f34-a9fc-8bc808b13955> ;
.
<http://www.cdisc.org/DS/V1#DVDSCAT>
	rdf:type bd:SdtmDomainVariable ;
	isoC:label "Category for Disposition Event"^^xsd:string ;
	bd:rule ""^^xsd:string ;
	bd:ordinal "10"^^xsd:positiveInteger ;
	bd:name "DSCAT"^^xsd:string ;
	bd:description "Used to define a category of related records. DSCAT is now an 'Expected' variable. DSCAT was permissible in SDTMIG 3.1.1 and earlier versions. The change from 'permissible' to 'expected' is based on the requirement to distinguish protocol milestones and/or other events from disposition events. DSCAT may be null if there are only 'disposition events'; however, it is recommended that DSCAT always be populated."^^xsd:string ;
	bd:format ""^^xsd:string ;
	bd:ctAndFormat ""^^xsd:string ;
	bd:compliance <http://www.assero.co.uk/CSN#fc544083-2437-4ec0-97f4-767598bee682> ;
.
<http://www.cdisc.org/DS/V1#DVDSSCAT>
	rdf:type bd:SdtmDomainVariable ;
	isoC:label "Subcategory for Disposition Event"^^xsd:string ;
	bd:rule ""^^xsd:string ;
	bd:ordinal "11"^^xsd:positiveInteger ;
	bd:name "DSSCAT"^^xsd:string ;
	bd:description "A further categorization of disposition event."^^xsd:string ;
	bd:format ""^^xsd:string ;
	bd:ctAndFormat ""^^xsd:string ;
	bd:compliance <http://www.assero.co.uk/CSN#da9f1092-7a20-4c97-9144-8bac2e72d1ea> ;
.
<http://www.cdisc.org/DS/V1#DVEPOCH>
	rdf:type bd:SdtmDomainVariable ;
	isoC:label "Epoch"^^xsd:string ;
	bd:rule ""^^xsd:string ;
	bd:ordinal "12"^^xsd:positiveInteger ;
	bd:name "EPOCH"^^xsd:string ;
	bd:description "Epoch associated with the Element in the planned sequence of Elements for the ARM to which the subject was assigned"^^xsd:string ;
	bd:format ""^^xsd:string ;
	bd:ctAndFormat ""^^xsd:string ;
	bd:compliance <http://www.assero.co.uk/CSN#da9f1092-7a20-4c97-9144-8bac2e72d1ea> ;
.
<http://www.cdisc.org/DS/V1#DVDSDTC>
	rdf:type bd:SdtmDomainVariable ;
	isoC:label "Date/Time of Collection"^^xsd:string ;
	bd:rule ""^^xsd:string ;
	bd:ordinal "13"^^xsd:positiveInteger ;
	bd:name "DSDTC"^^xsd:string ;
	bd:description ""^^xsd:string ;
	bd:format ""^^xsd:string ;
	bd:ctAndFormat ""^^xsd:string ;
	bd:compliance <http://www.assero.co.uk/CSN#da9f1092-7a20-4c97-9144-8bac2e72d1ea> ;
.
<http://www.cdisc.org/DS/V1#DVDSSTDTC>
	rdf:type bd:SdtmDomainVariable ;
	isoC:label "Start Date/Time of Disposition Event"^^xsd:string ;
	bd:rule ""^^xsd:string ;
	bd:ordinal "14"^^xsd:positiveInteger ;
	bd:name "DSSTDTC"^^xsd:string ;
	bd:description ""^^xsd:string ;
	bd:format ""^^xsd:string ;
	bd:ctAndFormat ""^^xsd:string ;
	bd:compliance <http://www.assero.co.uk/CSN#fc544083-2437-4ec0-97f4-767598bee682> ;
.
<http://www.cdisc.org/DS/V1#DVDSSTDY>
	rdf:type bd:SdtmDomainVariable ;
	isoC:label "Study Day of Start of Disposition Event"^^xsd:string ;
	bd:rule ""^^xsd:string ;
	bd:ordinal "15"^^xsd:positiveInteger ;
	bd:name "DSSTDY"^^xsd:string ;
	bd:description "Study day of start of event relative to the sponsor-defined RFSTDTC."^^xsd:string ;
	bd:format ""^^xsd:string ;
	bd:ctAndFormat ""^^xsd:string ;
	bd:compliance <http://www.assero.co.uk/CSN#da9f1092-7a20-4c97-9144-8bac2e72d1ea> ;
.
<http://www.cdisc.org/MH/V1>
	rdf:type bd:SdtmDomain ;
	isoC:label "Medical History"^^xsd:string ;
	isoT:hasState <http://www.cdisc.org/MH/V1#RS> ;
	isoT:hasIdentifier <http://www.cdisc.org/MH/V1#SI> ;
	isoT:origin ""^^xsd:string ;
	isoT:changeDescription ""^^xsd:string ;
	isoT:creationDate "2008-11-12T00:00:00+00:00"^^xsd:dateTime ;
	isoT:lastChangeDate "2008-11-12T00:00:00+00:00"^^xsd:dateTime ;
	isoT:explanatoryComment ""^^xsd:string ;
	bd:rule ""^^xsd:string ;
	bd:ordinal "1"^^xsd:positiveInteger ;
	bd:includesColumn <http://www.cdisc.org/MH/V1#DVSTUDYID> ;
	bd:includesColumn <http://www.cdisc.org/MH/V1#DVDOMAIN> ;
	bd:includesColumn <http://www.cdisc.org/MH/V1#DVUSUBJID> ;
	bd:includesColumn <http://www.cdisc.org/MH/V1#DVMHSEQ> ;
	bd:includesColumn <http://www.cdisc.org/MH/V1#DVMHGRPID> ;
	bd:includesColumn <http://www.cdisc.org/MH/V1#DVMHREFID> ;
	bd:includesColumn <http://www.cdisc.org/MH/V1#DVMHSPID> ;
	bd:includesColumn <http://www.cdisc.org/MH/V1#DVMHTERM> ;
	bd:includesColumn <http://www.cdisc.org/MH/V1#DVMHMODIFY> ;
	bd:includesColumn <http://www.cdisc.org/MH/V1#DVMHDECOD> ;
	bd:includesColumn <http://www.cdisc.org/MH/V1#DVMHCAT> ;
	bd:includesColumn <http://www.cdisc.org/MH/V1#DVMHSCAT> ;
	bd:includesColumn <http://www.cdisc.org/MH/V1#DVMHPRESP> ;
	bd:includesColumn <http://www.cdisc.org/MH/V1#DVMHOCCUR> ;
	bd:includesColumn <http://www.cdisc.org/MH/V1#DVMHSTAT> ;
	bd:includesColumn <http://www.cdisc.org/MH/V1#DVMHREASND> ;
	bd:includesColumn <http://www.cdisc.org/MH/V1#DVMHBODSYS> ;
	bd:includesColumn <http://www.cdisc.org/MH/V1#DVMHDTC> ;
	bd:includesColumn <http://www.cdisc.org/MH/V1#DVMHSTDTC> ;
	bd:includesColumn <http://www.cdisc.org/MH/V1#DVMHENDTC> ;
	bd:includesColumn <http://www.cdisc.org/MH/V1#DVMHDY> ;
	bd:includesColumn <http://www.cdisc.org/MH/V1#DVMHENRF> ;
	bd:includesColumn <http://www.cdisc.org/MH/V1#DVMHENRTPT> ;
	bd:includesColumn <http://www.cdisc.org/MH/V1#DVMHENTPT> ;
	bd:prefix ""^^xsd:string ;
	bd:structure ""^^xsd:string ;
.
<http://www.cdisc.org/MH/V1#RS>
	rdf:type isoR:RegistrationState ;
	isoR:registrationStatus "Standard"^^xsd:string ;
	isoR:administrativeNote ""^^xsd:string ;
	isoR:effectiveDate "2016-01-01T00:00:00+00:00"^^xsd:dateTime ;
	isoR:untilDate "2016-01-01T00:00:00+00:00"^^xsd:dateTime ;
	isoR:unresolvedIssue ""^^xsd:string ;
	isoR:administrativeStatus ""^^xsd:string ;
	isoR:previousState "Standard"^^xsd:string ;
	isoR:multipleEdit "false"^^xsd:boolean ;
	isoR:byAuthority <http://www.assero.co.uk/RA#DUNS084433759> ;
.
<http://www.cdisc.org/MH/V1#SI>
	rdf:type isoI:ScopedIdentifier ;
	isoI:identifier "MH"^^xsd:string ;
	isoI:versionLabel "2008-11-12 Release"^^xsd:string ;
	isoI:version "1"^^xsd:positiveInteger ;
	isoI:semanticVersion "1.0.0"^^xsd:string ;
	isoI:hasScope <http://www.assero.co.uk/NS#CDISC> ;
.
<http://www.cdisc.org/MH/V1#DVSTUDYID>
	rdf:type bd:SdtmDomainVariable ;
	isoC:label "Study Identifier"^^xsd:string ;
	bd:rule ""^^xsd:string ;
	bd:ordinal "1"^^xsd:positiveInteger ;
	bd:name "STUDYID"^^xsd:string ;
	bd:description "Unique identifier for a study."^^xsd:string ;
	bd:format ""^^xsd:string ;
	bd:ctAndFormat ""^^xsd:string ;
	bd:compliance <http://www.assero.co.uk/CSN#8f112ba7-caa3-4f34-a9fc-8bc808b13955> ;
.
<http://www.cdisc.org/MH/V1#DVDOMAIN>
	rdf:type bd:SdtmDomainVariable ;
	isoC:label "Domain Abbreviation"^^xsd:string ;
	bd:rule ""^^xsd:string ;
	bd:ordinal "2"^^xsd:positiveInteger ;
	bd:name "DOMAIN"^^xsd:string ;
	bd:description "Two-character abbreviation for the domain."^^xsd:string ;
	bd:format ""^^xsd:string ;
	bd:ctAndFormat ""^^xsd:string ;
	bd:compliance <http://www.assero.co.uk/CSN#8f112ba7-caa3-4f34-a9fc-8bc808b13955> ;
.
<http://www.cdisc.org/MH/V1#DVUSUBJID>
	rdf:type bd:SdtmDomainVariable ;
	isoC:label "Unique Subject Identifier"^^xsd:string ;
	bd:rule ""^^xsd:string ;
	bd:ordinal "3"^^xsd:positiveInteger ;
	bd:name "USUBJID"^^xsd:string ;
	bd:description "Identifier used to uniquely identify a subject across all studies for all applications or submissions involving the product."^^xsd:string ;
	bd:format ""^^xsd:string ;
	bd:ctAndFormat ""^^xsd:string ;
	bd:compliance <http://www.assero.co.uk/CSN#8f112ba7-caa3-4f34-a9fc-8bc808b13955> ;
.
<http://www.cdisc.org/MH/V1#DVMHSEQ>
	rdf:type bd:SdtmDomainVariable ;
	isoC:label "Sequence Number"^^xsd:string ;
	bd:rule ""^^xsd:string ;
	bd:ordinal "4"^^xsd:positiveInteger ;
	bd:name "MHSEQ"^^xsd:string ;
	bd:description "Sequence Number given to ensure uniqueness of subject records within a domain. May be any valid number."^^xsd:string ;
	bd:format ""^^xsd:string ;
	bd:ctAndFormat ""^^xsd:string ;
	bd:compliance <http://www.assero.co.uk/CSN#8f112ba7-caa3-4f34-a9fc-8bc808b13955> ;
.
<http://www.cdisc.org/MH/V1#DVMHGRPID>
	rdf:type bd:SdtmDomainVariable ;
	isoC:label "Group ID"^^xsd:string ;
	bd:rule ""^^xsd:string ;
	bd:ordinal "5"^^xsd:positiveInteger ;
	bd:name "MHGRPID"^^xsd:string ;
	bd:description "Used to tie together a block of related records in a single domain for a subject."^^xsd:string ;
	bd:format ""^^xsd:string ;
	bd:ctAndFormat ""^^xsd:string ;
	bd:compliance <http://www.assero.co.uk/CSN#da9f1092-7a20-4c97-9144-8bac2e72d1ea> ;
.
<http://www.cdisc.org/MH/V1#DVMHREFID>
	rdf:type bd:SdtmDomainVariable ;
	isoC:label "Reference ID"^^xsd:string ;
	bd:rule ""^^xsd:string ;
	bd:ordinal "6"^^xsd:positiveInteger ;
	bd:name "MHREFID"^^xsd:string ;
	bd:description "Internal or external medical history identifier."^^xsd:string ;
	bd:format ""^^xsd:string ;
	bd:ctAndFormat ""^^xsd:string ;
	bd:compliance <http://www.assero.co.uk/CSN#da9f1092-7a20-4c97-9144-8bac2e72d1ea> ;
.
<http://www.cdisc.org/MH/V1#DVMHSPID>
	rdf:type bd:SdtmDomainVariable ;
	isoC:label "Sponsor-Defined Identifier"^^xsd:string ;
	bd:rule ""^^xsd:string ;
	bd:ordinal "7"^^xsd:positiveInteger ;
	bd:name "MHSPID"^^xsd:string ;
	bd:description "Sponsor-defined reference number. Perhaps pre-printed on the CRF as an explicit line identifier or defined in the sponsor's operational database. Example: Line number on a Medical History page."^^xsd:string ;
	bd:format ""^^xsd:string ;
	bd:ctAndFormat ""^^xsd:string ;
	bd:compliance <http://www.assero.co.uk/CSN#da9f1092-7a20-4c97-9144-8bac2e72d1ea> ;
.
<http://www.cdisc.org/MH/V1#DVMHTERM>
	rdf:type bd:SdtmDomainVariable ;
	isoC:label "Reported Term for the Medical History"^^xsd:string ;
	bd:rule ""^^xsd:string ;
	bd:ordinal "8"^^xsd:positiveInteger ;
	bd:name "MHTERM"^^xsd:string ;
	bd:description "Verbatim or preprinted CRF term for the medical condition or event."^^xsd:string ;
	bd:format ""^^xsd:string ;
	bd:ctAndFormat ""^^xsd:string ;
	bd:compliance <http://www.assero.co.uk/CSN#8f112ba7-caa3-4f34-a9fc-8bc808b13955> ;
.
<http://www.cdisc.org/MH/V1#DVMHMODIFY>
	rdf:type bd:SdtmDomainVariable ;
	isoC:label "Modified Reported Term"^^xsd:string ;
	bd:rule ""^^xsd:string ;
	bd:ordinal "9"^^xsd:positiveInteger ;
	bd:name "MHMODIFY"^^xsd:string ;
	bd:description "If MHTERM is modified to facilitate coding, then MHMODIFY will contain the modified text."^^xsd:string ;
	bd:format ""^^xsd:string ;
	bd:ctAndFormat ""^^xsd:string ;
	bd:compliance <http://www.assero.co.uk/CSN#da9f1092-7a20-4c97-9144-8bac2e72d1ea> ;
.
<http://www.cdisc.org/MH/V1#DVMHDECOD>
	rdf:type bd:SdtmDomainVariable ;
	isoC:label "Dictionary-Derived Term"^^xsd:string ;
	bd:rule ""^^xsd:string ;
	bd:ordinal "10"^^xsd:positiveInteger ;
	bd:name "MHDECOD"^^xsd:string ;
	bd:description "Dictionary-derived text description of MHTERM or MHMODIFY. Equivalent to the Preferred Term (PT in MedDRA). The sponsor is expected to provide the dictionary name and version used to map the terms utilizing the define.xml external codelist attributes"^^xsd:string ;
	bd:format ""^^xsd:string ;
	bd:ctAndFormat ""^^xsd:string ;
	bd:compliance <http://www.assero.co.uk/CSN#da9f1092-7a20-4c97-9144-8bac2e72d1ea> ;
.
<http://www.cdisc.org/MH/V1#DVMHCAT>
	rdf:type bd:SdtmDomainVariable ;
	isoC:label "Category for Medical History"^^xsd:string ;
	bd:rule ""^^xsd:string ;
	bd:ordinal "11"^^xsd:positiveInteger ;
	bd:name "MHCAT"^^xsd:string ;
	bd:description "Used to define a category of related records. Examples: CARDIAC or GENERAL"^^xsd:string ;
	bd:format ""^^xsd:string ;
	bd:ctAndFormat ""^^xsd:string ;
	bd:compliance <http://www.assero.co.uk/CSN#da9f1092-7a20-4c97-9144-8bac2e72d1ea> ;
.
<http://www.cdisc.org/MH/V1#DVMHSCAT>
	rdf:type bd:SdtmDomainVariable ;
	isoC:label "Subcategory for Medical History"^^xsd:string ;
	bd:rule ""^^xsd:string ;
	bd:ordinal "12"^^xsd:positiveInteger ;
	bd:name "MHSCAT"^^xsd:string ;
	bd:description "A further categorization of the condition or event."^^xsd:string ;
	bd:format ""^^xsd:string ;
	bd:ctAndFormat ""^^xsd:string ;
	bd:compliance <http://www.assero.co.uk/CSN#da9f1092-7a20-4c97-9144-8bac2e72d1ea> ;
.
<http://www.cdisc.org/MH/V1#DVMHPRESP>
	rdf:type bd:SdtmDomainVariable ;
	isoC:label "Medical History Event Pre-Specified"^^xsd:string ;
	bd:rule ""^^xsd:string ;
	bd:ordinal "13"^^xsd:positiveInteger ;
	bd:name "MHPRESP"^^xsd:string ;
	bd:description "A value of 'Y' indicates that this medical history event was pre-specified on the CRF. Values are null for spontaneously reported events (i.e., those collected as free-text verbatim terms)"^^xsd:string ;
	bd:format ""^^xsd:string ;
	bd:ctAndFormat ""^^xsd:string ;
	bd:compliance <http://www.assero.co.uk/CSN#da9f1092-7a20-4c97-9144-8bac2e72d1ea> ;
.
<http://www.cdisc.org/MH/V1#DVMHOCCUR>
	rdf:type bd:SdtmDomainVariable ;
	isoC:label "Medical History Occurrence"^^xsd:string ;
	bd:rule ""^^xsd:string ;
	bd:ordinal "14"^^xsd:positiveInteger ;
	bd:name "MHOCCUR"^^xsd:string ;
	bd:description "Used when the occurrence of specific medical history conditions is solicited to indicate whether or not (Y/N) a medical condition (MHTERM) had ever occurred. Values are null for spontaneously reported events."^^xsd:string ;
	bd:format ""^^xsd:string ;
	bd:ctAndFormat ""^^xsd:string ;
	bd:compliance <http://www.assero.co.uk/CSN#da9f1092-7a20-4c97-9144-8bac2e72d1ea> ;
.
<http://www.cdisc.org/MH/V1#DVMHSTAT>
	rdf:type bd:SdtmDomainVariable ;
	isoC:label "Completion Status"^^xsd:string ;
	bd:rule ""^^xsd:string ;
	bd:ordinal "15"^^xsd:positiveInteger ;
	bd:name "MHSTAT"^^xsd:string ;
	bd:description "The status indicates that the pre-specified question was not answered."^^xsd:string ;
	bd:format ""^^xsd:string ;
	bd:ctAndFormat ""^^xsd:string ;
	bd:compliance <http://www.assero.co.uk/CSN#da9f1092-7a20-4c97-9144-8bac2e72d1ea> ;
.
<http://www.cdisc.org/MH/V1#DVMHREASND>
	rdf:type bd:SdtmDomainVariable ;
	isoC:label "Reason Medical History Not Collected"^^xsd:string ;
	bd:rule ""^^xsd:string ;
	bd:ordinal "16"^^xsd:positiveInteger ;
	bd:name "MHREASND"^^xsd:string ;
	bd:description "Describes the reason data for a pre-specified condition was not collected. Used in conjunction with MHSTAT when value is NOT DONE."^^xsd:string ;
	bd:format ""^^xsd:string ;
	bd:ctAndFormat ""^^xsd:string ;
	bd:compliance <http://www.assero.co.uk/CSN#da9f1092-7a20-4c97-9144-8bac2e72d1ea> ;
.
<http://www.cdisc.org/MH/V1#DVMHBODSYS>
	rdf:type bd:SdtmDomainVariable ;
	isoC:label "Body System or Organ Class"^^xsd:string ;
	bd:rule ""^^xsd:string ;
	bd:ordinal "17"^^xsd:positiveInteger ;
	bd:name "MHBODSYS"^^xsd:string ;
	bd:description "Dictionary-derived. Body system or organ class that is involved in an event or measurement from a standard hierarchy (e.g., MedDRA). When using a multi-axial dictionary such as MedDRA, this should contain the SOC used for the sponsor's analyses and summary tables which may not necessarily be the primary SOC."^^xsd:string ;
	bd:format ""^^xsd:string ;
	bd:ctAndFormat ""^^xsd:string ;
	bd:compliance <http://www.assero.co.uk/CSN#da9f1092-7a20-4c97-9144-8bac2e72d1ea> ;
.
<http://www.cdisc.org/MH/V1#DVMHDTC>
	rdf:type bd:SdtmDomainVariable ;
	isoC:label "Date/Time of History Collection"^^xsd:string ;
	bd:rule ""^^xsd:string ;
	bd:ordinal "18"^^xsd:positiveInteger ;
	bd:name "MHDTC"^^xsd:string ;
	bd:description ""^^xsd:string ;
	bd:format ""^^xsd:string ;
	bd:ctAndFormat ""^^xsd:string ;
	bd:compliance <http://www.assero.co.uk/CSN#da9f1092-7a20-4c97-9144-8bac2e72d1ea> ;
.
<http://www.cdisc.org/MH/V1#DVMHSTDTC>
	rdf:type bd:SdtmDomainVariable ;
	isoC:label "Start Date/Time of Medical History Event"^^xsd:string ;
	bd:rule ""^^xsd:string ;
	bd:ordinal "19"^^xsd:positiveInteger ;
	bd:name "MHSTDTC"^^xsd:string ;
	bd:description ""^^xsd:string ;
	bd:format ""^^xsd:string ;
	bd:ctAndFormat ""^^xsd:string ;
	bd:compliance <http://www.assero.co.uk/CSN#da9f1092-7a20-4c97-9144-8bac2e72d1ea> ;
.
<http://www.cdisc.org/MH/V1#DVMHENDTC>
	rdf:type bd:SdtmDomainVariable ;
	isoC:label "End Date/Time of Medical History Event"^^xsd:string ;
	bd:rule ""^^xsd:string ;
	bd:ordinal "20"^^xsd:positiveInteger ;
	bd:name "MHENDTC"^^xsd:string ;
	bd:description ""^^xsd:string ;
	bd:format ""^^xsd:string ;
	bd:ctAndFormat ""^^xsd:string ;
	bd:compliance <http://www.assero.co.uk/CSN#da9f1092-7a20-4c97-9144-8bac2e72d1ea> ;
.
<http://www.cdisc.org/MH/V1#DVMHDY>
	rdf:type bd:SdtmDomainVariable ;
	isoC:label "Study Day of History Collection"^^xsd:string ;
	bd:rule ""^^xsd:string ;
	bd:ordinal "21"^^xsd:positiveInteger ;
	bd:name "MHDY"^^xsd:string ;
	bd:description "1. Study day of medical history collection, measured as integer days. 2. Algorithm for calculations must be relative to the sponsor-defined RFSTDTC variable in Demographics. This formula should be consistent across the submission."^^xsd:string ;
	bd:format ""^^xsd:string ;
	bd:ctAndFormat ""^^xsd:string ;
	bd:compliance <http://www.assero.co.uk/CSN#da9f1092-7a20-4c97-9144-8bac2e72d1ea> ;
.
<http://www.cdisc.org/MH/V1#DVMHENRF>
	rdf:type bd:SdtmDomainVariable ;
	isoC:label "End Relative to Reference Period"^^xsd:string ;
	bd:rule ""^^xsd:string ;
	bd:ordinal "22"^^xsd:positiveInteger ;
	bd:name "MHENRF"^^xsd:string ;
	bd:description "Describes the end of the event relative to the sponsor-defined reference period. The sponsor-defined reference period is a continuous period of time defined by a discrete starting point and a discrete ending point (represented by RFSTDTC and RFENDTC in Demographics)"^^xsd:string ;
	bd:format ""^^xsd:string ;
	bd:ctAndFormat ""^^xsd:string ;
	bd:compliance <http://www.assero.co.uk/CSN#da9f1092-7a20-4c97-9144-8bac2e72d1ea> ;
.
<http://www.cdisc.org/MH/V1#DVMHENRTPT>
	rdf:type bd:SdtmDomainVariable ;
	isoC:label "End Relative to Reference Time Point"^^xsd:string ;
	bd:rule ""^^xsd:string ;
	bd:ordinal "23"^^xsd:positiveInteger ;
	bd:name "MHENRTPT"^^xsd:string ;
	bd:description "Identifies the end of the event as being before or after the reference time point defined by variable MHENTPT."^^xsd:string ;
	bd:format ""^^xsd:string ;
	bd:ctAndFormat ""^^xsd:string ;
	bd:compliance <http://www.assero.co.uk/CSN#da9f1092-7a20-4c97-9144-8bac2e72d1ea> ;
.
<http://www.cdisc.org/MH/V1#DVMHENTPT>
	rdf:type bd:SdtmDomainVariable ;
	isoC:label "End Reference Time Point"^^xsd:string ;
	bd:rule ""^^xsd:string ;
	bd:ordinal "24"^^xsd:positiveInteger ;
	bd:name "MHENTPT"^^xsd:string ;
	bd:description "Description or date/time in ISO 8601 character format of the reference point referred to by MHENRTPT. Examples: '2003-12-25' or 'VISIT 2'."^^xsd:string ;
	bd:format ""^^xsd:string ;
	bd:ctAndFormat ""^^xsd:string ;
	bd:compliance <http://www.assero.co.uk/CSN#da9f1092-7a20-4c97-9144-8bac2e72d1ea> ;
.
<http://www.cdisc.org/DV/V1>
	rdf:type bd:SdtmDomain ;
	isoC:label "Protocol Deviations"^^xsd:string ;
	isoT:hasState <http://www.cdisc.org/DV/V1#RS> ;
	isoT:hasIdentifier <http://www.cdisc.org/DV/V1#SI> ;
	isoT:origin ""^^xsd:string ;
	isoT:changeDescription ""^^xsd:string ;
	isoT:creationDate "2008-11-12T00:00:00+00:00"^^xsd:dateTime ;
	isoT:lastChangeDate "2008-11-12T00:00:00+00:00"^^xsd:dateTime ;
	isoT:explanatoryComment ""^^xsd:string ;
	bd:rule ""^^xsd:string ;
	bd:ordinal "1"^^xsd:positiveInteger ;
	bd:includesColumn <http://www.cdisc.org/DV/V1#DVSTUDYID> ;
	bd:includesColumn <http://www.cdisc.org/DV/V1#DVDOMAIN> ;
	bd:includesColumn <http://www.cdisc.org/DV/V1#DVUSUBJID> ;
	bd:includesColumn <http://www.cdisc.org/DV/V1#DVDVSEQ> ;
	bd:includesColumn <http://www.cdisc.org/DV/V1#DVDVREFID> ;
	bd:includesColumn <http://www.cdisc.org/DV/V1#DVDVSPID> ;
	bd:includesColumn <http://www.cdisc.org/DV/V1#DVDVTERM> ;
	bd:includesColumn <http://www.cdisc.org/DV/V1#DVDVDECOD> ;
	bd:includesColumn <http://www.cdisc.org/DV/V1#DVDVCAT> ;
	bd:includesColumn <http://www.cdisc.org/DV/V1#DVDVSCAT> ;
	bd:includesColumn <http://www.cdisc.org/DV/V1#DVEPOCH> ;
	bd:includesColumn <http://www.cdisc.org/DV/V1#DVDVSTDTC> ;
	bd:includesColumn <http://www.cdisc.org/DV/V1#DVDVENDTC> ;
	bd:prefix ""^^xsd:string ;
	bd:structure ""^^xsd:string ;
.
<http://www.cdisc.org/DV/V1#RS>
	rdf:type isoR:RegistrationState ;
	isoR:registrationStatus "Standard"^^xsd:string ;
	isoR:administrativeNote ""^^xsd:string ;
	isoR:effectiveDate "2016-01-01T00:00:00+00:00"^^xsd:dateTime ;
	isoR:untilDate "2016-01-01T00:00:00+00:00"^^xsd:dateTime ;
	isoR:unresolvedIssue ""^^xsd:string ;
	isoR:administrativeStatus ""^^xsd:string ;
	isoR:previousState "Standard"^^xsd:string ;
	isoR:multipleEdit "false"^^xsd:boolean ;
	isoR:byAuthority <http://www.assero.co.uk/RA#DUNS084433759> ;
.
<http://www.cdisc.org/DV/V1#SI>
	rdf:type isoI:ScopedIdentifier ;
	isoI:identifier "DV"^^xsd:string ;
	isoI:versionLabel "2008-11-12 Release"^^xsd:string ;
	isoI:version "1"^^xsd:positiveInteger ;
	isoI:semanticVersion "1.0.0"^^xsd:string ;
	isoI:hasScope <http://www.assero.co.uk/NS#CDISC> ;
.
<http://www.cdisc.org/DV/V1#DVSTUDYID>
	rdf:type bd:SdtmDomainVariable ;
	isoC:label "Study Identifier"^^xsd:string ;
	bd:rule ""^^xsd:string ;
	bd:ordinal "1"^^xsd:positiveInteger ;
	bd:name "STUDYID"^^xsd:string ;
	bd:description "Unique identifier for a study."^^xsd:string ;
	bd:format ""^^xsd:string ;
	bd:ctAndFormat ""^^xsd:string ;
	bd:compliance <http://www.assero.co.uk/CSN#8f112ba7-caa3-4f34-a9fc-8bc808b13955> ;
.
<http://www.cdisc.org/DV/V1#DVDOMAIN>
	rdf:type bd:SdtmDomainVariable ;
	isoC:label "Domain Abbreviation"^^xsd:string ;
	bd:rule ""^^xsd:string ;
	bd:ordinal "2"^^xsd:positiveInteger ;
	bd:name "DOMAIN"^^xsd:string ;
	bd:description "Two-character abbreviation for the domain."^^xsd:string ;
	bd:format ""^^xsd:string ;
	bd:ctAndFormat ""^^xsd:string ;
	bd:compliance <http://www.assero.co.uk/CSN#8f112ba7-caa3-4f34-a9fc-8bc808b13955> ;
.
<http://www.cdisc.org/DV/V1#DVUSUBJID>
	rdf:type bd:SdtmDomainVariable ;
	isoC:label "Unique Subject Identifier"^^xsd:string ;
	bd:rule ""^^xsd:string ;
	bd:ordinal "3"^^xsd:positiveInteger ;
	bd:name "USUBJID"^^xsd:string ;
	bd:description "Identifier used to uniquely identify a subject across all studies for all applications or submissions involving the product."^^xsd:string ;
	bd:format ""^^xsd:string ;
	bd:ctAndFormat ""^^xsd:string ;
	bd:compliance <http://www.assero.co.uk/CSN#8f112ba7-caa3-4f34-a9fc-8bc808b13955> ;
.
<http://www.cdisc.org/DV/V1#DVDVSEQ>
	rdf:type bd:SdtmDomainVariable ;
	isoC:label "Sequence Number"^^xsd:string ;
	bd:rule ""^^xsd:string ;
	bd:ordinal "4"^^xsd:positiveInteger ;
	bd:name "DVSEQ"^^xsd:string ;
	bd:description "Sequence Number given to ensure uniqueness of subject records within a domain. May be any valid number."^^xsd:string ;
	bd:format ""^^xsd:string ;
	bd:ctAndFormat ""^^xsd:string ;
	bd:compliance <http://www.assero.co.uk/CSN#8f112ba7-caa3-4f34-a9fc-8bc808b13955> ;
.
<http://www.cdisc.org/DV/V1#DVDVREFID>
	rdf:type bd:SdtmDomainVariable ;
	isoC:label "Reference ID"^^xsd:string ;
	bd:rule ""^^xsd:string ;
	bd:ordinal "5"^^xsd:positiveInteger ;
	bd:name "DVREFID"^^xsd:string ;
	bd:description "Internal or external identifier."^^xsd:string ;
	bd:format ""^^xsd:string ;
	bd:ctAndFormat ""^^xsd:string ;
	bd:compliance <http://www.assero.co.uk/CSN#da9f1092-7a20-4c97-9144-8bac2e72d1ea> ;
.
<http://www.cdisc.org/DV/V1#DVDVSPID>
	rdf:type bd:SdtmDomainVariable ;
	isoC:label "Sponsor-Defined Identifier"^^xsd:string ;
	bd:rule ""^^xsd:string ;
	bd:ordinal "6"^^xsd:positiveInteger ;
	bd:name "DVSPID"^^xsd:string ;
	bd:description "Sponsor-defined reference number. Perhaps pre-printed on the CRF as an explicit line identifier or defined in the sponsor's operational database. Example: Line number on a CRF page."^^xsd:string ;
	bd:format ""^^xsd:string ;
	bd:ctAndFormat ""^^xsd:string ;
	bd:compliance <http://www.assero.co.uk/CSN#da9f1092-7a20-4c97-9144-8bac2e72d1ea> ;
.
<http://www.cdisc.org/DV/V1#DVDVTERM>
	rdf:type bd:SdtmDomainVariable ;
	isoC:label "Protocol Deviation Term"^^xsd:string ;
	bd:rule ""^^xsd:string ;
	bd:ordinal "7"^^xsd:positiveInteger ;
	bd:name "DVTERM"^^xsd:string ;
	bd:description "Verbatim name of the protocol deviation criterion. Example: IVRS PROCESS DEVIATION - NO DOSE CALL PERFORMED. The DVTERM values will map to the controlled terminology in DVDECOD, such as TREATMENT DEVIATION."^^xsd:string ;
	bd:format ""^^xsd:string ;
	bd:ctAndFormat ""^^xsd:string ;
	bd:compliance <http://www.assero.co.uk/CSN#8f112ba7-caa3-4f34-a9fc-8bc808b13955> ;
.
<http://www.cdisc.org/DV/V1#DVDVDECOD>
	rdf:type bd:SdtmDomainVariable ;
	isoC:label "Protocol Deviation Coded Term"^^xsd:string ;
	bd:rule ""^^xsd:string ;
	bd:ordinal "8"^^xsd:positiveInteger ;
	bd:name "DVDECOD"^^xsd:string ;
	bd:description "Controlled terminology for the name of the protocol deviation. Examples: SUBJECT NOT WITHDRAWN AS PER PROTOCOL, SELECTION CRITERIA NOT MET, EXCLUDED CONCOMITANT MEDICATION, TREATMENT DEVIATION."^^xsd:string ;
	bd:format ""^^xsd:string ;
	bd:ctAndFormat ""^^xsd:string ;
	bd:compliance <http://www.assero.co.uk/CSN#da9f1092-7a20-4c97-9144-8bac2e72d1ea> ;
.
<http://www.cdisc.org/DV/V1#DVDVCAT>
	rdf:type bd:SdtmDomainVariable ;
	isoC:label "Category for Protocol Deviation"^^xsd:string ;
	bd:rule ""^^xsd:string ;
	bd:ordinal "9"^^xsd:positiveInteger ;
	bd:name "DVCAT"^^xsd:string ;
	bd:description "Category of the protocol deviation criterion."^^xsd:string ;
	bd:format ""^^xsd:string ;
	bd:ctAndFormat ""^^xsd:string ;
	bd:compliance <http://www.assero.co.uk/CSN#da9f1092-7a20-4c97-9144-8bac2e72d1ea> ;
.
<http://www.cdisc.org/DV/V1#DVDVSCAT>
	rdf:type bd:SdtmDomainVariable ;
	isoC:label "Subcategory for Protocol Deviation"^^xsd:string ;
	bd:rule ""^^xsd:string ;
	bd:ordinal "10"^^xsd:positiveInteger ;
	bd:name "DVSCAT"^^xsd:string ;
	bd:description "A further categorization of the protocol deviation."^^xsd:string ;
	bd:format ""^^xsd:string ;
	bd:ctAndFormat ""^^xsd:string ;
	bd:compliance <http://www.assero.co.uk/CSN#da9f1092-7a20-4c97-9144-8bac2e72d1ea> ;
.
<http://www.cdisc.org/DV/V1#DVEPOCH>
	rdf:type bd:SdtmDomainVariable ;
	isoC:label "Epoch"^^xsd:string ;
	bd:rule ""^^xsd:string ;
	bd:ordinal "11"^^xsd:positiveInteger ;
	bd:name "EPOCH"^^xsd:string ;
	bd:description "Epoch associated with the Element in the planned sequence of Elements for the ARM to which the subject was assigned"^^xsd:string ;
	bd:format ""^^xsd:string ;
	bd:ctAndFormat ""^^xsd:string ;
	bd:compliance <http://www.assero.co.uk/CSN#da9f1092-7a20-4c97-9144-8bac2e72d1ea> ;
.
<http://www.cdisc.org/DV/V1#DVDVSTDTC>
	rdf:type bd:SdtmDomainVariable ;
	isoC:label "Start Date/Time of Deviation"^^xsd:string ;
	bd:rule ""^^xsd:string ;
	bd:ordinal "12"^^xsd:positiveInteger ;
	bd:name "DVSTDTC"^^xsd:string ;
	bd:description "Start date/time of deviation represented in ISO 8601 character format."^^xsd:string ;
	bd:format ""^^xsd:string ;
	bd:ctAndFormat ""^^xsd:string ;
	bd:compliance <http://www.assero.co.uk/CSN#da9f1092-7a20-4c97-9144-8bac2e72d1ea> ;
.
<http://www.cdisc.org/DV/V1#DVDVENDTC>
	rdf:type bd:SdtmDomainVariable ;
	isoC:label "End Date/Time of Deviation"^^xsd:string ;
	bd:rule ""^^xsd:string ;
	bd:ordinal "13"^^xsd:positiveInteger ;
	bd:name "DVENDTC"^^xsd:string ;
	bd:description "End date/time of deviation represented in ISO 8601 character format."^^xsd:string ;
	bd:format ""^^xsd:string ;
	bd:ctAndFormat ""^^xsd:string ;
	bd:compliance <http://www.assero.co.uk/CSN#da9f1092-7a20-4c97-9144-8bac2e72d1ea> ;
.
<http://www.cdisc.org/CE/V1>
	rdf:type bd:SdtmDomain ;
	isoC:label "Clinical Events"^^xsd:string ;
	isoT:hasState <http://www.cdisc.org/CE/V1#RS> ;
	isoT:hasIdentifier <http://www.cdisc.org/CE/V1#SI> ;
	isoT:origin ""^^xsd:string ;
	isoT:changeDescription ""^^xsd:string ;
	isoT:creationDate "2008-11-12T00:00:00+00:00"^^xsd:dateTime ;
	isoT:lastChangeDate "2008-11-12T00:00:00+00:00"^^xsd:dateTime ;
	isoT:explanatoryComment ""^^xsd:string ;
	bd:rule ""^^xsd:string ;
	bd:ordinal "1"^^xsd:positiveInteger ;
	bd:includesColumn <http://www.cdisc.org/CE/V1#DVSTUDYID> ;
	bd:includesColumn <http://www.cdisc.org/CE/V1#DVDOMAIN> ;
	bd:includesColumn <http://www.cdisc.org/CE/V1#DVUSUBJID> ;
	bd:includesColumn <http://www.cdisc.org/CE/V1#DVCESEQ> ;
	bd:includesColumn <http://www.cdisc.org/CE/V1#DVCEGRPID> ;
	bd:includesColumn <http://www.cdisc.org/CE/V1#DVCEREFID> ;
	bd:includesColumn <http://www.cdisc.org/CE/V1#DVCESPID> ;
	bd:includesColumn <http://www.cdisc.org/CE/V1#DVCETERM> ;
	bd:includesColumn <http://www.cdisc.org/CE/V1#DVCEDECOD> ;
	bd:includesColumn <http://www.cdisc.org/CE/V1#DVCECAT> ;
	bd:includesColumn <http://www.cdisc.org/CE/V1#DVCESCAT> ;
	bd:includesColumn <http://www.cdisc.org/CE/V1#DVCEPRESP> ;
	bd:includesColumn <http://www.cdisc.org/CE/V1#DVCEOCCUR> ;
	bd:includesColumn <http://www.cdisc.org/CE/V1#DVCESTAT> ;
	bd:includesColumn <http://www.cdisc.org/CE/V1#DVCEREASND> ;
	bd:includesColumn <http://www.cdisc.org/CE/V1#DVCEBODSYS> ;
	bd:includesColumn <http://www.cdisc.org/CE/V1#DVCESEV> ;
	bd:includesColumn <http://www.cdisc.org/CE/V1#DVCEDTC> ;
	bd:includesColumn <http://www.cdisc.org/CE/V1#DVCESTDTC> ;
	bd:includesColumn <http://www.cdisc.org/CE/V1#DVCEENDTC> ;
	bd:includesColumn <http://www.cdisc.org/CE/V1#DVCEDY> ;
	bd:includesColumn <http://www.cdisc.org/CE/V1#DVCESTRF> ;
	bd:includesColumn <http://www.cdisc.org/CE/V1#DVCEENRF> ;
	bd:includesColumn <http://www.cdisc.org/CE/V1#DVCESTRTPT> ;
	bd:includesColumn <http://www.cdisc.org/CE/V1#DVCESTTPT> ;
	bd:includesColumn <http://www.cdisc.org/CE/V1#DVCEENRTPT> ;
	bd:includesColumn <http://www.cdisc.org/CE/V1#DVCEENTPT> ;
	bd:prefix ""^^xsd:string ;
	bd:structure ""^^xsd:string ;
.
<http://www.cdisc.org/CE/V1#RS>
	rdf:type isoR:RegistrationState ;
	isoR:registrationStatus "Standard"^^xsd:string ;
	isoR:administrativeNote ""^^xsd:string ;
	isoR:effectiveDate "2016-01-01T00:00:00+00:00"^^xsd:dateTime ;
	isoR:untilDate "2016-01-01T00:00:00+00:00"^^xsd:dateTime ;
	isoR:unresolvedIssue ""^^xsd:string ;
	isoR:administrativeStatus ""^^xsd:string ;
	isoR:previousState "Standard"^^xsd:string ;
	isoR:multipleEdit "false"^^xsd:boolean ;
	isoR:byAuthority <http://www.assero.co.uk/RA#DUNS084433759> ;
.
<http://www.cdisc.org/CE/V1#SI>
	rdf:type isoI:ScopedIdentifier ;
	isoI:identifier "CE"^^xsd:string ;
	isoI:versionLabel "2008-11-12 Release"^^xsd:string ;
	isoI:version "1"^^xsd:positiveInteger ;
	isoI:semanticVersion "1.0.0"^^xsd:string ;
	isoI:hasScope <http://www.assero.co.uk/NS#CDISC> ;
.
<http://www.cdisc.org/CE/V1#DVSTUDYID>
	rdf:type bd:SdtmDomainVariable ;
	isoC:label "Study Identifier"^^xsd:string ;
	bd:rule ""^^xsd:string ;
	bd:ordinal "1"^^xsd:positiveInteger ;
	bd:name "STUDYID"^^xsd:string ;
	bd:description "Unique identifier for a study."^^xsd:string ;
	bd:format ""^^xsd:string ;
	bd:ctAndFormat ""^^xsd:string ;
	bd:compliance <http://www.assero.co.uk/CSN#8f112ba7-caa3-4f34-a9fc-8bc808b13955> ;
.
<http://www.cdisc.org/CE/V1#DVDOMAIN>
	rdf:type bd:SdtmDomainVariable ;
	isoC:label "Domain Abbreviation"^^xsd:string ;
	bd:rule ""^^xsd:string ;
	bd:ordinal "2"^^xsd:positiveInteger ;
	bd:name "DOMAIN"^^xsd:string ;
	bd:description "Two-character abbreviation for the domain."^^xsd:string ;
	bd:format ""^^xsd:string ;
	bd:ctAndFormat ""^^xsd:string ;
	bd:compliance <http://www.assero.co.uk/CSN#8f112ba7-caa3-4f34-a9fc-8bc808b13955> ;
.
<http://www.cdisc.org/CE/V1#DVUSUBJID>
	rdf:type bd:SdtmDomainVariable ;
	isoC:label "Unique Subject Identifier"^^xsd:string ;
	bd:rule ""^^xsd:string ;
	bd:ordinal "3"^^xsd:positiveInteger ;
	bd:name "USUBJID"^^xsd:string ;
	bd:description "Identifier used to uniquely identify a subject across all studies for all applications or submissions involving the product."^^xsd:string ;
	bd:format ""^^xsd:string ;
	bd:ctAndFormat ""^^xsd:string ;
	bd:compliance <http://www.assero.co.uk/CSN#8f112ba7-caa3-4f34-a9fc-8bc808b13955> ;
.
<http://www.cdisc.org/CE/V1#DVCESEQ>
	rdf:type bd:SdtmDomainVariable ;
	isoC:label "Sequence Number"^^xsd:string ;
	bd:rule ""^^xsd:string ;
	bd:ordinal "4"^^xsd:positiveInteger ;
	bd:name "CESEQ"^^xsd:string ;
	bd:description "Sequence Number given to ensure uniqueness of subject records within a domain. May be any valid number."^^xsd:string ;
	bd:format ""^^xsd:string ;
	bd:ctAndFormat ""^^xsd:string ;
	bd:compliance <http://www.assero.co.uk/CSN#8f112ba7-caa3-4f34-a9fc-8bc808b13955> ;
.
<http://www.cdisc.org/CE/V1#DVCEGRPID>
	rdf:type bd:SdtmDomainVariable ;
	isoC:label "Group ID"^^xsd:string ;
	bd:rule ""^^xsd:string ;
	bd:ordinal "5"^^xsd:positiveInteger ;
	bd:name "CEGRPID"^^xsd:string ;
	bd:description "Used to tie together a block of related records for a subject within a domain."^^xsd:string ;
	bd:format ""^^xsd:string ;
	bd:ctAndFormat ""^^xsd:string ;
	bd:compliance <http://www.assero.co.uk/CSN#da9f1092-7a20-4c97-9144-8bac2e72d1ea> ;
.
<http://www.cdisc.org/CE/V1#DVCEREFID>
	rdf:type bd:SdtmDomainVariable ;
	isoC:label "Reference ID"^^xsd:string ;
	bd:rule ""^^xsd:string ;
	bd:ordinal "6"^^xsd:positiveInteger ;
	bd:name "CEREFID"^^xsd:string ;
	bd:description "Internal or external identifier."^^xsd:string ;
	bd:format ""^^xsd:string ;
	bd:ctAndFormat ""^^xsd:string ;
	bd:compliance <http://www.assero.co.uk/CSN#da9f1092-7a20-4c97-9144-8bac2e72d1ea> ;
.
<http://www.cdisc.org/CE/V1#DVCESPID>
	rdf:type bd:SdtmDomainVariable ;
	isoC:label "Sponsor-Defined Identifier"^^xsd:string ;
	bd:rule ""^^xsd:string ;
	bd:ordinal "7"^^xsd:positiveInteger ;
	bd:name "CESPID"^^xsd:string ;
	bd:description "Sponsor-defined reference number. Perhaps pre-printed on the CRF as an explicit line identifier or defined in the sponsor's operational database. Example: Line number on a CRF page."^^xsd:string ;
	bd:format ""^^xsd:string ;
	bd:ctAndFormat ""^^xsd:string ;
	bd:compliance <http://www.assero.co.uk/CSN#da9f1092-7a20-4c97-9144-8bac2e72d1ea> ;
.
<http://www.cdisc.org/CE/V1#DVCETERM>
	rdf:type bd:SdtmDomainVariable ;
	isoC:label "Reported Term for the Clinical Event"^^xsd:string ;
	bd:rule ""^^xsd:string ;
	bd:ordinal "8"^^xsd:positiveInteger ;
	bd:name "CETERM"^^xsd:string ;
	bd:description "Term for the medical condition or event. Most likely pre-printed on CRF."^^xsd:string ;
	bd:format ""^^xsd:string ;
	bd:ctAndFormat ""^^xsd:string ;
	bd:compliance <http://www.assero.co.uk/CSN#8f112ba7-caa3-4f34-a9fc-8bc808b13955> ;
.
<http://www.cdisc.org/CE/V1#DVCEDECOD>
	rdf:type bd:SdtmDomainVariable ;
	isoC:label "Dictionary-Derived Term"^^xsd:string ;
	bd:rule ""^^xsd:string ;
	bd:ordinal "9"^^xsd:positiveInteger ;
	bd:name "CEDECOD"^^xsd:string ;
	bd:description "Controlled terminology for the name of the clinical event. The sponsor is expected to provide the dictionary name and version used to map the terms utilizing the define.xml external codelist attributes"^^xsd:string ;
	bd:format ""^^xsd:string ;
	bd:ctAndFormat ""^^xsd:string ;
	bd:compliance <http://www.assero.co.uk/CSN#da9f1092-7a20-4c97-9144-8bac2e72d1ea> ;
.
<http://www.cdisc.org/CE/V1#DVCECAT>
	rdf:type bd:SdtmDomainVariable ;
	isoC:label "Category for Clinical Event"^^xsd:string ;
	bd:rule ""^^xsd:string ;
	bd:ordinal "10"^^xsd:positiveInteger ;
	bd:name "CECAT"^^xsd:string ;
	bd:description "Used to define a category of related records."^^xsd:string ;
	bd:format ""^^xsd:string ;
	bd:ctAndFormat ""^^xsd:string ;
	bd:compliance <http://www.assero.co.uk/CSN#da9f1092-7a20-4c97-9144-8bac2e72d1ea> ;
.
<http://www.cdisc.org/CE/V1#DVCESCAT>
	rdf:type bd:SdtmDomainVariable ;
	isoC:label "Subcategory for Clinical Event"^^xsd:string ;
	bd:rule ""^^xsd:string ;
	bd:ordinal "11"^^xsd:positiveInteger ;
	bd:name "CESCAT"^^xsd:string ;
	bd:description "A further categorization of the condition or event."^^xsd:string ;
	bd:format ""^^xsd:string ;
	bd:ctAndFormat ""^^xsd:string ;
	bd:compliance <http://www.assero.co.uk/CSN#da9f1092-7a20-4c97-9144-8bac2e72d1ea> ;
.
<http://www.cdisc.org/CE/V1#DVCEPRESP>
	rdf:type bd:SdtmDomainVariable ;
	isoC:label "Clinical Event Pre-Specified"^^xsd:string ;
	bd:rule ""^^xsd:string ;
	bd:ordinal "12"^^xsd:positiveInteger ;
	bd:name "CEPRESP"^^xsd:string ;
	bd:description "Used to indicate whether the Event in CETERM was pre-specified. Value is Y for pre-specified events, null for spontaneously reported events."^^xsd:string ;
	bd:format ""^^xsd:string ;
	bd:ctAndFormat ""^^xsd:string ;
	bd:compliance <http://www.assero.co.uk/CSN#da9f1092-7a20-4c97-9144-8bac2e72d1ea> ;
.
<http://www.cdisc.org/CE/V1#DVCEOCCUR>
	rdf:type bd:SdtmDomainVariable ;
	isoC:label "Clinical Event Occurrence"^^xsd:string ;
	bd:rule ""^^xsd:string ;
	bd:ordinal "13"^^xsd:positiveInteger ;
	bd:name "CEOCCUR"^^xsd:string ;
	bd:description "Used when the occurrence of specific events is solicited to indicate whether or not a clinical event occurred. Values are null for spontaneously reported events."^^xsd:string ;
	bd:format ""^^xsd:string ;
	bd:ctAndFormat ""^^xsd:string ;
	bd:compliance <http://www.assero.co.uk/CSN#da9f1092-7a20-4c97-9144-8bac2e72d1ea> ;
.
<http://www.cdisc.org/CE/V1#DVCESTAT>
	rdf:type bd:SdtmDomainVariable ;
	isoC:label "Completion Status"^^xsd:string ;
	bd:rule ""^^xsd:string ;
	bd:ordinal "14"^^xsd:positiveInteger ;
	bd:name "CESTAT"^^xsd:string ;
	bd:description "The status indicates that a question from a pre-specified list was not answered."^^xsd:string ;
	bd:format ""^^xsd:string ;
	bd:ctAndFormat ""^^xsd:string ;
	bd:compliance <http://www.assero.co.uk/CSN#da9f1092-7a20-4c97-9144-8bac2e72d1ea> ;
.
<http://www.cdisc.org/CE/V1#DVCEREASND>
	rdf:type bd:SdtmDomainVariable ;
	isoC:label "Reason Clinical Event Not Collected"^^xsd:string ;
	bd:rule ""^^xsd:string ;
	bd:ordinal "15"^^xsd:positiveInteger ;
	bd:name "CEREASND"^^xsd:string ;
	bd:description "Describes the reason clinical event data was not collected. Used in conjunction with CESTAT when value is NOT DONE."^^xsd:string ;
	bd:format ""^^xsd:string ;
	bd:ctAndFormat ""^^xsd:string ;
	bd:compliance <http://www.assero.co.uk/CSN#da9f1092-7a20-4c97-9144-8bac2e72d1ea> ;
.
<http://www.cdisc.org/CE/V1#DVCEBODSYS>
	rdf:type bd:SdtmDomainVariable ;
	isoC:label "Body System or Organ Class"^^xsd:string ;
	bd:rule ""^^xsd:string ;
	bd:ordinal "16"^^xsd:positiveInteger ;
	bd:name "CEBODSYS"^^xsd:string ;
	bd:description "Dictionary-derived. Body system or organ class that is involved in an event or measurement from a standard hierarchy (e.g., MedDRA). When using a multi-axial dictionary such as MedDRA, this should contain the SOC used for the sponsor's analyses and summary tables which may not necessarily be the primary SOC."^^xsd:string ;
	bd:format ""^^xsd:string ;
	bd:ctAndFormat ""^^xsd:string ;
	bd:compliance <http://www.assero.co.uk/CSN#da9f1092-7a20-4c97-9144-8bac2e72d1ea> ;
.
<http://www.cdisc.org/CE/V1#DVCESEV>
	rdf:type bd:SdtmDomainVariable ;
	isoC:label "Severity/Intensity"^^xsd:string ;
	bd:rule ""^^xsd:string ;
	bd:ordinal "17"^^xsd:positiveInteger ;
	bd:name "CESEV"^^xsd:string ;
	bd:description "The severity or intensity of the event. Examples: MILD, MODERATE, SEVERE"^^xsd:string ;
	bd:format ""^^xsd:string ;
	bd:ctAndFormat ""^^xsd:string ;
	bd:compliance <http://www.assero.co.uk/CSN#da9f1092-7a20-4c97-9144-8bac2e72d1ea> ;
.
<http://www.cdisc.org/CE/V1#DVCEDTC>
	rdf:type bd:SdtmDomainVariable ;
	isoC:label "Date/Time of Event Collection"^^xsd:string ;
	bd:rule ""^^xsd:string ;
	bd:ordinal "18"^^xsd:positiveInteger ;
	bd:name "CEDTC"^^xsd:string ;
	bd:description ""^^xsd:string ;
	bd:format ""^^xsd:string ;
	bd:ctAndFormat ""^^xsd:string ;
	bd:compliance <http://www.assero.co.uk/CSN#da9f1092-7a20-4c97-9144-8bac2e72d1ea> ;
.
<http://www.cdisc.org/CE/V1#DVCESTDTC>
	rdf:type bd:SdtmDomainVariable ;
	isoC:label "Start Date/Time of Clinical Event"^^xsd:string ;
	bd:rule ""^^xsd:string ;
	bd:ordinal "19"^^xsd:positiveInteger ;
	bd:name "CESTDTC"^^xsd:string ;
	bd:description ""^^xsd:string ;
	bd:format ""^^xsd:string ;
	bd:ctAndFormat ""^^xsd:string ;
	bd:compliance <http://www.assero.co.uk/CSN#da9f1092-7a20-4c97-9144-8bac2e72d1ea> ;
.
<http://www.cdisc.org/CE/V1#DVCEENDTC>
	rdf:type bd:SdtmDomainVariable ;
	isoC:label "End Date/Time of Clinical Event"^^xsd:string ;
	bd:rule ""^^xsd:string ;
	bd:ordinal "20"^^xsd:positiveInteger ;
	bd:name "CEENDTC"^^xsd:string ;
	bd:description ""^^xsd:string ;
	bd:format ""^^xsd:string ;
	bd:ctAndFormat ""^^xsd:string ;
	bd:compliance <http://www.assero.co.uk/CSN#da9f1092-7a20-4c97-9144-8bac2e72d1ea> ;
.
<http://www.cdisc.org/CE/V1#DVCEDY>
	rdf:type bd:SdtmDomainVariable ;
	isoC:label "Study Day of Event Collection"^^xsd:string ;
	bd:rule ""^^xsd:string ;
	bd:ordinal "21"^^xsd:positiveInteger ;
	bd:name "CEDY"^^xsd:string ;
	bd:description "1. Study day of clinical event collection, measured as integer days. 2. Algorithm for calculations must be relative to the sponsor-defined RFSTDTC variable in Demographics. This formula should be consistent across the submission."^^xsd:string ;
	bd:format ""^^xsd:string ;
	bd:ctAndFormat ""^^xsd:string ;
	bd:compliance <http://www.assero.co.uk/CSN#da9f1092-7a20-4c97-9144-8bac2e72d1ea> ;
.
<http://www.cdisc.org/CE/V1#DVCESTRF>
	rdf:type bd:SdtmDomainVariable ;
	isoC:label "Start Relative to Reference Period"^^xsd:string ;
	bd:rule ""^^xsd:string ;
	bd:ordinal "22"^^xsd:positiveInteger ;
	bd:name "CESTRF"^^xsd:string ;
	bd:description "Describes the start of the clinical event relative to the sponsor-defined reference period. The sponsor-defined reference period is a continuous period of time defined by a discrete starting point and a discrete ending point (represented by RFSTDTC and RFENDTC in Demographics)."^^xsd:string ;
	bd:format ""^^xsd:string ;
	bd:ctAndFormat ""^^xsd:string ;
	bd:compliance <http://www.assero.co.uk/CSN#da9f1092-7a20-4c97-9144-8bac2e72d1ea> ;
.
<http://www.cdisc.org/CE/V1#DVCEENRF>
	rdf:type bd:SdtmDomainVariable ;
	isoC:label "End Relative to Reference Period"^^xsd:string ;
	bd:rule ""^^xsd:string ;
	bd:ordinal "23"^^xsd:positiveInteger ;
	bd:name "CEENRF"^^xsd:string ;
	bd:description "Describes the end of the event relative to the sponsor-defined reference period. The sponsor-defined reference period is a continuous period of time defined by a discrete starting point and a discrete ending point (represented by RFSTDTC and RFENDTC in Demographics)."^^xsd:string ;
	bd:format ""^^xsd:string ;
	bd:ctAndFormat ""^^xsd:string ;
	bd:compliance <http://www.assero.co.uk/CSN#da9f1092-7a20-4c97-9144-8bac2e72d1ea> ;
.
<http://www.cdisc.org/CE/V1#DVCESTRTPT>
	rdf:type bd:SdtmDomainVariable ;
	isoC:label "Start Relative to Reference Time Point"^^xsd:string ;
	bd:rule ""^^xsd:string ;
	bd:ordinal "24"^^xsd:positiveInteger ;
	bd:name "CESTRTPT"^^xsd:string ;
	bd:description "Identifies the start of the observation as being before or after the reference time point defined by variable CESTTPT."^^xsd:string ;
	bd:format ""^^xsd:string ;
	bd:ctAndFormat ""^^xsd:string ;
	bd:compliance <http://www.assero.co.uk/CSN#da9f1092-7a20-4c97-9144-8bac2e72d1ea> ;
.
<http://www.cdisc.org/CE/V1#DVCESTTPT>
	rdf:type bd:SdtmDomainVariable ;
	isoC:label "Start Reference Time Point"^^xsd:string ;
	bd:rule ""^^xsd:string ;
	bd:ordinal "25"^^xsd:positiveInteger ;
	bd:name "CESTTPT"^^xsd:string ;
	bd:description "Description or date/time in ISO 8601 character format of the sponsor-defined reference point referred to by --STRTPT. Examples: '2003-12-15' or 'VISIT 1'."^^xsd:string ;
	bd:format ""^^xsd:string ;
	bd:ctAndFormat ""^^xsd:string ;
	bd:compliance <http://www.assero.co.uk/CSN#da9f1092-7a20-4c97-9144-8bac2e72d1ea> ;
.
<http://www.cdisc.org/CE/V1#DVCEENRTPT>
	rdf:type bd:SdtmDomainVariable ;
	isoC:label "End Relative to Reference Time Point"^^xsd:string ;
	bd:rule ""^^xsd:string ;
	bd:ordinal "26"^^xsd:positiveInteger ;
	bd:name "CEENRTPT"^^xsd:string ;
	bd:description "Identifies the end of the event as being before or after the reference time point defined by variable CEENTPT."^^xsd:string ;
	bd:format ""^^xsd:string ;
	bd:ctAndFormat ""^^xsd:string ;
	bd:compliance <http://www.assero.co.uk/CSN#da9f1092-7a20-4c97-9144-8bac2e72d1ea> ;
.
<http://www.cdisc.org/CE/V1#DVCEENTPT>
	rdf:type bd:SdtmDomainVariable ;
	isoC:label "End Reference Time Point"^^xsd:string ;
	bd:rule ""^^xsd:string ;
	bd:ordinal "27"^^xsd:positiveInteger ;
	bd:name "CEENTPT"^^xsd:string ;
	bd:description "Description or date/time in ISO 8601 character format of the reference point referred to by CEENRTPT. Examples: '2003-12-25' or 'VISIT 2'."^^xsd:string ;
	bd:format ""^^xsd:string ;
	bd:ctAndFormat ""^^xsd:string ;
	bd:compliance <http://www.assero.co.uk/CSN#da9f1092-7a20-4c97-9144-8bac2e72d1ea> ;
.
<http://www.cdisc.org/EG/V1>
	rdf:type bd:SdtmDomain ;
	isoC:label "ECG Test Results"^^xsd:string ;
	isoT:hasState <http://www.cdisc.org/EG/V1#RS> ;
	isoT:hasIdentifier <http://www.cdisc.org/EG/V1#SI> ;
	isoT:origin ""^^xsd:string ;
	isoT:changeDescription ""^^xsd:string ;
	isoT:creationDate "2008-11-12T00:00:00+00:00"^^xsd:dateTime ;
	isoT:lastChangeDate "2008-11-12T00:00:00+00:00"^^xsd:dateTime ;
	isoT:explanatoryComment ""^^xsd:string ;
	bd:rule ""^^xsd:string ;
	bd:ordinal "1"^^xsd:positiveInteger ;
	bd:includesColumn <http://www.cdisc.org/EG/V1#DVSTUDYID> ;
	bd:includesColumn <http://www.cdisc.org/EG/V1#DVDOMAIN> ;
	bd:includesColumn <http://www.cdisc.org/EG/V1#DVUSUBJID> ;
	bd:includesColumn <http://www.cdisc.org/EG/V1#DVEGSEQ> ;
	bd:includesColumn <http://www.cdisc.org/EG/V1#DVEGGRPID> ;
	bd:includesColumn <http://www.cdisc.org/EG/V1#DVEGREFID> ;
	bd:includesColumn <http://www.cdisc.org/EG/V1#DVEGSPID> ;
	bd:includesColumn <http://www.cdisc.org/EG/V1#DVEGTESTCD> ;
	bd:includesColumn <http://www.cdisc.org/EG/V1#DVEGTEST> ;
	bd:includesColumn <http://www.cdisc.org/EG/V1#DVEGCAT> ;
	bd:includesColumn <http://www.cdisc.org/EG/V1#DVEGSCAT> ;
	bd:includesColumn <http://www.cdisc.org/EG/V1#DVEGPOS> ;
	bd:includesColumn <http://www.cdisc.org/EG/V1#DVEGORRES> ;
	bd:includesColumn <http://www.cdisc.org/EG/V1#DVEGORRESU> ;
	bd:includesColumn <http://www.cdisc.org/EG/V1#DVEGSTRESC> ;
	bd:includesColumn <http://www.cdisc.org/EG/V1#DVEGSTRESN> ;
	bd:includesColumn <http://www.cdisc.org/EG/V1#DVEGSTRESU> ;
	bd:includesColumn <http://www.cdisc.org/EG/V1#DVEGSTAT> ;
	bd:includesColumn <http://www.cdisc.org/EG/V1#DVEGREASND> ;
	bd:includesColumn <http://www.cdisc.org/EG/V1#DVEGXFN> ;
	bd:includesColumn <http://www.cdisc.org/EG/V1#DVEGNAM> ;
	bd:includesColumn <http://www.cdisc.org/EG/V1#DVEGLOC> ;
	bd:includesColumn <http://www.cdisc.org/EG/V1#DVEGMETHOD> ;
	bd:includesColumn <http://www.cdisc.org/EG/V1#DVEGBLFL> ;
	bd:includesColumn <http://www.cdisc.org/EG/V1#DVEGDRVFL> ;
	bd:includesColumn <http://www.cdisc.org/EG/V1#DVEGEVAL> ;
	bd:includesColumn <http://www.cdisc.org/EG/V1#DVVISITNUM> ;
	bd:includesColumn <http://www.cdisc.org/EG/V1#DVVISIT> ;
	bd:includesColumn <http://www.cdisc.org/EG/V1#DVVISITDY> ;
	bd:includesColumn <http://www.cdisc.org/EG/V1#DVEGDTC> ;
	bd:includesColumn <http://www.cdisc.org/EG/V1#DVEGDY> ;
	bd:includesColumn <http://www.cdisc.org/EG/V1#DVEGTPT> ;
	bd:includesColumn <http://www.cdisc.org/EG/V1#DVEGTPTNUM> ;
	bd:includesColumn <http://www.cdisc.org/EG/V1#DVEGELTM> ;
	bd:includesColumn <http://www.cdisc.org/EG/V1#DVEGTPTREF> ;
	bd:includesColumn <http://www.cdisc.org/EG/V1#DVEGRFTDTC> ;
	bd:prefix ""^^xsd:string ;
	bd:structure ""^^xsd:string ;
.
<http://www.cdisc.org/EG/V1#RS>
	rdf:type isoR:RegistrationState ;
	isoR:registrationStatus "Standard"^^xsd:string ;
	isoR:administrativeNote ""^^xsd:string ;
	isoR:effectiveDate "2016-01-01T00:00:00+00:00"^^xsd:dateTime ;
	isoR:untilDate "2016-01-01T00:00:00+00:00"^^xsd:dateTime ;
	isoR:unresolvedIssue ""^^xsd:string ;
	isoR:administrativeStatus ""^^xsd:string ;
	isoR:previousState "Standard"^^xsd:string ;
	isoR:multipleEdit "false"^^xsd:boolean ;
	isoR:byAuthority <http://www.assero.co.uk/RA#DUNS084433759> ;
.
<http://www.cdisc.org/EG/V1#SI>
	rdf:type isoI:ScopedIdentifier ;
	isoI:identifier "EG"^^xsd:string ;
	isoI:versionLabel "2008-11-12 Release"^^xsd:string ;
	isoI:version "1"^^xsd:positiveInteger ;
	isoI:semanticVersion "1.0.0"^^xsd:string ;
	isoI:hasScope <http://www.assero.co.uk/NS#CDISC> ;
.
<http://www.cdisc.org/EG/V1#DVSTUDYID>
	rdf:type bd:SdtmDomainVariable ;
	isoC:label "Study Identifier"^^xsd:string ;
	bd:rule ""^^xsd:string ;
	bd:ordinal "1"^^xsd:positiveInteger ;
	bd:name "STUDYID"^^xsd:string ;
	bd:description "Unique identifier for a study."^^xsd:string ;
	bd:format ""^^xsd:string ;
	bd:ctAndFormat ""^^xsd:string ;
	bd:compliance <http://www.assero.co.uk/CSN#8f112ba7-caa3-4f34-a9fc-8bc808b13955> ;
.
<http://www.cdisc.org/EG/V1#DVDOMAIN>
	rdf:type bd:SdtmDomainVariable ;
	isoC:label "Domain Abbreviation"^^xsd:string ;
	bd:rule ""^^xsd:string ;
	bd:ordinal "2"^^xsd:positiveInteger ;
	bd:name "DOMAIN"^^xsd:string ;
	bd:description "Two-character abbreviation for the domain."^^xsd:string ;
	bd:format ""^^xsd:string ;
	bd:ctAndFormat ""^^xsd:string ;
	bd:compliance <http://www.assero.co.uk/CSN#8f112ba7-caa3-4f34-a9fc-8bc808b13955> ;
.
<http://www.cdisc.org/EG/V1#DVUSUBJID>
	rdf:type bd:SdtmDomainVariable ;
	isoC:label "Unique Subject Identifier"^^xsd:string ;
	bd:rule ""^^xsd:string ;
	bd:ordinal "3"^^xsd:positiveInteger ;
	bd:name "USUBJID"^^xsd:string ;
	bd:description "Identifier used to uniquely identify a subject across all studies for all applications or submissions involving the product."^^xsd:string ;
	bd:format ""^^xsd:string ;
	bd:ctAndFormat ""^^xsd:string ;
	bd:compliance <http://www.assero.co.uk/CSN#8f112ba7-caa3-4f34-a9fc-8bc808b13955> ;
.
<http://www.cdisc.org/EG/V1#DVEGSEQ>
	rdf:type bd:SdtmDomainVariable ;
	isoC:label "Sequence Number"^^xsd:string ;
	bd:rule ""^^xsd:string ;
	bd:ordinal "4"^^xsd:positiveInteger ;
	bd:name "EGSEQ"^^xsd:string ;
	bd:description "Sequence Number given to ensure uniqueness of subject records within a domain. May be any valid number."^^xsd:string ;
	bd:format ""^^xsd:string ;
	bd:ctAndFormat ""^^xsd:string ;
	bd:compliance <http://www.assero.co.uk/CSN#8f112ba7-caa3-4f34-a9fc-8bc808b13955> ;
.
<http://www.cdisc.org/EG/V1#DVEGGRPID>
	rdf:type bd:SdtmDomainVariable ;
	isoC:label "Group ID"^^xsd:string ;
	bd:rule ""^^xsd:string ;
	bd:ordinal "5"^^xsd:positiveInteger ;
	bd:name "EGGRPID"^^xsd:string ;
	bd:description "Used to tie together a block of related records in a single domain for a subject."^^xsd:string ;
	bd:format ""^^xsd:string ;
	bd:ctAndFormat ""^^xsd:string ;
	bd:compliance <http://www.assero.co.uk/CSN#da9f1092-7a20-4c97-9144-8bac2e72d1ea> ;
.
<http://www.cdisc.org/EG/V1#DVEGREFID>
	rdf:type bd:SdtmDomainVariable ;
	isoC:label "ECG Reference ID"^^xsd:string ;
	bd:rule ""^^xsd:string ;
	bd:ordinal "6"^^xsd:positiveInteger ;
	bd:name "EGREFID"^^xsd:string ;
	bd:description "Internal or external ECG identifier. Example: UUID."^^xsd:string ;
	bd:format ""^^xsd:string ;
	bd:ctAndFormat ""^^xsd:string ;
	bd:compliance <http://www.assero.co.uk/CSN#da9f1092-7a20-4c97-9144-8bac2e72d1ea> ;
.
<http://www.cdisc.org/EG/V1#DVEGSPID>
	rdf:type bd:SdtmDomainVariable ;
	isoC:label "Sponsor-Defined Identifier"^^xsd:string ;
	bd:rule ""^^xsd:string ;
	bd:ordinal "7"^^xsd:positiveInteger ;
	bd:name "EGSPID"^^xsd:string ;
	bd:description "Sponsor-defined reference number. Perhaps pre-printed on the CRF as an explicit line identifier or defined in the sponsor's operational database. Example: Line number from the ECG page."^^xsd:string ;
	bd:format ""^^xsd:string ;
	bd:ctAndFormat ""^^xsd:string ;
	bd:compliance <http://www.assero.co.uk/CSN#da9f1092-7a20-4c97-9144-8bac2e72d1ea> ;
.
<http://www.cdisc.org/EG/V1#DVEGTESTCD>
	rdf:type bd:SdtmDomainVariable ;
	isoC:label "ECG Test or Examination Short Name"^^xsd:string ;
	bd:rule ""^^xsd:string ;
	bd:ordinal "8"^^xsd:positiveInteger ;
	bd:name "EGTESTCD"^^xsd:string ;
	bd:description "Short name of the measurement, test, or examination described in EGTEST. It can be used as a column name when converting a dataset from a vertical to a horizontal format. The value in EGTESTCD cannot be longer than 8 characters, nor can it start with a number (e.g., '1TEST'). EGTESTCD cannot contain characters other than letters, numbers, or underscores. Examples :PRMEAN, QTMEAN"^^xsd:string ;
	bd:format ""^^xsd:string ;
	bd:ctAndFormat ""^^xsd:string ;
	bd:compliance <http://www.assero.co.uk/CSN#8f112ba7-caa3-4f34-a9fc-8bc808b13955> ;
.
<http://www.cdisc.org/EG/V1#DVEGTEST>
	rdf:type bd:SdtmDomainVariable ;
	isoC:label "ECG Test or Examination Name"^^xsd:string ;
	bd:rule ""^^xsd:string ;
	bd:ordinal "9"^^xsd:positiveInteger ;
	bd:name "EGTEST"^^xsd:string ;
	bd:description "Verbatim name of the test or examination used to obtain the measurement or finding. The value in EGTEST cannot be longer than 40 characters. Examples: Summary (Mean) PR Duration, Summary (Mean) QT Duration"^^xsd:string ;
	bd:format ""^^xsd:string ;
	bd:ctAndFormat ""^^xsd:string ;
	bd:compliance <http://www.assero.co.uk/CSN#8f112ba7-caa3-4f34-a9fc-8bc808b13955> ;
.
<http://www.cdisc.org/EG/V1#DVEGCAT>
	rdf:type bd:SdtmDomainVariable ;
	isoC:label "Category for ECG"^^xsd:string ;
	bd:rule ""^^xsd:string ;
	bd:ordinal "10"^^xsd:positiveInteger ;
	bd:name "EGCAT"^^xsd:string ;
	bd:description "Used to categorize ECG observations across subjects. Examples: MEASUREMENT, FINDING, INTERVAL"^^xsd:string ;
	bd:format ""^^xsd:string ;
	bd:ctAndFormat ""^^xsd:string ;
	bd:compliance <http://www.assero.co.uk/CSN#da9f1092-7a20-4c97-9144-8bac2e72d1ea> ;
.
<http://www.cdisc.org/EG/V1#DVEGSCAT>
	rdf:type bd:SdtmDomainVariable ;
	isoC:label "Subcategory for ECG"^^xsd:string ;
	bd:rule ""^^xsd:string ;
	bd:ordinal "11"^^xsd:positiveInteger ;
	bd:name "EGSCAT"^^xsd:string ;
	bd:description "A further categorization of the ECG."^^xsd:string ;
	bd:format ""^^xsd:string ;
	bd:ctAndFormat ""^^xsd:string ;
	bd:compliance <http://www.assero.co.uk/CSN#da9f1092-7a20-4c97-9144-8bac2e72d1ea> ;
.
<http://www.cdisc.org/EG/V1#DVEGPOS>
	rdf:type bd:SdtmDomainVariable ;
	isoC:label "ECG Position of Subject"^^xsd:string ;
	bd:rule ""^^xsd:string ;
	bd:ordinal "12"^^xsd:positiveInteger ;
	bd:name "EGPOS"^^xsd:string ;
	bd:description "Position of the subject during a measurement or examination. Examples: SUPINE, STANDING, SITTING."^^xsd:string ;
	bd:format ""^^xsd:string ;
	bd:ctAndFormat ""^^xsd:string ;
	bd:compliance <http://www.assero.co.uk/CSN#da9f1092-7a20-4c97-9144-8bac2e72d1ea> ;
.
<http://www.cdisc.org/EG/V1#DVEGORRES>
	rdf:type bd:SdtmDomainVariable ;
	isoC:label "Result or Finding in Original Units"^^xsd:string ;
	bd:rule ""^^xsd:string ;
	bd:ordinal "13"^^xsd:positiveInteger ;
	bd:name "EGORRES"^^xsd:string ;
	bd:description "Result of the ECG measurement or finding as originally received or collected. Examples of expected values are 62 or 0.151 when the result is an interval or measurement, or 'ATRIAL FIBRILLATION' or 'QT PROLONGATION' when the result is a finding."^^xsd:string ;
	bd:format ""^^xsd:string ;
	bd:ctAndFormat ""^^xsd:string ;
	bd:compliance <http://www.assero.co.uk/CSN#fc544083-2437-4ec0-97f4-767598bee682> ;
.
<http://www.cdisc.org/EG/V1#DVEGORRESU>
	rdf:type bd:SdtmDomainVariable ;
	isoC:label "Original Units"^^xsd:string ;
	bd:rule ""^^xsd:string ;
	bd:ordinal "14"^^xsd:positiveInteger ;
	bd:name "EGORRESU"^^xsd:string ;
	bd:description "Original units in which the data were collected. The unit for EGORRES. Examples: sec or msec."^^xsd:string ;
	bd:format ""^^xsd:string ;
	bd:ctAndFormat ""^^xsd:string ;
	bd:compliance <http://www.assero.co.uk/CSN#da9f1092-7a20-4c97-9144-8bac2e72d1ea> ;
.
<http://www.cdisc.org/EG/V1#DVEGSTRESC>
	rdf:type bd:SdtmDomainVariable ;
	isoC:label "Character Result/Finding in Std Format"^^xsd:string ;
	bd:rule ""^^xsd:string ;
	bd:ordinal "15"^^xsd:positiveInteger ;
	bd:name "EGSTRESC"^^xsd:string ;
	bd:description "Contains the result value for all findings, copied or derived from EGORRES in a standard format or standard units. EGSTRESC should store all results or findings in character format; if results are numeric, they should also be stored in numeric format in EGSTRESN. For example, if a test has results of 'NONE', 'NEG', and 'NEGATIVE' in EGORRES and these results effectively have the same meaning, they could be represented in standard format in EGSTRESC as 'NEGATIVE'. For other examples, see general assumptions. Additional examples of result data: SINUS BRADYCARDIA, ATRIAL FLUTTER, ATRIAL FIBRILLATION."^^xsd:string ;
	bd:format ""^^xsd:string ;
	bd:ctAndFormat ""^^xsd:string ;
	bd:compliance <http://www.assero.co.uk/CSN#fc544083-2437-4ec0-97f4-767598bee682> ;
.
<http://www.cdisc.org/EG/V1#DVEGSTRESN>
	rdf:type bd:SdtmDomainVariable ;
	isoC:label "Numeric Result/Finding in Standard Units"^^xsd:string ;
	bd:rule ""^^xsd:string ;
	bd:ordinal "16"^^xsd:positiveInteger ;
	bd:name "EGSTRESN"^^xsd:string ;
	bd:description "Used for continuous or numeric results or findings in standard format; copied in numeric format from EGSTRESC. EGSTRESN should store all numeric test results or findings."^^xsd:string ;
	bd:format ""^^xsd:string ;
	bd:ctAndFormat ""^^xsd:string ;
	bd:compliance <http://www.assero.co.uk/CSN#da9f1092-7a20-4c97-9144-8bac2e72d1ea> ;
.
<http://www.cdisc.org/EG/V1#DVEGSTRESU>
	rdf:type bd:SdtmDomainVariable ;
	isoC:label "Standard Units"^^xsd:string ;
	bd:rule ""^^xsd:string ;
	bd:ordinal "17"^^xsd:positiveInteger ;
	bd:name "EGSTRESU"^^xsd:string ;
	bd:description "Standardized unit used for EGSTRESC or EGSTRESN."^^xsd:string ;
	bd:format ""^^xsd:string ;
	bd:ctAndFormat ""^^xsd:string ;
	bd:compliance <http://www.assero.co.uk/CSN#da9f1092-7a20-4c97-9144-8bac2e72d1ea> ;
.
<http://www.cdisc.org/EG/V1#DVEGSTAT>
	rdf:type bd:SdtmDomainVariable ;
	isoC:label "Completion Status"^^xsd:string ;
	bd:rule ""^^xsd:string ;
	bd:ordinal "18"^^xsd:positiveInteger ;
	bd:name "EGSTAT"^^xsd:string ;
	bd:description "Used to indicate an ECG was not done, or an ECG measurement was not taken. Should be null if a result exists in EGORRES."^^xsd:string ;
	bd:format ""^^xsd:string ;
	bd:ctAndFormat ""^^xsd:string ;
	bd:compliance <http://www.assero.co.uk/CSN#da9f1092-7a20-4c97-9144-8bac2e72d1ea> ;
.
<http://www.cdisc.org/EG/V1#DVEGREASND>
	rdf:type bd:SdtmDomainVariable ;
	isoC:label "Reason ECG Not Performed"^^xsd:string ;
	bd:rule ""^^xsd:string ;
	bd:ordinal "19"^^xsd:positiveInteger ;
	bd:name "EGREASND"^^xsd:string ;
	bd:description "Describes why a measurement or test was not performed. Examples: BROKEN EQUIPMENT or SUBJECT REFUSED. Used in conjunction with EGSTAT when value is NOT DONE."^^xsd:string ;
	bd:format ""^^xsd:string ;
	bd:ctAndFormat ""^^xsd:string ;
	bd:compliance <http://www.assero.co.uk/CSN#da9f1092-7a20-4c97-9144-8bac2e72d1ea> ;
.
<http://www.cdisc.org/EG/V1#DVEGXFN>
	rdf:type bd:SdtmDomainVariable ;
	isoC:label "ECG External File Name"^^xsd:string ;
	bd:rule ""^^xsd:string ;
	bd:ordinal "20"^^xsd:positiveInteger ;
	bd:name "EGXFN"^^xsd:string ;
	bd:description "File name and path for the external ECG Waveform file."^^xsd:string ;
	bd:format ""^^xsd:string ;
	bd:ctAndFormat ""^^xsd:string ;
	bd:compliance <http://www.assero.co.uk/CSN#da9f1092-7a20-4c97-9144-8bac2e72d1ea> ;
.
<http://www.cdisc.org/EG/V1#DVEGNAM>
	rdf:type bd:SdtmDomainVariable ;
	isoC:label "Vendor Name"^^xsd:string ;
	bd:rule ""^^xsd:string ;
	bd:ordinal "21"^^xsd:positiveInteger ;
	bd:name "EGNAM"^^xsd:string ;
	bd:description "Name or identifier of the laboratory or vendor who provided the test results."^^xsd:string ;
	bd:format ""^^xsd:string ;
	bd:ctAndFormat ""^^xsd:string ;
	bd:compliance <http://www.assero.co.uk/CSN#da9f1092-7a20-4c97-9144-8bac2e72d1ea> ;
.
<http://www.cdisc.org/EG/V1#DVEGLOC>
	rdf:type bd:SdtmDomainVariable ;
	isoC:label "Lead Location Used for Measurement"^^xsd:string ;
	bd:rule ""^^xsd:string ;
	bd:ordinal "22"^^xsd:positiveInteger ;
	bd:name "EGLOC"^^xsd:string ;
	bd:description "The lead used for the measurement, examples, V1, V6, aVR, I, II, III."^^xsd:string ;
	bd:format ""^^xsd:string ;
	bd:ctAndFormat ""^^xsd:string ;
	bd:compliance <http://www.assero.co.uk/CSN#da9f1092-7a20-4c97-9144-8bac2e72d1ea> ;
.
<http://www.cdisc.org/EG/V1#DVEGMETHOD>
	rdf:type bd:SdtmDomainVariable ;
	isoC:label "Method of ECG Test"^^xsd:string ;
	bd:rule ""^^xsd:string ;
	bd:ordinal "23"^^xsd:positiveInteger ;
	bd:name "EGMETHOD"^^xsd:string ;
	bd:description "Method of the ECG test. Examples: 12 LEAD STANDARD."^^xsd:string ;
	bd:format ""^^xsd:string ;
	bd:ctAndFormat ""^^xsd:string ;
	bd:compliance <http://www.assero.co.uk/CSN#da9f1092-7a20-4c97-9144-8bac2e72d1ea> ;
.
<http://www.cdisc.org/EG/V1#DVEGBLFL>
	rdf:type bd:SdtmDomainVariable ;
	isoC:label "Baseline Flag"^^xsd:string ;
	bd:rule ""^^xsd:string ;
	bd:ordinal "24"^^xsd:positiveInteger ;
	bd:name "EGBLFL"^^xsd:string ;
	bd:description "Indicator used to identify a baseline value. The value should be 'Y' or null."^^xsd:string ;
	bd:format ""^^xsd:string ;
	bd:ctAndFormat ""^^xsd:string ;
	bd:compliance <http://www.assero.co.uk/CSN#fc544083-2437-4ec0-97f4-767598bee682> ;
.
<http://www.cdisc.org/EG/V1#DVEGDRVFL>
	rdf:type bd:SdtmDomainVariable ;
	isoC:label "Derived Flag"^^xsd:string ;
	bd:rule ""^^xsd:string ;
	bd:ordinal "25"^^xsd:positiveInteger ;
	bd:name "EGDRVFL"^^xsd:string ;
	bd:description "Used to indicate a derived record. The value should be Y or null. Records which represent the average of other records, or that do not come from the CRF, or are not as originally collected or received are examples of records that would be derived for the submission datasets. If EGDRVFL=Y, then EGORRES could be null, with EGSTRESC, and (if numeric) EGSTRESN having the derived value."^^xsd:string ;
	bd:format ""^^xsd:string ;
	bd:ctAndFormat ""^^xsd:string ;
	bd:compliance <http://www.assero.co.uk/CSN#da9f1092-7a20-4c97-9144-8bac2e72d1ea> ;
.
<http://www.cdisc.org/EG/V1#DVEGEVAL>
	rdf:type bd:SdtmDomainVariable ;
	isoC:label "Evaluator"^^xsd:string ;
	bd:rule ""^^xsd:string ;
	bd:ordinal "26"^^xsd:positiveInteger ;
	bd:name "EGEVAL"^^xsd:string ;
	bd:description "Role of the person who provided the evaluation. Used only for results that are subjective (e.g., assigned by a person or a group). Should be null for records that contain collected or derived data. Examples: INVESTIGATOR, ADJUDICATION COMMITTEE, VENDOR."^^xsd:string ;
	bd:format ""^^xsd:string ;
	bd:ctAndFormat ""^^xsd:string ;
	bd:compliance <http://www.assero.co.uk/CSN#da9f1092-7a20-4c97-9144-8bac2e72d1ea> ;
.
<http://www.cdisc.org/EG/V1#DVVISITNUM>
	rdf:type bd:SdtmDomainVariable ;
	isoC:label "Visit Number"^^xsd:string ;
	bd:rule ""^^xsd:string ;
	bd:ordinal "27"^^xsd:positiveInteger ;
	bd:name "VISITNUM"^^xsd:string ;
	bd:description "Clinical encounter number. Numeric version of VISIT, used for sorting."^^xsd:string ;
	bd:format ""^^xsd:string ;
	bd:ctAndFormat ""^^xsd:string ;
	bd:compliance <http://www.assero.co.uk/CSN#fc544083-2437-4ec0-97f4-767598bee682> ;
.
<http://www.cdisc.org/EG/V1#DVVISIT>
	rdf:type bd:SdtmDomainVariable ;
	isoC:label "Visit Name"^^xsd:string ;
	bd:rule ""^^xsd:string ;
	bd:ordinal "28"^^xsd:positiveInteger ;
	bd:name "VISIT"^^xsd:string ;
	bd:description "1. Protocol-defined description of clinical encounter. 2. May be used in addition to VISITNUM and/or VISITDY."^^xsd:string ;
	bd:format ""^^xsd:string ;
	bd:ctAndFormat ""^^xsd:string ;
	bd:compliance <http://www.assero.co.uk/CSN#da9f1092-7a20-4c97-9144-8bac2e72d1ea> ;
.
<http://www.cdisc.org/EG/V1#DVVISITDY>
	rdf:type bd:SdtmDomainVariable ;
	isoC:label "Planned Study Day of Visit"^^xsd:string ;
	bd:rule ""^^xsd:string ;
	bd:ordinal "29"^^xsd:positiveInteger ;
	bd:name "VISITDY"^^xsd:string ;
	bd:description "Planned study day of the visit based upon RFSTDTC in Demographics."^^xsd:string ;
	bd:format ""^^xsd:string ;
	bd:ctAndFormat ""^^xsd:string ;
	bd:compliance <http://www.assero.co.uk/CSN#da9f1092-7a20-4c97-9144-8bac2e72d1ea> ;
.
<http://www.cdisc.org/EG/V1#DVEGDTC>
	rdf:type bd:SdtmDomainVariable ;
	isoC:label "Date/Time of ECG"^^xsd:string ;
	bd:rule ""^^xsd:string ;
	bd:ordinal "30"^^xsd:positiveInteger ;
	bd:name "EGDTC"^^xsd:string ;
	bd:description "Date of ECG."^^xsd:string ;
	bd:format ""^^xsd:string ;
	bd:ctAndFormat ""^^xsd:string ;
	bd:compliance <http://www.assero.co.uk/CSN#fc544083-2437-4ec0-97f4-767598bee682> ;
.
<http://www.cdisc.org/EG/V1#DVEGDY>
	rdf:type bd:SdtmDomainVariable ;
	isoC:label "Study Day of ECG"^^xsd:string ;
	bd:rule ""^^xsd:string ;
	bd:ordinal "31"^^xsd:positiveInteger ;
	bd:name "EGDY"^^xsd:string ;
	bd:description "1. Study day of the ECG, measured as integer days. 2. Algorithm for calculations must be relative to the sponsor-defined RFSTDTC variable in Demographics."^^xsd:string ;
	bd:format ""^^xsd:string ;
	bd:ctAndFormat ""^^xsd:string ;
	bd:compliance <http://www.assero.co.uk/CSN#da9f1092-7a20-4c97-9144-8bac2e72d1ea> ;
.
<http://www.cdisc.org/EG/V1#DVEGTPT>
	rdf:type bd:SdtmDomainVariable ;
	isoC:label "Planned Time Point Name"^^xsd:string ;
	bd:rule ""^^xsd:string ;
	bd:ordinal "32"^^xsd:positiveInteger ;
	bd:name "EGTPT"^^xsd:string ;
	bd:description "1. Text Description of time when measurement should be taken. 2. This may be represented as an elapsed time relative to a fixed reference point, such as time of last dose. See EGTPTNUM and EGTPTREF. Examples: Start, 5 min post."^^xsd:string ;
	bd:format ""^^xsd:string ;
	bd:ctAndFormat ""^^xsd:string ;
	bd:compliance <http://www.assero.co.uk/CSN#da9f1092-7a20-4c97-9144-8bac2e72d1ea> ;
.
<http://www.cdisc.org/EG/V1#DVEGTPTNUM>
	rdf:type bd:SdtmDomainVariable ;
	isoC:label "Planned Time Point Number"^^xsd:string ;
	bd:rule ""^^xsd:string ;
	bd:ordinal "33"^^xsd:positiveInteger ;
	bd:name "EGTPTNUM"^^xsd:string ;
	bd:description "Numerical version of EGTPT to aid in sorting."^^xsd:string ;
	bd:format ""^^xsd:string ;
	bd:ctAndFormat ""^^xsd:string ;
	bd:compliance <http://www.assero.co.uk/CSN#da9f1092-7a20-4c97-9144-8bac2e72d1ea> ;
.
<http://www.cdisc.org/EG/V1#DVEGELTM>
	rdf:type bd:SdtmDomainVariable ;
	isoC:label "Planned Elapsed Time from Time Point Ref"^^xsd:string ;
	bd:rule ""^^xsd:string ;
	bd:ordinal "34"^^xsd:positiveInteger ;
	bd:name "EGELTM"^^xsd:string ;
	bd:description "Planned elapsed time (in ISO 8601) relative to a fixed time point reference (EGTPTREF). Not a clock time or a date time variable. Represented as an ISO 8601 duration. Examples: '-PT15M' to represent the period of 15 minutes prior to the reference point indicated by EGTPTREF, or 'PT8H' to represent the period of 8 hours after the reference point indicated by EGTPTREF."^^xsd:string ;
	bd:format ""^^xsd:string ;
	bd:ctAndFormat ""^^xsd:string ;
	bd:compliance <http://www.assero.co.uk/CSN#da9f1092-7a20-4c97-9144-8bac2e72d1ea> ;
.
<http://www.cdisc.org/EG/V1#DVEGTPTREF>
	rdf:type bd:SdtmDomainVariable ;
	isoC:label "Time Point Reference"^^xsd:string ;
	bd:rule ""^^xsd:string ;
	bd:ordinal "35"^^xsd:positiveInteger ;
	bd:name "EGTPTREF"^^xsd:string ;
	bd:description "Name of the fixed reference point referred to by EGELTM, EGTPTNUM, and EGTPT. Examples: PREVIOUS DOSE, PREVIOUS MEAL."^^xsd:string ;
	bd:format ""^^xsd:string ;
	bd:ctAndFormat ""^^xsd:string ;
	bd:compliance <http://www.assero.co.uk/CSN#da9f1092-7a20-4c97-9144-8bac2e72d1ea> ;
.
<http://www.cdisc.org/EG/V1#DVEGRFTDTC>
	rdf:type bd:SdtmDomainVariable ;
	isoC:label "Date/Time of Reference Time Point"^^xsd:string ;
	bd:rule ""^^xsd:string ;
	bd:ordinal "36"^^xsd:positiveInteger ;
	bd:name "EGRFTDTC"^^xsd:string ;
	bd:description "Date/time of the reference time point, EGTPTREF."^^xsd:string ;
	bd:format ""^^xsd:string ;
	bd:ctAndFormat ""^^xsd:string ;
	bd:compliance <http://www.assero.co.uk/CSN#da9f1092-7a20-4c97-9144-8bac2e72d1ea> ;
.
<http://www.cdisc.org/IE/V1>
	rdf:type bd:SdtmDomain ;
	isoC:label "Inclusion/Exclusion Criteria Not Met"^^xsd:string ;
	isoT:hasState <http://www.cdisc.org/IE/V1#RS> ;
	isoT:hasIdentifier <http://www.cdisc.org/IE/V1#SI> ;
	isoT:origin ""^^xsd:string ;
	isoT:changeDescription ""^^xsd:string ;
	isoT:creationDate "2008-11-12T00:00:00+00:00"^^xsd:dateTime ;
	isoT:lastChangeDate "2008-11-12T00:00:00+00:00"^^xsd:dateTime ;
	isoT:explanatoryComment ""^^xsd:string ;
	bd:rule ""^^xsd:string ;
	bd:ordinal "1"^^xsd:positiveInteger ;
	bd:includesColumn <http://www.cdisc.org/IE/V1#DVSTUDYID> ;
	bd:includesColumn <http://www.cdisc.org/IE/V1#DVDOMAIN> ;
	bd:includesColumn <http://www.cdisc.org/IE/V1#DVUSUBJID> ;
	bd:includesColumn <http://www.cdisc.org/IE/V1#DVIESEQ> ;
	bd:includesColumn <http://www.cdisc.org/IE/V1#DVIESPID> ;
	bd:includesColumn <http://www.cdisc.org/IE/V1#DVIETESTCD> ;
	bd:includesColumn <http://www.cdisc.org/IE/V1#DVIETEST> ;
	bd:includesColumn <http://www.cdisc.org/IE/V1#DVIECAT> ;
	bd:includesColumn <http://www.cdisc.org/IE/V1#DVIESCAT> ;
	bd:includesColumn <http://www.cdisc.org/IE/V1#DVIEORRES> ;
	bd:includesColumn <http://www.cdisc.org/IE/V1#DVIESTRESC> ;
	bd:includesColumn <http://www.cdisc.org/IE/V1#DVVISITNUM> ;
	bd:includesColumn <http://www.cdisc.org/IE/V1#DVVISIT> ;
	bd:includesColumn <http://www.cdisc.org/IE/V1#DVVISITDY> ;
	bd:includesColumn <http://www.cdisc.org/IE/V1#DVIEDTC> ;
	bd:includesColumn <http://www.cdisc.org/IE/V1#DVIEDY> ;
	bd:prefix ""^^xsd:string ;
	bd:structure ""^^xsd:string ;
.
<http://www.cdisc.org/IE/V1#RS>
	rdf:type isoR:RegistrationState ;
	isoR:registrationStatus "Standard"^^xsd:string ;
	isoR:administrativeNote ""^^xsd:string ;
	isoR:effectiveDate "2016-01-01T00:00:00+00:00"^^xsd:dateTime ;
	isoR:untilDate "2016-01-01T00:00:00+00:00"^^xsd:dateTime ;
	isoR:unresolvedIssue ""^^xsd:string ;
	isoR:administrativeStatus ""^^xsd:string ;
	isoR:previousState "Standard"^^xsd:string ;
	isoR:multipleEdit "false"^^xsd:boolean ;
	isoR:byAuthority <http://www.assero.co.uk/RA#DUNS084433759> ;
.
<http://www.cdisc.org/IE/V1#SI>
	rdf:type isoI:ScopedIdentifier ;
	isoI:identifier "IE"^^xsd:string ;
	isoI:versionLabel "2008-11-12 Release"^^xsd:string ;
	isoI:version "1"^^xsd:positiveInteger ;
	isoI:semanticVersion "1.0.0"^^xsd:string ;
	isoI:hasScope <http://www.assero.co.uk/NS#CDISC> ;
.
<http://www.cdisc.org/IE/V1#DVSTUDYID>
	rdf:type bd:SdtmDomainVariable ;
	isoC:label "Study Identifier"^^xsd:string ;
	bd:rule ""^^xsd:string ;
	bd:ordinal "1"^^xsd:positiveInteger ;
	bd:name "STUDYID"^^xsd:string ;
	bd:description "Unique identifier for a study."^^xsd:string ;
	bd:format ""^^xsd:string ;
	bd:ctAndFormat ""^^xsd:string ;
	bd:compliance <http://www.assero.co.uk/CSN#8f112ba7-caa3-4f34-a9fc-8bc808b13955> ;
.
<http://www.cdisc.org/IE/V1#DVDOMAIN>
	rdf:type bd:SdtmDomainVariable ;
	isoC:label "Domain Abbreviation"^^xsd:string ;
	bd:rule ""^^xsd:string ;
	bd:ordinal "2"^^xsd:positiveInteger ;
	bd:name "DOMAIN"^^xsd:string ;
	bd:description "Two-character abbreviation for the domain."^^xsd:string ;
	bd:format ""^^xsd:string ;
	bd:ctAndFormat ""^^xsd:string ;
	bd:compliance <http://www.assero.co.uk/CSN#8f112ba7-caa3-4f34-a9fc-8bc808b13955> ;
.
<http://www.cdisc.org/IE/V1#DVUSUBJID>
	rdf:type bd:SdtmDomainVariable ;
	isoC:label "Unique Subject Identifier"^^xsd:string ;
	bd:rule ""^^xsd:string ;
	bd:ordinal "3"^^xsd:positiveInteger ;
	bd:name "USUBJID"^^xsd:string ;
	bd:description "Identifier used to uniquely identify a subject across all studies for all applications or submissions involving the product."^^xsd:string ;
	bd:format ""^^xsd:string ;
	bd:ctAndFormat ""^^xsd:string ;
	bd:compliance <http://www.assero.co.uk/CSN#8f112ba7-caa3-4f34-a9fc-8bc808b13955> ;
.
<http://www.cdisc.org/IE/V1#DVIESEQ>
	rdf:type bd:SdtmDomainVariable ;
	isoC:label "Sequence Number"^^xsd:string ;
	bd:rule ""^^xsd:string ;
	bd:ordinal "4"^^xsd:positiveInteger ;
	bd:name "IESEQ"^^xsd:string ;
	bd:description "Sequence Number given to ensure uniqueness of subject records within a domain. May be any valid number."^^xsd:string ;
	bd:format ""^^xsd:string ;
	bd:ctAndFormat ""^^xsd:string ;
	bd:compliance <http://www.assero.co.uk/CSN#8f112ba7-caa3-4f34-a9fc-8bc808b13955> ;
.
<http://www.cdisc.org/IE/V1#DVIESPID>
	rdf:type bd:SdtmDomainVariable ;
	isoC:label "Sponsor-Defined Identifier"^^xsd:string ;
	bd:rule ""^^xsd:string ;
	bd:ordinal "5"^^xsd:positiveInteger ;
	bd:name "IESPID"^^xsd:string ;
	bd:description "Sponsor-defined reference number. Perhaps pre-printed on the CRF as an explicit line identifier or defined in the sponsor's operational database. Example: Inclusion or Exclusion criteria number from CRF."^^xsd:string ;
	bd:format ""^^xsd:string ;
	bd:ctAndFormat ""^^xsd:string ;
	bd:compliance <http://www.assero.co.uk/CSN#da9f1092-7a20-4c97-9144-8bac2e72d1ea> ;
.
<http://www.cdisc.org/IE/V1#DVIETESTCD>
	rdf:type bd:SdtmDomainVariable ;
	isoC:label "Inclusion/Exclusion Criterion Short Name"^^xsd:string ;
	bd:rule ""^^xsd:string ;
	bd:ordinal "6"^^xsd:positiveInteger ;
	bd:name "IETESTCD"^^xsd:string ;
	bd:description "Short name of the criterion described in IETEST. The value in IETESTCD cannot be longer than 8 characters, nor can it start with a number (e.g.'1TEST'). IETESTCD cannot contain characters other than letters, numbers, or underscores. Examples: IN01, EX01."^^xsd:string ;
	bd:format ""^^xsd:string ;
	bd:ctAndFormat ""^^xsd:string ;
	bd:compliance <http://www.assero.co.uk/CSN#8f112ba7-caa3-4f34-a9fc-8bc808b13955> ;
.
<http://www.cdisc.org/IE/V1#DVIETEST>
	rdf:type bd:SdtmDomainVariable ;
	isoC:label "Inclusion/Exclusion Criterion"^^xsd:string ;
	bd:rule ""^^xsd:string ;
	bd:ordinal "7"^^xsd:positiveInteger ;
	bd:name "IETEST"^^xsd:string ;
	bd:description "Verbatim description of the inclusion or exclusion criterion that was the exception for the subject within the study. IETEST cannot be longer than 200 characters."^^xsd:string ;
	bd:format ""^^xsd:string ;
	bd:ctAndFormat ""^^xsd:string ;
	bd:compliance <http://www.assero.co.uk/CSN#8f112ba7-caa3-4f34-a9fc-8bc808b13955> ;
.
<http://www.cdisc.org/IE/V1#DVIECAT>
	rdf:type bd:SdtmDomainVariable ;
	isoC:label "Inclusion/Exclusion Category"^^xsd:string ;
	bd:rule ""^^xsd:string ;
	bd:ordinal "8"^^xsd:positiveInteger ;
	bd:name "IECAT"^^xsd:string ;
	bd:description "Used to define a category of related records across subjects."^^xsd:string ;
	bd:format ""^^xsd:string ;
	bd:ctAndFormat ""^^xsd:string ;
	bd:compliance <http://www.assero.co.uk/CSN#8f112ba7-caa3-4f34-a9fc-8bc808b13955> ;
.
<http://www.cdisc.org/IE/V1#DVIESCAT>
	rdf:type bd:SdtmDomainVariable ;
	isoC:label "Inclusion/Exclusion Subcategory"^^xsd:string ;
	bd:rule ""^^xsd:string ;
	bd:ordinal "9"^^xsd:positiveInteger ;
	bd:name "IESCAT"^^xsd:string ;
	bd:description "A further categorization of the exception criterion. Can be used to distinguish criteria for a sub-study or for to categorize as a major or minor exceptions. Examples: MAJOR, MINOR."^^xsd:string ;
	bd:format ""^^xsd:string ;
	bd:ctAndFormat ""^^xsd:string ;
	bd:compliance <http://www.assero.co.uk/CSN#da9f1092-7a20-4c97-9144-8bac2e72d1ea> ;
.
<http://www.cdisc.org/IE/V1#DVIEORRES>
	rdf:type bd:SdtmDomainVariable ;
	isoC:label "I/E Criterion Original Result"^^xsd:string ;
	bd:rule ""^^xsd:string ;
	bd:ordinal "10"^^xsd:positiveInteger ;
	bd:name "IEORRES"^^xsd:string ;
	bd:description "Original response to Inclusion/Exclusion Criterion question. Inclusion or Exclusion criterion met?"^^xsd:string ;
	bd:format ""^^xsd:string ;
	bd:ctAndFormat ""^^xsd:string ;
	bd:compliance <http://www.assero.co.uk/CSN#8f112ba7-caa3-4f34-a9fc-8bc808b13955> ;
.
<http://www.cdisc.org/IE/V1#DVIESTRESC>
	rdf:type bd:SdtmDomainVariable ;
	isoC:label "I/E Criterion Result in Std Format"^^xsd:string ;
	bd:rule ""^^xsd:string ;
	bd:ordinal "11"^^xsd:positiveInteger ;
	bd:name "IESTRESC"^^xsd:string ;
	bd:description "Response to Inclusion/Exclusion criterion result in standard format."^^xsd:string ;
	bd:format ""^^xsd:string ;
	bd:ctAndFormat ""^^xsd:string ;
	bd:compliance <http://www.assero.co.uk/CSN#8f112ba7-caa3-4f34-a9fc-8bc808b13955> ;
.
<http://www.cdisc.org/IE/V1#DVVISITNUM>
	rdf:type bd:SdtmDomainVariable ;
	isoC:label "Visit Number"^^xsd:string ;
	bd:rule ""^^xsd:string ;
	bd:ordinal "12"^^xsd:positiveInteger ;
	bd:name "VISITNUM"^^xsd:string ;
	bd:description "Clinical encounter number. Numeric version of VISIT, used for sorting."^^xsd:string ;
	bd:format ""^^xsd:string ;
	bd:ctAndFormat ""^^xsd:string ;
	bd:compliance <http://www.assero.co.uk/CSN#da9f1092-7a20-4c97-9144-8bac2e72d1ea> ;
.
<http://www.cdisc.org/IE/V1#DVVISIT>
	rdf:type bd:SdtmDomainVariable ;
	isoC:label "Visit Name"^^xsd:string ;
	bd:rule ""^^xsd:string ;
	bd:ordinal "13"^^xsd:positiveInteger ;
	bd:name "VISIT"^^xsd:string ;
	bd:description "1. Protocol-defined description of clinical encounter. 2. May be used in addition to VISITNUM and/or VISITDY."^^xsd:string ;
	bd:format ""^^xsd:string ;
	bd:ctAndFormat ""^^xsd:string ;
	bd:compliance <http://www.assero.co.uk/CSN#da9f1092-7a20-4c97-9144-8bac2e72d1ea> ;
.
<http://www.cdisc.org/IE/V1#DVVISITDY>
	rdf:type bd:SdtmDomainVariable ;
	isoC:label "Planned Study Day of Visit"^^xsd:string ;
	bd:rule ""^^xsd:string ;
	bd:ordinal "14"^^xsd:positiveInteger ;
	bd:name "VISITDY"^^xsd:string ;
	bd:description "Planned study day of the visit based upon RFSTDTC in Demographics."^^xsd:string ;
	bd:format ""^^xsd:string ;
	bd:ctAndFormat ""^^xsd:string ;
	bd:compliance <http://www.assero.co.uk/CSN#da9f1092-7a20-4c97-9144-8bac2e72d1ea> ;
.
<http://www.cdisc.org/IE/V1#DVIEDTC>
	rdf:type bd:SdtmDomainVariable ;
	isoC:label "Date/Time of Collection"^^xsd:string ;
	bd:rule ""^^xsd:string ;
	bd:ordinal "15"^^xsd:positiveInteger ;
	bd:name "IEDTC"^^xsd:string ;
	bd:description ""^^xsd:string ;
	bd:format ""^^xsd:string ;
	bd:ctAndFormat ""^^xsd:string ;
	bd:compliance <http://www.assero.co.uk/CSN#da9f1092-7a20-4c97-9144-8bac2e72d1ea> ;
.
<http://www.cdisc.org/IE/V1#DVIEDY>
	rdf:type bd:SdtmDomainVariable ;
	isoC:label "Study Day of Collection"^^xsd:string ;
	bd:rule ""^^xsd:string ;
	bd:ordinal "16"^^xsd:positiveInteger ;
	bd:name "IEDY"^^xsd:string ;
	bd:description "1. Study day of collection of the inclusion/exclusion exceptions, measured as integer days. 2. Algorithm for calculations must be relative to the sponsor-defined RFSTDTC variable in Demographics. This formula should be consistent across the submission."^^xsd:string ;
	bd:format ""^^xsd:string ;
	bd:ctAndFormat ""^^xsd:string ;
	bd:compliance <http://www.assero.co.uk/CSN#da9f1092-7a20-4c97-9144-8bac2e72d1ea> ;
.
<http://www.cdisc.org/LB/V1>
	rdf:type bd:SdtmDomain ;
	isoC:label "Laboratory Test Results"^^xsd:string ;
	isoT:hasState <http://www.cdisc.org/LB/V1#RS> ;
	isoT:hasIdentifier <http://www.cdisc.org/LB/V1#SI> ;
	isoT:origin ""^^xsd:string ;
	isoT:changeDescription ""^^xsd:string ;
	isoT:creationDate "2008-11-12T00:00:00+00:00"^^xsd:dateTime ;
	isoT:lastChangeDate "2008-11-12T00:00:00+00:00"^^xsd:dateTime ;
	isoT:explanatoryComment ""^^xsd:string ;
	bd:rule ""^^xsd:string ;
	bd:ordinal "1"^^xsd:positiveInteger ;
	bd:includesColumn <http://www.cdisc.org/LB/V1#DVSTUDYID> ;
	bd:includesColumn <http://www.cdisc.org/LB/V1#DVDOMAIN> ;
	bd:includesColumn <http://www.cdisc.org/LB/V1#DVUSUBJID> ;
	bd:includesColumn <http://www.cdisc.org/LB/V1#DVLBSEQ> ;
	bd:includesColumn <http://www.cdisc.org/LB/V1#DVLBGRPID> ;
	bd:includesColumn <http://www.cdisc.org/LB/V1#DVLBREFID> ;
	bd:includesColumn <http://www.cdisc.org/LB/V1#DVLBSPID> ;
	bd:includesColumn <http://www.cdisc.org/LB/V1#DVLBTESTCD> ;
	bd:includesColumn <http://www.cdisc.org/LB/V1#DVLBTEST> ;
	bd:includesColumn <http://www.cdisc.org/LB/V1#DVLBCAT> ;
	bd:includesColumn <http://www.cdisc.org/LB/V1#DVLBSCAT> ;
	bd:includesColumn <http://www.cdisc.org/LB/V1#DVLBORRES> ;
	bd:includesColumn <http://www.cdisc.org/LB/V1#DVLBORRESU> ;
	bd:includesColumn <http://www.cdisc.org/LB/V1#DVLBORNRLO> ;
	bd:includesColumn <http://www.cdisc.org/LB/V1#DVLBORNRHI> ;
	bd:includesColumn <http://www.cdisc.org/LB/V1#DVLBSTRESC> ;
	bd:includesColumn <http://www.cdisc.org/LB/V1#DVLBSTRESN> ;
	bd:includesColumn <http://www.cdisc.org/LB/V1#DVLBSTRESU> ;
	bd:includesColumn <http://www.cdisc.org/LB/V1#DVLBSTNRLO> ;
	bd:includesColumn <http://www.cdisc.org/LB/V1#DVLBSTNRHI> ;
	bd:includesColumn <http://www.cdisc.org/LB/V1#DVLBSTNRC> ;
	bd:includesColumn <http://www.cdisc.org/LB/V1#DVLBNRIND> ;
	bd:includesColumn <http://www.cdisc.org/LB/V1#DVLBSTAT> ;
	bd:includesColumn <http://www.cdisc.org/LB/V1#DVLBREASND> ;
	bd:includesColumn <http://www.cdisc.org/LB/V1#DVLBNAM> ;
	bd:includesColumn <http://www.cdisc.org/LB/V1#DVLBLOINC> ;
	bd:includesColumn <http://www.cdisc.org/LB/V1#DVLBSPEC> ;
	bd:includesColumn <http://www.cdisc.org/LB/V1#DVLBSPCCND> ;
	bd:includesColumn <http://www.cdisc.org/LB/V1#DVLBMETHOD> ;
	bd:includesColumn <http://www.cdisc.org/LB/V1#DVLBBLFL> ;
	bd:includesColumn <http://www.cdisc.org/LB/V1#DVLBFAST> ;
	bd:includesColumn <http://www.cdisc.org/LB/V1#DVLBDRVFL> ;
	bd:includesColumn <http://www.cdisc.org/LB/V1#DVLBTOX> ;
	bd:includesColumn <http://www.cdisc.org/LB/V1#DVLBTOXGR> ;
	bd:includesColumn <http://www.cdisc.org/LB/V1#DVVISITNUM> ;
	bd:includesColumn <http://www.cdisc.org/LB/V1#DVVISIT> ;
	bd:includesColumn <http://www.cdisc.org/LB/V1#DVVISITDY> ;
	bd:includesColumn <http://www.cdisc.org/LB/V1#DVLBDTC> ;
	bd:includesColumn <http://www.cdisc.org/LB/V1#DVLBENDTC> ;
	bd:includesColumn <http://www.cdisc.org/LB/V1#DVLBDY> ;
	bd:includesColumn <http://www.cdisc.org/LB/V1#DVLBTPT> ;
	bd:includesColumn <http://www.cdisc.org/LB/V1#DVLBTPTNUM> ;
	bd:includesColumn <http://www.cdisc.org/LB/V1#DVLBELTM> ;
	bd:includesColumn <http://www.cdisc.org/LB/V1#DVLBTPTREF> ;
	bd:includesColumn <http://www.cdisc.org/LB/V1#DVLBRFTDTC> ;
	bd:prefix ""^^xsd:string ;
	bd:structure ""^^xsd:string ;
.
<http://www.cdisc.org/LB/V1#RS>
	rdf:type isoR:RegistrationState ;
	isoR:registrationStatus "Standard"^^xsd:string ;
	isoR:administrativeNote ""^^xsd:string ;
	isoR:effectiveDate "2016-01-01T00:00:00+00:00"^^xsd:dateTime ;
	isoR:untilDate "2016-01-01T00:00:00+00:00"^^xsd:dateTime ;
	isoR:unresolvedIssue ""^^xsd:string ;
	isoR:administrativeStatus ""^^xsd:string ;
	isoR:previousState "Standard"^^xsd:string ;
	isoR:multipleEdit "false"^^xsd:boolean ;
	isoR:byAuthority <http://www.assero.co.uk/RA#DUNS084433759> ;
.
<http://www.cdisc.org/LB/V1#SI>
	rdf:type isoI:ScopedIdentifier ;
	isoI:identifier "LB"^^xsd:string ;
	isoI:versionLabel "2008-11-12 Release"^^xsd:string ;
	isoI:version "1"^^xsd:positiveInteger ;
	isoI:semanticVersion "1.0.0"^^xsd:string ;
	isoI:hasScope <http://www.assero.co.uk/NS#CDISC> ;
.
<http://www.cdisc.org/LB/V1#DVSTUDYID>
	rdf:type bd:SdtmDomainVariable ;
	isoC:label "Study Identifier"^^xsd:string ;
	bd:rule ""^^xsd:string ;
	bd:ordinal "1"^^xsd:positiveInteger ;
	bd:name "STUDYID"^^xsd:string ;
	bd:description "Unique identifier for a study."^^xsd:string ;
	bd:format ""^^xsd:string ;
	bd:ctAndFormat ""^^xsd:string ;
	bd:compliance <http://www.assero.co.uk/CSN#8f112ba7-caa3-4f34-a9fc-8bc808b13955> ;
.
<http://www.cdisc.org/LB/V1#DVDOMAIN>
	rdf:type bd:SdtmDomainVariable ;
	isoC:label "Domain Abbreviation"^^xsd:string ;
	bd:rule ""^^xsd:string ;
	bd:ordinal "2"^^xsd:positiveInteger ;
	bd:name "DOMAIN"^^xsd:string ;
	bd:description "Two-character abbreviation for the domain."^^xsd:string ;
	bd:format ""^^xsd:string ;
	bd:ctAndFormat ""^^xsd:string ;
	bd:compliance <http://www.assero.co.uk/CSN#8f112ba7-caa3-4f34-a9fc-8bc808b13955> ;
.
<http://www.cdisc.org/LB/V1#DVUSUBJID>
	rdf:type bd:SdtmDomainVariable ;
	isoC:label "Unique Subject Identifier"^^xsd:string ;
	bd:rule ""^^xsd:string ;
	bd:ordinal "3"^^xsd:positiveInteger ;
	bd:name "USUBJID"^^xsd:string ;
	bd:description "Identifier used to uniquely identify a subject across all studies for all applications or submissions involving the product."^^xsd:string ;
	bd:format ""^^xsd:string ;
	bd:ctAndFormat ""^^xsd:string ;
	bd:compliance <http://www.assero.co.uk/CSN#8f112ba7-caa3-4f34-a9fc-8bc808b13955> ;
.
<http://www.cdisc.org/LB/V1#DVLBSEQ>
	rdf:type bd:SdtmDomainVariable ;
	isoC:label "Sequence Number"^^xsd:string ;
	bd:rule ""^^xsd:string ;
	bd:ordinal "4"^^xsd:positiveInteger ;
	bd:name "LBSEQ"^^xsd:string ;
	bd:description "Sequence Number given to ensure uniqueness of subject records within a domain. May be any valid number."^^xsd:string ;
	bd:format ""^^xsd:string ;
	bd:ctAndFormat ""^^xsd:string ;
	bd:compliance <http://www.assero.co.uk/CSN#8f112ba7-caa3-4f34-a9fc-8bc808b13955> ;
.
<http://www.cdisc.org/LB/V1#DVLBGRPID>
	rdf:type bd:SdtmDomainVariable ;
	isoC:label "Group ID"^^xsd:string ;
	bd:rule ""^^xsd:string ;
	bd:ordinal "5"^^xsd:positiveInteger ;
	bd:name "LBGRPID"^^xsd:string ;
	bd:description "Used to tie together a block of related records in a single domain for a subject."^^xsd:string ;
	bd:format ""^^xsd:string ;
	bd:ctAndFormat ""^^xsd:string ;
	bd:compliance <http://www.assero.co.uk/CSN#da9f1092-7a20-4c97-9144-8bac2e72d1ea> ;
.
<http://www.cdisc.org/LB/V1#DVLBREFID>
	rdf:type bd:SdtmDomainVariable ;
	isoC:label "Specimen ID"^^xsd:string ;
	bd:rule ""^^xsd:string ;
	bd:ordinal "6"^^xsd:positiveInteger ;
	bd:name "LBREFID"^^xsd:string ;
	bd:description "Internal or external specimen identifier. Example: Specimen ID."^^xsd:string ;
	bd:format ""^^xsd:string ;
	bd:ctAndFormat ""^^xsd:string ;
	bd:compliance <http://www.assero.co.uk/CSN#da9f1092-7a20-4c97-9144-8bac2e72d1ea> ;
.
<http://www.cdisc.org/LB/V1#DVLBSPID>
	rdf:type bd:SdtmDomainVariable ;
	isoC:label "Sponsor-Defined Identifier"^^xsd:string ;
	bd:rule ""^^xsd:string ;
	bd:ordinal "7"^^xsd:positiveInteger ;
	bd:name "LBSPID"^^xsd:string ;
	bd:description "Sponsor-defined reference number. Perhaps pre-printed on the CRF as an explicit line identifier or defined in the sponsor's operational database. Example: Line number on the Lab page."^^xsd:string ;
	bd:format ""^^xsd:string ;
	bd:ctAndFormat ""^^xsd:string ;
	bd:compliance <http://www.assero.co.uk/CSN#da9f1092-7a20-4c97-9144-8bac2e72d1ea> ;
.
<http://www.cdisc.org/LB/V1#DVLBTESTCD>
	rdf:type bd:SdtmDomainVariable ;
	isoC:label "Lab Test or Examination Short Name"^^xsd:string ;
	bd:rule ""^^xsd:string ;
	bd:ordinal "8"^^xsd:positiveInteger ;
	bd:name "LBTESTCD"^^xsd:string ;
	bd:description "Short name of the measurement, test, or examination described in LBTEST. It can be used as a column name when converting a dataset from a vertical to a horizontal format. The value in LBTESTCD cannot be longer than 8 characters, nor can it start with a number (e.g.'1TEST'). LBTESTCD cannot contain characters other than letters, numbers, or underscores. Examples: ALT, LDH."^^xsd:string ;
	bd:format ""^^xsd:string ;
	bd:ctAndFormat ""^^xsd:string ;
	bd:compliance <http://www.assero.co.uk/CSN#8f112ba7-caa3-4f34-a9fc-8bc808b13955> ;
.
<http://www.cdisc.org/LB/V1#DVLBTEST>
	rdf:type bd:SdtmDomainVariable ;
	isoC:label "Lab Test or Examination Name"^^xsd:string ;
	bd:rule ""^^xsd:string ;
	bd:ordinal "9"^^xsd:positiveInteger ;
	bd:name "LBTEST"^^xsd:string ;
	bd:description "Verbatim name of the test or examination used to obtain the measurement or finding. Note any test normally performed by a clinical laboratory is considered a lab test. The value in LBTEST cannot be longer than 40 characters. Examples: Alanine Aminotransferase, Lactate Dehydrogenase."^^xsd:string ;
	bd:format ""^^xsd:string ;
	bd:ctAndFormat ""^^xsd:string ;
	bd:compliance <http://www.assero.co.uk/CSN#8f112ba7-caa3-4f34-a9fc-8bc808b13955> ;
.
<http://www.cdisc.org/LB/V1#DVLBCAT>
	rdf:type bd:SdtmDomainVariable ;
	isoC:label "Category for Lab Test"^^xsd:string ;
	bd:rule ""^^xsd:string ;
	bd:ordinal "10"^^xsd:positiveInteger ;
	bd:name "LBCAT"^^xsd:string ;
	bd:description "Used to define a category of related records across subjects. Examples: such as HEMATOLOGY, URINALYSIS, CHEMISTRY."^^xsd:string ;
	bd:format ""^^xsd:string ;
	bd:ctAndFormat ""^^xsd:string ;
	bd:compliance <http://www.assero.co.uk/CSN#fc544083-2437-4ec0-97f4-767598bee682> ;
.
<http://www.cdisc.org/LB/V1#DVLBSCAT>
	rdf:type bd:SdtmDomainVariable ;
	isoC:label "Subcategory for Lab Test"^^xsd:string ;
	bd:rule ""^^xsd:string ;
	bd:ordinal "11"^^xsd:positiveInteger ;
	bd:name "LBSCAT"^^xsd:string ;
	bd:description "A further categorization of a test category such as DIFFERENTIAL, COAGULATON, LIVER FUNCTION, ELECTROLYTES."^^xsd:string ;
	bd:format ""^^xsd:string ;
	bd:ctAndFormat ""^^xsd:string ;
	bd:compliance <http://www.assero.co.uk/CSN#da9f1092-7a20-4c97-9144-8bac2e72d1ea> ;
.
<http://www.cdisc.org/LB/V1#DVLBORRES>
	rdf:type bd:SdtmDomainVariable ;
	isoC:label "Result or Finding in Original Units"^^xsd:string ;
	bd:rule ""^^xsd:string ;
	bd:ordinal "12"^^xsd:positiveInteger ;
	bd:name "LBORRES"^^xsd:string ;
	bd:description "Result of the measurement or finding as originally received or collected."^^xsd:string ;
	bd:format ""^^xsd:string ;
	bd:ctAndFormat ""^^xsd:string ;
	bd:compliance <http://www.assero.co.uk/CSN#fc544083-2437-4ec0-97f4-767598bee682> ;
.
<http://www.cdisc.org/LB/V1#DVLBORRESU>
	rdf:type bd:SdtmDomainVariable ;
	isoC:label "Original Units"^^xsd:string ;
	bd:rule ""^^xsd:string ;
	bd:ordinal "13"^^xsd:positiveInteger ;
	bd:name "LBORRESU"^^xsd:string ;
	bd:description "Original units in which the data were collected. The unit for LBORRES. Example: g/L."^^xsd:string ;
	bd:format ""^^xsd:string ;
	bd:ctAndFormat ""^^xsd:string ;
	bd:compliance <http://www.assero.co.uk/CSN#fc544083-2437-4ec0-97f4-767598bee682> ;
.
<http://www.cdisc.org/LB/V1#DVLBORNRLO>
	rdf:type bd:SdtmDomainVariable ;
	isoC:label "Reference Range Lower Limit in Orig Unit"^^xsd:string ;
	bd:rule ""^^xsd:string ;
	bd:ordinal "14"^^xsd:positiveInteger ;
	bd:name "LBORNRLO"^^xsd:string ;
	bd:description "Lower end of reference range for continuous measurements in original units. Should be populated only for continuous results."^^xsd:string ;
	bd:format ""^^xsd:string ;
	bd:ctAndFormat ""^^xsd:string ;
	bd:compliance <http://www.assero.co.uk/CSN#fc544083-2437-4ec0-97f4-767598bee682> ;
.
<http://www.cdisc.org/LB/V1#DVLBORNRHI>
	rdf:type bd:SdtmDomainVariable ;
	isoC:label "Reference Range Upper Limit in Orig Unit"^^xsd:string ;
	bd:rule ""^^xsd:string ;
	bd:ordinal "15"^^xsd:positiveInteger ;
	bd:name "LBORNRHI"^^xsd:string ;
	bd:description "Upper end of reference range for continuous measurements in original units. Should be populated only for continuous results."^^xsd:string ;
	bd:format ""^^xsd:string ;
	bd:ctAndFormat ""^^xsd:string ;
	bd:compliance <http://www.assero.co.uk/CSN#fc544083-2437-4ec0-97f4-767598bee682> ;
.
<http://www.cdisc.org/LB/V1#DVLBSTRESC>
	rdf:type bd:SdtmDomainVariable ;
	isoC:label "Character Result/Finding in Std Format"^^xsd:string ;
	bd:rule ""^^xsd:string ;
	bd:ordinal "16"^^xsd:positiveInteger ;
	bd:name "LBSTRESC"^^xsd:string ;
	bd:description "Contains the result value for all findings, copied or derived from LBORRES in a standard format or standard units. LBSTRESC should store all results or findings in character format; if results are numeric, they should also be stored in numeric format in LBSTRESN. For example, if a test has results 'NONE', 'NEG', and 'NEGATIVE' in LBORRES and these results effectively have the same meaning, they could be represented in standard format in LBSTRESC as 'NEGATIVE'. For other examples, see general assumptions."^^xsd:string ;
	bd:format ""^^xsd:string ;
	bd:ctAndFormat ""^^xsd:string ;
	bd:compliance <http://www.assero.co.uk/CSN#fc544083-2437-4ec0-97f4-767598bee682> ;
.
<http://www.cdisc.org/LB/V1#DVLBSTRESN>
	rdf:type bd:SdtmDomainVariable ;
	isoC:label "Numeric Result/Finding in Standard Units"^^xsd:string ;
	bd:rule ""^^xsd:string ;
	bd:ordinal "17"^^xsd:positiveInteger ;
	bd:name "LBSTRESN"^^xsd:string ;
	bd:description "Used for continuous or numeric results or findings in standard format; copied in numeric format from LBSTRESC. LBSTRESN should store all numeric test results or findings."^^xsd:string ;
	bd:format ""^^xsd:string ;
	bd:ctAndFormat ""^^xsd:string ;
	bd:compliance <http://www.assero.co.uk/CSN#fc544083-2437-4ec0-97f4-767598bee682> ;
.
<http://www.cdisc.org/LB/V1#DVLBSTRESU>
	rdf:type bd:SdtmDomainVariable ;
	isoC:label "Standard Units"^^xsd:string ;
	bd:rule ""^^xsd:string ;
	bd:ordinal "18"^^xsd:positiveInteger ;
	bd:name "LBSTRESU"^^xsd:string ;
	bd:description "Standardized unit used for LBSTRESC or LBSTRESN."^^xsd:string ;
	bd:format ""^^xsd:string ;
	bd:ctAndFormat ""^^xsd:string ;
	bd:compliance <http://www.assero.co.uk/CSN#fc544083-2437-4ec0-97f4-767598bee682> ;
.
<http://www.cdisc.org/LB/V1#DVLBSTNRLO>
	rdf:type bd:SdtmDomainVariable ;
	isoC:label "Reference Range Lower Limit-Std Units"^^xsd:string ;
	bd:rule ""^^xsd:string ;
	bd:ordinal "19"^^xsd:positiveInteger ;
	bd:name "LBSTNRLO"^^xsd:string ;
	bd:description "Lower end of reference range for continuous measurements for LBSTRESC/LBSTRESN in standardized units. Should be populated only for continuous results."^^xsd:string ;
	bd:format ""^^xsd:string ;
	bd:ctAndFormat ""^^xsd:string ;
	bd:compliance <http://www.assero.co.uk/CSN#fc544083-2437-4ec0-97f4-767598bee682> ;
.
<http://www.cdisc.org/LB/V1#DVLBSTNRHI>
	rdf:type bd:SdtmDomainVariable ;
	isoC:label "Reference Range Upper Limit-Std Units"^^xsd:string ;
	bd:rule ""^^xsd:string ;
	bd:ordinal "20"^^xsd:positiveInteger ;
	bd:name "LBSTNRHI"^^xsd:string ;
	bd:description "Upper end of reference range for continuous measurements in standardized units. Should be populated only for continuous results."^^xsd:string ;
	bd:format ""^^xsd:string ;
	bd:ctAndFormat ""^^xsd:string ;
	bd:compliance <http://www.assero.co.uk/CSN#fc544083-2437-4ec0-97f4-767598bee682> ;
.
<http://www.cdisc.org/LB/V1#DVLBSTNRC>
	rdf:type bd:SdtmDomainVariable ;
	isoC:label "Reference Range for Char Rslt-Std Units"^^xsd:string ;
	bd:rule ""^^xsd:string ;
	bd:ordinal "21"^^xsd:positiveInteger ;
	bd:name "LBSTNRC"^^xsd:string ;
	bd:description "For normal range values that are character in ordinal scale or if categorical ranges were supplied (e.g., '-1 to +1', 'NEGATIVE TO TRACE')."^^xsd:string ;
	bd:format ""^^xsd:string ;
	bd:ctAndFormat ""^^xsd:string ;
	bd:compliance <http://www.assero.co.uk/CSN#da9f1092-7a20-4c97-9144-8bac2e72d1ea> ;
.
<http://www.cdisc.org/LB/V1#DVLBNRIND>
	rdf:type bd:SdtmDomainVariable ;
	isoC:label "Reference Range Indicator"^^xsd:string ;
	bd:rule ""^^xsd:string ;
	bd:ordinal "22"^^xsd:positiveInteger ;
	bd:name "LBNRIND"^^xsd:string ;
	bd:description "1. Indicates where the value falls with respect to reference range defined by LBORNRLO and LBORNRHI, LBSTNRLO and LBSTNRHI, or by LBSTNRC. Examples: NORMAL, ABNORMAL, HIGH, LOW. 2. Sponsors should specify in the study metadata (Comments column in the define.xml) whether LBNRIND refers to the original or standard reference ranges and results. 3. Should not be used to indicate clinical significance."^^xsd:string ;
	bd:format ""^^xsd:string ;
	bd:ctAndFormat ""^^xsd:string ;
	bd:compliance <http://www.assero.co.uk/CSN#fc544083-2437-4ec0-97f4-767598bee682> ;
.
<http://www.cdisc.org/LB/V1#DVLBSTAT>
	rdf:type bd:SdtmDomainVariable ;
	isoC:label "Completion Status"^^xsd:string ;
	bd:rule ""^^xsd:string ;
	bd:ordinal "23"^^xsd:positiveInteger ;
	bd:name "LBSTAT"^^xsd:string ;
	bd:description "Used to indicate exam not done. Should be null if a result exists in LBORRES."^^xsd:string ;
	bd:format ""^^xsd:string ;
	bd:ctAndFormat ""^^xsd:string ;
	bd:compliance <http://www.assero.co.uk/CSN#da9f1092-7a20-4c97-9144-8bac2e72d1ea> ;
.
<http://www.cdisc.org/LB/V1#DVLBREASND>
	rdf:type bd:SdtmDomainVariable ;
	isoC:label "Reason Test Not Done"^^xsd:string ;
	bd:rule ""^^xsd:string ;
	bd:ordinal "24"^^xsd:positiveInteger ;
	bd:name "LBREASND"^^xsd:string ;
	bd:description "Describes why a measurement or test was not performed such as BROKEN EQUIPMENT, SUBJECT REFUSED, or SPECIMEN LOST. Used in conjunction with LBSTAT when value is NOT DONE."^^xsd:string ;
	bd:format ""^^xsd:string ;
	bd:ctAndFormat ""^^xsd:string ;
	bd:compliance <http://www.assero.co.uk/CSN#da9f1092-7a20-4c97-9144-8bac2e72d1ea> ;
.
<http://www.cdisc.org/LB/V1#DVLBNAM>
	rdf:type bd:SdtmDomainVariable ;
	isoC:label "Vendor Name"^^xsd:string ;
	bd:rule ""^^xsd:string ;
	bd:ordinal "25"^^xsd:positiveInteger ;
	bd:name "LBNAM"^^xsd:string ;
	bd:description "The name or identifier of the laboratory that performed the test."^^xsd:string ;
	bd:format ""^^xsd:string ;
	bd:ctAndFormat ""^^xsd:string ;
	bd:compliance <http://www.assero.co.uk/CSN#da9f1092-7a20-4c97-9144-8bac2e72d1ea> ;
.
<http://www.cdisc.org/LB/V1#DVLBLOINC>
	rdf:type bd:SdtmDomainVariable ;
	isoC:label "LOINC Code"^^xsd:string ;
	bd:rule ""^^xsd:string ;
	bd:ordinal "26"^^xsd:positiveInteger ;
	bd:name "LBLOINC"^^xsd:string ;
	bd:description "1. Dictionary-derived LOINC Code for LBTEST. 2. The sponsor is expected to provide the dictionary name and version used to map the terms utilizing the define.xml external codelist attributes"^^xsd:string ;
	bd:format ""^^xsd:string ;
	bd:ctAndFormat ""^^xsd:string ;
	bd:compliance <http://www.assero.co.uk/CSN#da9f1092-7a20-4c97-9144-8bac2e72d1ea> ;
.
<http://www.cdisc.org/LB/V1#DVLBSPEC>
	rdf:type bd:SdtmDomainVariable ;
	isoC:label "Specimen Type"^^xsd:string ;
	bd:rule ""^^xsd:string ;
	bd:ordinal "27"^^xsd:positiveInteger ;
	bd:name "LBSPEC"^^xsd:string ;
	bd:description "Defines the type of specimen used for a measurement. Examples: SERUM, PLASMA, URINE."^^xsd:string ;
	bd:format ""^^xsd:string ;
	bd:ctAndFormat ""^^xsd:string ;
	bd:compliance <http://www.assero.co.uk/CSN#da9f1092-7a20-4c97-9144-8bac2e72d1ea> ;
.
<http://www.cdisc.org/LB/V1#DVLBSPCCND>
	rdf:type bd:SdtmDomainVariable ;
	isoC:label "Specimen Condition"^^xsd:string ;
	bd:rule ""^^xsd:string ;
	bd:ordinal "28"^^xsd:positiveInteger ;
	bd:name "LBSPCCND"^^xsd:string ;
	bd:description "Free or standardized text describing the condition of the specimen e.g. HEMOLYZED, ICTERIC, LIPEMIC etc."^^xsd:string ;
	bd:format ""^^xsd:string ;
	bd:ctAndFormat ""^^xsd:string ;
	bd:compliance <http://www.assero.co.uk/CSN#da9f1092-7a20-4c97-9144-8bac2e72d1ea> ;
.
<http://www.cdisc.org/LB/V1#DVLBMETHOD>
	rdf:type bd:SdtmDomainVariable ;
	isoC:label "Method of Test or Examination"^^xsd:string ;
	bd:rule ""^^xsd:string ;
	bd:ordinal "29"^^xsd:positiveInteger ;
	bd:name "LBMETHOD"^^xsd:string ;
	bd:description "Method of the test or examination. Examples: EIA (Enzyme Immunoassay), ELECTROPHORESIS, DIPSTICK"^^xsd:string ;
	bd:format ""^^xsd:string ;
	bd:ctAndFormat ""^^xsd:string ;
	bd:compliance <http://www.assero.co.uk/CSN#da9f1092-7a20-4c97-9144-8bac2e72d1ea> ;
.
<http://www.cdisc.org/LB/V1#DVLBBLFL>
	rdf:type bd:SdtmDomainVariable ;
	isoC:label "Baseline Flag"^^xsd:string ;
	bd:rule ""^^xsd:string ;
	bd:ordinal "30"^^xsd:positiveInteger ;
	bd:name "LBBLFL"^^xsd:string ;
	bd:description "Indicator used to identify a baseline value. The value should be 'Y' or null."^^xsd:string ;
	bd:format ""^^xsd:string ;
	bd:ctAndFormat ""^^xsd:string ;
	bd:compliance <http://www.assero.co.uk/CSN#fc544083-2437-4ec0-97f4-767598bee682> ;
.
<http://www.cdisc.org/LB/V1#DVLBFAST>
	rdf:type bd:SdtmDomainVariable ;
	isoC:label "Fasting Status"^^xsd:string ;
	bd:rule ""^^xsd:string ;
	bd:ordinal "31"^^xsd:positiveInteger ;
	bd:name "LBFAST"^^xsd:string ;
	bd:description "Indicator used to identify fasting status such as Y, N, U, or null if not relevant."^^xsd:string ;
	bd:format ""^^xsd:string ;
	bd:ctAndFormat ""^^xsd:string ;
	bd:compliance <http://www.assero.co.uk/CSN#da9f1092-7a20-4c97-9144-8bac2e72d1ea> ;
.
<http://www.cdisc.org/LB/V1#DVLBDRVFL>
	rdf:type bd:SdtmDomainVariable ;
	isoC:label "Derived Flag"^^xsd:string ;
	bd:rule ""^^xsd:string ;
	bd:ordinal "32"^^xsd:positiveInteger ;
	bd:name "LBDRVFL"^^xsd:string ;
	bd:description "Used to indicate a derived record. The value should be Y or null. Records that represent the average of other records, or do not come from the CRF, or are not as originally received or collected are examples of records that might be derived for the submission datasets. If LBDRVFL=Y, then LBORRES may be null, with LBSTRESC, and (if numeric) LBSTRESN having the derived value."^^xsd:string ;
	bd:format ""^^xsd:string ;
	bd:ctAndFormat ""^^xsd:string ;
	bd:compliance <http://www.assero.co.uk/CSN#da9f1092-7a20-4c97-9144-8bac2e72d1ea> ;
.
<http://www.cdisc.org/LB/V1#DVLBTOX>
	rdf:type bd:SdtmDomainVariable ;
	isoC:label "Toxicity"^^xsd:string ;
	bd:rule ""^^xsd:string ;
	bd:ordinal "33"^^xsd:positiveInteger ;
	bd:name "LBTOX"^^xsd:string ;
	bd:description "Description of toxicity quantified by LBTOXGR. The sponsor is expected to provide the name of the scale and version used to map the terms, utilizing the define.xml external codelist attributes."^^xsd:string ;
	bd:format ""^^xsd:string ;
	bd:ctAndFormat ""^^xsd:string ;
	bd:compliance <http://www.assero.co.uk/CSN#da9f1092-7a20-4c97-9144-8bac2e72d1ea> ;
.
<http://www.cdisc.org/LB/V1#DVLBTOXGR>
	rdf:type bd:SdtmDomainVariable ;
	isoC:label "Standard Toxicity Grade"^^xsd:string ;
	bd:rule ""^^xsd:string ;
	bd:ordinal "34"^^xsd:positiveInteger ;
	bd:name "LBTOXGR"^^xsd:string ;
	bd:description "Records toxicity grade value using a standard toxicity scale (such as the NCI CTCAE). If value is from a numeric scale, represent only the number (e.g., '2' and not 'Grade 2')."^^xsd:string ;
	bd:format ""^^xsd:string ;
	bd:ctAndFormat ""^^xsd:string ;
	bd:compliance <http://www.assero.co.uk/CSN#da9f1092-7a20-4c97-9144-8bac2e72d1ea> ;
.
<http://www.cdisc.org/LB/V1#DVVISITNUM>
	rdf:type bd:SdtmDomainVariable ;
	isoC:label "Visit Number"^^xsd:string ;
	bd:rule ""^^xsd:string ;
	bd:ordinal "35"^^xsd:positiveInteger ;
	bd:name "VISITNUM"^^xsd:string ;
	bd:description "Clinical encounter number. Numeric version of VISIT, used for sorting."^^xsd:string ;
	bd:format ""^^xsd:string ;
	bd:ctAndFormat ""^^xsd:string ;
	bd:compliance <http://www.assero.co.uk/CSN#fc544083-2437-4ec0-97f4-767598bee682> ;
.
<http://www.cdisc.org/LB/V1#DVVISIT>
	rdf:type bd:SdtmDomainVariable ;
	isoC:label "Visit Name"^^xsd:string ;
	bd:rule ""^^xsd:string ;
	bd:ordinal "36"^^xsd:positiveInteger ;
	bd:name "VISIT"^^xsd:string ;
	bd:description "1. Protocol-defined description of clinical encounter. 2. May be used in addition to VISITNUM and/or VISITDY."^^xsd:string ;
	bd:format ""^^xsd:string ;
	bd:ctAndFormat ""^^xsd:string ;
	bd:compliance <http://www.assero.co.uk/CSN#da9f1092-7a20-4c97-9144-8bac2e72d1ea> ;
.
<http://www.cdisc.org/LB/V1#DVVISITDY>
	rdf:type bd:SdtmDomainVariable ;
	isoC:label "Planned Study Day of Visit"^^xsd:string ;
	bd:rule ""^^xsd:string ;
	bd:ordinal "37"^^xsd:positiveInteger ;
	bd:name "VISITDY"^^xsd:string ;
	bd:description "Planned study day of the visit based upon RFSTDTC in Demographics."^^xsd:string ;
	bd:format ""^^xsd:string ;
	bd:ctAndFormat ""^^xsd:string ;
	bd:compliance <http://www.assero.co.uk/CSN#da9f1092-7a20-4c97-9144-8bac2e72d1ea> ;
.
<http://www.cdisc.org/LB/V1#DVLBDTC>
	rdf:type bd:SdtmDomainVariable ;
	isoC:label "Date/Time of Specimen Collection"^^xsd:string ;
	bd:rule ""^^xsd:string ;
	bd:ordinal "38"^^xsd:positiveInteger ;
	bd:name "LBDTC"^^xsd:string ;
	bd:description ""^^xsd:string ;
	bd:format ""^^xsd:string ;
	bd:ctAndFormat ""^^xsd:string ;
	bd:compliance <http://www.assero.co.uk/CSN#fc544083-2437-4ec0-97f4-767598bee682> ;
.
<http://www.cdisc.org/LB/V1#DVLBENDTC>
	rdf:type bd:SdtmDomainVariable ;
	isoC:label "End Date/Time of Specimen Collection"^^xsd:string ;
	bd:rule ""^^xsd:string ;
	bd:ordinal "39"^^xsd:positiveInteger ;
	bd:name "LBENDTC"^^xsd:string ;
	bd:description ""^^xsd:string ;
	bd:format ""^^xsd:string ;
	bd:ctAndFormat ""^^xsd:string ;
	bd:compliance <http://www.assero.co.uk/CSN#da9f1092-7a20-4c97-9144-8bac2e72d1ea> ;
.
<http://www.cdisc.org/LB/V1#DVLBDY>
	rdf:type bd:SdtmDomainVariable ;
	isoC:label "Study Day of Specimen Collection"^^xsd:string ;
	bd:rule ""^^xsd:string ;
	bd:ordinal "40"^^xsd:positiveInteger ;
	bd:name "LBDY"^^xsd:string ;
	bd:description "1. Study day of specimen collection, measured as integer days.  2. Algorithm for calculations must be relative to the sponsor-defined RFSTDTC variable in Demographics. This formula should be consistent across the submission."^^xsd:string ;
	bd:format ""^^xsd:string ;
	bd:ctAndFormat ""^^xsd:string ;
	bd:compliance <http://www.assero.co.uk/CSN#da9f1092-7a20-4c97-9144-8bac2e72d1ea> ;
.
<http://www.cdisc.org/LB/V1#DVLBTPT>
	rdf:type bd:SdtmDomainVariable ;
	isoC:label "Planned Time Point Name"^^xsd:string ;
	bd:rule ""^^xsd:string ;
	bd:ordinal "41"^^xsd:positiveInteger ;
	bd:name "LBTPT"^^xsd:string ;
	bd:description "1. Text Description of time when specimen should be taken. 2. This may be represented as an elapsed time relative to a fixed reference point, such as time of last dose. See LBTPTNUM and LBTPTREF. Examples: Start, 5 min post."^^xsd:string ;
	bd:format ""^^xsd:string ;
	bd:ctAndFormat ""^^xsd:string ;
	bd:compliance <http://www.assero.co.uk/CSN#da9f1092-7a20-4c97-9144-8bac2e72d1ea> ;
.
<http://www.cdisc.org/LB/V1#DVLBTPTNUM>
	rdf:type bd:SdtmDomainVariable ;
	isoC:label "Planned Time Point Number"^^xsd:string ;
	bd:rule ""^^xsd:string ;
	bd:ordinal "42"^^xsd:positiveInteger ;
	bd:name "LBTPTNUM"^^xsd:string ;
	bd:description "Numerical version of LBTPT to aid in sorting."^^xsd:string ;
	bd:format ""^^xsd:string ;
	bd:ctAndFormat ""^^xsd:string ;
	bd:compliance <http://www.assero.co.uk/CSN#da9f1092-7a20-4c97-9144-8bac2e72d1ea> ;
.
<http://www.cdisc.org/LB/V1#DVLBELTM>
	rdf:type bd:SdtmDomainVariable ;
	isoC:label "Planned Elapsed Time from Time Point Ref"^^xsd:string ;
	bd:rule ""^^xsd:string ;
	bd:ordinal "43"^^xsd:positiveInteger ;
	bd:name "LBELTM"^^xsd:string ;
	bd:description "Planned Elapsed time (in ISO 8601) relative to a planned fixed reference (LBTPTREF). This variable is useful where there are repetitive measures. Not a clock time or a date time variable. Represented as an ISO 8601 duration. Examples: '-PT15M' to represent the period of 15 minutes prior to the reference point indicated by LBTPTREF, or 'PT8H' to represent the period of 8 hours after the reference point indicated by LBTPTREF."^^xsd:string ;
	bd:format ""^^xsd:string ;
	bd:ctAndFormat ""^^xsd:string ;
	bd:compliance <http://www.assero.co.uk/CSN#da9f1092-7a20-4c97-9144-8bac2e72d1ea> ;
.
<http://www.cdisc.org/LB/V1#DVLBTPTREF>
	rdf:type bd:SdtmDomainVariable ;
	isoC:label "Time Point Reference"^^xsd:string ;
	bd:rule ""^^xsd:string ;
	bd:ordinal "44"^^xsd:positiveInteger ;
	bd:name "LBTPTREF"^^xsd:string ;
	bd:description "Name of the fixed reference point referred to by LBELTM, LBTPTNUM, and LBTPT. Examples: PREVIOUS DOSE, PREVIOUS MEAL."^^xsd:string ;
	bd:format ""^^xsd:string ;
	bd:ctAndFormat ""^^xsd:string ;
	bd:compliance <http://www.assero.co.uk/CSN#da9f1092-7a20-4c97-9144-8bac2e72d1ea> ;
.
<http://www.cdisc.org/LB/V1#DVLBRFTDTC>
	rdf:type bd:SdtmDomainVariable ;
	isoC:label "Date/Time of Reference Time Point"^^xsd:string ;
	bd:rule ""^^xsd:string ;
	bd:ordinal "45"^^xsd:positiveInteger ;
	bd:name "LBRFTDTC"^^xsd:string ;
	bd:description "Date/time of the reference time point, LBTPTREF."^^xsd:string ;
	bd:format ""^^xsd:string ;
	bd:ctAndFormat ""^^xsd:string ;
	bd:compliance <http://www.assero.co.uk/CSN#da9f1092-7a20-4c97-9144-8bac2e72d1ea> ;
.
<http://www.cdisc.org/PE/V1>
	rdf:type bd:SdtmDomain ;
	isoC:label "Physical Examination"^^xsd:string ;
	isoT:hasState <http://www.cdisc.org/PE/V1#RS> ;
	isoT:hasIdentifier <http://www.cdisc.org/PE/V1#SI> ;
	isoT:origin ""^^xsd:string ;
	isoT:changeDescription ""^^xsd:string ;
	isoT:creationDate "2008-11-12T00:00:00+00:00"^^xsd:dateTime ;
	isoT:lastChangeDate "2008-11-12T00:00:00+00:00"^^xsd:dateTime ;
	isoT:explanatoryComment ""^^xsd:string ;
	bd:rule ""^^xsd:string ;
	bd:ordinal "1"^^xsd:positiveInteger ;
	bd:includesColumn <http://www.cdisc.org/PE/V1#DVSTUDYID> ;
	bd:includesColumn <http://www.cdisc.org/PE/V1#DVDOMAIN> ;
	bd:includesColumn <http://www.cdisc.org/PE/V1#DVUSUBJID> ;
	bd:includesColumn <http://www.cdisc.org/PE/V1#DVPESEQ> ;
	bd:includesColumn <http://www.cdisc.org/PE/V1#DVPEGRPID> ;
	bd:includesColumn <http://www.cdisc.org/PE/V1#DVPESPID> ;
	bd:includesColumn <http://www.cdisc.org/PE/V1#DVPETESTCD> ;
	bd:includesColumn <http://www.cdisc.org/PE/V1#DVPETEST> ;
	bd:includesColumn <http://www.cdisc.org/PE/V1#DVPEMODIFY> ;
	bd:includesColumn <http://www.cdisc.org/PE/V1#DVPECAT> ;
	bd:includesColumn <http://www.cdisc.org/PE/V1#DVPESCAT> ;
	bd:includesColumn <http://www.cdisc.org/PE/V1#DVPEBODSYS> ;
	bd:includesColumn <http://www.cdisc.org/PE/V1#DVPEORRES> ;
	bd:includesColumn <http://www.cdisc.org/PE/V1#DVPEORRESU> ;
	bd:includesColumn <http://www.cdisc.org/PE/V1#DVPESTRESC> ;
	bd:includesColumn <http://www.cdisc.org/PE/V1#DVPESTAT> ;
	bd:includesColumn <http://www.cdisc.org/PE/V1#DVPEREASND> ;
	bd:includesColumn <http://www.cdisc.org/PE/V1#DVPELOC> ;
	bd:includesColumn <http://www.cdisc.org/PE/V1#DVPEMETHOD> ;
	bd:includesColumn <http://www.cdisc.org/PE/V1#DVPEEVAL> ;
	bd:includesColumn <http://www.cdisc.org/PE/V1#DVVISITNUM> ;
	bd:includesColumn <http://www.cdisc.org/PE/V1#DVVISIT> ;
	bd:includesColumn <http://www.cdisc.org/PE/V1#DVVISITDY> ;
	bd:includesColumn <http://www.cdisc.org/PE/V1#DVPEDTC> ;
	bd:includesColumn <http://www.cdisc.org/PE/V1#DVPEDY> ;
	bd:prefix ""^^xsd:string ;
	bd:structure ""^^xsd:string ;
.
<http://www.cdisc.org/PE/V1#RS>
	rdf:type isoR:RegistrationState ;
	isoR:registrationStatus "Standard"^^xsd:string ;
	isoR:administrativeNote ""^^xsd:string ;
	isoR:effectiveDate "2016-01-01T00:00:00+00:00"^^xsd:dateTime ;
	isoR:untilDate "2016-01-01T00:00:00+00:00"^^xsd:dateTime ;
	isoR:unresolvedIssue ""^^xsd:string ;
	isoR:administrativeStatus ""^^xsd:string ;
	isoR:previousState "Standard"^^xsd:string ;
	isoR:multipleEdit "false"^^xsd:boolean ;
	isoR:byAuthority <http://www.assero.co.uk/RA#DUNS084433759> ;
.
<http://www.cdisc.org/PE/V1#SI>
	rdf:type isoI:ScopedIdentifier ;
	isoI:identifier "PE"^^xsd:string ;
	isoI:versionLabel "2008-11-12 Release"^^xsd:string ;
	isoI:version "1"^^xsd:positiveInteger ;
	isoI:semanticVersion "1.0.0"^^xsd:string ;
	isoI:hasScope <http://www.assero.co.uk/NS#CDISC> ;
.
<http://www.cdisc.org/PE/V1#DVSTUDYID>
	rdf:type bd:SdtmDomainVariable ;
	isoC:label "Study Identifier"^^xsd:string ;
	bd:rule ""^^xsd:string ;
	bd:ordinal "1"^^xsd:positiveInteger ;
	bd:name "STUDYID"^^xsd:string ;
	bd:description "Unique identifier for a study."^^xsd:string ;
	bd:format ""^^xsd:string ;
	bd:ctAndFormat ""^^xsd:string ;
	bd:compliance <http://www.assero.co.uk/CSN#8f112ba7-caa3-4f34-a9fc-8bc808b13955> ;
.
<http://www.cdisc.org/PE/V1#DVDOMAIN>
	rdf:type bd:SdtmDomainVariable ;
	isoC:label "Domain Abbreviation"^^xsd:string ;
	bd:rule ""^^xsd:string ;
	bd:ordinal "2"^^xsd:positiveInteger ;
	bd:name "DOMAIN"^^xsd:string ;
	bd:description "Two-character abbreviation for the domain."^^xsd:string ;
	bd:format ""^^xsd:string ;
	bd:ctAndFormat ""^^xsd:string ;
	bd:compliance <http://www.assero.co.uk/CSN#8f112ba7-caa3-4f34-a9fc-8bc808b13955> ;
.
<http://www.cdisc.org/PE/V1#DVUSUBJID>
	rdf:type bd:SdtmDomainVariable ;
	isoC:label "Unique Subject Identifier"^^xsd:string ;
	bd:rule ""^^xsd:string ;
	bd:ordinal "3"^^xsd:positiveInteger ;
	bd:name "USUBJID"^^xsd:string ;
	bd:description "Identifier used to uniquely identify a subject across all studies for all applications or submissions involving the product."^^xsd:string ;
	bd:format ""^^xsd:string ;
	bd:ctAndFormat ""^^xsd:string ;
	bd:compliance <http://www.assero.co.uk/CSN#8f112ba7-caa3-4f34-a9fc-8bc808b13955> ;
.
<http://www.cdisc.org/PE/V1#DVPESEQ>
	rdf:type bd:SdtmDomainVariable ;
	isoC:label "Sequence Number"^^xsd:string ;
	bd:rule ""^^xsd:string ;
	bd:ordinal "4"^^xsd:positiveInteger ;
	bd:name "PESEQ"^^xsd:string ;
	bd:description "Sequence Number given to ensure uniqueness of subject records within a domain. May be any valid number."^^xsd:string ;
	bd:format ""^^xsd:string ;
	bd:ctAndFormat ""^^xsd:string ;
	bd:compliance <http://www.assero.co.uk/CSN#8f112ba7-caa3-4f34-a9fc-8bc808b13955> ;
.
<http://www.cdisc.org/PE/V1#DVPEGRPID>
	rdf:type bd:SdtmDomainVariable ;
	isoC:label "Group ID"^^xsd:string ;
	bd:rule ""^^xsd:string ;
	bd:ordinal "5"^^xsd:positiveInteger ;
	bd:name "PEGRPID"^^xsd:string ;
	bd:description "Used to tie together a block of related records in a single domain for a subject."^^xsd:string ;
	bd:format ""^^xsd:string ;
	bd:ctAndFormat ""^^xsd:string ;
	bd:compliance <http://www.assero.co.uk/CSN#da9f1092-7a20-4c97-9144-8bac2e72d1ea> ;
.
<http://www.cdisc.org/PE/V1#DVPESPID>
	rdf:type bd:SdtmDomainVariable ;
	isoC:label "Sponsor-Defined Identifier"^^xsd:string ;
	bd:rule ""^^xsd:string ;
	bd:ordinal "6"^^xsd:positiveInteger ;
	bd:name "PESPID"^^xsd:string ;
	bd:description "Sponsor-defined reference number. Perhaps pre-printed on the CRF as an explicit line identifier or defined in the sponsor's operational database. Example: Line number on a CRF."^^xsd:string ;
	bd:format ""^^xsd:string ;
	bd:ctAndFormat ""^^xsd:string ;
	bd:compliance <http://www.assero.co.uk/CSN#da9f1092-7a20-4c97-9144-8bac2e72d1ea> ;
.
<http://www.cdisc.org/PE/V1#DVPETESTCD>
	rdf:type bd:SdtmDomainVariable ;
	isoC:label "Body System Examined Short Name"^^xsd:string ;
	bd:rule ""^^xsd:string ;
	bd:ordinal "7"^^xsd:positiveInteger ;
	bd:name "PETESTCD"^^xsd:string ;
	bd:description "Short name of the measurement, test, or examination described in PETEST. It can be used as a column name when converting a dataset from a vertical to a horizontal format. The value in PETESTCD cannot be longer than 8 characters, nor can it start with a number (e.g.'1TEST'). PETESTCD cannot contain characters other than letters, numbers, or underscores."^^xsd:string ;
	bd:format ""^^xsd:string ;
	bd:ctAndFormat ""^^xsd:string ;
	bd:compliance <http://www.assero.co.uk/CSN#8f112ba7-caa3-4f34-a9fc-8bc808b13955> ;
.
<http://www.cdisc.org/PE/V1#DVPETEST>
	rdf:type bd:SdtmDomainVariable ;
	isoC:label "Body System Examined"^^xsd:string ;
	bd:rule ""^^xsd:string ;
	bd:ordinal "8"^^xsd:positiveInteger ;
	bd:name "PETEST"^^xsd:string ;
	bd:description "Verbatim term part of the body examined. The value in PETEST cannot be longer than 40 characters. Examples: Cardiovascular and Respiratory. For subject-level exam, value should be 'Physical Examination'."^^xsd:string ;
	bd:format ""^^xsd:string ;
	bd:ctAndFormat ""^^xsd:string ;
	bd:compliance <http://www.assero.co.uk/CSN#8f112ba7-caa3-4f34-a9fc-8bc808b13955> ;
.
<http://www.cdisc.org/PE/V1#DVPEMODIFY>
	rdf:type bd:SdtmDomainVariable ;
	isoC:label "Modified Reported Term"^^xsd:string ;
	bd:rule ""^^xsd:string ;
	bd:ordinal "9"^^xsd:positiveInteger ;
	bd:name "PEMODIFY"^^xsd:string ;
	bd:description "If PEORRES is modified as part of a defined procedure, then PEMODIFY will contain the modified text."^^xsd:string ;
	bd:format ""^^xsd:string ;
	bd:ctAndFormat ""^^xsd:string ;
	bd:compliance <http://www.assero.co.uk/CSN#da9f1092-7a20-4c97-9144-8bac2e72d1ea> ;
.
<http://www.cdisc.org/PE/V1#DVPECAT>
	rdf:type bd:SdtmDomainVariable ;
	isoC:label "Category for Examination"^^xsd:string ;
	bd:rule ""^^xsd:string ;
	bd:ordinal "10"^^xsd:positiveInteger ;
	bd:name "PECAT"^^xsd:string ;
	bd:description "Used to define a category of examination. Examples: GENERAL, NEUROLOGICAL."^^xsd:string ;
	bd:format ""^^xsd:string ;
	bd:ctAndFormat ""^^xsd:string ;
	bd:compliance <http://www.assero.co.uk/CSN#da9f1092-7a20-4c97-9144-8bac2e72d1ea> ;
.
<http://www.cdisc.org/PE/V1#DVPESCAT>
	rdf:type bd:SdtmDomainVariable ;
	isoC:label "Subcategory for Examination"^^xsd:string ;
	bd:rule ""^^xsd:string ;
	bd:ordinal "11"^^xsd:positiveInteger ;
	bd:name "PESCAT"^^xsd:string ;
	bd:description "A further categorization of the examination. Used if needed to add further detail to PECAT."^^xsd:string ;
	bd:format ""^^xsd:string ;
	bd:ctAndFormat ""^^xsd:string ;
	bd:compliance <http://www.assero.co.uk/CSN#da9f1092-7a20-4c97-9144-8bac2e72d1ea> ;
.
<http://www.cdisc.org/PE/V1#DVPEBODSYS>
	rdf:type bd:SdtmDomainVariable ;
	isoC:label "Body System or Organ Class"^^xsd:string ;
	bd:rule ""^^xsd:string ;
	bd:ordinal "12"^^xsd:positiveInteger ;
	bd:name "PEBODSYS"^^xsd:string ;
	bd:description "1. Body system or organ class ( MedDRA SOC) that is involved in a measurement from the standard hierarchy (e.g., MedDRA)."^^xsd:string ;
	bd:format ""^^xsd:string ;
	bd:ctAndFormat ""^^xsd:string ;
	bd:compliance <http://www.assero.co.uk/CSN#da9f1092-7a20-4c97-9144-8bac2e72d1ea> ;
.
<http://www.cdisc.org/PE/V1#DVPEORRES>
	rdf:type bd:SdtmDomainVariable ;
	isoC:label "Verbatim Examination Finding"^^xsd:string ;
	bd:rule ""^^xsd:string ;
	bd:ordinal "13"^^xsd:positiveInteger ;
	bd:name "PEORRES"^^xsd:string ;
	bd:description "Text description of any abnormal findings. If the examination was completed and there were no abnormal findings, the value should be NORMAL. If the examination was not performed on a particular body system, or at the subject level, then the value should be null, and NOT DONE should appear in PESTAT."^^xsd:string ;
	bd:format ""^^xsd:string ;
	bd:ctAndFormat ""^^xsd:string ;
	bd:compliance <http://www.assero.co.uk/CSN#fc544083-2437-4ec0-97f4-767598bee682> ;
.
<http://www.cdisc.org/PE/V1#DVPEORRESU>
	rdf:type bd:SdtmDomainVariable ;
	isoC:label "Original Units"^^xsd:string ;
	bd:rule ""^^xsd:string ;
	bd:ordinal "14"^^xsd:positiveInteger ;
	bd:name "PEORRESU"^^xsd:string ;
	bd:description "Original units in which the data were collected. The unit for PEORRES."^^xsd:string ;
	bd:format ""^^xsd:string ;
	bd:ctAndFormat ""^^xsd:string ;
	bd:compliance <http://www.assero.co.uk/CSN#da9f1092-7a20-4c97-9144-8bac2e72d1ea> ;
.
<http://www.cdisc.org/PE/V1#DVPESTRESC>
	rdf:type bd:SdtmDomainVariable ;
	isoC:label "Character Result/Finding in Std Format"^^xsd:string ;
	bd:rule ""^^xsd:string ;
	bd:ordinal "15"^^xsd:positiveInteger ;
	bd:name "PESTRESC"^^xsd:string ;
	bd:description "If there are findings for a body system, then either the dictionary preferred term (if findings are coded using a dictionary) or PEORRES (if findings are not coded) should appear here. If PEORRES is null, PESTRESC should be null"^^xsd:string ;
	bd:format ""^^xsd:string ;
	bd:ctAndFormat ""^^xsd:string ;
	bd:compliance <http://www.assero.co.uk/CSN#fc544083-2437-4ec0-97f4-767598bee682> ;
.
<http://www.cdisc.org/PE/V1#DVPESTAT>
	rdf:type bd:SdtmDomainVariable ;
	isoC:label "Completion Status"^^xsd:string ;
	bd:rule ""^^xsd:string ;
	bd:ordinal "16"^^xsd:positiveInteger ;
	bd:name "PESTAT"^^xsd:string ;
	bd:description "Used to indicate exam not done. Should be null if a result exists in PEORRES."^^xsd:string ;
	bd:format ""^^xsd:string ;
	bd:ctAndFormat ""^^xsd:string ;
	bd:compliance <http://www.assero.co.uk/CSN#da9f1092-7a20-4c97-9144-8bac2e72d1ea> ;
.
<http://www.cdisc.org/PE/V1#DVPEREASND>
	rdf:type bd:SdtmDomainVariable ;
	isoC:label "Reason Not Examined"^^xsd:string ;
	bd:rule ""^^xsd:string ;
	bd:ordinal "17"^^xsd:positiveInteger ;
	bd:name "PEREASND"^^xsd:string ;
	bd:description "Describes why an examination was not performed or why a body system was not examined. Example: SUBJECT REFUSED. Used in conjunction with STAT when value is NOT DONE."^^xsd:string ;
	bd:format ""^^xsd:string ;
	bd:ctAndFormat ""^^xsd:string ;
	bd:compliance <http://www.assero.co.uk/CSN#da9f1092-7a20-4c97-9144-8bac2e72d1ea> ;
.
<http://www.cdisc.org/PE/V1#DVPELOC>
	rdf:type bd:SdtmDomainVariable ;
	isoC:label "Location of Physical Exam Finding"^^xsd:string ;
	bd:rule ""^^xsd:string ;
	bd:ordinal "18"^^xsd:positiveInteger ;
	bd:name "PELOC"^^xsd:string ;
	bd:description "Can be used to specify where a physical exam finding occurred. Example: LEFT ARM for skin rash."^^xsd:string ;
	bd:format ""^^xsd:string ;
	bd:ctAndFormat ""^^xsd:string ;
	bd:compliance <http://www.assero.co.uk/CSN#da9f1092-7a20-4c97-9144-8bac2e72d1ea> ;
.
<http://www.cdisc.org/PE/V1#DVPEMETHOD>
	rdf:type bd:SdtmDomainVariable ;
	isoC:label "Method of Test or Examination"^^xsd:string ;
	bd:rule ""^^xsd:string ;
	bd:ordinal "19"^^xsd:positiveInteger ;
	bd:name "PEMETHOD"^^xsd:string ;
	bd:description "Method of the test or examination. Examples: XRAY, MRI."^^xsd:string ;
	bd:format ""^^xsd:string ;
	bd:ctAndFormat ""^^xsd:string ;
	bd:compliance <http://www.assero.co.uk/CSN#da9f1092-7a20-4c97-9144-8bac2e72d1ea> ;
.
<http://www.cdisc.org/PE/V1#DVPEEVAL>
	rdf:type bd:SdtmDomainVariable ;
	isoC:label "Evaluator"^^xsd:string ;
	bd:rule ""^^xsd:string ;
	bd:ordinal "20"^^xsd:positiveInteger ;
	bd:name "PEEVAL"^^xsd:string ;
	bd:description "Role of the person who provided the evaluation. Used only for results that are subjective (e.g., assigned by a person or a group). Should be null for records that contain collected or derived data. Examples: INVESTIGATOR, ADJUDICATION COMMITTEE, VENDOR."^^xsd:string ;
	bd:format ""^^xsd:string ;
	bd:ctAndFormat ""^^xsd:string ;
	bd:compliance <http://www.assero.co.uk/CSN#da9f1092-7a20-4c97-9144-8bac2e72d1ea> ;
.
<http://www.cdisc.org/PE/V1#DVVISITNUM>
	rdf:type bd:SdtmDomainVariable ;
	isoC:label "Visit Number"^^xsd:string ;
	bd:rule ""^^xsd:string ;
	bd:ordinal "21"^^xsd:positiveInteger ;
	bd:name "VISITNUM"^^xsd:string ;
	bd:description "Clinical encounter number. Numeric version of VISIT, used for sorting."^^xsd:string ;
	bd:format ""^^xsd:string ;
	bd:ctAndFormat ""^^xsd:string ;
	bd:compliance <http://www.assero.co.uk/CSN#fc544083-2437-4ec0-97f4-767598bee682> ;
.
<http://www.cdisc.org/PE/V1#DVVISIT>
	rdf:type bd:SdtmDomainVariable ;
	isoC:label "Visit Name"^^xsd:string ;
	bd:rule ""^^xsd:string ;
	bd:ordinal "22"^^xsd:positiveInteger ;
	bd:name "VISIT"^^xsd:string ;
	bd:description "1. Protocol-defined description of clinical encounter. 2. May be used in addition to VISITNUM and/or VISITDY."^^xsd:string ;
	bd:format ""^^xsd:string ;
	bd:ctAndFormat ""^^xsd:string ;
	bd:compliance <http://www.assero.co.uk/CSN#da9f1092-7a20-4c97-9144-8bac2e72d1ea> ;
.
<http://www.cdisc.org/PE/V1#DVVISITDY>
	rdf:type bd:SdtmDomainVariable ;
	isoC:label "Planned Study Day of Visit"^^xsd:string ;
	bd:rule ""^^xsd:string ;
	bd:ordinal "23"^^xsd:positiveInteger ;
	bd:name "VISITDY"^^xsd:string ;
	bd:description "Planned study day of the visit based upon RFSTDTC in Demographics."^^xsd:string ;
	bd:format ""^^xsd:string ;
	bd:ctAndFormat ""^^xsd:string ;
	bd:compliance <http://www.assero.co.uk/CSN#da9f1092-7a20-4c97-9144-8bac2e72d1ea> ;
.
<http://www.cdisc.org/PE/V1#DVPEDTC>
	rdf:type bd:SdtmDomainVariable ;
	isoC:label "Date/Time of Examination"^^xsd:string ;
	bd:rule ""^^xsd:string ;
	bd:ordinal "24"^^xsd:positiveInteger ;
	bd:name "PEDTC"^^xsd:string ;
	bd:description ""^^xsd:string ;
	bd:format ""^^xsd:string ;
	bd:ctAndFormat ""^^xsd:string ;
	bd:compliance <http://www.assero.co.uk/CSN#fc544083-2437-4ec0-97f4-767598bee682> ;
.
<http://www.cdisc.org/PE/V1#DVPEDY>
	rdf:type bd:SdtmDomainVariable ;
	isoC:label "Study Day of Examination"^^xsd:string ;
	bd:rule ""^^xsd:string ;
	bd:ordinal "25"^^xsd:positiveInteger ;
	bd:name "PEDY"^^xsd:string ;
	bd:description "1. Study day of physical exam, measured as integer days. 2. Algorithm for calculations must be relative to the sponsor-defined RFSTDTC variable in Demographics."^^xsd:string ;
	bd:format ""^^xsd:string ;
	bd:ctAndFormat ""^^xsd:string ;
	bd:compliance <http://www.assero.co.uk/CSN#da9f1092-7a20-4c97-9144-8bac2e72d1ea> ;
.
<http://www.cdisc.org/QS/V1>
	rdf:type bd:SdtmDomain ;
	isoC:label "Questionnaires"^^xsd:string ;
	isoT:hasState <http://www.cdisc.org/QS/V1#RS> ;
	isoT:hasIdentifier <http://www.cdisc.org/QS/V1#SI> ;
	isoT:origin ""^^xsd:string ;
	isoT:changeDescription ""^^xsd:string ;
	isoT:creationDate "2008-11-12T00:00:00+00:00"^^xsd:dateTime ;
	isoT:lastChangeDate "2008-11-12T00:00:00+00:00"^^xsd:dateTime ;
	isoT:explanatoryComment ""^^xsd:string ;
	bd:rule ""^^xsd:string ;
	bd:ordinal "1"^^xsd:positiveInteger ;
	bd:includesColumn <http://www.cdisc.org/QS/V1#DVSTUDYID> ;
	bd:includesColumn <http://www.cdisc.org/QS/V1#DVDOMAIN> ;
	bd:includesColumn <http://www.cdisc.org/QS/V1#DVUSUBJID> ;
	bd:includesColumn <http://www.cdisc.org/QS/V1#DVQSSEQ> ;
	bd:includesColumn <http://www.cdisc.org/QS/V1#DVQSGRPID> ;
	bd:includesColumn <http://www.cdisc.org/QS/V1#DVQSSPID> ;
	bd:includesColumn <http://www.cdisc.org/QS/V1#DVQSTESTCD> ;
	bd:includesColumn <http://www.cdisc.org/QS/V1#DVQSTEST> ;
	bd:includesColumn <http://www.cdisc.org/QS/V1#DVQSCAT> ;
	bd:includesColumn <http://www.cdisc.org/QS/V1#DVQSSCAT> ;
	bd:includesColumn <http://www.cdisc.org/QS/V1#DVQSORRES> ;
	bd:includesColumn <http://www.cdisc.org/QS/V1#DVQSORRESU> ;
	bd:includesColumn <http://www.cdisc.org/QS/V1#DVQSSTRESC> ;
	bd:includesColumn <http://www.cdisc.org/QS/V1#DVQSSTRESN> ;
	bd:includesColumn <http://www.cdisc.org/QS/V1#DVQSSTRESU> ;
	bd:includesColumn <http://www.cdisc.org/QS/V1#DVQSSTAT> ;
	bd:includesColumn <http://www.cdisc.org/QS/V1#DVQSREASND> ;
	bd:includesColumn <http://www.cdisc.org/QS/V1#DVQSBLFL> ;
	bd:includesColumn <http://www.cdisc.org/QS/V1#DVQSDRVFL> ;
	bd:includesColumn <http://www.cdisc.org/QS/V1#DVVISITNUM> ;
	bd:includesColumn <http://www.cdisc.org/QS/V1#DVVISIT> ;
	bd:includesColumn <http://www.cdisc.org/QS/V1#DVVISITDY> ;
	bd:includesColumn <http://www.cdisc.org/QS/V1#DVQSDTC> ;
	bd:includesColumn <http://www.cdisc.org/QS/V1#DVQSDY> ;
	bd:includesColumn <http://www.cdisc.org/QS/V1#DVQSTPT> ;
	bd:includesColumn <http://www.cdisc.org/QS/V1#DVQSTPTNUM> ;
	bd:includesColumn <http://www.cdisc.org/QS/V1#DVQSELTM> ;
	bd:includesColumn <http://www.cdisc.org/QS/V1#DVQSTPTREF> ;
	bd:includesColumn <http://www.cdisc.org/QS/V1#DVQSRFTDTC> ;
	bd:includesColumn <http://www.cdisc.org/QS/V1#DVQSEVLINT> ;
	bd:prefix ""^^xsd:string ;
	bd:structure ""^^xsd:string ;
.
<http://www.cdisc.org/QS/V1#RS>
	rdf:type isoR:RegistrationState ;
	isoR:registrationStatus "Standard"^^xsd:string ;
	isoR:administrativeNote ""^^xsd:string ;
	isoR:effectiveDate "2016-01-01T00:00:00+00:00"^^xsd:dateTime ;
	isoR:untilDate "2016-01-01T00:00:00+00:00"^^xsd:dateTime ;
	isoR:unresolvedIssue ""^^xsd:string ;
	isoR:administrativeStatus ""^^xsd:string ;
	isoR:previousState "Standard"^^xsd:string ;
	isoR:multipleEdit "false"^^xsd:boolean ;
	isoR:byAuthority <http://www.assero.co.uk/RA#DUNS084433759> ;
.
<http://www.cdisc.org/QS/V1#SI>
	rdf:type isoI:ScopedIdentifier ;
	isoI:identifier "QS"^^xsd:string ;
	isoI:versionLabel "2008-11-12 Release"^^xsd:string ;
	isoI:version "1"^^xsd:positiveInteger ;
	isoI:semanticVersion "1.0.0"^^xsd:string ;
	isoI:hasScope <http://www.assero.co.uk/NS#CDISC> ;
.
<http://www.cdisc.org/QS/V1#DVSTUDYID>
	rdf:type bd:SdtmDomainVariable ;
	isoC:label "Study Identifier"^^xsd:string ;
	bd:rule ""^^xsd:string ;
	bd:ordinal "1"^^xsd:positiveInteger ;
	bd:name "STUDYID"^^xsd:string ;
	bd:description "Unique identifier for a study."^^xsd:string ;
	bd:format ""^^xsd:string ;
	bd:ctAndFormat ""^^xsd:string ;
	bd:compliance <http://www.assero.co.uk/CSN#8f112ba7-caa3-4f34-a9fc-8bc808b13955> ;
.
<http://www.cdisc.org/QS/V1#DVDOMAIN>
	rdf:type bd:SdtmDomainVariable ;
	isoC:label "Domain Abbreviation"^^xsd:string ;
	bd:rule ""^^xsd:string ;
	bd:ordinal "2"^^xsd:positiveInteger ;
	bd:name "DOMAIN"^^xsd:string ;
	bd:description "Two-character abbreviation for the domain."^^xsd:string ;
	bd:format ""^^xsd:string ;
	bd:ctAndFormat ""^^xsd:string ;
	bd:compliance <http://www.assero.co.uk/CSN#8f112ba7-caa3-4f34-a9fc-8bc808b13955> ;
.
<http://www.cdisc.org/QS/V1#DVUSUBJID>
	rdf:type bd:SdtmDomainVariable ;
	isoC:label "Unique Subject Identifier"^^xsd:string ;
	bd:rule ""^^xsd:string ;
	bd:ordinal "3"^^xsd:positiveInteger ;
	bd:name "USUBJID"^^xsd:string ;
	bd:description "Identifier used to uniquely identify a subject across all studies for all applications or submissions involving the product."^^xsd:string ;
	bd:format ""^^xsd:string ;
	bd:ctAndFormat ""^^xsd:string ;
	bd:compliance <http://www.assero.co.uk/CSN#8f112ba7-caa3-4f34-a9fc-8bc808b13955> ;
.
<http://www.cdisc.org/QS/V1#DVQSSEQ>
	rdf:type bd:SdtmDomainVariable ;
	isoC:label "Sequence Number"^^xsd:string ;
	bd:rule ""^^xsd:string ;
	bd:ordinal "4"^^xsd:positiveInteger ;
	bd:name "QSSEQ"^^xsd:string ;
	bd:description "Sequence Number given to ensure uniqueness of subject records within a domain. May be any valid number."^^xsd:string ;
	bd:format ""^^xsd:string ;
	bd:ctAndFormat ""^^xsd:string ;
	bd:compliance <http://www.assero.co.uk/CSN#8f112ba7-caa3-4f34-a9fc-8bc808b13955> ;
.
<http://www.cdisc.org/QS/V1#DVQSGRPID>
	rdf:type bd:SdtmDomainVariable ;
	isoC:label "Group ID"^^xsd:string ;
	bd:rule ""^^xsd:string ;
	bd:ordinal "5"^^xsd:positiveInteger ;
	bd:name "QSGRPID"^^xsd:string ;
	bd:description "Used to tie together a block of related records in a single domain for a subject."^^xsd:string ;
	bd:format ""^^xsd:string ;
	bd:ctAndFormat ""^^xsd:string ;
	bd:compliance <http://www.assero.co.uk/CSN#da9f1092-7a20-4c97-9144-8bac2e72d1ea> ;
.
<http://www.cdisc.org/QS/V1#DVQSSPID>
	rdf:type bd:SdtmDomainVariable ;
	isoC:label "Sponsor-Defined Identifier"^^xsd:string ;
	bd:rule ""^^xsd:string ;
	bd:ordinal "6"^^xsd:positiveInteger ;
	bd:name "QSSPID"^^xsd:string ;
	bd:description "Sponsor-defined reference number. Perhaps pre-printed on the CRF as an explicit line identifier or defined in the sponsor's operational database. Example: Question number on a questionnaire."^^xsd:string ;
	bd:format ""^^xsd:string ;
	bd:ctAndFormat ""^^xsd:string ;
	bd:compliance <http://www.assero.co.uk/CSN#da9f1092-7a20-4c97-9144-8bac2e72d1ea> ;
.
<http://www.cdisc.org/QS/V1#DVQSTESTCD>
	rdf:type bd:SdtmDomainVariable ;
	isoC:label "Question Short Name"^^xsd:string ;
	bd:rule ""^^xsd:string ;
	bd:ordinal "7"^^xsd:positiveInteger ;
	bd:name "QSTESTCD"^^xsd:string ;
	bd:description "Topic variable for QS. Short name for the value in QSTEST, which can be used as a column name when converting the dataset from a vertical format to a horizontal format. The value in QSTESTCD cannot be longer than 8 characters, nor can it start with a number (e.g.'1TEST'). QSTESTCD cannot contain characters other than letters, numbers, or underscores. Examples: COG01, GH1, PF1."^^xsd:string ;
	bd:format ""^^xsd:string ;
	bd:ctAndFormat ""^^xsd:string ;
	bd:compliance <http://www.assero.co.uk/CSN#8f112ba7-caa3-4f34-a9fc-8bc808b13955> ;
.
<http://www.cdisc.org/QS/V1#DVQSTEST>
	rdf:type bd:SdtmDomainVariable ;
	isoC:label "Question Name"^^xsd:string ;
	bd:rule ""^^xsd:string ;
	bd:ordinal "8"^^xsd:positiveInteger ;
	bd:name "QSTEST"^^xsd:string ;
	bd:description "Verbatim name of the question or group of questions used to obtain the measurement or finding. The value in QSTEST cannot be longer than 40 characters. Example: In General, How is Your Health?"^^xsd:string ;
	bd:format ""^^xsd:string ;
	bd:ctAndFormat ""^^xsd:string ;
	bd:compliance <http://www.assero.co.uk/CSN#8f112ba7-caa3-4f34-a9fc-8bc808b13955> ;
.
<http://www.cdisc.org/QS/V1#DVQSCAT>
	rdf:type bd:SdtmDomainVariable ;
	isoC:label "Category of Question"^^xsd:string ;
	bd:rule ""^^xsd:string ;
	bd:ordinal "9"^^xsd:positiveInteger ;
	bd:name "QSCAT"^^xsd:string ;
	bd:description "Used to define a category of related records that will be meaningful to the Reviewer. Examples: HAMILTON DEPRESSION SCALE, SF36, ADAS."^^xsd:string ;
	bd:format ""^^xsd:string ;
	bd:ctAndFormat ""^^xsd:string ;
	bd:compliance <http://www.assero.co.uk/CSN#8f112ba7-caa3-4f34-a9fc-8bc808b13955> ;
.
<http://www.cdisc.org/QS/V1#DVQSSCAT>
	rdf:type bd:SdtmDomainVariable ;
	isoC:label "Subcategory for Question"^^xsd:string ;
	bd:rule ""^^xsd:string ;
	bd:ordinal "10"^^xsd:positiveInteger ;
	bd:name "QSSCAT"^^xsd:string ;
	bd:description "A further categorization of the questions within the category. Examples: MENTAL HEALTH DOMAIN, DEPRESSION DOMAIN, WORD RECALL."^^xsd:string ;
	bd:format ""^^xsd:string ;
	bd:ctAndFormat ""^^xsd:string ;
	bd:compliance <http://www.assero.co.uk/CSN#da9f1092-7a20-4c97-9144-8bac2e72d1ea> ;
.
<http://www.cdisc.org/QS/V1#DVQSORRES>
	rdf:type bd:SdtmDomainVariable ;
	isoC:label "Finding in Original Units"^^xsd:string ;
	bd:rule ""^^xsd:string ;
	bd:ordinal "11"^^xsd:positiveInteger ;
	bd:name "QSORRES"^^xsd:string ;
	bd:description "Finding as originally received or collected (e.g. RARELY, SOMETIMES). When sponsors apply codelist to indicate the code values are statistically meaningful standardized scores, which are defined by sponsors or by valid methodologies such as SF36 questionnaires, QSORRES will contain the decode format, and QSSTRESC and QSSTRESN may contain the standardized code values or scores."^^xsd:string ;
	bd:format ""^^xsd:string ;
	bd:ctAndFormat ""^^xsd:string ;
	bd:compliance <http://www.assero.co.uk/CSN#fc544083-2437-4ec0-97f4-767598bee682> ;
.
<http://www.cdisc.org/QS/V1#DVQSORRESU>
	rdf:type bd:SdtmDomainVariable ;
	isoC:label "Original Units"^^xsd:string ;
	bd:rule ""^^xsd:string ;
	bd:ordinal "12"^^xsd:positiveInteger ;
	bd:name "QSORRESU"^^xsd:string ;
	bd:description "Original units in which the data were collected. The unit for QSORRES, such as minutes or seconds or the units associated with a visual analog scale."^^xsd:string ;
	bd:format ""^^xsd:string ;
	bd:ctAndFormat ""^^xsd:string ;
	bd:compliance <http://www.assero.co.uk/CSN#da9f1092-7a20-4c97-9144-8bac2e72d1ea> ;
.
<http://www.cdisc.org/QS/V1#DVQSSTRESC>
	rdf:type bd:SdtmDomainVariable ;
	isoC:label "Character Result/Finding in Std Format"^^xsd:string ;
	bd:rule ""^^xsd:string ;
	bd:ordinal "13"^^xsd:positiveInteger ;
	bd:name "QSSTRESC"^^xsd:string ;
	bd:description "Contains the finding for all questions or sub-scores, copied or derived from QSORRES in a standard format or standard units. QSSTRESC should store all findings in character format; if findings are numeric, they should also be stored in numeric format in QSSTRESN. If question scores are derived from the original finding, then the standard format is the score. Examples: 0, 1. When sponsors apply codelist to indicate the code values are statistically meaningful standardized scores, which are defined by sponsors or by valid methodologies such as SF36 questionnaires, QSORRES will contain the decode format, and QSSTRESC and QSSTRESN may contain the standardized code values or scores."^^xsd:string ;
	bd:format ""^^xsd:string ;
	bd:ctAndFormat ""^^xsd:string ;
	bd:compliance <http://www.assero.co.uk/CSN#fc544083-2437-4ec0-97f4-767598bee682> ;
.
<http://www.cdisc.org/QS/V1#DVQSSTRESN>
	rdf:type bd:SdtmDomainVariable ;
	isoC:label "Numeric Finding in Standard Units"^^xsd:string ;
	bd:rule ""^^xsd:string ;
	bd:ordinal "14"^^xsd:positiveInteger ;
	bd:name "QSSTRESN"^^xsd:string ;
	bd:description "Used for continuous or numeric findings in standard format; copied in numeric format from QSSTRESC. QSSTRESN should store all numeric results or findings."^^xsd:string ;
	bd:format ""^^xsd:string ;
	bd:ctAndFormat ""^^xsd:string ;
	bd:compliance <http://www.assero.co.uk/CSN#da9f1092-7a20-4c97-9144-8bac2e72d1ea> ;
.
<http://www.cdisc.org/QS/V1#DVQSSTRESU>
	rdf:type bd:SdtmDomainVariable ;
	isoC:label "Standard Units"^^xsd:string ;
	bd:rule ""^^xsd:string ;
	bd:ordinal "15"^^xsd:positiveInteger ;
	bd:name "QSSTRESU"^^xsd:string ;
	bd:description "Standardized unit used for QSSTRESC or QSSTRESN."^^xsd:string ;
	bd:format ""^^xsd:string ;
	bd:ctAndFormat ""^^xsd:string ;
	bd:compliance <http://www.assero.co.uk/CSN#da9f1092-7a20-4c97-9144-8bac2e72d1ea> ;
.
<http://www.cdisc.org/QS/V1#DVQSSTAT>
	rdf:type bd:SdtmDomainVariable ;
	isoC:label "Completion Status"^^xsd:string ;
	bd:rule ""^^xsd:string ;
	bd:ordinal "16"^^xsd:positiveInteger ;
	bd:name "QSSTAT"^^xsd:string ;
	bd:description "Used to indicate a questionnaire or response to a questionnaire was not done. Should be null if a result exists in QSORRES."^^xsd:string ;
	bd:format ""^^xsd:string ;
	bd:ctAndFormat ""^^xsd:string ;
	bd:compliance <http://www.assero.co.uk/CSN#da9f1092-7a20-4c97-9144-8bac2e72d1ea> ;
.
<http://www.cdisc.org/QS/V1#DVQSREASND>
	rdf:type bd:SdtmDomainVariable ;
	isoC:label "Reason Not Performed"^^xsd:string ;
	bd:rule ""^^xsd:string ;
	bd:ordinal "17"^^xsd:positiveInteger ;
	bd:name "QSREASND"^^xsd:string ;
	bd:description "Describes why a question was not answered. Used in conjunction with QSSTAT when value is NOT DONE. Example: SUBJECT REFUSED."^^xsd:string ;
	bd:format ""^^xsd:string ;
	bd:ctAndFormat ""^^xsd:string ;
	bd:compliance <http://www.assero.co.uk/CSN#da9f1092-7a20-4c97-9144-8bac2e72d1ea> ;
.
<http://www.cdisc.org/QS/V1#DVQSBLFL>
	rdf:type bd:SdtmDomainVariable ;
	isoC:label "Baseline Flag"^^xsd:string ;
	bd:rule ""^^xsd:string ;
	bd:ordinal "18"^^xsd:positiveInteger ;
	bd:name "QSBLFL"^^xsd:string ;
	bd:description "Indicator used to identify a baseline value. The value should be 'Y' or null."^^xsd:string ;
	bd:format ""^^xsd:string ;
	bd:ctAndFormat ""^^xsd:string ;
	bd:compliance <http://www.assero.co.uk/CSN#fc544083-2437-4ec0-97f4-767598bee682> ;
.
<http://www.cdisc.org/QS/V1#DVQSDRVFL>
	rdf:type bd:SdtmDomainVariable ;
	isoC:label "Derived Flag"^^xsd:string ;
	bd:rule ""^^xsd:string ;
	bd:ordinal "19"^^xsd:positiveInteger ;
	bd:name "QSDRVFL"^^xsd:string ;
	bd:description "Used to indicate a derived record. The value should be Y or null. Records that represent the average of other records or questionnaire sub-scores that do not come from the CRF are examples of records that would be derived for the submission datasets. If QSDRVFL=Y, then QSORRES may be null with QSSTRESC and (if numeric) QSSTRESN having the derived value."^^xsd:string ;
	bd:format ""^^xsd:string ;
	bd:ctAndFormat ""^^xsd:string ;
	bd:compliance <http://www.assero.co.uk/CSN#da9f1092-7a20-4c97-9144-8bac2e72d1ea> ;
.
<http://www.cdisc.org/QS/V1#DVVISITNUM>
	rdf:type bd:SdtmDomainVariable ;
	isoC:label "Visit Number"^^xsd:string ;
	bd:rule ""^^xsd:string ;
	bd:ordinal "20"^^xsd:positiveInteger ;
	bd:name "VISITNUM"^^xsd:string ;
	bd:description "Clinical encounter number. Numeric version of VISIT, used for sorting."^^xsd:string ;
	bd:format ""^^xsd:string ;
	bd:ctAndFormat ""^^xsd:string ;
	bd:compliance <http://www.assero.co.uk/CSN#fc544083-2437-4ec0-97f4-767598bee682> ;
.
<http://www.cdisc.org/QS/V1#DVVISIT>
	rdf:type bd:SdtmDomainVariable ;
	isoC:label "Visit Name"^^xsd:string ;
	bd:rule ""^^xsd:string ;
	bd:ordinal "21"^^xsd:positiveInteger ;
	bd:name "VISIT"^^xsd:string ;
	bd:description "1. Protocol-defined description of clinical encounter. 2. May be used in addition to VISITNUM and/or VISITDY."^^xsd:string ;
	bd:format ""^^xsd:string ;
	bd:ctAndFormat ""^^xsd:string ;
	bd:compliance <http://www.assero.co.uk/CSN#da9f1092-7a20-4c97-9144-8bac2e72d1ea> ;
.
<http://www.cdisc.org/QS/V1#DVVISITDY>
	rdf:type bd:SdtmDomainVariable ;
	isoC:label "Planned Study Day of Visit"^^xsd:string ;
	bd:rule ""^^xsd:string ;
	bd:ordinal "22"^^xsd:positiveInteger ;
	bd:name "VISITDY"^^xsd:string ;
	bd:description "Planned study day of the visit based upon RFSTDTC in Demographics."^^xsd:string ;
	bd:format ""^^xsd:string ;
	bd:ctAndFormat ""^^xsd:string ;
	bd:compliance <http://www.assero.co.uk/CSN#da9f1092-7a20-4c97-9144-8bac2e72d1ea> ;
.
<http://www.cdisc.org/QS/V1#DVQSDTC>
	rdf:type bd:SdtmDomainVariable ;
	isoC:label "Date/Time of Finding"^^xsd:string ;
	bd:rule ""^^xsd:string ;
	bd:ordinal "23"^^xsd:positiveInteger ;
	bd:name "QSDTC"^^xsd:string ;
	bd:description "Date of questionnaire."^^xsd:string ;
	bd:format ""^^xsd:string ;
	bd:ctAndFormat ""^^xsd:string ;
	bd:compliance <http://www.assero.co.uk/CSN#fc544083-2437-4ec0-97f4-767598bee682> ;
.
<http://www.cdisc.org/QS/V1#DVQSDY>
	rdf:type bd:SdtmDomainVariable ;
	isoC:label "Study Day of Finding"^^xsd:string ;
	bd:rule ""^^xsd:string ;
	bd:ordinal "24"^^xsd:positiveInteger ;
	bd:name "QSDY"^^xsd:string ;
	bd:description "1. Study day of finding collection, measured as integer days. 2. Algorithm for calculations must be relative to the sponsor-defined RFSTDTC variable in Demographics."^^xsd:string ;
	bd:format ""^^xsd:string ;
	bd:ctAndFormat ""^^xsd:string ;
	bd:compliance <http://www.assero.co.uk/CSN#da9f1092-7a20-4c97-9144-8bac2e72d1ea> ;
.
<http://www.cdisc.org/QS/V1#DVQSTPT>
	rdf:type bd:SdtmDomainVariable ;
	isoC:label "Planned Time Point Name"^^xsd:string ;
	bd:rule ""^^xsd:string ;
	bd:ordinal "25"^^xsd:positiveInteger ;
	bd:name "QSTPT"^^xsd:string ;
	bd:description "1. Text Description of time when questionnaire should be administered. 2. This may be represented as an elapsed time relative to a fixed reference point, such as time of last dose. See QSTPTNUM and QSTPTREF."^^xsd:string ;
	bd:format ""^^xsd:string ;
	bd:ctAndFormat ""^^xsd:string ;
	bd:compliance <http://www.assero.co.uk/CSN#da9f1092-7a20-4c97-9144-8bac2e72d1ea> ;
.
<http://www.cdisc.org/QS/V1#DVQSTPTNUM>
	rdf:type bd:SdtmDomainVariable ;
	isoC:label "Planned Time Point Number"^^xsd:string ;
	bd:rule ""^^xsd:string ;
	bd:ordinal "26"^^xsd:positiveInteger ;
	bd:name "QSTPTNUM"^^xsd:string ;
	bd:description "Numerical version of QSTPT to aid in sorting."^^xsd:string ;
	bd:format ""^^xsd:string ;
	bd:ctAndFormat ""^^xsd:string ;
	bd:compliance <http://www.assero.co.uk/CSN#da9f1092-7a20-4c97-9144-8bac2e72d1ea> ;
.
<http://www.cdisc.org/QS/V1#DVQSELTM>
	rdf:type bd:SdtmDomainVariable ;
	isoC:label "Planned Elapsed Time from Time Point Ref"^^xsd:string ;
	bd:rule ""^^xsd:string ;
	bd:ordinal "27"^^xsd:positiveInteger ;
	bd:name "QSELTM"^^xsd:string ;
	bd:description "Planned Elapsed time (in ISO 8601) relative to a planned fixed reference (QSTPTREF). This variable is useful where there are repetitive measures. Not a clock time or a date time variable. Represented as an ISO 8601 duration. Examples: '-PT15M' to represent the period of 15 minutes prior to the reference point indicated by QSTPTREF, or 'PT8H' to represent the period of 8 hours after the reference point indicated by QSTPTREF."^^xsd:string ;
	bd:format ""^^xsd:string ;
	bd:ctAndFormat ""^^xsd:string ;
	bd:compliance <http://www.assero.co.uk/CSN#da9f1092-7a20-4c97-9144-8bac2e72d1ea> ;
.
<http://www.cdisc.org/QS/V1#DVQSTPTREF>
	rdf:type bd:SdtmDomainVariable ;
	isoC:label "Time Point Reference"^^xsd:string ;
	bd:rule ""^^xsd:string ;
	bd:ordinal "28"^^xsd:positiveInteger ;
	bd:name "QSTPTREF"^^xsd:string ;
	bd:description "Name of the fixed reference point referred to by QSELTM, QSTPTNUM, and QSTPT. Examples: PREVIOUS DOSE, PREVIOUS MEAL."^^xsd:string ;
	bd:format ""^^xsd:string ;
	bd:ctAndFormat ""^^xsd:string ;
	bd:compliance <http://www.assero.co.uk/CSN#da9f1092-7a20-4c97-9144-8bac2e72d1ea> ;
.
<http://www.cdisc.org/QS/V1#DVQSRFTDTC>
	rdf:type bd:SdtmDomainVariable ;
	isoC:label "Date/Time of Reference Time Point"^^xsd:string ;
	bd:rule ""^^xsd:string ;
	bd:ordinal "29"^^xsd:positiveInteger ;
	bd:name "QSRFTDTC"^^xsd:string ;
	bd:description "Date/time of the reference time point, LBTPTREF."^^xsd:string ;
	bd:format ""^^xsd:string ;
	bd:ctAndFormat ""^^xsd:string ;
	bd:compliance <http://www.assero.co.uk/CSN#da9f1092-7a20-4c97-9144-8bac2e72d1ea> ;
.
<http://www.cdisc.org/QS/V1#DVQSEVLINT>
	rdf:type bd:SdtmDomainVariable ;
	isoC:label "Evaluation Interval"^^xsd:string ;
	bd:rule ""^^xsd:string ;
	bd:ordinal "30"^^xsd:positiveInteger ;
	bd:name "QSEVLINT"^^xsd:string ;
	bd:description "Evaluation Interval associated with a QSTEST question represented in ISO 8601 character format. Example: '-P2Y' to represent an interval of 2 years in the question 'Have you experienced any episodes in the past 2 years?'"^^xsd:string ;
	bd:format ""^^xsd:string ;
	bd:ctAndFormat ""^^xsd:string ;
	bd:compliance <http://www.assero.co.uk/CSN#da9f1092-7a20-4c97-9144-8bac2e72d1ea> ;
.
<http://www.cdisc.org/SC/V1>
	rdf:type bd:SdtmDomain ;
	isoC:label "Subject Characteristics"^^xsd:string ;
	isoT:hasState <http://www.cdisc.org/SC/V1#RS> ;
	isoT:hasIdentifier <http://www.cdisc.org/SC/V1#SI> ;
	isoT:origin ""^^xsd:string ;
	isoT:changeDescription ""^^xsd:string ;
	isoT:creationDate "2008-11-12T00:00:00+00:00"^^xsd:dateTime ;
	isoT:lastChangeDate "2008-11-12T00:00:00+00:00"^^xsd:dateTime ;
	isoT:explanatoryComment ""^^xsd:string ;
	bd:rule ""^^xsd:string ;
	bd:ordinal "1"^^xsd:positiveInteger ;
	bd:includesColumn <http://www.cdisc.org/SC/V1#DVSTUDYID> ;
	bd:includesColumn <http://www.cdisc.org/SC/V1#DVDOMAIN> ;
	bd:includesColumn <http://www.cdisc.org/SC/V1#DVUSUBJID> ;
	bd:includesColumn <http://www.cdisc.org/SC/V1#DVSCSEQ> ;
	bd:includesColumn <http://www.cdisc.org/SC/V1#DVSCGRPID> ;
	bd:includesColumn <http://www.cdisc.org/SC/V1#DVSCSPID> ;
	bd:includesColumn <http://www.cdisc.org/SC/V1#DVSCTESTCD> ;
	bd:includesColumn <http://www.cdisc.org/SC/V1#DVSCTEST> ;
	bd:includesColumn <http://www.cdisc.org/SC/V1#DVSCCAT> ;
	bd:includesColumn <http://www.cdisc.org/SC/V1#DVSCSCAT> ;
	bd:includesColumn <http://www.cdisc.org/SC/V1#DVSCORRES> ;
	bd:includesColumn <http://www.cdisc.org/SC/V1#DVSCORRESU> ;
	bd:includesColumn <http://www.cdisc.org/SC/V1#DVSCSTRESC> ;
	bd:includesColumn <http://www.cdisc.org/SC/V1#DVSCSTRESN> ;
	bd:includesColumn <http://www.cdisc.org/SC/V1#DVSCSTRESU> ;
	bd:includesColumn <http://www.cdisc.org/SC/V1#DVSCSTAT> ;
	bd:includesColumn <http://www.cdisc.org/SC/V1#DVSCREASND> ;
	bd:includesColumn <http://www.cdisc.org/SC/V1#DVSCDTC> ;
	bd:includesColumn <http://www.cdisc.org/SC/V1#DVSCDY> ;
	bd:prefix ""^^xsd:string ;
	bd:structure ""^^xsd:string ;
.
<http://www.cdisc.org/SC/V1#RS>
	rdf:type isoR:RegistrationState ;
	isoR:registrationStatus "Standard"^^xsd:string ;
	isoR:administrativeNote ""^^xsd:string ;
	isoR:effectiveDate "2016-01-01T00:00:00+00:00"^^xsd:dateTime ;
	isoR:untilDate "2016-01-01T00:00:00+00:00"^^xsd:dateTime ;
	isoR:unresolvedIssue ""^^xsd:string ;
	isoR:administrativeStatus ""^^xsd:string ;
	isoR:previousState "Standard"^^xsd:string ;
	isoR:multipleEdit "false"^^xsd:boolean ;
	isoR:byAuthority <http://www.assero.co.uk/RA#DUNS084433759> ;
.
<http://www.cdisc.org/SC/V1#SI>
	rdf:type isoI:ScopedIdentifier ;
	isoI:identifier "SC"^^xsd:string ;
	isoI:versionLabel "2008-11-12 Release"^^xsd:string ;
	isoI:version "1"^^xsd:positiveInteger ;
	isoI:semanticVersion "1.0.0"^^xsd:string ;
	isoI:hasScope <http://www.assero.co.uk/NS#CDISC> ;
.
<http://www.cdisc.org/SC/V1#DVSTUDYID>
	rdf:type bd:SdtmDomainVariable ;
	isoC:label "Study Identifier"^^xsd:string ;
	bd:rule ""^^xsd:string ;
	bd:ordinal "1"^^xsd:positiveInteger ;
	bd:name "STUDYID"^^xsd:string ;
	bd:description "Unique identifier for a study."^^xsd:string ;
	bd:format ""^^xsd:string ;
	bd:ctAndFormat ""^^xsd:string ;
	bd:compliance <http://www.assero.co.uk/CSN#8f112ba7-caa3-4f34-a9fc-8bc808b13955> ;
.
<http://www.cdisc.org/SC/V1#DVDOMAIN>
	rdf:type bd:SdtmDomainVariable ;
	isoC:label "Domain Abbreviation"^^xsd:string ;
	bd:rule ""^^xsd:string ;
	bd:ordinal "2"^^xsd:positiveInteger ;
	bd:name "DOMAIN"^^xsd:string ;
	bd:description "Two-character abbreviation for the domain."^^xsd:string ;
	bd:format ""^^xsd:string ;
	bd:ctAndFormat ""^^xsd:string ;
	bd:compliance <http://www.assero.co.uk/CSN#8f112ba7-caa3-4f34-a9fc-8bc808b13955> ;
.
<http://www.cdisc.org/SC/V1#DVUSUBJID>
	rdf:type bd:SdtmDomainVariable ;
	isoC:label "Unique Subject Identifier"^^xsd:string ;
	bd:rule ""^^xsd:string ;
	bd:ordinal "3"^^xsd:positiveInteger ;
	bd:name "USUBJID"^^xsd:string ;
	bd:description "Identifier used to uniquely identify a subject across all studies for all applications or submissions involving the product."^^xsd:string ;
	bd:format ""^^xsd:string ;
	bd:ctAndFormat ""^^xsd:string ;
	bd:compliance <http://www.assero.co.uk/CSN#8f112ba7-caa3-4f34-a9fc-8bc808b13955> ;
.
<http://www.cdisc.org/SC/V1#DVSCSEQ>
	rdf:type bd:SdtmDomainVariable ;
	isoC:label "Sequence Number"^^xsd:string ;
	bd:rule ""^^xsd:string ;
	bd:ordinal "4"^^xsd:positiveInteger ;
	bd:name "SCSEQ"^^xsd:string ;
	bd:description "Sequence Number given to ensure uniqueness of subject records within a domain. May be any valid number."^^xsd:string ;
	bd:format ""^^xsd:string ;
	bd:ctAndFormat ""^^xsd:string ;
	bd:compliance <http://www.assero.co.uk/CSN#8f112ba7-caa3-4f34-a9fc-8bc808b13955> ;
.
<http://www.cdisc.org/SC/V1#DVSCGRPID>
	rdf:type bd:SdtmDomainVariable ;
	isoC:label "Group ID"^^xsd:string ;
	bd:rule ""^^xsd:string ;
	bd:ordinal "5"^^xsd:positiveInteger ;
	bd:name "SCGRPID"^^xsd:string ;
	bd:description "Used to tie together a block of related records in a single domain for a subject."^^xsd:string ;
	bd:format ""^^xsd:string ;
	bd:ctAndFormat ""^^xsd:string ;
	bd:compliance <http://www.assero.co.uk/CSN#da9f1092-7a20-4c97-9144-8bac2e72d1ea> ;
.
<http://www.cdisc.org/SC/V1#DVSCSPID>
	rdf:type bd:SdtmDomainVariable ;
	isoC:label "Sponsor-Defined Identifier"^^xsd:string ;
	bd:rule ""^^xsd:string ;
	bd:ordinal "6"^^xsd:positiveInteger ;
	bd:name "SCSPID"^^xsd:string ;
	bd:description "Sponsor-defined reference number. Perhaps pre-printed on the CRF as an explicit line identifier or defined in the sponsor's operational database."^^xsd:string ;
	bd:format ""^^xsd:string ;
	bd:ctAndFormat ""^^xsd:string ;
	bd:compliance <http://www.assero.co.uk/CSN#da9f1092-7a20-4c97-9144-8bac2e72d1ea> ;
.
<http://www.cdisc.org/SC/V1#DVSCTESTCD>
	rdf:type bd:SdtmDomainVariable ;
	isoC:label "Subject Characteristic Short Name"^^xsd:string ;
	bd:rule ""^^xsd:string ;
	bd:ordinal "7"^^xsd:positiveInteger ;
	bd:name "SCTESTCD"^^xsd:string ;
	bd:description "Short name of the measurement, test, or examination described in SCTEST. It can be used as a column name when converting a dataset from a vertical to a horizontal format. The value in SCTESTCD cannot be longer than 8 characters, nor can it start with a number (e.g.'1TEST'). SCTESTCD cannot contain characters other than letters, numbers, or underscores. Example: SUBJINIT, EYECD."^^xsd:string ;
	bd:format ""^^xsd:string ;
	bd:ctAndFormat ""^^xsd:string ;
	bd:compliance <http://www.assero.co.uk/CSN#8f112ba7-caa3-4f34-a9fc-8bc808b13955> ;
.
<http://www.cdisc.org/SC/V1#DVSCTEST>
	rdf:type bd:SdtmDomainVariable ;
	isoC:label "Subject Characteristic"^^xsd:string ;
	bd:rule ""^^xsd:string ;
	bd:ordinal "8"^^xsd:positiveInteger ;
	bd:name "SCTEST"^^xsd:string ;
	bd:description "Verbatim name of the test or examination used to obtain the measurement or finding. The value in SCTEST cannot be longer than 40 characters. Examples: Subject Initials, Eye Color."^^xsd:string ;
	bd:format ""^^xsd:string ;
	bd:ctAndFormat ""^^xsd:string ;
	bd:compliance <http://www.assero.co.uk/CSN#8f112ba7-caa3-4f34-a9fc-8bc808b13955> ;
.
<http://www.cdisc.org/SC/V1#DVSCCAT>
	rdf:type bd:SdtmDomainVariable ;
	isoC:label "Category for Subject Characteristic"^^xsd:string ;
	bd:rule ""^^xsd:string ;
	bd:ordinal "9"^^xsd:positiveInteger ;
	bd:name "SCCAT"^^xsd:string ;
	bd:description "Used to define a category of related records."^^xsd:string ;
	bd:format ""^^xsd:string ;
	bd:ctAndFormat ""^^xsd:string ;
	bd:compliance <http://www.assero.co.uk/CSN#da9f1092-7a20-4c97-9144-8bac2e72d1ea> ;
.
<http://www.cdisc.org/SC/V1#DVSCSCAT>
	rdf:type bd:SdtmDomainVariable ;
	isoC:label "Subcategory for Subject Characteristic"^^xsd:string ;
	bd:rule ""^^xsd:string ;
	bd:ordinal "10"^^xsd:positiveInteger ;
	bd:name "SCSCAT"^^xsd:string ;
	bd:description "A further categorization of the subject characteristic."^^xsd:string ;
	bd:format ""^^xsd:string ;
	bd:ctAndFormat ""^^xsd:string ;
	bd:compliance <http://www.assero.co.uk/CSN#da9f1092-7a20-4c97-9144-8bac2e72d1ea> ;
.
<http://www.cdisc.org/SC/V1#DVSCORRES>
	rdf:type bd:SdtmDomainVariable ;
	isoC:label "Result or Finding in Original Units"^^xsd:string ;
	bd:rule ""^^xsd:string ;
	bd:ordinal "11"^^xsd:positiveInteger ;
	bd:name "SCORRES"^^xsd:string ;
	bd:description "Result of the subject characteristic as originally received or collected."^^xsd:string ;
	bd:format ""^^xsd:string ;
	bd:ctAndFormat ""^^xsd:string ;
	bd:compliance <http://www.assero.co.uk/CSN#fc544083-2437-4ec0-97f4-767598bee682> ;
.
<http://www.cdisc.org/SC/V1#DVSCORRESU>
	rdf:type bd:SdtmDomainVariable ;
	isoC:label "Original Units"^^xsd:string ;
	bd:rule ""^^xsd:string ;
	bd:ordinal "12"^^xsd:positiveInteger ;
	bd:name "SCORRESU"^^xsd:string ;
	bd:description "Original Unit in which the data were collected. The unit for SCORRES."^^xsd:string ;
	bd:format ""^^xsd:string ;
	bd:ctAndFormat ""^^xsd:string ;
	bd:compliance <http://www.assero.co.uk/CSN#da9f1092-7a20-4c97-9144-8bac2e72d1ea> ;
.
<http://www.cdisc.org/SC/V1#DVSCSTRESC>
	rdf:type bd:SdtmDomainVariable ;
	isoC:label "Character Result/Finding in Std Format"^^xsd:string ;
	bd:rule ""^^xsd:string ;
	bd:ordinal "13"^^xsd:positiveInteger ;
	bd:name "SCSTRESC"^^xsd:string ;
	bd:description "Contains the result value for all findings, copied or derived from SCORRES in a standard format or standard units. SCSTRESC should store all results or findings in character format; if results are numeric, they should also be stored in numeric format in SCSTRESN. For example, if a test has results 'NONE', 'NEG', and 'NEGATIVE' in SCORRES and these results effectively have the same meaning, they could be represented in standard format in SCSTRESC as 'NEGATIVE'."^^xsd:string ;
	bd:format ""^^xsd:string ;
	bd:ctAndFormat ""^^xsd:string ;
	bd:compliance <http://www.assero.co.uk/CSN#fc544083-2437-4ec0-97f4-767598bee682> ;
.
<http://www.cdisc.org/SC/V1#DVSCSTRESN>
	rdf:type bd:SdtmDomainVariable ;
	isoC:label "Numeric Result/Finding in Standard Units"^^xsd:string ;
	bd:rule ""^^xsd:string ;
	bd:ordinal "14"^^xsd:positiveInteger ;
	bd:name "SCSTRESN"^^xsd:string ;
	bd:description "Used for continuous or numeric results or findings in standard format; copied in numeric format from SCSTRESC. SCSTRESN should store all numeric test results or findings."^^xsd:string ;
	bd:format ""^^xsd:string ;
	bd:ctAndFormat ""^^xsd:string ;
	bd:compliance <http://www.assero.co.uk/CSN#da9f1092-7a20-4c97-9144-8bac2e72d1ea> ;
.
<http://www.cdisc.org/SC/V1#DVSCSTRESU>
	rdf:type bd:SdtmDomainVariable ;
	isoC:label "Standard Units"^^xsd:string ;
	bd:rule ""^^xsd:string ;
	bd:ordinal "15"^^xsd:positiveInteger ;
	bd:name "SCSTRESU"^^xsd:string ;
	bd:description "Standardized unit used for SCSTRESC or SCSTRESN."^^xsd:string ;
	bd:format ""^^xsd:string ;
	bd:ctAndFormat ""^^xsd:string ;
	bd:compliance <http://www.assero.co.uk/CSN#da9f1092-7a20-4c97-9144-8bac2e72d1ea> ;
.
<http://www.cdisc.org/SC/V1#DVSCSTAT>
	rdf:type bd:SdtmDomainVariable ;
	isoC:label "Completion Status"^^xsd:string ;
	bd:rule ""^^xsd:string ;
	bd:ordinal "16"^^xsd:positiveInteger ;
	bd:name "SCSTAT"^^xsd:string ;
	bd:description "Used to indicate that the measurement was not done. Should be null if a result exists in SCORRES."^^xsd:string ;
	bd:format ""^^xsd:string ;
	bd:ctAndFormat ""^^xsd:string ;
	bd:compliance <http://www.assero.co.uk/CSN#da9f1092-7a20-4c97-9144-8bac2e72d1ea> ;
.
<http://www.cdisc.org/SC/V1#DVSCREASND>
	rdf:type bd:SdtmDomainVariable ;
	isoC:label "Reason Not Performed"^^xsd:string ;
	bd:rule ""^^xsd:string ;
	bd:ordinal "17"^^xsd:positiveInteger ;
	bd:name "SCREASND"^^xsd:string ;
	bd:description "Describes why the observation has no result. Example: subject refused. Used in conjunction with SCSTAT when value is NOT DONE."^^xsd:string ;
	bd:format ""^^xsd:string ;
	bd:ctAndFormat ""^^xsd:string ;
	bd:compliance <http://www.assero.co.uk/CSN#da9f1092-7a20-4c97-9144-8bac2e72d1ea> ;
.
<http://www.cdisc.org/SC/V1#DVSCDTC>
	rdf:type bd:SdtmDomainVariable ;
	isoC:label "Date/Time of Collection"^^xsd:string ;
	bd:rule ""^^xsd:string ;
	bd:ordinal "18"^^xsd:positiveInteger ;
	bd:name "SCDTC"^^xsd:string ;
	bd:description ""^^xsd:string ;
	bd:format ""^^xsd:string ;
	bd:ctAndFormat ""^^xsd:string ;
	bd:compliance <http://www.assero.co.uk/CSN#da9f1092-7a20-4c97-9144-8bac2e72d1ea> ;
.
<http://www.cdisc.org/SC/V1#DVSCDY>
	rdf:type bd:SdtmDomainVariable ;
	isoC:label "Study Day of Examination"^^xsd:string ;
	bd:rule ""^^xsd:string ;
	bd:ordinal "19"^^xsd:positiveInteger ;
	bd:name "SCDY"^^xsd:string ;
	bd:description "1. Study day of collection, measured as integer days. 2. Algorithm for calculations must be relative to the sponsor-defined RFSTDTC variable in Demographics."^^xsd:string ;
	bd:format ""^^xsd:string ;
	bd:ctAndFormat ""^^xsd:string ;
	bd:compliance <http://www.assero.co.uk/CSN#da9f1092-7a20-4c97-9144-8bac2e72d1ea> ;
.
<http://www.cdisc.org/VS/V1>
	rdf:type bd:SdtmDomain ;
	isoC:label "Vital Signs"^^xsd:string ;
	isoT:hasState <http://www.cdisc.org/VS/V1#RS> ;
	isoT:hasIdentifier <http://www.cdisc.org/VS/V1#SI> ;
	isoT:origin ""^^xsd:string ;
	isoT:changeDescription ""^^xsd:string ;
	isoT:creationDate "2008-11-12T00:00:00+00:00"^^xsd:dateTime ;
	isoT:lastChangeDate "2008-11-12T00:00:00+00:00"^^xsd:dateTime ;
	isoT:explanatoryComment ""^^xsd:string ;
	bd:rule ""^^xsd:string ;
	bd:ordinal "1"^^xsd:positiveInteger ;
	bd:includesColumn <http://www.cdisc.org/VS/V1#DVSTUDYID> ;
	bd:includesColumn <http://www.cdisc.org/VS/V1#DVDOMAIN> ;
	bd:includesColumn <http://www.cdisc.org/VS/V1#DVUSUBJID> ;
	bd:includesColumn <http://www.cdisc.org/VS/V1#DVVSSEQ> ;
	bd:includesColumn <http://www.cdisc.org/VS/V1#DVVSGRPID> ;
	bd:includesColumn <http://www.cdisc.org/VS/V1#DVVSSPID> ;
	bd:includesColumn <http://www.cdisc.org/VS/V1#DVVSTESTCD> ;
	bd:includesColumn <http://www.cdisc.org/VS/V1#DVVSTEST> ;
	bd:includesColumn <http://www.cdisc.org/VS/V1#DVVSCAT> ;
	bd:includesColumn <http://www.cdisc.org/VS/V1#DVVSSCAT> ;
	bd:includesColumn <http://www.cdisc.org/VS/V1#DVVSPOS> ;
	bd:includesColumn <http://www.cdisc.org/VS/V1#DVVSORRES> ;
	bd:includesColumn <http://www.cdisc.org/VS/V1#DVVSORRESU> ;
	bd:includesColumn <http://www.cdisc.org/VS/V1#DVVSSTRESC> ;
	bd:includesColumn <http://www.cdisc.org/VS/V1#DVVSSTRESN> ;
	bd:includesColumn <http://www.cdisc.org/VS/V1#DVVSSTRESU> ;
	bd:includesColumn <http://www.cdisc.org/VS/V1#DVVSSTAT> ;
	bd:includesColumn <http://www.cdisc.org/VS/V1#DVVSREASND> ;
	bd:includesColumn <http://www.cdisc.org/VS/V1#DVVSLOC> ;
	bd:includesColumn <http://www.cdisc.org/VS/V1#DVVSBLFL> ;
	bd:includesColumn <http://www.cdisc.org/VS/V1#DVVSDRVFL> ;
	bd:includesColumn <http://www.cdisc.org/VS/V1#DVVISITNUM> ;
	bd:includesColumn <http://www.cdisc.org/VS/V1#DVVISIT> ;
	bd:includesColumn <http://www.cdisc.org/VS/V1#DVVISITDY> ;
	bd:includesColumn <http://www.cdisc.org/VS/V1#DVVSDTC> ;
	bd:includesColumn <http://www.cdisc.org/VS/V1#DVVSDY> ;
	bd:includesColumn <http://www.cdisc.org/VS/V1#DVVSTPT> ;
	bd:includesColumn <http://www.cdisc.org/VS/V1#DVVSTPTNUM> ;
	bd:includesColumn <http://www.cdisc.org/VS/V1#DVVSELTM> ;
	bd:includesColumn <http://www.cdisc.org/VS/V1#DVVSTPTREF> ;
	bd:includesColumn <http://www.cdisc.org/VS/V1#DVVSRFTDTC> ;
	bd:prefix ""^^xsd:string ;
	bd:structure ""^^xsd:string ;
.
<http://www.cdisc.org/VS/V1#RS>
	rdf:type isoR:RegistrationState ;
	isoR:registrationStatus "Standard"^^xsd:string ;
	isoR:administrativeNote ""^^xsd:string ;
	isoR:effectiveDate "2016-01-01T00:00:00+00:00"^^xsd:dateTime ;
	isoR:untilDate "2016-01-01T00:00:00+00:00"^^xsd:dateTime ;
	isoR:unresolvedIssue ""^^xsd:string ;
	isoR:administrativeStatus ""^^xsd:string ;
	isoR:previousState "Standard"^^xsd:string ;
	isoR:multipleEdit "false"^^xsd:boolean ;
	isoR:byAuthority <http://www.assero.co.uk/RA#DUNS084433759> ;
.
<http://www.cdisc.org/VS/V1#SI>
	rdf:type isoI:ScopedIdentifier ;
	isoI:identifier "VS"^^xsd:string ;
	isoI:versionLabel "2008-11-12 Release"^^xsd:string ;
