---
:type: http://www.assero.co.uk/BusinessDomain#ClassDomain
:id: M-CDISC_SDTMMODELINTERVENTIONS
:namespace: http://www.assero.co.uk/MDRSdtmMd/CDISC/V3
:label: Interventions
:extension_properties: []
:origin: ''
:change_description: ''
:creation_date: '2013-11-26T00:00:00+00:00'
:last_changed_date: '2013-11-26T00:00:00+00:00'
:explanatory_comment: ''
:registration_state:
  :namespace: http://www.assero.co.uk/MDRItems
  :id: RS-CDISC_SDTMMODELINTERVENTIONS-3
  :registration_authority:
    :uri: http://www.assero.co.uk/RA#DUNS084433759
    :rdf_type: http://www.assero.co.uk/ISO11179Registration#RegistrationAuthority
    :organization_identifier: '084433759'
    :international_code_designator: DUNS
    :owner: false
    :ra_namespace:
      :uri: http://www.assero.co.uk/NS#CDISC
      :rdf_type: http://www.assero.co.uk/ISO11179Identification#Namespace
      :short_name: CDISC
      :name: Clinical Data Interchange Standards Consortium
      :authority: www.cdisc.org
  :registration_status: Standard
  :administrative_note: ''
  :effective_date: '2016-01-01T00:00:00+00:00'
  :until_date: '2016-01-01T00:00:00+00:00'
  :current: false
  :unresolved_issue: ''
  :administrative_status: ''
  :previous_state: Incomplete
:scoped_identifier:
  :id: SI-CDISC_SDTMMODELINTERVENTIONS-3
  :identifier: SDTMMODEL INTERVENTIONS
  :version_label: '1.4'
  :version: 3
  :semantic_version: 1.4.0
  :namespace:
    :uri: http://www.assero.co.uk/NS#CDISC
    :rdf_type: http://www.assero.co.uk/ISO11179Identification#Namespace
    :short_name: CDISC
    :name: Clinical Data Interchange Standards Consortium
    :authority: www.cdisc.org
:ordinal: 1
:rule: ''
:children:
- :type: http://www.assero.co.uk/BusinessDomain#ClassVariable
  :id: M-CDISC_SDTMMODELINTERVENTIONS_STUDYID
  :namespace: http://www.assero.co.uk/MDRSdtmMd/CDISC/V3
  :label: Study Identifier
  :extension_properties: []
  :ordinal: 1
  :rule: ''
  :name: STUDYID
  :variable_ref:
    :type: http://www.assero.co.uk/BusinessOperational#CReference
    :id: M-CDISC_SDTMMODELINTERVENTIONS_STUDYID_CR1
    :namespace: http://www.assero.co.uk/MDRSdtmMd/CDISC/V3
    :label: Based on Variable Reference
    :extension_properties: []
    :enabled: true
    :optional: false
    :ordinal: 1
    :local_label: ''
    :subject_ref:
      :namespace: http://www.assero.co.uk/MDRSdtmM/CDISC/V3
      :id: M-CDISC_SDTMMODEL_STUDYID
- :type: http://www.assero.co.uk/BusinessDomain#ClassVariable
  :id: M-CDISC_SDTMMODELINTERVENTIONS_DOMAIN
  :namespace: http://www.assero.co.uk/MDRSdtmMd/CDISC/V3
  :label: Domain Abbreviation
  :extension_properties: []
  :ordinal: 2
  :rule: ''
  :name: DOMAIN
  :variable_ref:
    :type: http://www.assero.co.uk/BusinessOperational#CReference
    :id: M-CDISC_SDTMMODELINTERVENTIONS_DOMAIN_CR1
    :namespace: http://www.assero.co.uk/MDRSdtmMd/CDISC/V3
    :label: Based on Variable Reference
    :extension_properties: []
    :enabled: true
    :optional: false
    :ordinal: 1
    :local_label: ''
    :subject_ref:
      :namespace: http://www.assero.co.uk/MDRSdtmM/CDISC/V3
      :id: M-CDISC_SDTMMODEL_DOMAIN
- :type: http://www.assero.co.uk/BusinessDomain#ClassVariable
  :id: M-CDISC_SDTMMODELINTERVENTIONS_USUBJID
  :namespace: http://www.assero.co.uk/MDRSdtmMd/CDISC/V3
  :label: Unique Subject Identifier
  :extension_properties: []
  :ordinal: 3
  :rule: ''
  :name: USUBJID
  :variable_ref:
    :type: http://www.assero.co.uk/BusinessOperational#CReference
    :id: M-CDISC_SDTMMODELINTERVENTIONS_USUBJID_CR1
    :namespace: http://www.assero.co.uk/MDRSdtmMd/CDISC/V3
    :label: Based on Variable Reference
    :extension_properties: []
    :enabled: true
    :optional: false
    :ordinal: 1
    :local_label: ''
    :subject_ref:
      :namespace: http://www.assero.co.uk/MDRSdtmM/CDISC/V3
      :id: M-CDISC_SDTMMODEL_USUBJID
- :type: http://www.assero.co.uk/BusinessDomain#ClassVariable
  :id: M-CDISC_SDTMMODELINTERVENTIONS_POOLID
  :namespace: http://www.assero.co.uk/MDRSdtmMd/CDISC/V3
  :label: Pool Identifier
  :extension_properties: []
  :ordinal: 4
  :rule: ''
  :name: POOLID
  :variable_ref:
    :type: http://www.assero.co.uk/BusinessOperational#CReference
    :id: M-CDISC_SDTMMODELINTERVENTIONS_POOLID_CR1
    :namespace: http://www.assero.co.uk/MDRSdtmMd/CDISC/V3
    :label: Based on Variable Reference
    :extension_properties: []
    :enabled: true
    :optional: false
    :ordinal: 1
    :local_label: ''
    :subject_ref:
      :namespace: http://www.assero.co.uk/MDRSdtmM/CDISC/V3
      :id: M-CDISC_SDTMMODEL_POOLID
- :type: http://www.assero.co.uk/BusinessDomain#ClassVariable
  :id: M-CDISC_SDTMMODELINTERVENTIONS_SPDEVID
  :namespace: http://www.assero.co.uk/MDRSdtmMd/CDISC/V3
  :label: Sponsor Device Identifier
  :extension_properties: []
  :ordinal: 5
  :rule: ''
  :name: SPDEVID
  :variable_ref:
    :type: http://www.assero.co.uk/BusinessOperational#CReference
    :id: M-CDISC_SDTMMODELINTERVENTIONS_SPDEVID_CR1
    :namespace: http://www.assero.co.uk/MDRSdtmMd/CDISC/V3
    :label: Based on Variable Reference
    :extension_properties: []
    :enabled: true
    :optional: false
    :ordinal: 1
    :local_label: ''
    :subject_ref:
      :namespace: http://www.assero.co.uk/MDRSdtmM/CDISC/V3
      :id: M-CDISC_SDTMMODEL_SPDEVID
- :type: http://www.assero.co.uk/BusinessDomain#ClassVariable
  :id: M-CDISC_SDTMMODELINTERVENTIONS_xxSEQ
  :namespace: http://www.assero.co.uk/MDRSdtmMd/CDISC/V3
  :label: Sequence Number
  :extension_properties: []
  :ordinal: 6
  :rule: ''
  :name: "--SEQ"
  :variable_ref:
    :type: http://www.assero.co.uk/BusinessOperational#CReference
    :id: M-CDISC_SDTMMODELINTERVENTIONS_xxSEQ_CR1
    :namespace: http://www.assero.co.uk/MDRSdtmMd/CDISC/V3
    :label: Based on Variable Reference
    :extension_properties: []
    :enabled: true
    :optional: false
    :ordinal: 1
    :local_label: ''
    :subject_ref:
      :namespace: http://www.assero.co.uk/MDRSdtmM/CDISC/V3
      :id: M-CDISC_SDTMMODEL_xxSEQ
- :type: http://www.assero.co.uk/BusinessDomain#ClassVariable
  :id: M-CDISC_SDTMMODELINTERVENTIONS_xxGRPID
  :namespace: http://www.assero.co.uk/MDRSdtmMd/CDISC/V3
  :label: Group ID
  :extension_properties: []
  :ordinal: 7
  :rule: ''
  :name: "--GRPID"
  :variable_ref:
    :type: http://www.assero.co.uk/BusinessOperational#CReference
    :id: M-CDISC_SDTMMODELINTERVENTIONS_xxGRPID_CR1
    :namespace: http://www.assero.co.uk/MDRSdtmMd/CDISC/V3
    :label: Based on Variable Reference
    :extension_properties: []
    :enabled: true
    :optional: false
    :ordinal: 1
    :local_label: ''
    :subject_ref:
      :namespace: http://www.assero.co.uk/MDRSdtmM/CDISC/V3
      :id: M-CDISC_SDTMMODEL_xxGRPID
- :type: http://www.assero.co.uk/BusinessDomain#ClassVariable
  :id: M-CDISC_SDTMMODELINTERVENTIONS_xxREFID
  :namespace: http://www.assero.co.uk/MDRSdtmMd/CDISC/V3
  :label: Reference ID
  :extension_properties: []
  :ordinal: 8
  :rule: ''
  :name: "--REFID"
  :variable_ref:
    :type: http://www.assero.co.uk/BusinessOperational#CReference
    :id: M-CDISC_SDTMMODELINTERVENTIONS_xxREFID_CR1
    :namespace: http://www.assero.co.uk/MDRSdtmMd/CDISC/V3
    :label: Based on Variable Reference
    :extension_properties: []
    :enabled: true
    :optional: false
    :ordinal: 1
    :local_label: ''
    :subject_ref:
      :namespace: http://www.assero.co.uk/MDRSdtmM/CDISC/V3
      :id: M-CDISC_SDTMMODEL_xxREFID
- :type: http://www.assero.co.uk/BusinessDomain#ClassVariable
  :id: M-CDISC_SDTMMODELINTERVENTIONS_xxSPID
  :namespace: http://www.assero.co.uk/MDRSdtmMd/CDISC/V3
  :label: Sponsor-Defined Identifier
  :extension_properties: []
  :ordinal: 9
  :rule: ''
  :name: "--SPID"
  :variable_ref:
    :type: http://www.assero.co.uk/BusinessOperational#CReference
    :id: M-CDISC_SDTMMODELINTERVENTIONS_xxSPID_CR1
    :namespace: http://www.assero.co.uk/MDRSdtmMd/CDISC/V3
    :label: Based on Variable Reference
    :extension_properties: []
    :enabled: true
    :optional: false
    :ordinal: 1
    :local_label: ''
    :subject_ref:
      :namespace: http://www.assero.co.uk/MDRSdtmM/CDISC/V3
      :id: M-CDISC_SDTMMODEL_xxSPID
- :type: http://www.assero.co.uk/BusinessDomain#ClassVariable
  :id: M-CDISC_SDTMMODELINTERVENTIONS_xxLNKID
  :namespace: http://www.assero.co.uk/MDRSdtmMd/CDISC/V3
  :label: Link ID
  :extension_properties: []
  :ordinal: 10
  :rule: ''
  :name: "--LNKID"
  :variable_ref:
    :type: http://www.assero.co.uk/BusinessOperational#CReference
    :id: M-CDISC_SDTMMODELINTERVENTIONS_xxLNKID_CR1
    :namespace: http://www.assero.co.uk/MDRSdtmMd/CDISC/V3
    :label: Based on Variable Reference
    :extension_properties: []
    :enabled: true
    :optional: false
    :ordinal: 1
    :local_label: ''
    :subject_ref:
      :namespace: http://www.assero.co.uk/MDRSdtmM/CDISC/V3
      :id: M-CDISC_SDTMMODEL_xxLNKID
- :type: http://www.assero.co.uk/BusinessDomain#ClassVariable
  :id: M-CDISC_SDTMMODELINTERVENTIONS_xxLNKGRP
  :namespace: http://www.assero.co.uk/MDRSdtmMd/CDISC/V3
  :label: Link Group ID
  :extension_properties: []
  :ordinal: 11
  :rule: ''
  :name: "--LNKGRP"
  :variable_ref:
    :type: http://www.assero.co.uk/BusinessOperational#CReference
    :id: M-CDISC_SDTMMODELINTERVENTIONS_xxLNKGRP_CR1
    :namespace: http://www.assero.co.uk/MDRSdtmMd/CDISC/V3
    :label: Based on Variable Reference
    :extension_properties: []
    :enabled: true
    :optional: false
    :ordinal: 1
    :local_label: ''
    :subject_ref:
      :namespace: http://www.assero.co.uk/MDRSdtmM/CDISC/V3
      :id: M-CDISC_SDTMMODEL_xxLNKGRP
- :type: http://www.assero.co.uk/BusinessDomain#ClassVariable
  :id: M-CDISC_SDTMMODELINTERVENTIONS_APID
  :namespace: http://www.assero.co.uk/MDRSdtmMd/CDISC/V3
  :label: Associated Persons Identifier
  :extension_properties: []
  :ordinal: 12
  :rule: ''
  :name: APID
  :variable_ref:
    :type: http://www.assero.co.uk/BusinessOperational#CReference
    :id: M-CDISC_SDTMMODELINTERVENTIONS_APID_CR1
    :namespace: http://www.assero.co.uk/MDRSdtmMd/CDISC/V3
    :label: Based on Variable Reference
    :extension_properties: []
    :enabled: true
    :optional: false
    :ordinal: 1
    :local_label: ''
    :subject_ref:
      :namespace: http://www.assero.co.uk/MDRSdtmM/CDISC/V3
      :id: M-CDISC_SDTMMODEL_APID
- :type: http://www.assero.co.uk/BusinessDomain#ClassVariable
  :id: M-CDISC_SDTMMODELINTERVENTIONS_RSUBJID
  :namespace: http://www.assero.co.uk/MDRSdtmMd/CDISC/V3
  :label: Related Subject
  :extension_properties: []
  :ordinal: 13
  :rule: ''
  :name: RSUBJID
  :variable_ref:
    :type: http://www.assero.co.uk/BusinessOperational#CReference
    :id: M-CDISC_SDTMMODELINTERVENTIONS_RSUBJID_CR1
    :namespace: http://www.assero.co.uk/MDRSdtmMd/CDISC/V3
    :label: Based on Variable Reference
    :extension_properties: []
    :enabled: true
    :optional: false
    :ordinal: 1
    :local_label: ''
    :subject_ref:
      :namespace: http://www.assero.co.uk/MDRSdtmM/CDISC/V3
      :id: M-CDISC_SDTMMODEL_RSUBJID
- :type: http://www.assero.co.uk/BusinessDomain#ClassVariable
  :id: M-CDISC_SDTMMODELINTERVENTIONS_RDEVID
  :namespace: http://www.assero.co.uk/MDRSdtmMd/CDISC/V3
  :label: Related Device
  :extension_properties: []
  :ordinal: 14
  :rule: ''
  :name: RDEVID
  :variable_ref:
    :type: http://www.assero.co.uk/BusinessOperational#CReference
    :id: M-CDISC_SDTMMODELINTERVENTIONS_RDEVID_CR1
    :namespace: http://www.assero.co.uk/MDRSdtmMd/CDISC/V3
    :label: Based on Variable Reference
    :extension_properties: []
    :enabled: true
    :optional: false
    :ordinal: 1
    :local_label: ''
    :subject_ref:
      :namespace: http://www.assero.co.uk/MDRSdtmM/CDISC/V3
      :id: M-CDISC_SDTMMODEL_RDEVID
- :type: http://www.assero.co.uk/BusinessDomain#ClassVariable
  :id: M-CDISC_SDTMMODELINTERVENTIONS_SREL
  :namespace: http://www.assero.co.uk/MDRSdtmMd/CDISC/V3
  :label: Subject, Device, or Study Relationship
  :extension_properties: []
  :ordinal: 15
  :rule: ''
  :name: SREL
  :variable_ref:
    :type: http://www.assero.co.uk/BusinessOperational#CReference
    :id: M-CDISC_SDTMMODELINTERVENTIONS_SREL_CR1
    :namespace: http://www.assero.co.uk/MDRSdtmMd/CDISC/V3
    :label: Based on Variable Reference
    :extension_properties: []
    :enabled: true
    :optional: false
    :ordinal: 1
    :local_label: ''
    :subject_ref:
      :namespace: http://www.assero.co.uk/MDRSdtmM/CDISC/V3
      :id: M-CDISC_SDTMMODEL_SREL
- :type: http://www.assero.co.uk/BusinessDomain#ClassVariable
  :id: M-CDISC_SDTMMODELINTERVENTIONS_xxTRT
  :namespace: http://www.assero.co.uk/MDRSdtmMd/CDISC/V3
  :label: Name of Treatment
  :extension_properties: []
  :ordinal: 16
  :rule: ''
  :name: "--TRT"
  :variable_ref:
    :type: http://www.assero.co.uk/BusinessOperational#CReference
    :id: M-CDISC_SDTMMODELINTERVENTIONS_xxTRT_CR1
    :namespace: http://www.assero.co.uk/MDRSdtmMd/CDISC/V3
    :label: Based on Variable Reference
    :extension_properties: []
    :enabled: true
    :optional: false
    :ordinal: 1
    :local_label: ''
    :subject_ref:
      :namespace: http://www.assero.co.uk/MDRSdtmM/CDISC/V3
      :id: M-CDISC_SDTMMODEL_xxTRT
- :type: http://www.assero.co.uk/BusinessDomain#ClassVariable
  :id: M-CDISC_SDTMMODELINTERVENTIONS_xxMODIFY
  :namespace: http://www.assero.co.uk/MDRSdtmMd/CDISC/V3
  :label: Modified Treatment Name
  :extension_properties: []
  :ordinal: 17
  :rule: ''
  :name: "--MODIFY"
  :variable_ref:
    :type: http://www.assero.co.uk/BusinessOperational#CReference
    :id: M-CDISC_SDTMMODELINTERVENTIONS_xxMODIFY_CR1
    :namespace: http://www.assero.co.uk/MDRSdtmMd/CDISC/V3
    :label: Based on Variable Reference
    :extension_properties: []
    :enabled: true
    :optional: false
    :ordinal: 1
    :local_label: ''
    :subject_ref:
      :namespace: http://www.assero.co.uk/MDRSdtmM/CDISC/V3
      :id: M-CDISC_SDTMMODEL_xxMODIFY
- :type: http://www.assero.co.uk/BusinessDomain#ClassVariable
  :id: M-CDISC_SDTMMODELINTERVENTIONS_xxDECOD
  :namespace: http://www.assero.co.uk/MDRSdtmMd/CDISC/V3
  :label: Standardized Treatment Name
  :extension_properties: []
  :ordinal: 18
  :rule: ''
  :name: "--DECOD"
  :variable_ref:
    :type: http://www.assero.co.uk/BusinessOperational#CReference
    :id: M-CDISC_SDTMMODELINTERVENTIONS_xxDECOD_CR1
    :namespace: http://www.assero.co.uk/MDRSdtmMd/CDISC/V3
    :label: Based on Variable Reference
    :extension_properties: []
    :enabled: true
    :optional: false
    :ordinal: 1
    :local_label: ''
    :subject_ref:
      :namespace: http://www.assero.co.uk/MDRSdtmM/CDISC/V3
      :id: M-CDISC_SDTMMODEL_xxDECOD
- :type: http://www.assero.co.uk/BusinessDomain#ClassVariable
  :id: M-CDISC_SDTMMODELINTERVENTIONS_xxMOOD
  :namespace: http://www.assero.co.uk/MDRSdtmMd/CDISC/V3
  :label: Mood
  :extension_properties: []
  :ordinal: 19
  :rule: ''
  :name: "--MOOD"
  :variable_ref:
    :type: http://www.assero.co.uk/BusinessOperational#CReference
    :id: M-CDISC_SDTMMODELINTERVENTIONS_xxMOOD_CR1
    :namespace: http://www.assero.co.uk/MDRSdtmMd/CDISC/V3
    :label: Based on Variable Reference
    :extension_properties: []
    :enabled: true
    :optional: false
    :ordinal: 1
    :local_label: ''
    :subject_ref:
      :namespace: http://www.assero.co.uk/MDRSdtmM/CDISC/V3
      :id: M-CDISC_SDTMMODEL_xxMOOD
- :type: http://www.assero.co.uk/BusinessDomain#ClassVariable
  :id: M-CDISC_SDTMMODELINTERVENTIONS_xxCAT
  :namespace: http://www.assero.co.uk/MDRSdtmMd/CDISC/V3
  :label: Category
  :extension_properties: []
  :ordinal: 20
  :rule: ''
  :name: "--CAT"
  :variable_ref:
    :type: http://www.assero.co.uk/BusinessOperational#CReference
    :id: M-CDISC_SDTMMODELINTERVENTIONS_xxCAT_CR1
    :namespace: http://www.assero.co.uk/MDRSdtmMd/CDISC/V3
    :label: Based on Variable Reference
    :extension_properties: []
    :enabled: true
    :optional: false
    :ordinal: 1
    :local_label: ''
    :subject_ref:
      :namespace: http://www.assero.co.uk/MDRSdtmM/CDISC/V3
      :id: M-CDISC_SDTMMODEL_xxCAT
- :type: http://www.assero.co.uk/BusinessDomain#ClassVariable
  :id: M-CDISC_SDTMMODELINTERVENTIONS_xxSCAT
  :namespace: http://www.assero.co.uk/MDRSdtmMd/CDISC/V3
  :label: Subcategory
  :extension_properties: []
  :ordinal: 21
  :rule: ''
  :name: "--SCAT"
  :variable_ref:
    :type: http://www.assero.co.uk/BusinessOperational#CReference
    :id: M-CDISC_SDTMMODELINTERVENTIONS_xxSCAT_CR1
    :namespace: http://www.assero.co.uk/MDRSdtmMd/CDISC/V3
    :label: Based on Variable Reference
    :extension_properties: []
    :enabled: true
    :optional: false
    :ordinal: 1
    :local_label: ''
    :subject_ref:
      :namespace: http://www.assero.co.uk/MDRSdtmM/CDISC/V3
      :id: M-CDISC_SDTMMODEL_xxSCAT
- :type: http://www.assero.co.uk/BusinessDomain#ClassVariable
  :id: M-CDISC_SDTMMODELINTERVENTIONS_xxPRESP
  :namespace: http://www.assero.co.uk/MDRSdtmMd/CDISC/V3
  :label: Pre-specified
  :extension_properties: []
  :ordinal: 22
  :rule: ''
  :name: "--PRESP"
  :variable_ref:
    :type: http://www.assero.co.uk/BusinessOperational#CReference
    :id: M-CDISC_SDTMMODELINTERVENTIONS_xxPRESP_CR1
    :namespace: http://www.assero.co.uk/MDRSdtmMd/CDISC/V3
    :label: Based on Variable Reference
    :extension_properties: []
    :enabled: true
    :optional: false
    :ordinal: 1
    :local_label: ''
    :subject_ref:
      :namespace: http://www.assero.co.uk/MDRSdtmM/CDISC/V3
      :id: M-CDISC_SDTMMODEL_xxPRESP
- :type: http://www.assero.co.uk/BusinessDomain#ClassVariable
  :id: M-CDISC_SDTMMODELINTERVENTIONS_xxOCCUR
  :namespace: http://www.assero.co.uk/MDRSdtmMd/CDISC/V3
  :label: Occurrence
  :extension_properties: []
  :ordinal: 23
  :rule: ''
  :name: "--OCCUR"
  :variable_ref:
    :type: http://www.assero.co.uk/BusinessOperational#CReference
    :id: M-CDISC_SDTMMODELINTERVENTIONS_xxOCCUR_CR1
    :namespace: http://www.assero.co.uk/MDRSdtmMd/CDISC/V3
    :label: Based on Variable Reference
    :extension_properties: []
    :enabled: true
    :optional: false
    :ordinal: 1
    :local_label: ''
    :subject_ref:
      :namespace: http://www.assero.co.uk/MDRSdtmM/CDISC/V3
      :id: M-CDISC_SDTMMODEL_xxOCCUR
- :type: http://www.assero.co.uk/BusinessDomain#ClassVariable
  :id: M-CDISC_SDTMMODELINTERVENTIONS_xxSTAT
  :namespace: http://www.assero.co.uk/MDRSdtmMd/CDISC/V3
  :label: Completion Status
  :extension_properties: []
  :ordinal: 24
  :rule: ''
  :name: "--STAT"
  :variable_ref:
    :type: http://www.assero.co.uk/BusinessOperational#CReference
    :id: M-CDISC_SDTMMODELINTERVENTIONS_xxSTAT_CR1
    :namespace: http://www.assero.co.uk/MDRSdtmMd/CDISC/V3
    :label: Based on Variable Reference
    :extension_properties: []
    :enabled: true
    :optional: false
    :ordinal: 1
    :local_label: ''
    :subject_ref:
      :namespace: http://www.assero.co.uk/MDRSdtmM/CDISC/V3
      :id: M-CDISC_SDTMMODEL_xxSTAT
- :type: http://www.assero.co.uk/BusinessDomain#ClassVariable
  :id: M-CDISC_SDTMMODELINTERVENTIONS_xxREASND
  :namespace: http://www.assero.co.uk/MDRSdtmMd/CDISC/V3
  :label: Reason Not Done
  :extension_properties: []
  :ordinal: 25
  :rule: ''
  :name: "--REASND"
  :variable_ref:
    :type: http://www.assero.co.uk/BusinessOperational#CReference
    :id: M-CDISC_SDTMMODELINTERVENTIONS_xxREASND_CR1
    :namespace: http://www.assero.co.uk/MDRSdtmMd/CDISC/V3
    :label: Based on Variable Reference
    :extension_properties: []
    :enabled: true
    :optional: false
    :ordinal: 1
    :local_label: ''
    :subject_ref:
      :namespace: http://www.assero.co.uk/MDRSdtmM/CDISC/V3
      :id: M-CDISC_SDTMMODEL_xxREASND
- :type: http://www.assero.co.uk/BusinessDomain#ClassVariable
  :id: M-CDISC_SDTMMODELINTERVENTIONS_xxINDC
  :namespace: http://www.assero.co.uk/MDRSdtmMd/CDISC/V3
  :label: Indication
  :extension_properties: []
  :ordinal: 26
  :rule: ''
  :name: "--INDC"
  :variable_ref:
    :type: http://www.assero.co.uk/BusinessOperational#CReference
    :id: M-CDISC_SDTMMODELINTERVENTIONS_xxINDC_CR1
    :namespace: http://www.assero.co.uk/MDRSdtmMd/CDISC/V3
    :label: Based on Variable Reference
    :extension_properties: []
    :enabled: true
    :optional: false
    :ordinal: 1
    :local_label: ''
    :subject_ref:
      :namespace: http://www.assero.co.uk/MDRSdtmM/CDISC/V3
      :id: M-CDISC_SDTMMODEL_xxINDC
- :type: http://www.assero.co.uk/BusinessDomain#ClassVariable
  :id: M-CDISC_SDTMMODELINTERVENTIONS_xxCLAS
  :namespace: http://www.assero.co.uk/MDRSdtmMd/CDISC/V3
  :label: Class
  :extension_properties: []
  :ordinal: 27
  :rule: ''
  :name: "--CLAS"
  :variable_ref:
    :type: http://www.assero.co.uk/BusinessOperational#CReference
    :id: M-CDISC_SDTMMODELINTERVENTIONS_xxCLAS_CR1
    :namespace: http://www.assero.co.uk/MDRSdtmMd/CDISC/V3
    :label: Based on Variable Reference
    :extension_properties: []
    :enabled: true
    :optional: false
    :ordinal: 1
    :local_label: ''
    :subject_ref:
      :namespace: http://www.assero.co.uk/MDRSdtmM/CDISC/V3
      :id: M-CDISC_SDTMMODEL_xxCLAS
- :type: http://www.assero.co.uk/BusinessDomain#ClassVariable
  :id: M-CDISC_SDTMMODELINTERVENTIONS_xxCLASCD
  :namespace: http://www.assero.co.uk/MDRSdtmMd/CDISC/V3
  :label: Class Code
  :extension_properties: []
  :ordinal: 28
  :rule: ''
  :name: "--CLASCD"
  :variable_ref:
    :type: http://www.assero.co.uk/BusinessOperational#CReference
    :id: M-CDISC_SDTMMODELINTERVENTIONS_xxCLASCD_CR1
    :namespace: http://www.assero.co.uk/MDRSdtmMd/CDISC/V3
    :label: Based on Variable Reference
    :extension_properties: []
    :enabled: true
    :optional: false
    :ordinal: 1
    :local_label: ''
    :subject_ref:
      :namespace: http://www.assero.co.uk/MDRSdtmM/CDISC/V3
      :id: M-CDISC_SDTMMODEL_xxCLASCD
- :type: http://www.assero.co.uk/BusinessDomain#ClassVariable
  :id: M-CDISC_SDTMMODELINTERVENTIONS_xxDOSE
  :namespace: http://www.assero.co.uk/MDRSdtmMd/CDISC/V3
  :label: Dose
  :extension_properties: []
  :ordinal: 29
  :rule: ''
  :name: "--DOSE"
  :variable_ref:
    :type: http://www.assero.co.uk/BusinessOperational#CReference
    :id: M-CDISC_SDTMMODELINTERVENTIONS_xxDOSE_CR1
    :namespace: http://www.assero.co.uk/MDRSdtmMd/CDISC/V3
    :label: Based on Variable Reference
    :extension_properties: []
    :enabled: true
    :optional: false
    :ordinal: 1
    :local_label: ''
    :subject_ref:
      :namespace: http://www.assero.co.uk/MDRSdtmM/CDISC/V3
      :id: M-CDISC_SDTMMODEL_xxDOSE
- :type: http://www.assero.co.uk/BusinessDomain#ClassVariable
  :id: M-CDISC_SDTMMODELINTERVENTIONS_xxDOSTXT
  :namespace: http://www.assero.co.uk/MDRSdtmMd/CDISC/V3
  :label: Dose Description
  :extension_properties: []
  :ordinal: 30
  :rule: ''
  :name: "--DOSTXT"
  :variable_ref:
    :type: http://www.assero.co.uk/BusinessOperational#CReference
    :id: M-CDISC_SDTMMODELINTERVENTIONS_xxDOSTXT_CR1
    :namespace: http://www.assero.co.uk/MDRSdtmMd/CDISC/V3
    :label: Based on Variable Reference
    :extension_properties: []
    :enabled: true
    :optional: false
    :ordinal: 1
    :local_label: ''
    :subject_ref:
      :namespace: http://www.assero.co.uk/MDRSdtmM/CDISC/V3
      :id: M-CDISC_SDTMMODEL_xxDOSTXT
- :type: http://www.assero.co.uk/BusinessDomain#ClassVariable
  :id: M-CDISC_SDTMMODELINTERVENTIONS_xxDOSU
  :namespace: http://www.assero.co.uk/MDRSdtmMd/CDISC/V3
  :label: Dose Units
  :extension_properties: []
  :ordinal: 31
  :rule: ''
  :name: "--DOSU"
  :variable_ref:
    :type: http://www.assero.co.uk/BusinessOperational#CReference
    :id: M-CDISC_SDTMMODELINTERVENTIONS_xxDOSU_CR1
    :namespace: http://www.assero.co.uk/MDRSdtmMd/CDISC/V3
    :label: Based on Variable Reference
    :extension_properties: []
    :enabled: true
    :optional: false
    :ordinal: 1
    :local_label: ''
    :subject_ref:
      :namespace: http://www.assero.co.uk/MDRSdtmM/CDISC/V3
      :id: M-CDISC_SDTMMODEL_xxDOSU
- :type: http://www.assero.co.uk/BusinessDomain#ClassVariable
  :id: M-CDISC_SDTMMODELINTERVENTIONS_xxDOSFRM
  :namespace: http://www.assero.co.uk/MDRSdtmMd/CDISC/V3
  :label: Dose Form
  :extension_properties: []
  :ordinal: 32
  :rule: ''
  :name: "--DOSFRM"
  :variable_ref:
    :type: http://www.assero.co.uk/BusinessOperational#CReference
    :id: M-CDISC_SDTMMODELINTERVENTIONS_xxDOSFRM_CR1
    :namespace: http://www.assero.co.uk/MDRSdtmMd/CDISC/V3
    :label: Based on Variable Reference
    :extension_properties: []
    :enabled: true
    :optional: false
    :ordinal: 1
    :local_label: ''
    :subject_ref:
      :namespace: http://www.assero.co.uk/MDRSdtmM/CDISC/V3
      :id: M-CDISC_SDTMMODEL_xxDOSFRM
- :type: http://www.assero.co.uk/BusinessDomain#ClassVariable
  :id: M-CDISC_SDTMMODELINTERVENTIONS_xxDOSFRQ
  :namespace: http://www.assero.co.uk/MDRSdtmMd/CDISC/V3
  :label: Dosing Frequency per Interval
  :extension_properties: []
  :ordinal: 33
  :rule: ''
  :name: "--DOSFRQ"
  :variable_ref:
    :type: http://www.assero.co.uk/BusinessOperational#CReference
    :id: M-CDISC_SDTMMODELINTERVENTIONS_xxDOSFRQ_CR1
    :namespace: http://www.assero.co.uk/MDRSdtmMd/CDISC/V3
    :label: Based on Variable Reference
    :extension_properties: []
    :enabled: true
    :optional: false
    :ordinal: 1
    :local_label: ''
    :subject_ref:
      :namespace: http://www.assero.co.uk/MDRSdtmM/CDISC/V3
      :id: M-CDISC_SDTMMODEL_xxDOSFRQ
- :type: http://www.assero.co.uk/BusinessDomain#ClassVariable
  :id: M-CDISC_SDTMMODELINTERVENTIONS_xxDOSTOT
  :namespace: http://www.assero.co.uk/MDRSdtmMd/CDISC/V3
  :label: Total Daily Dose
  :extension_properties: []
  :ordinal: 34
  :rule: ''
  :name: "--DOSTOT"
  :variable_ref:
    :type: http://www.assero.co.uk/BusinessOperational#CReference
    :id: M-CDISC_SDTMMODELINTERVENTIONS_xxDOSTOT_CR1
    :namespace: http://www.assero.co.uk/MDRSdtmMd/CDISC/V3
    :label: Based on Variable Reference
    :extension_properties: []
    :enabled: true
    :optional: false
    :ordinal: 1
    :local_label: ''
    :subject_ref:
      :namespace: http://www.assero.co.uk/MDRSdtmM/CDISC/V3
      :id: M-CDISC_SDTMMODEL_xxDOSTOT
- :type: http://www.assero.co.uk/BusinessDomain#ClassVariable
  :id: M-CDISC_SDTMMODELINTERVENTIONS_xxDOSRGM
  :namespace: http://www.assero.co.uk/MDRSdtmMd/CDISC/V3
  :label: Intended Dose Regimen
  :extension_properties: []
  :ordinal: 35
  :rule: ''
  :name: "--DOSRGM"
  :variable_ref:
    :type: http://www.assero.co.uk/BusinessOperational#CReference
    :id: M-CDISC_SDTMMODELINTERVENTIONS_xxDOSRGM_CR1
    :namespace: http://www.assero.co.uk/MDRSdtmMd/CDISC/V3
    :label: Based on Variable Reference
    :extension_properties: []
    :enabled: true
    :optional: false
    :ordinal: 1
    :local_label: ''
    :subject_ref:
      :namespace: http://www.assero.co.uk/MDRSdtmM/CDISC/V3
      :id: M-CDISC_SDTMMODEL_xxDOSRGM
- :type: http://www.assero.co.uk/BusinessDomain#ClassVariable
  :id: M-CDISC_SDTMMODELINTERVENTIONS_xxROUTE
  :namespace: http://www.assero.co.uk/MDRSdtmMd/CDISC/V3
  :label: Route of Administration
  :extension_properties: []
  :ordinal: 36
  :rule: ''
  :name: "--ROUTE"
  :variable_ref:
    :type: http://www.assero.co.uk/BusinessOperational#CReference
    :id: M-CDISC_SDTMMODELINTERVENTIONS_xxROUTE_CR1
    :namespace: http://www.assero.co.uk/MDRSdtmMd/CDISC/V3
    :label: Based on Variable Reference
    :extension_properties: []
    :enabled: true
    :optional: false
    :ordinal: 1
    :local_label: ''
    :subject_ref:
      :namespace: http://www.assero.co.uk/MDRSdtmM/CDISC/V3
      :id: M-CDISC_SDTMMODEL_xxROUTE
- :type: http://www.assero.co.uk/BusinessDomain#ClassVariable
  :id: M-CDISC_SDTMMODELINTERVENTIONS_xxLOT
  :namespace: http://www.assero.co.uk/MDRSdtmMd/CDISC/V3
  :label: Lot Number
  :extension_properties: []
  :ordinal: 37
  :rule: ''
  :name: "--LOT"
  :variable_ref:
    :type: http://www.assero.co.uk/BusinessOperational#CReference
    :id: M-CDISC_SDTMMODELINTERVENTIONS_xxLOT_CR1
    :namespace: http://www.assero.co.uk/MDRSdtmMd/CDISC/V3
    :label: Based on Variable Reference
    :extension_properties: []
    :enabled: true
    :optional: false
    :ordinal: 1
    :local_label: ''
    :subject_ref:
      :namespace: http://www.assero.co.uk/MDRSdtmM/CDISC/V3
      :id: M-CDISC_SDTMMODEL_xxLOT
- :type: http://www.assero.co.uk/BusinessDomain#ClassVariable
  :id: M-CDISC_SDTMMODELINTERVENTIONS_xxLOC
  :namespace: http://www.assero.co.uk/MDRSdtmMd/CDISC/V3
  :label: Location of Dose Administration
  :extension_properties: []
  :ordinal: 38
  :rule: ''
  :name: "--LOC"
  :variable_ref:
    :type: http://www.assero.co.uk/BusinessOperational#CReference
    :id: M-CDISC_SDTMMODELINTERVENTIONS_xxLOC_CR1
    :namespace: http://www.assero.co.uk/MDRSdtmMd/CDISC/V3
    :label: Based on Variable Reference
    :extension_properties: []
    :enabled: true
    :optional: false
    :ordinal: 1
    :local_label: ''
    :subject_ref:
      :namespace: http://www.assero.co.uk/MDRSdtmM/CDISC/V3
      :id: M-CDISC_SDTMMODEL_xxLOC
- :type: http://www.assero.co.uk/BusinessDomain#ClassVariable
  :id: M-CDISC_SDTMMODELINTERVENTIONS_xxLAT
  :namespace: http://www.assero.co.uk/MDRSdtmMd/CDISC/V3
  :label: Laterality
  :extension_properties: []
  :ordinal: 39
  :rule: ''
  :name: "--LAT"
  :variable_ref:
    :type: http://www.assero.co.uk/BusinessOperational#CReference
    :id: M-CDISC_SDTMMODELINTERVENTIONS_xxLAT_CR1
    :namespace: http://www.assero.co.uk/MDRSdtmMd/CDISC/V3
    :label: Based on Variable Reference
    :extension_properties: []
    :enabled: true
    :optional: false
    :ordinal: 1
    :local_label: ''
    :subject_ref:
      :namespace: http://www.assero.co.uk/MDRSdtmM/CDISC/V3
      :id: M-CDISC_SDTMMODEL_xxLAT
- :type: http://www.assero.co.uk/BusinessDomain#ClassVariable
  :id: M-CDISC_SDTMMODELINTERVENTIONS_xxDIR
  :namespace: http://www.assero.co.uk/MDRSdtmMd/CDISC/V3
  :label: Directionality
  :extension_properties: []
  :ordinal: 40
  :rule: ''
  :name: "--DIR"
  :variable_ref:
    :type: http://www.assero.co.uk/BusinessOperational#CReference
    :id: M-CDISC_SDTMMODELINTERVENTIONS_xxDIR_CR1
    :namespace: http://www.assero.co.uk/MDRSdtmMd/CDISC/V3
    :label: Based on Variable Reference
    :extension_properties: []
    :enabled: true
    :optional: false
    :ordinal: 1
    :local_label: ''
    :subject_ref:
      :namespace: http://www.assero.co.uk/MDRSdtmM/CDISC/V3
      :id: M-CDISC_SDTMMODEL_xxDIR
- :type: http://www.assero.co.uk/BusinessDomain#ClassVariable
  :id: M-CDISC_SDTMMODELINTERVENTIONS_xxPORTOT
  :namespace: http://www.assero.co.uk/MDRSdtmMd/CDISC/V3
  :label: Portion or Totality
  :extension_properties: []
  :ordinal: 41
  :rule: ''
  :name: "--PORTOT"
  :variable_ref:
    :type: http://www.assero.co.uk/BusinessOperational#CReference
    :id: M-CDISC_SDTMMODELINTERVENTIONS_xxPORTOT_CR1
    :namespace: http://www.assero.co.uk/MDRSdtmMd/CDISC/V3
    :label: Based on Variable Reference
    :extension_properties: []
    :enabled: true
    :optional: false
    :ordinal: 1
    :local_label: ''
    :subject_ref:
      :namespace: http://www.assero.co.uk/MDRSdtmM/CDISC/V3
      :id: M-CDISC_SDTMMODEL_xxPORTOT
- :type: http://www.assero.co.uk/BusinessDomain#ClassVariable
  :id: M-CDISC_SDTMMODELINTERVENTIONS_xxFAST
  :namespace: http://www.assero.co.uk/MDRSdtmMd/CDISC/V3
  :label: Fasting Status
  :extension_properties: []
  :ordinal: 42
  :rule: ''
  :name: "--FAST"
  :variable_ref:
    :type: http://www.assero.co.uk/BusinessOperational#CReference
    :id: M-CDISC_SDTMMODELINTERVENTIONS_xxFAST_CR1
    :namespace: http://www.assero.co.uk/MDRSdtmMd/CDISC/V3
    :label: Based on Variable Reference
    :extension_properties: []
    :enabled: true
    :optional: false
    :ordinal: 1
    :local_label: ''
    :subject_ref:
      :namespace: http://www.assero.co.uk/MDRSdtmM/CDISC/V3
      :id: M-CDISC_SDTMMODEL_xxFAST
- :type: http://www.assero.co.uk/BusinessDomain#ClassVariable
  :id: M-CDISC_SDTMMODELINTERVENTIONS_xxPSTRG
  :namespace: http://www.assero.co.uk/MDRSdtmMd/CDISC/V3
  :label: Pharmaceutical Strength
  :extension_properties: []
  :ordinal: 43
  :rule: ''
  :name: "--PSTRG"
  :variable_ref:
    :type: http://www.assero.co.uk/BusinessOperational#CReference
    :id: M-CDISC_SDTMMODELINTERVENTIONS_xxPSTRG_CR1
    :namespace: http://www.assero.co.uk/MDRSdtmMd/CDISC/V3
    :label: Based on Variable Reference
    :extension_properties: []
    :enabled: true
    :optional: false
    :ordinal: 1
    :local_label: ''
    :subject_ref:
      :namespace: http://www.assero.co.uk/MDRSdtmM/CDISC/V3
      :id: M-CDISC_SDTMMODEL_xxPSTRG
- :type: http://www.assero.co.uk/BusinessDomain#ClassVariable
  :id: M-CDISC_SDTMMODELINTERVENTIONS_xxPSTRGU
  :namespace: http://www.assero.co.uk/MDRSdtmMd/CDISC/V3
  :label: Pharmaceutical Strength Units
  :extension_properties: []
  :ordinal: 44
  :rule: ''
  :name: "--PSTRGU"
  :variable_ref:
    :type: http://www.assero.co.uk/BusinessOperational#CReference
    :id: M-CDISC_SDTMMODELINTERVENTIONS_xxPSTRGU_CR1
    :namespace: http://www.assero.co.uk/MDRSdtmMd/CDISC/V3
    :label: Based on Variable Reference
    :extension_properties: []
    :enabled: true
    :optional: false
    :ordinal: 1
    :local_label: ''
    :subject_ref:
      :namespace: http://www.assero.co.uk/MDRSdtmM/CDISC/V3
      :id: M-CDISC_SDTMMODEL_xxPSTRGU
- :type: http://www.assero.co.uk/BusinessDomain#ClassVariable
  :id: M-CDISC_SDTMMODELINTERVENTIONS_xxTRTV
  :namespace: http://www.assero.co.uk/MDRSdtmMd/CDISC/V3
  :label: Treatment Vehicle
  :extension_properties: []
  :ordinal: 45
  :rule: ''
  :name: "--TRTV"
  :variable_ref:
    :type: http://www.assero.co.uk/BusinessOperational#CReference
    :id: M-CDISC_SDTMMODELINTERVENTIONS_xxTRTV_CR1
    :namespace: http://www.assero.co.uk/MDRSdtmMd/CDISC/V3
    :label: Based on Variable Reference
    :extension_properties: []
    :enabled: true
    :optional: false
    :ordinal: 1
    :local_label: ''
    :subject_ref:
      :namespace: http://www.assero.co.uk/MDRSdtmM/CDISC/V3
      :id: M-CDISC_SDTMMODEL_xxTRTV
- :type: http://www.assero.co.uk/BusinessDomain#ClassVariable
  :id: M-CDISC_SDTMMODELINTERVENTIONS_xxVAMT
  :namespace: http://www.assero.co.uk/MDRSdtmMd/CDISC/V3
  :label: Treatment Vehicle Amount
  :extension_properties: []
  :ordinal: 46
  :rule: ''
  :name: "--VAMT"
  :variable_ref:
    :type: http://www.assero.co.uk/BusinessOperational#CReference
    :id: M-CDISC_SDTMMODELINTERVENTIONS_xxVAMT_CR1
    :namespace: http://www.assero.co.uk/MDRSdtmMd/CDISC/V3
    :label: Based on Variable Reference
    :extension_properties: []
    :enabled: true
    :optional: false
    :ordinal: 1
    :local_label: ''
    :subject_ref:
      :namespace: http://www.assero.co.uk/MDRSdtmM/CDISC/V3
      :id: M-CDISC_SDTMMODEL_xxVAMT
- :type: http://www.assero.co.uk/BusinessDomain#ClassVariable
  :id: M-CDISC_SDTMMODELINTERVENTIONS_xxVAMTU
  :namespace: http://www.assero.co.uk/MDRSdtmMd/CDISC/V3
  :label: Treatment Vehicle Amount Units
  :extension_properties: []
  :ordinal: 47
  :rule: ''
  :name: "--VAMTU"
  :variable_ref:
    :type: http://www.assero.co.uk/BusinessOperational#CReference
    :id: M-CDISC_SDTMMODELINTERVENTIONS_xxVAMTU_CR1
    :namespace: http://www.assero.co.uk/MDRSdtmMd/CDISC/V3
    :label: Based on Variable Reference
    :extension_properties: []
    :enabled: true
    :optional: false
    :ordinal: 1
    :local_label: ''
    :subject_ref:
      :namespace: http://www.assero.co.uk/MDRSdtmM/CDISC/V3
      :id: M-CDISC_SDTMMODEL_xxVAMTU
- :type: http://www.assero.co.uk/BusinessDomain#ClassVariable
  :id: M-CDISC_SDTMMODELINTERVENTIONS_xxADJ
  :namespace: http://www.assero.co.uk/MDRSdtmMd/CDISC/V3
  :label: Reason for Dose Adjustment
  :extension_properties: []
  :ordinal: 48
  :rule: ''
  :name: "--ADJ"
  :variable_ref:
    :type: http://www.assero.co.uk/BusinessOperational#CReference
    :id: M-CDISC_SDTMMODELINTERVENTIONS_xxADJ_CR1
    :namespace: http://www.assero.co.uk/MDRSdtmMd/CDISC/V3
    :label: Based on Variable Reference
    :extension_properties: []
    :enabled: true
    :optional: false
    :ordinal: 1
    :local_label: ''
    :subject_ref:
      :namespace: http://www.assero.co.uk/MDRSdtmM/CDISC/V3
      :id: M-CDISC_SDTMMODEL_xxADJ
- :type: http://www.assero.co.uk/BusinessDomain#ClassVariable
  :id: M-CDISC_SDTMMODELINTERVENTIONS_VISITNUM
  :namespace: http://www.assero.co.uk/MDRSdtmMd/CDISC/V3
  :label: Visit Number
  :extension_properties: []
  :ordinal: 49
  :rule: ''
  :name: VISITNUM
  :variable_ref:
    :type: http://www.assero.co.uk/BusinessOperational#CReference
    :id: M-CDISC_SDTMMODELINTERVENTIONS_VISITNUM_CR1
    :namespace: http://www.assero.co.uk/MDRSdtmMd/CDISC/V3
    :label: Based on Variable Reference
    :extension_properties: []
    :enabled: true
    :optional: false
    :ordinal: 1
    :local_label: ''
    :subject_ref:
      :namespace: http://www.assero.co.uk/MDRSdtmM/CDISC/V3
      :id: M-CDISC_SDTMMODEL_VISITNUM
- :type: http://www.assero.co.uk/BusinessDomain#ClassVariable
  :id: M-CDISC_SDTMMODELINTERVENTIONS_VISIT
  :namespace: http://www.assero.co.uk/MDRSdtmMd/CDISC/V3
  :label: Visit Name
  :extension_properties: []
  :ordinal: 50
  :rule: ''
  :name: VISIT
  :variable_ref:
    :type: http://www.assero.co.uk/BusinessOperational#CReference
    :id: M-CDISC_SDTMMODELINTERVENTIONS_VISIT_CR1
    :namespace: http://www.assero.co.uk/MDRSdtmMd/CDISC/V3
    :label: Based on Variable Reference
    :extension_properties: []
    :enabled: true
    :optional: false
    :ordinal: 1
    :local_label: ''
    :subject_ref:
      :namespace: http://www.assero.co.uk/MDRSdtmM/CDISC/V3
      :id: M-CDISC_SDTMMODEL_VISIT
- :type: http://www.assero.co.uk/BusinessDomain#ClassVariable
  :id: M-CDISC_SDTMMODELINTERVENTIONS_VISITDY
  :namespace: http://www.assero.co.uk/MDRSdtmMd/CDISC/V3
  :label: Planned Study Day of Visit
  :extension_properties: []
  :ordinal: 51
  :rule: ''
  :name: VISITDY
  :variable_ref:
    :type: http://www.assero.co.uk/BusinessOperational#CReference
    :id: M-CDISC_SDTMMODELINTERVENTIONS_VISITDY_CR1
    :namespace: http://www.assero.co.uk/MDRSdtmMd/CDISC/V3
    :label: Based on Variable Reference
    :extension_properties: []
    :enabled: true
    :optional: false
    :ordinal: 1
    :local_label: ''
    :subject_ref:
      :namespace: http://www.assero.co.uk/MDRSdtmM/CDISC/V3
      :id: M-CDISC_SDTMMODEL_VISITDY
- :type: http://www.assero.co.uk/BusinessDomain#ClassVariable
  :id: M-CDISC_SDTMMODELINTERVENTIONS_TAETORD
  :namespace: http://www.assero.co.uk/MDRSdtmMd/CDISC/V3
  :label: Planned Order of Element within Arm
  :extension_properties: []
  :ordinal: 52
  :rule: ''
  :name: TAETORD
  :variable_ref:
    :type: http://www.assero.co.uk/BusinessOperational#CReference
    :id: M-CDISC_SDTMMODELINTERVENTIONS_TAETORD_CR1
    :namespace: http://www.assero.co.uk/MDRSdtmMd/CDISC/V3
    :label: Based on Variable Reference
    :extension_properties: []
    :enabled: true
    :optional: false
    :ordinal: 1
    :local_label: ''
    :subject_ref:
      :namespace: http://www.assero.co.uk/MDRSdtmM/CDISC/V3
      :id: M-CDISC_SDTMMODEL_TAETORD
- :type: http://www.assero.co.uk/BusinessDomain#ClassVariable
  :id: M-CDISC_SDTMMODELINTERVENTIONS_EPOCH
  :namespace: http://www.assero.co.uk/MDRSdtmMd/CDISC/V3
  :label: Epoch
  :extension_properties: []
  :ordinal: 53
  :rule: ''
  :name: EPOCH
  :variable_ref:
    :type: http://www.assero.co.uk/BusinessOperational#CReference
    :id: M-CDISC_SDTMMODELINTERVENTIONS_EPOCH_CR1
    :namespace: http://www.assero.co.uk/MDRSdtmMd/CDISC/V3
    :label: Based on Variable Reference
    :extension_properties: []
    :enabled: true
    :optional: false
    :ordinal: 1
    :local_label: ''
    :subject_ref:
      :namespace: http://www.assero.co.uk/MDRSdtmM/CDISC/V3
      :id: M-CDISC_SDTMMODEL_EPOCH
- :type: http://www.assero.co.uk/BusinessDomain#ClassVariable
  :id: M-CDISC_SDTMMODELINTERVENTIONS_xxDTC
  :namespace: http://www.assero.co.uk/MDRSdtmMd/CDISC/V3
  :label: Date/Time of Collection
  :extension_properties: []
  :ordinal: 54
  :rule: ''
  :name: "--DTC"
  :variable_ref:
    :type: http://www.assero.co.uk/BusinessOperational#CReference
    :id: M-CDISC_SDTMMODELINTERVENTIONS_xxDTC_CR1
    :namespace: http://www.assero.co.uk/MDRSdtmMd/CDISC/V3
    :label: Based on Variable Reference
    :extension_properties: []
    :enabled: true
    :optional: false
    :ordinal: 1
    :local_label: ''
    :subject_ref:
      :namespace: http://www.assero.co.uk/MDRSdtmM/CDISC/V3
      :id: M-CDISC_SDTMMODEL_xxDTC
- :type: http://www.assero.co.uk/BusinessDomain#ClassVariable
  :id: M-CDISC_SDTMMODELINTERVENTIONS_xxSTDTC
  :namespace: http://www.assero.co.uk/MDRSdtmMd/CDISC/V3
  :label: Start Date/Time of Observation
  :extension_properties: []
  :ordinal: 55
  :rule: ''
  :name: "--STDTC"
  :variable_ref:
    :type: http://www.assero.co.uk/BusinessOperational#CReference
    :id: M-CDISC_SDTMMODELINTERVENTIONS_xxSTDTC_CR1
    :namespace: http://www.assero.co.uk/MDRSdtmMd/CDISC/V3
    :label: Based on Variable Reference
    :extension_properties: []
    :enabled: true
    :optional: false
    :ordinal: 1
    :local_label: ''
    :subject_ref:
      :namespace: http://www.assero.co.uk/MDRSdtmM/CDISC/V3
      :id: M-CDISC_SDTMMODEL_xxSTDTC
- :type: http://www.assero.co.uk/BusinessDomain#ClassVariable
  :id: M-CDISC_SDTMMODELINTERVENTIONS_xxENDTC
  :namespace: http://www.assero.co.uk/MDRSdtmMd/CDISC/V3
  :label: End Date/Time of Observation
  :extension_properties: []
  :ordinal: 56
  :rule: ''
  :name: "--ENDTC"
  :variable_ref:
    :type: http://www.assero.co.uk/BusinessOperational#CReference
    :id: M-CDISC_SDTMMODELINTERVENTIONS_xxENDTC_CR1
    :namespace: http://www.assero.co.uk/MDRSdtmMd/CDISC/V3
    :label: Based on Variable Reference
    :extension_properties: []
    :enabled: true
    :optional: false
    :ordinal: 1
    :local_label: ''
    :subject_ref:
      :namespace: http://www.assero.co.uk/MDRSdtmM/CDISC/V3
      :id: M-CDISC_SDTMMODEL_xxENDTC
- :type: http://www.assero.co.uk/BusinessDomain#ClassVariable
  :id: M-CDISC_SDTMMODELINTERVENTIONS_xxDY
  :namespace: http://www.assero.co.uk/MDRSdtmMd/CDISC/V3
  :label: Study Day of Visit/Collection/Exam
  :extension_properties: []
  :ordinal: 57
  :rule: ''
  :name: "--DY"
  :variable_ref:
    :type: http://www.assero.co.uk/BusinessOperational#CReference
    :id: M-CDISC_SDTMMODELINTERVENTIONS_xxDY_CR1
    :namespace: http://www.assero.co.uk/MDRSdtmMd/CDISC/V3
    :label: Based on Variable Reference
    :extension_properties: []
    :enabled: true
    :optional: false
    :ordinal: 1
    :local_label: ''
    :subject_ref:
      :namespace: http://www.assero.co.uk/MDRSdtmM/CDISC/V3
      :id: M-CDISC_SDTMMODEL_xxDY
- :type: http://www.assero.co.uk/BusinessDomain#ClassVariable
  :id: M-CDISC_SDTMMODELINTERVENTIONS_xxSTDY
  :namespace: http://www.assero.co.uk/MDRSdtmMd/CDISC/V3
  :label: Study Day of Start of Observation
  :extension_properties: []
  :ordinal: 58
  :rule: ''
  :name: "--STDY"
  :variable_ref:
    :type: http://www.assero.co.uk/BusinessOperational#CReference
    :id: M-CDISC_SDTMMODELINTERVENTIONS_xxSTDY_CR1
    :namespace: http://www.assero.co.uk/MDRSdtmMd/CDISC/V3
    :label: Based on Variable Reference
    :extension_properties: []
    :enabled: true
    :optional: false
    :ordinal: 1
    :local_label: ''
    :subject_ref:
      :namespace: http://www.assero.co.uk/MDRSdtmM/CDISC/V3
      :id: M-CDISC_SDTMMODEL_xxSTDY
- :type: http://www.assero.co.uk/BusinessDomain#ClassVariable
  :id: M-CDISC_SDTMMODELINTERVENTIONS_xxENDY
  :namespace: http://www.assero.co.uk/MDRSdtmMd/CDISC/V3
  :label: Study Day of End of Observation
  :extension_properties: []
  :ordinal: 59
  :rule: ''
  :name: "--ENDY"
  :variable_ref:
    :type: http://www.assero.co.uk/BusinessOperational#CReference
    :id: M-CDISC_SDTMMODELINTERVENTIONS_xxENDY_CR1
    :namespace: http://www.assero.co.uk/MDRSdtmMd/CDISC/V3
    :label: Based on Variable Reference
    :extension_properties: []
    :enabled: true
    :optional: false
    :ordinal: 1
    :local_label: ''
    :subject_ref:
      :namespace: http://www.assero.co.uk/MDRSdtmM/CDISC/V3
      :id: M-CDISC_SDTMMODEL_xxENDY
- :type: http://www.assero.co.uk/BusinessDomain#ClassVariable
  :id: M-CDISC_SDTMMODELINTERVENTIONS_xxDUR
  :namespace: http://www.assero.co.uk/MDRSdtmMd/CDISC/V3
  :label: Duration
  :extension_properties: []
  :ordinal: 60
  :rule: ''
  :name: "--DUR"
  :variable_ref:
    :type: http://www.assero.co.uk/BusinessOperational#CReference
    :id: M-CDISC_SDTMMODELINTERVENTIONS_xxDUR_CR1
    :namespace: http://www.assero.co.uk/MDRSdtmMd/CDISC/V3
    :label: Based on Variable Reference
    :extension_properties: []
    :enabled: true
    :optional: false
    :ordinal: 1
    :local_label: ''
    :subject_ref:
      :namespace: http://www.assero.co.uk/MDRSdtmM/CDISC/V3
      :id: M-CDISC_SDTMMODEL_xxDUR
- :type: http://www.assero.co.uk/BusinessDomain#ClassVariable
  :id: M-CDISC_SDTMMODELINTERVENTIONS_xxTPT
  :namespace: http://www.assero.co.uk/MDRSdtmMd/CDISC/V3
  :label: Planned Time Point Name
  :extension_properties: []
  :ordinal: 61
  :rule: ''
  :name: "--TPT"
  :variable_ref:
    :type: http://www.assero.co.uk/BusinessOperational#CReference
    :id: M-CDISC_SDTMMODELINTERVENTIONS_xxTPT_CR1
    :namespace: http://www.assero.co.uk/MDRSdtmMd/CDISC/V3
    :label: Based on Variable Reference
    :extension_properties: []
    :enabled: true
    :optional: false
    :ordinal: 1
    :local_label: ''
    :subject_ref:
      :namespace: http://www.assero.co.uk/MDRSdtmM/CDISC/V3
      :id: M-CDISC_SDTMMODEL_xxTPT
- :type: http://www.assero.co.uk/BusinessDomain#ClassVariable
  :id: M-CDISC_SDTMMODELINTERVENTIONS_xxTPTNUM
  :namespace: http://www.assero.co.uk/MDRSdtmMd/CDISC/V3
  :label: Planned Time Point Number
  :extension_properties: []
  :ordinal: 62
  :rule: ''
  :name: "--TPTNUM"
  :variable_ref:
    :type: http://www.assero.co.uk/BusinessOperational#CReference
    :id: M-CDISC_SDTMMODELINTERVENTIONS_xxTPTNUM_CR1
    :namespace: http://www.assero.co.uk/MDRSdtmMd/CDISC/V3
    :label: Based on Variable Reference
    :extension_properties: []
    :enabled: true
    :optional: false
    :ordinal: 1
    :local_label: ''
    :subject_ref:
      :namespace: http://www.assero.co.uk/MDRSdtmM/CDISC/V3
      :id: M-CDISC_SDTMMODEL_xxTPTNUM
- :type: http://www.assero.co.uk/BusinessDomain#ClassVariable
  :id: M-CDISC_SDTMMODELINTERVENTIONS_xxELTM
  :namespace: http://www.assero.co.uk/MDRSdtmMd/CDISC/V3
  :label: Planned Elapsed Time from Time Point Ref
  :extension_properties: []
  :ordinal: 63
  :rule: ''
  :name: "--ELTM"
  :variable_ref:
    :type: http://www.assero.co.uk/BusinessOperational#CReference
    :id: M-CDISC_SDTMMODELINTERVENTIONS_xxELTM_CR1
    :namespace: http://www.assero.co.uk/MDRSdtmMd/CDISC/V3
    :label: Based on Variable Reference
    :extension_properties: []
    :enabled: true
    :optional: false
    :ordinal: 1
    :local_label: ''
    :subject_ref:
      :namespace: http://www.assero.co.uk/MDRSdtmM/CDISC/V3
      :id: M-CDISC_SDTMMODEL_xxELTM
- :type: http://www.assero.co.uk/BusinessDomain#ClassVariable
  :id: M-CDISC_SDTMMODELINTERVENTIONS_xxTPTREF
  :namespace: http://www.assero.co.uk/MDRSdtmMd/CDISC/V3
  :label: Time Point Reference
  :extension_properties: []
  :ordinal: 64
  :rule: ''
  :name: "--TPTREF"
  :variable_ref:
    :type: http://www.assero.co.uk/BusinessOperational#CReference
    :id: M-CDISC_SDTMMODELINTERVENTIONS_xxTPTREF_CR1
    :namespace: http://www.assero.co.uk/MDRSdtmMd/CDISC/V3
    :label: Based on Variable Reference
    :extension_properties: []
    :enabled: true
    :optional: false
    :ordinal: 1
    :local_label: ''
    :subject_ref:
      :namespace: http://www.assero.co.uk/MDRSdtmM/CDISC/V3
      :id: M-CDISC_SDTMMODEL_xxTPTREF
- :type: http://www.assero.co.uk/BusinessDomain#ClassVariable
  :id: M-CDISC_SDTMMODELINTERVENTIONS_xxRFTDTC
  :namespace: http://www.assero.co.uk/MDRSdtmMd/CDISC/V3
  :label: Date/Time of Reference Time Point
  :extension_properties: []
  :ordinal: 65
  :rule: ''
  :name: "--RFTDTC"
  :variable_ref:
    :type: http://www.assero.co.uk/BusinessOperational#CReference
    :id: M-CDISC_SDTMMODELINTERVENTIONS_xxRFTDTC_CR1
    :namespace: http://www.assero.co.uk/MDRSdtmMd/CDISC/V3
    :label: Based on Variable Reference
    :extension_properties: []
    :enabled: true
    :optional: false
    :ordinal: 1
    :local_label: ''
    :subject_ref:
      :namespace: http://www.assero.co.uk/MDRSdtmM/CDISC/V3
      :id: M-CDISC_SDTMMODEL_xxRFTDTC
- :type: http://www.assero.co.uk/BusinessDomain#ClassVariable
  :id: M-CDISC_SDTMMODELINTERVENTIONS_xxSTRF
  :namespace: http://www.assero.co.uk/MDRSdtmMd/CDISC/V3
  :label: Start Relative to Reference Period
  :extension_properties: []
  :ordinal: 66
  :rule: ''
  :name: "--STRF"
  :variable_ref:
    :type: http://www.assero.co.uk/BusinessOperational#CReference
    :id: M-CDISC_SDTMMODELINTERVENTIONS_xxSTRF_CR1
    :namespace: http://www.assero.co.uk/MDRSdtmMd/CDISC/V3
    :label: Based on Variable Reference
    :extension_properties: []
    :enabled: true
    :optional: false
    :ordinal: 1
    :local_label: ''
    :subject_ref:
      :namespace: http://www.assero.co.uk/MDRSdtmM/CDISC/V3
      :id: M-CDISC_SDTMMODEL_xxSTRF
- :type: http://www.assero.co.uk/BusinessDomain#ClassVariable
  :id: M-CDISC_SDTMMODELINTERVENTIONS_xxENRF
  :namespace: http://www.assero.co.uk/MDRSdtmMd/CDISC/V3
  :label: End Relative to Reference Period
  :extension_properties: []
  :ordinal: 67
  :rule: ''
  :name: "--ENRF"
  :variable_ref:
    :type: http://www.assero.co.uk/BusinessOperational#CReference
    :id: M-CDISC_SDTMMODELINTERVENTIONS_xxENRF_CR1
    :namespace: http://www.assero.co.uk/MDRSdtmMd/CDISC/V3
    :label: Based on Variable Reference
    :extension_properties: []
    :enabled: true
    :optional: false
    :ordinal: 1
    :local_label: ''
    :subject_ref:
      :namespace: http://www.assero.co.uk/MDRSdtmM/CDISC/V3
      :id: M-CDISC_SDTMMODEL_xxENRF
- :type: http://www.assero.co.uk/BusinessDomain#ClassVariable
  :id: M-CDISC_SDTMMODELINTERVENTIONS_xxEVLINT
  :namespace: http://www.assero.co.uk/MDRSdtmMd/CDISC/V3
  :label: Evaluation Interval
  :extension_properties: []
  :ordinal: 68
  :rule: ''
  :name: "--EVLINT"
  :variable_ref:
    :type: http://www.assero.co.uk/BusinessOperational#CReference
    :id: M-CDISC_SDTMMODELINTERVENTIONS_xxEVLINT_CR1
    :namespace: http://www.assero.co.uk/MDRSdtmMd/CDISC/V3
    :label: Based on Variable Reference
    :extension_properties: []
    :enabled: true
    :optional: false
    :ordinal: 1
    :local_label: ''
    :subject_ref:
      :namespace: http://www.assero.co.uk/MDRSdtmM/CDISC/V3
      :id: M-CDISC_SDTMMODEL_xxEVLINT
- :type: http://www.assero.co.uk/BusinessDomain#ClassVariable
  :id: M-CDISC_SDTMMODELINTERVENTIONS_xxEVINTX
  :namespace: http://www.assero.co.uk/MDRSdtmMd/CDISC/V3
  :label: Evaluation Interval Text
  :extension_properties: []
  :ordinal: 69
  :rule: ''
  :name: "--EVINTX"
  :variable_ref:
    :type: http://www.assero.co.uk/BusinessOperational#CReference
    :id: M-CDISC_SDTMMODELINTERVENTIONS_xxEVINTX_CR1
    :namespace: http://www.assero.co.uk/MDRSdtmMd/CDISC/V3
    :label: Based on Variable Reference
    :extension_properties: []
    :enabled: true
    :optional: false
    :ordinal: 1
    :local_label: ''
    :subject_ref:
      :namespace: http://www.assero.co.uk/MDRSdtmM/CDISC/V3
      :id: M-CDISC_SDTMMODEL_xxEVINTX
- :type: http://www.assero.co.uk/BusinessDomain#ClassVariable
  :id: M-CDISC_SDTMMODELINTERVENTIONS_xxSTRTPT
  :namespace: http://www.assero.co.uk/MDRSdtmMd/CDISC/V3
  :label: Start Relative to Reference Time Point
  :extension_properties: []
  :ordinal: 70
  :rule: ''
  :name: "--STRTPT"
  :variable_ref:
    :type: http://www.assero.co.uk/BusinessOperational#CReference
    :id: M-CDISC_SDTMMODELINTERVENTIONS_xxSTRTPT_CR1
    :namespace: http://www.assero.co.uk/MDRSdtmMd/CDISC/V3
    :label: Based on Variable Reference
    :extension_properties: []
    :enabled: true
    :optional: false
    :ordinal: 1
    :local_label: ''
    :subject_ref:
      :namespace: http://www.assero.co.uk/MDRSdtmM/CDISC/V3
      :id: M-CDISC_SDTMMODEL_xxSTRTPT
- :type: http://www.assero.co.uk/BusinessDomain#ClassVariable
  :id: M-CDISC_SDTMMODELINTERVENTIONS_xxSTTPT
  :namespace: http://www.assero.co.uk/MDRSdtmMd/CDISC/V3
  :label: Start Reference Time Point
  :extension_properties: []
  :ordinal: 71
  :rule: ''
  :name: "--STTPT"
  :variable_ref:
    :type: http://www.assero.co.uk/BusinessOperational#CReference
    :id: M-CDISC_SDTMMODELINTERVENTIONS_xxSTTPT_CR1
    :namespace: http://www.assero.co.uk/MDRSdtmMd/CDISC/V3
    :label: Based on Variable Reference
    :extension_properties: []
    :enabled: true
    :optional: false
    :ordinal: 1
    :local_label: ''
    :subject_ref:
      :namespace: http://www.assero.co.uk/MDRSdtmM/CDISC/V3
      :id: M-CDISC_SDTMMODEL_xxSTTPT
- :type: http://www.assero.co.uk/BusinessDomain#ClassVariable
  :id: M-CDISC_SDTMMODELINTERVENTIONS_xxENRTPT
  :namespace: http://www.assero.co.uk/MDRSdtmMd/CDISC/V3
  :label: End Relative to Reference Time Point
  :extension_properties: []
  :ordinal: 72
  :rule: ''
  :name: "--ENRTPT"
  :variable_ref:
    :type: http://www.assero.co.uk/BusinessOperational#CReference
    :id: M-CDISC_SDTMMODELINTERVENTIONS_xxENRTPT_CR1
    :namespace: http://www.assero.co.uk/MDRSdtmMd/CDISC/V3
    :label: Based on Variable Reference
    :extension_properties: []
    :enabled: true
    :optional: false
    :ordinal: 1
    :local_label: ''
    :subject_ref:
      :namespace: http://www.assero.co.uk/MDRSdtmM/CDISC/V3
      :id: M-CDISC_SDTMMODEL_xxENRTPT
- :type: http://www.assero.co.uk/BusinessDomain#ClassVariable
  :id: M-CDISC_SDTMMODELINTERVENTIONS_xxENTPT
  :namespace: http://www.assero.co.uk/MDRSdtmMd/CDISC/V3
  :label: End Reference Time Point
  :extension_properties: []
  :ordinal: 73
  :rule: ''
  :name: "--ENTPT"
  :variable_ref:
    :type: http://www.assero.co.uk/BusinessOperational#CReference
    :id: M-CDISC_SDTMMODELINTERVENTIONS_xxENTPT_CR1
    :namespace: http://www.assero.co.uk/MDRSdtmMd/CDISC/V3
    :label: Based on Variable Reference
    :extension_properties: []
    :enabled: true
    :optional: false
    :ordinal: 1
    :local_label: ''
    :subject_ref:
      :namespace: http://www.assero.co.uk/MDRSdtmM/CDISC/V3
      :id: M-CDISC_SDTMMODEL_xxENTPT
- :type: http://www.assero.co.uk/BusinessDomain#ClassVariable
  :id: M-CDISC_SDTMMODELINTERVENTIONS_xxSTINT
  :namespace: http://www.assero.co.uk/MDRSdtmMd/CDISC/V3
  :label: Planned Start of Assessment Interval
  :extension_properties: []
  :ordinal: 74
  :rule: ''
  :name: "--STINT"
  :variable_ref:
    :type: http://www.assero.co.uk/BusinessOperational#CReference
    :id: M-CDISC_SDTMMODELINTERVENTIONS_xxSTINT_CR1
    :namespace: http://www.assero.co.uk/MDRSdtmMd/CDISC/V3
    :label: Based on Variable Reference
    :extension_properties: []
    :enabled: true
    :optional: false
    :ordinal: 1
    :local_label: ''
    :subject_ref:
      :namespace: http://www.assero.co.uk/MDRSdtmM/CDISC/V3
      :id: M-CDISC_SDTMMODEL_xxSTINT
- :type: http://www.assero.co.uk/BusinessDomain#ClassVariable
  :id: M-CDISC_SDTMMODELINTERVENTIONS_xxENINT
  :namespace: http://www.assero.co.uk/MDRSdtmMd/CDISC/V3
  :label: Planned End of Assessment Interval
  :extension_properties: []
  :ordinal: 75
  :rule: ''
  :name: "--ENINT"
  :variable_ref:
    :type: http://www.assero.co.uk/BusinessOperational#CReference
    :id: M-CDISC_SDTMMODELINTERVENTIONS_xxENINT_CR1
    :namespace: http://www.assero.co.uk/MDRSdtmMd/CDISC/V3
    :label: Based on Variable Reference
    :extension_properties: []
    :enabled: true
    :optional: false
    :ordinal: 1
    :local_label: ''
    :subject_ref:
      :namespace: http://www.assero.co.uk/MDRSdtmM/CDISC/V3
      :id: M-CDISC_SDTMMODEL_xxENINT
- :type: http://www.assero.co.uk/BusinessDomain#ClassVariable
  :id: M-CDISC_SDTMMODELINTERVENTIONS_xxDETECT
  :namespace: http://www.assero.co.uk/MDRSdtmMd/CDISC/V3
  :label: Time in Days to Detection
  :extension_properties: []
  :ordinal: 76
  :rule: ''
  :name: "--DETECT"
  :variable_ref:
    :type: http://www.assero.co.uk/BusinessOperational#CReference
    :id: M-CDISC_SDTMMODELINTERVENTIONS_xxDETECT_CR1
    :namespace: http://www.assero.co.uk/MDRSdtmMd/CDISC/V3
    :label: Based on Variable Reference
    :extension_properties: []
    :enabled: true
    :optional: false
    :ordinal: 1
    :local_label: ''
    :subject_ref:
      :namespace: http://www.assero.co.uk/MDRSdtmM/CDISC/V3
      :id: M-CDISC_SDTMMODEL_xxDETECT
