@prefix : <http://www.cdisc.org/ADAM_IG/V2#> .
@prefix bd: <http://www.assero.co.uk/Tabulation#> .
@prefix isoC: <http://www.assero.co.uk/ISO11179Concepts#> .
@prefix isoT: <http://www.assero.co.uk/ISO11179Types#> .
@prefix isoR: <http://www.assero.co.uk/ISO11179Registration#> .
@prefix isoI: <http://www.assero.co.uk/ISO11179Identification#> .
@prefix bo: <http://www.assero.co.uk/BusinessOperational#> .
@prefix owl: <http://www.w3.org/2002/07/owl#> .
@prefix rdf: <http://www.w3.org/1999/02/22-rdf-syntax-ns#> .
@prefix rdfs: <http://www.w3.org/2000/01/rdf-schema#> .
@prefix xsd: <http://www.w3.org/2001/XMLSchema#> .
@prefix skos: <http://www.w3.org/2004/02/skos/core#> .

<http://www.cdisc.org/ADAM_IG/V2>
	rdf:type owl:Ontology ;
.
:AIG
	rdf:type bd:ADaMImplementationGuide ;
	isoC:label "Controlled Terminology"^^xsd:string ;
	isoT:hasState :AIG_RS ;
	isoT:hasIdentifier :AIG_SI ;
	isoT:origin "Created from files: 'adam_1-1.xlsx'"^^xsd:string ;
	isoT:changeDescription ""^^xsd:string ;
	isoT:creationDate "2016-02-12T00:00:00+00:00"^^xsd:dateTime ;
	isoT:lastChangeDate "2016-02-12T00:00:00+00:00"^^xsd:dateTime ;
	isoT:explanatoryComment ""^^xsd:string ;
	bo:hasManaged :AIG_R1 ;
	bo:hasManaged :AIG_R2 ;
.
:AIG_RS
	rdf:type isoR:RegistrationState ;
	isoR:registrationStatus "Standard"^^xsd:string ;
	isoR:administrativeNote ""^^xsd:string ;
	isoR:effectiveDate "2016-01-01T00:00:00+00:00"^^xsd:dateTime ;
	isoR:untilDate "2016-01-01T00:00:00+00:00"^^xsd:dateTime ;
	isoR:unresolvedIssue ""^^xsd:string ;
	isoR:administrativeStatus ""^^xsd:string ;
	isoR:previousState "Standard"^^xsd:string ;
	isoR:multipleEdit "false"^^xsd:boolean ;
	isoR:byAuthority <http://www.assero.co.uk/RA#DUNS084433759> ;
.
:AIG_SI
	rdf:type isoI:ScopedIdentifier ;
	isoI:identifier "ADAM IG"^^xsd:string ;
	isoI:versionLabel "2016-02-12 Release"^^xsd:string ;
	isoI:version "2"^^xsd:positiveInteger ;
	isoI:semanticVersion "2.0.0"^^xsd:string ;
	isoI:hasScope <http://www.assero.co.uk/NS#CDISC> ;
.
:AIG_R1
	rdf:type bo:Reference ;
	isoC:label ""^^xsd:string ;
	bo:enabled "true"^^xsd:boolean ;
	bo:optional "false"^^xsd:boolean ;
	bo:ordinal "1"^^xsd:positiveInteger ;
	bo:reference <http://www.cdisc.org/ADSL/V2> ;
.
:AIG_R2
	rdf:type bo:Reference ;
	isoC:label ""^^xsd:string ;
	bo:enabled "true"^^xsd:boolean ;
	bo:optional "false"^^xsd:boolean ;
	bo:ordinal "2"^^xsd:positiveInteger ;
	bo:reference <http://www.cdisc.org/Basic_Data_Structure/V2> ;
.
<http://www.cdisc.org/ADSL/V2>
	rdf:type bd:ADaMDataset ;
	isoC:label "Subject-Level Analysis Dataset"^^xsd:string ;
	isoT:hasState <http://www.cdisc.org/ADSL/V2#RS> ;
	isoT:hasIdentifier <http://www.cdisc.org/ADSL/V2#SI> ;
	isoT:origin ""^^xsd:string ;
	isoT:changeDescription ""^^xsd:string ;
	isoT:creationDate "2016-02-12T00:00:00+00:00"^^xsd:dateTime ;
	isoT:lastChangeDate "2016-02-12T00:00:00+00:00"^^xsd:dateTime ;
	isoT:explanatoryComment ""^^xsd:string ;
	bd:rule ""^^xsd:string ;
	bd:ordinal "1"^^xsd:positiveInteger ;
	bd:includesColumn <http://www.cdisc.org/ADSL/V2#AVSTUDYID> ;
	bd:includesColumn <http://www.cdisc.org/ADSL/V2#AVUSUBJID> ;
	bd:includesColumn <http://www.cdisc.org/ADSL/V2#AVSUBJID> ;
	bd:includesColumn <http://www.cdisc.org/ADSL/V2#AVSITEID> ;
	bd:includesColumn <http://www.cdisc.org/ADSL/V1#AVSITEGRy> ;
	bd:includesColumn <http://www.cdisc.org/ADSL/V2#AVSITEGRyN> ;
	bd:includesColumn <http://www.cdisc.org/ADSL/V2#AVREGIONy> ;
	bd:includesColumn <http://www.cdisc.org/ADSL/V2#AVREGIONyN> ;
	bd:includesColumn <http://www.cdisc.org/ADSL/V2#AVAGE> ;
	bd:includesColumn <http://www.cdisc.org/ADSL/V2#AVAGEU> ;
	bd:includesColumn <http://www.cdisc.org/ADSL/V2#AVAGEGRy> ;
	bd:includesColumn <http://www.cdisc.org/ADSL/V2#AVAGEGRyN> ;
	bd:includesColumn <http://www.cdisc.org/ADSL/V2#AVAAGE> ;
	bd:includesColumn <http://www.cdisc.org/ADSL/V2#AVSEX> ;
	bd:includesColumn <http://www.cdisc.org/ADSL/V2#AVRACE> ;
	bd:includesColumn <http://www.cdisc.org/ADSL/V2#AVRACEGRy> ;
	bd:includesColumn <http://www.cdisc.org/ADSL/V2#AVRACEGRyN> ;
	bd:includesColumn <http://www.cdisc.org/ADSL/V2#AVFASFL> ;
	bd:includesColumn <http://www.cdisc.org/ADSL/V2#AVSAFFL> ;
	bd:includesColumn <http://www.cdisc.org/ADSL/V2#AVITTFL> ;
	bd:includesColumn <http://www.cdisc.org/ADSL/V2#AVPPROTFL> ;
	bd:includesColumn <http://www.cdisc.org/ADSL/V2#AVCOMPLFL> ;
	bd:includesColumn <http://www.cdisc.org/ADSL/V2#AVRANDFL> ;
	bd:includesColumn <http://www.cdisc.org/ADSL/V2#AVENRLFL> ;
	bd:includesColumn <http://www.cdisc.org/ADSL/V2#AVARM> ;
	bd:includesColumn <http://www.cdisc.org/ADSL/V2#AVACTARM> ;
	bd:includesColumn <http://www.cdisc.org/ADSL/V2#AVTRTxxP> ;
	bd:includesColumn <http://www.cdisc.org/ADSL/V2#AVTRTxxPN> ;
	bd:includesColumn <http://www.cdisc.org/ADSL/V2#AVTRTxxA> ;
	bd:includesColumn <http://www.cdisc.org/ADSL/V2#AVTRTxxAN> ;
	bd:includesColumn <http://www.cdisc.org/ADSL/V2#AVTRTSEQP> ;
	bd:includesColumn <http://www.cdisc.org/ADSL/V2#AVTRTSEQPN> ;
	bd:includesColumn <http://www.cdisc.org/ADSL/V2#AVTRTSEQA> ;
	bd:includesColumn <http://www.cdisc.org/ADSL/V2#AVTRTSEQAN> ;
	bd:includesColumn <http://www.cdisc.org/ADSL/V2#AVTRxxPGy> ;
	bd:includesColumn <http://www.cdisc.org/ADSL/V2#AVTRxxPGyN> ;
	bd:includesColumn <http://www.cdisc.org/ADSL/V2#AVTRxxAGy> ;
	bd:includesColumn <http://www.cdisc.org/ADSL/V2#AVTRxxAGyN> ;
	bd:includesColumn <http://www.cdisc.org/ADSL/V2#AVTSEQPGy> ;
	bd:includesColumn <http://www.cdisc.org/ADSL/V2#AVTSEQPGyN> ;
	bd:includesColumn <http://www.cdisc.org/ADSL/V2#AVTSEQAGy> ;
	bd:includesColumn <http://www.cdisc.org/ADSL/V2#AVTSEQAGyN> ;
	bd:includesColumn <http://www.cdisc.org/ADSL/V2#AVDOSExxP> ;
	bd:includesColumn <http://www.cdisc.org/ADSL/V2#AVDOSExxA> ;
	bd:includesColumn <http://www.cdisc.org/ADSL/V2#AVDOSExxU> ;
	bd:includesColumn <http://www.cdisc.org/ADSL/V2#AVTRTSDT> ;
	bd:includesColumn <http://www.cdisc.org/ADSL/V2#AVTRTSTM> ;
	bd:includesColumn <http://www.cdisc.org/ADSL/V2#AVTRTSDTM> ;
	bd:includesColumn <http://www.cdisc.org/ADSL/V2#AVTRTSDTF> ;
	bd:includesColumn <http://www.cdisc.org/ADSL/V2#AVTRTSTMF> ;
	bd:includesColumn <http://www.cdisc.org/ADSL/V2#AVTRTEDT> ;
	bd:includesColumn <http://www.cdisc.org/ADSL/V2#AVTRTETM> ;
	bd:includesColumn <http://www.cdisc.org/ADSL/V2#AVTRTEDTM> ;
	bd:includesColumn <http://www.cdisc.org/ADSL/V2#AVTRTEDTF> ;
	bd:includesColumn <http://www.cdisc.org/ADSL/V2#AVTRTETMF> ;
	bd:includesColumn <http://www.cdisc.org/ADSL/V2#AVTRxxSDT> ;
	bd:includesColumn <http://www.cdisc.org/ADSL/V2#AVTRxxSTM> ;
	bd:includesColumn <http://www.cdisc.org/ADSL/V2#AVTRxxSDTM> ;
	bd:includesColumn <http://www.cdisc.org/ADSL/V2#AVTRxxSDTF> ;
	bd:includesColumn <http://www.cdisc.org/ADSL/V2#AVTRxxSTMF> ;
	bd:includesColumn <http://www.cdisc.org/ADSL/V2#AVTRxxEDT> ;
	bd:includesColumn <http://www.cdisc.org/ADSL/V2#AVTRxxETM> ;
	bd:includesColumn <http://www.cdisc.org/ADSL/V2#AVTRxxEDTM> ;
	bd:includesColumn <http://www.cdisc.org/ADSL/V2#AVTRxxEDTF> ;
	bd:includesColumn <http://www.cdisc.org/ADSL/V2#AVTRxxETMF> ;
	bd:includesColumn <http://www.cdisc.org/ADSL/V2#AVAPxxSDT> ;
	bd:includesColumn <http://www.cdisc.org/ADSL/V2#AVAPxxSTM> ;
	bd:includesColumn <http://www.cdisc.org/ADSL/V2#AVAPxxSDTM> ;
	bd:includesColumn <http://www.cdisc.org/ADSL/V2#AVAPxxSDTF> ;
	bd:includesColumn <http://www.cdisc.org/ADSL/V2#AVAPxxSTMF> ;
	bd:includesColumn <http://www.cdisc.org/ADSL/V2#AVAPxxEDT> ;
	bd:includesColumn <http://www.cdisc.org/ADSL/V2#AVAPxxETM> ;
	bd:includesColumn <http://www.cdisc.org/ADSL/V2#AVAPxxEDTM> ;
	bd:includesColumn <http://www.cdisc.org/ADSL/V2#AVAPxxEDTF> ;
	bd:includesColumn <http://www.cdisc.org/ADSL/V2#AVAPxxETMF> ;
	bd:includesColumn <http://www.cdisc.org/ADSL/V2#AVPxxSw> ;
	bd:includesColumn <http://www.cdisc.org/ADSL/V2#AVPxxSwSDT> ;
	bd:includesColumn <http://www.cdisc.org/ADSL/V2#AVPxxSwSTM> ;
	bd:includesColumn <http://www.cdisc.org/ADSL/V2#AVPxxSwSDM> ;
	bd:includesColumn <http://www.cdisc.org/ADSL/V2#AVPxxSwSDF> ;
	bd:includesColumn <http://www.cdisc.org/ADSL/V2#AVPxxSwSTF> ;
	bd:includesColumn <http://www.cdisc.org/ADSL/V2#AVPxxSwEDT> ;
	bd:includesColumn <http://www.cdisc.org/ADSL/V2#AVPxxSwETM> ;
	bd:includesColumn <http://www.cdisc.org/ADSL/V2#AVPxxSwEDM> ;
	bd:includesColumn <http://www.cdisc.org/ADSL/V2#AVPxxSwEDF> ;
	bd:includesColumn <http://www.cdisc.org/ADSL/V2#AVPxxSwETF> ;
	bd:includesColumn <http://www.cdisc.org/ADSL/V2#AVAPHASEw> ;
	bd:includesColumn <http://www.cdisc.org/ADSL/V2#AVPHwSDT> ;
	bd:includesColumn <http://www.cdisc.org/ADSL/V2#AVPHwSTM> ;
	bd:includesColumn <http://www.cdisc.org/ADSL/V2#AVPHwSDTM> ;
	bd:includesColumn <http://www.cdisc.org/ADSL/V2#AVPHwSDTF> ;
	bd:includesColumn <http://www.cdisc.org/ADSL/V2#AVPHwSTMF> ;
	bd:includesColumn <http://www.cdisc.org/ADSL/V2#AVPHwEDT> ;
	bd:includesColumn <http://www.cdisc.org/ADSL/V2#AVPHwETM> ;
	bd:includesColumn <http://www.cdisc.org/ADSL/V2#AVPHwEDTM> ;
	bd:includesColumn <http://www.cdisc.org/ADSL/V2#AVPHwEDTF> ;
	bd:includesColumn <http://www.cdisc.org/ADSL/V2#AVPHwETMF> ;
	bd:includesColumn <http://www.cdisc.org/ADSL/V2#AVEOSSTT> ;
	bd:includesColumn <http://www.cdisc.org/ADSL/V2#AVEOSDT> ;
	bd:includesColumn <http://www.cdisc.org/ADSL/V2#AVDCSREAS> ;
	bd:includesColumn <http://www.cdisc.org/ADSL/V2#AVDCSREASP> ;
	bd:includesColumn <http://www.cdisc.org/ADSL/V2#AVEOTSTT> ;
	bd:includesColumn <http://www.cdisc.org/ADSL/V2#AVDCTREAS> ;
	bd:includesColumn <http://www.cdisc.org/ADSL/V2#AVDCTREASP> ;
	bd:includesColumn <http://www.cdisc.org/ADSL/V2#AVEOTxxSTT> ;
	bd:includesColumn <http://www.cdisc.org/ADSL/V2#AVDCTxxRS> ;
	bd:includesColumn <http://www.cdisc.org/ADSL/V2#AVDCTxxRSP> ;
	bd:includesColumn <http://www.cdisc.org/ADSL/V2#AVEOPxxSTT> ;
	bd:includesColumn <http://www.cdisc.org/ADSL/V2#AVDCPxxRS> ;
	bd:includesColumn <http://www.cdisc.org/ADSL/V2#AVDCPxxRSP> ;
	bd:includesColumn <http://www.cdisc.org/ADSL/V2#AVRFICDT> ;
	bd:includesColumn <http://www.cdisc.org/ADSL/V2#AVENRLDT> ;
	bd:includesColumn <http://www.cdisc.org/ADSL/V2#AVRANDDT> ;
	bd:includesColumn <http://www.cdisc.org/ADSL/V2#AVRFICyDT> ;
	bd:includesColumn <http://www.cdisc.org/ADSL/V2#AVENRLyDT> ;
	bd:includesColumn <http://www.cdisc.org/ADSL/V2#AVRANDyDT> ;
	bd:includesColumn <http://www.cdisc.org/ADSL/V2#AVLSTALVDT> ;
	bd:includesColumn <http://www.cdisc.org/ADSL/V2#AVTRCMP> ;
	bd:includesColumn <http://www.cdisc.org/ADSL/V2#AVTRCMPGy> ;
	bd:includesColumn <http://www.cdisc.org/ADSL/V2#AVTRCMPGyN> ;
	bd:includesColumn <http://www.cdisc.org/ADSL/V2#AVTRxxDURD> ;
	bd:includesColumn <http://www.cdisc.org/ADSL/V2#AVTRxxDURM> ;
	bd:includesColumn <http://www.cdisc.org/ADSL/V2#AVTRxxDURY> ;
	bd:includesColumn <http://www.cdisc.org/ADSL/V2#AVTRTDURD> ;
	bd:includesColumn <http://www.cdisc.org/ADSL/V2#AVTRTDURM> ;
	bd:includesColumn <http://www.cdisc.org/ADSL/V2#AVTRTDURY> ;
	bd:includesColumn <http://www.cdisc.org/ADSL/V2#AVDTHDT> ;
	bd:includesColumn <http://www.cdisc.org/ADSL/V2#AVDTHDTF> ;
	bd:includesColumn <http://www.cdisc.org/ADSL/V2#AVDTHCAUS> ;
	bd:includesColumn <http://www.cdisc.org/ADSL/V2#AVDTHCAUSN> ;
	bd:includesColumn <http://www.cdisc.org/ADSL/V2#AVDTHCGRy> ;
	bd:includesColumn <http://www.cdisc.org/ADSL/V2#AVDTHCGRyN> ;
	bd:prefix ""^^xsd:string ;
	bd:structure ""^^xsd:string ;
.
<http://www.cdisc.org/ADSL/V2#RS>
	rdf:type isoR:RegistrationState ;
	isoR:registrationStatus "Standard"^^xsd:string ;
	isoR:administrativeNote ""^^xsd:string ;
	isoR:effectiveDate "2016-01-01T00:00:00+00:00"^^xsd:dateTime ;
	isoR:untilDate "2016-01-01T00:00:00+00:00"^^xsd:dateTime ;
	isoR:unresolvedIssue ""^^xsd:string ;
	isoR:administrativeStatus ""^^xsd:string ;
	isoR:previousState "Standard"^^xsd:string ;
	isoR:multipleEdit "false"^^xsd:boolean ;
	isoR:byAuthority <http://www.assero.co.uk/RA#DUNS084433759> ;
.
<http://www.cdisc.org/ADSL/V2#SI>
	rdf:type isoI:ScopedIdentifier ;
	isoI:identifier "ADSL"^^xsd:string ;
	isoI:versionLabel "2016-02-12 Release"^^xsd:string ;
	isoI:version "2"^^xsd:positiveInteger ;
	isoI:semanticVersion "2.0.0"^^xsd:string ;
	isoI:hasScope <http://www.assero.co.uk/NS#CDISC> ;
.
<http://www.cdisc.org/ADSL/V2#AVSTUDYID>
	rdf:type bd:ADaMDatasetVariable ;
	isoC:label "Study Identifier"^^xsd:string ;
	bd:rule ""^^xsd:string ;
	bd:ordinal "1"^^xsd:positiveInteger ;
	bd:name "STUDYID"^^xsd:string ;
	bd:notes "DM.STUDYID"^^xsd:string ;
	bd:ct ""^^xsd:string ;
	bd:ctNotes ""^^xsd:string ;
	bd:typedAs <http://www.assero.co.uk/CSN#f9caeead-091c-442a-acdf-6f56a64c4dff> ;
.
<http://www.cdisc.org/ADSL/V2#AVUSUBJID>
	rdf:type bd:ADaMDatasetVariable ;
	isoC:label "Unique Subject Identifier"^^xsd:string ;
	bd:rule ""^^xsd:string ;
	bd:ordinal "2"^^xsd:positiveInteger ;
	bd:name "USUBJID"^^xsd:string ;
	bd:notes "DM.USUBJID"^^xsd:string ;
	bd:ct ""^^xsd:string ;
	bd:ctNotes ""^^xsd:string ;
	bd:typedAs <http://www.assero.co.uk/CSN#f9caeead-091c-442a-acdf-6f56a64c4dff> ;
.
<http://www.cdisc.org/ADSL/V2#AVSUBJID>
	rdf:type bd:ADaMDatasetVariable ;
	isoC:label "Subject Identifier for the Study"^^xsd:string ;
	bd:rule ""^^xsd:string ;
	bd:ordinal "3"^^xsd:positiveInteger ;
	bd:name "SUBJID"^^xsd:string ;
	bd:notes "DM.SUBJID. SUBJID is required in ADSL, but permissible in other datasets."^^xsd:string ;
	bd:ct ""^^xsd:string ;
	bd:ctNotes ""^^xsd:string ;
	bd:typedAs <http://www.assero.co.uk/CSN#f9caeead-091c-442a-acdf-6f56a64c4dff> ;
.
<http://www.cdisc.org/ADSL/V2#AVSITEID>
	rdf:type bd:ADaMDatasetVariable ;
	isoC:label "Study Site Identifier"^^xsd:string ;
	bd:rule ""^^xsd:string ;
	bd:ordinal "4"^^xsd:positiveInteger ;
	bd:name "SITEID"^^xsd:string ;
	bd:notes "DM.SITEID. SITEID is required in ADSL, but permissible in other datasets."^^xsd:string ;
	bd:ct ""^^xsd:string ;
	bd:ctNotes ""^^xsd:string ;
	bd:typedAs <http://www.assero.co.uk/CSN#f9caeead-091c-442a-acdf-6f56a64c4dff> ;
.
<http://www.cdisc.org/ADSL/V2#AVSITEGRyN>
	rdf:type bd:ADaMDatasetVariable ;
	isoC:label "Pooled Site Group y (N)"^^xsd:string ;
	bd:rule ""^^xsd:string ;
	bd:ordinal "6"^^xsd:positiveInteger ;
	bd:name "SITEGRyN"^^xsd:string ;
	bd:notes "The numeric code for SITEGRy. One-to-one mapping to SITEGRy within a study."^^xsd:string ;
	bd:ct ""^^xsd:string ;
	bd:ctNotes ""^^xsd:string ;
	bd:typedAs <http://www.assero.co.uk/CSN#8b16536d-2667-4282-86b4-8724a00b8f9f> ;
.
<http://www.cdisc.org/ADSL/V2#AVREGIONy>
	rdf:type bd:ADaMDatasetVariable ;
	isoC:label "Geographic Region y"^^xsd:string ;
	bd:rule ""^^xsd:string ;
	bd:ordinal "7"^^xsd:positiveInteger ;
	bd:name "REGIONy"^^xsd:string ;
	bd:notes "Character description of geographical region. For example, REGION1 might have values of 'Asia', 'Europe', 'North America', 'Rest of World'; REGION2 might have values of 'United States', 'Rest of World'."^^xsd:string ;
	bd:ct ""^^xsd:string ;
	bd:ctNotes ""^^xsd:string ;
	bd:typedAs <http://www.assero.co.uk/CSN#f9caeead-091c-442a-acdf-6f56a64c4dff> ;
.
<http://www.cdisc.org/ADSL/V2#AVREGIONyN>
	rdf:type bd:ADaMDatasetVariable ;
	isoC:label "Geographic Region y (N)"^^xsd:string ;
	bd:rule ""^^xsd:string ;
	bd:ordinal "8"^^xsd:positiveInteger ;
	bd:name "REGIONyN"^^xsd:string ;
	bd:notes "The numeric code for REGIONy. Orders REGIONy for analysis and reporting. One-to-one mapping to REGIONy within a study."^^xsd:string ;
	bd:ct ""^^xsd:string ;
	bd:ctNotes ""^^xsd:string ;
	bd:typedAs <http://www.assero.co.uk/CSN#8b16536d-2667-4282-86b4-8724a00b8f9f> ;
.
<http://www.cdisc.org/ADSL/V2#AVAGE>
	rdf:type bd:ADaMDatasetVariable ;
	isoC:label "Age"^^xsd:string ;
	bd:rule ""^^xsd:string ;
	bd:ordinal "9"^^xsd:positiveInteger ;
	bd:name "AGE"^^xsd:string ;
	bd:notes "DM.AGE. If analysis needs require a derived age that does not match DM.AGE, then AAGE must be added"^^xsd:string ;
	bd:ct ""^^xsd:string ;
	bd:ctNotes ""^^xsd:string ;
	bd:typedAs <http://www.assero.co.uk/CSN#8b16536d-2667-4282-86b4-8724a00b8f9f> ;
.
<http://www.cdisc.org/ADSL/V2#AVAGEU>
	rdf:type bd:ADaMDatasetVariable ;
	isoC:label "Age Units"^^xsd:string ;
	bd:rule ""^^xsd:string ;
	bd:ordinal "10"^^xsd:positiveInteger ;
	bd:name "AGEU"^^xsd:string ;
	bd:notes "DM.AGEU"^^xsd:string ;
	bd:ct "AGEU"^^xsd:string ;
	bd:ctNotes ""^^xsd:string ;
	bd:typedAs <http://www.assero.co.uk/CSN#f9caeead-091c-442a-acdf-6f56a64c4dff> ;
.
<http://www.cdisc.org/ADSL/V2#AVAGEGRy>
	rdf:type bd:ADaMDatasetVariable ;
	isoC:label "Pooled Age Group y"^^xsd:string ;
	bd:rule ""^^xsd:string ;
	bd:ordinal "11"^^xsd:positiveInteger ;
	bd:name "AGEGRy"^^xsd:string ;
	bd:notes "Character description of a grouping or pooling of the subject's age for analysis purposes. For example, AGEGR1 might have values of \"<18\", \"18-65\", and \">65\"; AGEGR2 might have values of \"Less than 35 y old\" and \"At least 35 y old\"."^^xsd:string ;
	bd:ct ""^^xsd:string ;
	bd:ctNotes ""^^xsd:string ;
	bd:typedAs <http://www.assero.co.uk/CSN#f9caeead-091c-442a-acdf-6f56a64c4dff> ;
.
<http://www.cdisc.org/ADSL/V2#AVAGEGRyN>
	rdf:type bd:ADaMDatasetVariable ;
	isoC:label "Pooled Age Group y (N)"^^xsd:string ;
	bd:rule ""^^xsd:string ;
	bd:ordinal "12"^^xsd:positiveInteger ;
	bd:name "AGEGRyN"^^xsd:string ;
	bd:notes "The numeric code for AGEGRy. Orders the grouping or pooling of subject age for analysis and reporting. One-to-one mapping to AGEGRy within a study."^^xsd:string ;
	bd:ct ""^^xsd:string ;
	bd:ctNotes ""^^xsd:string ;
	bd:typedAs <http://www.assero.co.uk/CSN#8b16536d-2667-4282-86b4-8724a00b8f9f> ;
.
<http://www.cdisc.org/ADSL/V2#AVAAGE>
	rdf:type bd:ADaMDatasetVariable ;
	isoC:label "Analysis Age"^^xsd:string ;
	bd:rule ""^^xsd:string ;
	bd:ordinal "13"^^xsd:positiveInteger ;
	bd:name "AAGE"^^xsd:string ;
	bd:notes "Age used for analysis that is derived differently from DM.AGE. AAGE is required if age is calculated differently than in SDTM."^^xsd:string ;
	bd:ct ""^^xsd:string ;
	bd:ctNotes ""^^xsd:string ;
	bd:typedAs <http://www.assero.co.uk/CSN#8b16536d-2667-4282-86b4-8724a00b8f9f> ;
.
<http://www.cdisc.org/ADSL/V2#AVSEX>
	rdf:type bd:ADaMDatasetVariable ;
	isoC:label "Sex"^^xsd:string ;
	bd:rule ""^^xsd:string ;
	bd:ordinal "14"^^xsd:positiveInteger ;
	bd:name "SEX"^^xsd:string ;
	bd:notes "The sex of the subject is a required variable in ADSL; must be identical to DM.SEX."^^xsd:string ;
	bd:ct "SEX"^^xsd:string ;
	bd:ctNotes ""^^xsd:string ;
	bd:typedAs <http://www.assero.co.uk/CSN#f9caeead-091c-442a-acdf-6f56a64c4dff> ;
.
<http://www.cdisc.org/ADSL/V2#AVRACE>
	rdf:type bd:ADaMDatasetVariable ;
	isoC:label "Race"^^xsd:string ;
	bd:rule ""^^xsd:string ;
	bd:ordinal "15"^^xsd:positiveInteger ;
	bd:name "RACE"^^xsd:string ;
	bd:notes "The race of the subject is a required variable in ADSL; must be identical to DM.RACE."^^xsd:string ;
	bd:ct "RACE"^^xsd:string ;
	bd:ctNotes ""^^xsd:string ;
	bd:typedAs <http://www.assero.co.uk/CSN#f9caeead-091c-442a-acdf-6f56a64c4dff> ;
.
<http://www.cdisc.org/ADSL/V2#AVRACEGRy>
	rdf:type bd:ADaMDatasetVariable ;
	isoC:label "Pooled Race Group y"^^xsd:string ;
	bd:rule ""^^xsd:string ;
	bd:ordinal "16"^^xsd:positiveInteger ;
	bd:name "RACEGRy"^^xsd:string ;
	bd:notes "Character description of a grouping or pooling of the subject's race for analysis purposes."^^xsd:string ;
	bd:ct ""^^xsd:string ;
	bd:ctNotes ""^^xsd:string ;
	bd:typedAs <http://www.assero.co.uk/CSN#f9caeead-091c-442a-acdf-6f56a64c4dff> ;
.
<http://www.cdisc.org/ADSL/V2#AVRACEGRyN>
	rdf:type bd:ADaMDatasetVariable ;
	isoC:label "Pooled Race Group y (N)"^^xsd:string ;
	bd:rule ""^^xsd:string ;
	bd:ordinal "17"^^xsd:positiveInteger ;
	bd:name "RACEGRyN"^^xsd:string ;
	bd:notes "The numeric code for RACEGRy. Orders the grouping or pooling of subject race for analysis and reporting. One-to-one mapping to RACEGRy within a study."^^xsd:string ;
	bd:ct ""^^xsd:string ;
	bd:ctNotes ""^^xsd:string ;
	bd:typedAs <http://www.assero.co.uk/CSN#8b16536d-2667-4282-86b4-8724a00b8f9f> ;
.
<http://www.cdisc.org/ADSL/V2#AVFASFL>
	rdf:type bd:ADaMDatasetVariable ;
	isoC:label "Full Analysis Set Population Flag"^^xsd:string ;
	bd:rule ""^^xsd:string ;
	bd:ordinal "18"^^xsd:positiveInteger ;
	bd:name "FASFL"^^xsd:string ;
	bd:notes "These flags identify whether or not the subject is included in the specified population. A minimum of one subject-level population flag variable is required in ADSL."^^xsd:string ;
	bd:ct ""^^xsd:string ;
	bd:ctNotes "Y, N"^^xsd:string ;
	bd:typedAs <http://www.assero.co.uk/CSN#f9caeead-091c-442a-acdf-6f56a64c4dff> ;
.
<http://www.cdisc.org/ADSL/V2#AVSAFFL>
	rdf:type bd:ADaMDatasetVariable ;
	isoC:label "Safety Population Flag"^^xsd:string ;
	bd:rule ""^^xsd:string ;
	bd:ordinal "19"^^xsd:positiveInteger ;
	bd:name "SAFFL"^^xsd:string ;
	bd:notes "Not all of the indicators listed here need to be included in ADSL. As stated in Section 3.1.4, Item 2, only those indicators corresponding to populations defined in the statistical analysis plan or populations used as a basis for analysis need be included in ADSL."^^xsd:string ;
	bd:ct ""^^xsd:string ;
	bd:ctNotes "Y, N"^^xsd:string ;
	bd:typedAs <http://www.assero.co.uk/CSN#f9caeead-091c-442a-acdf-6f56a64c4dff> ;
.
<http://www.cdisc.org/ADSL/V2#AVITTFL>
	rdf:type bd:ADaMDatasetVariable ;
	isoC:label "Intent-To-Treat Population Flag"^^xsd:string ;
	bd:rule ""^^xsd:string ;
	bd:ordinal "20"^^xsd:positiveInteger ;
	bd:name "ITTFL"^^xsd:string ;
	bd:notes "This list of flags is not meant to be all-inclusive. Additional population flags may be added."^^xsd:string ;
	bd:ct ""^^xsd:string ;
	bd:ctNotes "Y, N"^^xsd:string ;
	bd:typedAs <http://www.assero.co.uk/CSN#f9caeead-091c-442a-acdf-6f56a64c4dff> ;
.
<http://www.cdisc.org/ADSL/V2#AVPPROTFL>
	rdf:type bd:ADaMDatasetVariable ;
	isoC:label "Per-Protocol Population Flag"^^xsd:string ;
	bd:rule ""^^xsd:string ;
	bd:ordinal "21"^^xsd:positiveInteger ;
	bd:name "PPROTFL"^^xsd:string ;
	bd:notes "The values of subject-level population flags cannot be blank. If a flag is used, the corresponding numeric version (*FN, where 0=no and 1=yes) of the population flag can also be included. Please also refer to Section 3.1.4."^^xsd:string ;
	bd:ct ""^^xsd:string ;
	bd:ctNotes "Y, N"^^xsd:string ;
	bd:typedAs <http://www.assero.co.uk/CSN#f9caeead-091c-442a-acdf-6f56a64c4dff> ;
.
<http://www.cdisc.org/ADSL/V2#AVCOMPLFL>
	rdf:type bd:ADaMDatasetVariable ;
	isoC:label "Completers Population Flag"^^xsd:string ;
	bd:rule ""^^xsd:string ;
	bd:ordinal "22"^^xsd:positiveInteger ;
	bd:name "COMPLFL"^^xsd:string ;
	bd:notes "The values of subject-level population flags cannot be blank. If a flag is used, the corresponding numeric version (*FN, where 0=no and 1=yes) of the population flag can also be included. Please also refer to Section 3.1.4."^^xsd:string ;
	bd:ct ""^^xsd:string ;
	bd:ctNotes "Y, N"^^xsd:string ;
	bd:typedAs <http://www.assero.co.uk/CSN#f9caeead-091c-442a-acdf-6f56a64c4dff> ;
.
<http://www.cdisc.org/ADSL/V2#AVRANDFL>
	rdf:type bd:ADaMDatasetVariable ;
	isoC:label "Randomized Population Flag"^^xsd:string ;
	bd:rule ""^^xsd:string ;
	bd:ordinal "23"^^xsd:positiveInteger ;
	bd:name "RANDFL"^^xsd:string ;
	bd:notes "The values of subject-level population flags cannot be blank. If a flag is used, the corresponding numeric version (*FN, where 0=no and 1=yes) of the population flag can also be included. Please also refer to Section 3.1.4."^^xsd:string ;
	bd:ct ""^^xsd:string ;
	bd:ctNotes "Y, N"^^xsd:string ;
	bd:typedAs <http://www.assero.co.uk/CSN#f9caeead-091c-442a-acdf-6f56a64c4dff> ;
.
<http://www.cdisc.org/ADSL/V2#AVENRLFL>
	rdf:type bd:ADaMDatasetVariable ;
	isoC:label "Enrolled Population Flag"^^xsd:string ;
	bd:rule ""^^xsd:string ;
	bd:ordinal "24"^^xsd:positiveInteger ;
	bd:name "ENRLFL"^^xsd:string ;
	bd:notes "The values of subject-level population flags cannot be blank. If a flag is used, the corresponding numeric version (*FN, where 0=no and 1=yes) of the population flag can also be included. Please also refer to Section 3.1.4."^^xsd:string ;
	bd:ct ""^^xsd:string ;
	bd:ctNotes "Y, N"^^xsd:string ;
	bd:typedAs <http://www.assero.co.uk/CSN#f9caeead-091c-442a-acdf-6f56a64c4dff> ;
.
<http://www.cdisc.org/ADSL/V2#AVARM>
	rdf:type bd:ADaMDatasetVariable ;
	isoC:label "Description of Planned Arm"^^xsd:string ;
	bd:rule ""^^xsd:string ;
	bd:ordinal "25"^^xsd:positiveInteger ;
	bd:name "ARM"^^xsd:string ;
	bd:notes "DM.ARM"^^xsd:string ;
	bd:ct ""^^xsd:string ;
	bd:ctNotes ""^^xsd:string ;
	bd:typedAs <http://www.assero.co.uk/CSN#f9caeead-091c-442a-acdf-6f56a64c4dff> ;
.
<http://www.cdisc.org/ADSL/V2#AVACTARM>
	rdf:type bd:ADaMDatasetVariable ;
	isoC:label "Description of Actual Arm"^^xsd:string ;
	bd:rule ""^^xsd:string ;
	bd:ordinal "26"^^xsd:positiveInteger ;
	bd:name "ACTARM"^^xsd:string ;
	bd:notes "DM.ACTARM"^^xsd:string ;
	bd:ct ""^^xsd:string ;
	bd:ctNotes ""^^xsd:string ;
	bd:typedAs <http://www.assero.co.uk/CSN#f9caeead-091c-442a-acdf-6f56a64c4dff> ;
.
<http://www.cdisc.org/ADSL/V2#AVTRTxxP>
	rdf:type bd:ADaMDatasetVariable ;
	isoC:label "Planned Treatment for Period xx"^^xsd:string ;
	bd:rule ""^^xsd:string ;
	bd:ordinal "27"^^xsd:positiveInteger ;
	bd:name "TRTxxP"^^xsd:string ;
	bd:notes "Subject-level identifier that represents the planned treatment for period xx. In a one-period randomized trial, TRT01P would be the treatment to which the subject was randomized. TRTxxP might be derived from the SDTM DM variable ARM. At least TRT01P is required."^^xsd:string ;
	bd:ct ""^^xsd:string ;
	bd:ctNotes ""^^xsd:string ;
	bd:typedAs <http://www.assero.co.uk/CSN#f9caeead-091c-442a-acdf-6f56a64c4dff> ;
.
<http://www.cdisc.org/ADSL/V2#AVTRTxxPN>
	rdf:type bd:ADaMDatasetVariable ;
	isoC:label "Planned Treatment for Period xx (N)"^^xsd:string ;
	bd:rule ""^^xsd:string ;
	bd:ordinal "28"^^xsd:positiveInteger ;
	bd:name "TRTxxPN"^^xsd:string ;
	bd:notes "The numeric code variable for TRTxxP. One-to-one mapping to TRTxxP within a study."^^xsd:string ;
	bd:ct ""^^xsd:string ;
	bd:ctNotes ""^^xsd:string ;
	bd:typedAs <http://www.assero.co.uk/CSN#8b16536d-2667-4282-86b4-8724a00b8f9f> ;
.
<http://www.cdisc.org/ADSL/V2#AVTRTxxA>
	rdf:type bd:ADaMDatasetVariable ;
	isoC:label "Actual Treatment for Period xx"^^xsd:string ;
	bd:rule ""^^xsd:string ;
	bd:ordinal "29"^^xsd:positiveInteger ;
	bd:name "TRTxxA"^^xsd:string ;
	bd:notes "Subject-level identifier that represents the actual treatment for the subject for period xx. Required when actual treatment does not match planned and there is an analysis of the data as treated."^^xsd:string ;
	bd:ct ""^^xsd:string ;
	bd:ctNotes ""^^xsd:string ;
	bd:typedAs <http://www.assero.co.uk/CSN#f9caeead-091c-442a-acdf-6f56a64c4dff> ;
.
<http://www.cdisc.org/ADSL/V2#AVTRTxxAN>
	rdf:type bd:ADaMDatasetVariable ;
	isoC:label "Actual Treatment for Period xx (N)"^^xsd:string ;
	bd:rule ""^^xsd:string ;
	bd:ordinal "30"^^xsd:positiveInteger ;
	bd:name "TRTxxAN"^^xsd:string ;
	bd:notes "The numeric code variable for TRTxxA. One-to-one mapping to TRTxxA within a study."^^xsd:string ;
	bd:ct ""^^xsd:string ;
	bd:ctNotes ""^^xsd:string ;
	bd:typedAs <http://www.assero.co.uk/CSN#8b16536d-2667-4282-86b4-8724a00b8f9f> ;
.
<http://www.cdisc.org/ADSL/V2#AVTRTSEQP>
	rdf:type bd:ADaMDatasetVariable ;
	isoC:label "Planned Sequence of Treatments"^^xsd:string ;
	bd:rule ""^^xsd:string ;
	bd:ordinal "31"^^xsd:positiveInteger ;
	bd:name "TRTSEQP"^^xsd:string ;
	bd:notes "Required when there is an analysis based on the sequence of treatments, for example in a crossover design. TRTSEQP is not necessarily equal to ARM, for example if ARM contains elements that are not relevant to analysis of treatments or ARM is not fully descriptive (e.g., \"GROUP 1,\" \"GROUP 2\"). When analyzing based on the sequence of treatments, TRTSEQP is required even if identical to ARM."^^xsd:string ;
	bd:ct ""^^xsd:string ;
	bd:ctNotes ""^^xsd:string ;
	bd:typedAs <http://www.assero.co.uk/CSN#f9caeead-091c-442a-acdf-6f56a64c4dff> ;
.
<http://www.cdisc.org/ADSL/V2#AVTRTSEQPN>
	rdf:type bd:ADaMDatasetVariable ;
	isoC:label "Planned Sequence of Treatments (N)"^^xsd:string ;
	bd:rule ""^^xsd:string ;
	bd:ordinal "32"^^xsd:positiveInteger ;
	bd:name "TRTSEQPN"^^xsd:string ;
	bd:notes "Numeric version of TRTSEQP. One-to-one mapping to TRTSEQP within a study."^^xsd:string ;
	bd:ct ""^^xsd:string ;
	bd:ctNotes ""^^xsd:string ;
	bd:typedAs <http://www.assero.co.uk/CSN#8b16536d-2667-4282-86b4-8724a00b8f9f> ;
.
<http://www.cdisc.org/ADSL/V2#AVTRTSEQA>
	rdf:type bd:ADaMDatasetVariable ;
	isoC:label "Actual Sequence of Treatments"^^xsd:string ;
	bd:rule ""^^xsd:string ;
	bd:ordinal "33"^^xsd:positiveInteger ;
	bd:name "TRTSEQA"^^xsd:string ;
	bd:notes "TRTSEQA is required if a situation occurred in the conduct of the trial where a subject received a sequence of treatments other than what was planned and there is an analysis based on the sequence of treatments."^^xsd:string ;
	bd:ct ""^^xsd:string ;
	bd:ctNotes ""^^xsd:string ;
	bd:typedAs <http://www.assero.co.uk/CSN#f9caeead-091c-442a-acdf-6f56a64c4dff> ;
.
<http://www.cdisc.org/ADSL/V2#AVTRTSEQAN>
	rdf:type bd:ADaMDatasetVariable ;
	isoC:label "Actual Sequence of Treatments (N)"^^xsd:string ;
	bd:rule ""^^xsd:string ;
	bd:ordinal "34"^^xsd:positiveInteger ;
	bd:name "TRTSEQAN"^^xsd:string ;
	bd:notes "Numeric version of TRTSEQA. One-to-one mapping to TRTSEQA within a study."^^xsd:string ;
	bd:ct ""^^xsd:string ;
	bd:ctNotes ""^^xsd:string ;
	bd:typedAs <http://www.assero.co.uk/CSN#8b16536d-2667-4282-86b4-8724a00b8f9f> ;
.
<http://www.cdisc.org/ADSL/V2#AVTRxxPGy>
	rdf:type bd:ADaMDatasetVariable ;
	isoC:label "Planned Pooled Treatment y for Period xx"^^xsd:string ;
	bd:rule ""^^xsd:string ;
	bd:ordinal "35"^^xsd:positiveInteger ;
	bd:name "TRxxPGy"^^xsd:string ;
	bd:notes "Planned pooled treatment y for period xx. Useful when planned treatments (TRTxxP) in the specified period xx are pooled together for analysis according to pooling algorithm y. For example when in period 2 the first pooling algorithm dictates that all doses of Drug A (TR02PG1=\"All doses of Drug A\") are pooled together for comparison to all doses of Drug B (TR02PG1=\"All doses of Drug B\"). Each value of TRTxxP is pooled within at most one value of TRxxPGy."^^xsd:string ;
	bd:ct ""^^xsd:string ;
	bd:ctNotes ""^^xsd:string ;
	bd:typedAs <http://www.assero.co.uk/CSN#f9caeead-091c-442a-acdf-6f56a64c4dff> ;
.
<http://www.cdisc.org/ADSL/V2#AVTRxxPGyN>
	rdf:type bd:ADaMDatasetVariable ;
	isoC:label "Planned Pooled Trt y for Period xx (N)"^^xsd:string ;
	bd:rule ""^^xsd:string ;
	bd:ordinal "36"^^xsd:positiveInteger ;
	bd:name "TRxxPGyN"^^xsd:string ;
	bd:notes "The numeric code for TRxxPGy. One-to-one mapping to TRxxPGy within a study."^^xsd:string ;
	bd:ct ""^^xsd:string ;
	bd:ctNotes ""^^xsd:string ;
	bd:typedAs <http://www.assero.co.uk/CSN#8b16536d-2667-4282-86b4-8724a00b8f9f> ;
.
<http://www.cdisc.org/ADSL/V2#AVTRxxAGy>
	rdf:type bd:ADaMDatasetVariable ;
	isoC:label "Actual Pooled Treatment y for Period xx"^^xsd:string ;
	bd:rule ""^^xsd:string ;
	bd:ordinal "37"^^xsd:positiveInteger ;
	bd:name "TRxxAGy"^^xsd:string ;
	bd:notes "Actual pooled treatment y for period xx. Required when TRxxPGy is present and TRTxxA is present."^^xsd:string ;
	bd:ct ""^^xsd:string ;
	bd:ctNotes ""^^xsd:string ;
	bd:typedAs <http://www.assero.co.uk/CSN#f9caeead-091c-442a-acdf-6f56a64c4dff> ;
.
<http://www.cdisc.org/ADSL/V2#AVTRxxAGyN>
	rdf:type bd:ADaMDatasetVariable ;
	isoC:label "Actual Pooled Trt y for Period xx (N)"^^xsd:string ;
	bd:rule ""^^xsd:string ;
	bd:ordinal "38"^^xsd:positiveInteger ;
	bd:name "TRxxAGyN"^^xsd:string ;
	bd:notes "The numeric code for TRxxAGy. One-to-one mapping to TRxxAGy within a study."^^xsd:string ;
	bd:ct ""^^xsd:string ;
	bd:ctNotes ""^^xsd:string ;
	bd:typedAs <http://www.assero.co.uk/CSN#8b16536d-2667-4282-86b4-8724a00b8f9f> ;
.
<http://www.cdisc.org/ADSL/V2#AVTSEQPGy>
	rdf:type bd:ADaMDatasetVariable ;
	isoC:label "Planned Pooled Treatment Sequence y"^^xsd:string ;
	bd:rule ""^^xsd:string ;
	bd:ordinal "39"^^xsd:positiveInteger ;
	bd:name "TSEQPGy"^^xsd:string ;
	bd:notes "Planned pooled treatment sequence y. Useful when planned treatment sequences (TRTSEQP) are pooled together for analysis according to pooling algorithm y. For example, this might be used in an analysis of an extension study when the analysis is based on what the subject received in the parent study as well as in the extension study."^^xsd:string ;
	bd:ct ""^^xsd:string ;
	bd:ctNotes ""^^xsd:string ;
	bd:typedAs <http://www.assero.co.uk/CSN#f9caeead-091c-442a-acdf-6f56a64c4dff> ;
.
<http://www.cdisc.org/ADSL/V2#AVTSEQPGyN>
	rdf:type bd:ADaMDatasetVariable ;
	isoC:label "Planned Pooled Treatment Sequence y (N)"^^xsd:string ;
	bd:rule ""^^xsd:string ;
	bd:ordinal "40"^^xsd:positiveInteger ;
	bd:name "TSEQPGyN"^^xsd:string ;
	bd:notes "Numeric version of TSEQPGy. One-to-one mapping to TSEQPGy within a study."^^xsd:string ;
	bd:ct ""^^xsd:string ;
	bd:ctNotes ""^^xsd:string ;
	bd:typedAs <http://www.assero.co.uk/CSN#8b16536d-2667-4282-86b4-8724a00b8f9f> ;
.
<http://www.cdisc.org/ADSL/V2#AVTSEQAGy>
	rdf:type bd:ADaMDatasetVariable ;
	isoC:label "Actual Pooled Treatment Sequence y"^^xsd:string ;
	bd:rule ""^^xsd:string ;
	bd:ordinal "41"^^xsd:positiveInteger ;
	bd:name "TSEQAGy"^^xsd:string ;
	bd:notes "Actual pooled treatment sequence y. Required when TSEQPGy is present and TRTSEQA is present."^^xsd:string ;
	bd:ct ""^^xsd:string ;
	bd:ctNotes ""^^xsd:string ;
	bd:typedAs <http://www.assero.co.uk/CSN#f9caeead-091c-442a-acdf-6f56a64c4dff> ;
.
<http://www.cdisc.org/ADSL/V2#AVTSEQAGyN>
	rdf:type bd:ADaMDatasetVariable ;
	isoC:label "Actual Pooled Treatment Sequence y (N)"^^xsd:string ;
	bd:rule ""^^xsd:string ;
	bd:ordinal "42"^^xsd:positiveInteger ;
	bd:name "TSEQAGyN"^^xsd:string ;
	bd:notes "Numeric version of TSEQAGy. One-to-one mapping to TSEQAGy within a study."^^xsd:string ;
	bd:ct ""^^xsd:string ;
	bd:ctNotes ""^^xsd:string ;
	bd:typedAs <http://www.assero.co.uk/CSN#8b16536d-2667-4282-86b4-8724a00b8f9f> ;
.
<http://www.cdisc.org/ADSL/V2#AVDOSExxP>
	rdf:type bd:ADaMDatasetVariable ;
	isoC:label "Planned Treatment Dose for Period xx"^^xsd:string ;
	bd:rule ""^^xsd:string ;
	bd:ordinal "43"^^xsd:positiveInteger ;
	bd:name "DOSExxP"^^xsd:string ;
	bd:notes "Subject-level identifier that represents the planned treatment dosage for period xx."^^xsd:string ;
	bd:ct ""^^xsd:string ;
	bd:ctNotes ""^^xsd:string ;
	bd:typedAs <http://www.assero.co.uk/CSN#8b16536d-2667-4282-86b4-8724a00b8f9f> ;
.
<http://www.cdisc.org/ADSL/V2#AVDOSExxA>
	rdf:type bd:ADaMDatasetVariable ;
	isoC:label "Actual Treatment Dose for Period xx"^^xsd:string ;
	bd:rule ""^^xsd:string ;
	bd:ordinal "44"^^xsd:positiveInteger ;
	bd:name "DOSExxA"^^xsd:string ;
	bd:notes "Subject-level identifier that represents the actual treatment dosage for period xx."^^xsd:string ;
	bd:ct ""^^xsd:string ;
	bd:ctNotes ""^^xsd:string ;
	bd:typedAs <http://www.assero.co.uk/CSN#8b16536d-2667-4282-86b4-8724a00b8f9f> ;
.
<http://www.cdisc.org/ADSL/V2#AVDOSExxU>
	rdf:type bd:ADaMDatasetVariable ;
	isoC:label "Units for Dose for Period xx"^^xsd:string ;
	bd:rule ""^^xsd:string ;
	bd:ordinal "45"^^xsd:positiveInteger ;
	bd:name "DOSExxU"^^xsd:string ;
	bd:notes "The units for DOSExxP and DOSExxA. It is permissible to use suffixes such as \"P\" and \"A\" if needed, with labels modified accordingly."^^xsd:string ;
	bd:ct ""^^xsd:string ;
	bd:ctNotes ""^^xsd:string ;
	bd:typedAs <http://www.assero.co.uk/CSN#f9caeead-091c-442a-acdf-6f56a64c4dff> ;
.
<http://www.cdisc.org/ADSL/V2#AVTRTSDT>
	rdf:type bd:ADaMDatasetVariable ;
	isoC:label "Date of First Exposure to Treatment"^^xsd:string ;
	bd:rule ""^^xsd:string ;
	bd:ordinal "46"^^xsd:positiveInteger ;
	bd:name "TRTSDT"^^xsd:string ;
	bd:notes "Date of first exposure to treatment for a subject in a study. TRTSDT and/or TRTSDTM are required if there is an investigational product. Note that TRTSDT is not required to have the same value as the SDTM DM variable RFXSTDTC. While both of these dates reflect the concept of first exposure, the ADaM date may be derived to support the analysis which may not necessarily be the very first date in the SDTM EX domain."^^xsd:string ;
	bd:ct ""^^xsd:string ;
	bd:ctNotes ""^^xsd:string ;
	bd:typedAs <http://www.assero.co.uk/CSN#8b16536d-2667-4282-86b4-8724a00b8f9f> ;
.
<http://www.cdisc.org/ADSL/V2#AVTRTSTM>
	rdf:type bd:ADaMDatasetVariable ;
	isoC:label "Time of First Exposure to Treatment"^^xsd:string ;
	bd:rule ""^^xsd:string ;
	bd:ordinal "47"^^xsd:positiveInteger ;
	bd:name "TRTSTM"^^xsd:string ;
	bd:notes "Time of first exposure to treatment for a subject in a study."^^xsd:string ;
	bd:ct ""^^xsd:string ;
	bd:ctNotes ""^^xsd:string ;
	bd:typedAs <http://www.assero.co.uk/CSN#8b16536d-2667-4282-86b4-8724a00b8f9f> ;
.
<http://www.cdisc.org/ADSL/V2#AVTRTSDTM>
	rdf:type bd:ADaMDatasetVariable ;
	isoC:label "Datetime of First Exposure to Treatment"^^xsd:string ;
	bd:rule ""^^xsd:string ;
	bd:ordinal "48"^^xsd:positiveInteger ;
	bd:name "TRTSDTM"^^xsd:string ;
	bd:notes "Datetime of first exposure to treatment for a subject in a study. TRTSDT and/or TRTSDTM are required if there is an investigational product."^^xsd:string ;
	bd:ct ""^^xsd:string ;
	bd:ctNotes ""^^xsd:string ;
	bd:typedAs <http://www.assero.co.uk/CSN#8b16536d-2667-4282-86b4-8724a00b8f9f> ;
.
<http://www.cdisc.org/ADSL/V2#AVTRTSDTF>
	rdf:type bd:ADaMDatasetVariable ;
	isoC:label "Date of First Exposure Imput. Flag"^^xsd:string ;
	bd:rule ""^^xsd:string ;
	bd:ordinal "49"^^xsd:positiveInteger ;
	bd:name "TRTSDTF"^^xsd:string ;
	bd:notes "The level of imputation of date of first exposure to treatment. If TRTSDT (or the date part of TRTSDTM) was imputed, TRTSDTF must be populated and is required. See Section 3.1.3."^^xsd:string ;
	bd:ct "DATEFL"^^xsd:string ;
	bd:ctNotes ""^^xsd:string ;
	bd:typedAs <http://www.assero.co.uk/CSN#f9caeead-091c-442a-acdf-6f56a64c4dff> ;
.
<http://www.cdisc.org/ADSL/V2#AVTRTSTMF>
	rdf:type bd:ADaMDatasetVariable ;
	isoC:label "Time of First Exposure Imput. Flag"^^xsd:string ;
	bd:rule ""^^xsd:string ;
	bd:ordinal "50"^^xsd:positiveInteger ;
	bd:name "TRTSTMF"^^xsd:string ;
	bd:notes "The level of imputation of time of first exposure to treatment. If TRTSTM (or the time part of TRTSDTM) was imputed, TRTSTMF must be populated and is required. See Section 3.1.3."^^xsd:string ;
	bd:ct "TIMEFL"^^xsd:string ;
	bd:ctNotes ""^^xsd:string ;
	bd:typedAs <http://www.assero.co.uk/CSN#f9caeead-091c-442a-acdf-6f56a64c4dff> ;
.
<http://www.cdisc.org/ADSL/V2#AVTRTEDT>
	rdf:type bd:ADaMDatasetVariable ;
	isoC:label "Date of Last Exposure to Treatment"^^xsd:string ;
	bd:rule ""^^xsd:string ;
	bd:ordinal "51"^^xsd:positiveInteger ;
	bd:name "TRTEDT"^^xsd:string ;
	bd:notes "Date of last exposure to treatment for a subject in a study. TRTEDT and/or TRTEDTM are required if there is an investigational product. Note that TRTEDT is not required to have the same value as the SDTM DM variable RFXENDTC. While both of these dates reflect the concept of last exposure, the ADaM date may be derived to support the analysis which may not necessarily be the very last date in the SDTM EX domain."^^xsd:string ;
	bd:ct ""^^xsd:string ;
	bd:ctNotes ""^^xsd:string ;
	bd:typedAs <http://www.assero.co.uk/CSN#8b16536d-2667-4282-86b4-8724a00b8f9f> ;
.
<http://www.cdisc.org/ADSL/V2#AVTRTETM>
	rdf:type bd:ADaMDatasetVariable ;
	isoC:label "Time of Last Exposure to Treatment"^^xsd:string ;
	bd:rule ""^^xsd:string ;
	bd:ordinal "52"^^xsd:positiveInteger ;
	bd:name "TRTETM"^^xsd:string ;
	bd:notes "Time of last exposure to treatment for a subject in a study."^^xsd:string ;
	bd:ct ""^^xsd:string ;
	bd:ctNotes ""^^xsd:string ;
	bd:typedAs <http://www.assero.co.uk/CSN#8b16536d-2667-4282-86b4-8724a00b8f9f> ;
.
<http://www.cdisc.org/ADSL/V2#AVTRTEDTM>
	rdf:type bd:ADaMDatasetVariable ;
	isoC:label "Datetime of Last Exposure to Treatment"^^xsd:string ;
	bd:rule ""^^xsd:string ;
	bd:ordinal "53"^^xsd:positiveInteger ;
	bd:name "TRTEDTM"^^xsd:string ;
	bd:notes "Datetime of last exposure to treatment for a subject in a study. TRTEDT and/or TRTEDTM are required if there is an investigational product."^^xsd:string ;
	bd:ct ""^^xsd:string ;
	bd:ctNotes ""^^xsd:string ;
	bd:typedAs <http://www.assero.co.uk/CSN#8b16536d-2667-4282-86b4-8724a00b8f9f> ;
.
<http://www.cdisc.org/ADSL/V2#AVTRTEDTF>
	rdf:type bd:ADaMDatasetVariable ;
	isoC:label "Date of Last Exposure Imput. Flag"^^xsd:string ;
	bd:rule ""^^xsd:string ;
	bd:ordinal "54"^^xsd:positiveInteger ;
	bd:name "TRTEDTF"^^xsd:string ;
	bd:notes "The level of imputation of date of last exposure to treatment. If TRTEDT (or the date part of TRTEDTM) was imputed, TRTEDTF must be populated and is required. See Section 3.1.3."^^xsd:string ;
	bd:ct "DATEFL"^^xsd:string ;
	bd:ctNotes ""^^xsd:string ;
	bd:typedAs <http://www.assero.co.uk/CSN#f9caeead-091c-442a-acdf-6f56a64c4dff> ;
.
<http://www.cdisc.org/ADSL/V2#AVTRTETMF>
	rdf:type bd:ADaMDatasetVariable ;
	isoC:label "Time of Last Exposure Imput. Flag"^^xsd:string ;
	bd:rule ""^^xsd:string ;
	bd:ordinal "55"^^xsd:positiveInteger ;
	bd:name "TRTETMF"^^xsd:string ;
	bd:notes "The level of imputation of time of last exposure to treatment. If TRTETM (or the time part of TRTEDTM) was imputed, TRTETMF must be populated and is required. See Section 3.1.3."^^xsd:string ;
	bd:ct "TIMEFL"^^xsd:string ;
	bd:ctNotes ""^^xsd:string ;
	bd:typedAs <http://www.assero.co.uk/CSN#f9caeead-091c-442a-acdf-6f56a64c4dff> ;
.
<http://www.cdisc.org/ADSL/V2#AVTRxxSDT>
	rdf:type bd:ADaMDatasetVariable ;
	isoC:label "Date of First Exposure in Period xx"^^xsd:string ;
	bd:rule ""^^xsd:string ;
	bd:ordinal "56"^^xsd:positiveInteger ;
	bd:name "TRxxSDT"^^xsd:string ;
	bd:notes "Date of first exposure to treatment in period xx. TRxxSDT and/or TRxxSDTM are only required in trial designs where multiple treatments are given to the same subject, such as a crossover design, but are permissible for other trial designs. Also useful in designs where multiple periods exist for the same treatment (i.e., multiple cycles of the same study treatment)."^^xsd:string ;
	bd:ct ""^^xsd:string ;
	bd:ctNotes ""^^xsd:string ;
	bd:typedAs <http://www.assero.co.uk/CSN#8b16536d-2667-4282-86b4-8724a00b8f9f> ;
.
<http://www.cdisc.org/ADSL/V2#AVTRxxSTM>
	rdf:type bd:ADaMDatasetVariable ;
	isoC:label "Time of First Exposure in Period xx"^^xsd:string ;
	bd:rule ""^^xsd:string ;
	bd:ordinal "57"^^xsd:positiveInteger ;
	bd:name "TRxxSTM"^^xsd:string ;
	bd:notes "The starting time of exposure to treatment in period xx. TRxxSTM and/or TRxxSDTM are only required in trial designs where multiple treatments are given to the same subject, such as a crossover design (but are permissible for other trial designs), and time is important to the analysis."^^xsd:string ;
	bd:ct ""^^xsd:string ;
	bd:ctNotes ""^^xsd:string ;
	bd:typedAs <http://www.assero.co.uk/CSN#8b16536d-2667-4282-86b4-8724a00b8f9f> ;
.
<http://www.cdisc.org/ADSL/V2#AVTRxxSDTM>
	rdf:type bd:ADaMDatasetVariable ;
	isoC:label "Datetime of First Exposure in Period xx"^^xsd:string ;
	bd:rule ""^^xsd:string ;
	bd:ordinal "58"^^xsd:positiveInteger ;
	bd:name "TRxxSDTM"^^xsd:string ;
	bd:notes "Datetime of first exposure to treatment in period xx. TRxxSDT and/or TRxxSDTM are only required in trial designs where multiple treatments are given to the same subject, such as a crossover design, but are permissible for other trial designs."^^xsd:string ;
	bd:ct ""^^xsd:string ;
	bd:ctNotes ""^^xsd:string ;
	bd:typedAs <http://www.assero.co.uk/CSN#8b16536d-2667-4282-86b4-8724a00b8f9f> ;
.
<http://www.cdisc.org/ADSL/V2#AVTRxxSDTF>
	rdf:type bd:ADaMDatasetVariable ;
	isoC:label "Date 1st Exposure Period xx Imput. Flag"^^xsd:string ;
	bd:rule ""^^xsd:string ;
	bd:ordinal "59"^^xsd:positiveInteger ;
	bd:name "TRxxSDTF"^^xsd:string ;
	bd:notes "The level of imputation of date of first exposure to treatment in period xx. If TRxxSDT (or the date part of TRxxSDTM) was imputed, TRxxSDTF must be populated and is required. See Section 3.1.3."^^xsd:string ;
	bd:ct "DATEFL"^^xsd:string ;
	bd:ctNotes ""^^xsd:string ;
	bd:typedAs <http://www.assero.co.uk/CSN#f9caeead-091c-442a-acdf-6f56a64c4dff> ;
.
<http://www.cdisc.org/ADSL/V2#AVTRxxSTMF>
	rdf:type bd:ADaMDatasetVariable ;
	isoC:label "Time 1st Exposure Period xx Imput. Flag"^^xsd:string ;
	bd:rule ""^^xsd:string ;
	bd:ordinal "60"^^xsd:positiveInteger ;
	bd:name "TRxxSTMF"^^xsd:string ;
	bd:notes "The level of imputation of time of first exposure to treatment in period xx. If TRxxSTM (or the time part of TRxxSDTM) was imputed, TRxxSTMF must be populated and is required. See Section 3.1.3."^^xsd:string ;
	bd:ct "TIMEFL"^^xsd:string ;
	bd:ctNotes ""^^xsd:string ;
	bd:typedAs <http://www.assero.co.uk/CSN#f9caeead-091c-442a-acdf-6f56a64c4dff> ;
.
<http://www.cdisc.org/ADSL/V2#AVTRxxEDT>
	rdf:type bd:ADaMDatasetVariable ;
	isoC:label "Date of Last Exposure in Period xx"^^xsd:string ;
	bd:rule ""^^xsd:string ;
	bd:ordinal "61"^^xsd:positiveInteger ;
	bd:name "TRxxEDT"^^xsd:string ;
	bd:notes "Date of last exposure to treatment in period xx. TRxxEDT and/or TRxxEDTM are only required in trial designs where multiple treatments are given to the same subject, such as a crossover design, but are permissible for other trial designs."^^xsd:string ;
	bd:ct ""^^xsd:string ;
	bd:ctNotes ""^^xsd:string ;
	bd:typedAs <http://www.assero.co.uk/CSN#8b16536d-2667-4282-86b4-8724a00b8f9f> ;
.
<http://www.cdisc.org/ADSL/V2#AVTRxxETM>
	rdf:type bd:ADaMDatasetVariable ;
	isoC:label "Time of Last Exposure in Period xx"^^xsd:string ;
	bd:rule ""^^xsd:string ;
	bd:ordinal "62"^^xsd:positiveInteger ;
	bd:name "TRxxETM"^^xsd:string ;
	bd:notes "The ending time of exposure to treatment in period xx. TRxxETM and/or TRxxEDTM are only required in trial designs where multiple treatments are given to the same subject, such as a crossover design, and ending time is important to the analysis, but are permissible for other trial designs."^^xsd:string ;
	bd:ct ""^^xsd:string ;
	bd:ctNotes ""^^xsd:string ;
	bd:typedAs <http://www.assero.co.uk/CSN#8b16536d-2667-4282-86b4-8724a00b8f9f> ;
.
<http://www.cdisc.org/ADSL/V2#AVTRxxEDTM>
	rdf:type bd:ADaMDatasetVariable ;
	isoC:label "Datetime of Last Exposure in Period xx"^^xsd:string ;
	bd:rule ""^^xsd:string ;
	bd:ordinal "63"^^xsd:positiveInteger ;
	bd:name "TRxxEDTM"^^xsd:string ;
	bd:notes "The datetime of last exposure to treatment in period xx. TRxxEDT and/or TRxxEDTM are only required in trial designs where multiple treatments are given to the same subject, such as a crossover design, but are permissible for other trial designs."^^xsd:string ;
	bd:ct ""^^xsd:string ;
	bd:ctNotes ""^^xsd:string ;
	bd:typedAs <http://www.assero.co.uk/CSN#8b16536d-2667-4282-86b4-8724a00b8f9f> ;
.
<http://www.cdisc.org/ADSL/V2#AVTRxxEDTF>
	rdf:type bd:ADaMDatasetVariable ;
	isoC:label "Date Last Exposure Period xx Imput. Flag"^^xsd:string ;
	bd:rule ""^^xsd:string ;
	bd:ordinal "64"^^xsd:positiveInteger ;
	bd:name "TRxxEDTF"^^xsd:string ;
	bd:notes "The level of imputation of date of last exposure to treatment in period xx. If TRxxEDT (or the date part of TRxxEDTM) was imputed, TRxxEDTF must be populated and is required. See Section 3.1.3."^^xsd:string ;
	bd:ct "DATEFL"^^xsd:string ;
	bd:ctNotes ""^^xsd:string ;
	bd:typedAs <http://www.assero.co.uk/CSN#f9caeead-091c-442a-acdf-6f56a64c4dff> ;
.
<http://www.cdisc.org/ADSL/V2#AVTRxxETMF>
	rdf:type bd:ADaMDatasetVariable ;
	isoC:label "Time Last Exposure Period xx Imput. Flag"^^xsd:string ;
	bd:rule ""^^xsd:string ;
	bd:ordinal "65"^^xsd:positiveInteger ;
	bd:name "TRxxETMF"^^xsd:string ;
	bd:notes "The level of imputation of time of last exposure to treatment in period xx. If TRxxETM (or the time part of TRxxEDTM) was imputed, TRxxETMF must be populated and is required. See Section 3.1.3."^^xsd:string ;
	bd:ct "TIMEFL"^^xsd:string ;
	bd:ctNotes ""^^xsd:string ;
	bd:typedAs <http://www.assero.co.uk/CSN#f9caeead-091c-442a-acdf-6f56a64c4dff> ;
.
<http://www.cdisc.org/ADSL/V2#AVAPxxSDT>
	rdf:type bd:ADaMDatasetVariable ;
	isoC:label "Period xx Start Date"^^xsd:string ;
	bd:rule ""^^xsd:string ;
	bd:ordinal "66"^^xsd:positiveInteger ;
	bd:name "APxxSDT"^^xsd:string ;
	bd:notes "The starting date of period xx."^^xsd:string ;
	bd:ct ""^^xsd:string ;
	bd:ctNotes ""^^xsd:string ;
	bd:typedAs <http://www.assero.co.uk/CSN#8b16536d-2667-4282-86b4-8724a00b8f9f> ;
.
<http://www.cdisc.org/ADSL/V2#AVAPxxSTM>
	rdf:type bd:ADaMDatasetVariable ;
	isoC:label "Period xx Start Time"^^xsd:string ;
	bd:rule ""^^xsd:string ;
	bd:ordinal "67"^^xsd:positiveInteger ;
	bd:name "APxxSTM"^^xsd:string ;
	bd:notes "The starting time of period xx."^^xsd:string ;
	bd:ct ""^^xsd:string ;
	bd:ctNotes ""^^xsd:string ;
	bd:typedAs <http://www.assero.co.uk/CSN#8b16536d-2667-4282-86b4-8724a00b8f9f> ;
.
<http://www.cdisc.org/ADSL/V2#AVAPxxSDTM>
	rdf:type bd:ADaMDatasetVariable ;
	isoC:label "Period xx Start Datetime"^^xsd:string ;
	bd:rule ""^^xsd:string ;
	bd:ordinal "68"^^xsd:positiveInteger ;
	bd:name "APxxSDTM"^^xsd:string ;
	bd:notes "The starting datetime of period xx."^^xsd:string ;
	bd:ct ""^^xsd:string ;
	bd:ctNotes ""^^xsd:string ;
	bd:typedAs <http://www.assero.co.uk/CSN#8b16536d-2667-4282-86b4-8724a00b8f9f> ;
.
<http://www.cdisc.org/ADSL/V2#AVAPxxSDTF>
	rdf:type bd:ADaMDatasetVariable ;
	isoC:label "Period xx Start Date Imput. Flag"^^xsd:string ;
	bd:rule ""^^xsd:string ;
	bd:ordinal "69"^^xsd:positiveInteger ;
	bd:name "APxxSDTF"^^xsd:string ;
	bd:notes "The level of imputation of period xx start date. See Section 3.1.3."^^xsd:string ;
	bd:ct "DATEFL"^^xsd:string ;
	bd:ctNotes ""^^xsd:string ;
	bd:typedAs <http://www.assero.co.uk/CSN#f9caeead-091c-442a-acdf-6f56a64c4dff> ;
.
<http://www.cdisc.org/ADSL/V2#AVAPxxSTMF>
	rdf:type bd:ADaMDatasetVariable ;
	isoC:label "Period xx Start Time Imput. Flag"^^xsd:string ;
	bd:rule ""^^xsd:string ;
	bd:ordinal "70"^^xsd:positiveInteger ;
	bd:name "APxxSTMF"^^xsd:string ;
	bd:notes "The level of imputation of period xx start time. See Section 3.1.3."^^xsd:string ;
	bd:ct "TIMEFL"^^xsd:string ;
	bd:ctNotes ""^^xsd:string ;
	bd:typedAs <http://www.assero.co.uk/CSN#f9caeead-091c-442a-acdf-6f56a64c4dff> ;
.
<http://www.cdisc.org/ADSL/V2#AVAPxxEDT>
	rdf:type bd:ADaMDatasetVariable ;
	isoC:label "Period xx End Date"^^xsd:string ;
	bd:rule ""^^xsd:string ;
	bd:ordinal "71"^^xsd:positiveInteger ;
	bd:name "APxxEDT"^^xsd:string ;
	bd:notes "The ending date of period xx."^^xsd:string ;
	bd:ct ""^^xsd:string ;
	bd:ctNotes ""^^xsd:string ;
	bd:typedAs <http://www.assero.co.uk/CSN#8b16536d-2667-4282-86b4-8724a00b8f9f> ;
.
<http://www.cdisc.org/ADSL/V2#AVAPxxETM>
	rdf:type bd:ADaMDatasetVariable ;
	isoC:label "Period xx End Time"^^xsd:string ;
	bd:rule ""^^xsd:string ;
	bd:ordinal "72"^^xsd:positiveInteger ;
	bd:name "APxxETM"^^xsd:string ;
	bd:notes "The ending time of period xx."^^xsd:string ;
	bd:ct ""^^xsd:string ;
	bd:ctNotes ""^^xsd:string ;
	bd:typedAs <http://www.assero.co.uk/CSN#8b16536d-2667-4282-86b4-8724a00b8f9f> ;
.
<http://www.cdisc.org/ADSL/V2#AVAPxxEDTM>
	rdf:type bd:ADaMDatasetVariable ;
	isoC:label "Period xx End Datetime"^^xsd:string ;
	bd:rule ""^^xsd:string ;
	bd:ordinal "73"^^xsd:positiveInteger ;
	bd:name "APxxEDTM"^^xsd:string ;
	bd:notes "The ending datetime of period xx."^^xsd:string ;
	bd:ct ""^^xsd:string ;
	bd:ctNotes ""^^xsd:string ;
	bd:typedAs <http://www.assero.co.uk/CSN#8b16536d-2667-4282-86b4-8724a00b8f9f> ;
.
<http://www.cdisc.org/ADSL/V2#AVAPxxEDTF>
	rdf:type bd:ADaMDatasetVariable ;
	isoC:label "Period xx End Date Imput. Flag"^^xsd:string ;
	bd:rule ""^^xsd:string ;
	bd:ordinal "74"^^xsd:positiveInteger ;
	bd:name "APxxEDTF"^^xsd:string ;
	bd:notes "The level of imputation of period xx end date. See Section 3.1.3."^^xsd:string ;
	bd:ct "DATEFL"^^xsd:string ;
	bd:ctNotes ""^^xsd:string ;
	bd:typedAs <http://www.assero.co.uk/CSN#f9caeead-091c-442a-acdf-6f56a64c4dff> ;
.
<http://www.cdisc.org/ADSL/V2#AVAPxxETMF>
	rdf:type bd:ADaMDatasetVariable ;
	isoC:label "Period xx End Time Imput. Flag"^^xsd:string ;
	bd:rule ""^^xsd:string ;
	bd:ordinal "75"^^xsd:positiveInteger ;
	bd:name "APxxETMF"^^xsd:string ;
	bd:notes "The level of imputation of period xx end time. See Section 3.1.3."^^xsd:string ;
	bd:ct "TIMEFL"^^xsd:string ;
	bd:ctNotes ""^^xsd:string ;
	bd:typedAs <http://www.assero.co.uk/CSN#f9caeead-091c-442a-acdf-6f56a64c4dff> ;
.
<http://www.cdisc.org/ADSL/V2#AVPxxSw>
	rdf:type bd:ADaMDatasetVariable ;
	isoC:label "Description of  Period xx Subperiod w"^^xsd:string ;
	bd:rule ""^^xsd:string ;
	bd:ordinal "76"^^xsd:positiveInteger ;
	bd:name "PxxSw"^^xsd:string ;
	bd:notes "Description of analysis subperiod w within period xx."^^xsd:string ;
	bd:ct ""^^xsd:string ;
	bd:ctNotes ""^^xsd:string ;
	bd:typedAs <http://www.assero.co.uk/CSN#f9caeead-091c-442a-acdf-6f56a64c4dff> ;
.
<http://www.cdisc.org/ADSL/V2#AVPxxSwSDT>
	rdf:type bd:ADaMDatasetVariable ;
	isoC:label "Period xx Subperiod w Start Date"^^xsd:string ;
	bd:rule ""^^xsd:string ;
	bd:ordinal "77"^^xsd:positiveInteger ;
	bd:name "PxxSwSDT"^^xsd:string ;
	bd:notes "The starting date of subperiod w within period xx."^^xsd:string ;
	bd:ct ""^^xsd:string ;
	bd:ctNotes ""^^xsd:string ;
	bd:typedAs <http://www.assero.co.uk/CSN#8b16536d-2667-4282-86b4-8724a00b8f9f> ;
.
<http://www.cdisc.org/ADSL/V2#AVPxxSwSTM>
	rdf:type bd:ADaMDatasetVariable ;
	isoC:label "Period xx Subperiod w Start Time"^^xsd:string ;
	bd:rule ""^^xsd:string ;
	bd:ordinal "78"^^xsd:positiveInteger ;
	bd:name "PxxSwSTM"^^xsd:string ;
	bd:notes "The starting time of subperiod w within period xx."^^xsd:string ;
	bd:ct ""^^xsd:string ;
	bd:ctNotes ""^^xsd:string ;
	bd:typedAs <http://www.assero.co.uk/CSN#8b16536d-2667-4282-86b4-8724a00b8f9f> ;
.
<http://www.cdisc.org/ADSL/V2#AVPxxSwSDM>
	rdf:type bd:ADaMDatasetVariable ;
	isoC:label "Period xx Subperiod w Start Datetime"^^xsd:string ;
	bd:rule ""^^xsd:string ;
	bd:ordinal "79"^^xsd:positiveInteger ;
	bd:name "PxxSwSDM"^^xsd:string ;
	bd:notes "The starting datetime of subperiod w within period xx."^^xsd:string ;
	bd:ct ""^^xsd:string ;
	bd:ctNotes ""^^xsd:string ;
	bd:typedAs <http://www.assero.co.uk/CSN#8b16536d-2667-4282-86b4-8724a00b8f9f> ;
.
<http://www.cdisc.org/ADSL/V2#AVPxxSwSDF>
	rdf:type bd:ADaMDatasetVariable ;
	isoC:label "Period xx Subper w Start Date Imput Flag"^^xsd:string ;
	bd:rule ""^^xsd:string ;
	bd:ordinal "80"^^xsd:positiveInteger ;
	bd:name "PxxSwSDF"^^xsd:string ;
	bd:notes "The level of imputation of the start date for subperiod w within period xx. See Section 3.1.3."^^xsd:string ;
	bd:ct "DATEFL"^^xsd:string ;
	bd:ctNotes ""^^xsd:string ;
	bd:typedAs <http://www.assero.co.uk/CSN#f9caeead-091c-442a-acdf-6f56a64c4dff> ;
.
<http://www.cdisc.org/ADSL/V2#AVPxxSwSTF>
	rdf:type bd:ADaMDatasetVariable ;
	isoC:label "Period xx Subper w Start Time Imput Flag"^^xsd:string ;
	bd:rule ""^^xsd:string ;
	bd:ordinal "81"^^xsd:positiveInteger ;
	bd:name "PxxSwSTF"^^xsd:string ;
	bd:notes "The level of imputation of the start time for subperiod w within period xx. See Section 3.1.3."^^xsd:string ;
	bd:ct "TIMEFL"^^xsd:string ;
	bd:ctNotes ""^^xsd:string ;
	bd:typedAs <http://www.assero.co.uk/CSN#f9caeead-091c-442a-acdf-6f56a64c4dff> ;
.
<http://www.cdisc.org/ADSL/V2#AVPxxSwEDT>
	rdf:type bd:ADaMDatasetVariable ;
	isoC:label "Period xx Subperiod w End Date"^^xsd:string ;
	bd:rule ""^^xsd:string ;
	bd:ordinal "82"^^xsd:positiveInteger ;
	bd:name "PxxSwEDT"^^xsd:string ;
	bd:notes "The ending date of subperiod w within period xx."^^xsd:string ;
	bd:ct ""^^xsd:string ;
	bd:ctNotes ""^^xsd:string ;
	bd:typedAs <http://www.assero.co.uk/CSN#8b16536d-2667-4282-86b4-8724a00b8f9f> ;
.
<http://www.cdisc.org/ADSL/V2#AVPxxSwETM>
	rdf:type bd:ADaMDatasetVariable ;
	isoC:label "Period xx Subperiod w End Time"^^xsd:string ;
	bd:rule ""^^xsd:string ;
	bd:ordinal "83"^^xsd:positiveInteger ;
	bd:name "PxxSwETM"^^xsd:string ;
	bd:notes "The ending time of subperiod w within period xx."^^xsd:string ;
	bd:ct ""^^xsd:string ;
	bd:ctNotes ""^^xsd:string ;
	bd:typedAs <http://www.assero.co.uk/CSN#8b16536d-2667-4282-86b4-8724a00b8f9f> ;
.
<http://www.cdisc.org/ADSL/V2#AVPxxSwEDM>
	rdf:type bd:ADaMDatasetVariable ;
	isoC:label "Period xx Subperiod w End Datetime"^^xsd:string ;
	bd:rule ""^^xsd:string ;
	bd:ordinal "84"^^xsd:positiveInteger ;
	bd:name "PxxSwEDM"^^xsd:string ;
	bd:notes "The ending datetime of subperiod w within period xx."^^xsd:string ;
	bd:ct ""^^xsd:string ;
	bd:ctNotes ""^^xsd:string ;
	bd:typedAs <http://www.assero.co.uk/CSN#8b16536d-2667-4282-86b4-8724a00b8f9f> ;
.
<http://www.cdisc.org/ADSL/V2#AVPxxSwEDF>
	rdf:type bd:ADaMDatasetVariable ;
	isoC:label "Period xx Subper w End Date Imput Flag"^^xsd:string ;
	bd:rule ""^^xsd:string ;
	bd:ordinal "85"^^xsd:positiveInteger ;
	bd:name "PxxSwEDF"^^xsd:string ;
	bd:notes "The level of imputation of the end date for subperiod w within period xx. See Section 3.1.3."^^xsd:string ;
	bd:ct "DATEFL"^^xsd:string ;
	bd:ctNotes ""^^xsd:string ;
	bd:typedAs <http://www.assero.co.uk/CSN#f9caeead-091c-442a-acdf-6f56a64c4dff> ;
.
<http://www.cdisc.org/ADSL/V2#AVPxxSwETF>
	rdf:type bd:ADaMDatasetVariable ;
	isoC:label "Period xx Subper w End Time Imput Flag"^^xsd:string ;
	bd:rule ""^^xsd:string ;
	bd:ordinal "86"^^xsd:positiveInteger ;
	bd:name "PxxSwETF"^^xsd:string ;
	bd:notes "The level of imputation of the end time for subperiod w within period xx. See Section 3.1.3."^^xsd:string ;
	bd:ct "TIMEFL"^^xsd:string ;
	bd:ctNotes ""^^xsd:string ;
	bd:typedAs <http://www.assero.co.uk/CSN#f9caeead-091c-442a-acdf-6f56a64c4dff> ;
.
<http://www.cdisc.org/ADSL/V2#AVAPHASEw>
	rdf:type bd:ADaMDatasetVariable ;
	isoC:label "Description of Phase w"^^xsd:string ;
	bd:rule ""^^xsd:string ;
	bd:ordinal "87"^^xsd:positiveInteger ;
	bd:name "APHASEw"^^xsd:string ;
	bd:notes "Description of analysis phase w."^^xsd:string ;
	bd:ct ""^^xsd:string ;
	bd:ctNotes ""^^xsd:string ;
	bd:typedAs <http://www.assero.co.uk/CSN#f9caeead-091c-442a-acdf-6f56a64c4dff> ;
.
<http://www.cdisc.org/ADSL/V2#AVPHwSDT>
	rdf:type bd:ADaMDatasetVariable ;
	isoC:label "Phase w Start Date"^^xsd:string ;
	bd:rule ""^^xsd:string ;
	bd:ordinal "88"^^xsd:positiveInteger ;
	bd:name "PHwSDT"^^xsd:string ;
	bd:notes "The starting date of phase w."^^xsd:string ;
	bd:ct ""^^xsd:string ;
	bd:ctNotes ""^^xsd:string ;
	bd:typedAs <http://www.assero.co.uk/CSN#8b16536d-2667-4282-86b4-8724a00b8f9f> ;
.
<http://www.cdisc.org/ADSL/V2#AVPHwSTM>
	rdf:type bd:ADaMDatasetVariable ;
	isoC:label "Phase w Start Time"^^xsd:string ;
	bd:rule ""^^xsd:string ;
	bd:ordinal "89"^^xsd:positiveInteger ;
	bd:name "PHwSTM"^^xsd:string ;
	bd:notes "The starting time of phase w."^^xsd:string ;
	bd:ct ""^^xsd:string ;
	bd:ctNotes ""^^xsd:string ;
	bd:typedAs <http://www.assero.co.uk/CSN#8b16536d-2667-4282-86b4-8724a00b8f9f> ;
.
<http://www.cdisc.org/ADSL/V2#AVPHwSDTM>
	rdf:type bd:ADaMDatasetVariable ;
	isoC:label "Phase w Start Datetime"^^xsd:string ;
	bd:rule ""^^xsd:string ;
	bd:ordinal "90"^^xsd:positiveInteger ;
	bd:name "PHwSDTM"^^xsd:string ;
	bd:notes "The starting datetime of phase w."^^xsd:string ;
	bd:ct ""^^xsd:string ;
	bd:ctNotes ""^^xsd:string ;
	bd:typedAs <http://www.assero.co.uk/CSN#8b16536d-2667-4282-86b4-8724a00b8f9f> ;
.
<http://www.cdisc.org/ADSL/V2#AVPHwSDTF>
	rdf:type bd:ADaMDatasetVariable ;
	isoC:label "Phase w Start Date Imputation Flag"^^xsd:string ;
	bd:rule ""^^xsd:string ;
	bd:ordinal "91"^^xsd:positiveInteger ;
	bd:name "PHwSDTF"^^xsd:string ;
	bd:notes "The level of imputation of the start date for phase w. See Section 3.1.3."^^xsd:string ;
	bd:ct "DATEFL"^^xsd:string ;
	bd:ctNotes ""^^xsd:string ;
	bd:typedAs <http://www.assero.co.uk/CSN#f9caeead-091c-442a-acdf-6f56a64c4dff> ;
.
<http://www.cdisc.org/ADSL/V2#AVPHwSTMF>
	rdf:type bd:ADaMDatasetVariable ;
	isoC:label "Phase w Start Time Imputation Flag"^^xsd:string ;
	bd:rule ""^^xsd:string ;
	bd:ordinal "92"^^xsd:positiveInteger ;
	bd:name "PHwSTMF"^^xsd:string ;
	bd:notes "The level of imputation of the start time for phase w. See Section 3.1.3."^^xsd:string ;
	bd:ct "TIMEFL"^^xsd:string ;
	bd:ctNotes ""^^xsd:string ;
	bd:typedAs <http://www.assero.co.uk/CSN#f9caeead-091c-442a-acdf-6f56a64c4dff> ;
.
<http://www.cdisc.org/ADSL/V2#AVPHwEDT>
	rdf:type bd:ADaMDatasetVariable ;
	isoC:label "Phase w End Date"^^xsd:string ;
	bd:rule ""^^xsd:string ;
	bd:ordinal "93"^^xsd:positiveInteger ;
	bd:name "PHwEDT"^^xsd:string ;
	bd:notes "The ending date of phase w."^^xsd:string ;
	bd:ct ""^^xsd:string ;
	bd:ctNotes ""^^xsd:string ;
	bd:typedAs <http://www.assero.co.uk/CSN#8b16536d-2667-4282-86b4-8724a00b8f9f> ;
.
<http://www.cdisc.org/ADSL/V2#AVPHwETM>
	rdf:type bd:ADaMDatasetVariable ;
	isoC:label "Phase w End Time"^^xsd:string ;
	bd:rule ""^^xsd:string ;
	bd:ordinal "94"^^xsd:positiveInteger ;
	bd:name "PHwETM"^^xsd:string ;
	bd:notes "The ending time of phase w."^^xsd:string ;
	bd:ct ""^^xsd:string ;
	bd:ctNotes ""^^xsd:string ;
	bd:typedAs <http://www.assero.co.uk/CSN#8b16536d-2667-4282-86b4-8724a00b8f9f> ;
.
<http://www.cdisc.org/ADSL/V2#AVPHwEDTM>
	rdf:type bd:ADaMDatasetVariable ;
	isoC:label "Phase w End Datetime"^^xsd:string ;
	bd:rule ""^^xsd:string ;
	bd:ordinal "95"^^xsd:positiveInteger ;
	bd:name "PHwEDTM"^^xsd:string ;
	bd:notes "The ending datetime of phase w."^^xsd:string ;
	bd:ct ""^^xsd:string ;
	bd:ctNotes ""^^xsd:string ;
	bd:typedAs <http://www.assero.co.uk/CSN#8b16536d-2667-4282-86b4-8724a00b8f9f> ;
.
<http://www.cdisc.org/ADSL/V2#AVPHwEDTF>
	rdf:type bd:ADaMDatasetVariable ;
	isoC:label "Phase w End Date Imputation Flag"^^xsd:string ;
	bd:rule ""^^xsd:string ;
	bd:ordinal "96"^^xsd:positiveInteger ;
	bd:name "PHwEDTF"^^xsd:string ;
	bd:notes "The level of imputation of the end date for phase w. See Section 3.1.3."^^xsd:string ;
	bd:ct "DATEFL"^^xsd:string ;
	bd:ctNotes ""^^xsd:string ;
	bd:typedAs <http://www.assero.co.uk/CSN#f9caeead-091c-442a-acdf-6f56a64c4dff> ;
.
<http://www.cdisc.org/ADSL/V2#AVPHwETMF>
	rdf:type bd:ADaMDatasetVariable ;
	isoC:label "Phase w End Time Imputation Flag"^^xsd:string ;
	bd:rule ""^^xsd:string ;
	bd:ordinal "97"^^xsd:positiveInteger ;
	bd:name "PHwETMF"^^xsd:string ;
	bd:notes "The level of imputation of the end time for phase w. See Section 3.1.3."^^xsd:string ;
	bd:ct "TIMEFL"^^xsd:string ;
	bd:ctNotes ""^^xsd:string ;
	bd:typedAs <http://www.assero.co.uk/CSN#f9caeead-091c-442a-acdf-6f56a64c4dff> ;
.
<http://www.cdisc.org/ADSL/V2#AVEOSSTT>
	rdf:type bd:ADaMDatasetVariable ;
	isoC:label "End of Study Status"^^xsd:string ;
	bd:rule ""^^xsd:string ;
	bd:ordinal "98"^^xsd:positiveInteger ;
	bd:name "EOSSTT"^^xsd:string ;
	bd:notes "The subject's status as of the end of study or data cutoff. Examples: COMPLETED, DISCONTINUED, ONGOING."^^xsd:string ;
	bd:ct ""^^xsd:string ;
	bd:ctNotes ""^^xsd:string ;
	bd:typedAs <http://www.assero.co.uk/CSN#f9caeead-091c-442a-acdf-6f56a64c4dff> ;
.
<http://www.cdisc.org/ADSL/V2#AVEOSDT>
	rdf:type bd:ADaMDatasetVariable ;
	isoC:label "End of Study Date"^^xsd:string ;
	bd:rule ""^^xsd:string ;
	bd:ordinal "99"^^xsd:positiveInteger ;
	bd:name "EOSDT"^^xsd:string ;
	bd:notes "Date subject ended the study - either date of completion or date of discontinuation or data cutoff date for interim analyses."^^xsd:string ;
	bd:ct ""^^xsd:string ;
	bd:ctNotes ""^^xsd:string ;
	bd:typedAs <http://www.assero.co.uk/CSN#8b16536d-2667-4282-86b4-8724a00b8f9f> ;
.
<http://www.cdisc.org/ADSL/V2#AVDCSREAS>
	rdf:type bd:ADaMDatasetVariable ;
	isoC:label "Reason for Discontinuation from Study"^^xsd:string ;
	bd:rule ""^^xsd:string ;
	bd:ordinal "100"^^xsd:positiveInteger ;
	bd:name "DCSREAS"^^xsd:string ;
	bd:notes "Reason for subject's discontinuation from study. The source would most likely be the SDTM DS dataset. Null for subjects who completed the study."^^xsd:string ;
	bd:ct ""^^xsd:string ;
	bd:ctNotes ""^^xsd:string ;
	bd:typedAs <http://www.assero.co.uk/CSN#f9caeead-091c-442a-acdf-6f56a64c4dff> ;
.
<http://www.cdisc.org/ADSL/V2#AVDCSREASP>
	rdf:type bd:ADaMDatasetVariable ;
	isoC:label "Reason Spec for Discont from Study"^^xsd:string ;
	bd:rule ""^^xsd:string ;
	bd:ordinal "101"^^xsd:positiveInteger ;
	bd:name "DCSREASP"^^xsd:string ;
	bd:notes "Additional detail regarding subject's discontinuation from study (e.g., description of \"other\")."^^xsd:string ;
	bd:ct ""^^xsd:string ;
	bd:ctNotes ""^^xsd:string ;
	bd:typedAs <http://www.assero.co.uk/CSN#f9caeead-091c-442a-acdf-6f56a64c4dff> ;
.
<http://www.cdisc.org/ADSL/V2#AVEOTSTT>
	rdf:type bd:ADaMDatasetVariable ;
	isoC:label "End of Treatment Status"^^xsd:string ;
	bd:rule ""^^xsd:string ;
	bd:ordinal "102"^^xsd:positiveInteger ;
	bd:name "EOTSTT"^^xsd:string ;
	bd:notes "The subject's status as of the end of treatment or data cutoff. Examples: COMPLETED, DISCONTINUED, ONGOING."^^xsd:string ;
	bd:ct ""^^xsd:string ;
	bd:ctNotes ""^^xsd:string ;
	bd:typedAs <http://www.assero.co.uk/CSN#f9caeead-091c-442a-acdf-6f56a64c4dff> ;
.
<http://www.cdisc.org/ADSL/V2#AVDCTREAS>
	rdf:type bd:ADaMDatasetVariable ;
	isoC:label "Reason for Discontinuation of Treatment"^^xsd:string ;
	bd:rule ""^^xsd:string ;
	bd:ordinal "103"^^xsd:positiveInteger ;
	bd:name "DCTREAS"^^xsd:string ;
	bd:notes "If a subject discontinued treatment in the study, then this variable indicates the reason for discontinuation. This is for discontinuation of treatment in the overall study and not to be used for discontinuation reason within individual treatment periods."^^xsd:string ;
	bd:ct ""^^xsd:string ;
	bd:ctNotes ""^^xsd:string ;
	bd:typedAs <http://www.assero.co.uk/CSN#f9caeead-091c-442a-acdf-6f56a64c4dff> ;
.
<http://www.cdisc.org/ADSL/V2#AVDCTREASP>
	rdf:type bd:ADaMDatasetVariable ;
	isoC:label "Reason Specify for Discont of Treatment"^^xsd:string ;
	bd:rule ""^^xsd:string ;
	bd:ordinal "104"^^xsd:positiveInteger ;
	bd:name "DCTREASP"^^xsd:string ;
	bd:notes "Additional detail regarding subject's discontinuation from treatment (e.g., description of \"other\")."^^xsd:string ;
	bd:ct ""^^xsd:string ;
	bd:ctNotes ""^^xsd:string ;
	bd:typedAs <http://www.assero.co.uk/CSN#f9caeead-091c-442a-acdf-6f56a64c4dff> ;
.
<http://www.cdisc.org/ADSL/V2#AVEOTxxSTT>
	rdf:type bd:ADaMDatasetVariable ;
	isoC:label "End of Treatment Status in Period xx"^^xsd:string ;
	bd:rule ""^^xsd:string ;
	bd:ordinal "105"^^xsd:positiveInteger ;
	bd:name "EOTxxSTT"^^xsd:string ;
	bd:notes "The subject's treatment status as of the end of period xx, or data cutoff if within period xx. Examples: COMPLETED, DISCONTINUED, ONGOING."^^xsd:string ;
	bd:ct ""^^xsd:string ;
	bd:ctNotes ""^^xsd:string ;
	bd:typedAs <http://www.assero.co.uk/CSN#f9caeead-091c-442a-acdf-6f56a64c4dff> ;
.
<http://www.cdisc.org/ADSL/V2#AVDCTxxRS>
	rdf:type bd:ADaMDatasetVariable ;
	isoC:label "Reason for Discont of Treat in Period xx"^^xsd:string ;
	bd:rule ""^^xsd:string ;
	bd:ordinal "106"^^xsd:positiveInteger ;
	bd:name "DCTxxRS"^^xsd:string ;
	bd:notes "Reason for discontinuing treatment in period xx."^^xsd:string ;
	bd:ct ""^^xsd:string ;
	bd:ctNotes ""^^xsd:string ;
	bd:typedAs <http://www.assero.co.uk/CSN#f9caeead-091c-442a-acdf-6f56a64c4dff> ;
.
<http://www.cdisc.org/ADSL/V2#AVDCTxxRSP>
	rdf:type bd:ADaMDatasetVariable ;
	isoC:label "Reason Spec for Disc of Trt in Period xx"^^xsd:string ;
	bd:rule ""^^xsd:string ;
	bd:ordinal "107"^^xsd:positiveInteger ;
	bd:name "DCTxxRSP"^^xsd:string ;
	bd:notes "Additional detail regarding subject's discontinuation of treatment in period xx (e.g., description of \"other\")."^^xsd:string ;
	bd:ct ""^^xsd:string ;
	bd:ctNotes ""^^xsd:string ;
	bd:typedAs <http://www.assero.co.uk/CSN#f9caeead-091c-442a-acdf-6f56a64c4dff> ;
.
<http://www.cdisc.org/ADSL/V2#AVEOPxxSTT>
	rdf:type bd:ADaMDatasetVariable ;
	isoC:label "End of Period xx Status"^^xsd:string ;
	bd:rule ""^^xsd:string ;
	bd:ordinal "108"^^xsd:positiveInteger ;
	bd:name "EOPxxSTT"^^xsd:string ;
	bd:notes "The subject's status as of the end of period xx, or data cutoff if within period xx. Examples: COMPLETED, DISCONTINUED, ONGOING."^^xsd:string ;
	bd:ct ""^^xsd:string ;
	bd:ctNotes ""^^xsd:string ;
	bd:typedAs <http://www.assero.co.uk/CSN#f9caeead-091c-442a-acdf-6f56a64c4dff> ;
.
<http://www.cdisc.org/ADSL/V2#AVDCPxxRS>
	rdf:type bd:ADaMDatasetVariable ;
	isoC:label "Reason for Discont from Period xx"^^xsd:string ;
	bd:rule ""^^xsd:string ;
	bd:ordinal "109"^^xsd:positiveInteger ;
	bd:name "DCPxxRS"^^xsd:string ;
	bd:notes "Reason for discontinuing analysis period xx."^^xsd:string ;
	bd:ct ""^^xsd:string ;
	bd:ctNotes ""^^xsd:string ;
	bd:typedAs <http://www.assero.co.uk/CSN#f9caeead-091c-442a-acdf-6f56a64c4dff> ;
.
<http://www.cdisc.org/ADSL/V2#AVDCPxxRSP>
	rdf:type bd:ADaMDatasetVariable ;
	isoC:label "Reason Spec for Discont from Period xx"^^xsd:string ;
	bd:rule ""^^xsd:string ;
	bd:ordinal "110"^^xsd:positiveInteger ;
	bd:name "DCPxxRSP"^^xsd:string ;
	bd:notes "Additional detail regarding subject's discontinuation from period xx (e.g., description of \"other\")."^^xsd:string ;
	bd:ct ""^^xsd:string ;
	bd:ctNotes ""^^xsd:string ;
	bd:typedAs <http://www.assero.co.uk/CSN#f9caeead-091c-442a-acdf-6f56a64c4dff> ;
.
<http://www.cdisc.org/ADSL/V2#AVRFICDT>
	rdf:type bd:ADaMDatasetVariable ;
	isoC:label "Date of Informed Consent"^^xsd:string ;
	bd:rule ""^^xsd:string ;
	bd:ordinal "111"^^xsd:positiveInteger ;
	bd:name "RFICDT"^^xsd:string ;
	bd:notes "Date subject gave informed consent. Generally equivalent to DM.RFICDTC."^^xsd:string ;
	bd:ct ""^^xsd:string ;
	bd:ctNotes ""^^xsd:string ;
	bd:typedAs <http://www.assero.co.uk/CSN#8b16536d-2667-4282-86b4-8724a00b8f9f> ;
.
<http://www.cdisc.org/ADSL/V2#AVENRLDT>
	rdf:type bd:ADaMDatasetVariable ;
	isoC:label "Date of Enrollment"^^xsd:string ;
	bd:rule ""^^xsd:string ;
	bd:ordinal "112"^^xsd:positiveInteger ;
	bd:name "ENRLDT"^^xsd:string ;
	bd:notes "Date of subject's enrollment into trial."^^xsd:string ;
	bd:ct ""^^xsd:string ;
	bd:ctNotes ""^^xsd:string ;
	bd:typedAs <http://www.assero.co.uk/CSN#8b16536d-2667-4282-86b4-8724a00b8f9f> ;
.
<http://www.cdisc.org/ADSL/V2#AVRANDDT>
	rdf:type bd:ADaMDatasetVariable ;
	isoC:label "Date of Randomization"^^xsd:string ;
	bd:rule ""^^xsd:string ;
	bd:ordinal "113"^^xsd:positiveInteger ;
	bd:name "RANDDT"^^xsd:string ;
	bd:notes "Required in randomized trials."^^xsd:string ;
	bd:ct ""^^xsd:string ;
	bd:ctNotes ""^^xsd:string ;
	bd:typedAs <http://www.assero.co.uk/CSN#8b16536d-2667-4282-86b4-8724a00b8f9f> ;
.
<http://www.cdisc.org/ADSL/V2#AVRFICyDT>
	rdf:type bd:ADaMDatasetVariable ;
	isoC:label "Date of Informed Consent y"^^xsd:string ;
	bd:rule ""^^xsd:string ;
	bd:ordinal "114"^^xsd:positiveInteger ;
	bd:name "RFICyDT"^^xsd:string ;
	bd:notes "This variable may be used in the case where there are multiple consent dates within a study. This date does not need to repeat the date in RFICDT. 'y' can start with 1 but it is not required to start with 1."^^xsd:string ;
	bd:ct ""^^xsd:string ;
	bd:ctNotes ""^^xsd:string ;
	bd:typedAs <http://www.assero.co.uk/CSN#8b16536d-2667-4282-86b4-8724a00b8f9f> ;
.
<http://www.cdisc.org/ADSL/V2#AVENRLyDT>
	rdf:type bd:ADaMDatasetVariable ;
	isoC:label "Date of Enrollment y"^^xsd:string ;
	bd:rule ""^^xsd:string ;
	bd:ordinal "115"^^xsd:positiveInteger ;
	bd:name "ENRLyDT"^^xsd:string ;
	bd:notes "This variable may be used in the case where there are multiple enrollment dates within a study. This date does not need to repeat the date in ENRLDT. 'y' can start with 1 but it is not required to start with 1."^^xsd:string ;
	bd:ct ""^^xsd:string ;
	bd:ctNotes ""^^xsd:string ;
	bd:typedAs <http://www.assero.co.uk/CSN#8b16536d-2667-4282-86b4-8724a00b8f9f> ;
.
<http://www.cdisc.org/ADSL/V2#AVRANDyDT>
	rdf:type bd:ADaMDatasetVariable ;
	isoC:label "Date of Randomization y"^^xsd:string ;
	bd:rule ""^^xsd:string ;
	bd:ordinal "116"^^xsd:positiveInteger ;
	bd:name "RANDyDT"^^xsd:string ;
	bd:notes "This variable may be used in the case where there are multiple randomization dates within a study. This date does not need to repeat the date in RANDDT. 'y' can start with 1 but it is not required to start with 1."^^xsd:string ;
	bd:ct ""^^xsd:string ;
	bd:ctNotes ""^^xsd:string ;
	bd:typedAs <http://www.assero.co.uk/CSN#8b16536d-2667-4282-86b4-8724a00b8f9f> ;
.
<http://www.cdisc.org/ADSL/V2#AVLSTALVDT>
	rdf:type bd:ADaMDatasetVariable ;
	isoC:label "Date Last Known Alive"^^xsd:string ;
	bd:rule ""^^xsd:string ;
	bd:ordinal "117"^^xsd:positiveInteger ;
	bd:name "LSTALVDT"^^xsd:string ;
	bd:notes "If this variable is included in ADSL, the best practice is to populate it for everyone. If the derivation for subjects who died differs from the derivation for subjects who are not known to have died, the differences should be noted in metadata."^^xsd:string ;
	bd:ct ""^^xsd:string ;
	bd:ctNotes ""^^xsd:string ;
	bd:typedAs <http://www.assero.co.uk/CSN#8b16536d-2667-4282-86b4-8724a00b8f9f> ;
.
<http://www.cdisc.org/ADSL/V2#AVTRCMP>
	rdf:type bd:ADaMDatasetVariable ;
	isoC:label "Treatment Compliance (%)"^^xsd:string ;
	bd:rule ""^^xsd:string ;
	bd:ordinal "118"^^xsd:positiveInteger ;
	bd:name "TRCMP"^^xsd:string ;
	bd:notes "Overall percent compliance with treatment in the trial. TRCMP may be useful for inclusion in ADSL for reasons such as defining subgroups and/or populations."^^xsd:string ;
	bd:ct ""^^xsd:string ;
	bd:ctNotes ""^^xsd:string ;
	bd:typedAs <http://www.assero.co.uk/CSN#8b16536d-2667-4282-86b4-8724a00b8f9f> ;
.
<http://www.cdisc.org/ADSL/V2#AVTRCMPGy>
	rdf:type bd:ADaMDatasetVariable ;
	isoC:label "Treatment Compliance (%) Group y"^^xsd:string ;
	bd:rule ""^^xsd:string ;
	bd:ordinal "119"^^xsd:positiveInteger ;
	bd:name "TRCMPGy"^^xsd:string ;
	bd:notes "Grouping 'y' of TRCMP, treatment compliance percentage."^^xsd:string ;
	bd:ct ""^^xsd:string ;
	bd:ctNotes ""^^xsd:string ;
	bd:typedAs <http://www.assero.co.uk/CSN#f9caeead-091c-442a-acdf-6f56a64c4dff> ;
.
<http://www.cdisc.org/ADSL/V2#AVTRCMPGyN>
	rdf:type bd:ADaMDatasetVariable ;
	isoC:label "Treatment Compliance (%) Group y (N)"^^xsd:string ;
	bd:rule ""^^xsd:string ;
	bd:ordinal "120"^^xsd:positiveInteger ;
	bd:name "TRCMPGyN"^^xsd:string ;
	bd:notes "Numeric version of treatment compliance (%) grouping 'y'. Must have a one-to-one mapping to TRCMPGy."^^xsd:string ;
	bd:ct ""^^xsd:string ;
	bd:ctNotes ""^^xsd:string ;
	bd:typedAs <http://www.assero.co.uk/CSN#8b16536d-2667-4282-86b4-8724a00b8f9f> ;
.
<http://www.cdisc.org/ADSL/V2#AVTRxxDURD>
	rdf:type bd:ADaMDatasetVariable ;
	isoC:label "Treatment Duration in Period xx (Days)"^^xsd:string ;
	bd:rule ""^^xsd:string ;
	bd:ordinal "121"^^xsd:positiveInteger ;
	bd:name "TRxxDURD"^^xsd:string ;
	bd:notes "Treatment duration for period xx as measured in days. More than one of TRxxDURD, TRxxDURM, and TRxxDURY can be populated, but each represents the entire duration in its respective units."^^xsd:string ;
	bd:ct ""^^xsd:string ;
	bd:ctNotes ""^^xsd:string ;
	bd:typedAs <http://www.assero.co.uk/CSN#8b16536d-2667-4282-86b4-8724a00b8f9f> ;
.
<http://www.cdisc.org/ADSL/V2#AVTRxxDURM>
	rdf:type bd:ADaMDatasetVariable ;
	isoC:label "Treatment Duration in Period xx (Months)"^^xsd:string ;
	bd:rule ""^^xsd:string ;
	bd:ordinal "122"^^xsd:positiveInteger ;
	bd:name "TRxxDURM"^^xsd:string ;
	bd:notes "Treatment duration for period xx, as measure in months. More than one of TRxxDURD, TRxxDURM, and TRxxDURY can be populated, but each represents the entire duration in its respective units."^^xsd:string ;
	bd:ct ""^^xsd:string ;
	bd:ctNotes ""^^xsd:string ;
	bd:typedAs <http://www.assero.co.uk/CSN#8b16536d-2667-4282-86b4-8724a00b8f9f> ;
.
<http://www.cdisc.org/ADSL/V2#AVTRxxDURY>
	rdf:type bd:ADaMDatasetVariable ;
	isoC:label "Treatment Duration in Period xx (Years)"^^xsd:string ;
	bd:rule ""^^xsd:string ;
	bd:ordinal "123"^^xsd:positiveInteger ;
	bd:name "TRxxDURY"^^xsd:string ;
	bd:notes "Treatment duration for period xx, as measured in years. More than one of TRxxDURD, TRxxDURM, and TRxxDURY can be populated, but each represents the entire duration in its respective units."^^xsd:string ;
	bd:ct ""^^xsd:string ;
	bd:ctNotes ""^^xsd:string ;
	bd:typedAs <http://www.assero.co.uk/CSN#8b16536d-2667-4282-86b4-8724a00b8f9f> ;
.
<http://www.cdisc.org/ADSL/V2#AVTRTDURD>
	rdf:type bd:ADaMDatasetVariable ;
	isoC:label "Total Treatment Duration (Days)"^^xsd:string ;
	bd:rule ""^^xsd:string ;
	bd:ordinal "124"^^xsd:positiveInteger ;
	bd:name "TRTDURD"^^xsd:string ;
	bd:notes "Total treatment duration, as measured in days. More than one of TRTDURD, TRTDURM, and TRTDURY can be populated, but each represents the entire duration in its respective units."^^xsd:string ;
	bd:ct ""^^xsd:string ;
	bd:ctNotes ""^^xsd:string ;
	bd:typedAs <http://www.assero.co.uk/CSN#8b16536d-2667-4282-86b4-8724a00b8f9f> ;
.
<http://www.cdisc.org/ADSL/V2#AVTRTDURM>
	rdf:type bd:ADaMDatasetVariable ;
	isoC:label "Total Treatment Duration (Months)"^^xsd:string ;
	bd:rule ""^^xsd:string ;
	bd:ordinal "125"^^xsd:positiveInteger ;
	bd:name "TRTDURM"^^xsd:string ;
	bd:notes "Total treatment duration, as measured in months. More than one of TRTDURD, TRTDURM, and TRTDURY can be populated, but each represents the entire duration in its respective units."^^xsd:string ;
	bd:ct ""^^xsd:string ;
	bd:ctNotes ""^^xsd:string ;
	bd:typedAs <http://www.assero.co.uk/CSN#8b16536d-2667-4282-86b4-8724a00b8f9f> ;
.
<http://www.cdisc.org/ADSL/V2#AVTRTDURY>
	rdf:type bd:ADaMDatasetVariable ;
	isoC:label "Total Treatment Duration (Years)"^^xsd:string ;
	bd:rule ""^^xsd:string ;
	bd:ordinal "126"^^xsd:positiveInteger ;
	bd:name "TRTDURY"^^xsd:string ;
	bd:notes "Total treatment duration, as measured in years. More than one of TRTDURD, TRTDURM, and TRTDURY can be populated, but each represents the entire duration in its respective units."^^xsd:string ;
	bd:ct ""^^xsd:string ;
	bd:ctNotes ""^^xsd:string ;
	bd:typedAs <http://www.assero.co.uk/CSN#8b16536d-2667-4282-86b4-8724a00b8f9f> ;
.
<http://www.cdisc.org/ADSL/V2#AVDTHDT>
	rdf:type bd:ADaMDatasetVariable ;
	isoC:label "Date of Death"^^xsd:string ;
	bd:rule ""^^xsd:string ;
	bd:ordinal "127"^^xsd:positiveInteger ;
	bd:name "DTHDT"^^xsd:string ;
	bd:notes "Date of subject's death. Derived from DM.DTHDTC."^^xsd:string ;
	bd:ct ""^^xsd:string ;
	bd:ctNotes ""^^xsd:string ;
	bd:typedAs <http://www.assero.co.uk/CSN#8b16536d-2667-4282-86b4-8724a00b8f9f> ;
.
<http://www.cdisc.org/ADSL/V2#AVDTHDTF>
	rdf:type bd:ADaMDatasetVariable ;
	isoC:label "Date of Death Imputation Flag"^^xsd:string ;
	bd:rule ""^^xsd:string ;
	bd:ordinal "128"^^xsd:positiveInteger ;
	bd:name "DTHDTF"^^xsd:string ;
	bd:notes "Imputation flag for date of subject's death. If DTHDT was imputed, DTHDTF must be populated and is required. See Section 3.1.3."^^xsd:string ;
	bd:ct ""^^xsd:string ;
	bd:ctNotes ""^^xsd:string ;
	bd:typedAs <http://www.assero.co.uk/CSN#f9caeead-091c-442a-acdf-6f56a64c4dff> ;
.
<http://www.cdisc.org/ADSL/V2#AVDTHCAUS>
	rdf:type bd:ADaMDatasetVariable ;
	isoC:label "Cause of Death"^^xsd:string ;
	bd:rule ""^^xsd:string ;
	bd:ordinal "129"^^xsd:positiveInteger ;
	bd:name "DTHCAUS"^^xsd:string ;
	bd:notes "Cause of Death."^^xsd:string ;
	bd:ct ""^^xsd:string ;
	bd:ctNotes ""^^xsd:string ;
	bd:typedAs <http://www.assero.co.uk/CSN#f9caeead-091c-442a-acdf-6f56a64c4dff> ;
.
<http://www.cdisc.org/ADSL/V2#AVDTHCAUSN>
	rdf:type bd:ADaMDatasetVariable ;
	isoC:label "Cause of Death (N)"^^xsd:string ;
	bd:rule ""^^xsd:string ;
	bd:ordinal "130"^^xsd:positiveInteger ;
	bd:name "DTHCAUSN"^^xsd:string ;
	bd:notes "Numeric representation of cause of death. Must have a one-to-one mapping to DTHCAUS."^^xsd:string ;
	bd:ct ""^^xsd:string ;
	bd:ctNotes ""^^xsd:string ;
	bd:typedAs <http://www.assero.co.uk/CSN#8b16536d-2667-4282-86b4-8724a00b8f9f> ;
.
<http://www.cdisc.org/ADSL/V2#AVDTHCGRy>
	rdf:type bd:ADaMDatasetVariable ;
	isoC:label "Cause of Death Group y"^^xsd:string ;
	bd:rule ""^^xsd:string ;
	bd:ordinal "131"^^xsd:positiveInteger ;
	bd:name "DTHCGRy"^^xsd:string ;
	bd:notes "Grouping 'y' of DTHCAUS, the subject's cause of death."^^xsd:string ;
	bd:ct ""^^xsd:string ;
	bd:ctNotes ""^^xsd:string ;
	bd:typedAs <http://www.assero.co.uk/CSN#f9caeead-091c-442a-acdf-6f56a64c4dff> ;
.
<http://www.cdisc.org/ADSL/V2#AVDTHCGRyN>
	rdf:type bd:ADaMDatasetVariable ;
	isoC:label "Cause of Death Group y (N)"^^xsd:string ;
	bd:rule ""^^xsd:string ;
	bd:ordinal "132"^^xsd:positiveInteger ;
	bd:name "DTHCGRyN"^^xsd:string ;
	bd:notes "Numeric version of grouping 'y' of the subject's cause of death. Must have a one-to-one mapping to DTHCGRy."^^xsd:string ;
	bd:ct ""^^xsd:string ;
	bd:ctNotes ""^^xsd:string ;
	bd:typedAs <http://www.assero.co.uk/CSN#8b16536d-2667-4282-86b4-8724a00b8f9f> ;
.
<http://www.cdisc.org/Basic_Data_Structure/V2>
	rdf:type bd:ADaMDataset ;
	isoC:label "Basic Data Structure"^^xsd:string ;
	isoT:hasState <http://www.cdisc.org/Basic_Data_Structure/V2#RS> ;
	isoT:hasIdentifier <http://www.cdisc.org/Basic_Data_Structure/V2#SI> ;
	isoT:origin ""^^xsd:string ;
	isoT:changeDescription ""^^xsd:string ;
	isoT:creationDate "2016-02-12T00:00:00+00:00"^^xsd:dateTime ;
	isoT:lastChangeDate "2016-02-12T00:00:00+00:00"^^xsd:dateTime ;
	isoT:explanatoryComment ""^^xsd:string ;
	bd:rule ""^^xsd:string ;
	bd:ordinal "1"^^xsd:positiveInteger ;
	bd:includesColumn <http://www.cdisc.org/Basic_Data_Structure/V2#AVSTUDYID> ;
	bd:includesColumn <http://www.cdisc.org/Basic_Data_Structure/V2#AVUSUBJID> ;
	bd:includesColumn <http://www.cdisc.org/Basic_Data_Structure/V2#AVSUBJID> ;
	bd:includesColumn <http://www.cdisc.org/Basic_Data_Structure/V2#AVSITEID> ;
	bd:includesColumn <http://www.cdisc.org/Basic_Data_Structure/V2#AVASEQ> ;
	bd:includesColumn <http://www.cdisc.org/Basic_Data_Structure/V2#AVTRTP> ;
	bd:includesColumn <http://www.cdisc.org/Basic_Data_Structure/V2#AVTRTPN> ;
	bd:includesColumn <http://www.cdisc.org/Basic_Data_Structure/V2#AVTRTA> ;
	bd:includesColumn <http://www.cdisc.org/Basic_Data_Structure/V2#AVTRTAN> ;
	bd:includesColumn <http://www.cdisc.org/Basic_Data_Structure/V2#AVTRTPGy> ;
	bd:includesColumn <http://www.cdisc.org/Basic_Data_Structure/V2#AVTRTPGyN> ;
	bd:includesColumn <http://www.cdisc.org/Basic_Data_Structure/V2#AVTRTAGy> ;
	bd:includesColumn <http://www.cdisc.org/Basic_Data_Structure/V2#AVTRTAGyN> ;
	bd:includesColumn <http://www.cdisc.org/Basic_Data_Structure/V2#AVDOSEP> ;
	bd:includesColumn <http://www.cdisc.org/Basic_Data_Structure/V2#AVDOSCUMP> ;
	bd:includesColumn <http://www.cdisc.org/Basic_Data_Structure/V2#AVDOSEA> ;
	bd:includesColumn <http://www.cdisc.org/Basic_Data_Structure/V2#AVDOSCUMA> ;
	bd:includesColumn <http://www.cdisc.org/Basic_Data_Structure/V2#AVDOSEU> ;
	bd:includesColumn <http://www.cdisc.org/Basic_Data_Structure/V2#AVADT> ;
	bd:includesColumn <http://www.cdisc.org/Basic_Data_Structure/V2#AVATM> ;
	bd:includesColumn <http://www.cdisc.org/Basic_Data_Structure/V2#AVADTM> ;
	bd:includesColumn <http://www.cdisc.org/Basic_Data_Structure/V2#AVADY> ;
	bd:includesColumn <http://www.cdisc.org/Basic_Data_Structure/V2#AVADTF> ;
	bd:includesColumn <http://www.cdisc.org/Basic_Data_Structure/V2#AVATMF> ;
	bd:includesColumn <http://www.cdisc.org/Basic_Data_Structure/V2#AVASTDT> ;
	bd:includesColumn <http://www.cdisc.org/Basic_Data_Structure/V2#AVASTTM> ;
	bd:includesColumn <http://www.cdisc.org/Basic_Data_Structure/V2#AVASTDTM> ;
	bd:includesColumn <http://www.cdisc.org/Basic_Data_Structure/V2#AVASTDY> ;
	bd:includesColumn <http://www.cdisc.org/Basic_Data_Structure/V2#AVASTDTF> ;
	bd:includesColumn <http://www.cdisc.org/Basic_Data_Structure/V2#AVASTTMF> ;
	bd:includesColumn <http://www.cdisc.org/Basic_Data_Structure/V2#AVAENDT> ;
	bd:includesColumn <http://www.cdisc.org/Basic_Data_Structure/V2#AVAENTM> ;
	bd:includesColumn <http://www.cdisc.org/Basic_Data_Structure/V2#AVAENDTM> ;
	bd:includesColumn <http://www.cdisc.org/Basic_Data_Structure/V2#AVAENDY> ;
	bd:includesColumn <http://www.cdisc.org/Basic_Data_Structure/V2#AVAENDTF> ;
	bd:includesColumn <http://www.cdisc.org/Basic_Data_Structure/V2#AVAENTMF> ;
	bd:includesColumn <http://www.cdisc.org/Basic_Data_Structure/V2#AVAVISIT> ;
	bd:includesColumn <http://www.cdisc.org/Basic_Data_Structure/V2#AVAVISITN> ;
	bd:includesColumn <http://www.cdisc.org/Basic_Data_Structure/V2#AVATPT> ;
	bd:includesColumn <http://www.cdisc.org/Basic_Data_Structure/V2#AVATPTN> ;
	bd:includesColumn <http://www.cdisc.org/Basic_Data_Structure/V2#AVATPTREF> ;
	bd:includesColumn <http://www.cdisc.org/Basic_Data_Structure/V2#AVAPHASE> ;
	bd:includesColumn <http://www.cdisc.org/Basic_Data_Structure/V2#AVAPHASEN> ;
	bd:includesColumn <http://www.cdisc.org/Basic_Data_Structure/V2#AVAPERIOD> ;
	bd:includesColumn <http://www.cdisc.org/Basic_Data_Structure/V2#AVAPERIODC> ;
	bd:includesColumn <http://www.cdisc.org/Basic_Data_Structure/V2#AVASPER> ;
	bd:includesColumn <http://www.cdisc.org/Basic_Data_Structure/V2#AVASPERC> ;
	bd:includesColumn <http://www.cdisc.org/Basic_Data_Structure/V2#AVARELTM> ;
	bd:includesColumn <http://www.cdisc.org/Basic_Data_Structure/V2#AVARELTMU> ;
	bd:includesColumn <http://www.cdisc.org/Basic_Data_Structure/V2#AVAPERSDT> ;
	bd:includesColumn <http://www.cdisc.org/Basic_Data_Structure/V2#AVAPERSTM> ;
	bd:includesColumn <http://www.cdisc.org/Basic_Data_Structure/V2#AVAPERSDTM> ;
	bd:includesColumn <http://www.cdisc.org/Basic_Data_Structure/V2#AVAPERSDTF> ;
	bd:includesColumn <http://www.cdisc.org/Basic_Data_Structure/V2#AVAPERSTMF> ;
	bd:includesColumn <http://www.cdisc.org/Basic_Data_Structure/V2#AVAPEREDT> ;
	bd:includesColumn <http://www.cdisc.org/Basic_Data_Structure/V2#AVAPERETM> ;
	bd:includesColumn <http://www.cdisc.org/Basic_Data_Structure/V2#AVAPEREDTM> ;
	bd:includesColumn <http://www.cdisc.org/Basic_Data_Structure/V2#AVAPEREDTF> ;
	bd:includesColumn <http://www.cdisc.org/Basic_Data_Structure/V2#AVAPERETMF> ;
	bd:includesColumn <http://www.cdisc.org/Basic_Data_Structure/V2#AVASPRSDT> ;
	bd:includesColumn <http://www.cdisc.org/Basic_Data_Structure/V2#AVASPRSTM> ;
	bd:includesColumn <http://www.cdisc.org/Basic_Data_Structure/V2#AVASPRSDTM> ;
	bd:includesColumn <http://www.cdisc.org/Basic_Data_Structure/V2#AVASPRSDTF> ;
	bd:includesColumn <http://www.cdisc.org/Basic_Data_Structure/V2#AVASPRSTMF> ;
	bd:includesColumn <http://www.cdisc.org/Basic_Data_Structure/V2#AVASPREDT> ;
	bd:includesColumn <http://www.cdisc.org/Basic_Data_Structure/V2#AVASPRETM> ;
	bd:includesColumn <http://www.cdisc.org/Basic_Data_Structure/V2#AVASPREDTM> ;
	bd:includesColumn <http://www.cdisc.org/Basic_Data_Structure/V2#AVASPREDTF> ;
	bd:includesColumn <http://www.cdisc.org/Basic_Data_Structure/V2#AVASPRETMF> ;
	bd:includesColumn <http://www.cdisc.org/Basic_Data_Structure/V2#AVPHSDT> ;
	bd:includesColumn <http://www.cdisc.org/Basic_Data_Structure/V2#AVPHSTM> ;
	bd:includesColumn <http://www.cdisc.org/Basic_Data_Structure/V2#AVPHSDTM> ;
	bd:includesColumn <http://www.cdisc.org/Basic_Data_Structure/V2#AVPHSDTF> ;
	bd:includesColumn <http://www.cdisc.org/Basic_Data_Structure/V2#AVPHSTMF> ;
	bd:includesColumn <http://www.cdisc.org/Basic_Data_Structure/V2#AVPHEDT> ;
	bd:includesColumn <http://www.cdisc.org/Basic_Data_Structure/V2#AVPHETM> ;
	bd:includesColumn <http://www.cdisc.org/Basic_Data_Structure/V2#AVPHEDTM> ;
	bd:includesColumn <http://www.cdisc.org/Basic_Data_Structure/V2#AVPHEDTF> ;
	bd:includesColumn <http://www.cdisc.org/Basic_Data_Structure/V2#AVPHETMF> ;
	bd:includesColumn <http://www.cdisc.org/Basic_Data_Structure/V2#AV*DT> ;
	bd:includesColumn <http://www.cdisc.org/Basic_Data_Structure/V2#AV*TM> ;
	bd:includesColumn <http://www.cdisc.org/Basic_Data_Structure/V2#AV*DTM> ;
	bd:includesColumn <http://www.cdisc.org/Basic_Data_Structure/V2#AV*ADY> ;
	bd:includesColumn <http://www.cdisc.org/Basic_Data_Structure/V2#AV*DTF> ;
	bd:includesColumn <http://www.cdisc.org/Basic_Data_Structure/V2#AV*TMF> ;
	bd:includesColumn <http://www.cdisc.org/Basic_Data_Structure/V2#AV*SDT> ;
	bd:includesColumn <http://www.cdisc.org/Basic_Data_Structure/V2#AV*STM> ;
	bd:includesColumn <http://www.cdisc.org/Basic_Data_Structure/V2#AV*SDTM> ;
	bd:includesColumn <http://www.cdisc.org/Basic_Data_Structure/V2#AV*SDY> ;
	bd:includesColumn <http://www.cdisc.org/Basic_Data_Structure/V2#AV*SDTF> ;
	bd:includesColumn <http://www.cdisc.org/Basic_Data_Structure/V2#AV*STMF> ;
	bd:includesColumn <http://www.cdisc.org/Basic_Data_Structure/V2#AV*EDT> ;
	bd:includesColumn <http://www.cdisc.org/Basic_Data_Structure/V2#AV*ETM> ;
	bd:includesColumn <http://www.cdisc.org/Basic_Data_Structure/V2#AV*EDTM> ;
	bd:includesColumn <http://www.cdisc.org/Basic_Data_Structure/V2#AV*EDY> ;
	bd:includesColumn <http://www.cdisc.org/Basic_Data_Structure/V2#AV*EDTF> ;
	bd:includesColumn <http://www.cdisc.org/Basic_Data_Structure/V2#AV*ETMF> ;
	bd:includesColumn <http://www.cdisc.org/Basic_Data_Structure/V2#AVPARAM> ;
	bd:includesColumn <http://www.cdisc.org/Basic_Data_Structure/V2#AVPARAMCD> ;
	bd:includesColumn <http://www.cdisc.org/Basic_Data_Structure/V2#AVPARAMN> ;
	bd:includesColumn <http://www.cdisc.org/Basic_Data_Structure/V2#AVPARAMTYP> ;
	bd:includesColumn <http://www.cdisc.org/Basic_Data_Structure/V2#AVPARCATy> ;
	bd:includesColumn <http://www.cdisc.org/Basic_Data_Structure/V2#AVPARCATyN> ;
	bd:includesColumn <http://www.cdisc.org/Basic_Data_Structure/V2#AVAVAL> ;
	bd:includesColumn <http://www.cdisc.org/Basic_Data_Structure/V2#AVAVALC> ;
	bd:includesColumn <http://www.cdisc.org/Basic_Data_Structure/V2#AVAVALCATy> ;
	bd:includesColumn <http://www.cdisc.org/Basic_Data_Structure/V2#AVAVALCAyN> ;
	bd:includesColumn <http://www.cdisc.org/Basic_Data_Structure/V2#AVBASE> ;
	bd:includesColumn <http://www.cdisc.org/Basic_Data_Structure/V2#AVBASEC> ;
	bd:includesColumn <http://www.cdisc.org/Basic_Data_Structure/V2#AVBASECATy> ;
	bd:includesColumn <http://www.cdisc.org/Basic_Data_Structure/V2#AVBASECAyN> ;
	bd:includesColumn <http://www.cdisc.org/Basic_Data_Structure/V2#AVBASETYPE> ;
	bd:includesColumn <http://www.cdisc.org/Basic_Data_Structure/V2#AVCHG> ;
	bd:includesColumn <http://www.cdisc.org/Basic_Data_Structure/V2#AVCHGCATy> ;
	bd:includesColumn <http://www.cdisc.org/Basic_Data_Structure/V2#AVCHGCATyN> ;
	bd:includesColumn <http://www.cdisc.org/Basic_Data_Structure/V2#AVPCHG> ;
	bd:includesColumn <http://www.cdisc.org/Basic_Data_Structure/V2#AVPCHGCATy> ;
	bd:includesColumn <http://www.cdisc.org/Basic_Data_Structure/V2#AVPCHGCAyN> ;
	bd:includesColumn <http://www.cdisc.org/Basic_Data_Structure/V2#AVR2BASE> ;
	bd:includesColumn <http://www.cdisc.org/Basic_Data_Structure/V2#AVR2AyLO> ;
	bd:includesColumn <http://www.cdisc.org/Basic_Data_Structure/V2#AVR2AyHI> ;
	bd:includesColumn <http://www.cdisc.org/Basic_Data_Structure/V2#AVSHIFTy> ;
	bd:includesColumn <http://www.cdisc.org/Basic_Data_Structure/V2#AVSHIFTyN> ;
	bd:includesColumn <http://www.cdisc.org/Basic_Data_Structure/V2#AVCRITy> ;
	bd:includesColumn <http://www.cdisc.org/Basic_Data_Structure/V2#AVCRITyFL> ;
	bd:includesColumn <http://www.cdisc.org/Basic_Data_Structure/V2#AVCRITyFN> ;
	bd:includesColumn <http://www.cdisc.org/Basic_Data_Structure/V2#AVMCRITy> ;
	bd:includesColumn <http://www.cdisc.org/Basic_Data_Structure/V2#AVMCRITyML> ;
	bd:includesColumn <http://www.cdisc.org/Basic_Data_Structure/V2#AVMCRITyMN> ;
	bd:includesColumn <http://www.cdisc.org/Basic_Data_Structure/V2#AVDTYPE> ;
	bd:includesColumn <http://www.cdisc.org/Basic_Data_Structure/V2#AVAWRANGE> ;
	bd:includesColumn <http://www.cdisc.org/Basic_Data_Structure/V2#AVAWTARGET> ;
	bd:includesColumn <http://www.cdisc.org/Basic_Data_Structure/V2#AVAWTDIFF> ;
	bd:includesColumn <http://www.cdisc.org/Basic_Data_Structure/V2#AVAWLO> ;
	bd:includesColumn <http://www.cdisc.org/Basic_Data_Structure/V2#AVAWHI> ;
	bd:includesColumn <http://www.cdisc.org/Basic_Data_Structure/V2#AVAWU> ;
	bd:includesColumn <http://www.cdisc.org/Basic_Data_Structure/V2#AVSTARTDT> ;
	bd:includesColumn <http://www.cdisc.org/Basic_Data_Structure/V2#AVSTARTDTM> ;
	bd:includesColumn <http://www.cdisc.org/Basic_Data_Structure/V2#AVSTARTDTF> ;
	bd:includesColumn <http://www.cdisc.org/Basic_Data_Structure/V2#AVSTARTTMF> ;
	bd:includesColumn <http://www.cdisc.org/Basic_Data_Structure/V2#AVCNSR> ;
	bd:includesColumn <http://www.cdisc.org/Basic_Data_Structure/V2#AVEVNTDESC> ;
	bd:includesColumn <http://www.cdisc.org/Basic_Data_Structure/V2#AVCNSDTDSC> ;
	bd:includesColumn <http://www.cdisc.org/Basic_Data_Structure/V2#AVATOXGR> ;
	bd:includesColumn <http://www.cdisc.org/Basic_Data_Structure/V2#AVBTOXGR> ;
	bd:includesColumn <http://www.cdisc.org/Basic_Data_Structure/V2#AVANRIND> ;
	bd:includesColumn <http://www.cdisc.org/Basic_Data_Structure/V2#AVBNRIND> ;
	bd:includesColumn <http://www.cdisc.org/Basic_Data_Structure/V2#AVANRLO> ;
	bd:includesColumn <http://www.cdisc.org/Basic_Data_Structure/V2#AVANRLOC> ;
	bd:includesColumn <http://www.cdisc.org/Basic_Data_Structure/V2#AVANRHI> ;
	bd:includesColumn <http://www.cdisc.org/Basic_Data_Structure/V2#AVANRHIC> ;
	bd:includesColumn <http://www.cdisc.org/Basic_Data_Structure/V2#AVAyLO> ;
	bd:includesColumn <http://www.cdisc.org/Basic_Data_Structure/V2#AVAyLOC> ;
	bd:includesColumn <http://www.cdisc.org/Basic_Data_Structure/V2#AVAyHI> ;
	bd:includesColumn <http://www.cdisc.org/Basic_Data_Structure/V2#AVAyHIC> ;
	bd:includesColumn <http://www.cdisc.org/Basic_Data_Structure/V2#AVAyIND> ;
	bd:includesColumn <http://www.cdisc.org/Basic_Data_Structure/V2#AVByIND> ;
	bd:includesColumn <http://www.cdisc.org/Basic_Data_Structure/V2#AVABLFL> ;
	bd:includesColumn <http://www.cdisc.org/Basic_Data_Structure/V2#AVABLFN> ;
	bd:includesColumn <http://www.cdisc.org/Basic_Data_Structure/V2#AVANLzzFL> ;
	bd:includesColumn <http://www.cdisc.org/Basic_Data_Structure/V2#AVANLzzFN> ;
	bd:includesColumn <http://www.cdisc.org/Basic_Data_Structure/V2#AVONTRTFL> ;
	bd:includesColumn <http://www.cdisc.org/Basic_Data_Structure/V2#AVONTRTFN> ;
	bd:includesColumn <http://www.cdisc.org/Basic_Data_Structure/V2#AVLVOTFL> ;
	bd:includesColumn <http://www.cdisc.org/Basic_Data_Structure/V2#AVLVOTFN> ;
	bd:includesColumn <http://www.cdisc.org/Basic_Data_Structure/V2#AVITTRFL> ;
	bd:includesColumn <http://www.cdisc.org/Basic_Data_Structure/V2#AVSAFRFL> ;
	bd:includesColumn <http://www.cdisc.org/Basic_Data_Structure/V2#AVFASRFL> ;
	bd:includesColumn <http://www.cdisc.org/Basic_Data_Structure/V2#AVPPROTRFL> ;
	bd:includesColumn <http://www.cdisc.org/Basic_Data_Structure/V2#AVCOMPLRFL> ;
	bd:includesColumn <http://www.cdisc.org/Basic_Data_Structure/V2#AVITTPFL> ;
	bd:includesColumn <http://www.cdisc.org/Basic_Data_Structure/V2#AVSAFPFL> ;
	bd:includesColumn <http://www.cdisc.org/Basic_Data_Structure/V2#AVFASPFL> ;
	bd:includesColumn <http://www.cdisc.org/Basic_Data_Structure/V2#AVPPROTPFL> ;
	bd:includesColumn <http://www.cdisc.org/Basic_Data_Structure/V2#AVCOMPLPFL> ;
	bd:includesColumn <http://www.cdisc.org/Basic_Data_Structure/V2#AVSRCDOM> ;
	bd:includesColumn <http://www.cdisc.org/Basic_Data_Structure/V2#AVSRCVAR> ;
	bd:includesColumn <http://www.cdisc.org/Basic_Data_Structure/V2#AVSRCSEQ> ;
	bd:prefix ""^^xsd:string ;
	bd:structure ""^^xsd:string ;
.
<http://www.cdisc.org/Basic_Data_Structure/V2#RS>
	rdf:type isoR:RegistrationState ;
	isoR:registrationStatus "Standard"^^xsd:string ;
	isoR:administrativeNote ""^^xsd:string ;
	isoR:effectiveDate "2016-01-01T00:00:00+00:00"^^xsd:dateTime ;
	isoR:untilDate "2016-01-01T00:00:00+00:00"^^xsd:dateTime ;
	isoR:unresolvedIssue ""^^xsd:string ;
	isoR:administrativeStatus ""^^xsd:string ;
	isoR:previousState "Standard"^^xsd:string ;
	isoR:multipleEdit "false"^^xsd:boolean ;
	isoR:byAuthority <http://www.assero.co.uk/RA#DUNS084433759> ;
.
<http://www.cdisc.org/Basic_Data_Structure/V2#SI>
	rdf:type isoI:ScopedIdentifier ;
	isoI:identifier "Basic Data Structure"^^xsd:string ;
	isoI:versionLabel "2016-02-12 Release"^^xsd:string ;
	isoI:version "2"^^xsd:positiveInteger ;
	isoI:semanticVersion "2.0.0"^^xsd:string ;
	isoI:hasScope <http://www.assero.co.uk/NS#CDISC> ;
.
<http://www.cdisc.org/Basic_Data_Structure/V2#AVSTUDYID>
	rdf:type bd:ADaMDatasetVariable ;
	isoC:label "Study Identifier"^^xsd:string ;
	bd:rule ""^^xsd:string ;
	bd:ordinal "1"^^xsd:positiveInteger ;
	bd:name "STUDYID"^^xsd:string ;
	bd:notes "DM.STUDYID"^^xsd:string ;
	bd:ct ""^^xsd:string ;
	bd:ctNotes ""^^xsd:string ;
	bd:typedAs <http://www.assero.co.uk/CSN#f9caeead-091c-442a-acdf-6f56a64c4dff> ;
.
<http://www.cdisc.org/Basic_Data_Structure/V2#AVUSUBJID>
	rdf:type bd:ADaMDatasetVariable ;
	isoC:label "Unique Subject Identifier"^^xsd:string ;
	bd:rule ""^^xsd:string ;
	bd:ordinal "2"^^xsd:positiveInteger ;
	bd:name "USUBJID"^^xsd:string ;
	bd:notes "DM.USUBJID"^^xsd:string ;
	bd:ct ""^^xsd:string ;
	bd:ctNotes ""^^xsd:string ;
	bd:typedAs <http://www.assero.co.uk/CSN#f9caeead-091c-442a-acdf-6f56a64c4dff> ;
.
<http://www.cdisc.org/Basic_Data_Structure/V2#AVSUBJID>
	rdf:type bd:ADaMDatasetVariable ;
	isoC:label "Subject Identifier for the Study"^^xsd:string ;
	bd:rule ""^^xsd:string ;
	bd:ordinal "3"^^xsd:positiveInteger ;
	bd:name "SUBJID"^^xsd:string ;
	bd:notes "DM.SUBJID. SUBJID is required in ADSL, but permissible in other datasets."^^xsd:string ;
	bd:ct ""^^xsd:string ;
	bd:ctNotes ""^^xsd:string ;
	bd:typedAs <http://www.assero.co.uk/CSN#f9caeead-091c-442a-acdf-6f56a64c4dff> ;
.
<http://www.cdisc.org/Basic_Data_Structure/V2#AVSITEID>
	rdf:type bd:ADaMDatasetVariable ;
	isoC:label "Study Site Identifier"^^xsd:string ;
	bd:rule ""^^xsd:string ;
	bd:ordinal "4"^^xsd:positiveInteger ;
	bd:name "SITEID"^^xsd:string ;
	bd:notes "DM.SITEID. SITEID is required in ADSL, but permissible in other datasets."^^xsd:string ;
	bd:ct ""^^xsd:string ;
	bd:ctNotes ""^^xsd:string ;
	bd:typedAs <http://www.assero.co.uk/CSN#f9caeead-091c-442a-acdf-6f56a64c4dff> ;
.
<http://www.cdisc.org/Basic_Data_Structure/V2#AVASEQ>
	rdf:type bd:ADaMDatasetVariable ;
	isoC:label "Analysis Sequence Number"^^xsd:string ;
	bd:rule ""^^xsd:string ;
	bd:ordinal "5"^^xsd:positiveInteger ;
	bd:name "ASEQ"^^xsd:string ;
	bd:notes "Sequence number given to ensure uniqueness of subject records within an ADaM dataset. As long as values are unique within a subject within the dataset, any valid number can be used for ASEQ. ASEQ uniquely indexes records within a subject within an ADaM dataset.\n\nASEQ is useful for traceability when the dataset is used as input to another ADaM dataset. To refer to a record in a predecessor ADaM dataset, set SRCDOM to the name of the predecessor dataset, and set SRCSEQ to the value of ASEQ in the predecessor dataset. \nnumber can be used for ASEQ. ASEQ uniquely indexes records within a subject within an ADaM dataset."^^xsd:string ;
	bd:ct ""^^xsd:string ;
	bd:ctNotes ""^^xsd:string ;
	bd:typedAs <http://www.assero.co.uk/CSN#8b16536d-2667-4282-86b4-8724a00b8f9f> ;
.
<http://www.cdisc.org/Basic_Data_Structure/V2#AVTRTP>
	rdf:type bd:ADaMDatasetVariable ;
	isoC:label "Planned Treatment"^^xsd:string ;
	bd:rule ""^^xsd:string ;
	bd:ordinal "6"^^xsd:positiveInteger ;
	bd:name "TRTP"^^xsd:string ;
	bd:notes "TRTP is a record-level identifier that represents the planned treatment attributed to a record for analysis purposes. TRTP indicates how treatment varies by record within a subject and enables analysis of crossover and other designs. Though there is no requirement that TRTP will correspond to the TRTxxP as defined by the record's value of APERIOD, if populated, TRTP must match at least one value of the character planned treatment variables in ADSL (e.g., TRTxxP, TRTSEQP, TRxxPGy).\n\nAs noted previously, at least one treatment variable is required even in non-randomized trials. This requirement is satisfied by any subject-level or record-level treatment variables (e.g., TRTxxP, TRTP, TRTA). Even if not used for analysis, any ADSL treatment variable may be included in the BDS dataset."^^xsd:string ;
	bd:ct ""^^xsd:string ;
	bd:ctNotes ""^^xsd:string ;
	bd:typedAs <http://www.assero.co.uk/CSN#f9caeead-091c-442a-acdf-6f56a64c4dff> ;
.
<http://www.cdisc.org/Basic_Data_Structure/V2#AVTRTPN>
	rdf:type bd:ADaMDatasetVariable ;
	isoC:label "Planned Treatment (N)"^^xsd:string ;
	bd:rule ""^^xsd:string ;
	bd:ordinal "7"^^xsd:positiveInteger ;
	bd:name "TRTPN"^^xsd:string ;
	bd:notes "The numeric code for TRTP. One-to-one mapping within a study to TRTP."^^xsd:string ;
	bd:ct ""^^xsd:string ;
	bd:ctNotes ""^^xsd:string ;
	bd:typedAs <http://www.assero.co.uk/CSN#8b16536d-2667-4282-86b4-8724a00b8f9f> ;
.
<http://www.cdisc.org/Basic_Data_Structure/V2#AVTRTA>
	rdf:type bd:ADaMDatasetVariable ;
	isoC:label "Actual Treatment"^^xsd:string ;
	bd:rule ""^^xsd:string ;
	bd:ordinal "8"^^xsd:positiveInteger ;
	bd:name "TRTA"^^xsd:string ;
	bd:notes "TRTA is a record-level identifier that represents the actual treatment attributed to a record for analysis purposes. TRTA indicates how treatment varies by record within a subject and enables analysis of crossover and other multi-period designs. Though there is no requirement that TRTA will correspond to the TRTxxA as defined by the record's value of APERIOD, TRTA must match at least one value of the character actual treatment variables in ADSL (e.g., TRTxxA, TRTSEQA, TRxxAGy). \n\nAs noted previously, at least one treatment variable is required. This requirement is satisfied by any subject-level or record-level treatment variables (e.g., TRTxxP, TRTP, TRTA). Even if not used for analysis, any ADSL treatment variable may be included in the BDS dataset."^^xsd:string ;
	bd:ct ""^^xsd:string ;
	bd:ctNotes ""^^xsd:string ;
	bd:typedAs <http://www.assero.co.uk/CSN#f9caeead-091c-442a-acdf-6f56a64c4dff> ;
.
<http://www.cdisc.org/Basic_Data_Structure/V2#AVTRTAN>
	rdf:type bd:ADaMDatasetVariable ;
	isoC:label "Actual Treatment (N)"^^xsd:string ;
	bd:rule ""^^xsd:string ;
	bd:ordinal "9"^^xsd:positiveInteger ;
	bd:name "TRTAN"^^xsd:string ;
	bd:notes "The numeric code for TRTA. One-to-one mapping within a study to TRTA."^^xsd:string ;
	bd:ct ""^^xsd:string ;
	bd:ctNotes ""^^xsd:string ;
	bd:typedAs <http://www.assero.co.uk/CSN#8b16536d-2667-4282-86b4-8724a00b8f9f> ;
.
<http://www.cdisc.org/Basic_Data_Structure/V2#AVTRTPGy>
	rdf:type bd:ADaMDatasetVariable ;
	isoC:label "Planned Pooled Treatment y"^^xsd:string ;
	bd:rule ""^^xsd:string ;
	bd:ordinal "10"^^xsd:positiveInteger ;
	bd:name "TRTPGy"^^xsd:string ;
	bd:notes "TRTPGy is the planned pooled treatment y attributed to a record for analysis purposes. \"y\" represents an integer [1-99, not zero-padded] corresponding to a particular pooling scheme. Useful when planned treatments (TRTP) are pooled together for analysis, for example when all doses of Drug A (TRTPG1=All doses of Drug A) are compared to all doses of Drug B (TRTPG1=All doses of Drug B). Each value of TRTP is pooled within at most one value of TRTPGy."^^xsd:string ;
	bd:ct ""^^xsd:string ;
	bd:ctNotes ""^^xsd:string ;
	bd:typedAs <http://www.assero.co.uk/CSN#f9caeead-091c-442a-acdf-6f56a64c4dff> ;
.
<http://www.cdisc.org/Basic_Data_Structure/V2#AVTRTPGyN>
	rdf:type bd:ADaMDatasetVariable ;
	isoC:label "Planned Pooled Treatment y (N)"^^xsd:string ;
	bd:rule ""^^xsd:string ;
	bd:ordinal "11"^^xsd:positiveInteger ;
	bd:name "TRTPGyN"^^xsd:string ;
	bd:notes "The numeric code for TRTPGy. One-to-one mapping within a study to TRTPGy."^^xsd:string ;
	bd:ct ""^^xsd:string ;
	bd:ctNotes ""^^xsd:string ;
	bd:typedAs <http://www.assero.co.uk/CSN#8b16536d-2667-4282-86b4-8724a00b8f9f> ;
.
<http://www.cdisc.org/Basic_Data_Structure/V2#AVTRTAGy>
	rdf:type bd:ADaMDatasetVariable ;
	isoC:label "Actual Pooled Treatment y"^^xsd:string ;
	bd:rule ""^^xsd:string ;
	bd:ordinal "12"^^xsd:positiveInteger ;
	bd:name "TRTAGy"^^xsd:string ;
	bd:notes "TRTAGy is the actual pooled treatment y attributed to a record for analysis purposes. \"y\" represents an integer [1-99, not zero-padded] corresponding to a particular pooling scheme. Required when TRTPGy is present and TRTA is present."^^xsd:string ;
	bd:ct ""^^xsd:string ;
	bd:ctNotes ""^^xsd:string ;
	bd:typedAs <http://www.assero.co.uk/CSN#f9caeead-091c-442a-acdf-6f56a64c4dff> ;
.
<http://www.cdisc.org/Basic_Data_Structure/V2#AVTRTAGyN>
	rdf:type bd:ADaMDatasetVariable ;
	isoC:label "Actual Pooled Treatment y (N)"^^xsd:string ;
	bd:rule ""^^xsd:string ;
	bd:ordinal "13"^^xsd:positiveInteger ;
	bd:name "TRTAGyN"^^xsd:string ;
	bd:notes "The numeric code for TRTAGy. One-to-one mapping within a study to TRTAGy."^^xsd:string ;
	bd:ct ""^^xsd:string ;
	bd:ctNotes ""^^xsd:string ;
	bd:typedAs <http://www.assero.co.uk/CSN#8b16536d-2667-4282-86b4-8724a00b8f9f> ;
.
<http://www.cdisc.org/Basic_Data_Structure/V2#AVDOSEP>
	rdf:type bd:ADaMDatasetVariable ;
	isoC:label "Planned Treatment Dose"^^xsd:string ;
	bd:rule ""^^xsd:string ;
	bd:ordinal "14"^^xsd:positiveInteger ;
	bd:name "DOSEP"^^xsd:string ;
	bd:notes "DOSEP represents the planned treatment dosage associated with the record."^^xsd:string ;
	bd:ct ""^^xsd:string ;
	bd:ctNotes ""^^xsd:string ;
	bd:typedAs <http://www.assero.co.uk/CSN#8b16536d-2667-4282-86b4-8724a00b8f9f> ;
.
<http://www.cdisc.org/Basic_Data_Structure/V2#AVDOSCUMP>
	rdf:type bd:ADaMDatasetVariable ;
	isoC:label "Cumulative Planned Treatment Dose"^^xsd:string ;
	bd:rule ""^^xsd:string ;
	bd:ordinal "15"^^xsd:positiveInteger ;
	bd:name "DOSCUMP"^^xsd:string ;
	bd:notes "Cumulative planned dosage of treatment for the subject at the point in time of the record (e.g., ADT)."^^xsd:string ;
	bd:ct ""^^xsd:string ;
	bd:ctNotes ""^^xsd:string ;
	bd:typedAs <http://www.assero.co.uk/CSN#8b16536d-2667-4282-86b4-8724a00b8f9f> ;
.
<http://www.cdisc.org/Basic_Data_Structure/V2#AVDOSEA>
	rdf:type bd:ADaMDatasetVariable ;
	isoC:label "Actual Treatment Dose"^^xsd:string ;
	bd:rule ""^^xsd:string ;
	bd:ordinal "16"^^xsd:positiveInteger ;
	bd:name "DOSEA"^^xsd:string ;
	bd:notes "DOSEA represents the actual treatment dosage associated with the record."^^xsd:string ;
	bd:ct ""^^xsd:string ;
	bd:ctNotes ""^^xsd:string ;
	bd:typedAs <http://www.assero.co.uk/CSN#8b16536d-2667-4282-86b4-8724a00b8f9f> ;
.
<http://www.cdisc.org/Basic_Data_Structure/V2#AVDOSCUMA>
	rdf:type bd:ADaMDatasetVariable ;
	isoC:label "Cumulative Actual Treatment Dose"^^xsd:string ;
	bd:rule ""^^xsd:string ;
	bd:ordinal "17"^^xsd:positiveInteger ;
	bd:name "DOSCUMA"^^xsd:string ;
	bd:notes "Cumulative actual dosage of treatment for the subject at the point in time of the record (e.g., ADT)."^^xsd:string ;
	bd:ct ""^^xsd:string ;
	bd:ctNotes ""^^xsd:string ;
	bd:typedAs <http://www.assero.co.uk/CSN#8b16536d-2667-4282-86b4-8724a00b8f9f> ;
.
<http://www.cdisc.org/Basic_Data_Structure/V2#AVDOSEU>
	rdf:type bd:ADaMDatasetVariable ;
	isoC:label "Treatment Dose Units"^^xsd:string ;
	bd:rule ""^^xsd:string ;
	bd:ordinal "18"^^xsd:positiveInteger ;
	bd:name "DOSEU"^^xsd:string ;
	bd:notes "The units for DOSEP, DOSCUMP, DOSEA, and DOSCUMA. It is permissible to use suffixes such as \"P\" and \"A\" if needed, with labels modified accordingly."^^xsd:string ;
	bd:ct ""^^xsd:string ;
	bd:ctNotes ""^^xsd:string ;
	bd:typedAs <http://www.assero.co.uk/CSN#f9caeead-091c-442a-acdf-6f56a64c4dff> ;
.
<http://www.cdisc.org/Basic_Data_Structure/V2#AVADT>
	rdf:type bd:ADaMDatasetVariable ;
	isoC:label "Analysis Date"^^xsd:string ;
	bd:rule ""^^xsd:string ;
	bd:ordinal "19"^^xsd:positiveInteger ;
	bd:name "ADT"^^xsd:string ;
	bd:notes "The date associated with AVAL and/or AVALC in numeric format."^^xsd:string ;
	bd:ct ""^^xsd:string ;
	bd:ctNotes ""^^xsd:string ;
	bd:typedAs <http://www.assero.co.uk/CSN#8b16536d-2667-4282-86b4-8724a00b8f9f> ;
.
<http://www.cdisc.org/Basic_Data_Structure/V2#AVATM>
	rdf:type bd:ADaMDatasetVariable ;
	isoC:label "Analysis Time"^^xsd:string ;
	bd:rule ""^^xsd:string ;
	bd:ordinal "20"^^xsd:positiveInteger ;
	bd:name "ATM"^^xsd:string ;
	bd:notes "The time associated with AVAL and/or AVALC in numeric format."^^xsd:string ;
	bd:ct ""^^xsd:string ;
	bd:ctNotes ""^^xsd:string ;
	bd:typedAs <http://www.assero.co.uk/CSN#8b16536d-2667-4282-86b4-8724a00b8f9f> ;
.
<http://www.cdisc.org/Basic_Data_Structure/V2#AVADTM>
	rdf:type bd:ADaMDatasetVariable ;
	isoC:label "Analysis Datetime"^^xsd:string ;
	bd:rule ""^^xsd:string ;
	bd:ordinal "21"^^xsd:positiveInteger ;
	bd:name "ADTM"^^xsd:string ;
	bd:notes "The datetime associated with AVAL and/or AVALC in numeric format."^^xsd:string ;
	bd:ct ""^^xsd:string ;
	bd:ctNotes ""^^xsd:string ;
	bd:typedAs <http://www.assero.co.uk/CSN#8b16536d-2667-4282-86b4-8724a00b8f9f> ;
.
<http://www.cdisc.org/Basic_Data_Structure/V2#AVADY>
	rdf:type bd:ADaMDatasetVariable ;
	isoC:label "Analysis Relative Day"^^xsd:string ;
	bd:rule ""^^xsd:string ;
	bd:ordinal "22"^^xsd:positiveInteger ;
	bd:name "ADY"^^xsd:string ;
	bd:notes "The relative day of AVAL and/or AVALC. The number of days from an anchor date (not necessarily DM.RFSTDTC) to ADT. See Section 3.1.2."^^xsd:string ;
	bd:ct ""^^xsd:string ;
	bd:ctNotes ""^^xsd:string ;
	bd:typedAs <http://www.assero.co.uk/CSN#8b16536d-2667-4282-86b4-8724a00b8f9f> ;
.
<http://www.cdisc.org/Basic_Data_Structure/V2#AVADTF>
	rdf:type bd:ADaMDatasetVariable ;
	isoC:label "Analysis Date Imputation Flag"^^xsd:string ;
	bd:rule ""^^xsd:string ;
	bd:ordinal "23"^^xsd:positiveInteger ;
	bd:name "ADTF"^^xsd:string ;
	bd:notes "The level of imputation of analysis date. If ADT (or the date part of ADTM) was imputed, ADTF must be populated and is required. See Section 3.1.3."^^xsd:string ;
	bd:ct "DATEFL"^^xsd:string ;
	bd:ctNotes ""^^xsd:string ;
	bd:typedAs <http://www.assero.co.uk/CSN#f9caeead-091c-442a-acdf-6f56a64c4dff> ;
.
<http://www.cdisc.org/Basic_Data_Structure/V2#AVATMF>
	rdf:type bd:ADaMDatasetVariable ;
	isoC:label "Analysis Time Imputation Flag"^^xsd:string ;
	bd:rule ""^^xsd:string ;
	bd:ordinal "24"^^xsd:positiveInteger ;
	bd:name "ATMF"^^xsd:string ;
	bd:notes "The level of imputation of analysis time. If ATM (or the time part of ADTM) was imputed, ATMF must be populated and is required. See Section 3.1.3."^^xsd:string ;
	bd:ct "TIMEFL"^^xsd:string ;
	bd:ctNotes ""^^xsd:string ;
	bd:typedAs <http://www.assero.co.uk/CSN#f9caeead-091c-442a-acdf-6f56a64c4dff> ;
.
<http://www.cdisc.org/Basic_Data_Structure/V2#AVASTDT>
	rdf:type bd:ADaMDatasetVariable ;
	isoC:label "Analysis Start Date"^^xsd:string ;
	bd:rule ""^^xsd:string ;
	bd:ordinal "25"^^xsd:positiveInteger ;
	bd:name "ASTDT"^^xsd:string ;
	bd:notes "The start date associated with AVAL and/or AVALC. ASTDT and AENDT may be useful for traceability when AVAL summarizes data collected over an interval of time, or when AVAL is a duration."^^xsd:string ;
	bd:ct ""^^xsd:string ;
	bd:ctNotes ""^^xsd:string ;
	bd:typedAs <http://www.assero.co.uk/CSN#8b16536d-2667-4282-86b4-8724a00b8f9f> ;
.
<http://www.cdisc.org/Basic_Data_Structure/V2#AVASTTM>
	rdf:type bd:ADaMDatasetVariable ;
	isoC:label "Analysis Start Time"^^xsd:string ;
	bd:rule ""^^xsd:string ;
	bd:ordinal "26"^^xsd:positiveInteger ;
	bd:name "ASTTM"^^xsd:string ;
	bd:notes "The start time associated with AVAL and/or AVALC. ASTTM and AENTM may be useful for traceability when AVAL summarizes data collected over an interval of time, or when AVAL is a duration."^^xsd:string ;
	bd:ct ""^^xsd:string ;
	bd:ctNotes ""^^xsd:string ;
	bd:typedAs <http://www.assero.co.uk/CSN#8b16536d-2667-4282-86b4-8724a00b8f9f> ;
.
<http://www.cdisc.org/Basic_Data_Structure/V2#AVASTDTM>
	rdf:type bd:ADaMDatasetVariable ;
	isoC:label "Analysis Start Datetime"^^xsd:string ;
	bd:rule ""^^xsd:string ;
	bd:ordinal "27"^^xsd:positiveInteger ;
	bd:name "ASTDTM"^^xsd:string ;
	bd:notes "The start datetime associated with AVAL and/or AVALC. ASTDTM and AENDTM may be useful for traceability when AVAL summarizes data collected over an interval of time, or when AVAL is a duration."^^xsd:string ;
	bd:ct ""^^xsd:string ;
	bd:ctNotes ""^^xsd:string ;
	bd:typedAs <http://www.assero.co.uk/CSN#8b16536d-2667-4282-86b4-8724a00b8f9f> ;
.
<http://www.cdisc.org/Basic_Data_Structure/V2#AVASTDY>
	rdf:type bd:ADaMDatasetVariable ;
	isoC:label "Analysis Start Relative Day"^^xsd:string ;
	bd:rule ""^^xsd:string ;
	bd:ordinal "28"^^xsd:positiveInteger ;
	bd:name "ASTDY"^^xsd:string ;
	bd:notes "The number of days from an anchor date (not necessarily DM.RFSTDTC) to ASTDT. See Section 3.1.2."^^xsd:string ;
	bd:ct ""^^xsd:string ;
	bd:ctNotes ""^^xsd:string ;
	bd:typedAs <http://www.assero.co.uk/CSN#8b16536d-2667-4282-86b4-8724a00b8f9f> ;
.
<http://www.cdisc.org/Basic_Data_Structure/V2#AVASTDTF>
	rdf:type bd:ADaMDatasetVariable ;
	isoC:label "Analysis Start Date Imputation Flag"^^xsd:string ;
	bd:rule ""^^xsd:string ;
	bd:ordinal "29"^^xsd:positiveInteger ;
	bd:name "ASTDTF"^^xsd:string ;
	bd:notes "The level of imputation of analysis start date. If ASTDT (or the date part of ASTDTM) was imputed, ASTDTF must be populated and is required. See Section 3.1.3."^^xsd:string ;
	bd:ct "DATEFL"^^xsd:string ;
	bd:ctNotes ""^^xsd:string ;
	bd:typedAs <http://www.assero.co.uk/CSN#f9caeead-091c-442a-acdf-6f56a64c4dff> ;
.
<http://www.cdisc.org/Basic_Data_Structure/V2#AVASTTMF>
	rdf:type bd:ADaMDatasetVariable ;
	isoC:label "Analysis Start Time Imputation Flag"^^xsd:string ;
	bd:rule ""^^xsd:string ;
	bd:ordinal "30"^^xsd:positiveInteger ;
	bd:name "ASTTMF"^^xsd:string ;
	bd:notes "The level of imputation of analysis start time. If ASTTM (or the time part of ASTDTM) was imputed, ASTTMF must be populated and is required. See Section 3.1.3."^^xsd:string ;
	bd:ct "TIMEFL"^^xsd:string ;
	bd:ctNotes ""^^xsd:string ;
	bd:typedAs <http://www.assero.co.uk/CSN#f9caeead-091c-442a-acdf-6f56a64c4dff> ;
.
<http://www.cdisc.org/Basic_Data_Structure/V2#AVAENDT>
	rdf:type bd:ADaMDatasetVariable ;
	isoC:label "Analysis End Date"^^xsd:string ;
	bd:rule ""^^xsd:string ;
	bd:ordinal "31"^^xsd:positiveInteger ;
	bd:name "AENDT"^^xsd:string ;
	bd:notes "The end date associated with AVAL and/or AVALC. See also ASTDT."^^xsd:string ;
	bd:ct ""^^xsd:string ;
	bd:ctNotes ""^^xsd:string ;
	bd:typedAs <http://www.assero.co.uk/CSN#8b16536d-2667-4282-86b4-8724a00b8f9f> ;
.
<http://www.cdisc.org/Basic_Data_Structure/V2#AVAENTM>
	rdf:type bd:ADaMDatasetVariable ;
	isoC:label "Analysis End Time"^^xsd:string ;
	bd:rule ""^^xsd:string ;
	bd:ordinal "32"^^xsd:positiveInteger ;
	bd:name "AENTM"^^xsd:string ;
	bd:notes "The end time associated with AVAL and/or AVALC. See also ASTTM."^^xsd:string ;
	bd:ct ""^^xsd:string ;
	bd:ctNotes ""^^xsd:string ;
	bd:typedAs <http://www.assero.co.uk/CSN#8b16536d-2667-4282-86b4-8724a00b8f9f> ;
.
<http://www.cdisc.org/Basic_Data_Structure/V2#AVAENDTM>
	rdf:type bd:ADaMDatasetVariable ;
	isoC:label "Analysis End Datetime"^^xsd:string ;
	bd:rule ""^^xsd:string ;
	bd:ordinal "33"^^xsd:positiveInteger ;
	bd:name "AENDTM"^^xsd:string ;
	bd:notes "The end datetime associated with AVAL and/or AVALC. See also ASTDTM."^^xsd:string ;
	bd:ct ""^^xsd:string ;
	bd:ctNotes ""^^xsd:string ;
	bd:typedAs <http://www.assero.co.uk/CSN#8b16536d-2667-4282-86b4-8724a00b8f9f> ;
.
<http://www.cdisc.org/Basic_Data_Structure/V2#AVAENDY>
	rdf:type bd:ADaMDatasetVariable ;
	isoC:label "Analysis End Relative Day"^^xsd:string ;
	bd:rule ""^^xsd:string ;
	bd:ordinal "34"^^xsd:positiveInteger ;
	bd:name "AENDY"^^xsd:string ;
	bd:notes "The number of days from an anchor date (not necessarily DM.RFSTDTC) to AENDT. See Section 3.1.2."^^xsd:string ;
	bd:ct ""^^xsd:string ;
	bd:ctNotes ""^^xsd:string ;
	bd:typedAs <http://www.assero.co.uk/CSN#8b16536d-2667-4282-86b4-8724a00b8f9f> ;
.
<http://www.cdisc.org/Basic_Data_Structure/V2#AVAENDTF>
	rdf:type bd:ADaMDatasetVariable ;
	isoC:label "Analysis End Date Imputation Flag"^^xsd:string ;
	bd:rule ""^^xsd:string ;
	bd:ordinal "35"^^xsd:positiveInteger ;
	bd:name "AENDTF"^^xsd:string ;
	bd:notes "The level of imputation of analysis end date. If AENDT (or the date part of AENDTM) was imputed, AENDTF must be populated and is required. See Section 3.1.3."^^xsd:string ;
	bd:ct "DATEFL"^^xsd:string ;
	bd:ctNotes ""^^xsd:string ;
	bd:typedAs <http://www.assero.co.uk/CSN#f9caeead-091c-442a-acdf-6f56a64c4dff> ;
.
<http://www.cdisc.org/Basic_Data_Structure/V2#AVAENTMF>
	rdf:type bd:ADaMDatasetVariable ;
	isoC:label "Analysis End Time Imputation Flag"^^xsd:string ;
	bd:rule ""^^xsd:string ;
	bd:ordinal "36"^^xsd:positiveInteger ;
	bd:name "AENTMF"^^xsd:string ;
	bd:notes "The level of imputation of analysis end time. If AENTM (or the time part of AENDTM) was imputed, AENTMF must be populated and is required. See Section 3.1.3."^^xsd:string ;
	bd:ct "TIMEFL"^^xsd:string ;
	bd:ctNotes ""^^xsd:string ;
	bd:typedAs <http://www.assero.co.uk/CSN#f9caeead-091c-442a-acdf-6f56a64c4dff> ;
.
<http://www.cdisc.org/Basic_Data_Structure/V2#AVAVISIT>
	rdf:type bd:ADaMDatasetVariable ;
	isoC:label "Analysis Visit"^^xsd:string ;
	bd:rule ""^^xsd:string ;
	bd:ordinal "37"^^xsd:positiveInteger ;
	bd:name "AVISIT"^^xsd:string ;
	bd:notes "The analysis visit description; required if an analysis is done by nominal, assigned or analysis visit. AVISIT may contain the visit names as observed (i.e., from SDTM VISIT), derived visit names, time window names, conceptual descriptions (such as Average, Endpoint, etc.), or a combination of any of these. AVISIT is a derived field and does not have to map to VISIT from the SDTM. AVISIT represents the analysis visit of the record, but it does not mean that the record was analyzed. There are often multiple records for the same subject and parameter that have the same value of AVISIT. ANLzzFL and other variables may be needed to identify the records selected for any given analysis. See Section 3.3.8 for information about flag variables. AVISIT should be unique for a given analysis visit window. In the event that a record does not fall within any predefined analysis timepoint window, AVISIT can be populated in any way that the producer chooses to indicate this fact (i.e., blank or \"Not Windowed\"). The way that AVISIT is calculated, including the variables used in its derivation, should be indicated in the variable metadata for AVISIT. The values and the rules for deriving AVISIT may be different for different parameters within the same dataset. Values of AVISIT are producer-defined, and are often directly usable in Clinical Study Report displays."^^xsd:string ;
	bd:ct ""^^xsd:string ;
	bd:ctNotes ""^^xsd:string ;
	bd:typedAs <http://www.assero.co.uk/CSN#f9caeead-091c-442a-acdf-6f56a64c4dff> ;
.
<http://www.cdisc.org/Basic_Data_Structure/V2#AVAVISITN>
	rdf:type bd:ADaMDatasetVariable ;
	isoC:label "Analysis Visit (N)"^^xsd:string ;
	bd:rule ""^^xsd:string ;
	bd:ordinal "38"^^xsd:positiveInteger ;
	bd:name "AVISITN"^^xsd:string ;
	bd:notes "A numeric representation of AVISIT. Since study visits are usually defined by certain timepoints, defining AVISITN so that it represents the timepoint associated with the visit can facilitate plotting and interpretation of the values. Alternatively, AVISITN may be a protocol visit number, a cycle number, an analysis visit number, or any other number logically related to AVISIT or useful for sorting that is needed for analysis.\n\nWithin a parameter, there is a one-to-one mapping between AVISITN and AVISIT so that AVISITN has the same value for each distinct AVISIT. (Best practice would dictate that the mapping would be one-to-one within a study, but that is not an ADaM requirement.) In the event that a record does not fall within any predefined analysis timepoint window, AVISITN can be populated in any way that the producer chooses to indicate this fact (e.g., may be null). Values of AVISITN are producer-defined."^^xsd:string ;
	bd:ct ""^^xsd:string ;
	bd:ctNotes ""^^xsd:string ;
	bd:typedAs <http://www.assero.co.uk/CSN#8b16536d-2667-4282-86b4-8724a00b8f9f> ;
.
<http://www.cdisc.org/Basic_Data_Structure/V2#AVATPT>
	rdf:type bd:ADaMDatasetVariable ;
	isoC:label "Analysis Timepoint"^^xsd:string ;
	bd:rule ""^^xsd:string ;
	bd:ordinal "39"^^xsd:positiveInteger ;
	bd:name "ATPT"^^xsd:string ;
	bd:notes "The analysis timepoint description; required if an analysis is done by nominal, assigned or analysis timepoint (instead of or in addition to by-visit). Timepoints are relative to ATPTREF. ATPT may contain the timepoint names as observed (i.e., from SDTM --TPT), derived timepoint names, time window names, conceptual descriptions (such as Average, Endpoint, etc.), or a combination of any of these. This variable is often used in conjunction with AVISIT. ATPT represents the analysis timepoint of the record. \nATPT can be within an analysis visit (e.g., blood pressure assessments at 10 min, 20 min, and 30 min post-dose at AVISIT=Week 1) or can be unrelated to AVISIT (e.g., migraine symptoms 30 min, 60 min, and 120 min post-dose for attack 1).\n\nThe way that ATPT is calculated, including the variables used in its derivation, should be indicated in the variable metadata for ATPT. The values and the rules for deriving ATPT may be different for different parameters within the same dataset. Values of ATPT are producer-defined, and are often directly usable in Clinical Study Report displays."^^xsd:string ;
	bd:ct ""^^xsd:string ;
	bd:ctNotes ""^^xsd:string ;
	bd:typedAs <http://www.assero.co.uk/CSN#f9caeead-091c-442a-acdf-6f56a64c4dff> ;
.
<http://www.cdisc.org/Basic_Data_Structure/V2#AVATPTN>
	rdf:type bd:ADaMDatasetVariable ;
	isoC:label "Analysis Timepoint (N)"^^xsd:string ;
	bd:rule ""^^xsd:string ;
	bd:ordinal "40"^^xsd:positiveInteger ;
	bd:name "ATPTN"^^xsd:string ;
	bd:notes "ATPTN provides a numeric representation of ATPT. Defining ATPTN so that its values represent the planned timepoints (e.g., minutes or hours after dosing) is not required but can facilitate plotting and interpretation of the values. Within the same parameter, there is a one-to-one mapping between ATPT and ATPTN. (Best practice would dictate that the mapping would be one-to-one within a study, but that is not an ADaM requirement.)"^^xsd:string ;
	bd:ct ""^^xsd:string ;
	bd:ctNotes ""^^xsd:string ;
	bd:typedAs <http://www.assero.co.uk/CSN#8b16536d-2667-4282-86b4-8724a00b8f9f> ;
.
<http://www.cdisc.org/Basic_Data_Structure/V2#AVATPTREF>
	rdf:type bd:ADaMDatasetVariable ;
	isoC:label "Analysis Timepoint Reference"^^xsd:string ;
	bd:rule ""^^xsd:string ;
	bd:ordinal "41"^^xsd:positiveInteger ;
	bd:name "ATPTREF"^^xsd:string ;
	bd:notes "Description of the fixed reference point referred to by ATPT/ATPTN (e.g., time of dose)."^^xsd:string ;
	bd:ct ""^^xsd:string ;
	bd:ctNotes ""^^xsd:string ;
	bd:typedAs <http://www.assero.co.uk/CSN#f9caeead-091c-442a-acdf-6f56a64c4dff> ;
.
<http://www.cdisc.org/Basic_Data_Structure/V2#AVAPHASE>
	rdf:type bd:ADaMDatasetVariable ;
	isoC:label "Phase"^^xsd:string ;
	bd:rule ""^^xsd:string ;
	bd:ordinal "42"^^xsd:positiveInteger ;
	bd:name "APHASE"^^xsd:string ;
	bd:notes "APHASE is a categorization of timing within a study, for example a higher-level categorization of APERIOD or an analysis epoch. For example, APHASE could describe spans of time for SCREENING, ON TREATMENT, and FOLLOW-UP."^^xsd:string ;
	bd:ct ""^^xsd:string ;
	bd:ctNotes ""^^xsd:string ;
	bd:typedAs <http://www.assero.co.uk/CSN#f9caeead-091c-442a-acdf-6f56a64c4dff> ;
.
<http://www.cdisc.org/Basic_Data_Structure/V2#AVAPHASEN>
	rdf:type bd:ADaMDatasetVariable ;
	isoC:label "Phase (N)"^^xsd:string ;
	bd:rule ""^^xsd:string ;
	bd:ordinal "43"^^xsd:positiveInteger ;
	bd:name "APHASEN"^^xsd:string ;
	bd:notes "APHASEN provides a numeric representation of APHASE. Within a study, there is a one-to-one mapping between APHASE and APHASEN."^^xsd:string ;
	bd:ct ""^^xsd:string ;
	bd:ctNotes ""^^xsd:string ;
	bd:typedAs <http://www.assero.co.uk/CSN#8b16536d-2667-4282-86b4-8724a00b8f9f> ;
.
<http://www.cdisc.org/Basic_Data_Structure/V2#AVAPERIOD>
	rdf:type bd:ADaMDatasetVariable ;
	isoC:label "Period"^^xsd:string ;
	bd:rule ""^^xsd:string ;
	bd:ordinal "44"^^xsd:positiveInteger ;
	bd:name "APERIOD"^^xsd:string ;
	bd:notes "APERIOD is a record-level timing variable that represents the analysis period within the study associated with the record for analysis purposes. The value of APERIOD (if populated) must be one of the xx values found in the ADSL TRTxxP variables."^^xsd:string ;
	bd:ct ""^^xsd:string ;
	bd:ctNotes ""^^xsd:string ;
	bd:typedAs <http://www.assero.co.uk/CSN#8b16536d-2667-4282-86b4-8724a00b8f9f> ;
.
<http://www.cdisc.org/Basic_Data_Structure/V2#AVAPERIODC>
	rdf:type bd:ADaMDatasetVariable ;
	isoC:label "Period (C)"^^xsd:string ;
	bd:rule ""^^xsd:string ;
	bd:ordinal "45"^^xsd:positiveInteger ;
	bd:name "APERIODC"^^xsd:string ;
	bd:notes "Text characterizing to which analysis period the record belongs. One-to-one mapping within a dataset to APERIOD."^^xsd:string ;
	bd:ct ""^^xsd:string ;
	bd:ctNotes ""^^xsd:string ;
	bd:typedAs <http://www.assero.co.uk/CSN#f9caeead-091c-442a-acdf-6f56a64c4dff> ;
.
<http://www.cdisc.org/Basic_Data_Structure/V2#AVASPER>
	rdf:type bd:ADaMDatasetVariable ;
	isoC:label "Subperiod within Period"^^xsd:string ;
	bd:rule ""^^xsd:string ;
	bd:ordinal "46"^^xsd:positiveInteger ;
	bd:name "ASPER"^^xsd:string ;
	bd:notes "The numeric value characterizing a sublevel within APERIOD to which the record belongs. Within each APERIOD, the first ASPER is 1 (i.e., it resets to 1 when the APERIOD value changes)."^^xsd:string ;
	bd:ct ""^^xsd:string ;
	bd:ctNotes ""^^xsd:string ;
	bd:typedAs <http://www.assero.co.uk/CSN#8b16536d-2667-4282-86b4-8724a00b8f9f> ;
.
<http://www.cdisc.org/Basic_Data_Structure/V2#AVASPERC>
	rdf:type bd:ADaMDatasetVariable ;
	isoC:label "Subperiod within Period (C)"^^xsd:string ;
	bd:rule ""^^xsd:string ;
	bd:ordinal "47"^^xsd:positiveInteger ;
	bd:name "ASPERC"^^xsd:string ;
	bd:notes "Text characterizing to which subperiod the record belongs. One-to-one mapping within a period to ASPER."^^xsd:string ;
	bd:ct ""^^xsd:string ;
	bd:ctNotes ""^^xsd:string ;
	bd:typedAs <http://www.assero.co.uk/CSN#f9caeead-091c-442a-acdf-6f56a64c4dff> ;
.
<http://www.cdisc.org/Basic_Data_Structure/V2#AVARELTM>
	rdf:type bd:ADaMDatasetVariable ;
	isoC:label "Analysis Relative Time"^^xsd:string ;
	bd:rule ""^^xsd:string ;
	bd:ordinal "48"^^xsd:positiveInteger ;
	bd:name "ARELTM"^^xsd:string ;
	bd:notes "The time relative to an anchor time. The amount of time from an anchor time to ATM. When ARELTM is present, the anchor time variable and ARELTMU must also be included in the dataset, and the anchor time variable must be identified in the metadata for ARELTM."^^xsd:string ;
	bd:ct ""^^xsd:string ;
	bd:ctNotes ""^^xsd:string ;
	bd:typedAs <http://www.assero.co.uk/CSN#8b16536d-2667-4282-86b4-8724a00b8f9f> ;
.
<http://www.cdisc.org/Basic_Data_Structure/V2#AVARELTMU>
	rdf:type bd:ADaMDatasetVariable ;
	isoC:label "Analysis Relative Time Unit"^^xsd:string ;
	bd:rule ""^^xsd:string ;
	bd:ordinal "49"^^xsd:positiveInteger ;
	bd:name "ARELTMU"^^xsd:string ;
	bd:notes "The units of ARELTM. For example, \"HOURS\" or \"MINUTES.\" ARELTMU is required if ARELTM is present."^^xsd:string ;
	bd:ct ""^^xsd:string ;
	bd:ctNotes ""^^xsd:string ;
	bd:typedAs <http://www.assero.co.uk/CSN#f9caeead-091c-442a-acdf-6f56a64c4dff> ;
.
<http://www.cdisc.org/Basic_Data_Structure/V2#AVAPERSDT>
	rdf:type bd:ADaMDatasetVariable ;
	isoC:label "Period Start Date"^^xsd:string ;
	bd:rule ""^^xsd:string ;
	bd:ordinal "50"^^xsd:positiveInteger ;
	bd:name "APERSDT"^^xsd:string ;
	bd:notes "The starting date for the period defined by APERIOD."^^xsd:string ;
	bd:ct ""^^xsd:string ;
	bd:ctNotes ""^^xsd:string ;
	bd:typedAs <http://www.assero.co.uk/CSN#8b16536d-2667-4282-86b4-8724a00b8f9f> ;
.
<http://www.cdisc.org/Basic_Data_Structure/V2#AVAPERSTM>
	rdf:type bd:ADaMDatasetVariable ;
	isoC:label "Period Start Time"^^xsd:string ;
	bd:rule ""^^xsd:string ;
	bd:ordinal "51"^^xsd:positiveInteger ;
	bd:name "APERSTM"^^xsd:string ;
	bd:notes "The starting time for the period defined by APERIOD."^^xsd:string ;
	bd:ct ""^^xsd:string ;
	bd:ctNotes ""^^xsd:string ;
	bd:typedAs <http://www.assero.co.uk/CSN#8b16536d-2667-4282-86b4-8724a00b8f9f> ;
.
<http://www.cdisc.org/Basic_Data_Structure/V2#AVAPERSDTM>
	rdf:type bd:ADaMDatasetVariable ;
	isoC:label "Period Start Datetime"^^xsd:string ;
	bd:rule ""^^xsd:string ;
	bd:ordinal "52"^^xsd:positiveInteger ;
	bd:name "APERSDTM"^^xsd:string ;
	bd:notes "The starting datetime for the period defined by APERIOD."^^xsd:string ;
	bd:ct ""^^xsd:string ;
	bd:ctNotes ""^^xsd:string ;
	bd:typedAs <http://www.assero.co.uk/CSN#8b16536d-2667-4282-86b4-8724a00b8f9f> ;
.
<http://www.cdisc.org/Basic_Data_Structure/V2#AVAPERSDTF>
	rdf:type bd:ADaMDatasetVariable ;
	isoC:label "Period Start Date Imput. Flag"^^xsd:string ;
	bd:rule ""^^xsd:string ;
	bd:ordinal "53"^^xsd:positiveInteger ;
	bd:name "APERSDTF"^^xsd:string ;
	bd:notes "The level of imputation of period start date. If APERSDT (or the date part of APERSDTM) was imputed, APERSDTF must be populated and is required. See Section 3.1.3."^^xsd:string ;
	bd:ct "DATEFL"^^xsd:string ;
	bd:ctNotes ""^^xsd:string ;
	bd:typedAs <http://www.assero.co.uk/CSN#f9caeead-091c-442a-acdf-6f56a64c4dff> ;
.
<http://www.cdisc.org/Basic_Data_Structure/V2#AVAPERSTMF>
	rdf:type bd:ADaMDatasetVariable ;
	isoC:label "Period Start Time Imput. Flag"^^xsd:string ;
	bd:rule ""^^xsd:string ;
	bd:ordinal "54"^^xsd:positiveInteger ;
	bd:name "APERSTMF"^^xsd:string ;
	bd:notes "The level of imputation of period start time. If APERSTM (or the time part of APERSDTM) was imputed, APERSTMF must be populated and is required. See Section 3.1.3."^^xsd:string ;
	bd:ct "TIMEFL"^^xsd:string ;
	bd:ctNotes ""^^xsd:string ;
	bd:typedAs <http://www.assero.co.uk/CSN#f9caeead-091c-442a-acdf-6f56a64c4dff> ;
.
<http://www.cdisc.org/Basic_Data_Structure/V2#AVAPEREDT>
	rdf:type bd:ADaMDatasetVariable ;
	isoC:label "Period End Date"^^xsd:string ;
	bd:rule ""^^xsd:string ;
	bd:ordinal "55"^^xsd:positiveInteger ;
	bd:name "APEREDT"^^xsd:string ;
	bd:notes "The ending date for the period defined by APERIOD."^^xsd:string ;
	bd:ct ""^^xsd:string ;
	bd:ctNotes ""^^xsd:string ;
	bd:typedAs <http://www.assero.co.uk/CSN#8b16536d-2667-4282-86b4-8724a00b8f9f> ;
.
<http://www.cdisc.org/Basic_Data_Structure/V2#AVAPERETM>
	rdf:type bd:ADaMDatasetVariable ;
	isoC:label "Period End Time"^^xsd:string ;
	bd:rule ""^^xsd:string ;
	bd:ordinal "56"^^xsd:positiveInteger ;
	bd:name "APERETM"^^xsd:string ;
	bd:notes "The ending time for the period defined by APERIOD."^^xsd:string ;
	bd:ct ""^^xsd:string ;
	bd:ctNotes ""^^xsd:string ;
	bd:typedAs <http://www.assero.co.uk/CSN#8b16536d-2667-4282-86b4-8724a00b8f9f> ;
.
<http://www.cdisc.org/Basic_Data_Structure/V2#AVAPEREDTM>
	rdf:type bd:ADaMDatasetVariable ;
	isoC:label "Period End Datetime"^^xsd:string ;
	bd:rule ""^^xsd:string ;
	bd:ordinal "57"^^xsd:positiveInteger ;
	bd:name "APEREDTM"^^xsd:string ;
	bd:notes "The ending datetime for the period defined by APERIOD."^^xsd:string ;
	bd:ct ""^^xsd:string ;
	bd:ctNotes ""^^xsd:string ;
	bd:typedAs <http://www.assero.co.uk/CSN#8b16536d-2667-4282-86b4-8724a00b8f9f> ;
.
<http://www.cdisc.org/Basic_Data_Structure/V2#AVAPEREDTF>
	rdf:type bd:ADaMDatasetVariable ;
	isoC:label "Period End Date Imput. Flag"^^xsd:string ;
	bd:rule ""^^xsd:string ;
	bd:ordinal "58"^^xsd:positiveInteger ;
	bd:name "APEREDTF"^^xsd:string ;
	bd:notes "The level of imputation of period end date. If APEREDT (or the date part of APEREDTM) was imputed, APEREDTF must be populated and is required. See Section 3.1.3."^^xsd:string ;
	bd:ct "DATEFL"^^xsd:string ;
	bd:ctNotes ""^^xsd:string ;
	bd:typedAs <http://www.assero.co.uk/CSN#f9caeead-091c-442a-acdf-6f56a64c4dff> ;
.
<http://www.cdisc.org/Basic_Data_Structure/V2#AVAPERETMF>
	rdf:type bd:ADaMDatasetVariable ;
	isoC:label "Period End Time Imput. Flag"^^xsd:string ;
	bd:rule ""^^xsd:string ;
	bd:ordinal "59"^^xsd:positiveInteger ;
	bd:name "APERETMF"^^xsd:string ;
	bd:notes "The level of imputation of period end time. If APERETM (or the time part of APEREDTM) was imputed, APERETMF must be populated and is required. See Section 3.1.3."^^xsd:string ;
	bd:ct "TIMEFL"^^xsd:string ;
	bd:ctNotes ""^^xsd:string ;
	bd:typedAs <http://www.assero.co.uk/CSN#f9caeead-091c-442a-acdf-6f56a64c4dff> ;
.
<http://www.cdisc.org/Basic_Data_Structure/V2#AVASPRSDT>
	rdf:type bd:ADaMDatasetVariable ;
	isoC:label "Subperiod Start Date"^^xsd:string ;
	bd:rule ""^^xsd:string ;
	bd:ordinal "60"^^xsd:positiveInteger ;
	bd:name "ASPRSDT"^^xsd:string ;
	bd:notes "The starting date for the subperiod defined by ASPER."^^xsd:string ;
	bd:ct ""^^xsd:string ;
	bd:ctNotes ""^^xsd:string ;
	bd:typedAs <http://www.assero.co.uk/CSN#8b16536d-2667-4282-86b4-8724a00b8f9f> ;
.
<http://www.cdisc.org/Basic_Data_Structure/V2#AVASPRSTM>
	rdf:type bd:ADaMDatasetVariable ;
	isoC:label "Subperiod Start Time"^^xsd:string ;
	bd:rule ""^^xsd:string ;
	bd:ordinal "61"^^xsd:positiveInteger ;
	bd:name "ASPRSTM"^^xsd:string ;
	bd:notes "The starting time for the subperiod defined by ASPER."^^xsd:string ;
	bd:ct ""^^xsd:string ;
	bd:ctNotes ""^^xsd:string ;
	bd:typedAs <http://www.assero.co.uk/CSN#8b16536d-2667-4282-86b4-8724a00b8f9f> ;
.
<http://www.cdisc.org/Basic_Data_Structure/V2#AVASPRSDTM>
	rdf:type bd:ADaMDatasetVariable ;
	isoC:label "Subperiod Start Datetime"^^xsd:string ;
	bd:rule ""^^xsd:string ;
	bd:ordinal "62"^^xsd:positiveInteger ;
	bd:name "ASPRSDTM"^^xsd:string ;
	bd:notes "The starting datetime for the subperiod defined by ASPER."^^xsd:string ;
	bd:ct ""^^xsd:string ;
	bd:ctNotes ""^^xsd:string ;
	bd:typedAs <http://www.assero.co.uk/CSN#8b16536d-2667-4282-86b4-8724a00b8f9f> ;
.
<http://www.cdisc.org/Basic_Data_Structure/V2#AVASPRSDTF>
	rdf:type bd:ADaMDatasetVariable ;
	isoC:label "Subperiod Start Date Imput. Flag"^^xsd:string ;
	bd:rule ""^^xsd:string ;
	bd:ordinal "63"^^xsd:positiveInteger ;
	bd:name "ASPRSDTF"^^xsd:string ;
	bd:notes "The level of imputation of subperiod start date. If ASPRSDT (or the date part of ASPRSDTM) was imputed, ASPRSDTF must be populated and is required. See Section 3.1.3."^^xsd:string ;
	bd:ct "DATEFL"^^xsd:string ;
	bd:ctNotes ""^^xsd:string ;
	bd:typedAs <http://www.assero.co.uk/CSN#f9caeead-091c-442a-acdf-6f56a64c4dff> ;
.
<http://www.cdisc.org/Basic_Data_Structure/V2#AVASPRSTMF>
	rdf:type bd:ADaMDatasetVariable ;
	isoC:label "Subperiod Start Time Imput. Flag"^^xsd:string ;
	bd:rule ""^^xsd:string ;
	bd:ordinal "64"^^xsd:positiveInteger ;
	bd:name "ASPRSTMF"^^xsd:string ;
	bd:notes "The level of imputation of subperiod start time. If ASPRSTM (or the time part of ASPRSDTM) was imputed, ASPRSTMF must be populated and is required. See Section 3.1.3."^^xsd:string ;
	bd:ct "TIMEFL"^^xsd:string ;
	bd:ctNotes ""^^xsd:string ;
	bd:typedAs <http://www.assero.co.uk/CSN#f9caeead-091c-442a-acdf-6f56a64c4dff> ;
.
<http://www.cdisc.org/Basic_Data_Structure/V2#AVASPREDT>
	rdf:type bd:ADaMDatasetVariable ;
	isoC:label "Subperiod End Date"^^xsd:string ;
	bd:rule ""^^xsd:string ;
	bd:ordinal "65"^^xsd:positiveInteger ;
	bd:name "ASPREDT"^^xsd:string ;
	bd:notes "The ending date for the subperiod defined by ASPER."^^xsd:string ;
	bd:ct ""^^xsd:string ;
	bd:ctNotes ""^^xsd:string ;
	bd:typedAs <http://www.assero.co.uk/CSN#8b16536d-2667-4282-86b4-8724a00b8f9f> ;
.
<http://www.cdisc.org/Basic_Data_Structure/V2#AVASPRETM>
	rdf:type bd:ADaMDatasetVariable ;
	isoC:label "Subperiod End Time"^^xsd:string ;
	bd:rule ""^^xsd:string ;
	bd:ordinal "66"^^xsd:positiveInteger ;
	bd:name "ASPRETM"^^xsd:string ;
	bd:notes "The ending time for the subperiod defined by ASPER."^^xsd:string ;
	bd:ct ""^^xsd:string ;
	bd:ctNotes ""^^xsd:string ;
	bd:typedAs <http://www.assero.co.uk/CSN#8b16536d-2667-4282-86b4-8724a00b8f9f> ;
.
<http://www.cdisc.org/Basic_Data_Structure/V2#AVASPREDTM>
	rdf:type bd:ADaMDatasetVariable ;
	isoC:label "Subperiod End Datetime"^^xsd:string ;
	bd:rule ""^^xsd:string ;
	bd:ordinal "67"^^xsd:positiveInteger ;
	bd:name "ASPREDTM"^^xsd:string ;
	bd:notes "The ending datetime for the subperiod defined by ASPER."^^xsd:string ;
	bd:ct ""^^xsd:string ;
	bd:ctNotes ""^^xsd:string ;
	bd:typedAs <http://www.assero.co.uk/CSN#8b16536d-2667-4282-86b4-8724a00b8f9f> ;
.
<http://www.cdisc.org/Basic_Data_Structure/V2#AVASPREDTF>
	rdf:type bd:ADaMDatasetVariable ;
	isoC:label "Subperiod End Date Imput. Flag"^^xsd:string ;
	bd:rule ""^^xsd:string ;
	bd:ordinal "68"^^xsd:positiveInteger ;
	bd:name "ASPREDTF"^^xsd:string ;
	bd:notes "The level of imputation of subperiod end date. If ASPREDT (or the date part of ASPREDTM) was imputed, ASPREDTF must be populated and is required. See Section 3.1.3."^^xsd:string ;
	bd:ct "DATEFL"^^xsd:string ;
	bd:ctNotes ""^^xsd:string ;
	bd:typedAs <http://www.assero.co.uk/CSN#f9caeead-091c-442a-acdf-6f56a64c4dff> ;
.
<http://www.cdisc.org/Basic_Data_Structure/V2#AVASPRETMF>
	rdf:type bd:ADaMDatasetVariable ;
	isoC:label "Subperiod End Time Imput. Flag"^^xsd:string ;
	bd:rule ""^^xsd:string ;
	bd:ordinal "69"^^xsd:positiveInteger ;
	bd:name "ASPRETMF"^^xsd:string ;
	bd:notes "The level of imputation of subperiod end time. If ASPRETM (or the time part of ASPREDTM) was imputed, ASPRETMF must be populated and is required. See Section 3.1.3."^^xsd:string ;
	bd:ct "TIMEFL"^^xsd:string ;
	bd:ctNotes ""^^xsd:string ;
	bd:typedAs <http://www.assero.co.uk/CSN#f9caeead-091c-442a-acdf-6f56a64c4dff> ;
.
<http://www.cdisc.org/Basic_Data_Structure/V2#AVPHSDT>
	rdf:type bd:ADaMDatasetVariable ;
	isoC:label "Phase Start Date"^^xsd:string ;
	bd:rule ""^^xsd:string ;
	bd:ordinal "70"^^xsd:positiveInteger ;
	bd:name "PHSDT"^^xsd:string ;
	bd:notes "The starting date for the phase defined by APHASE."^^xsd:string ;
	bd:ct ""^^xsd:string ;
	bd:ctNotes ""^^xsd:string ;
	bd:typedAs <http://www.assero.co.uk/CSN#8b16536d-2667-4282-86b4-8724a00b8f9f> ;
.
<http://www.cdisc.org/Basic_Data_Structure/V2#AVPHSTM>
	rdf:type bd:ADaMDatasetVariable ;
	isoC:label "Phase Start Time"^^xsd:string ;
	bd:rule ""^^xsd:string ;
	bd:ordinal "71"^^xsd:positiveInteger ;
	bd:name "PHSTM"^^xsd:string ;
	bd:notes "The starting time for the phase defined by APHASE."^^xsd:string ;
	bd:ct ""^^xsd:string ;
	bd:ctNotes ""^^xsd:string ;
	bd:typedAs <http://www.assero.co.uk/CSN#8b16536d-2667-4282-86b4-8724a00b8f9f> ;
.
<http://www.cdisc.org/Basic_Data_Structure/V2#AVPHSDTM>
	rdf:type bd:ADaMDatasetVariable ;
	isoC:label "Phase Start Datetime"^^xsd:string ;
	bd:rule ""^^xsd:string ;
	bd:ordinal "72"^^xsd:positiveInteger ;
	bd:name "PHSDTM"^^xsd:string ;
	bd:notes "The starting datetime for the phase defined by APHASE."^^xsd:string ;
	bd:ct ""^^xsd:string ;
	bd:ctNotes ""^^xsd:string ;
	bd:typedAs <http://www.assero.co.uk/CSN#8b16536d-2667-4282-86b4-8724a00b8f9f> ;
.
<http://www.cdisc.org/Basic_Data_Structure/V2#AVPHSDTF>
	rdf:type bd:ADaMDatasetVariable ;
	isoC:label "Phase Start Date Imput. Flag"^^xsd:string ;
	bd:rule ""^^xsd:string ;
	bd:ordinal "73"^^xsd:positiveInteger ;
	bd:name "PHSDTF"^^xsd:string ;
	bd:notes "The level of imputation of phase start date. If PHSDT (or the date part of PHSDTM) was imputed, PHSDTF must be populated and is required. See Section 3.1.3."^^xsd:string ;
	bd:ct "DATEFL"^^xsd:string ;
	bd:ctNotes ""^^xsd:string ;
	bd:typedAs <http://www.assero.co.uk/CSN#f9caeead-091c-442a-acdf-6f56a64c4dff> ;
.
<http://www.cdisc.org/Basic_Data_Structure/V2#AVPHSTMF>
	rdf:type bd:ADaMDatasetVariable ;
	isoC:label "Phase Start Time Imput. Flag"^^xsd:string ;
	bd:rule ""^^xsd:string ;
	bd:ordinal "74"^^xsd:positiveInteger ;
	bd:name "PHSTMF"^^xsd:string ;
	bd:notes "The level of imputation of phase start time. If PHSTM (or the time part of PHSDTM) was imputed, PHSTMF must be populated and is required. See Section 3.1.3."^^xsd:string ;
	bd:ct "TIMEFL"^^xsd:string ;
	bd:ctNotes ""^^xsd:string ;
	bd:typedAs <http://www.assero.co.uk/CSN#f9caeead-091c-442a-acdf-6f56a64c4dff> ;
.
<http://www.cdisc.org/Basic_Data_Structure/V2#AVPHEDT>
	rdf:type bd:ADaMDatasetVariable ;
	isoC:label "Phase End Date"^^xsd:string ;
	bd:rule ""^^xsd:string ;
	bd:ordinal "75"^^xsd:positiveInteger ;
	bd:name "PHEDT"^^xsd:string ;
	bd:notes "The ending date for the phase defined by APHASE."^^xsd:string ;
	bd:ct ""^^xsd:string ;
	bd:ctNotes ""^^xsd:string ;
	bd:typedAs <http://www.assero.co.uk/CSN#8b16536d-2667-4282-86b4-8724a00b8f9f> ;
.
<http://www.cdisc.org/Basic_Data_Structure/V2#AVPHETM>
	rdf:type bd:ADaMDatasetVariable ;
	isoC:label "Phase End Time"^^xsd:string ;
	bd:rule ""^^xsd:string ;
	bd:ordinal "76"^^xsd:positiveInteger ;
	bd:name "PHETM"^^xsd:string ;
	bd:notes "The ending time for the phase defined by APHASE."^^xsd:string ;
	bd:ct ""^^xsd:string ;
	bd:ctNotes ""^^xsd:string ;
	bd:typedAs <http://www.assero.co.uk/CSN#8b16536d-2667-4282-86b4-8724a00b8f9f> ;
.
<http://www.cdisc.org/Basic_Data_Structure/V2#AVPHEDTM>
	rdf:type bd:ADaMDatasetVariable ;
	isoC:label "Phase End Datetime"^^xsd:string ;
	bd:rule ""^^xsd:string ;
	bd:ordinal "77"^^xsd:positiveInteger ;
	bd:name "PHEDTM"^^xsd:string ;
	bd:notes "The ending datetime for the phase defined by APHASE."^^xsd:string ;
	bd:ct ""^^xsd:string ;
	bd:ctNotes ""^^xsd:string ;
	bd:typedAs <http://www.assero.co.uk/CSN#8b16536d-2667-4282-86b4-8724a00b8f9f> ;
.
<http://www.cdisc.org/Basic_Data_Structure/V2#AVPHEDTF>
	rdf:type bd:ADaMDatasetVariable ;
	isoC:label "Phase End Date Imput. Flag"^^xsd:string ;
	bd:rule ""^^xsd:string ;
	bd:ordinal "78"^^xsd:positiveInteger ;
	bd:name "PHEDTF"^^xsd:string ;
	bd:notes "The level of imputation of phase end date. If PHEDT (or the date part of PHEDTM) was imputed, PHEDTF must be populated and is required. See Section 3.1.3."^^xsd:string ;
	bd:ct "DATEFL"^^xsd:string ;
	bd:ctNotes ""^^xsd:string ;
	bd:typedAs <http://www.assero.co.uk/CSN#f9caeead-091c-442a-acdf-6f56a64c4dff> ;
.
<http://www.cdisc.org/Basic_Data_Structure/V2#AVPHETMF>
	rdf:type bd:ADaMDatasetVariable ;
	isoC:label "Phase End Time Imput. Flag"^^xsd:string ;
	bd:rule ""^^xsd:string ;
	bd:ordinal "79"^^xsd:positiveInteger ;
	bd:name "PHETMF"^^xsd:string ;
	bd:notes "The level of imputation of phase end time. If PHETM (or the time part of PHEDTM) was imputed, PHETMF must be populated and is required. See Section 3.1.3."^^xsd:string ;
	bd:ct "TIMEFL"^^xsd:string ;
	bd:ctNotes ""^^xsd:string ;
	bd:typedAs <http://www.assero.co.uk/CSN#f9caeead-091c-442a-acdf-6f56a64c4dff> ;
.
<http://www.cdisc.org/Basic_Data_Structure/V2#AV*DT>
	rdf:type bd:ADaMDatasetVariable ;
	isoC:label "{Date}"^^xsd:string ;
	bd:rule ""^^xsd:string ;
	bd:ordinal "80"^^xsd:positiveInteger ;
	bd:name "*DT"^^xsd:string ;
	bd:notes "Analysis date not directly characterizing AVAL and/or AVALC in numeric format."^^xsd:string ;
	bd:ct ""^^xsd:string ;
	bd:ctNotes ""^^xsd:string ;
	bd:typedAs <http://www.assero.co.uk/CSN#8b16536d-2667-4282-86b4-8724a00b8f9f> ;
.
<http://www.cdisc.org/Basic_Data_Structure/V2#AV*TM>
	rdf:type bd:ADaMDatasetVariable ;
	isoC:label "{Time}"^^xsd:string ;
	bd:rule ""^^xsd:string ;
	bd:ordinal "81"^^xsd:positiveInteger ;
	bd:name "*TM"^^xsd:string ;
	bd:notes "Analysis time not directly characterizing AVAL and/or AVALC in numeric format."^^xsd:string ;
	bd:ct ""^^xsd:string ;
	bd:ctNotes ""^^xsd:string ;
	bd:typedAs <http://www.assero.co.uk/CSN#8b16536d-2667-4282-86b4-8724a00b8f9f> ;
.
<http://www.cdisc.org/Basic_Data_Structure/V2#AV*DTM>
	rdf:type bd:ADaMDatasetVariable ;
	isoC:label "{Datetime}"^^xsd:string ;
	bd:rule ""^^xsd:string ;
	bd:ordinal "82"^^xsd:positiveInteger ;
	bd:name "*DTM"^^xsd:string ;
	bd:notes "Analysis datetime not directly characterizing AVAL and/or AVALC in numeric format."^^xsd:string ;
	bd:ct ""^^xsd:string ;
	bd:ctNotes ""^^xsd:string ;
	bd:typedAs <http://www.assero.co.uk/CSN#8b16536d-2667-4282-86b4-8724a00b8f9f> ;
.
<http://www.cdisc.org/Basic_Data_Structure/V2#AV*ADY>
	rdf:type bd:ADaMDatasetVariable ;
	isoC:label "{Relative Day}"^^xsd:string ;
	bd:rule ""^^xsd:string ;
	bd:ordinal "83"^^xsd:positiveInteger ;
	bd:name "*ADY"^^xsd:string ;
	bd:notes "Analysis relative day not directly characterizing AVAL and/or AVALC."^^xsd:string ;
	bd:ct ""^^xsd:string ;
	bd:ctNotes ""^^xsd:string ;
	bd:typedAs <http://www.assero.co.uk/CSN#8b16536d-2667-4282-86b4-8724a00b8f9f> ;
.
<http://www.cdisc.org/Basic_Data_Structure/V2#AV*DTF>
	rdf:type bd:ADaMDatasetVariable ;
	isoC:label "{Date Imputation Flag}"^^xsd:string ;
	bd:rule ""^^xsd:string ;
	bd:ordinal "84"^^xsd:positiveInteger ;
	bd:name "*DTF"^^xsd:string ;
	bd:notes "The level of imputation of *DT. If *DT (or the date part of *DTM) was imputed, *DTF must be populated and is required. See Section 3.1.3."^^xsd:string ;
	bd:ct "DATEFL"^^xsd:string ;
	bd:ctNotes ""^^xsd:string ;
	bd:typedAs <http://www.assero.co.uk/CSN#f9caeead-091c-442a-acdf-6f56a64c4dff> ;
.
<http://www.cdisc.org/Basic_Data_Structure/V2#AV*TMF>
	rdf:type bd:ADaMDatasetVariable ;
	isoC:label "{Time Imputation Flag}"^^xsd:string ;
	bd:rule ""^^xsd:string ;
	bd:ordinal "85"^^xsd:positiveInteger ;
	bd:name "*TMF"^^xsd:string ;
	bd:notes "The level of imputation of *TM. If *TM (or the time part of *DTM) was imputed, *TMF must be populated and is required. See Section 3.1.3."^^xsd:string ;
	bd:ct "TIMEFL"^^xsd:string ;
	bd:ctNotes ""^^xsd:string ;
	bd:typedAs <http://www.assero.co.uk/CSN#f9caeead-091c-442a-acdf-6f56a64c4dff> ;
.
<http://www.cdisc.org/Basic_Data_Structure/V2#AV*SDT>
	rdf:type bd:ADaMDatasetVariable ;
	isoC:label "{Start Date}"^^xsd:string ;
	bd:rule ""^^xsd:string ;
	bd:ordinal "86"^^xsd:positiveInteger ;
	bd:name "*SDT"^^xsd:string ;
	bd:notes "Starting analysis date not directly characterizing AVAL and/or AVALC in numeric format."^^xsd:string ;
	bd:ct ""^^xsd:string ;
	bd:ctNotes ""^^xsd:string ;
	bd:typedAs <http://www.assero.co.uk/CSN#8b16536d-2667-4282-86b4-8724a00b8f9f> ;
.
<http://www.cdisc.org/Basic_Data_Structure/V2#AV*STM>
	rdf:type bd:ADaMDatasetVariable ;
	isoC:label "{Start Time}"^^xsd:string ;
	bd:rule ""^^xsd:string ;
	bd:ordinal "87"^^xsd:positiveInteger ;
	bd:name "*STM"^^xsd:string ;
	bd:notes "Starting analysis time not directly characterizing AVAL and/or AVALC in numeric format."^^xsd:string ;
	bd:ct ""^^xsd:string ;
	bd:ctNotes ""^^xsd:string ;
	bd:typedAs <http://www.assero.co.uk/CSN#8b16536d-2667-4282-86b4-8724a00b8f9f> ;
.
<http://www.cdisc.org/Basic_Data_Structure/V2#AV*SDTM>
	rdf:type bd:ADaMDatasetVariable ;
	isoC:label "{Start Datetime}"^^xsd:string ;
	bd:rule ""^^xsd:string ;
	bd:ordinal "88"^^xsd:positiveInteger ;
	bd:name "*SDTM"^^xsd:string ;
	bd:notes "Starting analysis datetime not directly characterizing AVAL and/or AVALC in numeric format."^^xsd:string ;
	bd:ct ""^^xsd:string ;
	bd:ctNotes ""^^xsd:string ;
	bd:typedAs <http://www.assero.co.uk/CSN#8b16536d-2667-4282-86b4-8724a00b8f9f> ;
.
<http://www.cdisc.org/Basic_Data_Structure/V2#AV*SDY>
	rdf:type bd:ADaMDatasetVariable ;
	isoC:label "{Relative Start Day}"^^xsd:string ;
	bd:rule ""^^xsd:string ;
	bd:ordinal "89"^^xsd:positiveInteger ;
	bd:name "*SDY"^^xsd:string ;
	bd:notes "Starting analysis relative day not directly characterizing AVAL and/or AVALC."^^xsd:string ;
	bd:ct ""^^xsd:string ;
	bd:ctNotes ""^^xsd:string ;
	bd:typedAs <http://www.assero.co.uk/CSN#8b16536d-2667-4282-86b4-8724a00b8f9f> ;
.
<http://www.cdisc.org/Basic_Data_Structure/V2#AV*SDTF>
	rdf:type bd:ADaMDatasetVariable ;
	isoC:label "{Start Date Imputation Flag}"^^xsd:string ;
	bd:rule ""^^xsd:string ;
	bd:ordinal "90"^^xsd:positiveInteger ;
	bd:name "*SDTF"^^xsd:string ;
	bd:notes "The level of imputation of *SDT. If *SDT (or the date part of *SDTM) was imputed, *SDTF must be populated and is required. See Section 3.1.3."^^xsd:string ;
	bd:ct "DATEFL"^^xsd:string ;
	bd:ctNotes ""^^xsd:string ;
	bd:typedAs <http://www.assero.co.uk/CSN#f9caeead-091c-442a-acdf-6f56a64c4dff> ;
.
<http://www.cdisc.org/Basic_Data_Structure/V2#AV*STMF>
	rdf:type bd:ADaMDatasetVariable ;
	isoC:label "{Start Time Imputation Flag}"^^xsd:string ;
	bd:rule ""^^xsd:string ;
	bd:ordinal "91"^^xsd:positiveInteger ;
	bd:name "*STMF"^^xsd:string ;
	bd:notes "The level of imputation of *STM. If *STM (or the time part of *SDTM) was imputed, *STMF must be populated and is required. See Section 3.1.3."^^xsd:string ;
	bd:ct "TIMEFL"^^xsd:string ;
	bd:ctNotes ""^^xsd:string ;
	bd:typedAs <http://www.assero.co.uk/CSN#f9caeead-091c-442a-acdf-6f56a64c4dff> ;
.
<http://www.cdisc.org/Basic_Data_Structure/V2#AV*EDT>
	rdf:type bd:ADaMDatasetVariable ;
	isoC:label "{End Date}"^^xsd:string ;
	bd:rule ""^^xsd:string ;
	bd:ordinal "92"^^xsd:positiveInteger ;
	bd:name "*EDT"^^xsd:string ;
	bd:notes "Ending analysis date not directly characterizing AVAL and/or AVALC in numeric format."^^xsd:string ;
	bd:ct ""^^xsd:string ;
	bd:ctNotes ""^^xsd:string ;
	bd:typedAs <http://www.assero.co.uk/CSN#8b16536d-2667-4282-86b4-8724a00b8f9f> ;
.
<http://www.cdisc.org/Basic_Data_Structure/V2#AV*ETM>
	rdf:type bd:ADaMDatasetVariable ;
	isoC:label "{End Time}"^^xsd:string ;
	bd:rule ""^^xsd:string ;
	bd:ordinal "93"^^xsd:positiveInteger ;
	bd:name "*ETM"^^xsd:string ;
	bd:notes "Ending analysis time not directly characterizing AVAL and/or AVALC in numeric format."^^xsd:string ;
	bd:ct ""^^xsd:string ;
	bd:ctNotes ""^^xsd:string ;
	bd:typedAs <http://www.assero.co.uk/CSN#8b16536d-2667-4282-86b4-8724a00b8f9f> ;
.
<http://www.cdisc.org/Basic_Data_Structure/V2#AV*EDTM>
	rdf:type bd:ADaMDatasetVariable ;
	isoC:label "{End Datetime}"^^xsd:string ;
	bd:rule ""^^xsd:string ;
	bd:ordinal "94"^^xsd:positiveInteger ;
	bd:name "*EDTM"^^xsd:string ;
	bd:notes "Ending analysis datetime not directly characterizing AVAL and/or AVALC in numeric format."^^xsd:string ;
	bd:ct ""^^xsd:string ;
	bd:ctNotes ""^^xsd:string ;
	bd:typedAs <http://www.assero.co.uk/CSN#8b16536d-2667-4282-86b4-8724a00b8f9f> ;
.
<http://www.cdisc.org/Basic_Data_Structure/V2#AV*EDY>
	rdf:type bd:ADaMDatasetVariable ;
	isoC:label "{Relative End Day}"^^xsd:string ;
	bd:rule ""^^xsd:string ;
	bd:ordinal "95"^^xsd:positiveInteger ;
	bd:name "*EDY"^^xsd:string ;
	bd:notes "Ending analysis relative day not directly characterizing AVAL and/or AVALC."^^xsd:string ;
	bd:ct ""^^xsd:string ;
	bd:ctNotes ""^^xsd:string ;
	bd:typedAs <http://www.assero.co.uk/CSN#8b16536d-2667-4282-86b4-8724a00b8f9f> ;
.
<http://www.cdisc.org/Basic_Data_Structure/V2#AV*EDTF>
	rdf:type bd:ADaMDatasetVariable ;
	isoC:label "{End Date Imputation Flag}"^^xsd:string ;
	bd:rule ""^^xsd:string ;
	bd:ordinal "96"^^xsd:positiveInteger ;
	bd:name "*EDTF"^^xsd:string ;
	bd:notes "The level of imputation of *EDT. If *EDT (or the date part of *EDTM) was imputed, *EDTF must be populated and is required. See Section 3.1.3."^^xsd:string ;
	bd:ct "DATEFL"^^xsd:string ;
	bd:ctNotes ""^^xsd:string ;
	bd:typedAs <http://www.assero.co.uk/CSN#f9caeead-091c-442a-acdf-6f56a64c4dff> ;
.
<http://www.cdisc.org/Basic_Data_Structure/V2#AV*ETMF>
	rdf:type bd:ADaMDatasetVariable ;
	isoC:label "{End Time Imputation Flag}"^^xsd:string ;
	bd:rule ""^^xsd:string ;
	bd:ordinal "97"^^xsd:positiveInteger ;
	bd:name "*ETMF"^^xsd:string ;
	bd:notes "The level of imputation of *ETM. If *ETM (or the time part of *EDTM) was imputed, *ETMF must be populated and is required. See Section 3.1.3."^^xsd:string ;
	bd:ct "TIMEFL"^^xsd:string ;
	bd:ctNotes ""^^xsd:string ;
	bd:typedAs <http://www.assero.co.uk/CSN#f9caeead-091c-442a-acdf-6f56a64c4dff> ;
.
<http://www.cdisc.org/Basic_Data_Structure/V2#AVPARAM>
	rdf:type bd:ADaMDatasetVariable ;
	isoC:label "Parameter"^^xsd:string ;
	bd:rule ""^^xsd:string ;
	bd:ordinal "98"^^xsd:positiveInteger ;
	bd:name "PARAM"^^xsd:string ;
	bd:notes "The description of the analysis parameter. Examples include: \"Supine Systolic Blood Pressure (mm Hg)\", \"Log10 (Weight (kg))\", \"Time to First Hypertension Event (Days)\", \"Estimated Tumor Growth Rate\", etc. PARAM should be sufficient to describe unambiguously the contents of AVAL and/or AVALC. PARAM must include all descriptive and qualifying information relevant to the analysis purpose of the parameter.\n\nExamples of qualifying information that might be relevant to analysis and therefore are candidates for inclusion in PARAM are units, specimen type, location, position, machine type, and transformation function. There is no need to include qualifiers that are not relevant to the analysis of PARAM. In contrast to SDTM --TEST, no additional variable is needed to further qualify PARAM. \n\nPARAM may be longer than 40 characters in length but is restricted to a maximum of 200 characters. PARAM is often directly usable in Clinical Study Report displays. Note that in the ADaMIG, \"parameter\" is a synonym of \"analysis parameter.\""^^xsd:string ;
	bd:ct ""^^xsd:string ;
	bd:ctNotes ""^^xsd:string ;
	bd:typedAs <http://www.assero.co.uk/CSN#f9caeead-091c-442a-acdf-6f56a64c4dff> ;
.
<http://www.cdisc.org/Basic_Data_Structure/V2#AVPARAMCD>
	rdf:type bd:ADaMDatasetVariable ;
	isoC:label "Parameter Code"^^xsd:string ;
	bd:rule ""^^xsd:string ;
	bd:ordinal "99"^^xsd:positiveInteger ;
	bd:name "PARAMCD"^^xsd:string ;
	bd:notes "The short name of the analysis parameter in PARAM. Values of PARAMCD should follow the SAS Version 5 transport file format and Oracle constraints as noted under General Variable Conventions in Section 3.1.1. There must be a one-to-one mapping to PARAM within a dataset."^^xsd:string ;
	bd:ct ""^^xsd:string ;
	bd:ctNotes ""^^xsd:string ;
	bd:typedAs <http://www.assero.co.uk/CSN#f9caeead-091c-442a-acdf-6f56a64c4dff> ;
.
<http://www.cdisc.org/Basic_Data_Structure/V2#AVPARAMN>
	rdf:type bd:ADaMDatasetVariable ;
	isoC:label "Parameter (N)"^^xsd:string ;
	bd:rule ""^^xsd:string ;
	bd:ordinal "100"^^xsd:positiveInteger ;
	bd:name "PARAMN"^^xsd:string ;
	bd:notes "A numeric representation of PARAM. Useful for ordering and programmatic manipulation. There must be a one-to-one mapping to PARAM within a dataset."^^xsd:string ;
	bd:ct ""^^xsd:string ;
	bd:ctNotes ""^^xsd:string ;
	bd:typedAs <http://www.assero.co.uk/CSN#8b16536d-2667-4282-86b4-8724a00b8f9f> ;
.
<http://www.cdisc.org/Basic_Data_Structure/V2#AVPARAMTYP>
	rdf:type bd:ADaMDatasetVariable ;
	isoC:label "Parameter Type"^^xsd:string ;
	bd:rule ""^^xsd:string ;
	bd:ordinal "101"^^xsd:positiveInteger ;
	bd:name "PARAMTYP"^^xsd:string ;
	bd:notes "ndicator of whether the parameter is derived as a function of one or more other parameters. \nThis variable will be retired from the ADaMIG in the next version because it was confused with the concept of DTYPE and therefore was being misused. The variable metadata should be adequate to indicate when a parameter is wholly derived."^^xsd:string ;
	bd:ct "PARAMTYP"^^xsd:string ;
	bd:ctNotes ""^^xsd:string ;
	bd:typedAs <http://www.assero.co.uk/CSN#f9caeead-091c-442a-acdf-6f56a64c4dff> ;
.
<http://www.cdisc.org/Basic_Data_Structure/V2#AVPARCATy>
	rdf:type bd:ADaMDatasetVariable ;
	isoC:label "Parameter Category y"^^xsd:string ;
	bd:rule ""^^xsd:string ;
	bd:ordinal "102"^^xsd:positiveInteger ;
	bd:name "PARCATy"^^xsd:string ;
	bd:notes "A categorization of PARAM within a dataset. For example, values of PARCAT1 might group the parameters having to do with a particular questionnaire, lab specimen type, or area of investigation. Note that PARCATy is not a qualifier for PARAM. PARAM to PARCATy is a many-to-one mapping; any given PARAM may be associated with at most one level of PARCATy (e.g., one level of PARCAT1 and one level of PARCAT2)."^^xsd:string ;
	bd:ct ""^^xsd:string ;
	bd:ctNotes ""^^xsd:string ;
	bd:typedAs <http://www.assero.co.uk/CSN#f9caeead-091c-442a-acdf-6f56a64c4dff> ;
.
<http://www.cdisc.org/Basic_Data_Structure/V2#AVPARCATyN>
	rdf:type bd:ADaMDatasetVariable ;
	isoC:label "Parameter Category y (N)"^^xsd:string ;
	bd:rule ""^^xsd:string ;
	bd:ordinal "103"^^xsd:positiveInteger ;
	bd:name "PARCATyN"^^xsd:string ;
	bd:notes "A numeric representation of PARCATy. This can be used for operations on PARCATy. There must be a one-to-one relationship within a dataset between PARCATy and PARCATyN."^^xsd:string ;
	bd:ct ""^^xsd:string ;
	bd:ctNotes ""^^xsd:string ;
	bd:typedAs <http://www.assero.co.uk/CSN#8b16536d-2667-4282-86b4-8724a00b8f9f> ;
.
<http://www.cdisc.org/Basic_Data_Structure/V2#AVAVAL>
	rdf:type bd:ADaMDatasetVariable ;
	isoC:label "Analysis Value"^^xsd:string ;
	bd:rule ""^^xsd:string ;
	bd:ordinal "104"^^xsd:positiveInteger ;
	bd:name "AVAL"^^xsd:string ;
	bd:notes "Numeric analysis value described by PARAM. On a given record, it is permissible for AVAL, AVALC, or both to be null. AVAL is required if AVALC is not present, since either AVAL or AVALC must be present in the dataset."^^xsd:string ;
	bd:ct ""^^xsd:string ;
	bd:ctNotes ""^^xsd:string ;
	bd:typedAs <http://www.assero.co.uk/CSN#8b16536d-2667-4282-86b4-8724a00b8f9f> ;
.
<http://www.cdisc.org/Basic_Data_Structure/V2#AVAVALC>
	rdf:type bd:ADaMDatasetVariable ;
	isoC:label "Analysis Value (C)"^^xsd:string ;
	bd:rule ""^^xsd:string ;
	bd:ordinal "105"^^xsd:positiveInteger ;
	bd:name "AVALC"^^xsd:string ;
	bd:notes "Character analysis value described by PARAM. AVALC can be a character string mapping to AVAL, but if so there must be a one-to-one map between AVAL and AVALC within a given PARAM. AVALC should not be used to categorize the values of AVAL. Within a given parameter, if there exists a row on which both AVALC and AVAL are populated, then there must be a one-to-one mapping between AVALC and AVAL on all rows on which both variables are populated. (In other words, there is no requirement that records with a null value in either AVAL or AVALC be included when determining whether the one-to-one mapping requirement is satisfied.) On a given record, it is permissible for AVAL, AVALC, or both to be null.\n\nAVALC is required if AVAL is not present, since either AVAL or AVALC must be present in the dataset."^^xsd:string ;
	bd:ct ""^^xsd:string ;
	bd:ctNotes ""^^xsd:string ;
	bd:typedAs <http://www.assero.co.uk/CSN#f9caeead-091c-442a-acdf-6f56a64c4dff> ;
.
<http://www.cdisc.org/Basic_Data_Structure/V2#AVAVALCATy>
	rdf:type bd:ADaMDatasetVariable ;
	isoC:label "Analysis Value Category y"^^xsd:string ;
	bd:rule ""^^xsd:string ;
	bd:ordinal "106"^^xsd:positiveInteger ;
	bd:name "AVALCATy"^^xsd:string ;
	bd:notes "A categorization of AVAL or AVALC within a parameter. Not necessarily a one-to-one mapping to AVAL and/or AVALC. For example, if PARAM is \"Headache Severity\" and AVAL has values 0, 1, 2, or 3, AVALCAT1 can categorize AVAL into \"None or Mild\" (for AVAL 0 or 1) and \"Moderate or Severe\" (for AVAL 2 or 3)."^^xsd:string ;
	bd:ct ""^^xsd:string ;
	bd:ctNotes ""^^xsd:string ;
	bd:typedAs <http://www.assero.co.uk/CSN#f9caeead-091c-442a-acdf-6f56a64c4dff> ;
.
<http://www.cdisc.org/Basic_Data_Structure/V2#AVAVALCAyN>
	rdf:type bd:ADaMDatasetVariable ;
	isoC:label "Analysis Value Category y (N)"^^xsd:string ;
	bd:rule ""^^xsd:string ;
	bd:ordinal "107"^^xsd:positiveInteger ;
	bd:name "AVALCAyN"^^xsd:string ;
	bd:notes "A numeric representation of AVALCATy. This can be used for ordering of values of AVALCATy or for other purposes. There must be a one-to-one relationship within a parameter between AVALCATy and AVALCAyN."^^xsd:string ;
	bd:ct ""^^xsd:string ;
	bd:ctNotes ""^^xsd:string ;
	bd:typedAs <http://www.assero.co.uk/CSN#8b16536d-2667-4282-86b4-8724a00b8f9f> ;
.
<http://www.cdisc.org/Basic_Data_Structure/V2#AVBASE>
	rdf:type bd:ADaMDatasetVariable ;
	isoC:label "Baseline Value"^^xsd:string ;
	bd:rule ""^^xsd:string ;
	bd:ordinal "108"^^xsd:positiveInteger ;
	bd:name "BASE"^^xsd:string ;
	bd:notes "The subject's baseline analysis value for a parameter and baseline definition (i.e. BASETYPE) if present. BASE contains the value of AVAL copied from a record within the parameter on which ABLFL = \"Y\". Required if dataset supports analysis or review of numeric baseline value or functions of numeric baseline value. If BASE is populated for a parameter, and BASE is non-null for a subject for that parameter, then there must be a record flagged by ABLFL for that subject and parameter. Note that a baseline record may be derived (e.g., it may be an average) in which case DTYPE must be populated on the baseline record."^^xsd:string ;
	bd:ct ""^^xsd:string ;
	bd:ctNotes ""^^xsd:string ;
	bd:typedAs <http://www.assero.co.uk/CSN#8b16536d-2667-4282-86b4-8724a00b8f9f> ;
.
<http://www.cdisc.org/Basic_Data_Structure/V2#AVBASEC>
	rdf:type bd:ADaMDatasetVariable ;
	isoC:label "Baseline Value (C)"^^xsd:string ;
	bd:rule ""^^xsd:string ;
	bd:ordinal "109"^^xsd:positiveInteger ;
	bd:name "BASEC"^^xsd:string ;
	bd:notes "The subject's baseline value of AVALC for a parameter and baseline definition (i.e. BASETYPE) if present. May be needed when AVALC is of interest. BASEC contains the value of AVALC copied from a record within the parameter on which ABLFL = \"Y\". If both AVAL and AVALC are populated within a parameter, the baseline record for AVALC must be the same record as that for AVAL. \n\nWithin a given parameter, if there exists a row on which both BASEC and BASE are populated, then there must be a one-to-one mapping between BASEC and BASE on all rows on which both variables are populated. (In other words, there is no requirement that records with a null value in either BASE or BASEC be included when determining whether the one-to-one mapping requirement is satisfied.) On a given record, it is permissible for BASE, BASEC, or both to be null."^^xsd:string ;
	bd:ct ""^^xsd:string ;
	bd:ctNotes ""^^xsd:string ;
	bd:typedAs <http://www.assero.co.uk/CSN#f9caeead-091c-442a-acdf-6f56a64c4dff> ;
.
<http://www.cdisc.org/Basic_Data_Structure/V2#AVBASECATy>
	rdf:type bd:ADaMDatasetVariable ;
	isoC:label "Baseline Category y"^^xsd:string ;
	bd:rule ""^^xsd:string ;
	bd:ordinal "110"^^xsd:positiveInteger ;
	bd:name "BASECATy"^^xsd:string ;
	bd:notes "A categorization of BASE or BASEC within a parameter. Not necessarily a one-to-one mapping to BASE or BASEC. For example, if PARAM is \"Headache Severity\" and AVAL has values 0, 1, 2, or 3, BASECAT1 can categorize BASE into \"None or Mild\" (for BASE 0 or 1) and \"Moderate or Severe\" (for BASE 2 or 3)."^^xsd:string ;
	bd:ct ""^^xsd:string ;
	bd:ctNotes ""^^xsd:string ;
	bd:typedAs <http://www.assero.co.uk/CSN#f9caeead-091c-442a-acdf-6f56a64c4dff> ;
.
<http://www.cdisc.org/Basic_Data_Structure/V2#AVBASECAyN>
	rdf:type bd:ADaMDatasetVariable ;
	isoC:label "Baseline Category y (N)"^^xsd:string ;
	bd:rule ""^^xsd:string ;
	bd:ordinal "111"^^xsd:positiveInteger ;
	bd:name "BASECAyN"^^xsd:string ;
	bd:notes "A numeric representation of BASECATy. This can be used for ordering of values of BASECATy or for other purposes. There must be a one-to-one relationship within a parameter between BASECATy and BASECAyN."^^xsd:string ;
	bd:ct ""^^xsd:string ;
	bd:ctNotes ""^^xsd:string ;
	bd:typedAs <http://www.assero.co.uk/CSN#8b16536d-2667-4282-86b4-8724a00b8f9f> ;
.
<http://www.cdisc.org/Basic_Data_Structure/V2#AVBASETYPE>
	rdf:type bd:ADaMDatasetVariable ;
	isoC:label "Baseline Type"^^xsd:string ;
	bd:rule ""^^xsd:string ;
	bd:ordinal "112"^^xsd:positiveInteger ;
	bd:name "BASETYPE"^^xsd:string ;
	bd:notes "Producer-defined text describing the definition of baseline relevant to the value of BASE on the current record. Required when there are multiple ways that baseline is defined. If used for any PARAM within a dataset, should be non-null for all records of that dataset. Refer to Section 4.2.1, Rule 6, for an example."^^xsd:string ;
	bd:ct ""^^xsd:string ;
	bd:ctNotes ""^^xsd:string ;
	bd:typedAs <http://www.assero.co.uk/CSN#f9caeead-091c-442a-acdf-6f56a64c4dff> ;
.
<http://www.cdisc.org/Basic_Data_Structure/V2#AVCHG>
	rdf:type bd:ADaMDatasetVariable ;
	isoC:label "Change from Baseline"^^xsd:string ;
	bd:rule ""^^xsd:string ;
	bd:ordinal "113"^^xsd:positiveInteger ;
	bd:name "CHG"^^xsd:string ;
	bd:notes "Change from baseline analysis value. Equal to AVAL-BASE. If used for a given PARAM, should be populated for all post-baseline records of that PARAM regardless of whether that record is used for analysis. The decision on how to populate pre-baseline and baseline values of CHG is left to producer choice."^^xsd:string ;
	bd:ct ""^^xsd:string ;
	bd:ctNotes ""^^xsd:string ;
	bd:typedAs <http://www.assero.co.uk/CSN#8b16536d-2667-4282-86b4-8724a00b8f9f> ;
.
<http://www.cdisc.org/Basic_Data_Structure/V2#AVCHGCATy>
	rdf:type bd:ADaMDatasetVariable ;
	isoC:label "Change from Baseline Category y"^^xsd:string ;
	bd:rule ""^^xsd:string ;
	bd:ordinal "114"^^xsd:positiveInteger ;
	bd:name "CHGCATy"^^xsd:string ;
	bd:notes "A categorization of CHG within a parameter. Not necessarily a one-to-one mapping to CHG. The definition of CHGCATy may vary by PARAM. For example, CHGCAT1 may be used to categorize CHG with respect to ranges of change in SYSBP; \"-10 to -5 mm Hg\", \"-5 to 0 mm Hg\" categories."^^xsd:string ;
	bd:ct ""^^xsd:string ;
	bd:ctNotes ""^^xsd:string ;
	bd:typedAs <http://www.assero.co.uk/CSN#f9caeead-091c-442a-acdf-6f56a64c4dff> ;
.
<http://www.cdisc.org/Basic_Data_Structure/V2#AVCHGCATyN>
	rdf:type bd:ADaMDatasetVariable ;
	isoC:label "Change from Baseline Category y (N)"^^xsd:string ;
	bd:rule ""^^xsd:string ;
	bd:ordinal "115"^^xsd:positiveInteger ;
	bd:name "CHGCATyN"^^xsd:string ;
	bd:notes "A numeric representation of CHGCATy. This can be used for ordering of values of CHGCATy or for other purposes. There must be a one-to-one relationship within a parameter between CHGCATy and CHGCATyN."^^xsd:string ;
	bd:ct ""^^xsd:string ;
	bd:ctNotes ""^^xsd:string ;
	bd:typedAs <http://www.assero.co.uk/CSN#8b16536d-2667-4282-86b4-8724a00b8f9f> ;
.
<http://www.cdisc.org/Basic_Data_Structure/V2#AVPCHG>
	rdf:type bd:ADaMDatasetVariable ;
	isoC:label "Percent Change from Baseline"^^xsd:string ;
	bd:rule ""^^xsd:string ;
	bd:ordinal "116"^^xsd:positiveInteger ;
	bd:name "PCHG"^^xsd:string ;
	bd:notes "Percent change from baseline analysis value. Equal to ((AVAL-BASE)/BASE)*100. If used for a given PARAM, should be populated (when calculable) for all post-baseline records of that PARAM regardless of whether that record is used for analysis. The decision on how to populate pre-baseline and baseline values of PCHG is left to producer choice."^^xsd:string ;
	bd:ct ""^^xsd:string ;
	bd:ctNotes ""^^xsd:string ;
	bd:typedAs <http://www.assero.co.uk/CSN#8b16536d-2667-4282-86b4-8724a00b8f9f> ;
.
<http://www.cdisc.org/Basic_Data_Structure/V2#AVPCHGCATy>
	rdf:type bd:ADaMDatasetVariable ;
	isoC:label "Percent Chg from Baseline Category y"^^xsd:string ;
	bd:rule ""^^xsd:string ;
	bd:ordinal "117"^^xsd:positiveInteger ;
	bd:name "PCHGCATy"^^xsd:string ;
	bd:notes "A categorization of PCHG within a parameter. Not necessarily a one-to-one mapping to PCHG. The definition of PCHGCATy may vary by PARAM. For example, PCHGCAT1 may be used to categorize PCHG with respect to ranges of change in SYSBP; \">5%\", \">10%\" categories."^^xsd:string ;
	bd:ct ""^^xsd:string ;
	bd:ctNotes ""^^xsd:string ;
	bd:typedAs <http://www.assero.co.uk/CSN#f9caeead-091c-442a-acdf-6f56a64c4dff> ;
.
<http://www.cdisc.org/Basic_Data_Structure/V2#AVPCHGCAyN>
	rdf:type bd:ADaMDatasetVariable ;
	isoC:label "Percent Chg from Baseline Category y (N)"^^xsd:string ;
	bd:rule ""^^xsd:string ;
	bd:ordinal "118"^^xsd:positiveInteger ;
	bd:name "PCHGCAyN"^^xsd:string ;
	bd:notes "A numeric representation of PCHGCATy. This can be used for ordering of values of PCHGCATy or for other purposes. There must be a one-to-one relationship within a parameter between PCHGCATy and PCHGCAyN."^^xsd:string ;
	bd:ct ""^^xsd:string ;
	bd:ctNotes ""^^xsd:string ;
	bd:typedAs <http://www.assero.co.uk/CSN#8b16536d-2667-4282-86b4-8724a00b8f9f> ;
.
<http://www.cdisc.org/Basic_Data_Structure/V2#AVR2BASE>
	rdf:type bd:ADaMDatasetVariable ;
	isoC:label "Ratio to Baseline"^^xsd:string ;
	bd:rule ""^^xsd:string ;
	bd:ordinal "119"^^xsd:positiveInteger ;
	bd:name "R2BASE"^^xsd:string ;
	bd:notes "Ratio to the baseline value. Equal to AVAL / BASE. If used for a given PARAM, should be populated for all post-baseline records of that PARAM regardless of whether that record is used for analysis. The decision on how to populate pre-baseline and baseline values of R2BASE is left to producer choice."^^xsd:string ;
	bd:ct ""^^xsd:string ;
	bd:ctNotes ""^^xsd:string ;
	bd:typedAs <http://www.assero.co.uk/CSN#8b16536d-2667-4282-86b4-8724a00b8f9f> ;
.
<http://www.cdisc.org/Basic_Data_Structure/V2#AVR2AyLO>
	rdf:type bd:ADaMDatasetVariable ;
	isoC:label "Ratio to Analysis Range y Lower Limit"^^xsd:string ;
	bd:rule ""^^xsd:string ;
	bd:ordinal "120"^^xsd:positiveInteger ;
	bd:name "R2AyLO"^^xsd:string ;
	bd:notes "Ratio to the lower limit of the analysis range y. Equal to AVAL / AyLO. AyLO must exist in the ADaM dataset. If used for a given PARAM, should be populated for all post-baseline records of that PARAM regardless of whether that record is used for analysis. The decision on how to populate pre-baseline and baseline values of R2AyLO is left to producer choice."^^xsd:string ;
	bd:ct ""^^xsd:string ;
	bd:ctNotes ""^^xsd:string ;
	bd:typedAs <http://www.assero.co.uk/CSN#8b16536d-2667-4282-86b4-8724a00b8f9f> ;
.
<http://www.cdisc.org/Basic_Data_Structure/V2#AVR2AyHI>
	rdf:type bd:ADaMDatasetVariable ;
	isoC:label "Ratio to Analysis Range y Upper Limit"^^xsd:string ;
	bd:rule ""^^xsd:string ;
	bd:ordinal "121"^^xsd:positiveInteger ;
	bd:name "R2AyHI"^^xsd:string ;
	bd:notes "Ratio to the upper limit of the analysis range y. Equal to AVAL / AyHI. AyHI must exist in the ADaM dataset. If used for a given PARAM, should be populated for all post-baseline records of that PARAM regardless of whether that record is used for analysis. The decision on how to populate pre-baseline and baseline values of R2AyHI is left to producer choice."^^xsd:string ;
	bd:ct ""^^xsd:string ;
	bd:ctNotes ""^^xsd:string ;
	bd:typedAs <http://www.assero.co.uk/CSN#8b16536d-2667-4282-86b4-8724a00b8f9f> ;
.
<http://www.cdisc.org/Basic_Data_Structure/V2#AVSHIFTy>
	rdf:type bd:ADaMDatasetVariable ;
	isoC:label "Shift y"^^xsd:string ;
	bd:rule ""^^xsd:string ;
	bd:ordinal "122"^^xsd:positiveInteger ;
	bd:name "SHIFTy"^^xsd:string ;
	bd:notes "A shift in values depending on the defined pairing for group y. SHIFTy can be based on the change in value of any of the following pairs (BASECATy, AVALCATy), (BNRIND, ANRIND), (ByIND, AyIND), (BTOXGR, ATOXGR), (BASE, AVAL) or (BASEC, AVALC). Useful for shift tables. For example, \"NORMAL to HIGH\". If used for a given PARAM, should be populated (when calculable) for all post-baseline records of that PARAM regardless of whether that record is used for analysis. The decision on how to populate baseline and pre-baseline values of SHIFTy is left to producer choice."^^xsd:string ;
	bd:ct ""^^xsd:string ;
	bd:ctNotes ""^^xsd:string ;
	bd:typedAs <http://www.assero.co.uk/CSN#f9caeead-091c-442a-acdf-6f56a64c4dff> ;
.
<http://www.cdisc.org/Basic_Data_Structure/V2#AVSHIFTyN>
	rdf:type bd:ADaMDatasetVariable ;
	isoC:label "Shift y (N)"^^xsd:string ;
	bd:rule ""^^xsd:string ;
	bd:ordinal "123"^^xsd:positiveInteger ;
	bd:name "SHIFTyN"^^xsd:string ;
	bd:notes "Numeric version of SHIFTy. SHIFTyN maps one-to-one to SHIFTy within a parameter. If used for a given PARAM, should be populated (when calculable) for all post-baseline records of that PARAM regardless of whether that record is used for analysis. The decision on how to populate baseline and pre-baseline values of SHIFTyN is left to producer choice."^^xsd:string ;
	bd:ct ""^^xsd:string ;
	bd:ctNotes ""^^xsd:string ;
	bd:typedAs <http://www.assero.co.uk/CSN#8b16536d-2667-4282-86b4-8724a00b8f9f> ;
.
<http://www.cdisc.org/Basic_Data_Structure/V2#AVCRITy>
	rdf:type bd:ADaMDatasetVariable ;
	isoC:label "Analysis Criterion y"^^xsd:string ;
	bd:rule ""^^xsd:string ;
	bd:ordinal "124"^^xsd:positiveInteger ;
	bd:name "CRITy"^^xsd:string ;
	bd:notes "A text string identifying a pre-specified criterion within a parameter, for example SYSBP > 90. Required if CRITyFL exists. In some cases, the presence of the text string indicates that the criterion is satisfied on this record and CRITyFL is set to Y, while a null value indicates that the criterion is not satisfied or is not evaluable and is accompanied by a null value in CRITyFL. In other cases, the text string identifies the criterion being evaluated and is populated on every row for the parameter, but whether or not the criterion is satisfied is indicated by the value of the variable CRITyFL. See CRITyFL and CRITyFN. Refer to Section 4.7 for additional discussion of CRITy, CRITyFL and CRITyFN."^^xsd:string ;
	bd:ct ""^^xsd:string ;
	bd:ctNotes ""^^xsd:string ;
	bd:typedAs <http://www.assero.co.uk/CSN#f9caeead-091c-442a-acdf-6f56a64c4dff> ;
.
<http://www.cdisc.org/Basic_Data_Structure/V2#AVCRITyFL>
	rdf:type bd:ADaMDatasetVariable ;
	isoC:label "Criterion y Evaluation Result Flag"^^xsd:string ;
	bd:rule ""^^xsd:string ;
	bd:ordinal "125"^^xsd:positiveInteger ;
	bd:name "CRITyFL"^^xsd:string ;
	bd:notes "Character flag variable indicating whether the criterion defined in CRITy was met by the data on the record. See CRITy for more information regarding how to use CRITy and CRITyFL to indicate whether a criterion is met. Required if CRITy exists. Refer to Section 4.7 for additional discussion."^^xsd:string ;
	bd:ct ""^^xsd:string ;
	bd:ctNotes "Y \nor\nY, N"^^xsd:string ;
	bd:typedAs <http://www.assero.co.uk/CSN#f9caeead-091c-442a-acdf-6f56a64c4dff> ;
.
<http://www.cdisc.org/Basic_Data_Structure/V2#AVCRITyFN>
	rdf:type bd:ADaMDatasetVariable ;
	isoC:label "Criterion y Evaluation Result Flag (N)"^^xsd:string ;
	bd:rule ""^^xsd:string ;
	bd:ordinal "126"^^xsd:positiveInteger ;
	bd:name "CRITyFN"^^xsd:string ;
	bd:notes "Numeric representation of CRITyFL. There is a one-to-one mapping between CRITyFL and CRITyFN. CRITyFN can be included only if CRITyFL is also included."^^xsd:string ;
	bd:ct ""^^xsd:string ;
	bd:ctNotes "1\nor\n1, 0"^^xsd:string ;
	bd:typedAs <http://www.assero.co.uk/CSN#8b16536d-2667-4282-86b4-8724a00b8f9f> ;
.
<http://www.cdisc.org/Basic_Data_Structure/V2#AVMCRITy>
	rdf:type bd:ADaMDatasetVariable ;
	isoC:label "Analysis Multi-Response Criterion y"^^xsd:string ;
	bd:rule ""^^xsd:string ;
	bd:ordinal "127"^^xsd:positiveInteger ;
	bd:name "MCRITy"^^xsd:string ;
	bd:notes "A text string identifying a pre-specified criterion within a parameter, where the criterion can have multiple responses (as opposed to CRITy which has binary responses). Required if MCRITyML exists. For example, the grade of a lab analyte is compared to the baseline grade, with the possible conditions being 0 to 1, 0 to 2, etc. The text string identifies the criterion being evaluated (for example, \"Grade increase\") and is populated on every row for the parameter; which level of the criterion is satisfied is indicated by the value of the variable MCRITyML (for example \"0 to 1\", \"0 to 2\", etc.) See MCRITyML and MCRITyMN below, and refer to Section 4.7 for additional discussion of MCRITy, MCRITyML, and MCRITyMN."^^xsd:string ;
	bd:ct ""^^xsd:string ;
	bd:ctNotes ""^^xsd:string ;
	bd:typedAs <http://www.assero.co.uk/CSN#f9caeead-091c-442a-acdf-6f56a64c4dff> ;
.
<http://www.cdisc.org/Basic_Data_Structure/V2#AVMCRITyML>
	rdf:type bd:ADaMDatasetVariable ;
	isoC:label "Multi-Response Criterion y Evaluation"^^xsd:string ;
	bd:rule ""^^xsd:string ;
	bd:ordinal "128"^^xsd:positiveInteger ;
	bd:name "MCRITyML"^^xsd:string ;
	bd:notes "Character variable indicating which level of the criterion defined in MCRITy was met by the data on the record. See MCRITy for more information regarding how to use MCRITy and MCRITyML to indicate whether a criterion was met. Content is sponsor-defined. Required if MCRITy exists."^^xsd:string ;
	bd:ct ""^^xsd:string ;
	bd:ctNotes ""^^xsd:string ;
	bd:typedAs <http://www.assero.co.uk/CSN#f9caeead-091c-442a-acdf-6f56a64c4dff> ;
.
<http://www.cdisc.org/Basic_Data_Structure/V2#AVMCRITyMN>
	rdf:type bd:ADaMDatasetVariable ;
	isoC:label "Multi-Response Criterion y Eval (N)"^^xsd:string ;
	bd:rule ""^^xsd:string ;
	bd:ordinal "129"^^xsd:positiveInteger ;
	bd:name "MCRITyMN"^^xsd:string ;
	bd:notes "Numeric representation of MCRITyML. There is a one-to-one mapping between MCRITyML and MCRITyMN. Content is sponsor-defined. MCRITyMN can be included only if MCRITyML is also included."^^xsd:string ;
	bd:ct ""^^xsd:string ;
	bd:ctNotes ""^^xsd:string ;
	bd:typedAs <http://www.assero.co.uk/CSN#8b16536d-2667-4282-86b4-8724a00b8f9f> ;
.
<http://www.cdisc.org/Basic_Data_Structure/V2#AVDTYPE>
	rdf:type bd:ADaMDatasetVariable ;
	isoC:label "Derivation Type"^^xsd:string ;
	bd:rule ""^^xsd:string ;
	bd:ordinal "130"^^xsd:positiveInteger ;
	bd:name "DTYPE"^^xsd:string ;
	bd:notes "Analysis value derivation method. DTYPE is used to denote, and is required to be populated, when the value of AVAL or AVALC has been imputed or derived differently than the other analysis values within the parameter. DTYPE is required to be populated even if AVAL and AVALC are null on the derived record. \n\nThree common situations when DTYPE should be populated: \n(1) a new row is added within a parameter with the analysis value populated based on other rows within the parameter, \n(2) a new row is added within a parameter with the analysis value populated based on a constant value or data from other subjects, \n(3) an analysis value (AVAL or AVALC) on an existing record is being replaced with a value based on a pre-specified algorithm.\n\nDTYPE is used to denote analysis values that are \"special cases\" within a parameter. For each value of DTYPE, the precise derivation algorithm must be defined in analysis variable metadata, even for DTYPE values in the controlled terminology. The controlled terminology for DTYPE is extensible. See Section 4 for examples of the use of DTYPE.\n\nExamples of DTYPE values:\nLOCF = last observation carried forward.\nWOCF = worst observation carried forward.\nAVERAGE = average of values."^^xsd:string ;
	bd:ct "DTYPE"^^xsd:string ;
	bd:ctNotes ""^^xsd:string ;
	bd:typedAs <http://www.assero.co.uk/CSN#f9caeead-091c-442a-acdf-6f56a64c4dff> ;
.
<http://www.cdisc.org/Basic_Data_Structure/V2#AVAWRANGE>
	rdf:type bd:ADaMDatasetVariable ;
	isoC:label "Analysis Window Valid Relative Range"^^xsd:string ;
	bd:rule ""^^xsd:string ;
	bd:ordinal "131"^^xsd:positiveInteger ;
	bd:name "AWRANGE"^^xsd:string ;
	bd:notes "The range of values that are valid for a given analysis timepoint (a given value of AVISIT). For example, \"5-9 DAYS\"."^^xsd:string ;
	bd:ct ""^^xsd:string ;
	bd:ctNotes ""^^xsd:string ;
	bd:typedAs <http://www.assero.co.uk/CSN#f9caeead-091c-442a-acdf-6f56a64c4dff> ;
.
<http://www.cdisc.org/Basic_Data_Structure/V2#AVAWTARGET>
	rdf:type bd:ADaMDatasetVariable ;
	isoC:label "Analysis Window Target"^^xsd:string ;
	bd:rule ""^^xsd:string ;
	bd:ordinal "132"^^xsd:positiveInteger ;
	bd:name "AWTARGET"^^xsd:string ;
	bd:notes "The target or most desired analysis relative day (ADY) value or analysis relative time (ARELTM) value for a given value of AVISIT."^^xsd:string ;
	bd:ct ""^^xsd:string ;
	bd:ctNotes ""^^xsd:string ;
	bd:typedAs <http://www.assero.co.uk/CSN#8b16536d-2667-4282-86b4-8724a00b8f9f> ;
.
<http://www.cdisc.org/Basic_Data_Structure/V2#AVAWTDIFF>
	rdf:type bd:ADaMDatasetVariable ;
	isoC:label "Analysis Window Diff from Target"^^xsd:string ;
	bd:rule ""^^xsd:string ;
	bd:ordinal "133"^^xsd:positiveInteger ;
	bd:name "AWTDIFF"^^xsd:string ;
	bd:notes "Absolute difference between ADY or ARELTM and AWTARGET. It will be necessary to adjust for the fact that there is no day 0 in the event that ADY and AWTARGET are not of the same sign.\n\nIf the sign of the difference is important, then AWTDIFF might have to be used in conjunction with ADY or ARELTM and possibly AWTARGET when choosing among records."^^xsd:string ;
	bd:ct ""^^xsd:string ;
	bd:ctNotes ""^^xsd:string ;
	bd:typedAs <http://www.assero.co.uk/CSN#8b16536d-2667-4282-86b4-8724a00b8f9f> ;
.
<http://www.cdisc.org/Basic_Data_Structure/V2#AVAWLO>
	rdf:type bd:ADaMDatasetVariable ;
	isoC:label "Analysis Window Beginning Timepoint"^^xsd:string ;
	bd:rule ""^^xsd:string ;
	bd:ordinal "134"^^xsd:positiveInteger ;
	bd:name "AWLO"^^xsd:string ;
	bd:notes "The value of the beginning timepoint (inclusive) needs to be used in conjunction to AWRANGE. For example, if AWRANGE is \"5-9 DAYS\", then AWLO is \"5\"."^^xsd:string ;
	bd:ct ""^^xsd:string ;
	bd:ctNotes ""^^xsd:string ;
	bd:typedAs <http://www.assero.co.uk/CSN#8b16536d-2667-4282-86b4-8724a00b8f9f> ;
.
<http://www.cdisc.org/Basic_Data_Structure/V2#AVAWHI>
	rdf:type bd:ADaMDatasetVariable ;
	isoC:label "Analysis Window Ending Timepoint"^^xsd:string ;
	bd:rule ""^^xsd:string ;
	bd:ordinal "135"^^xsd:positiveInteger ;
	bd:name "AWHI"^^xsd:string ;
	bd:notes "The value of the ending timepoint (inclusive) needs to be used in conjunction to AWRANGE. For example, if AWRANGE is \"5-9 DAYS\", then AWHI is \"9\"."^^xsd:string ;
	bd:ct ""^^xsd:string ;
	bd:ctNotes ""^^xsd:string ;
	bd:typedAs <http://www.assero.co.uk/CSN#8b16536d-2667-4282-86b4-8724a00b8f9f> ;
.
<http://www.cdisc.org/Basic_Data_Structure/V2#AVAWU>
	rdf:type bd:ADaMDatasetVariable ;
	isoC:label "Analysis Window Unit"^^xsd:string ;
	bd:rule ""^^xsd:string ;
	bd:ordinal "136"^^xsd:positiveInteger ;
	bd:name "AWU"^^xsd:string ;
	bd:notes "Unit used for AWLO and AWHI. Examples: DAYS, HOURS."^^xsd:string ;
	bd:ct ""^^xsd:string ;
	bd:ctNotes ""^^xsd:string ;
	bd:typedAs <http://www.assero.co.uk/CSN#f9caeead-091c-442a-acdf-6f56a64c4dff> ;
.
<http://www.cdisc.org/Basic_Data_Structure/V2#AVSTARTDT>
	rdf:type bd:ADaMDatasetVariable ;
	isoC:label "Time-to-Event Origin Date for Subject"^^xsd:string ;
	bd:rule ""^^xsd:string ;
	bd:ordinal "137"^^xsd:positiveInteger ;
	bd:name "STARTDT"^^xsd:string ;
	bd:notes "The original date of risk for the time-to-event analysis. This is generally the time at which a subject is first at risk for the event of interest evaluation (as defined in the Protocol or Statistical Analysis Plan). For example, this may be the randomization date or the date of first study therapy exposure."^^xsd:string ;
	bd:ct ""^^xsd:string ;
	bd:ctNotes ""^^xsd:string ;
	bd:typedAs <http://www.assero.co.uk/CSN#8b16536d-2667-4282-86b4-8724a00b8f9f> ;
.
<http://www.cdisc.org/Basic_Data_Structure/V2#AVSTARTDTM>
	rdf:type bd:ADaMDatasetVariable ;
	isoC:label "Time-to-Event Origin Datetime"^^xsd:string ;
	bd:rule ""^^xsd:string ;
	bd:ordinal "138"^^xsd:positiveInteger ;
	bd:name "STARTDTM"^^xsd:string ;
	bd:notes "The datetime associated with STARTDT in numeric format."^^xsd:string ;
	bd:ct ""^^xsd:string ;
	bd:ctNotes ""^^xsd:string ;
	bd:typedAs <http://www.assero.co.uk/CSN#8b16536d-2667-4282-86b4-8724a00b8f9f> ;
.
<http://www.cdisc.org/Basic_Data_Structure/V2#AVSTARTDTF>
	rdf:type bd:ADaMDatasetVariable ;
	isoC:label "Origin Date Imputation Flag"^^xsd:string ;
	bd:rule ""^^xsd:string ;
	bd:ordinal "139"^^xsd:positiveInteger ;
	bd:name "STARTDTF"^^xsd:string ;
	bd:notes "The level of imputation of the start date. See Section 3.1.3."^^xsd:string ;
	bd:ct "DATEFL"^^xsd:string ;
	bd:ctNotes ""^^xsd:string ;
	bd:typedAs <http://www.assero.co.uk/CSN#f9caeead-091c-442a-acdf-6f56a64c4dff> ;
.
<http://www.cdisc.org/Basic_Data_Structure/V2#AVSTARTTMF>
	rdf:type bd:ADaMDatasetVariable ;
	isoC:label "Origin Time Imputation Flag"^^xsd:string ;
	bd:rule ""^^xsd:string ;
	bd:ordinal "140"^^xsd:positiveInteger ;
	bd:name "STARTTMF"^^xsd:string ;
	bd:notes "The level of imputation of the start time. See Section 3.1.3."^^xsd:string ;
	bd:ct "TIMEFL"^^xsd:string ;
	bd:ctNotes ""^^xsd:string ;
	bd:typedAs <http://www.assero.co.uk/CSN#f9caeead-091c-442a-acdf-6f56a64c4dff> ;
.
<http://www.cdisc.org/Basic_Data_Structure/V2#AVCNSR>
	rdf:type bd:ADaMDatasetVariable ;
	isoC:label "Censor"^^xsd:string ;
	bd:rule ""^^xsd:string ;
	bd:ordinal "141"^^xsd:positiveInteger ;
	bd:name "CNSR"^^xsd:string ;
	bd:notes "Defines whether the event was censored for the subject within the parameter (period of observation truncated prior to event being observed). It is strongly recommended to use 0 as an event indicator and positive integers as censoring indicators. It is also recommended that unique positive integers be used to indicate coded descriptions of censoring reasons. CNSR is required for time-to-event parameters."^^xsd:string ;
	bd:ct ""^^xsd:string ;
	bd:ctNotes ""^^xsd:string ;
	bd:typedAs <http://www.assero.co.uk/CSN#8b16536d-2667-4282-86b4-8724a00b8f9f> ;
.
<http://www.cdisc.org/Basic_Data_Structure/V2#AVEVNTDESC>
	rdf:type bd:ADaMDatasetVariable ;
	isoC:label "Event or Censoring Description"^^xsd:string ;
	bd:rule ""^^xsd:string ;
	bd:ordinal "142"^^xsd:positiveInteger ;
	bd:name "EVNTDESC"^^xsd:string ;
	bd:notes "Description of the event of interest or censoring reason for the subject within the parameter."^^xsd:string ;
	bd:ct ""^^xsd:string ;
	bd:ctNotes ""^^xsd:string ;
	bd:typedAs <http://www.assero.co.uk/CSN#f9caeead-091c-442a-acdf-6f56a64c4dff> ;
.
<http://www.cdisc.org/Basic_Data_Structure/V2#AVCNSDTDSC>
	rdf:type bd:ADaMDatasetVariable ;
	isoC:label "Censor Date Description"^^xsd:string ;
	bd:rule ""^^xsd:string ;
	bd:ordinal "143"^^xsd:positiveInteger ;
	bd:name "CNSDTDSC"^^xsd:string ;
	bd:notes "Describes the circumstance represented by the censoring date if different from the event date that warrants censoring."^^xsd:string ;
	bd:ct ""^^xsd:string ;
	bd:ctNotes ""^^xsd:string ;
	bd:typedAs <http://www.assero.co.uk/CSN#f9caeead-091c-442a-acdf-6f56a64c4dff> ;
.
<http://www.cdisc.org/Basic_Data_Structure/V2#AVATOXGR>
	rdf:type bd:ADaMDatasetVariable ;
	isoC:label "Analysis Toxicity Grade"^^xsd:string ;
	bd:rule ""^^xsd:string ;
	bd:ordinal "144"^^xsd:positiveInteger ;
	bd:name "ATOXGR"^^xsd:string ;
	bd:notes "Toxicity grade of AVAL or AVALC for analysis; may be based on SDTM --TOXGR or an imputed or assigned value."^^xsd:string ;
	bd:ct ""^^xsd:string ;
	bd:ctNotes ""^^xsd:string ;
	bd:typedAs <http://www.assero.co.uk/CSN#f9caeead-091c-442a-acdf-6f56a64c4dff> ;
.
<http://www.cdisc.org/Basic_Data_Structure/V2#AVBTOXGR>
	rdf:type bd:ADaMDatasetVariable ;
	isoC:label "Baseline Toxicity Grade"^^xsd:string ;
	bd:rule ""^^xsd:string ;
	bd:ordinal "145"^^xsd:positiveInteger ;
	bd:name "BTOXGR"^^xsd:string ;
	bd:notes "ATOXGR of the baseline record identified by ABLFL."^^xsd:string ;
	bd:ct ""^^xsd:string ;
	bd:ctNotes ""^^xsd:string ;
	bd:typedAs <http://www.assero.co.uk/CSN#f9caeead-091c-442a-acdf-6f56a64c4dff> ;
.
<http://www.cdisc.org/Basic_Data_Structure/V2#AVANRIND>
	rdf:type bd:ADaMDatasetVariable ;
	isoC:label "Analysis Reference Range Indicator"^^xsd:string ;
	bd:rule ""^^xsd:string ;
	bd:ordinal "146"^^xsd:positiveInteger ;
	bd:name "ANRIND"^^xsd:string ;
	bd:notes "Indicates where AVAL or AVALC falls with respect to the normal reference range for analysis; may be based on SDTM --NRIND or an imputed or assigned value."^^xsd:string ;
	bd:ct ""^^xsd:string ;
	bd:ctNotes ""^^xsd:string ;
	bd:typedAs <http://www.assero.co.uk/CSN#f9caeead-091c-442a-acdf-6f56a64c4dff> ;
.
<http://www.cdisc.org/Basic_Data_Structure/V2#AVBNRIND>
	rdf:type bd:ADaMDatasetVariable ;
	isoC:label "Baseline Reference Range Indicator"^^xsd:string ;
	bd:rule ""^^xsd:string ;
	bd:ordinal "147"^^xsd:positiveInteger ;
	bd:name "BNRIND"^^xsd:string ;
	bd:notes "ANRIND of the baseline record identified by ABLFL."^^xsd:string ;
	bd:ct ""^^xsd:string ;
	bd:ctNotes ""^^xsd:string ;
	bd:typedAs <http://www.assero.co.uk/CSN#f9caeead-091c-442a-acdf-6f56a64c4dff> ;
.
<http://www.cdisc.org/Basic_Data_Structure/V2#AVANRLO>
	rdf:type bd:ADaMDatasetVariable ;
	isoC:label "Analysis Normal Range Lower Limit"^^xsd:string ;
	bd:rule ""^^xsd:string ;
	bd:ordinal "148"^^xsd:positiveInteger ;
	bd:name "ANRLO"^^xsd:string ;
	bd:notes "Normal range lower limit for analysis; may be based on SDTM --NRLO or an imputed or assigned value."^^xsd:string ;
	bd:ct ""^^xsd:string ;
	bd:ctNotes ""^^xsd:string ;
	bd:typedAs <http://www.assero.co.uk/CSN#8b16536d-2667-4282-86b4-8724a00b8f9f> ;
.
<http://www.cdisc.org/Basic_Data_Structure/V2#AVANRLOC>
	rdf:type bd:ADaMDatasetVariable ;
	isoC:label "Analysis Normal Range Lower Limit (C)"^^xsd:string ;
	bd:rule ""^^xsd:string ;
	bd:ordinal "149"^^xsd:positiveInteger ;
	bd:name "ANRLOC"^^xsd:string ;
	bd:notes "Character analysis normal range lower limit. ANRLOC can be a character string mapping to ANRLO, but if so there must be a one-to-one map between ANRLO and ANRLOC within a given PARAM. ANRLOC should not be used to categorize the values of ANRLO. Within a given parameter, if there exists a row on which both ANRLOC and ANRLO are populated, then there must be a one-to-one mapping between ANRLOC and ANRLO on all rows on which both variables are populated. (In other words, there is no requirement that records with a null value in either ANRLO or ANRLOC be included when determining whether the one-to-one mapping requirement is satisfied.) On a given record, it is permissible for ANRLO, ANRLOC, or both to be null."^^xsd:string ;
	bd:ct ""^^xsd:string ;
	bd:ctNotes ""^^xsd:string ;
	bd:typedAs <http://www.assero.co.uk/CSN#f9caeead-091c-442a-acdf-6f56a64c4dff> ;
.
<http://www.cdisc.org/Basic_Data_Structure/V2#AVANRHI>
	rdf:type bd:ADaMDatasetVariable ;
	isoC:label "Analysis Normal Range Upper Limit"^^xsd:string ;
	bd:rule ""^^xsd:string ;
	bd:ordinal "150"^^xsd:positiveInteger ;
	bd:name "ANRHI"^^xsd:string ;
	bd:notes "Normal range upper limit for analysis; may be based on SDTM --NRHI or an imputed or assigned value."^^xsd:string ;
	bd:ct ""^^xsd:string ;
	bd:ctNotes ""^^xsd:string ;
	bd:typedAs <http://www.assero.co.uk/CSN#8b16536d-2667-4282-86b4-8724a00b8f9f> ;
.
<http://www.cdisc.org/Basic_Data_Structure/V2#AVANRHIC>
	rdf:type bd:ADaMDatasetVariable ;
	isoC:label "Analysis Normal Range Upper Limit (C)"^^xsd:string ;
	bd:rule ""^^xsd:string ;
	bd:ordinal "151"^^xsd:positiveInteger ;
	bd:name "ANRHIC"^^xsd:string ;
	bd:notes "Character analysis normal range upper limit. ANRHIC can be a character string mapping to ANRHI, but if so there must be a one-to-one map between ANRHI and ANRHIC within a given PARAM. ANRHIC should not be used to categorize the values of ANRHI. Within a given parameter, if there exists a row on which both ANRHIC and ANRHI are populated, then there must be a one-to-one mapping between ANRHIC and ANRHI on all rows on which both variables are populated. (In other words, there is no requirement that records with a null value in either ANRHI or ANRHIC be included when determining whether the one-to-one mapping requirement is satisfied.) On a given record, it is permissible for ANRHI, ANRHIC, or both to be null."^^xsd:string ;
	bd:ct ""^^xsd:string ;
	bd:ctNotes ""^^xsd:string ;
	bd:typedAs <http://www.assero.co.uk/CSN#f9caeead-091c-442a-acdf-6f56a64c4dff> ;
.
<http://www.cdisc.org/Basic_Data_Structure/V2#AVAyLO>
	rdf:type bd:ADaMDatasetVariable ;
	isoC:label "Analysis Range y Lower Limit"^^xsd:string ;
	bd:rule ""^^xsd:string ;
	bd:ordinal "152"^^xsd:positiveInteger ;
	bd:name "AyLO"^^xsd:string ;
	bd:notes "AyLO and/or AyHI are used for analysis ranges other than the normal range. AyLO and/or AyHI are created to capture the different levels of cutoff values used to determine whether an analysis is within a clinically acceptable value range or outside that value range. AyLO and/or AyHI are usually but not necessarily constants, parameter-specific constants, or subject-specific constants. AyLO must be included if R2AyLO is included in the dataset."^^xsd:string ;
	bd:ct ""^^xsd:string ;
	bd:ctNotes ""^^xsd:string ;
	bd:typedAs <http://www.assero.co.uk/CSN#8b16536d-2667-4282-86b4-8724a00b8f9f> ;
.
<http://www.cdisc.org/Basic_Data_Structure/V2#AVAyLOC>
	rdf:type bd:ADaMDatasetVariable ;
	isoC:label "Analysis Range y Lower Limit (C)"^^xsd:string ;
	bd:rule ""^^xsd:string ;
	bd:ordinal "153"^^xsd:positiveInteger ;
	bd:name "AyLOC"^^xsd:string ;
	bd:notes "Character analysis range y lower limit. AyLOC can be a character string mapping to AyLO, but if so there must be a one-to-one map between AyLO and AyLOC within a given PARAM. AyLOC should not be used to categorize the values of AyLO. Within a given parameter, if there exists a row on which both AyLOC and AyLO are populated, then there must be a one-to-one mapping between AyLOC and AyLO on all rows on which both variables are populated. (In other words, there is no requirement that records with a null value in either AyLO or AyLOC be included when determining whether the one-to-one mapping requirement is satisfied.) On a given record, it is permissible for AyLO, AyLOC, or both to be null."^^xsd:string ;
	bd:ct ""^^xsd:string ;
	bd:ctNotes ""^^xsd:string ;
	bd:typedAs <http://www.assero.co.uk/CSN#f9caeead-091c-442a-acdf-6f56a64c4dff> ;
.
<http://www.cdisc.org/Basic_Data_Structure/V2#AVAyHI>
	rdf:type bd:ADaMDatasetVariable ;
	isoC:label "Analysis Range y Upper Limit"^^xsd:string ;
	bd:rule ""^^xsd:string ;
	bd:ordinal "154"^^xsd:positiveInteger ;
	bd:name "AyHI"^^xsd:string ;
	bd:notes "See AyLO. \nFor example, if ECG QTc values are summarized based on values >450, values >480, and values >500, there is a need for 3 \"hi value\" range variables against which to compare values: A1HI=450, A2HI=480, A3HI=500.\nAyHI must be included if R2AyHI is included in the dataset."^^xsd:string ;
	bd:ct ""^^xsd:string ;
	bd:ctNotes ""^^xsd:string ;
	bd:typedAs <http://www.assero.co.uk/CSN#8b16536d-2667-4282-86b4-8724a00b8f9f> ;
.
<http://www.cdisc.org/Basic_Data_Structure/V2#AVAyHIC>
	rdf:type bd:ADaMDatasetVariable ;
	isoC:label "Analysis Range y Upper Limit (C)"^^xsd:string ;
	bd:rule ""^^xsd:string ;
	bd:ordinal "155"^^xsd:positiveInteger ;
	bd:name "AyHIC"^^xsd:string ;
	bd:notes "Character analysis range y upper limit. AyHIC can be a character string mapping to AyHI, but if so there must be a one-to-one map between AyHI and AyHIC within a given PARAM. AyHIC should not be used to categorize the values of AyHI. Within a given parameter, if there exists a row on which both AyHIC and AyHI are populated, then there must be a one-to-one mapping between AyHIC and AyHI on all rows on which both variables are populated. (In other words, there is no requirement that records with a null value in either AyHI or AyHIC be included when determining whether the one-to-one mapping requirement is satisfied.) On a given record, it is permissible for AyHI, AyHIC, or both to be null."^^xsd:string ;
	bd:ct ""^^xsd:string ;
	bd:ctNotes ""^^xsd:string ;
	bd:typedAs <http://www.assero.co.uk/CSN#f9caeead-091c-442a-acdf-6f56a64c4dff> ;
.
<http://www.cdisc.org/Basic_Data_Structure/V2#AVAyIND>
	rdf:type bd:ADaMDatasetVariable ;
	isoC:label "Analysis Range y Indicator"^^xsd:string ;
	bd:rule ""^^xsd:string ;
	bd:ordinal "156"^^xsd:positiveInteger ;
	bd:name "AyIND"^^xsd:string ;
	bd:notes "Indicates relationship of AVAL to the analysis range variables AyLO and/or AyHI, or the relationship of AVALC to the analysis range variables AyLOC and/or AyHIC."^^xsd:string ;
	bd:ct ""^^xsd:string ;
	bd:ctNotes ""^^xsd:string ;
	bd:typedAs <http://www.assero.co.uk/CSN#f9caeead-091c-442a-acdf-6f56a64c4dff> ;
.
<http://www.cdisc.org/Basic_Data_Structure/V2#AVByIND>
	rdf:type bd:ADaMDatasetVariable ;
	isoC:label "Baseline Analysis Range y Indicator"^^xsd:string ;
	bd:rule ""^^xsd:string ;
	bd:ordinal "157"^^xsd:positiveInteger ;
	bd:name "ByIND"^^xsd:string ;
	bd:notes "AyIND of the baseline record identified by ABLFL."^^xsd:string ;
	bd:ct ""^^xsd:string ;
	bd:ctNotes ""^^xsd:string ;
	bd:typedAs <http://www.assero.co.uk/CSN#f9caeead-091c-442a-acdf-6f56a64c4dff> ;
.
<http://www.cdisc.org/Basic_Data_Structure/V2#AVABLFL>
	rdf:type bd:ADaMDatasetVariable ;
	isoC:label "Baseline Record Flag"^^xsd:string ;
	bd:rule ""^^xsd:string ;
	bd:ordinal "158"^^xsd:positiveInteger ;
	bd:name "ABLFL"^^xsd:string ;
	bd:notes "Character indicator to identify the baseline record for each subject, parameter, and baseline type (BASETYPE) combination. See BASETYPE in Table 3.3.4.1. ABLFL is required if BASE is present in the dataset.\nA baseline record may be derived (e.g., it may be an average), in which case DTYPE must also be populated. If BASE is populated for a parameter, and BASE is non-null for a subject for that parameter, then there must be a record flagged by ABLFL for that subject and parameter."^^xsd:string ;
	bd:ct ""^^xsd:string ;
	bd:ctNotes "Y"^^xsd:string ;
	bd:typedAs <http://www.assero.co.uk/CSN#f9caeead-091c-442a-acdf-6f56a64c4dff> ;
.
<http://www.cdisc.org/Basic_Data_Structure/V2#AVABLFN>
	rdf:type bd:ADaMDatasetVariable ;
	isoC:label "Baseline Record Flag (N)"^^xsd:string ;
	bd:rule ""^^xsd:string ;
	bd:ordinal "159"^^xsd:positiveInteger ;
	bd:name "ABLFN"^^xsd:string ;
	bd:notes "A numeric representation of ABLFL. ABLFN has a one-to-one mapping with ABLFL. As described in Section 3.1.1 Item 8, ABLFN can be included only if ABLFL is also included."^^xsd:string ;
	bd:ct ""^^xsd:string ;
	bd:ctNotes "1"^^xsd:string ;
	bd:typedAs <http://www.assero.co.uk/CSN#8b16536d-2667-4282-86b4-8724a00b8f9f> ;
.
<http://www.cdisc.org/Basic_Data_Structure/V2#AVANLzzFL>
	rdf:type bd:ADaMDatasetVariable ;
	isoC:label "Analysis Flag zz"^^xsd:string ;
	bd:rule ""^^xsd:string ;
	bd:ordinal "160"^^xsd:positiveInteger ;
	bd:name "ANLzzFL"^^xsd:string ;
	bd:notes "ANLzzFL is a conditionally required flag to be used in addition to other selection variables when the other selection variables in combination are insufficient to identify the exact set of records used for one or more analyses. Often one ANLzzFL will serve to support the accurate selection of records for more than one analysis. Note that it is allowable to add additional descriptive text to the label (see Section 3.1.6, Item 1). \n\nWhen one is defining the set of records used in a particular analysis or family of analyses, ANLzzFL is supplemental to, and is intended to be used in conjunction with, other selection variables, such as subject-level, parameter-level and record-level population flags, AVISIT, DTYPE, grouping variables such as SITEGRy, and others. The lower-case letter \"zz\" in the variable name is an index for the zzth record selection algorithm where \"zz\" is replaced with a zero-padded two-digit integer [01-99]. Every record selection algorithm \"zz\" (i.e., every algorithm for populating an ANLzzFL) must be defined in variable metadata. When the set of records that the algorithm \"zz\" operates on is pre-filtered by application of other criteria, such as a record-level population flag, then the selection algorithm definition in the metadata must so specify.\n\nNote that the ANLzzFL value of Y indicates that the record fulfilled the requirements of the algorithm, but does not necessarily imply that the record was actually used in one or more analyses, as whether or not a record is used also depends on the other selection variables applied. The ANLzzFL flag is useful in many circumstances; an example is when there is more than one record for an analysis timepoint within a subject and parameter, as it can be used to identify the record chosen to represent the timepoint for an analysis. \"zz\" is an index for a record selection algorithm, such as \"record closest to target relative day for the AVISIT, with ties broken by the latest record, for each AVISIT within <list of AVISITS>.\" \n\nNote that it is not required that a specific ANLzzFL variable has the same definition across a project or even across datasets within a study. There is also no requirement that the ANLzzFL variables in a dataset or study be used in numerical order; e.g. ANL02FL might occur in a dataset or study without ANL01FL present in the same dataset or study."^^xsd:string ;
	bd:ct ""^^xsd:string ;
	bd:ctNotes "Y"^^xsd:string ;
	bd:typedAs <http://www.assero.co.uk/CSN#f9caeead-091c-442a-acdf-6f56a64c4dff> ;
.
<http://www.cdisc.org/Basic_Data_Structure/V2#AVANLzzFN>
	rdf:type bd:ADaMDatasetVariable ;
	isoC:label "Analysis Flag zz (N)"^^xsd:string ;
	bd:rule ""^^xsd:string ;
	bd:ordinal "161"^^xsd:positiveInteger ;
	bd:name "ANLzzFN"^^xsd:string ;
	bd:notes "Numeric version of ANLzzFL. There is a one-to-one mapping between ANLzzFL and ANLzzFN within a dataset. As described in Section 3.1.1 Item 8, ANLzzFN can be included only if ANLzzFL is also included."^^xsd:string ;
	bd:ct ""^^xsd:string ;
	bd:ctNotes "1"^^xsd:string ;
	bd:typedAs <http://www.assero.co.uk/CSN#8b16536d-2667-4282-86b4-8724a00b8f9f> ;
.
<http://www.cdisc.org/Basic_Data_Structure/V2#AVONTRTFL>
	rdf:type bd:ADaMDatasetVariable ;
	isoC:label "On Treatment Record Flag"^^xsd:string ;
	bd:rule ""^^xsd:string ;
	bd:ordinal "162"^^xsd:positiveInteger ;
