<?xml version="1.0" encoding="UTF-8"?>
<BiomedicalConcepts>
	<BiomedicalConcept Template="BCT-Obs_PQR" Scope="NS-ACME" Id="BC C25347" Name="Height">
		<Class Name="DefinedObservation">
			<Attribute Alias="Test" Name="nameCode">
				<Property QText="" PText="" Enabled="true" Collect="false" Alias="Test Code (--TESTCD)" Name="code">
					<Value>CLI-C66741_C25347</Value>
				</Property>
				<Property QText="Question text" PText="Prompt text" Enabled="true" Collect="false" Alias="Name" Name="originalText">
					<Property QText="" PText="" Enabled="true" Collect="false" Alias="Test Name (--TEST)" Name="value">
						<Value>CLI-C67153_C25347</Value>
					</Property>
				</Property>
			</Attribute>
			<Attribute Alias="SiteOfAdministration" Name="targetAnatomicSiteCode">
				<Property QText="Question text" PText="Prompt text" Enabled="false" Collect="true" Alias="Location (--LOC)" Name="code"/>
			</Attribute>
			<Attribute Alias="Method" Name="methodCode">
				<Property QText="Question text" PText="Prompt text" Enabled="false" Collect="true" Alias="Method Code (--METHOD)" Name="code"/>
			</Attribute>
		</Class>
		<Class Name="PerformedObservation">
			<Attribute Alias="DateTime" Name="dateRange">
				<Property QText="Question text" PText="Prompt text" Enabled="true" Collect="true" Alias="Date" Name="low">
					<Property QText="Question text" PText="Prompt text" Enabled="true" Collect="true" Alias="Date and Time (--DTC)" Name="value"/>
				</Property>
			</Attribute>
			<Attribute Alias="ReasonNotDone" Name="negationReason">
				<Property QText="Question text" PText="Prompt text" Enabled="false" Collect="true" Alias="Code" Name="code"/>
			</Attribute>
			<Attribute Alias="Position" Name="bodyPositionCode">
				<Property QText="Question text" PText="Prompt text" Alias="Body Position (--POS)" Name="code" Enabled="false" Collect="false"/>
			</Attribute>
			<Attribute Alias="Laterality" Name="targetAnatomicSiteLateralityCode">
				<Property QText="Question text" PText="Prompt text" Enabled="false" Collect="true" Alias="Laterality (--LAT)" Name="code"/>
			</Attribute>
		</Class>
		<Class Name="PerformedClinicalResult">
			<Attribute Alias="Result" Name="value" Datatype="PQR">
				<Property QText="Result value?" PText="Result" Enabled="true" Collect="true" Alias="Result Value (--ORRES)" Name="value"/>
				<Property QText="Result units?" PText="Units" Enabled="true" Collect="true" Alias="Result Units (--ORRESU)" Name="code">
					<Value>CLI-C66770_C49668</Value>
					<Value>CLI-C66770_C48500</Value>
					<Value>CLI-C71620_C41139</Value>
					<Value>CLI-C71620_C71253</Value>
				</Property>
			</Attribute>
			<Attribute Alias="Baseline" Name="baselineIndicator">
				<Property QText="Question text" PText="Prompt text" Enabled="false" Collect="true" Alias="Baseline (--BLFL)" Name="value">
					<Value>CLI-C66742_C49487</Value>
					<Value>CLI-C66742_C49488</Value>
				</Property>
			</Attribute>
		</Class>
	</BiomedicalConcept>
	<BiomedicalConcept Template="BCT-Obs_PQR" Scope="NS-ACME" Id="BC C25208" Name="Weight">
		<Class Name="DefinedObservation">
			<Attribute Alias="Test" Name="nameCode">
				<Property QText="" PText="" Enabled="true" Collect="false" Alias="Test Code (--TESTCD)" Name="code">
					<Value>CLI-C66741_C25208</Value>
				</Property>
				<Property QText="Question text" PText="Prompt text" Enabled="true" Collect="false" Alias="Name" Name="originalText">
					<Property QText="" PText="" Enabled="true" Collect="false" Alias="Test Name (--TEST)" Name="value">
						<Value>CLI-C67153_C25208</Value>
					</Property>
				</Property>
			</Attribute>
			<Attribute Alias="SiteOfAdministration" Name="targetAnatomicSiteCode">
				<Property QText="Question text" PText="Prompt text" Enabled="false" Collect="true" Alias="Location (--LOC)" Name="code"/>
			</Attribute>
			<Attribute Alias="Method" Name="methodCode">
				<Property QText="Question text" PText="Prompt text" Enabled="false" Collect="true" Alias="Method Code (--METHOD)" Name="code"/>
			</Attribute>
		</Class>
		<Class Name="PerformedObservation">
			<Attribute Alias="DateTime" Name="dateRange">
				<Property QText="Question text" PText="Prompt text" Enabled="true" Collect="true" Alias="Date" Name="low">
					<Property QText="Question text" PText="Prompt text" Enabled="true" Collect="true" Alias="Date and Time (--DTC)" Name="value"/>
				</Property>
			</Attribute>
			<Attribute Alias="ReasonNotDone" Name="negationReason">
				<Property QText="Question text" PText="Prompt text" Enabled="false" Collect="true" Alias="Code" Name="code"/>
			</Attribute>
			<Attribute Alias="Position" Name="bodyPositionCode">
				<Property QText="Question text" PText="Prompt text" Alias="Body Position (--POS)" Name="code" Enabled="true" Collect="false"/>
			</Attribute>
			<Attribute Alias="Laterality" Name="targetAnatomicSiteLateralityCode">
				<Property QText="Question text" PText="Prompt text" Enabled="false" Collect="true" Alias="Laterality (--LAT)" Name="code"/>
			</Attribute>
		</Class>
		<Class Name="PerformedClinicalResult">
			<Attribute Alias="Result" Name="value" Datatype="PQR">
				<Property QText="Result value?" PText="Result" Enabled="true" Collect="true" Alias="Result Value (--ORRES)" Name="value"/>
				<Property QText="Result units?" PText="Units" Enabled="true" Collect="true" Alias="Result Units (--ORRESU)" Name="code">
					<Value>CLI-C66770_C28252</Value>
					<Value>CLI-C66770_C48531</Value>
					<Value>CLI-C66770_C48155</Value>
					<Value>CLI-C71620_C48519</Value>
				</Property>
			</Attribute>
			<Attribute Alias="Baseline" Name="baselineIndicator">
				<Property QText="Question text" PText="Prompt text" Enabled="false" Collect="true" Alias="Baseline (--BLFL)" Name="value">
					<Value>CLI-C66742_C49487</Value>
					<Value>CLI-C66742_C49488</Value>
				</Property>
			</Attribute>
		</Class>
	</BiomedicalConcept>
	<BiomedicalConcept Template="BCT-Obs_PQR" Scope="NS-ACME" Id="BC C16358" Name="Body Mass Index">
		<Class Name="DefinedObservation">
			<Attribute Alias="Test" Name="nameCode">
				<Property QText="Question text" PText="Prompt text" Enabled="true" Collect="false" Alias="Test Code (--TESTCD)" Name="code">
					<Value>CLI-C66741_C16358</Value>
				</Property>
				<Property QText="Question text" PText="Prompt text" Enabled="true" Collect="false" Alias="Name" Name="originalText">
					<Property QText="Question text" PText="Prompt text" Enabled="true" Collect="false" Alias="Test Name (--TEST)" Name="value">
						<Value>CLI-C67153_C16358</Value>
					</Property>
				</Property>
			</Attribute>
			<Attribute Alias="SiteOfAdministration" Name="targetAnatomicSiteCode">
				<Property QText="Question text" PText="Prompt text" Enabled="false" Collect="true" Alias="Location (--LOC)" Name="code"/>
			</Attribute>
			<Attribute Alias="Method" Name="methodCode">
				<Property QText="Question text" PText="Prompt text" Enabled="false" Collect="true" Alias="Method Code (--METHOD)" Name="code"/>
			</Attribute>
		</Class>
		<Class Name="PerformedObservation">
			<Attribute Alias="DateTime" Name="dateRange">
				<Property QText="Question text" PText="Prompt text" Enabled="true" Collect="true" Alias="Date" Name="low">
					<Property QText="Question text" PText="Prompt text" Enabled="true" Collect="true" Alias="Date and Time (--DTC)" Name="value"/>
				</Property>
			</Attribute>
			<Attribute Alias="ReasonNotDone" Name="negationReason">
				<Property QText="Question text" PText="Prompt text" Enabled="false" Collect="true" Alias="Code" Name="code"/>
			</Attribute>
			<Attribute Alias="Position" Name="bodyPositionCode">
				<Property QText="Question text" PText="Prompt text" Alias="Body Position (--POS)" Name="code" Enabled="true" Collect="false"/>
			</Attribute>
			<Attribute Alias="Laterality" Name="targetAnatomicSiteLateralityCode">
				<Property QText="Question text" PText="Prompt text" Enabled="false" Collect="true" Alias="Laterality (--LAT)" Name="code"/>
			</Attribute>
		</Class>
		<Class Name="PerformedClinicalResult">
			<Attribute Alias="Result" Name="value" Datatype="PQR">
				<Property QText="Question text" PText="Prompt text" Enabled="true" Collect="true" Alias="Result Value (--ORRES)" Name="value"/>
				<Property QText="Question text" PText="Prompt text" Enabled="true" Collect="true" Alias="Result Units (--ORRESU)" Name="code">
					<Value>CLI-C66770_C49671</Value>
				</Property>
			</Attribute>
			<Attribute Alias="Baseline" Name="baselineIndicator">
				<Property QText="Question text" PText="Prompt text" Enabled="false" Collect="true" Alias="Baseline (--BLFL)" Name="value">
					<Value>CLI-C66742_C49487</Value>
					<Value>CLI-C66742_C49488</Value>
				</Property>
			</Attribute>
		</Class>
	</BiomedicalConcept>
	<BiomedicalConcept Template="BCT-Obs_PQR" Scope="NS-ACME" Id="BC C49677" Name="Heart Rate">
		<Class Name="DefinedObservation">
			<Attribute Alias="Test" Name="nameCode">
				<Property QText="Question text" PText="Prompt text" Enabled="true" Collect="false" Alias="Test Code (--TESTCD)" Name="code">
					<Value>CLI-C66741_C49677</Value>
				</Property>
				<Property QText="Question text" PText="Prompt text" Enabled="true" Collect="false" Alias="Name" Name="originalText">
					<Property QText="Question text" PText="Prompt text" Enabled="true" Collect="false" Alias="Test Name (--TEST)" Name="value">
						<Value>CLI-C67153_C49677</Value>
					</Property>
				</Property>
			</Attribute>
			<Attribute Alias="SiteOfAdministration" Name="targetAnatomicSiteCode">
				<Property QText="Question text" PText="Prompt text" Enabled="false" Collect="true" Alias="Location (--LOC)" Name="code"/>
			</Attribute>
			<Attribute Alias="Method" Name="methodCode">
				<Property QText="Question text" PText="Prompt text" Enabled="false" Collect="true" Alias="Method Code (--METHOD)" Name="code"/>
			</Attribute>
		</Class>
		<Class Name="PerformedObservation">
			<Attribute Alias="DateTime" Name="dateRange">
				<Property QText="Question text" PText="Prompt text" Enabled="true" Collect="true" Alias="Date" Name="low">
					<Property QText="Question text" PText="Prompt text" Enabled="true" Collect="true" Alias="Date and Time (--DTC)" Name="value"/>
				</Property>
			</Attribute>
			<Attribute Alias="ReasonNotDone" Name="negationReason">
				<Property QText="Question text" PText="Prompt text" Enabled="false" Collect="true" Alias="Code" Name="code"/>
			</Attribute>
			<Attribute Alias="Position" Name="bodyPositionCode">
				<Property QText="Question text" PText="Prompt text" Alias="Body Position (--POS)" Name="code" Enabled="true" Collect="true">
					<Value>CLI-C71148_C62122</Value>
					<Value>CLI-C71148_C62166</Value>
					<Value>CLI-C71148_C62167</Value>
				</Property>
			</Attribute>
			<Attribute Alias="Laterality" Name="targetAnatomicSiteLateralityCode">
				<Property QText="Question text" PText="Prompt text" Enabled="false" Collect="true" Alias="Laterality (--LAT)" Name="code"/>
			</Attribute>
		</Class>
		<Class Name="PerformedClinicalResult">
			<Attribute Alias="Result" Name="value" Datatype="PQR">
				<Property QText="Question text" PText="Prompt text" Enabled="true" Collect="true" Alias="Result Value (--ORRES)" Name="value"/>
				<Property QText="Question text" PText="Prompt text" Enabled="true" Collect="true" Alias="Result Units (--ORRESU)" Name="code">
					<Value>CLI-C66770_C49673</Value>
				</Property>
			</Attribute>
			<Attribute Alias="Baseline" Name="baselineIndicator">
				<Property QText="Question text" PText="Prompt text" Enabled="false" Collect="true" Alias="Baseline (--BLFL)" Name="value">
					<Value>CLI-C66742_C49487</Value>
					<Value>CLI-C66742_C49488</Value>
				</Property>
			</Attribute>
		</Class>
	</BiomedicalConcept>
	<BiomedicalConcept Template="BCT-Obs_PQR" Scope="NS-ACME" Id="BC C25298" Name="Systolic Blood Pressure">
		<Class Name="DefinedObservation">
			<Attribute Alias="Test" Name="nameCode">
				<Property QText="" PText="" Enabled="true" Collect="false" Alias="Test Code (--TESTCD)" Name="code">
					<Value>CLI-C66741_C25298</Value>
				</Property>
				<Property QText="Question text" PText="Prompt text" Enabled="true" Collect="false" Alias="Name" Name="originalText">
					<Property QText="" PText="" Enabled="true" Collect="false" Alias="Test Name (--TEST)" Name="value">
						<Value>CLI-C67153_C25298</Value>
					</Property>
				</Property>
			</Attribute>
			<Attribute Alias="SiteOfAdministration" Name="targetAnatomicSiteCode">
				<Property QText="Location of test" PText="Location" Enabled="false" Collect="true" Alias="Location (--LOC)" Name="code"/>
			</Attribute>
			<Attribute Alias="Method" Name="methodCode">
				<Property QText="Question text" PText="Prompt text" Enabled="false" Collect="true" Alias="Method Code (--METHOD)" Name="code"/>
			</Attribute>
		</Class>
		<Class Name="PerformedObservation">
			<Attribute Alias="DateTime" Name="dateRange">
				<Property QText="Question text" PText="Prompt text" Enabled="true" Collect="true" Alias="Date" Name="low">
					<Property QText="Question text" PText="Prompt text" Enabled="true" Collect="true" Alias="Date and Time (--DTC)" Name="value"/>
				</Property>
			</Attribute>
			<Attribute Alias="ReasonNotDone" Name="negationReason">
				<Property QText="Question text" PText="Prompt text" Enabled="false" Collect="true" Alias="Code" Name="code"/>
			</Attribute>
			<Attribute Alias="Position" Name="bodyPositionCode">
				<Property QText="Body position?" PText="Position" Alias="Body Position (--POS)" Name="code" Enabled="true" Collect="true">
					<Value>CLI-C71148_C62122</Value>
					<Value>CLI-C71148_C62166</Value>
					<Value>CLI-C71148_C62167</Value>
				</Property>
			</Attribute>
			<Attribute Alias="Laterality" Name="targetAnatomicSiteLateralityCode">
				<Property QText="Question text" PText="Prompt text" Enabled="false" Collect="true" Alias="Laterality (--LAT)" Name="code"/>
			</Attribute>
		</Class>
		<Class Name="PerformedClinicalResult">
			<Attribute Alias="Result" Name="value" Datatype="PQR">
				<Property QText="Result value?" PText="Result" Enabled="true" Collect="true" Alias="Result Value (--ORRES)" Name="value"/>
				<Property QText="Result units?" PText="Units" Enabled="true" Collect="true" Alias="Result Units (--ORRESU)" Name="code">
					<Value>CLI-C66770_C49670</Value>
				</Property>
			</Attribute>
			<Attribute Alias="Baseline" Name="baselineIndicator">
				<Property QText="Question text" PText="Prompt text" Enabled="false" Collect="true" Alias="Baseline (--BLFL)" Name="value">
					<Value>CLI-C66742_C49487</Value>
					<Value>CLI-C66742_C49488</Value>
				</Property>
			</Attribute>
		</Class>
	</BiomedicalConcept>
	<BiomedicalConcept Template="BCT-Obs_PQR" Scope="NS-ACME" Id="BC C25299" Name="Diastolic Blood Pressure">
		<Class Name="DefinedObservation">
			<Attribute Alias="Test" Name="nameCode">
				<Property QText="" PText="Prompt text" Enabled="true" Collect="false" Alias="Test Code (--TESTCD)" Name="code">
					<Value>CLI-C66741_C25299</Value>
				</Property>
				<Property QText="Question text" PText="Prompt text" Enabled="true" Collect="false" Alias="Name" Name="originalText">
					<Property QText="" PText="Prompt text" Enabled="true" Collect="false" Alias="Test Name (--TEST)" Name="value">
						<Value>CLI-C67153_C25299</Value>
					</Property>
				</Property>
			</Attribute>
			<Attribute Alias="SiteOfAdministration" Name="targetAnatomicSiteCode">
				<Property QText="Location of test" PText="Location"  Enabled="false" Collect="true" Alias="Location (--LOC)" Name="code"/>
			</Attribute>
			<Attribute Alias="Method" Name="methodCode">
				<Property QText="Question text" PText="Prompt text" Enabled="false" Collect="true" Alias="Method Code (--METHOD)" Name="code"/>
			</Attribute>
		</Class>
		<Class Name="PerformedObservation">
			<Attribute Alias="DateTime" Name="dateRange">
				<Property QText="Question text" PText="Prompt text" Enabled="true" Collect="true" Alias="Date" Name="low">
					<Property QText="Question text" PText="Prompt text" Enabled="true" Collect="true" Alias="Date and Time (--DTC)" Name="value"/>
				</Property>
			</Attribute>
			<Attribute Alias="ReasonNotDone" Name="negationReason">
				<Property QText="Question text" PText="Prompt text" Enabled="false" Collect="true" Alias="Code" Name="code"/>
			</Attribute>
			<Attribute Alias="Position" Name="bodyPositionCode">
				<Property QText="Body position?" PText="Position" Alias="Body Position (--POS)" Name="code" Enabled="true" Collect="true">
					<Value>CLI-C71148_C62122</Value>
					<Value>CLI-C71148_C62166</Value>
					<Value>CLI-C71148_C62167</Value>
				</Property>
			</Attribute>
			<Attribute Alias="Laterality" Name="targetAnatomicSiteLateralityCode">
				<Property QText="Question text" PText="Prompt text" Enabled="false" Collect="true" Alias="Laterality (--LAT)" Name="code"/>
			</Attribute>
		</Class>
		<Class Name="PerformedClinicalResult">
			<Attribute Alias="Result" Name="value" Datatype="PQR">
				<Property QText="Result value?" PText="Result" Enabled="true" Collect="true" Alias="Result Value (--ORRES)" Name="value"/>
				<Property QText="Result units?" PText="Units" Enabled="true" Collect="true" Alias="Result Units (--ORRESU)" Name="code">
					<Value>CLI-C66770_C49670</Value>
				</Property>
			</Attribute>
			<Attribute Alias="Baseline" Name="baselineIndicator">
				<Property QText="Question text" PText="Prompt text" Enabled="false" Collect="true" Alias="Baseline (--BLFL)" Name="value">
					<Value>CLI-C66742_C49487</Value>
					<Value>CLI-C66742_C49488</Value>
				</Property>
			</Attribute>
		</Class>
	</BiomedicalConcept>
	<BiomedicalConcept Template="BCT-Obs_PQR" Scope="NS-ACME" Id="BC C98793" Name="Triceps Skinfold Thickness">
		<Class Name="DefinedObservation">
			<Attribute Alias="Test" Name="nameCode">
				<Property QText="Question text" PText="Prompt text" Enabled="true" Collect="false" Alias="Test Code (--TESTCD)" Name="code">
					<Value>CLI-C66741_C98793</Value>
				</Property>
				<Property QText="Question text" PText="Prompt text" Enabled="true" Collect="false" Alias="Name" Name="originalText">
					<Property QText="Question text" PText="Prompt text" Enabled="true" Collect="false" Alias="Test Name (--TEST)" Name="value">
						<Value>CLI-C67153_C98793</Value>
					</Property>
				</Property>
			</Attribute>
			<Attribute Alias="SiteOfAdministration" Name="targetAnatomicSiteCode">
				<Property QText="Location of test" PText="Location" Enabled="false" Collect="true" Alias="Location (--LOC)" Name="code"/>
			</Attribute>
			<Attribute Alias="Method" Name="methodCode">
				<Property QText="Question text" PText="Prompt text" Enabled="false" Collect="true" Alias="Method Code (--METHOD)" Name="code"/>
			</Attribute>
		</Class>
		<Class Name="PerformedObservation">
			<Attribute Alias="DateTime" Name="dateRange">
				<Property QText="Question text" PText="Prompt text" Enabled="true" Collect="true" Alias="Date" Name="low">
					<Property QText="Question text" PText="Prompt text" Enabled="true" Collect="true" Alias="Date and Time (--DTC)" Name="value"/>
				</Property>
			</Attribute>
			<Attribute Alias="ReasonNotDone" Name="negationReason">
				<Property QText="Question text" PText="Prompt text" Enabled="false" Collect="true" Alias="Code" Name="code"/>
			</Attribute>
			<Attribute Alias="Position" Name="bodyPositionCode">
				<Property QText="Question text" PText="Prompt text" Alias="Body Position (--POS)" Name="code" Enabled="false" Collect="true"/>
			</Attribute>
			<Attribute Alias="Laterality" Name="targetAnatomicSiteLateralityCode">
				<Property QText="Question text" PText="Prompt text" Enabled="false" Collect="true" Alias="Laterality (--LAT)" Name="code"/>
			</Attribute>
		</Class>
		<Class Name="PerformedClinicalResult">
			<Attribute Alias="Result" Name="value" Datatype="PQR">
				<Property QText="Question text" PText="Prompt text" Enabled="true" Collect="true" Alias="Result Value (--ORRES)" Name="value"/>
				<Property QText="Question text" PText="Prompt text" Enabled="true" Collect="true" Alias="Result Units (--ORRESU)" Name="code">
					<Value>CLI-C66770_C28251</Value>
				</Property>
			</Attribute>
			<Attribute Alias="Baseline" Name="baselineIndicator">
				<Property QText="Question text" PText="Prompt text" Enabled="false" Collect="true" Alias="Baseline (--BLFL)" Name="value">
					<Value>CLI-C66742_C49487</Value>
					<Value>CLI-C66742_C49488</Value>
				</Property>
			</Attribute>
		</Class>
	</BiomedicalConcept>
	<BiomedicalConcept Template="BCT-Obs_PQR" Scope="NS-ACME" Id="BC A00003" Name="Mid Upper Arm Circumference">
		<Class Name="DefinedObservation">
			<Attribute Alias="Test" Name="nameCode">
				<Property QText="Question text" PText="Prompt text" Enabled="true" Collect="false" Alias="Test Code (--TESTCD)" Name="code">
					<Value>TH-ACME_CDISCEXTENSION_VSTESTCD_MUAC</Value>
				</Property>
				<Property QText="Question text" PText="Prompt text" Enabled="true" Collect="false" Alias="Name" Name="originalText">
					<Property QText="Question text" PText="Prompt text" Enabled="true" Collect="false" Alias="Test Name (--TEST)" Name="value">
						<Value>TH-ACME_CDISCEXTENSION_VSTESTCD_MUAC</Value>
					</Property>
				</Property>
			</Attribute>
			<Attribute Alias="SiteOfAdministration" Name="targetAnatomicSiteCode">
				<Property QText="Location of test" PText="Location" Enabled="false" Collect="true" Alias="Location (--LOC)" Name="code"/>
			</Attribute>
			<Attribute Alias="Method" Name="methodCode">
				<Property QText="Question text" PText="Prompt text" Enabled="false" Collect="true" Alias="Method Code (--METHOD)" Name="code"/>
			</Attribute>
		</Class>
		<Class Name="PerformedObservation">
			<Attribute Alias="DateTime" Name="dateRange">
				<Property QText="Question text" PText="Prompt text" Enabled="true" Collect="true" Alias="Date" Name="low">
					<Property QText="Question text" PText="Prompt text" Enabled="true" Collect="true" Alias="Date and Time (--DTC)" Name="value"/>
				</Property>
			</Attribute>
			<Attribute Alias="ReasonNotDone" Name="negationReason">
				<Property QText="Question text" PText="Prompt text" Enabled="false" Collect="true" Alias="Code" Name="code"/>
			</Attribute>
			<Attribute Alias="Position" Name="bodyPositionCode">
				<Property QText="Question text" PText="Prompt text" Alias="Body Position (--POS)" Name="code" Enabled="true" Collect="true">
					<Value>CLI-C71148_C62122</Value>
					<Value>CLI-C71148_C62166</Value>
					<Value>CLI-C71148_C62167</Value>
				</Property>
			</Attribute>
			<Attribute Alias="Laterality" Name="targetAnatomicSiteLateralityCode">
				<Property QText="Question text" PText="Prompt text" Enabled="true" Collect="true" Alias="Laterality (--LAT)" Name="code">
					<Value>CLI-C99073_C25228</Value>
					<Value>CLI-C99073_C25229</Value>
				</Property>
			</Attribute>
		</Class>
		<Class Name="PerformedClinicalResult">
			<Attribute Alias="Result" Name="value" Datatype="PQR">
				<Property QText="Question text" PText="Prompt text" Enabled="true" Collect="true" Alias="Result Value (--ORRES)" Name="value"/>
				<Property QText="Question text" PText="Prompt text" Enabled="true" Collect="true" Alias="Result Units (--ORRESU)" Name="code">
					<Value>CLI-C66770_C49668</Value>
				</Property>
			</Attribute>
			<Attribute Alias="Baseline" Name="baselineIndicator">
				<Property QText="Question text" PText="Prompt text" Enabled="false" Collect="true" Alias="Baseline (--BLFL)" Name="value">
					<Value>CLI-C66742_C49487</Value>
					<Value>CLI-C66742_C49488</Value>
				</Property>
			</Attribute>
		</Class>
	</BiomedicalConcept>
	<BiomedicalConcept Template="BCT-Obs_PQR" Scope="NS-ACME" Id="BC C81255" Name="Head Circumference">
		<Class Name="DefinedObservation">
			<Attribute Alias="Test" Name="nameCode">
				<Property QText="Question text" PText="Prompt text" Enabled="true" Collect="false" Alias="Test Code (--TESTCD)" Name="code">
					<Value>CLI-C66741_C81255</Value>
				</Property>
				<Property QText="Question text" PText="Prompt text" Enabled="true" Collect="false" Alias="Name" Name="originalText">
					<Property QText="Question text" PText="Prompt text" Enabled="true" Collect="false" Alias="Test Name (--TEST)" Name="value">
						<Value>CLI-C67153_C81255</Value>
					</Property>
				</Property>
			</Attribute>
			<Attribute Alias="SiteOfAdministration" Name="targetAnatomicSiteCode">
				<Property QText="Location of test" PText="Location" Enabled="false" Collect="true" Alias="Location (--LOC)" Name="code"/>
			</Attribute>
			<Attribute Alias="Method" Name="methodCode">
				<Property QText="Question text" PText="Prompt text" Enabled="false" Collect="true" Alias="Method Code (--METHOD)" Name="code"/>
			</Attribute>
		</Class>
		<Class Name="PerformedObservation">
			<Attribute Alias="DateTime" Name="dateRange">
				<Property QText="Question text" PText="Prompt text" Enabled="true" Collect="true" Alias="Date" Name="low">
					<Property QText="Question text" PText="Prompt text" Enabled="true" Collect="true" Alias="Date and Time (--DTC)" Name="value"/>
				</Property>
			</Attribute>
			<Attribute Alias="ReasonNotDone" Name="negationReason">
				<Property QText="Question text" PText="Prompt text" Enabled="false" Collect="true" Alias="Code" Name="code"/>
			</Attribute>
			<Attribute Alias="Position" Name="bodyPositionCode">
				<Property QText="Question text" PText="Prompt text" Alias="Body Position (--POS)" Name="code" Enabled="false" Collect="true"/>
			</Attribute>
			<Attribute Alias="Laterality" Name="targetAnatomicSiteLateralityCode">
				<Property QText="Question text" PText="Prompt text" Enabled="false" Collect="true" Alias="Laterality (--LAT)" Name="code"/>
			</Attribute>
		</Class>
		<Class Name="PerformedClinicalResult">
			<Attribute Alias="Result" Name="value" Datatype="PQR">
				<Property QText="Question text" PText="Prompt text" Enabled="true" Collect="true" Alias="Result Value (--ORRES)" Name="value"/>
				<Property QText="Question text" PText="Prompt text" Enabled="true" Collect="true" Alias="Result Units (--ORRESU)" Name="code">
					<Value>CLI-C66770_C49668</Value>
				</Property>
			</Attribute>
			<Attribute Alias="Baseline" Name="baselineIndicator">
				<Property QText="Question text" PText="Prompt text" Enabled="false" Collect="true" Alias="Baseline (--BLFL)" Name="value">
					<Value>CLI-C66742_C49487</Value>
					<Value>CLI-C66742_C49488</Value>
				</Property>
			</Attribute>
		</Class>
	</BiomedicalConcept>
	<BiomedicalConcept Template="BCT-Obs_PQR" Scope="NS-ACME" Id="BC C49678" Name="Respiratory Rate">
		<Class Name="DefinedObservation">
			<Attribute Alias="Test" Name="nameCode">
				<Property QText="Question text" PText="Prompt text" Enabled="true" Collect="false" Alias="Test Code (--TESTCD)" Name="code">
					<Value>CLI-C66741_C49678</Value>
				</Property>
				<Property QText="Question text" PText="Prompt text" Enabled="true" Collect="false" Alias="Name" Name="originalText">
					<Property QText="Question text" PText="Prompt text" Enabled="true" Collect="false" Alias="Test Name (--TEST)" Name="value">
						<Value>CLI-C67153_C49678</Value>
					</Property>
				</Property>
			</Attribute>
			<Attribute Alias="SiteOfAdministration" Name="targetAnatomicSiteCode">
				<Property QText="Location of test" PText="Location" Enabled="false" Collect="true" Alias="Location (--LOC)" Name="code"/>
			</Attribute>
			<Attribute Alias="Method" Name="methodCode">
				<Property QText="Question text" PText="Prompt text" Enabled="false" Collect="true" Alias="Method Code (--METHOD)" Name="code"/>
			</Attribute>
		</Class>
		<Class Name="PerformedObservation">
			<Attribute Alias="DateTime" Name="dateRange">
				<Property QText="Question text" PText="Prompt text" Enabled="true" Collect="true" Alias="Date" Name="low">
					<Property QText="Question text" PText="Prompt text" Enabled="true" Collect="true" Alias="Date and Time (--DTC)" Name="value"/>
				</Property>
			</Attribute>
			<Attribute Alias="ReasonNotDone" Name="negationReason">
				<Property QText="Question text" PText="Prompt text" Enabled="false" Collect="true" Alias="Code" Name="code"/>
			</Attribute>
			<Attribute Alias="Position" Name="bodyPositionCode">
				<Property QText="Question text" PText="Prompt text" Alias="Body Position (--POS)" Name="code" Enabled="false" Collect="true"/>
			</Attribute>
			<Attribute Alias="Laterality" Name="targetAnatomicSiteLateralityCode">
				<Property QText="Question text" PText="Prompt text" Enabled="false" Collect="true" Alias="Laterality (--LAT)" Name="code"/>
			</Attribute>
		</Class>
		<Class Name="PerformedClinicalResult">
			<Attribute Alias="Result" Name="value" Datatype="PQR">
				<Property QText="Question text" PText="Prompt text" Enabled="true" Collect="true" Alias="Result Value (--ORRES)" Name="value"/>
				<Property QText="Question text" PText="Prompt text" Enabled="true" Collect="true" Alias="Result Units (--ORRESU)" Name="code">
					<Value>CLI-C66770_C49674</Value>
				</Property>
			</Attribute>
			<Attribute Alias="Baseline" Name="baselineIndicator">
				<Property QText="Question text" PText="Prompt text" Enabled="false" Collect="true" Alias="Baseline (--BLFL)" Name="value">
					<Value>CLI-C66742_C49487</Value>
					<Value>CLI-C66742_C49488</Value>
				</Property>
			</Attribute>
		</Class>
	</BiomedicalConcept>
	<BiomedicalConcept Template="BCT-Obs_PQR" Scope="NS-ACME" Id="BC C98785" Name="Subscapular Skinfold Thickness">
		<Class Name="DefinedObservation">
			<Attribute Alias="Test" Name="nameCode">
				<Property QText="Question text" PText="Prompt text" Enabled="true" Collect="false" Alias="Test Code (--TESTCD)" Name="code">
					<Value>CLI-C66741_C98785</Value>
				</Property>
				<Property QText="Question text" PText="Prompt text" Enabled="true" Collect="false" Alias="Name" Name="originalText">
					<Property QText="Question text" PText="Prompt text" Enabled="true" Collect="false" Alias="Test Name (--TEST)" Name="value">
						<Value>CLI-C67153_C98785</Value>
					</Property>
				</Property>
			</Attribute>
			<Attribute Alias="SiteOfAdministration" Name="targetAnatomicSiteCode">
				<Property QText="Location of test" PText="Location" Enabled="false" Collect="true" Alias="Location (--LOC)" Name="code"/>
			</Attribute>
			<Attribute Alias="Method" Name="methodCode">
				<Property QText="Question text" PText="Prompt text" Enabled="false" Collect="true" Alias="Method Code (--METHOD)" Name="code"/>
			</Attribute>
		</Class>
		<Class Name="PerformedObservation">
			<Attribute Alias="DateTime" Name="dateRange">
				<Property QText="Question text" PText="Prompt text" Enabled="true" Collect="true" Alias="Date" Name="low">
					<Property QText="Question text" PText="Prompt text" Enabled="true" Collect="true" Alias="Date and Time (--DTC)" Name="value"/>
				</Property>
			</Attribute>
			<Attribute Alias="ReasonNotDone" Name="negationReason">
				<Property QText="Question text" PText="Prompt text" Enabled="false" Collect="true" Alias="Code" Name="code"/>
			</Attribute>
			<Attribute Alias="Position" Name="bodyPositionCode">
				<Property QText="Question text" PText="Prompt text" Alias="Body Position (--POS)" Name="code" Enabled="false" Collect="true"/>
			</Attribute>
			<Attribute Alias="Laterality" Name="targetAnatomicSiteLateralityCode">
				<Property QText="Question text" PText="Prompt text" Enabled="true" Collect="true" Alias="Laterality (--LAT)" Name="code">
					<Value>CLI-C99073_C25228</Value>
					<Value>CLI-C99073_C25229</Value>
				</Property>
			</Attribute>
		</Class>
		<Class Name="PerformedClinicalResult">
			<Attribute Alias="Result" Name="value" Datatype="PQR">
				<Property QText="Question text" PText="Prompt text" Enabled="true" Collect="true" Alias="Result Value (--ORRES)" Name="value"/>
				<Property QText="Question text" PText="Prompt text" Enabled="true" Collect="true" Alias="Result Units (--ORRESU)" Name="code">
					<Value>CLI-C66770_C28251</Value>
				</Property>
			</Attribute>
			<Attribute Alias="Baseline" Name="baselineIndicator">
				<Property QText="Question text" PText="Prompt text" Enabled="false" Collect="true" Alias="Baseline (--BLFL)" Name="value">
					<Value>CLI-C66742_C49487</Value>
					<Value>CLI-C66742_C49488</Value>
				</Property>
			</Attribute>
		</Class>
	</BiomedicalConcept>
	<BiomedicalConcept Template="BCT-Obs_PQR" Scope="NS-ACME" Id="BC C25206" Name="Temperature">
		<Class Name="DefinedObservation">
			<Attribute Alias="Test" Name="nameCode">
				<Property QText="Question text" PText="Prompt text" Enabled="true" Collect="false" Alias="Test Code (--TESTCD)" Name="code">
					<Value>CLI-C66741_C25206</Value>
				</Property>
				<Property QText="Question text" PText="Prompt text" Enabled="true" Collect="false" Alias="Name" Name="originalText">
					<Property QText="Question text" PText="Prompt text" Enabled="true" Collect="false" Alias="Test Name (--TEST)" Name="value">
						<Value>CLI-C67153_C25206</Value>
					</Property>
				</Property>
			</Attribute>
			<Attribute Alias="SiteOfAdministration" Name="targetAnatomicSiteCode">
				<Property QText="Location of test" PText="Location" Enabled="false" Collect="true" Alias="Location (--LOC)" Name="code"/>
			</Attribute>
			<Attribute Alias="Method" Name="methodCode">
				<Property QText="Question text" PText="Prompt text" Enabled="false" Collect="true" Alias="Method Code (--METHOD)" Name="code"/>
			</Attribute>
		</Class>
		<Class Name="PerformedObservation">
			<Attribute Alias="DateTime" Name="dateRange">
				<Property QText="Question text" PText="Prompt text" Enabled="true" Collect="true" Alias="Date" Name="low">
					<Property QText="Question text" PText="Prompt text" Enabled="true" Collect="true" Alias="Date and Time (--DTC)" Name="value"/>
				</Property>
			</Attribute>
			<Attribute Alias="ReasonNotDone" Name="negationReason">
				<Property QText="Question text" PText="Prompt text" Enabled="false" Collect="true" Alias="Code" Name="code"/>
			</Attribute>
			<Attribute Alias="Position" Name="bodyPositionCode">
				<Property QText="Question text" PText="Prompt text" Alias="Body Position (--POS)" Name="code" Enabled="false" Collect="true"/>
			</Attribute>
			<Attribute Alias="Laterality" Name="targetAnatomicSiteLateralityCode">
				<Property QText="Question text" PText="Prompt text" Enabled="false" Collect="true" Alias="Laterality (--LAT)" Name="code"/>
			</Attribute>
		</Class>
		<Class Name="PerformedClinicalResult">
			<Attribute Alias="Result" Name="value" Datatype="PQR">
				<Property QText="Question text" PText="Prompt text" Enabled="true" Collect="true" Alias="Result Value (--ORRES)" Name="value"/>
				<Property QText="Question text" PText="Prompt text" Enabled="true" Collect="true" Alias="Result Units (--ORRESU)" Name="code">
					<Value>CLI-C66770_C42559</Value>
				</Property>
			</Attribute>
			<Attribute Alias="Baseline" Name="baselineIndicator">
				<Property QText="Question text" PText="Prompt text" Enabled="false" Collect="true" Alias="Baseline (--BLFL)" Name="value">
					<Value>CLI-C66742_C49487</Value>
					<Value>CLI-C66742_C49488</Value>
				</Property>
			</Attribute>
		</Class>
	</BiomedicalConcept>
	<BiomedicalConcept Template="BCT-Obs_PQR" Scope="NS-ACME" Id="BC A00002" Name="APGAR Score">
		<Class Name="DefinedObservation">
			<Attribute Alias="Test" Name="nameCode">
				<Property QText="Question text" PText="Prompt text" Enabled="true" Collect="false" Alias="Test Code (--TESTCD)" Name="code">
					<Value>TH-ACME_CDISCEXTENSION_VSTESTCD_APGAR</Value>
				</Property>
				<Property QText="Question text" PText="Prompt text" Enabled="true" Collect="false" Alias="Name" Name="originalText">
					<Property QText="Question text" PText="Prompt text" Enabled="true" Collect="false" Alias="Test Name (--TEST)" Name="value">
						<Value>TH-ACME_CDISCEXTENSION_VSTESTCD_APGAR</Value>
					</Property>
				</Property>
			</Attribute>
			<Attribute Alias="SiteOfAdministration" Name="targetAnatomicSiteCode">
				<Property QText="Location of test" PText="Location" Enabled="false" Collect="true" Alias="Location (--LOC)" Name="code"> </Property>
			</Attribute>
			<Attribute Alias="Method" Name="methodCode">
				<Property QText="Question text" PText="Prompt text" Enabled="false" Collect="true" Alias="Method Code (--METHOD)" Name="code"/>
			</Attribute>
		</Class>
		<Class Name="PerformedObservation">
			<Attribute Alias="DateTime" Name="dateRange">
				<Property QText="Question text" PText="Prompt text" Enabled="true" Collect="true" Alias="Date" Name="low">
					<Property QText="Question text" PText="Prompt text" Enabled="true" Collect="true" Alias="Date and Time (--DTC)" Name="value"/>
				</Property>
			</Attribute>
			<Attribute Alias="ReasonNotDone" Name="negationReason">
				<Property QText="Question text" PText="Prompt text" Enabled="false" Collect="true" Alias="Code" Name="code"/>
			</Attribute>
			<Attribute Alias="Position" Name="bodyPositionCode">
				<Property QText="Question text" PText="Prompt text" Alias="Body Position (--POS)" Name="code" Enabled="false" Collect="true"/>
			</Attribute>
			<Attribute Alias="Laterality" Name="targetAnatomicSiteLateralityCode">
				<Property QText="Question text" PText="Prompt text" Enabled="false" Collect="true" Alias="Laterality (--LAT)" Name="code"/>
			</Attribute>
		</Class>
		<Class Name="PerformedClinicalResult">
			<Attribute Alias="Result" Name="value" Datatype="PQR">
				<Property QText="Question text" PText="Prompt text" Enabled="true" Collect="true" Alias="Result Value (--ORRES)" Name="value"/>
				<Property QText="Question text" PText="Prompt text" Enabled="true" Collect="true" Alias="Result Units (--ORRESU)" Name="code"/>
			</Attribute>
			<Attribute Alias="Baseline" Name="baselineIndicator">
				<Property QText="Question text" PText="Prompt text" Enabled="false" Collect="true" Alias="Baseline (--BLFL)" Name="value">
					<Value>CLI-C66742_C49487</Value>
					<Value>CLI-C66742_C49488</Value>
				</Property>
			</Attribute>
		</Class>
	</BiomedicalConcept>
</BiomedicalConcepts>
