{"type":"http://www.assero.co.uk/BusinessDomain#ClassDomain","id":"M-CDISC_SDTMMODELFINDINGS","namespace":"http://www.assero.co.uk/MDRSdtmMd/CDISC/V3","label":"Findings","extension_properties":[],"origin":"","change_description":"","creation_date":"2013-11-26T00:00:00+00:00","last_changed_date":"2013-11-26T00:00:00+00:00","explanatory_comment":"","registration_state":{"namespace":"http://www.assero.co.uk/MDRItems","id":"RS-CDISC_SDTMMODELFINDINGS-3","registration_authority":{"uri":"http://www.assero.co.uk/RA#DUNS084433759","rdf_type":"http://www.assero.co.uk/ISO11179Registration#RegistrationAuthority","organization_identifier":"084433759","international_code_designator":"DUNS","owner":false,"ra_namespace":{"uri":"http://www.assero.co.uk/NS#CDISC","rdf_type":"http://www.assero.co.uk/ISO11179Identification#Namespace","short_name":"CDISC","name":"Clinical Data Interchange Standards Consortium","authority":"www.cdisc.org"}},"registration_status":"Standard","administrative_note":"","effective_date":"2016-01-01T00:00:00+00:00","until_date":"2016-01-01T00:00:00+00:00","current":false,"unresolved_issue":"","administrative_status":"","previous_state":"Incomplete"},"scoped_identifier":{"id":"SI-CDISC_SDTMMODELFINDINGS-3","identifier":"SDTMMODEL FINDINGS","version_label":"1.4","version":3,"semantic_version":"1.4.0","namespace":{"uri":"http://www.assero.co.uk/NS#CDISC","rdf_type":"http://www.assero.co.uk/ISO11179Identification#Namespace","short_name":"CDISC","name":"Clinical Data Interchange Standards Consortium","authority":"www.cdisc.org"}},"ordinal":1,"rule":"","children":[{"type":"http://www.assero.co.uk/BusinessDomain#ClassVariable","id":"M-CDISC_SDTMMODELFINDINGS_STUDYID","namespace":"http://www.assero.co.uk/MDRSdtmMd/CDISC/V3","label":"Study Identifier","extension_properties":[],"ordinal":1,"rule":"","name":"STUDYID","variable_ref":{"type":"http://www.assero.co.uk/BusinessOperational#CReference","id":"M-CDISC_SDTMMODELFINDINGS_STUDYID_CR1","namespace":"http://www.assero.co.uk/MDRSdtmMd/CDISC/V3","label":"Based on Variable Reference","extension_properties":[],"enabled":true,"optional":false,"ordinal":1,"local_label":"","subject_ref":{"namespace":"http://www.assero.co.uk/MDRSdtmM/CDISC/V3","id":"M-CDISC_SDTMMODEL_STUDYID"}}},{"type":"http://www.assero.co.uk/BusinessDomain#ClassVariable","id":"M-CDISC_SDTMMODELFINDINGS_DOMAIN","namespace":"http://www.assero.co.uk/MDRSdtmMd/CDISC/V3","label":"Domain Abbreviation","extension_properties":[],"ordinal":2,"rule":"","name":"DOMAIN","variable_ref":{"type":"http://www.assero.co.uk/BusinessOperational#CReference","id":"M-CDISC_SDTMMODELFINDINGS_DOMAIN_CR1","namespace":"http://www.assero.co.uk/MDRSdtmMd/CDISC/V3","label":"Based on Variable Reference","extension_properties":[],"enabled":true,"optional":false,"ordinal":1,"local_label":"","subject_ref":{"namespace":"http://www.assero.co.uk/MDRSdtmM/CDISC/V3","id":"M-CDISC_SDTMMODEL_DOMAIN"}}},{"type":"http://www.assero.co.uk/BusinessDomain#ClassVariable","id":"M-CDISC_SDTMMODELFINDINGS_USUBJID","namespace":"http://www.assero.co.uk/MDRSdtmMd/CDISC/V3","label":"Unique Subject Identifier","extension_properties":[],"ordinal":3,"rule":"","name":"USUBJID","variable_ref":{"type":"http://www.assero.co.uk/BusinessOperational#CReference","id":"M-CDISC_SDTMMODELFINDINGS_USUBJID_CR1","namespace":"http://www.assero.co.uk/MDRSdtmMd/CDISC/V3","label":"Based on Variable Reference","extension_properties":[],"enabled":true,"optional":false,"ordinal":1,"local_label":"","subject_ref":{"namespace":"http://www.assero.co.uk/MDRSdtmM/CDISC/V3","id":"M-CDISC_SDTMMODEL_USUBJID"}}},{"type":"http://www.assero.co.uk/BusinessDomain#ClassVariable","id":"M-CDISC_SDTMMODELFINDINGS_POOLID","namespace":"http://www.assero.co.uk/MDRSdtmMd/CDISC/V3","label":"Pool Identifier","extension_properties":[],"ordinal":4,"rule":"","name":"POOLID","variable_ref":{"type":"http://www.assero.co.uk/BusinessOperational#CReference","id":"M-CDISC_SDTMMODELFINDINGS_POOLID_CR1","namespace":"http://www.assero.co.uk/MDRSdtmMd/CDISC/V3","label":"Based on Variable Reference","extension_properties":[],"enabled":true,"optional":false,"ordinal":1,"local_label":"","subject_ref":{"namespace":"http://www.assero.co.uk/MDRSdtmM/CDISC/V3","id":"M-CDISC_SDTMMODEL_POOLID"}}},{"type":"http://www.assero.co.uk/BusinessDomain#ClassVariable","id":"M-CDISC_SDTMMODELFINDINGS_SPDEVID","namespace":"http://www.assero.co.uk/MDRSdtmMd/CDISC/V3","label":"Sponsor Device Identifier","extension_properties":[],"ordinal":5,"rule":"","name":"SPDEVID","variable_ref":{"type":"http://www.assero.co.uk/BusinessOperational#CReference","id":"M-CDISC_SDTMMODELFINDINGS_SPDEVID_CR1","namespace":"http://www.assero.co.uk/MDRSdtmMd/CDISC/V3","label":"Based on Variable Reference","extension_properties":[],"enabled":true,"optional":false,"ordinal":1,"local_label":"","subject_ref":{"namespace":"http://www.assero.co.uk/MDRSdtmM/CDISC/V3","id":"M-CDISC_SDTMMODEL_SPDEVID"}}},{"type":"http://www.assero.co.uk/BusinessDomain#ClassVariable","id":"M-CDISC_SDTMMODELFINDINGS_xxSEQ","namespace":"http://www.assero.co.uk/MDRSdtmMd/CDISC/V3","label":"Sequence Number","extension_properties":[],"ordinal":6,"rule":"","name":"--SEQ","variable_ref":{"type":"http://www.assero.co.uk/BusinessOperational#CReference","id":"M-CDISC_SDTMMODELFINDINGS_xxSEQ_CR1","namespace":"http://www.assero.co.uk/MDRSdtmMd/CDISC/V3","label":"Based on Variable Reference","extension_properties":[],"enabled":true,"optional":false,"ordinal":1,"local_label":"","subject_ref":{"namespace":"http://www.assero.co.uk/MDRSdtmM/CDISC/V3","id":"M-CDISC_SDTMMODEL_xxSEQ"}}},{"type":"http://www.assero.co.uk/BusinessDomain#ClassVariable","id":"M-CDISC_SDTMMODELFINDINGS_xxGRPID","namespace":"http://www.assero.co.uk/MDRSdtmMd/CDISC/V3","label":"Group ID","extension_properties":[],"ordinal":7,"rule":"","name":"--GRPID","variable_ref":{"type":"http://www.assero.co.uk/BusinessOperational#CReference","id":"M-CDISC_SDTMMODELFINDINGS_xxGRPID_CR1","namespace":"http://www.assero.co.uk/MDRSdtmMd/CDISC/V3","label":"Based on Variable Reference","extension_properties":[],"enabled":true,"optional":false,"ordinal":1,"local_label":"","subject_ref":{"namespace":"http://www.assero.co.uk/MDRSdtmM/CDISC/V3","id":"M-CDISC_SDTMMODEL_xxGRPID"}}},{"type":"http://www.assero.co.uk/BusinessDomain#ClassVariable","id":"M-CDISC_SDTMMODELFINDINGS_xxREFID","namespace":"http://www.assero.co.uk/MDRSdtmMd/CDISC/V3","label":"Reference ID","extension_properties":[],"ordinal":8,"rule":"","name":"--REFID","variable_ref":{"type":"http://www.assero.co.uk/BusinessOperational#CReference","id":"M-CDISC_SDTMMODELFINDINGS_xxREFID_CR1","namespace":"http://www.assero.co.uk/MDRSdtmMd/CDISC/V3","label":"Based on Variable Reference","extension_properties":[],"enabled":true,"optional":false,"ordinal":1,"local_label":"","subject_ref":{"namespace":"http://www.assero.co.uk/MDRSdtmM/CDISC/V3","id":"M-CDISC_SDTMMODEL_xxREFID"}}},{"type":"http://www.assero.co.uk/BusinessDomain#ClassVariable","id":"M-CDISC_SDTMMODELFINDINGS_xxSPID","namespace":"http://www.assero.co.uk/MDRSdtmMd/CDISC/V3","label":"Sponsor-Defined Identifier","extension_properties":[],"ordinal":9,"rule":"","name":"--SPID","variable_ref":{"type":"http://www.assero.co.uk/BusinessOperational#CReference","id":"M-CDISC_SDTMMODELFINDINGS_xxSPID_CR1","namespace":"http://www.assero.co.uk/MDRSdtmMd/CDISC/V3","label":"Based on Variable Reference","extension_properties":[],"enabled":true,"optional":false,"ordinal":1,"local_label":"","subject_ref":{"namespace":"http://www.assero.co.uk/MDRSdtmM/CDISC/V3","id":"M-CDISC_SDTMMODEL_xxSPID"}}},{"type":"http://www.assero.co.uk/BusinessDomain#ClassVariable","id":"M-CDISC_SDTMMODELFINDINGS_xxLNKID","namespace":"http://www.assero.co.uk/MDRSdtmMd/CDISC/V3","label":"Link ID","extension_properties":[],"ordinal":10,"rule":"","name":"--LNKID","variable_ref":{"type":"http://www.assero.co.uk/BusinessOperational#CReference","id":"M-CDISC_SDTMMODELFINDINGS_xxLNKID_CR1","namespace":"http://www.assero.co.uk/MDRSdtmMd/CDISC/V3","label":"Based on Variable Reference","extension_properties":[],"enabled":true,"optional":false,"ordinal":1,"local_label":"","subject_ref":{"namespace":"http://www.assero.co.uk/MDRSdtmM/CDISC/V3","id":"M-CDISC_SDTMMODEL_xxLNKID"}}},{"type":"http://www.assero.co.uk/BusinessDomain#ClassVariable","id":"M-CDISC_SDTMMODELFINDINGS_xxLNKGRP","namespace":"http://www.assero.co.uk/MDRSdtmMd/CDISC/V3","label":"Link Group ID","extension_properties":[],"ordinal":11,"rule":"","name":"--LNKGRP","variable_ref":{"type":"http://www.assero.co.uk/BusinessOperational#CReference","id":"M-CDISC_SDTMMODELFINDINGS_xxLNKGRP_CR1","namespace":"http://www.assero.co.uk/MDRSdtmMd/CDISC/V3","label":"Based on Variable Reference","extension_properties":[],"enabled":true,"optional":false,"ordinal":1,"local_label":"","subject_ref":{"namespace":"http://www.assero.co.uk/MDRSdtmM/CDISC/V3","id":"M-CDISC_SDTMMODEL_xxLNKGRP"}}},{"type":"http://www.assero.co.uk/BusinessDomain#ClassVariable","id":"M-CDISC_SDTMMODELFINDINGS_xxTESTCD","namespace":"http://www.assero.co.uk/MDRSdtmMd/CDISC/V3","label":"Short Name of Measurement, Test or Examination","extension_properties":[],"ordinal":12,"rule":"","name":"--TESTCD","variable_ref":{"type":"http://www.assero.co.uk/BusinessOperational#CReference","id":"M-CDISC_SDTMMODELFINDINGS_xxTESTCD_CR1","namespace":"http://www.assero.co.uk/MDRSdtmMd/CDISC/V3","label":"Based on Variable Reference","extension_properties":[],"enabled":true,"optional":false,"ordinal":1,"local_label":"","subject_ref":{"namespace":"http://www.assero.co.uk/MDRSdtmM/CDISC/V3","id":"M-CDISC_SDTMMODEL_xxTESTCD"}}},{"type":"http://www.assero.co.uk/BusinessDomain#ClassVariable","id":"M-CDISC_SDTMMODELFINDINGS_xxTEST","namespace":"http://www.assero.co.uk/MDRSdtmMd/CDISC/V3","label":"Name of Measurement, Test or Examination","extension_properties":[],"ordinal":13,"rule":"","name":"--TEST","variable_ref":{"type":"http://www.assero.co.uk/BusinessOperational#CReference","id":"M-CDISC_SDTMMODELFINDINGS_xxTEST_CR1","namespace":"http://www.assero.co.uk/MDRSdtmMd/CDISC/V3","label":"Based on Variable Reference","extension_properties":[],"enabled":true,"optional":false,"ordinal":1,"local_label":"","subject_ref":{"namespace":"http://www.assero.co.uk/MDRSdtmM/CDISC/V3","id":"M-CDISC_SDTMMODEL_xxTEST"}}},{"type":"http://www.assero.co.uk/BusinessDomain#ClassVariable","id":"M-CDISC_SDTMMODELFINDINGS_xxMODIFY","namespace":"http://www.assero.co.uk/MDRSdtmMd/CDISC/V3","label":"Modified Term","extension_properties":[],"ordinal":14,"rule":"","name":"--MODIFY","variable_ref":{"type":"http://www.assero.co.uk/BusinessOperational#CReference","id":"M-CDISC_SDTMMODELFINDINGS_xxMODIFY_CR1","namespace":"http://www.assero.co.uk/MDRSdtmMd/CDISC/V3","label":"Based on Variable Reference","extension_properties":[],"enabled":true,"optional":false,"ordinal":1,"local_label":"","subject_ref":{"namespace":"http://www.assero.co.uk/MDRSdtmM/CDISC/V3","id":"M-CDISC_SDTMMODEL_xxMODIFY"}}},{"type":"http://www.assero.co.uk/BusinessDomain#ClassVariable","id":"M-CDISC_SDTMMODELFINDINGS_xxTSTDTL","namespace":"http://www.assero.co.uk/MDRSdtmMd/CDISC/V3","label":"Measurement, Test or Examination Detail","extension_properties":[],"ordinal":15,"rule":"","name":"--TSTDTL","variable_ref":{"type":"http://www.assero.co.uk/BusinessOperational#CReference","id":"M-CDISC_SDTMMODELFINDINGS_xxTSTDTL_CR1","namespace":"http://www.assero.co.uk/MDRSdtmMd/CDISC/V3","label":"Based on Variable Reference","extension_properties":[],"enabled":true,"optional":false,"ordinal":1,"local_label":"","subject_ref":{"namespace":"http://www.assero.co.uk/MDRSdtmM/CDISC/V3","id":"M-CDISC_SDTMMODEL_xxTSTDTL"}}},{"type":"http://www.assero.co.uk/BusinessDomain#ClassVariable","id":"M-CDISC_SDTMMODELFINDINGS_xxCAT","namespace":"http://www.assero.co.uk/MDRSdtmMd/CDISC/V3","label":"Category","extension_properties":[],"ordinal":16,"rule":"","name":"--CAT","variable_ref":{"type":"http://www.assero.co.uk/BusinessOperational#CReference","id":"M-CDISC_SDTMMODELFINDINGS_xxCAT_CR1","namespace":"http://www.assero.co.uk/MDRSdtmMd/CDISC/V3","label":"Based on Variable Reference","extension_properties":[],"enabled":true,"optional":false,"ordinal":1,"local_label":"","subject_ref":{"namespace":"http://www.assero.co.uk/MDRSdtmM/CDISC/V3","id":"M-CDISC_SDTMMODEL_xxCAT"}}},{"type":"http://www.assero.co.uk/BusinessDomain#ClassVariable","id":"M-CDISC_SDTMMODELFINDINGS_xxSCAT","namespace":"http://www.assero.co.uk/MDRSdtmMd/CDISC/V3","label":"Subcategory","extension_properties":[],"ordinal":17,"rule":"","name":"--SCAT","variable_ref":{"type":"http://www.assero.co.uk/BusinessOperational#CReference","id":"M-CDISC_SDTMMODELFINDINGS_xxSCAT_CR1","namespace":"http://www.assero.co.uk/MDRSdtmMd/CDISC/V3","label":"Based on Variable Reference","extension_properties":[],"enabled":true,"optional":false,"ordinal":1,"local_label":"","subject_ref":{"namespace":"http://www.assero.co.uk/MDRSdtmM/CDISC/V3","id":"M-CDISC_SDTMMODEL_xxSCAT"}}},{"type":"http://www.assero.co.uk/BusinessDomain#ClassVariable","id":"M-CDISC_SDTMMODELFINDINGS_xxPOS","namespace":"http://www.assero.co.uk/MDRSdtmMd/CDISC/V3","label":"Position of Subject During Observation","extension_properties":[],"ordinal":18,"rule":"","name":"--POS","variable_ref":{"type":"http://www.assero.co.uk/BusinessOperational#CReference","id":"M-CDISC_SDTMMODELFINDINGS_xxPOS_CR1","namespace":"http://www.assero.co.uk/MDRSdtmMd/CDISC/V3","label":"Based on Variable Reference","extension_properties":[],"enabled":true,"optional":false,"ordinal":1,"local_label":"","subject_ref":{"namespace":"http://www.assero.co.uk/MDRSdtmM/CDISC/V3","id":"M-CDISC_SDTMMODEL_xxPOS"}}},{"type":"http://www.assero.co.uk/BusinessDomain#ClassVariable","id":"M-CDISC_SDTMMODELFINDINGS_xxBODSYS","namespace":"http://www.assero.co.uk/MDRSdtmMd/CDISC/V3","label":"Body System or Organ Class","extension_properties":[],"ordinal":19,"rule":"","name":"--BODSYS","variable_ref":{"type":"http://www.assero.co.uk/BusinessOperational#CReference","id":"M-CDISC_SDTMMODELFINDINGS_xxBODSYS_CR1","namespace":"http://www.assero.co.uk/MDRSdtmMd/CDISC/V3","label":"Based on Variable Reference","extension_properties":[],"enabled":true,"optional":false,"ordinal":1,"local_label":"","subject_ref":{"namespace":"http://www.assero.co.uk/MDRSdtmM/CDISC/V3","id":"M-CDISC_SDTMMODEL_xxBODSYS"}}},{"type":"http://www.assero.co.uk/BusinessDomain#ClassVariable","id":"M-CDISC_SDTMMODELFINDINGS_xxORRES","namespace":"http://www.assero.co.uk/MDRSdtmMd/CDISC/V3","label":"Result or Finding in Original Units","extension_properties":[],"ordinal":20,"rule":"","name":"--ORRES","variable_ref":{"type":"http://www.assero.co.uk/BusinessOperational#CReference","id":"M-CDISC_SDTMMODELFINDINGS_xxORRES_CR1","namespace":"http://www.assero.co.uk/MDRSdtmMd/CDISC/V3","label":"Based on Variable Reference","extension_properties":[],"enabled":true,"optional":false,"ordinal":1,"local_label":"","subject_ref":{"namespace":"http://www.assero.co.uk/MDRSdtmM/CDISC/V3","id":"M-CDISC_SDTMMODEL_xxORRES"}}},{"type":"http://www.assero.co.uk/BusinessDomain#ClassVariable","id":"M-CDISC_SDTMMODELFINDINGS_xxORRESU","namespace":"http://www.assero.co.uk/MDRSdtmMd/CDISC/V3","label":"Original Units","extension_properties":[],"ordinal":21,"rule":"","name":"--ORRESU","variable_ref":{"type":"http://www.assero.co.uk/BusinessOperational#CReference","id":"M-CDISC_SDTMMODELFINDINGS_xxORRESU_CR1","namespace":"http://www.assero.co.uk/MDRSdtmMd/CDISC/V3","label":"Based on Variable Reference","extension_properties":[],"enabled":true,"optional":false,"ordinal":1,"local_label":"","subject_ref":{"namespace":"http://www.assero.co.uk/MDRSdtmM/CDISC/V3","id":"M-CDISC_SDTMMODEL_xxORRESU"}}},{"type":"http://www.assero.co.uk/BusinessDomain#ClassVariable","id":"M-CDISC_SDTMMODELFINDINGS_xxORNRLO","namespace":"http://www.assero.co.uk/MDRSdtmMd/CDISC/V3","label":"Normal Range Lower Limit-Original Units","extension_properties":[],"ordinal":22,"rule":"","name":"--ORNRLO","variable_ref":{"type":"http://www.assero.co.uk/BusinessOperational#CReference","id":"M-CDISC_SDTMMODELFINDINGS_xxORNRLO_CR1","namespace":"http://www.assero.co.uk/MDRSdtmMd/CDISC/V3","label":"Based on Variable Reference","extension_properties":[],"enabled":true,"optional":false,"ordinal":1,"local_label":"","subject_ref":{"namespace":"http://www.assero.co.uk/MDRSdtmM/CDISC/V3","id":"M-CDISC_SDTMMODEL_xxORNRLO"}}},{"type":"http://www.assero.co.uk/BusinessDomain#ClassVariable","id":"M-CDISC_SDTMMODELFINDINGS_xxORNRHI","namespace":"http://www.assero.co.uk/MDRSdtmMd/CDISC/V3","label":"Normal Range Upper Limit-Original Units","extension_properties":[],"ordinal":23,"rule":"","name":"--ORNRHI","variable_ref":{"type":"http://www.assero.co.uk/BusinessOperational#CReference","id":"M-CDISC_SDTMMODELFINDINGS_xxORNRHI_CR1","namespace":"http://www.assero.co.uk/MDRSdtmMd/CDISC/V3","label":"Based on Variable Reference","extension_properties":[],"enabled":true,"optional":false,"ordinal":1,"local_label":"","subject_ref":{"namespace":"http://www.assero.co.uk/MDRSdtmM/CDISC/V3","id":"M-CDISC_SDTMMODEL_xxORNRHI"}}},{"type":"http://www.assero.co.uk/BusinessDomain#ClassVariable","id":"M-CDISC_SDTMMODELFINDINGS_xxSTRESC","namespace":"http://www.assero.co.uk/MDRSdtmMd/CDISC/V3","label":"Result or Finding in Standard Format","extension_properties":[],"ordinal":24,"rule":"","name":"--STRESC","variable_ref":{"type":"http://www.assero.co.uk/BusinessOperational#CReference","id":"M-CDISC_SDTMMODELFINDINGS_xxSTRESC_CR1","namespace":"http://www.assero.co.uk/MDRSdtmMd/CDISC/V3","label":"Based on Variable Reference","extension_properties":[],"enabled":true,"optional":false,"ordinal":1,"local_label":"","subject_ref":{"namespace":"http://www.assero.co.uk/MDRSdtmM/CDISC/V3","id":"M-CDISC_SDTMMODEL_xxSTRESC"}}},{"type":"http://www.assero.co.uk/BusinessDomain#ClassVariable","id":"M-CDISC_SDTMMODELFINDINGS_xxSTRESN","namespace":"http://www.assero.co.uk/MDRSdtmMd/CDISC/V3","label":"Numeric Result/Finding in Standard Units","extension_properties":[],"ordinal":25,"rule":"","name":"--STRESN","variable_ref":{"type":"http://www.assero.co.uk/BusinessOperational#CReference","id":"M-CDISC_SDTMMODELFINDINGS_xxSTRESN_CR1","namespace":"http://www.assero.co.uk/MDRSdtmMd/CDISC/V3","label":"Based on Variable Reference","extension_properties":[],"enabled":true,"optional":false,"ordinal":1,"local_label":"","subject_ref":{"namespace":"http://www.assero.co.uk/MDRSdtmM/CDISC/V3","id":"M-CDISC_SDTMMODEL_xxSTRESN"}}},{"type":"http://www.assero.co.uk/BusinessDomain#ClassVariable","id":"M-CDISC_SDTMMODELFINDINGS_xxSTRESU","namespace":"http://www.assero.co.uk/MDRSdtmMd/CDISC/V3","label":"Standard Units","extension_properties":[],"ordinal":26,"rule":"","name":"--STRESU","variable_ref":{"type":"http://www.assero.co.uk/BusinessOperational#CReference","id":"M-CDISC_SDTMMODELFINDINGS_xxSTRESU_CR1","namespace":"http://www.assero.co.uk/MDRSdtmMd/CDISC/V3","label":"Based on Variable Reference","extension_properties":[],"enabled":true,"optional":false,"ordinal":1,"local_label":"","subject_ref":{"namespace":"http://www.assero.co.uk/MDRSdtmM/CDISC/V3","id":"M-CDISC_SDTMMODEL_xxSTRESU"}}},{"type":"http://www.assero.co.uk/BusinessDomain#ClassVariable","id":"M-CDISC_SDTMMODELFINDINGS_xxSTNRLO","namespace":"http://www.assero.co.uk/MDRSdtmMd/CDISC/V3","label":"Normal Range Lower Limit-Standard Units","extension_properties":[],"ordinal":27,"rule":"","name":"--STNRLO","variable_ref":{"type":"http://www.assero.co.uk/BusinessOperational#CReference","id":"M-CDISC_SDTMMODELFINDINGS_xxSTNRLO_CR1","namespace":"http://www.assero.co.uk/MDRSdtmMd/CDISC/V3","label":"Based on Variable Reference","extension_properties":[],"enabled":true,"optional":false,"ordinal":1,"local_label":"","subject_ref":{"namespace":"http://www.assero.co.uk/MDRSdtmM/CDISC/V3","id":"M-CDISC_SDTMMODEL_xxSTNRLO"}}},{"type":"http://www.assero.co.uk/BusinessDomain#ClassVariable","id":"M-CDISC_SDTMMODELFINDINGS_xxSTNRHI","namespace":"http://www.assero.co.uk/MDRSdtmMd/CDISC/V3","label":"Normal Range Upper Limit-Standard Units","extension_properties":[],"ordinal":28,"rule":"","name":"--STNRHI","variable_ref":{"type":"http://www.assero.co.uk/BusinessOperational#CReference","id":"M-CDISC_SDTMMODELFINDINGS_xxSTNRHI_CR1","namespace":"http://www.assero.co.uk/MDRSdtmMd/CDISC/V3","label":"Based on Variable Reference","extension_properties":[],"enabled":true,"optional":false,"ordinal":1,"local_label":"","subject_ref":{"namespace":"http://www.assero.co.uk/MDRSdtmM/CDISC/V3","id":"M-CDISC_SDTMMODEL_xxSTNRHI"}}},{"type":"http://www.assero.co.uk/BusinessDomain#ClassVariable","id":"M-CDISC_SDTMMODELFINDINGS_xxSTNRC","namespace":"http://www.assero.co.uk/MDRSdtmMd/CDISC/V3","label":"Normal Range for Character Results","extension_properties":[],"ordinal":29,"rule":"","name":"--STNRC","variable_ref":{"type":"http://www.assero.co.uk/BusinessOperational#CReference","id":"M-CDISC_SDTMMODELFINDINGS_xxSTNRC_CR1","namespace":"http://www.assero.co.uk/MDRSdtmMd/CDISC/V3","label":"Based on Variable Reference","extension_properties":[],"enabled":true,"optional":false,"ordinal":1,"local_label":"","subject_ref":{"namespace":"http://www.assero.co.uk/MDRSdtmM/CDISC/V3","id":"M-CDISC_SDTMMODEL_xxSTNRC"}}},{"type":"http://www.assero.co.uk/BusinessDomain#ClassVariable","id":"M-CDISC_SDTMMODELFINDINGS_xxNRIND","namespace":"http://www.assero.co.uk/MDRSdtmMd/CDISC/V3","label":"Normal/Reference Range Indicator","extension_properties":[],"ordinal":30,"rule":"","name":"--NRIND","variable_ref":{"type":"http://www.assero.co.uk/BusinessOperational#CReference","id":"M-CDISC_SDTMMODELFINDINGS_xxNRIND_CR1","namespace":"http://www.assero.co.uk/MDRSdtmMd/CDISC/V3","label":"Based on Variable Reference","extension_properties":[],"enabled":true,"optional":false,"ordinal":1,"local_label":"","subject_ref":{"namespace":"http://www.assero.co.uk/MDRSdtmM/CDISC/V3","id":"M-CDISC_SDTMMODEL_xxNRIND"}}},{"type":"http://www.assero.co.uk/BusinessDomain#ClassVariable","id":"M-CDISC_SDTMMODELFINDINGS_xxRESCAT","namespace":"http://www.assero.co.uk/MDRSdtmMd/CDISC/V3","label":"Result Category","extension_properties":[],"ordinal":31,"rule":"","name":"--RESCAT","variable_ref":{"type":"http://www.assero.co.uk/BusinessOperational#CReference","id":"M-CDISC_SDTMMODELFINDINGS_xxRESCAT_CR1","namespace":"http://www.assero.co.uk/MDRSdtmMd/CDISC/V3","label":"Based on Variable Reference","extension_properties":[],"enabled":true,"optional":false,"ordinal":1,"local_label":"","subject_ref":{"namespace":"http://www.assero.co.uk/MDRSdtmM/CDISC/V3","id":"M-CDISC_SDTMMODEL_xxRESCAT"}}},{"type":"http://www.assero.co.uk/BusinessDomain#ClassVariable","id":"M-CDISC_SDTMMODELFINDINGS_xxSTAT","namespace":"http://www.assero.co.uk/MDRSdtmMd/CDISC/V3","label":"Completion Status","extension_properties":[],"ordinal":32,"rule":"","name":"--STAT","variable_ref":{"type":"http://www.assero.co.uk/BusinessOperational#CReference","id":"M-CDISC_SDTMMODELFINDINGS_xxSTAT_CR1","namespace":"http://www.assero.co.uk/MDRSdtmMd/CDISC/V3","label":"Based on Variable Reference","extension_properties":[],"enabled":true,"optional":false,"ordinal":1,"local_label":"","subject_ref":{"namespace":"http://www.assero.co.uk/MDRSdtmM/CDISC/V3","id":"M-CDISC_SDTMMODEL_xxSTAT"}}},{"type":"http://www.assero.co.uk/BusinessDomain#ClassVariable","id":"M-CDISC_SDTMMODELFINDINGS_xxREASND","namespace":"http://www.assero.co.uk/MDRSdtmMd/CDISC/V3","label":"Reason Not Done","extension_properties":[],"ordinal":33,"rule":"","name":"--REASND","variable_ref":{"type":"http://www.assero.co.uk/BusinessOperational#CReference","id":"M-CDISC_SDTMMODELFINDINGS_xxREASND_CR1","namespace":"http://www.assero.co.uk/MDRSdtmMd/CDISC/V3","label":"Based on Variable Reference","extension_properties":[],"enabled":true,"optional":false,"ordinal":1,"local_label":"","subject_ref":{"namespace":"http://www.assero.co.uk/MDRSdtmM/CDISC/V3","id":"M-CDISC_SDTMMODEL_xxREASND"}}},{"type":"http://www.assero.co.uk/BusinessDomain#ClassVariable","id":"M-CDISC_SDTMMODELFINDINGS_xxXFN","namespace":"http://www.assero.co.uk/MDRSdtmMd/CDISC/V3","label":"External File Path","extension_properties":[],"ordinal":34,"rule":"","name":"--XFN","variable_ref":{"type":"http://www.assero.co.uk/BusinessOperational#CReference","id":"M-CDISC_SDTMMODELFINDINGS_xxXFN_CR1","namespace":"http://www.assero.co.uk/MDRSdtmMd/CDISC/V3","label":"Based on Variable Reference","extension_properties":[],"enabled":true,"optional":false,"ordinal":1,"local_label":"","subject_ref":{"namespace":"http://www.assero.co.uk/MDRSdtmM/CDISC/V3","id":"M-CDISC_SDTMMODEL_xxXFN"}}},{"type":"http://www.assero.co.uk/BusinessDomain#ClassVariable","id":"M-CDISC_SDTMMODELFINDINGS_xxNAM","namespace":"http://www.assero.co.uk/MDRSdtmMd/CDISC/V3","label":"Laboratory/Vendor Name","extension_properties":[],"ordinal":35,"rule":"","name":"--NAM","variable_ref":{"type":"http://www.assero.co.uk/BusinessOperational#CReference","id":"M-CDISC_SDTMMODELFINDINGS_xxNAM_CR1","namespace":"http://www.assero.co.uk/MDRSdtmMd/CDISC/V3","label":"Based on Variable Reference","extension_properties":[],"enabled":true,"optional":false,"ordinal":1,"local_label":"","subject_ref":{"namespace":"http://www.assero.co.uk/MDRSdtmM/CDISC/V3","id":"M-CDISC_SDTMMODEL_xxNAM"}}},{"type":"http://www.assero.co.uk/BusinessDomain#ClassVariable","id":"M-CDISC_SDTMMODELFINDINGS_xxLOINC","namespace":"http://www.assero.co.uk/MDRSdtmMd/CDISC/V3","label":"LOINC Code","extension_properties":[],"ordinal":36,"rule":"","name":"--LOINC","variable_ref":{"type":"http://www.assero.co.uk/BusinessOperational#CReference","id":"M-CDISC_SDTMMODELFINDINGS_xxLOINC_CR1","namespace":"http://www.assero.co.uk/MDRSdtmMd/CDISC/V3","label":"Based on Variable Reference","extension_properties":[],"enabled":true,"optional":false,"ordinal":1,"local_label":"","subject_ref":{"namespace":"http://www.assero.co.uk/MDRSdtmM/CDISC/V3","id":"M-CDISC_SDTMMODEL_xxLOINC"}}},{"type":"http://www.assero.co.uk/BusinessDomain#ClassVariable","id":"M-CDISC_SDTMMODELFINDINGS_xxSPEC","namespace":"http://www.assero.co.uk/MDRSdtmMd/CDISC/V3","label":"Specimen Material Type","extension_properties":[],"ordinal":37,"rule":"","name":"--SPEC","variable_ref":{"type":"http://www.assero.co.uk/BusinessOperational#CReference","id":"M-CDISC_SDTMMODELFINDINGS_xxSPEC_CR1","namespace":"http://www.assero.co.uk/MDRSdtmMd/CDISC/V3","label":"Based on Variable Reference","extension_properties":[],"enabled":true,"optional":false,"ordinal":1,"local_label":"","subject_ref":{"namespace":"http://www.assero.co.uk/MDRSdtmM/CDISC/V3","id":"M-CDISC_SDTMMODEL_xxSPEC"}}},{"type":"http://www.assero.co.uk/BusinessDomain#ClassVariable","id":"M-CDISC_SDTMMODELFINDINGS_xxANTREG","namespace":"http://www.assero.co.uk/MDRSdtmMd/CDISC/V3","label":"Anatomical Region","extension_properties":[],"ordinal":38,"rule":"","name":"--ANTREG","variable_ref":{"type":"http://www.assero.co.uk/BusinessOperational#CReference","id":"M-CDISC_SDTMMODELFINDINGS_xxANTREG_CR1","namespace":"http://www.assero.co.uk/MDRSdtmMd/CDISC/V3","label":"Based on Variable Reference","extension_properties":[],"enabled":true,"optional":false,"ordinal":1,"local_label":"","subject_ref":{"namespace":"http://www.assero.co.uk/MDRSdtmM/CDISC/V3","id":"M-CDISC_SDTMMODEL_xxANTREG"}}},{"type":"http://www.assero.co.uk/BusinessDomain#ClassVariable","id":"M-CDISC_SDTMMODELFINDINGS_xxSPCCND","namespace":"http://www.assero.co.uk/MDRSdtmMd/CDISC/V3","label":"Specimen Condition","extension_properties":[],"ordinal":39,"rule":"","name":"--SPCCND","variable_ref":{"type":"http://www.assero.co.uk/BusinessOperational#CReference","id":"M-CDISC_SDTMMODELFINDINGS_xxSPCCND_CR1","namespace":"http://www.assero.co.uk/MDRSdtmMd/CDISC/V3","label":"Based on Variable Reference","extension_properties":[],"enabled":true,"optional":false,"ordinal":1,"local_label":"","subject_ref":{"namespace":"http://www.assero.co.uk/MDRSdtmM/CDISC/V3","id":"M-CDISC_SDTMMODEL_xxSPCCND"}}},{"type":"http://www.assero.co.uk/BusinessDomain#ClassVariable","id":"M-CDISC_SDTMMODELFINDINGS_xxSPCUFL","namespace":"http://www.assero.co.uk/MDRSdtmMd/CDISC/V3","label":"Specimen Usability for the Test","extension_properties":[],"ordinal":40,"rule":"","name":"--SPCUFL","variable_ref":{"type":"http://www.assero.co.uk/BusinessOperational#CReference","id":"M-CDISC_SDTMMODELFINDINGS_xxSPCUFL_CR1","namespace":"http://www.assero.co.uk/MDRSdtmMd/CDISC/V3","label":"Based on Variable Reference","extension_properties":[],"enabled":true,"optional":false,"ordinal":1,"local_label":"","subject_ref":{"namespace":"http://www.assero.co.uk/MDRSdtmM/CDISC/V3","id":"M-CDISC_SDTMMODEL_xxSPCUFL"}}},{"type":"http://www.assero.co.uk/BusinessDomain#ClassVariable","id":"M-CDISC_SDTMMODELFINDINGS_xxLOC","namespace":"http://www.assero.co.uk/MDRSdtmMd/CDISC/V3","label":"Location Used for the Measurement","extension_properties":[],"ordinal":41,"rule":"","name":"--LOC","variable_ref":{"type":"http://www.assero.co.uk/BusinessOperational#CReference","id":"M-CDISC_SDTMMODELFINDINGS_xxLOC_CR1","namespace":"http://www.assero.co.uk/MDRSdtmMd/CDISC/V3","label":"Based on Variable Reference","extension_properties":[],"enabled":true,"optional":false,"ordinal":1,"local_label":"","subject_ref":{"namespace":"http://www.assero.co.uk/MDRSdtmM/CDISC/V3","id":"M-CDISC_SDTMMODEL_xxLOC"}}},{"type":"http://www.assero.co.uk/BusinessDomain#ClassVariable","id":"M-CDISC_SDTMMODELFINDINGS_xxLAT","namespace":"http://www.assero.co.uk/MDRSdtmMd/CDISC/V3","label":"Laterality","extension_properties":[],"ordinal":42,"rule":"","name":"--LAT","variable_ref":{"type":"http://www.assero.co.uk/BusinessOperational#CReference","id":"M-CDISC_SDTMMODELFINDINGS_xxLAT_CR1","namespace":"http://www.assero.co.uk/MDRSdtmMd/CDISC/V3","label":"Based on Variable Reference","extension_properties":[],"enabled":true,"optional":false,"ordinal":1,"local_label":"","subject_ref":{"namespace":"http://www.assero.co.uk/MDRSdtmM/CDISC/V3","id":"M-CDISC_SDTMMODEL_xxLAT"}}},{"type":"http://www.assero.co.uk/BusinessDomain#ClassVariable","id":"M-CDISC_SDTMMODELFINDINGS_xxDIR","namespace":"http://www.assero.co.uk/MDRSdtmMd/CDISC/V3","label":"Directionality","extension_properties":[],"ordinal":43,"rule":"","name":"--DIR","variable_ref":{"type":"http://www.assero.co.uk/BusinessOperational#CReference","id":"M-CDISC_SDTMMODELFINDINGS_xxDIR_CR1","namespace":"http://www.assero.co.uk/MDRSdtmMd/CDISC/V3","label":"Based on Variable Reference","extension_properties":[],"enabled":true,"optional":false,"ordinal":1,"local_label":"","subject_ref":{"namespace":"http://www.assero.co.uk/MDRSdtmM/CDISC/V3","id":"M-CDISC_SDTMMODEL_xxDIR"}}},{"type":"http://www.assero.co.uk/BusinessDomain#ClassVariable","id":"M-CDISC_SDTMMODELFINDINGS_xxPORTOT","namespace":"http://www.assero.co.uk/MDRSdtmMd/CDISC/V3","label":"Portion or Totality","extension_properties":[],"ordinal":44,"rule":"","name":"--PORTOT","variable_ref":{"type":"http://www.assero.co.uk/BusinessOperational#CReference","id":"M-CDISC_SDTMMODELFINDINGS_xxPORTOT_CR1","namespace":"http://www.assero.co.uk/MDRSdtmMd/CDISC/V3","label":"Based on Variable Reference","extension_properties":[],"enabled":true,"optional":false,"ordinal":1,"local_label":"","subject_ref":{"namespace":"http://www.assero.co.uk/MDRSdtmM/CDISC/V3","id":"M-CDISC_SDTMMODEL_xxPORTOT"}}},{"type":"http://www.assero.co.uk/BusinessDomain#ClassVariable","id":"M-CDISC_SDTMMODELFINDINGS_xxMETHOD","namespace":"http://www.assero.co.uk/MDRSdtmMd/CDISC/V3","label":"Method of Test or Examination","extension_properties":[],"ordinal":45,"rule":"","name":"--METHOD","variable_ref":{"type":"http://www.assero.co.uk/BusinessOperational#CReference","id":"M-CDISC_SDTMMODELFINDINGS_xxMETHOD_CR1","namespace":"http://www.assero.co.uk/MDRSdtmMd/CDISC/V3","label":"Based on Variable Reference","extension_properties":[],"enabled":true,"optional":false,"ordinal":1,"local_label":"","subject_ref":{"namespace":"http://www.assero.co.uk/MDRSdtmM/CDISC/V3","id":"M-CDISC_SDTMMODEL_xxMETHOD"}}},{"type":"http://www.assero.co.uk/BusinessDomain#ClassVariable","id":"M-CDISC_SDTMMODELFINDINGS_xxRUNID","namespace":"http://www.assero.co.uk/MDRSdtmMd/CDISC/V3","label":"Run ID","extension_properties":[],"ordinal":46,"rule":"","name":"--RUNID","variable_ref":{"type":"http://www.assero.co.uk/BusinessOperational#CReference","id":"M-CDISC_SDTMMODELFINDINGS_xxRUNID_CR1","namespace":"http://www.assero.co.uk/MDRSdtmMd/CDISC/V3","label":"Based on Variable Reference","extension_properties":[],"enabled":true,"optional":false,"ordinal":1,"local_label":"","subject_ref":{"namespace":"http://www.assero.co.uk/MDRSdtmM/CDISC/V3","id":"M-CDISC_SDTMMODEL_xxRUNID"}}},{"type":"http://www.assero.co.uk/BusinessDomain#ClassVariable","id":"M-CDISC_SDTMMODELFINDINGS_xxANMETH","namespace":"http://www.assero.co.uk/MDRSdtmMd/CDISC/V3","label":"Analysis Method","extension_properties":[],"ordinal":47,"rule":"","name":"--ANMETH","variable_ref":{"type":"http://www.assero.co.uk/BusinessOperational#CReference","id":"M-CDISC_SDTMMODELFINDINGS_xxANMETH_CR1","namespace":"http://www.assero.co.uk/MDRSdtmMd/CDISC/V3","label":"Based on Variable Reference","extension_properties":[],"enabled":true,"optional":false,"ordinal":1,"local_label":"","subject_ref":{"namespace":"http://www.assero.co.uk/MDRSdtmM/CDISC/V3","id":"M-CDISC_SDTMMODEL_xxANMETH"}}},{"type":"http://www.assero.co.uk/BusinessDomain#ClassVariable","id":"M-CDISC_SDTMMODELFINDINGS_xxLEAD","namespace":"http://www.assero.co.uk/MDRSdtmMd/CDISC/V3","label":"Lead Identified to Collect Measurements","extension_properties":[],"ordinal":48,"rule":"","name":"--LEAD","variable_ref":{"type":"http://www.assero.co.uk/BusinessOperational#CReference","id":"M-CDISC_SDTMMODELFINDINGS_xxLEAD_CR1","namespace":"http://www.assero.co.uk/MDRSdtmMd/CDISC/V3","label":"Based on Variable Reference","extension_properties":[],"enabled":true,"optional":false,"ordinal":1,"local_label":"","subject_ref":{"namespace":"http://www.assero.co.uk/MDRSdtmM/CDISC/V3","id":"M-CDISC_SDTMMODEL_xxLEAD"}}},{"type":"http://www.assero.co.uk/BusinessDomain#ClassVariable","id":"M-CDISC_SDTMMODELFINDINGS_xxCSTATE","namespace":"http://www.assero.co.uk/MDRSdtmMd/CDISC/V3","label":"Consciousness State","extension_properties":[],"ordinal":49,"rule":"","name":"--CSTATE","variable_ref":{"type":"http://www.assero.co.uk/BusinessOperational#CReference","id":"M-CDISC_SDTMMODELFINDINGS_xxCSTATE_CR1","namespace":"http://www.assero.co.uk/MDRSdtmMd/CDISC/V3","label":"Based on Variable Reference","extension_properties":[],"enabled":true,"optional":false,"ordinal":1,"local_label":"","subject_ref":{"namespace":"http://www.assero.co.uk/MDRSdtmM/CDISC/V3","id":"M-CDISC_SDTMMODEL_xxCSTATE"}}},{"type":"http://www.assero.co.uk/BusinessDomain#ClassVariable","id":"M-CDISC_SDTMMODELFINDINGS_xxBLFL","namespace":"http://www.assero.co.uk/MDRSdtmMd/CDISC/V3","label":"Baseline Flag","extension_properties":[],"ordinal":50,"rule":"","name":"--BLFL","variable_ref":{"type":"http://www.assero.co.uk/BusinessOperational#CReference","id":"M-CDISC_SDTMMODELFINDINGS_xxBLFL_CR1","namespace":"http://www.assero.co.uk/MDRSdtmMd/CDISC/V3","label":"Based on Variable Reference","extension_properties":[],"enabled":true,"optional":false,"ordinal":1,"local_label":"","subject_ref":{"namespace":"http://www.assero.co.uk/MDRSdtmM/CDISC/V3","id":"M-CDISC_SDTMMODEL_xxBLFL"}}},{"type":"http://www.assero.co.uk/BusinessDomain#ClassVariable","id":"M-CDISC_SDTMMODELFINDINGS_xxFAST","namespace":"http://www.assero.co.uk/MDRSdtmMd/CDISC/V3","label":"Fasting Status","extension_properties":[],"ordinal":51,"rule":"","name":"--FAST","variable_ref":{"type":"http://www.assero.co.uk/BusinessOperational#CReference","id":"M-CDISC_SDTMMODELFINDINGS_xxFAST_CR1","namespace":"http://www.assero.co.uk/MDRSdtmMd/CDISC/V3","label":"Based on Variable Reference","extension_properties":[],"enabled":true,"optional":false,"ordinal":1,"local_label":"","subject_ref":{"namespace":"http://www.assero.co.uk/MDRSdtmM/CDISC/V3","id":"M-CDISC_SDTMMODEL_xxFAST"}}},{"type":"http://www.assero.co.uk/BusinessDomain#ClassVariable","id":"M-CDISC_SDTMMODELFINDINGS_xxDRVFL","namespace":"http://www.assero.co.uk/MDRSdtmMd/CDISC/V3","label":"Derived Flag","extension_properties":[],"ordinal":52,"rule":"","name":"--DRVFL","variable_ref":{"type":"http://www.assero.co.uk/BusinessOperational#CReference","id":"M-CDISC_SDTMMODELFINDINGS_xxDRVFL_CR1","namespace":"http://www.assero.co.uk/MDRSdtmMd/CDISC/V3","label":"Based on Variable Reference","extension_properties":[],"enabled":true,"optional":false,"ordinal":1,"local_label":"","subject_ref":{"namespace":"http://www.assero.co.uk/MDRSdtmM/CDISC/V3","id":"M-CDISC_SDTMMODEL_xxDRVFL"}}},{"type":"http://www.assero.co.uk/BusinessDomain#ClassVariable","id":"M-CDISC_SDTMMODELFINDINGS_xxEVAL","namespace":"http://www.assero.co.uk/MDRSdtmMd/CDISC/V3","label":"Evaluator","extension_properties":[],"ordinal":53,"rule":"","name":"--EVAL","variable_ref":{"type":"http://www.assero.co.uk/BusinessOperational#CReference","id":"M-CDISC_SDTMMODELFINDINGS_xxEVAL_CR1","namespace":"http://www.assero.co.uk/MDRSdtmMd/CDISC/V3","label":"Based on Variable Reference","extension_properties":[],"enabled":true,"optional":false,"ordinal":1,"local_label":"","subject_ref":{"namespace":"http://www.assero.co.uk/MDRSdtmM/CDISC/V3","id":"M-CDISC_SDTMMODEL_xxEVAL"}}},{"type":"http://www.assero.co.uk/BusinessDomain#ClassVariable","id":"M-CDISC_SDTMMODELFINDINGS_xxEVALID","namespace":"http://www.assero.co.uk/MDRSdtmMd/CDISC/V3","label":"Evaluator Identifier","extension_properties":[],"ordinal":54,"rule":"","name":"--EVALID","variable_ref":{"type":"http://www.assero.co.uk/BusinessOperational#CReference","id":"M-CDISC_SDTMMODELFINDINGS_xxEVALID_CR1","namespace":"http://www.assero.co.uk/MDRSdtmMd/CDISC/V3","label":"Based on Variable Reference","extension_properties":[],"enabled":true,"optional":false,"ordinal":1,"local_label":"","subject_ref":{"namespace":"http://www.assero.co.uk/MDRSdtmM/CDISC/V3","id":"M-CDISC_SDTMMODEL_xxEVALID"}}},{"type":"http://www.assero.co.uk/BusinessDomain#ClassVariable","id":"M-CDISC_SDTMMODELFINDINGS_xxACPTFL","namespace":"http://www.assero.co.uk/MDRSdtmMd/CDISC/V3","label":"Accepted Record Flag","extension_properties":[],"ordinal":55,"rule":"","name":"--ACPTFL","variable_ref":{"type":"http://www.assero.co.uk/BusinessOperational#CReference","id":"M-CDISC_SDTMMODELFINDINGS_xxACPTFL_CR1","namespace":"http://www.assero.co.uk/MDRSdtmMd/CDISC/V3","label":"Based on Variable Reference","extension_properties":[],"enabled":true,"optional":false,"ordinal":1,"local_label":"","subject_ref":{"namespace":"http://www.assero.co.uk/MDRSdtmM/CDISC/V3","id":"M-CDISC_SDTMMODEL_xxACPTFL"}}},{"type":"http://www.assero.co.uk/BusinessDomain#ClassVariable","id":"M-CDISC_SDTMMODELFINDINGS_xxTOX","namespace":"http://www.assero.co.uk/MDRSdtmMd/CDISC/V3","label":"Toxicity","extension_properties":[],"ordinal":56,"rule":"","name":"--TOX","variable_ref":{"type":"http://www.assero.co.uk/BusinessOperational#CReference","id":"M-CDISC_SDTMMODELFINDINGS_xxTOX_CR1","namespace":"http://www.assero.co.uk/MDRSdtmMd/CDISC/V3","label":"Based on Variable Reference","extension_properties":[],"enabled":true,"optional":false,"ordinal":1,"local_label":"","subject_ref":{"namespace":"http://www.assero.co.uk/MDRSdtmM/CDISC/V3","id":"M-CDISC_SDTMMODEL_xxTOX"}}},{"type":"http://www.assero.co.uk/BusinessDomain#ClassVariable","id":"M-CDISC_SDTMMODELFINDINGS_xxTOXGR","namespace":"http://www.assero.co.uk/MDRSdtmMd/CDISC/V3","label":"Toxicity Grade","extension_properties":[],"ordinal":57,"rule":"","name":"--TOXGR","variable_ref":{"type":"http://www.assero.co.uk/BusinessOperational#CReference","id":"M-CDISC_SDTMMODELFINDINGS_xxTOXGR_CR1","namespace":"http://www.assero.co.uk/MDRSdtmMd/CDISC/V3","label":"Based on Variable Reference","extension_properties":[],"enabled":true,"optional":false,"ordinal":1,"local_label":"","subject_ref":{"namespace":"http://www.assero.co.uk/MDRSdtmM/CDISC/V3","id":"M-CDISC_SDTMMODEL_xxTOXGR"}}},{"type":"http://www.assero.co.uk/BusinessDomain#ClassVariable","id":"M-CDISC_SDTMMODELFINDINGS_xxSEV","namespace":"http://www.assero.co.uk/MDRSdtmMd/CDISC/V3","label":"Severity","extension_properties":[],"ordinal":58,"rule":"","name":"--SEV","variable_ref":{"type":"http://www.assero.co.uk/BusinessOperational#CReference","id":"M-CDISC_SDTMMODELFINDINGS_xxSEV_CR1","namespace":"http://www.assero.co.uk/MDRSdtmMd/CDISC/V3","label":"Based on Variable Reference","extension_properties":[],"enabled":true,"optional":false,"ordinal":1,"local_label":"","subject_ref":{"namespace":"http://www.assero.co.uk/MDRSdtmM/CDISC/V3","id":"M-CDISC_SDTMMODEL_xxSEV"}}},{"type":"http://www.assero.co.uk/BusinessDomain#ClassVariable","id":"M-CDISC_SDTMMODELFINDINGS_xxDTHREL","namespace":"http://www.assero.co.uk/MDRSdtmMd/CDISC/V3","label":"Relationship to Death","extension_properties":[],"ordinal":59,"rule":"","name":"--DTHREL","variable_ref":{"type":"http://www.assero.co.uk/BusinessOperational#CReference","id":"M-CDISC_SDTMMODELFINDINGS_xxDTHREL_CR1","namespace":"http://www.assero.co.uk/MDRSdtmMd/CDISC/V3","label":"Based on Variable Reference","extension_properties":[],"enabled":true,"optional":false,"ordinal":1,"local_label":"","subject_ref":{"namespace":"http://www.assero.co.uk/MDRSdtmM/CDISC/V3","id":"M-CDISC_SDTMMODEL_xxDTHREL"}}},{"type":"http://www.assero.co.uk/BusinessDomain#ClassVariable","id":"M-CDISC_SDTMMODELFINDINGS_xxLLOQ","namespace":"http://www.assero.co.uk/MDRSdtmMd/CDISC/V3","label":"Lower Limit of Quantitation","extension_properties":[],"ordinal":60,"rule":"","name":"--LLOQ","variable_ref":{"type":"http://www.assero.co.uk/BusinessOperational#CReference","id":"M-CDISC_SDTMMODELFINDINGS_xxLLOQ_CR1","namespace":"http://www.assero.co.uk/MDRSdtmMd/CDISC/V3","label":"Based on Variable Reference","extension_properties":[],"enabled":true,"optional":false,"ordinal":1,"local_label":"","subject_ref":{"namespace":"http://www.assero.co.uk/MDRSdtmM/CDISC/V3","id":"M-CDISC_SDTMMODEL_xxLLOQ"}}},{"type":"http://www.assero.co.uk/BusinessDomain#ClassVariable","id":"M-CDISC_SDTMMODELFINDINGS_xxULOQ","namespace":"http://www.assero.co.uk/MDRSdtmMd/CDISC/V3","label":"Upper Limit of Quantitation","extension_properties":[],"ordinal":61,"rule":"","name":"--ULOQ","variable_ref":{"type":"http://www.assero.co.uk/BusinessOperational#CReference","id":"M-CDISC_SDTMMODELFINDINGS_xxULOQ_CR1","namespace":"http://www.assero.co.uk/MDRSdtmMd/CDISC/V3","label":"Based on Variable Reference","extension_properties":[],"enabled":true,"optional":false,"ordinal":1,"local_label":"","subject_ref":{"namespace":"http://www.assero.co.uk/MDRSdtmM/CDISC/V3","id":"M-CDISC_SDTMMODEL_xxULOQ"}}},{"type":"http://www.assero.co.uk/BusinessDomain#ClassVariable","id":"M-CDISC_SDTMMODELFINDINGS_xxEXCLFL","namespace":"http://www.assero.co.uk/MDRSdtmMd/CDISC/V3","label":"Exclude from Statistics","extension_properties":[],"ordinal":62,"rule":"","name":"--EXCLFL","variable_ref":{"type":"http://www.assero.co.uk/BusinessOperational#CReference","id":"M-CDISC_SDTMMODELFINDINGS_xxEXCLFL_CR1","namespace":"http://www.assero.co.uk/MDRSdtmMd/CDISC/V3","label":"Based on Variable Reference","extension_properties":[],"enabled":true,"optional":false,"ordinal":1,"local_label":"","subject_ref":{"namespace":"http://www.assero.co.uk/MDRSdtmM/CDISC/V3","id":"M-CDISC_SDTMMODEL_xxEXCLFL"}}},{"type":"http://www.assero.co.uk/BusinessDomain#ClassVariable","id":"M-CDISC_SDTMMODELFINDINGS_xxREASEX","namespace":"http://www.assero.co.uk/MDRSdtmMd/CDISC/V3","label":"Reason for Exclusion from Statistics","extension_properties":[],"ordinal":63,"rule":"","name":"--REASEX","variable_ref":{"type":"http://www.assero.co.uk/BusinessOperational#CReference","id":"M-CDISC_SDTMMODELFINDINGS_xxREASEX_CR1","namespace":"http://www.assero.co.uk/MDRSdtmMd/CDISC/V3","label":"Based on Variable Reference","extension_properties":[],"enabled":true,"optional":false,"ordinal":1,"local_label":"","subject_ref":{"namespace":"http://www.assero.co.uk/MDRSdtmM/CDISC/V3","id":"M-CDISC_SDTMMODEL_xxREASEX"}}},{"type":"http://www.assero.co.uk/BusinessDomain#ClassVariable","id":"M-CDISC_SDTMMODELFINDINGS_VISITNUM","namespace":"http://www.assero.co.uk/MDRSdtmMd/CDISC/V3","label":"Visit Number","extension_properties":[],"ordinal":64,"rule":"","name":"VISITNUM","variable_ref":{"type":"http://www.assero.co.uk/BusinessOperational#CReference","id":"M-CDISC_SDTMMODELFINDINGS_VISITNUM_CR1","namespace":"http://www.assero.co.uk/MDRSdtmMd/CDISC/V3","label":"Based on Variable Reference","extension_properties":[],"enabled":true,"optional":false,"ordinal":1,"local_label":"","subject_ref":{"namespace":"http://www.assero.co.uk/MDRSdtmM/CDISC/V3","id":"M-CDISC_SDTMMODEL_VISITNUM"}}},{"type":"http://www.assero.co.uk/BusinessDomain#ClassVariable","id":"M-CDISC_SDTMMODELFINDINGS_VISIT","namespace":"http://www.assero.co.uk/MDRSdtmMd/CDISC/V3","label":"Visit Name","extension_properties":[],"ordinal":65,"rule":"","name":"VISIT","variable_ref":{"type":"http://www.assero.co.uk/BusinessOperational#CReference","id":"M-CDISC_SDTMMODELFINDINGS_VISIT_CR1","namespace":"http://www.assero.co.uk/MDRSdtmMd/CDISC/V3","label":"Based on Variable Reference","extension_properties":[],"enabled":true,"optional":false,"ordinal":1,"local_label":"","subject_ref":{"namespace":"http://www.assero.co.uk/MDRSdtmM/CDISC/V3","id":"M-CDISC_SDTMMODEL_VISIT"}}},{"type":"http://www.assero.co.uk/BusinessDomain#ClassVariable","id":"M-CDISC_SDTMMODELFINDINGS_VISITDY","namespace":"http://www.assero.co.uk/MDRSdtmMd/CDISC/V3","label":"Planned Study Day of Visit","extension_properties":[],"ordinal":66,"rule":"","name":"VISITDY","variable_ref":{"type":"http://www.assero.co.uk/BusinessOperational#CReference","id":"M-CDISC_SDTMMODELFINDINGS_VISITDY_CR1","namespace":"http://www.assero.co.uk/MDRSdtmMd/CDISC/V3","label":"Based on Variable Reference","extension_properties":[],"enabled":true,"optional":false,"ordinal":1,"local_label":"","subject_ref":{"namespace":"http://www.assero.co.uk/MDRSdtmM/CDISC/V3","id":"M-CDISC_SDTMMODEL_VISITDY"}}},{"type":"http://www.assero.co.uk/BusinessDomain#ClassVariable","id":"M-CDISC_SDTMMODELFINDINGS_TAETORD","namespace":"http://www.assero.co.uk/MDRSdtmMd/CDISC/V3","label":"Planned Order of Element within Arm","extension_properties":[],"ordinal":67,"rule":"","name":"TAETORD","variable_ref":{"type":"http://www.assero.co.uk/BusinessOperational#CReference","id":"M-CDISC_SDTMMODELFINDINGS_TAETORD_CR1","namespace":"http://www.assero.co.uk/MDRSdtmMd/CDISC/V3","label":"Based on Variable Reference","extension_properties":[],"enabled":true,"optional":false,"ordinal":1,"local_label":"","subject_ref":{"namespace":"http://www.assero.co.uk/MDRSdtmM/CDISC/V3","id":"M-CDISC_SDTMMODEL_TAETORD"}}},{"type":"http://www.assero.co.uk/BusinessDomain#ClassVariable","id":"M-CDISC_SDTMMODELFINDINGS_EPOCH","namespace":"http://www.assero.co.uk/MDRSdtmMd/CDISC/V3","label":"Epoch","extension_properties":[],"ordinal":68,"rule":"","name":"EPOCH","variable_ref":{"type":"http://www.assero.co.uk/BusinessOperational#CReference","id":"M-CDISC_SDTMMODELFINDINGS_EPOCH_CR1","namespace":"http://www.assero.co.uk/MDRSdtmMd/CDISC/V3","label":"Based on Variable Reference","extension_properties":[],"enabled":true,"optional":false,"ordinal":1,"local_label":"","subject_ref":{"namespace":"http://www.assero.co.uk/MDRSdtmM/CDISC/V3","id":"M-CDISC_SDTMMODEL_EPOCH"}}},{"type":"http://www.assero.co.uk/BusinessDomain#ClassVariable","id":"M-CDISC_SDTMMODELFINDINGS_xxDTC","namespace":"http://www.assero.co.uk/MDRSdtmMd/CDISC/V3","label":"Date/Time of Collection","extension_properties":[],"ordinal":69,"rule":"","name":"--DTC","variable_ref":{"type":"http://www.assero.co.uk/BusinessOperational#CReference","id":"M-CDISC_SDTMMODELFINDINGS_xxDTC_CR1","namespace":"http://www.assero.co.uk/MDRSdtmMd/CDISC/V3","label":"Based on Variable Reference","extension_properties":[],"enabled":true,"optional":false,"ordinal":1,"local_label":"","subject_ref":{"namespace":"http://www.assero.co.uk/MDRSdtmM/CDISC/V3","id":"M-CDISC_SDTMMODEL_xxDTC"}}},{"type":"http://www.assero.co.uk/BusinessDomain#ClassVariable","id":"M-CDISC_SDTMMODELFINDINGS_xxSTDTC","namespace":"http://www.assero.co.uk/MDRSdtmMd/CDISC/V3","label":"Start Date/Time of Observation","extension_properties":[],"ordinal":70,"rule":"","name":"--STDTC","variable_ref":{"type":"http://www.assero.co.uk/BusinessOperational#CReference","id":"M-CDISC_SDTMMODELFINDINGS_xxSTDTC_CR1","namespace":"http://www.assero.co.uk/MDRSdtmMd/CDISC/V3","label":"Based on Variable Reference","extension_properties":[],"enabled":true,"optional":false,"ordinal":1,"local_label":"","subject_ref":{"namespace":"http://www.assero.co.uk/MDRSdtmM/CDISC/V3","id":"M-CDISC_SDTMMODEL_xxSTDTC"}}},{"type":"http://www.assero.co.uk/BusinessDomain#ClassVariable","id":"M-CDISC_SDTMMODELFINDINGS_xxENDTC","namespace":"http://www.assero.co.uk/MDRSdtmMd/CDISC/V3","label":"End Date/Time of Observation","extension_properties":[],"ordinal":71,"rule":"","name":"--ENDTC","variable_ref":{"type":"http://www.assero.co.uk/BusinessOperational#CReference","id":"M-CDISC_SDTMMODELFINDINGS_xxENDTC_CR1","namespace":"http://www.assero.co.uk/MDRSdtmMd/CDISC/V3","label":"Based on Variable Reference","extension_properties":[],"enabled":true,"optional":false,"ordinal":1,"local_label":"","subject_ref":{"namespace":"http://www.assero.co.uk/MDRSdtmM/CDISC/V3","id":"M-CDISC_SDTMMODEL_xxENDTC"}}},{"type":"http://www.assero.co.uk/BusinessDomain#ClassVariable","id":"M-CDISC_SDTMMODELFINDINGS_xxDY","namespace":"http://www.assero.co.uk/MDRSdtmMd/CDISC/V3","label":"Study Day of Visit/Collection/Exam","extension_properties":[],"ordinal":72,"rule":"","name":"--DY","variable_ref":{"type":"http://www.assero.co.uk/BusinessOperational#CReference","id":"M-CDISC_SDTMMODELFINDINGS_xxDY_CR1","namespace":"http://www.assero.co.uk/MDRSdtmMd/CDISC/V3","label":"Based on Variable Reference","extension_properties":[],"enabled":true,"optional":false,"ordinal":1,"local_label":"","subject_ref":{"namespace":"http://www.assero.co.uk/MDRSdtmM/CDISC/V3","id":"M-CDISC_SDTMMODEL_xxDY"}}},{"type":"http://www.assero.co.uk/BusinessDomain#ClassVariable","id":"M-CDISC_SDTMMODELFINDINGS_xxSTDY","namespace":"http://www.assero.co.uk/MDRSdtmMd/CDISC/V3","label":"Study Day of Start of Observation","extension_properties":[],"ordinal":73,"rule":"","name":"--STDY","variable_ref":{"type":"http://www.assero.co.uk/BusinessOperational#CReference","id":"M-CDISC_SDTMMODELFINDINGS_xxSTDY_CR1","namespace":"http://www.assero.co.uk/MDRSdtmMd/CDISC/V3","label":"Based on Variable Reference","extension_properties":[],"enabled":true,"optional":false,"ordinal":1,"local_label":"","subject_ref":{"namespace":"http://www.assero.co.uk/MDRSdtmM/CDISC/V3","id":"M-CDISC_SDTMMODEL_xxSTDY"}}},{"type":"http://www.assero.co.uk/BusinessDomain#ClassVariable","id":"M-CDISC_SDTMMODELFINDINGS_xxENDY","namespace":"http://www.assero.co.uk/MDRSdtmMd/CDISC/V3","label":"Study Day of End of Observation","extension_properties":[],"ordinal":74,"rule":"","name":"--ENDY","variable_ref":{"type":"http://www.assero.co.uk/BusinessOperational#CReference","id":"M-CDISC_SDTMMODELFINDINGS_xxENDY_CR1","namespace":"http://www.assero.co.uk/MDRSdtmMd/CDISC/V3","label":"Based on Variable Reference","extension_properties":[],"enabled":true,"optional":false,"ordinal":1,"local_label":"","subject_ref":{"namespace":"http://www.assero.co.uk/MDRSdtmM/CDISC/V3","id":"M-CDISC_SDTMMODEL_xxENDY"}}},{"type":"http://www.assero.co.uk/BusinessDomain#ClassVariable","id":"M-CDISC_SDTMMODELFINDINGS_xxDUR","namespace":"http://www.assero.co.uk/MDRSdtmMd/CDISC/V3","label":"Duration","extension_properties":[],"ordinal":75,"rule":"","name":"--DUR","variable_ref":{"type":"http://www.assero.co.uk/BusinessOperational#CReference","id":"M-CDISC_SDTMMODELFINDINGS_xxDUR_CR1","namespace":"http://www.assero.co.uk/MDRSdtmMd/CDISC/V3","label":"Based on Variable Reference","extension_properties":[],"enabled":true,"optional":false,"ordinal":1,"local_label":"","subject_ref":{"namespace":"http://www.assero.co.uk/MDRSdtmM/CDISC/V3","id":"M-CDISC_SDTMMODEL_xxDUR"}}},{"type":"http://www.assero.co.uk/BusinessDomain#ClassVariable","id":"M-CDISC_SDTMMODELFINDINGS_xxTPT","namespace":"http://www.assero.co.uk/MDRSdtmMd/CDISC/V3","label":"Planned Time Point Name","extension_properties":[],"ordinal":76,"rule":"","name":"--TPT","variable_ref":{"type":"http://www.assero.co.uk/BusinessOperational#CReference","id":"M-CDISC_SDTMMODELFINDINGS_xxTPT_CR1","namespace":"http://www.assero.co.uk/MDRSdtmMd/CDISC/V3","label":"Based on Variable Reference","extension_properties":[],"enabled":true,"optional":false,"ordinal":1,"local_label":"","subject_ref":{"namespace":"http://www.assero.co.uk/MDRSdtmM/CDISC/V3","id":"M-CDISC_SDTMMODEL_xxTPT"}}},{"type":"http://www.assero.co.uk/BusinessDomain#ClassVariable","id":"M-CDISC_SDTMMODELFINDINGS_xxTPTNUM","namespace":"http://www.assero.co.uk/MDRSdtmMd/CDISC/V3","label":"Planned Time Point Number","extension_properties":[],"ordinal":77,"rule":"","name":"--TPTNUM","variable_ref":{"type":"http://www.assero.co.uk/BusinessOperational#CReference","id":"M-CDISC_SDTMMODELFINDINGS_xxTPTNUM_CR1","namespace":"http://www.assero.co.uk/MDRSdtmMd/CDISC/V3","label":"Based on Variable Reference","extension_properties":[],"enabled":true,"optional":false,"ordinal":1,"local_label":"","subject_ref":{"namespace":"http://www.assero.co.uk/MDRSdtmM/CDISC/V3","id":"M-CDISC_SDTMMODEL_xxTPTNUM"}}},{"type":"http://www.assero.co.uk/BusinessDomain#ClassVariable","id":"M-CDISC_SDTMMODELFINDINGS_xxELTM","namespace":"http://www.assero.co.uk/MDRSdtmMd/CDISC/V3","label":"Planned Elapsed Time from Time Point Ref","extension_properties":[],"ordinal":78,"rule":"","name":"--ELTM","variable_ref":{"type":"http://www.assero.co.uk/BusinessOperational#CReference","id":"M-CDISC_SDTMMODELFINDINGS_xxELTM_CR1","namespace":"http://www.assero.co.uk/MDRSdtmMd/CDISC/V3","label":"Based on Variable Reference","extension_properties":[],"enabled":true,"optional":false,"ordinal":1,"local_label":"","subject_ref":{"namespace":"http://www.assero.co.uk/MDRSdtmM/CDISC/V3","id":"M-CDISC_SDTMMODEL_xxELTM"}}},{"type":"http://www.assero.co.uk/BusinessDomain#ClassVariable","id":"M-CDISC_SDTMMODELFINDINGS_xxTPTREF","namespace":"http://www.assero.co.uk/MDRSdtmMd/CDISC/V3","label":"Time Point Reference","extension_properties":[],"ordinal":79,"rule":"","name":"--TPTREF","variable_ref":{"type":"http://www.assero.co.uk/BusinessOperational#CReference","id":"M-CDISC_SDTMMODELFINDINGS_xxTPTREF_CR1","namespace":"http://www.assero.co.uk/MDRSdtmMd/CDISC/V3","label":"Based on Variable Reference","extension_properties":[],"enabled":true,"optional":false,"ordinal":1,"local_label":"","subject_ref":{"namespace":"http://www.assero.co.uk/MDRSdtmM/CDISC/V3","id":"M-CDISC_SDTMMODEL_xxTPTREF"}}},{"type":"http://www.assero.co.uk/BusinessDomain#ClassVariable","id":"M-CDISC_SDTMMODELFINDINGS_xxRFTDTC","namespace":"http://www.assero.co.uk/MDRSdtmMd/CDISC/V3","label":"Date/Time of Reference Time Point","extension_properties":[],"ordinal":80,"rule":"","name":"--RFTDTC","variable_ref":{"type":"http://www.assero.co.uk/BusinessOperational#CReference","id":"M-CDISC_SDTMMODELFINDINGS_xxRFTDTC_CR1","namespace":"http://www.assero.co.uk/MDRSdtmMd/CDISC/V3","label":"Based on Variable Reference","extension_properties":[],"enabled":true,"optional":false,"ordinal":1,"local_label":"","subject_ref":{"namespace":"http://www.assero.co.uk/MDRSdtmM/CDISC/V3","id":"M-CDISC_SDTMMODEL_xxRFTDTC"}}},{"type":"http://www.assero.co.uk/BusinessDomain#ClassVariable","id":"M-CDISC_SDTMMODELFINDINGS_xxSTRF","namespace":"http://www.assero.co.uk/MDRSdtmMd/CDISC/V3","label":"Start Relative to Reference Period","extension_properties":[],"ordinal":81,"rule":"","name":"--STRF","variable_ref":{"type":"http://www.assero.co.uk/BusinessOperational#CReference","id":"M-CDISC_SDTMMODELFINDINGS_xxSTRF_CR1","namespace":"http://www.assero.co.uk/MDRSdtmMd/CDISC/V3","label":"Based on Variable Reference","extension_properties":[],"enabled":true,"optional":false,"ordinal":1,"local_label":"","subject_ref":{"namespace":"http://www.assero.co.uk/MDRSdtmM/CDISC/V3","id":"M-CDISC_SDTMMODEL_xxSTRF"}}},{"type":"http://www.assero.co.uk/BusinessDomain#ClassVariable","id":"M-CDISC_SDTMMODELFINDINGS_xxENRF","namespace":"http://www.assero.co.uk/MDRSdtmMd/CDISC/V3","label":"End Relative to Reference Period","extension_properties":[],"ordinal":82,"rule":"","name":"--ENRF","variable_ref":{"type":"http://www.assero.co.uk/BusinessOperational#CReference","id":"M-CDISC_SDTMMODELFINDINGS_xxENRF_CR1","namespace":"http://www.assero.co.uk/MDRSdtmMd/CDISC/V3","label":"Based on Variable Reference","extension_properties":[],"enabled":true,"optional":false,"ordinal":1,"local_label":"","subject_ref":{"namespace":"http://www.assero.co.uk/MDRSdtmM/CDISC/V3","id":"M-CDISC_SDTMMODEL_xxENRF"}}},{"type":"http://www.assero.co.uk/BusinessDomain#ClassVariable","id":"M-CDISC_SDTMMODELFINDINGS_xxEVLINT","namespace":"http://www.assero.co.uk/MDRSdtmMd/CDISC/V3","label":"Evaluation Interval","extension_properties":[],"ordinal":83,"rule":"","name":"--EVLINT","variable_ref":{"type":"http://www.assero.co.uk/BusinessOperational#CReference","id":"M-CDISC_SDTMMODELFINDINGS_xxEVLINT_CR1","namespace":"http://www.assero.co.uk/MDRSdtmMd/CDISC/V3","label":"Based on Variable Reference","extension_properties":[],"enabled":true,"optional":false,"ordinal":1,"local_label":"","subject_ref":{"namespace":"http://www.assero.co.uk/MDRSdtmM/CDISC/V3","id":"M-CDISC_SDTMMODEL_xxEVLINT"}}},{"type":"http://www.assero.co.uk/BusinessDomain#ClassVariable","id":"M-CDISC_SDTMMODELFINDINGS_xxEVINTX","namespace":"http://www.assero.co.uk/MDRSdtmMd/CDISC/V3","label":"Evaluation Interval Text","extension_properties":[],"ordinal":84,"rule":"","name":"--EVINTX","variable_ref":{"type":"http://www.assero.co.uk/BusinessOperational#CReference","id":"M-CDISC_SDTMMODELFINDINGS_xxEVINTX_CR1","namespace":"http://www.assero.co.uk/MDRSdtmMd/CDISC/V3","label":"Based on Variable Reference","extension_properties":[],"enabled":true,"optional":false,"ordinal":1,"local_label":"","subject_ref":{"namespace":"http://www.assero.co.uk/MDRSdtmM/CDISC/V3","id":"M-CDISC_SDTMMODEL_xxEVINTX"}}},{"type":"http://www.assero.co.uk/BusinessDomain#ClassVariable","id":"M-CDISC_SDTMMODELFINDINGS_xxSTRTPT","namespace":"http://www.assero.co.uk/MDRSdtmMd/CDISC/V3","label":"Start Relative to Reference Time Point","extension_properties":[],"ordinal":85,"rule":"","name":"--STRTPT","variable_ref":{"type":"http://www.assero.co.uk/BusinessOperational#CReference","id":"M-CDISC_SDTMMODELFINDINGS_xxSTRTPT_CR1","namespace":"http://www.assero.co.uk/MDRSdtmMd/CDISC/V3","label":"Based on Variable Reference","extension_properties":[],"enabled":true,"optional":false,"ordinal":1,"local_label":"","subject_ref":{"namespace":"http://www.assero.co.uk/MDRSdtmM/CDISC/V3","id":"M-CDISC_SDTMMODEL_xxSTRTPT"}}},{"type":"http://www.assero.co.uk/BusinessDomain#ClassVariable","id":"M-CDISC_SDTMMODELFINDINGS_xxSTTPT","namespace":"http://www.assero.co.uk/MDRSdtmMd/CDISC/V3","label":"Start Reference Time Point","extension_properties":[],"ordinal":86,"rule":"","name":"--STTPT","variable_ref":{"type":"http://www.assero.co.uk/BusinessOperational#CReference","id":"M-CDISC_SDTMMODELFINDINGS_xxSTTPT_CR1","namespace":"http://www.assero.co.uk/MDRSdtmMd/CDISC/V3","label":"Based on Variable Reference","extension_properties":[],"enabled":true,"optional":false,"ordinal":1,"local_label":"","subject_ref":{"namespace":"http://www.assero.co.uk/MDRSdtmM/CDISC/V3","id":"M-CDISC_SDTMMODEL_xxSTTPT"}}},{"type":"http://www.assero.co.uk/BusinessDomain#ClassVariable","id":"M-CDISC_SDTMMODELFINDINGS_xxENRTPT","namespace":"http://www.assero.co.uk/MDRSdtmMd/CDISC/V3","label":"End Relative to Reference Time Point","extension_properties":[],"ordinal":87,"rule":"","name":"--ENRTPT","variable_ref":{"type":"http://www.assero.co.uk/BusinessOperational#CReference","id":"M-CDISC_SDTMMODELFINDINGS_xxENRTPT_CR1","namespace":"http://www.assero.co.uk/MDRSdtmMd/CDISC/V3","label":"Based on Variable Reference","extension_properties":[],"enabled":true,"optional":false,"ordinal":1,"local_label":"","subject_ref":{"namespace":"http://www.assero.co.uk/MDRSdtmM/CDISC/V3","id":"M-CDISC_SDTMMODEL_xxENRTPT"}}},{"type":"http://www.assero.co.uk/BusinessDomain#ClassVariable","id":"M-CDISC_SDTMMODELFINDINGS_xxENTPT","namespace":"http://www.assero.co.uk/MDRSdtmMd/CDISC/V3","label":"End Reference Time Point","extension_properties":[],"ordinal":88,"rule":"","name":"--ENTPT","variable_ref":{"type":"http://www.assero.co.uk/BusinessOperational#CReference","id":"M-CDISC_SDTMMODELFINDINGS_xxENTPT_CR1","namespace":"http://www.assero.co.uk/MDRSdtmMd/CDISC/V3","label":"Based on Variable Reference","extension_properties":[],"enabled":true,"optional":false,"ordinal":1,"local_label":"","subject_ref":{"namespace":"http://www.assero.co.uk/MDRSdtmM/CDISC/V3","id":"M-CDISC_SDTMMODEL_xxENTPT"}}},{"type":"http://www.assero.co.uk/BusinessDomain#ClassVariable","id":"M-CDISC_SDTMMODELFINDINGS_xxSTINT","namespace":"http://www.assero.co.uk/MDRSdtmMd/CDISC/V3","label":"Planned Start of Assessment Interval","extension_properties":[],"ordinal":89,"rule":"","name":"--STINT","variable_ref":{"type":"http://www.assero.co.uk/BusinessOperational#CReference","id":"M-CDISC_SDTMMODELFINDINGS_xxSTINT_CR1","namespace":"http://www.assero.co.uk/MDRSdtmMd/CDISC/V3","label":"Based on Variable Reference","extension_properties":[],"enabled":true,"optional":false,"ordinal":1,"local_label":"","subject_ref":{"namespace":"http://www.assero.co.uk/MDRSdtmM/CDISC/V3","id":"M-CDISC_SDTMMODEL_xxSTINT"}}},{"type":"http://www.assero.co.uk/BusinessDomain#ClassVariable","id":"M-CDISC_SDTMMODELFINDINGS_xxENINT","namespace":"http://www.assero.co.uk/MDRSdtmMd/CDISC/V3","label":"Planned End of Assessment Interval","extension_properties":[],"ordinal":90,"rule":"","name":"--ENINT","variable_ref":{"type":"http://www.assero.co.uk/BusinessOperational#CReference","id":"M-CDISC_SDTMMODELFINDINGS_xxENINT_CR1","namespace":"http://www.assero.co.uk/MDRSdtmMd/CDISC/V3","label":"Based on Variable Reference","extension_properties":[],"enabled":true,"optional":false,"ordinal":1,"local_label":"","subject_ref":{"namespace":"http://www.assero.co.uk/MDRSdtmM/CDISC/V3","id":"M-CDISC_SDTMMODEL_xxENINT"}}},{"type":"http://www.assero.co.uk/BusinessDomain#ClassVariable","id":"M-CDISC_SDTMMODELFINDINGS_xxDETECT","namespace":"http://www.assero.co.uk/MDRSdtmMd/CDISC/V3","label":"Time in Days to Detection","extension_properties":[],"ordinal":91,"rule":"","name":"--DETECT","variable_ref":{"type":"http://www.assero.co.uk/BusinessOperational#CReference","id":"M-CDISC_SDTMMODELFINDINGS_xxDETECT_CR1","namespace":"http://www.assero.co.uk/MDRSdtmMd/CDISC/V3","label":"Based on Variable Reference","extension_properties":[],"enabled":true,"optional":false,"ordinal":1,"local_label":"","subject_ref":{"namespace":"http://www.assero.co.uk/MDRSdtmM/CDISC/V3","id":"M-CDISC_SDTMMODEL_xxDETECT"}}}]}