{"type":"http://www.assero.co.uk/BusinessDomain#UserDomain","id":"D-ACME_DMDomain","namespace":"http://www.assero.co.uk/MDRSdtmUD/ACME/V1","label":"Demographics","extension_properties":[],"origin":"","change_description":"","creation_date":"2017-12-14T19:42:39+00:00","last_changed_date":"2017-12-14T19:42:39+00:00","explanatory_comment":"","registration_state":{"namespace":"http://www.assero.co.uk/MDRItems","id":"RS-ACME_DMDomain-1","registration_authority":{"uri":"http://www.assero.co.uk/RA#DUNS123456789","rdf_type":"http://www.assero.co.uk/ISO11179Registration#RegistrationAuthority","organization_identifier":"123456789","international_code_designator":"DUNS","owner":true,"ra_namespace":{"uri":"http://www.assero.co.uk/NS#ACME","rdf_type":"http://www.assero.co.uk/ISO11179Identification#Namespace","short_name":"ACME","name":"ACME Pharma","authority":"www.acme-pharma.com"}},"registration_status":"Incomplete","administrative_note":"","effective_date":"2016-01-01T00:00:00+00:00","until_date":"2016-01-01T00:00:00+00:00","current":false,"unresolved_issue":"","administrative_status":"","previous_state":"Incomplete"},"scoped_identifier":{"id":"SI-ACME_DMDomain-1","identifier":"DM Domain","version_label":"","version":1,"semantic_version":"0.1.0","namespace":{"uri":"http://www.assero.co.uk/NS#ACME","rdf_type":"http://www.assero.co.uk/ISO11179Identification#Namespace","short_name":"ACME","name":"ACME Pharma","authority":"www.acme-pharma.com"}},"ordinal":1,"rule":"","prefix":"DM","structure":"","notes":"","model_ref":{"type":"http://www.assero.co.uk/BusinessOperational#TReference","id":"D-ACME_DMDomain_MD1","namespace":"http://www.assero.co.uk/MDRSdtmUD/ACME/V1","label":"Based on Domain Reference","extension_properties":[],"enabled":true,"optional":false,"ordinal":1,"local_label":"","subject_ref":{"namespace":"http://www.assero.co.uk/MDRSdtmMd/CDISC/V3","id":"M-CDISC_SDTMMODELSPECIALPURPOSE"}},"ig_ref":{"type":"http://www.assero.co.uk/BusinessOperational#TReference","id":"D-ACME_DMDomain_IGD1","namespace":"http://www.assero.co.uk/MDRSdtmUD/ACME/V1","label":"Based on Domain Reference","extension_properties":[],"enabled":true,"optional":false,"ordinal":1,"local_label":"","subject_ref":{"namespace":"http://www.assero.co.uk/MDRSdtmIgD/CDISC/V3","id":"IG-CDISC_SDTMIGDM"}},"children":[{"type":"http://www.assero.co.uk/BusinessDomain#UserVariable","id":"D-ACME_DMDomain_V1","namespace":"http://www.assero.co.uk/MDRSdtmUD/ACME/V1","label":"Study Identifier","extension_properties":[],"ordinal":1,"rule":"","name":"STUDYID","notes":"","format":"","ct":"","non_standard":false,"comment":"","length":0,"used":true,"key_ordinal":0,"datatype":{"type":"http://www.assero.co.uk/BusinessDomain#VariableType","id":"M-CDISC_SDTMMODEL_DT_CHAR","namespace":"http://www.assero.co.uk/MDRSdtmM/CDISC/V3","label":"Char","extension_properties":[]},"compliance":{"type":"http://www.assero.co.uk/BusinessDomain#VariableCompliance","id":"IG-CDISC_SDTMIG_C_REQUIRED","namespace":"http://www.assero.co.uk/MDRSdtmIg/CDISC/V3","label":"Required","extension_properties":[]},"classification":{"type":"http://www.assero.co.uk/BusinessDomain#VariableClassification","id":"M-CDISC_SDTMMODEL_C_IDENTIFIER","namespace":"http://www.assero.co.uk/MDRSdtmM/CDISC/V3","label":"Identifier","extension_properties":[]},"sub_classification":{},"variable_ref":{"type":"http://www.assero.co.uk/BusinessOperational#CReference","id":"D-ACME_DMDomain_V1_IGV1","namespace":"http://www.assero.co.uk/MDRSdtmUD/ACME/V1","label":"Based on Variable Reference","extension_properties":[],"enabled":true,"optional":false,"ordinal":1,"local_label":"","subject_ref":{"namespace":"http://www.assero.co.uk/MDRSdtmIgD/CDISC/V3","id":"IG-CDISC_SDTMIGDM_STUDYID"}},"property_refs":[]},{"type":"http://www.assero.co.uk/BusinessDomain#UserVariable","id":"D-ACME_DMDomain_V2","namespace":"http://www.assero.co.uk/MDRSdtmUD/ACME/V1","label":"Domain Abbreviation","extension_properties":[],"ordinal":2,"rule":"","name":"DOMAIN","notes":"","format":"","ct":"DOMAIN","non_standard":false,"comment":"","length":0,"used":true,"key_ordinal":0,"datatype":{"type":"http://www.assero.co.uk/BusinessDomain#VariableType","id":"M-CDISC_SDTMMODEL_DT_CHAR","namespace":"http://www.assero.co.uk/MDRSdtmM/CDISC/V3","label":"Char","extension_properties":[]},"compliance":{"type":"http://www.assero.co.uk/BusinessDomain#VariableCompliance","id":"IG-CDISC_SDTMIG_C_REQUIRED","namespace":"http://www.assero.co.uk/MDRSdtmIg/CDISC/V3","label":"Required","extension_properties":[]},"classification":{"type":"http://www.assero.co.uk/BusinessDomain#VariableClassification","id":"M-CDISC_SDTMMODEL_C_IDENTIFIER","namespace":"http://www.assero.co.uk/MDRSdtmM/CDISC/V3","label":"Identifier","extension_properties":[]},"sub_classification":{},"variable_ref":{"type":"http://www.assero.co.uk/BusinessOperational#CReference","id":"D-ACME_DMDomain_V2_IGV1","namespace":"http://www.assero.co.uk/MDRSdtmUD/ACME/V1","label":"Based on Variable Reference","extension_properties":[],"enabled":true,"optional":false,"ordinal":1,"local_label":"","subject_ref":{"namespace":"http://www.assero.co.uk/MDRSdtmIgD/CDISC/V3","id":"IG-CDISC_SDTMIGDM_DOMAIN"}},"property_refs":[]},{"type":"http://www.assero.co.uk/BusinessDomain#UserVariable","id":"D-ACME_DMDomain_V3","namespace":"http://www.assero.co.uk/MDRSdtmUD/ACME/V1","label":"Unique Subject Identifier","extension_properties":[],"ordinal":3,"rule":"","name":"USUBJID","notes":"","format":"","ct":"","non_standard":false,"comment":"","length":0,"used":true,"key_ordinal":0,"datatype":{"type":"http://www.assero.co.uk/BusinessDomain#VariableType","id":"M-CDISC_SDTMMODEL_DT_CHAR","namespace":"http://www.assero.co.uk/MDRSdtmM/CDISC/V3","label":"Char","extension_properties":[]},"compliance":{"type":"http://www.assero.co.uk/BusinessDomain#VariableCompliance","id":"IG-CDISC_SDTMIG_C_REQUIRED","namespace":"http://www.assero.co.uk/MDRSdtmIg/CDISC/V3","label":"Required","extension_properties":[]},"classification":{"type":"http://www.assero.co.uk/BusinessDomain#VariableClassification","id":"M-CDISC_SDTMMODEL_C_IDENTIFIER","namespace":"http://www.assero.co.uk/MDRSdtmM/CDISC/V3","label":"Identifier","extension_properties":[]},"sub_classification":{},"variable_ref":{"type":"http://www.assero.co.uk/BusinessOperational#CReference","id":"D-ACME_DMDomain_V3_IGV1","namespace":"http://www.assero.co.uk/MDRSdtmUD/ACME/V1","label":"Based on Variable Reference","extension_properties":[],"enabled":true,"optional":false,"ordinal":1,"local_label":"","subject_ref":{"namespace":"http://www.assero.co.uk/MDRSdtmIgD/CDISC/V3","id":"IG-CDISC_SDTMIGDM_USUBJID"}},"property_refs":[]},{"type":"http://www.assero.co.uk/BusinessDomain#UserVariable","id":"D-ACME_DMDomain_V4","namespace":"http://www.assero.co.uk/MDRSdtmUD/ACME/V1","label":"Subject Identifier for the Study","extension_properties":[],"ordinal":4,"rule":"","name":"SUBJID","notes":"","format":"","ct":"","non_standard":false,"comment":"","length":0,"used":true,"key_ordinal":0,"datatype":{"type":"http://www.assero.co.uk/BusinessDomain#VariableType","id":"M-CDISC_SDTMMODEL_DT_CHAR","namespace":"http://www.assero.co.uk/MDRSdtmM/CDISC/V3","label":"Char","extension_properties":[]},"compliance":{"type":"http://www.assero.co.uk/BusinessDomain#VariableCompliance","id":"IG-CDISC_SDTMIG_C_REQUIRED","namespace":"http://www.assero.co.uk/MDRSdtmIg/CDISC/V3","label":"Required","extension_properties":[]},"classification":{"type":"http://www.assero.co.uk/BusinessDomain#VariableClassification","id":"M-CDISC_SDTMMODEL_C_TOPIC","namespace":"http://www.assero.co.uk/MDRSdtmM/CDISC/V3","label":"Topic","extension_properties":[]},"sub_classification":{},"variable_ref":{"type":"http://www.assero.co.uk/BusinessOperational#CReference","id":"D-ACME_DMDomain_V4_IGV1","namespace":"http://www.assero.co.uk/MDRSdtmUD/ACME/V1","label":"Based on Variable Reference","extension_properties":[],"enabled":true,"optional":false,"ordinal":1,"local_label":"","subject_ref":{"namespace":"http://www.assero.co.uk/MDRSdtmIgD/CDISC/V3","id":"IG-CDISC_SDTMIGDM_SUBJID"}},"property_refs":[]},{"type":"http://www.assero.co.uk/BusinessDomain#UserVariable","id":"D-ACME_DMDomain_V5","namespace":"http://www.assero.co.uk/MDRSdtmUD/ACME/V1","label":"Subject Reference Start Date/Time","extension_properties":[],"ordinal":5,"rule":"","name":"RFSTDTC","notes":"","format":"ISO 8601","ct":"","non_standard":false,"comment":"","length":0,"used":true,"key_ordinal":0,"datatype":{"type":"http://www.assero.co.uk/BusinessDomain#VariableType","id":"M-CDISC_SDTMMODEL_DT_CHAR","namespace":"http://www.assero.co.uk/MDRSdtmM/CDISC/V3","label":"Char","extension_properties":[]},"compliance":{"type":"http://www.assero.co.uk/BusinessDomain#VariableCompliance","id":"IG-CDISC_SDTMIG_C_EXPECTED","namespace":"http://www.assero.co.uk/MDRSdtmIg/CDISC/V3","label":"Expected","extension_properties":[]},"classification":{"type":"http://www.assero.co.uk/BusinessDomain#VariableClassification","id":"M-CDISC_SDTMMODEL_C_QUALIFIER","namespace":"http://www.assero.co.uk/MDRSdtmM/CDISC/V3","label":"Qualifier","extension_properties":[]},"sub_classification":{"type":"http://www.assero.co.uk/BusinessDomain#VariableClassification","id":"M-CDISC_SDTMMODEL_C_QUALIFIER_SC_RECORDQUALIFIER","namespace":"http://www.assero.co.uk/MDRSdtmM/CDISC/V3","label":"Record Qualifier","extension_properties":[]},"variable_ref":{"type":"http://www.assero.co.uk/BusinessOperational#CReference","id":"D-ACME_DMDomain_V5_IGV1","namespace":"http://www.assero.co.uk/MDRSdtmUD/ACME/V1","label":"Based on Variable Reference","extension_properties":[],"enabled":true,"optional":false,"ordinal":1,"local_label":"","subject_ref":{"namespace":"http://www.assero.co.uk/MDRSdtmIgD/CDISC/V3","id":"IG-CDISC_SDTMIGDM_RFSTDTC"}},"property_refs":[]},{"type":"http://www.assero.co.uk/BusinessDomain#UserVariable","id":"D-ACME_DMDomain_V6","namespace":"http://www.assero.co.uk/MDRSdtmUD/ACME/V1","label":"Subject Reference End Date/Time","extension_properties":[],"ordinal":6,"rule":"","name":"RFENDTC","notes":"","format":"ISO 8601","ct":"","non_standard":false,"comment":"","length":0,"used":true,"key_ordinal":0,"datatype":{"type":"http://www.assero.co.uk/BusinessDomain#VariableType","id":"M-CDISC_SDTMMODEL_DT_CHAR","namespace":"http://www.assero.co.uk/MDRSdtmM/CDISC/V3","label":"Char","extension_properties":[]},"compliance":{"type":"http://www.assero.co.uk/BusinessDomain#VariableCompliance","id":"IG-CDISC_SDTMIG_C_EXPECTED","namespace":"http://www.assero.co.uk/MDRSdtmIg/CDISC/V3","label":"Expected","extension_properties":[]},"classification":{"type":"http://www.assero.co.uk/BusinessDomain#VariableClassification","id":"M-CDISC_SDTMMODEL_C_QUALIFIER","namespace":"http://www.assero.co.uk/MDRSdtmM/CDISC/V3","label":"Qualifier","extension_properties":[]},"sub_classification":{"type":"http://www.assero.co.uk/BusinessDomain#VariableClassification","id":"M-CDISC_SDTMMODEL_C_QUALIFIER_SC_RECORDQUALIFIER","namespace":"http://www.assero.co.uk/MDRSdtmM/CDISC/V3","label":"Record Qualifier","extension_properties":[]},"variable_ref":{"type":"http://www.assero.co.uk/BusinessOperational#CReference","id":"D-ACME_DMDomain_V6_IGV1","namespace":"http://www.assero.co.uk/MDRSdtmUD/ACME/V1","label":"Based on Variable Reference","extension_properties":[],"enabled":true,"optional":false,"ordinal":1,"local_label":"","subject_ref":{"namespace":"http://www.assero.co.uk/MDRSdtmIgD/CDISC/V3","id":"IG-CDISC_SDTMIGDM_RFENDTC"}},"property_refs":[]},{"type":"http://www.assero.co.uk/BusinessDomain#UserVariable","id":"D-ACME_DMDomain_V7","namespace":"http://www.assero.co.uk/MDRSdtmUD/ACME/V1","label":"Date/Time of First Study Treatment","extension_properties":[],"ordinal":7,"rule":"","name":"RFXSTDTC","notes":"","format":"ISO 8601","ct":"","non_standard":false,"comment":"","length":0,"used":true,"key_ordinal":0,"datatype":{"type":"http://www.assero.co.uk/BusinessDomain#VariableType","id":"M-CDISC_SDTMMODEL_DT_CHAR","namespace":"http://www.assero.co.uk/MDRSdtmM/CDISC/V3","label":"Char","extension_properties":[]},"compliance":{"type":"http://www.assero.co.uk/BusinessDomain#VariableCompliance","id":"IG-CDISC_SDTMIG_C_EXPECTED","namespace":"http://www.assero.co.uk/MDRSdtmIg/CDISC/V3","label":"Expected","extension_properties":[]},"classification":{"type":"http://www.assero.co.uk/BusinessDomain#VariableClassification","id":"M-CDISC_SDTMMODEL_C_QUALIFIER","namespace":"http://www.assero.co.uk/MDRSdtmM/CDISC/V3","label":"Qualifier","extension_properties":[]},"sub_classification":{"type":"http://www.assero.co.uk/BusinessDomain#VariableClassification","id":"M-CDISC_SDTMMODEL_C_QUALIFIER_SC_RECORDQUALIFIER","namespace":"http://www.assero.co.uk/MDRSdtmM/CDISC/V3","label":"Record Qualifier","extension_properties":[]},"variable_ref":{"type":"http://www.assero.co.uk/BusinessOperational#CReference","id":"D-ACME_DMDomain_V7_IGV1","namespace":"http://www.assero.co.uk/MDRSdtmUD/ACME/V1","label":"Based on Variable Reference","extension_properties":[],"enabled":true,"optional":false,"ordinal":1,"local_label":"","subject_ref":{"namespace":"http://www.assero.co.uk/MDRSdtmIgD/CDISC/V3","id":"IG-CDISC_SDTMIGDM_RFXSTDTC"}},"property_refs":[]},{"type":"http://www.assero.co.uk/BusinessDomain#UserVariable","id":"D-ACME_DMDomain_V8","namespace":"http://www.assero.co.uk/MDRSdtmUD/ACME/V1","label":"Date/Time of Last Study Treatment","extension_properties":[],"ordinal":8,"rule":"","name":"RFXENDTC","notes":"","format":"ISO 8601","ct":"","non_standard":false,"comment":"","length":0,"used":true,"key_ordinal":0,"datatype":{"type":"http://www.assero.co.uk/BusinessDomain#VariableType","id":"M-CDISC_SDTMMODEL_DT_CHAR","namespace":"http://www.assero.co.uk/MDRSdtmM/CDISC/V3","label":"Char","extension_properties":[]},"compliance":{"type":"http://www.assero.co.uk/BusinessDomain#VariableCompliance","id":"IG-CDISC_SDTMIG_C_EXPECTED","namespace":"http://www.assero.co.uk/MDRSdtmIg/CDISC/V3","label":"Expected","extension_properties":[]},"classification":{"type":"http://www.assero.co.uk/BusinessDomain#VariableClassification","id":"M-CDISC_SDTMMODEL_C_QUALIFIER","namespace":"http://www.assero.co.uk/MDRSdtmM/CDISC/V3","label":"Qualifier","extension_properties":[]},"sub_classification":{"type":"http://www.assero.co.uk/BusinessDomain#VariableClassification","id":"M-CDISC_SDTMMODEL_C_QUALIFIER_SC_RECORDQUALIFIER","namespace":"http://www.assero.co.uk/MDRSdtmM/CDISC/V3","label":"Record Qualifier","extension_properties":[]},"variable_ref":{"type":"http://www.assero.co.uk/BusinessOperational#CReference","id":"D-ACME_DMDomain_V8_IGV1","namespace":"http://www.assero.co.uk/MDRSdtmUD/ACME/V1","label":"Based on Variable Reference","extension_properties":[],"enabled":true,"optional":false,"ordinal":1,"local_label":"","subject_ref":{"namespace":"http://www.assero.co.uk/MDRSdtmIgD/CDISC/V3","id":"IG-CDISC_SDTMIGDM_RFXENDTC"}},"property_refs":[]},{"type":"http://www.assero.co.uk/BusinessDomain#UserVariable","id":"D-ACME_DMDomain_V9","namespace":"http://www.assero.co.uk/MDRSdtmUD/ACME/V1","label":"Date/Time of Informed Consent","extension_properties":[],"ordinal":9,"rule":"","name":"RFICDTC","notes":"","format":"ISO 8601","ct":"","non_standard":false,"comment":"","length":0,"used":true,"key_ordinal":0,"datatype":{"type":"http://www.assero.co.uk/BusinessDomain#VariableType","id":"M-CDISC_SDTMMODEL_DT_CHAR","namespace":"http://www.assero.co.uk/MDRSdtmM/CDISC/V3","label":"Char","extension_properties":[]},"compliance":{"type":"http://www.assero.co.uk/BusinessDomain#VariableCompliance","id":"IG-CDISC_SDTMIG_C_EXPECTED","namespace":"http://www.assero.co.uk/MDRSdtmIg/CDISC/V3","label":"Expected","extension_properties":[]},"classification":{"type":"http://www.assero.co.uk/BusinessDomain#VariableClassification","id":"M-CDISC_SDTMMODEL_C_QUALIFIER","namespace":"http://www.assero.co.uk/MDRSdtmM/CDISC/V3","label":"Qualifier","extension_properties":[]},"sub_classification":{"type":"http://www.assero.co.uk/BusinessDomain#VariableClassification","id":"M-CDISC_SDTMMODEL_C_QUALIFIER_SC_RECORDQUALIFIER","namespace":"http://www.assero.co.uk/MDRSdtmM/CDISC/V3","label":"Record Qualifier","extension_properties":[]},"variable_ref":{"type":"http://www.assero.co.uk/BusinessOperational#CReference","id":"D-ACME_DMDomain_V9_IGV1","namespace":"http://www.assero.co.uk/MDRSdtmUD/ACME/V1","label":"Based on Variable Reference","extension_properties":[],"enabled":true,"optional":false,"ordinal":1,"local_label":"","subject_ref":{"namespace":"http://www.assero.co.uk/MDRSdtmIgD/CDISC/V3","id":"IG-CDISC_SDTMIGDM_RFICDTC"}},"property_refs":[]},{"type":"http://www.assero.co.uk/BusinessDomain#UserVariable","id":"D-ACME_DMDomain_V10","namespace":"http://www.assero.co.uk/MDRSdtmUD/ACME/V1","label":"Date/Time of End of Participation","extension_properties":[],"ordinal":10,"rule":"","name":"RFPENDTC","notes":"","format":"ISO 8601","ct":"","non_standard":false,"comment":"","length":0,"used":true,"key_ordinal":0,"datatype":{"type":"http://www.assero.co.uk/BusinessDomain#VariableType","id":"M-CDISC_SDTMMODEL_DT_CHAR","namespace":"http://www.assero.co.uk/MDRSdtmM/CDISC/V3","label":"Char","extension_properties":[]},"compliance":{"type":"http://www.assero.co.uk/BusinessDomain#VariableCompliance","id":"IG-CDISC_SDTMIG_C_EXPECTED","namespace":"http://www.assero.co.uk/MDRSdtmIg/CDISC/V3","label":"Expected","extension_properties":[]},"classification":{"type":"http://www.assero.co.uk/BusinessDomain#VariableClassification","id":"M-CDISC_SDTMMODEL_C_QUALIFIER","namespace":"http://www.assero.co.uk/MDRSdtmM/CDISC/V3","label":"Qualifier","extension_properties":[]},"sub_classification":{"type":"http://www.assero.co.uk/BusinessDomain#VariableClassification","id":"M-CDISC_SDTMMODEL_C_QUALIFIER_SC_RECORDQUALIFIER","namespace":"http://www.assero.co.uk/MDRSdtmM/CDISC/V3","label":"Record Qualifier","extension_properties":[]},"variable_ref":{"type":"http://www.assero.co.uk/BusinessOperational#CReference","id":"D-ACME_DMDomain_V10_IGV1","namespace":"http://www.assero.co.uk/MDRSdtmUD/ACME/V1","label":"Based on Variable Reference","extension_properties":[],"enabled":true,"optional":false,"ordinal":1,"local_label":"","subject_ref":{"namespace":"http://www.assero.co.uk/MDRSdtmIgD/CDISC/V3","id":"IG-CDISC_SDTMIGDM_RFPENDTC"}},"property_refs":[]},{"type":"http://www.assero.co.uk/BusinessDomain#UserVariable","id":"D-ACME_DMDomain_V11","namespace":"http://www.assero.co.uk/MDRSdtmUD/ACME/V1","label":"Date/Time of Death","extension_properties":[],"ordinal":11,"rule":"","name":"DTHDTC","notes":"","format":"ISO 8601","ct":"","non_standard":false,"comment":"","length":0,"used":true,"key_ordinal":0,"datatype":{"type":"http://www.assero.co.uk/BusinessDomain#VariableType","id":"M-CDISC_SDTMMODEL_DT_CHAR","namespace":"http://www.assero.co.uk/MDRSdtmM/CDISC/V3","label":"Char","extension_properties":[]},"compliance":{"type":"http://www.assero.co.uk/BusinessDomain#VariableCompliance","id":"IG-CDISC_SDTMIG_C_EXPECTED","namespace":"http://www.assero.co.uk/MDRSdtmIg/CDISC/V3","label":"Expected","extension_properties":[]},"classification":{"type":"http://www.assero.co.uk/BusinessDomain#VariableClassification","id":"M-CDISC_SDTMMODEL_C_QUALIFIER","namespace":"http://www.assero.co.uk/MDRSdtmM/CDISC/V3","label":"Qualifier","extension_properties":[]},"sub_classification":{"type":"http://www.assero.co.uk/BusinessDomain#VariableClassification","id":"M-CDISC_SDTMMODEL_C_QUALIFIER_SC_RECORDQUALIFIER","namespace":"http://www.assero.co.uk/MDRSdtmM/CDISC/V3","label":"Record Qualifier","extension_properties":[]},"variable_ref":{"type":"http://www.assero.co.uk/BusinessOperational#CReference","id":"D-ACME_DMDomain_V11_IGV1","namespace":"http://www.assero.co.uk/MDRSdtmUD/ACME/V1","label":"Based on Variable Reference","extension_properties":[],"enabled":true,"optional":false,"ordinal":1,"local_label":"","subject_ref":{"namespace":"http://www.assero.co.uk/MDRSdtmIgD/CDISC/V3","id":"IG-CDISC_SDTMIGDM_DTHDTC"}},"property_refs":[]},{"type":"http://www.assero.co.uk/BusinessDomain#UserVariable","id":"D-ACME_DMDomain_V12","namespace":"http://www.assero.co.uk/MDRSdtmUD/ACME/V1","label":"Subject Death Flag","extension_properties":[],"ordinal":12,"rule":"","name":"DTHFL","notes":"","format":"","ct":"NY","non_standard":false,"comment":"","length":0,"used":true,"key_ordinal":0,"datatype":{"type":"http://www.assero.co.uk/BusinessDomain#VariableType","id":"M-CDISC_SDTMMODEL_DT_CHAR","namespace":"http://www.assero.co.uk/MDRSdtmM/CDISC/V3","label":"Char","extension_properties":[]},"compliance":{"type":"http://www.assero.co.uk/BusinessDomain#VariableCompliance","id":"IG-CDISC_SDTMIG_C_EXPECTED","namespace":"http://www.assero.co.uk/MDRSdtmIg/CDISC/V3","label":"Expected","extension_properties":[]},"classification":{"type":"http://www.assero.co.uk/BusinessDomain#VariableClassification","id":"M-CDISC_SDTMMODEL_C_QUALIFIER","namespace":"http://www.assero.co.uk/MDRSdtmM/CDISC/V3","label":"Qualifier","extension_properties":[]},"sub_classification":{"type":"http://www.assero.co.uk/BusinessDomain#VariableClassification","id":"M-CDISC_SDTMMODEL_C_QUALIFIER_SC_RECORDQUALIFIER","namespace":"http://www.assero.co.uk/MDRSdtmM/CDISC/V3","label":"Record Qualifier","extension_properties":[]},"variable_ref":{"type":"http://www.assero.co.uk/BusinessOperational#CReference","id":"D-ACME_DMDomain_V12_IGV1","namespace":"http://www.assero.co.uk/MDRSdtmUD/ACME/V1","label":"Based on Variable Reference","extension_properties":[],"enabled":true,"optional":false,"ordinal":1,"local_label":"","subject_ref":{"namespace":"http://www.assero.co.uk/MDRSdtmIgD/CDISC/V3","id":"IG-CDISC_SDTMIGDM_DTHFL"}},"property_refs":[]},{"type":"http://www.assero.co.uk/BusinessDomain#UserVariable","id":"D-ACME_DMDomain_V13","namespace":"http://www.assero.co.uk/MDRSdtmUD/ACME/V1","label":"Study Site Identifier","extension_properties":[],"ordinal":13,"rule":"","name":"SITEID","notes":"","format":"","ct":"","non_standard":false,"comment":"","length":0,"used":true,"key_ordinal":0,"datatype":{"type":"http://www.assero.co.uk/BusinessDomain#VariableType","id":"M-CDISC_SDTMMODEL_DT_CHAR","namespace":"http://www.assero.co.uk/MDRSdtmM/CDISC/V3","label":"Char","extension_properties":[]},"compliance":{"type":"http://www.assero.co.uk/BusinessDomain#VariableCompliance","id":"IG-CDISC_SDTMIG_C_REQUIRED","namespace":"http://www.assero.co.uk/MDRSdtmIg/CDISC/V3","label":"Required","extension_properties":[]},"classification":{"type":"http://www.assero.co.uk/BusinessDomain#VariableClassification","id":"M-CDISC_SDTMMODEL_C_QUALIFIER","namespace":"http://www.assero.co.uk/MDRSdtmM/CDISC/V3","label":"Qualifier","extension_properties":[]},"sub_classification":{"type":"http://www.assero.co.uk/BusinessDomain#VariableClassification","id":"M-CDISC_SDTMMODEL_C_QUALIFIER_SC_RECORDQUALIFIER","namespace":"http://www.assero.co.uk/MDRSdtmM/CDISC/V3","label":"Record Qualifier","extension_properties":[]},"variable_ref":{"type":"http://www.assero.co.uk/BusinessOperational#CReference","id":"D-ACME_DMDomain_V13_IGV1","namespace":"http://www.assero.co.uk/MDRSdtmUD/ACME/V1","label":"Based on Variable Reference","extension_properties":[],"enabled":true,"optional":false,"ordinal":1,"local_label":"","subject_ref":{"namespace":"http://www.assero.co.uk/MDRSdtmIgD/CDISC/V3","id":"IG-CDISC_SDTMIGDM_SITEID"}},"property_refs":[]},{"type":"http://www.assero.co.uk/BusinessDomain#UserVariable","id":"D-ACME_DMDomain_V14","namespace":"http://www.assero.co.uk/MDRSdtmUD/ACME/V1","label":"Investigator Identifier","extension_properties":[],"ordinal":14,"rule":"","name":"INVID","notes":"","format":"","ct":"","non_standard":false,"comment":"","length":0,"used":true,"key_ordinal":0,"datatype":{"type":"http://www.assero.co.uk/BusinessDomain#VariableType","id":"M-CDISC_SDTMMODEL_DT_CHAR","namespace":"http://www.assero.co.uk/MDRSdtmM/CDISC/V3","label":"Char","extension_properties":[]},"compliance":{"type":"http://www.assero.co.uk/BusinessDomain#VariableCompliance","id":"IG-CDISC_SDTMIG_C_PERMISSIBLE","namespace":"http://www.assero.co.uk/MDRSdtmIg/CDISC/V3","label":"Permissible","extension_properties":[]},"classification":{"type":"http://www.assero.co.uk/BusinessDomain#VariableClassification","id":"M-CDISC_SDTMMODEL_C_QUALIFIER","namespace":"http://www.assero.co.uk/MDRSdtmM/CDISC/V3","label":"Qualifier","extension_properties":[]},"sub_classification":{"type":"http://www.assero.co.uk/BusinessDomain#VariableClassification","id":"M-CDISC_SDTMMODEL_C_QUALIFIER_SC_RECORDQUALIFIER","namespace":"http://www.assero.co.uk/MDRSdtmM/CDISC/V3","label":"Record Qualifier","extension_properties":[]},"variable_ref":{"type":"http://www.assero.co.uk/BusinessOperational#CReference","id":"D-ACME_DMDomain_V14_IGV1","namespace":"http://www.assero.co.uk/MDRSdtmUD/ACME/V1","label":"Based on Variable Reference","extension_properties":[],"enabled":true,"optional":false,"ordinal":1,"local_label":"","subject_ref":{"namespace":"http://www.assero.co.uk/MDRSdtmIgD/CDISC/V3","id":"IG-CDISC_SDTMIGDM_INVID"}},"property_refs":[]},{"type":"http://www.assero.co.uk/BusinessDomain#UserVariable","id":"D-ACME_DMDomain_V15","namespace":"http://www.assero.co.uk/MDRSdtmUD/ACME/V1","label":"Investigator Name","extension_properties":[],"ordinal":15,"rule":"","name":"INVNAM","notes":"","format":"","ct":"","non_standard":false,"comment":"","length":0,"used":true,"key_ordinal":0,"datatype":{"type":"http://www.assero.co.uk/BusinessDomain#VariableType","id":"M-CDISC_SDTMMODEL_DT_CHAR","namespace":"http://www.assero.co.uk/MDRSdtmM/CDISC/V3","label":"Char","extension_properties":[]},"compliance":{"type":"http://www.assero.co.uk/BusinessDomain#VariableCompliance","id":"IG-CDISC_SDTMIG_C_PERMISSIBLE","namespace":"http://www.assero.co.uk/MDRSdtmIg/CDISC/V3","label":"Permissible","extension_properties":[]},"classification":{"type":"http://www.assero.co.uk/BusinessDomain#VariableClassification","id":"M-CDISC_SDTMMODEL_C_QUALIFIER","namespace":"http://www.assero.co.uk/MDRSdtmM/CDISC/V3","label":"Qualifier","extension_properties":[]},"sub_classification":{"type":"http://www.assero.co.uk/BusinessDomain#VariableClassification","id":"M-CDISC_SDTMMODEL_C_QUALIFIER_SC_RECORDQUALIFIER","namespace":"http://www.assero.co.uk/MDRSdtmM/CDISC/V3","label":"Record Qualifier","extension_properties":[]},"variable_ref":{"type":"http://www.assero.co.uk/BusinessOperational#CReference","id":"D-ACME_DMDomain_V15_IGV1","namespace":"http://www.assero.co.uk/MDRSdtmUD/ACME/V1","label":"Based on Variable Reference","extension_properties":[],"enabled":true,"optional":false,"ordinal":1,"local_label":"","subject_ref":{"namespace":"http://www.assero.co.uk/MDRSdtmIgD/CDISC/V3","id":"IG-CDISC_SDTMIGDM_INVNAM"}},"property_refs":[]},{"type":"http://www.assero.co.uk/BusinessDomain#UserVariable","id":"D-ACME_DMDomain_V16","namespace":"http://www.assero.co.uk/MDRSdtmUD/ACME/V1","label":"Date/Time of Birth","extension_properties":[],"ordinal":16,"rule":"","name":"BRTHDTC","notes":"","format":"ISO 8601","ct":"","non_standard":false,"comment":"","length":0,"used":true,"key_ordinal":0,"datatype":{"type":"http://www.assero.co.uk/BusinessDomain#VariableType","id":"M-CDISC_SDTMMODEL_DT_CHAR","namespace":"http://www.assero.co.uk/MDRSdtmM/CDISC/V3","label":"Char","extension_properties":[]},"compliance":{"type":"http://www.assero.co.uk/BusinessDomain#VariableCompliance","id":"IG-CDISC_SDTMIG_C_PERMISSIBLE","namespace":"http://www.assero.co.uk/MDRSdtmIg/CDISC/V3","label":"Permissible","extension_properties":[]},"classification":{"type":"http://www.assero.co.uk/BusinessDomain#VariableClassification","id":"M-CDISC_SDTMMODEL_C_QUALIFIER","namespace":"http://www.assero.co.uk/MDRSdtmM/CDISC/V3","label":"Qualifier","extension_properties":[]},"sub_classification":{"type":"http://www.assero.co.uk/BusinessDomain#VariableClassification","id":"M-CDISC_SDTMMODEL_C_QUALIFIER_SC_RECORDQUALIFIER","namespace":"http://www.assero.co.uk/MDRSdtmM/CDISC/V3","label":"Record Qualifier","extension_properties":[]},"variable_ref":{"type":"http://www.assero.co.uk/BusinessOperational#CReference","id":"D-ACME_DMDomain_V16_IGV1","namespace":"http://www.assero.co.uk/MDRSdtmUD/ACME/V1","label":"Based on Variable Reference","extension_properties":[],"enabled":true,"optional":false,"ordinal":1,"local_label":"","subject_ref":{"namespace":"http://www.assero.co.uk/MDRSdtmIgD/CDISC/V3","id":"IG-CDISC_SDTMIGDM_BRTHDTC"}},"property_refs":[]},{"type":"http://www.assero.co.uk/BusinessDomain#UserVariable","id":"D-ACME_DMDomain_V17","namespace":"http://www.assero.co.uk/MDRSdtmUD/ACME/V1","label":"Age","extension_properties":[],"ordinal":17,"rule":"","name":"AGE","notes":"","format":"","ct":"","non_standard":false,"comment":"","length":0,"used":true,"key_ordinal":0,"datatype":{"type":"http://www.assero.co.uk/BusinessDomain#VariableType","id":"M-CDISC_SDTMMODEL_DT_NUM","namespace":"http://www.assero.co.uk/MDRSdtmM/CDISC/V3","label":"Num","extension_properties":[]},"compliance":{"type":"http://www.assero.co.uk/BusinessDomain#VariableCompliance","id":"IG-CDISC_SDTMIG_C_EXPECTED","namespace":"http://www.assero.co.uk/MDRSdtmIg/CDISC/V3","label":"Expected","extension_properties":[]},"classification":{"type":"http://www.assero.co.uk/BusinessDomain#VariableClassification","id":"M-CDISC_SDTMMODEL_C_QUALIFIER","namespace":"http://www.assero.co.uk/MDRSdtmM/CDISC/V3","label":"Qualifier","extension_properties":[]},"sub_classification":{"type":"http://www.assero.co.uk/BusinessDomain#VariableClassification","id":"M-CDISC_SDTMMODEL_C_QUALIFIER_SC_RECORDQUALIFIER","namespace":"http://www.assero.co.uk/MDRSdtmM/CDISC/V3","label":"Record Qualifier","extension_properties":[]},"variable_ref":{"type":"http://www.assero.co.uk/BusinessOperational#CReference","id":"D-ACME_DMDomain_V17_IGV1","namespace":"http://www.assero.co.uk/MDRSdtmUD/ACME/V1","label":"Based on Variable Reference","extension_properties":[],"enabled":true,"optional":false,"ordinal":1,"local_label":"","subject_ref":{"namespace":"http://www.assero.co.uk/MDRSdtmIgD/CDISC/V3","id":"IG-CDISC_SDTMIGDM_AGE"}},"property_refs":[]},{"type":"http://www.assero.co.uk/BusinessDomain#UserVariable","id":"D-ACME_DMDomain_V18","namespace":"http://www.assero.co.uk/MDRSdtmUD/ACME/V1","label":"Age Units","extension_properties":[],"ordinal":18,"rule":"","name":"AGEU","notes":"","format":"","ct":"AGEU","non_standard":false,"comment":"","length":0,"used":true,"key_ordinal":0,"datatype":{"type":"http://www.assero.co.uk/BusinessDomain#VariableType","id":"M-CDISC_SDTMMODEL_DT_CHAR","namespace":"http://www.assero.co.uk/MDRSdtmM/CDISC/V3","label":"Char","extension_properties":[]},"compliance":{"type":"http://www.assero.co.uk/BusinessDomain#VariableCompliance","id":"IG-CDISC_SDTMIG_C_EXPECTED","namespace":"http://www.assero.co.uk/MDRSdtmIg/CDISC/V3","label":"Expected","extension_properties":[]},"classification":{"type":"http://www.assero.co.uk/BusinessDomain#VariableClassification","id":"M-CDISC_SDTMMODEL_C_QUALIFIER","namespace":"http://www.assero.co.uk/MDRSdtmM/CDISC/V3","label":"Qualifier","extension_properties":[]},"sub_classification":{"type":"http://www.assero.co.uk/BusinessDomain#VariableClassification","id":"M-CDISC_SDTMMODEL_C_QUALIFIER_SC_RECORDQUALIFIER","namespace":"http://www.assero.co.uk/MDRSdtmM/CDISC/V3","label":"Record Qualifier","extension_properties":[]},"variable_ref":{"type":"http://www.assero.co.uk/BusinessOperational#CReference","id":"D-ACME_DMDomain_V18_IGV1","namespace":"http://www.assero.co.uk/MDRSdtmUD/ACME/V1","label":"Based on Variable Reference","extension_properties":[],"enabled":true,"optional":false,"ordinal":1,"local_label":"","subject_ref":{"namespace":"http://www.assero.co.uk/MDRSdtmIgD/CDISC/V3","id":"IG-CDISC_SDTMIGDM_AGEU"}},"property_refs":[]},{"type":"http://www.assero.co.uk/BusinessDomain#UserVariable","id":"D-ACME_DMDomain_V19","namespace":"http://www.assero.co.uk/MDRSdtmUD/ACME/V1","label":"Sex","extension_properties":[],"ordinal":19,"rule":"","name":"SEX","notes":"","format":"","ct":"SEX","non_standard":false,"comment":"","length":0,"used":true,"key_ordinal":0,"datatype":{"type":"http://www.assero.co.uk/BusinessDomain#VariableType","id":"M-CDISC_SDTMMODEL_DT_CHAR","namespace":"http://www.assero.co.uk/MDRSdtmM/CDISC/V3","label":"Char","extension_properties":[]},"compliance":{"type":"http://www.assero.co.uk/BusinessDomain#VariableCompliance","id":"IG-CDISC_SDTMIG_C_REQUIRED","namespace":"http://www.assero.co.uk/MDRSdtmIg/CDISC/V3","label":"Required","extension_properties":[]},"classification":{"type":"http://www.assero.co.uk/BusinessDomain#VariableClassification","id":"M-CDISC_SDTMMODEL_C_QUALIFIER","namespace":"http://www.assero.co.uk/MDRSdtmM/CDISC/V3","label":"Qualifier","extension_properties":[]},"sub_classification":{"type":"http://www.assero.co.uk/BusinessDomain#VariableClassification","id":"M-CDISC_SDTMMODEL_C_QUALIFIER_SC_RECORDQUALIFIER","namespace":"http://www.assero.co.uk/MDRSdtmM/CDISC/V3","label":"Record Qualifier","extension_properties":[]},"variable_ref":{"type":"http://www.assero.co.uk/BusinessOperational#CReference","id":"D-ACME_DMDomain_V19_IGV1","namespace":"http://www.assero.co.uk/MDRSdtmUD/ACME/V1","label":"Based on Variable Reference","extension_properties":[],"enabled":true,"optional":false,"ordinal":1,"local_label":"","subject_ref":{"namespace":"http://www.assero.co.uk/MDRSdtmIgD/CDISC/V3","id":"IG-CDISC_SDTMIGDM_SEX"}},"property_refs":[]},{"type":"http://www.assero.co.uk/BusinessDomain#UserVariable","id":"D-ACME_DMDomain_V20","namespace":"http://www.assero.co.uk/MDRSdtmUD/ACME/V1","label":"Race","extension_properties":[],"ordinal":20,"rule":"","name":"RACE","notes":"","format":"","ct":"RACE","non_standard":false,"comment":"","length":0,"used":true,"key_ordinal":0,"datatype":{"type":"http://www.assero.co.uk/BusinessDomain#VariableType","id":"M-CDISC_SDTMMODEL_DT_CHAR","namespace":"http://www.assero.co.uk/MDRSdtmM/CDISC/V3","label":"Char","extension_properties":[]},"compliance":{"type":"http://www.assero.co.uk/BusinessDomain#VariableCompliance","id":"IG-CDISC_SDTMIG_C_EXPECTED","namespace":"http://www.assero.co.uk/MDRSdtmIg/CDISC/V3","label":"Expected","extension_properties":[]},"classification":{"type":"http://www.assero.co.uk/BusinessDomain#VariableClassification","id":"M-CDISC_SDTMMODEL_C_QUALIFIER","namespace":"http://www.assero.co.uk/MDRSdtmM/CDISC/V3","label":"Qualifier","extension_properties":[]},"sub_classification":{"type":"http://www.assero.co.uk/BusinessDomain#VariableClassification","id":"M-CDISC_SDTMMODEL_C_QUALIFIER_SC_RECORDQUALIFIER","namespace":"http://www.assero.co.uk/MDRSdtmM/CDISC/V3","label":"Record Qualifier","extension_properties":[]},"variable_ref":{"type":"http://www.assero.co.uk/BusinessOperational#CReference","id":"D-ACME_DMDomain_V20_IGV1","namespace":"http://www.assero.co.uk/MDRSdtmUD/ACME/V1","label":"Based on Variable Reference","extension_properties":[],"enabled":true,"optional":false,"ordinal":1,"local_label":"","subject_ref":{"namespace":"http://www.assero.co.uk/MDRSdtmIgD/CDISC/V3","id":"IG-CDISC_SDTMIGDM_RACE"}},"property_refs":[]},{"type":"http://www.assero.co.uk/BusinessDomain#UserVariable","id":"D-ACME_DMDomain_V21","namespace":"http://www.assero.co.uk/MDRSdtmUD/ACME/V1","label":"Ethnicity","extension_properties":[],"ordinal":21,"rule":"","name":"ETHNIC","notes":"","format":"","ct":"ETHNIC","non_standard":false,"comment":"","length":0,"used":true,"key_ordinal":0,"datatype":{"type":"http://www.assero.co.uk/BusinessDomain#VariableType","id":"M-CDISC_SDTMMODEL_DT_CHAR","namespace":"http://www.assero.co.uk/MDRSdtmM/CDISC/V3","label":"Char","extension_properties":[]},"compliance":{"type":"http://www.assero.co.uk/BusinessDomain#VariableCompliance","id":"IG-CDISC_SDTMIG_C_PERMISSIBLE","namespace":"http://www.assero.co.uk/MDRSdtmIg/CDISC/V3","label":"Permissible","extension_properties":[]},"classification":{"type":"http://www.assero.co.uk/BusinessDomain#VariableClassification","id":"M-CDISC_SDTMMODEL_C_QUALIFIER","namespace":"http://www.assero.co.uk/MDRSdtmM/CDISC/V3","label":"Qualifier","extension_properties":[]},"sub_classification":{"type":"http://www.assero.co.uk/BusinessDomain#VariableClassification","id":"M-CDISC_SDTMMODEL_C_QUALIFIER_SC_RECORDQUALIFIER","namespace":"http://www.assero.co.uk/MDRSdtmM/CDISC/V3","label":"Record Qualifier","extension_properties":[]},"variable_ref":{"type":"http://www.assero.co.uk/BusinessOperational#CReference","id":"D-ACME_DMDomain_V21_IGV1","namespace":"http://www.assero.co.uk/MDRSdtmUD/ACME/V1","label":"Based on Variable Reference","extension_properties":[],"enabled":true,"optional":false,"ordinal":1,"local_label":"","subject_ref":{"namespace":"http://www.assero.co.uk/MDRSdtmIgD/CDISC/V3","id":"IG-CDISC_SDTMIGDM_ETHNIC"}},"property_refs":[]},{"type":"http://www.assero.co.uk/BusinessDomain#UserVariable","id":"D-ACME_DMDomain_V22","namespace":"http://www.assero.co.uk/MDRSdtmUD/ACME/V1","label":"Planned Arm Code","extension_properties":[],"ordinal":22,"rule":"","name":"ARMCD","notes":"","format":"","ct":"","non_standard":false,"comment":"","length":0,"used":true,"key_ordinal":0,"datatype":{"type":"http://www.assero.co.uk/BusinessDomain#VariableType","id":"M-CDISC_SDTMMODEL_DT_CHAR","namespace":"http://www.assero.co.uk/MDRSdtmM/CDISC/V3","label":"Char","extension_properties":[]},"compliance":{"type":"http://www.assero.co.uk/BusinessDomain#VariableCompliance","id":"IG-CDISC_SDTMIG_C_REQUIRED","namespace":"http://www.assero.co.uk/MDRSdtmIg/CDISC/V3","label":"Required","extension_properties":[]},"classification":{"type":"http://www.assero.co.uk/BusinessDomain#VariableClassification","id":"M-CDISC_SDTMMODEL_C_QUALIFIER","namespace":"http://www.assero.co.uk/MDRSdtmM/CDISC/V3","label":"Qualifier","extension_properties":[]},"sub_classification":{"type":"http://www.assero.co.uk/BusinessDomain#VariableClassification","id":"M-CDISC_SDTMMODEL_C_QUALIFIER_SC_RECORDQUALIFIER","namespace":"http://www.assero.co.uk/MDRSdtmM/CDISC/V3","label":"Record Qualifier","extension_properties":[]},"variable_ref":{"type":"http://www.assero.co.uk/BusinessOperational#CReference","id":"D-ACME_DMDomain_V22_IGV1","namespace":"http://www.assero.co.uk/MDRSdtmUD/ACME/V1","label":"Based on Variable Reference","extension_properties":[],"enabled":true,"optional":false,"ordinal":1,"local_label":"","subject_ref":{"namespace":"http://www.assero.co.uk/MDRSdtmIgD/CDISC/V3","id":"IG-CDISC_SDTMIGDM_ARMCD"}},"property_refs":[]},{"type":"http://www.assero.co.uk/BusinessDomain#UserVariable","id":"D-ACME_DMDomain_V23","namespace":"http://www.assero.co.uk/MDRSdtmUD/ACME/V1","label":"Description of Planned Arm","extension_properties":[],"ordinal":23,"rule":"","name":"ARM","notes":"","format":"","ct":"","non_standard":false,"comment":"","length":0,"used":true,"key_ordinal":0,"datatype":{"type":"http://www.assero.co.uk/BusinessDomain#VariableType","id":"M-CDISC_SDTMMODEL_DT_CHAR","namespace":"http://www.assero.co.uk/MDRSdtmM/CDISC/V3","label":"Char","extension_properties":[]},"compliance":{"type":"http://www.assero.co.uk/BusinessDomain#VariableCompliance","id":"IG-CDISC_SDTMIG_C_REQUIRED","namespace":"http://www.assero.co.uk/MDRSdtmIg/CDISC/V3","label":"Required","extension_properties":[]},"classification":{"type":"http://www.assero.co.uk/BusinessDomain#VariableClassification","id":"M-CDISC_SDTMMODEL_C_QUALIFIER","namespace":"http://www.assero.co.uk/MDRSdtmM/CDISC/V3","label":"Qualifier","extension_properties":[]},"sub_classification":{"type":"http://www.assero.co.uk/BusinessDomain#VariableClassification","id":"M-CDISC_SDTMMODEL_C_QUALIFIER_SC_RECORDQUALIFIER","namespace":"http://www.assero.co.uk/MDRSdtmM/CDISC/V3","label":"Record Qualifier","extension_properties":[]},"variable_ref":{"type":"http://www.assero.co.uk/BusinessOperational#CReference","id":"D-ACME_DMDomain_V23_IGV1","namespace":"http://www.assero.co.uk/MDRSdtmUD/ACME/V1","label":"Based on Variable Reference","extension_properties":[],"enabled":true,"optional":false,"ordinal":1,"local_label":"","subject_ref":{"namespace":"http://www.assero.co.uk/MDRSdtmIgD/CDISC/V3","id":"IG-CDISC_SDTMIGDM_ARM"}},"property_refs":[]},{"type":"http://www.assero.co.uk/BusinessDomain#UserVariable","id":"D-ACME_DMDomain_V24","namespace":"http://www.assero.co.uk/MDRSdtmUD/ACME/V1","label":"Actual Arm Code","extension_properties":[],"ordinal":24,"rule":"","name":"ACTARMCD","notes":"","format":"","ct":"","non_standard":false,"comment":"","length":0,"used":true,"key_ordinal":0,"datatype":{"type":"http://www.assero.co.uk/BusinessDomain#VariableType","id":"M-CDISC_SDTMMODEL_DT_CHAR","namespace":"http://www.assero.co.uk/MDRSdtmM/CDISC/V3","label":"Char","extension_properties":[]},"compliance":{"type":"http://www.assero.co.uk/BusinessDomain#VariableCompliance","id":"IG-CDISC_SDTMIG_C_REQUIRED","namespace":"http://www.assero.co.uk/MDRSdtmIg/CDISC/V3","label":"Required","extension_properties":[]},"classification":{"type":"http://www.assero.co.uk/BusinessDomain#VariableClassification","id":"M-CDISC_SDTMMODEL_C_QUALIFIER","namespace":"http://www.assero.co.uk/MDRSdtmM/CDISC/V3","label":"Qualifier","extension_properties":[]},"sub_classification":{"type":"http://www.assero.co.uk/BusinessDomain#VariableClassification","id":"M-CDISC_SDTMMODEL_C_QUALIFIER_SC_RECORDQUALIFIER","namespace":"http://www.assero.co.uk/MDRSdtmM/CDISC/V3","label":"Record Qualifier","extension_properties":[]},"variable_ref":{"type":"http://www.assero.co.uk/BusinessOperational#CReference","id":"D-ACME_DMDomain_V24_IGV1","namespace":"http://www.assero.co.uk/MDRSdtmUD/ACME/V1","label":"Based on Variable Reference","extension_properties":[],"enabled":true,"optional":false,"ordinal":1,"local_label":"","subject_ref":{"namespace":"http://www.assero.co.uk/MDRSdtmIgD/CDISC/V3","id":"IG-CDISC_SDTMIGDM_ACTARMCD"}},"property_refs":[]},{"type":"http://www.assero.co.uk/BusinessDomain#UserVariable","id":"D-ACME_DMDomain_V25","namespace":"http://www.assero.co.uk/MDRSdtmUD/ACME/V1","label":"Description of Actual Arm","extension_properties":[],"ordinal":25,"rule":"","name":"ACTARM","notes":"","format":"","ct":"","non_standard":false,"comment":"","length":0,"used":true,"key_ordinal":0,"datatype":{"type":"http://www.assero.co.uk/BusinessDomain#VariableType","id":"M-CDISC_SDTMMODEL_DT_CHAR","namespace":"http://www.assero.co.uk/MDRSdtmM/CDISC/V3","label":"Char","extension_properties":[]},"compliance":{"type":"http://www.assero.co.uk/BusinessDomain#VariableCompliance","id":"IG-CDISC_SDTMIG_C_REQUIRED","namespace":"http://www.assero.co.uk/MDRSdtmIg/CDISC/V3","label":"Required","extension_properties":[]},"classification":{"type":"http://www.assero.co.uk/BusinessDomain#VariableClassification","id":"M-CDISC_SDTMMODEL_C_QUALIFIER","namespace":"http://www.assero.co.uk/MDRSdtmM/CDISC/V3","label":"Qualifier","extension_properties":[]},"sub_classification":{"type":"http://www.assero.co.uk/BusinessDomain#VariableClassification","id":"M-CDISC_SDTMMODEL_C_QUALIFIER_SC_RECORDQUALIFIER","namespace":"http://www.assero.co.uk/MDRSdtmM/CDISC/V3","label":"Record Qualifier","extension_properties":[]},"variable_ref":{"type":"http://www.assero.co.uk/BusinessOperational#CReference","id":"D-ACME_DMDomain_V25_IGV1","namespace":"http://www.assero.co.uk/MDRSdtmUD/ACME/V1","label":"Based on Variable Reference","extension_properties":[],"enabled":true,"optional":false,"ordinal":1,"local_label":"","subject_ref":{"namespace":"http://www.assero.co.uk/MDRSdtmIgD/CDISC/V3","id":"IG-CDISC_SDTMIGDM_ACTARM"}},"property_refs":[]},{"type":"http://www.assero.co.uk/BusinessDomain#UserVariable","id":"D-ACME_DMDomain_V26","namespace":"http://www.assero.co.uk/MDRSdtmUD/ACME/V1","label":"Country","extension_properties":[],"ordinal":26,"rule":"","name":"COUNTRY","notes":"","format":"","ct":"COUNTRY","non_standard":false,"comment":"","length":0,"used":true,"key_ordinal":0,"datatype":{"type":"http://www.assero.co.uk/BusinessDomain#VariableType","id":"M-CDISC_SDTMMODEL_DT_CHAR","namespace":"http://www.assero.co.uk/MDRSdtmM/CDISC/V3","label":"Char","extension_properties":[]},"compliance":{"type":"http://www.assero.co.uk/BusinessDomain#VariableCompliance","id":"IG-CDISC_SDTMIG_C_REQUIRED","namespace":"http://www.assero.co.uk/MDRSdtmIg/CDISC/V3","label":"Required","extension_properties":[]},"classification":{"type":"http://www.assero.co.uk/BusinessDomain#VariableClassification","id":"M-CDISC_SDTMMODEL_C_QUALIFIER","namespace":"http://www.assero.co.uk/MDRSdtmM/CDISC/V3","label":"Qualifier","extension_properties":[]},"sub_classification":{"type":"http://www.assero.co.uk/BusinessDomain#VariableClassification","id":"M-CDISC_SDTMMODEL_C_QUALIFIER_SC_RECORDQUALIFIER","namespace":"http://www.assero.co.uk/MDRSdtmM/CDISC/V3","label":"Record Qualifier","extension_properties":[]},"variable_ref":{"type":"http://www.assero.co.uk/BusinessOperational#CReference","id":"D-ACME_DMDomain_V26_IGV1","namespace":"http://www.assero.co.uk/MDRSdtmUD/ACME/V1","label":"Based on Variable Reference","extension_properties":[],"enabled":true,"optional":false,"ordinal":1,"local_label":"","subject_ref":{"namespace":"http://www.assero.co.uk/MDRSdtmIgD/CDISC/V3","id":"IG-CDISC_SDTMIGDM_COUNTRY"}},"property_refs":[]},{"type":"http://www.assero.co.uk/BusinessDomain#UserVariable","id":"D-ACME_DMDomain_V27","namespace":"http://www.assero.co.uk/MDRSdtmUD/ACME/V1","label":"Date/Time of Collection","extension_properties":[],"ordinal":27,"rule":"","name":"DMDTC","notes":"","format":"ISO 8601","ct":"","non_standard":false,"comment":"","length":0,"used":true,"key_ordinal":0,"datatype":{"type":"http://www.assero.co.uk/BusinessDomain#VariableType","id":"M-CDISC_SDTMMODEL_DT_CHAR","namespace":"http://www.assero.co.uk/MDRSdtmM/CDISC/V3","label":"Char","extension_properties":[]},"compliance":{"type":"http://www.assero.co.uk/BusinessDomain#VariableCompliance","id":"IG-CDISC_SDTMIG_C_PERMISSIBLE","namespace":"http://www.assero.co.uk/MDRSdtmIg/CDISC/V3","label":"Permissible","extension_properties":[]},"classification":{"type":"http://www.assero.co.uk/BusinessDomain#VariableClassification","id":"M-CDISC_SDTMMODEL_C_TIMING","namespace":"http://www.assero.co.uk/MDRSdtmM/CDISC/V3","label":"Timing","extension_properties":[]},"sub_classification":{},"variable_ref":{"type":"http://www.assero.co.uk/BusinessOperational#CReference","id":"D-ACME_DMDomain_V27_IGV1","namespace":"http://www.assero.co.uk/MDRSdtmUD/ACME/V1","label":"Based on Variable Reference","extension_properties":[],"enabled":true,"optional":false,"ordinal":1,"local_label":"","subject_ref":{"namespace":"http://www.assero.co.uk/MDRSdtmIgD/CDISC/V3","id":"IG-CDISC_SDTMIGDM_DMDTC"}},"property_refs":[]},{"type":"http://www.assero.co.uk/BusinessDomain#UserVariable","id":"D-ACME_DMDomain_V28","namespace":"http://www.assero.co.uk/MDRSdtmUD/ACME/V1","label":"Study Day of Collection","extension_properties":[],"ordinal":28,"rule":"","name":"DMDY","notes":"","format":"","ct":"","non_standard":false,"comment":"","length":0,"used":true,"key_ordinal":0,"datatype":{"type":"http://www.assero.co.uk/BusinessDomain#VariableType","id":"M-CDISC_SDTMMODEL_DT_NUM","namespace":"http://www.assero.co.uk/MDRSdtmM/CDISC/V3","label":"Num","extension_properties":[]},"compliance":{"type":"http://www.assero.co.uk/BusinessDomain#VariableCompliance","id":"IG-CDISC_SDTMIG_C_PERMISSIBLE","namespace":"http://www.assero.co.uk/MDRSdtmIg/CDISC/V3","label":"Permissible","extension_properties":[]},"classification":{"type":"http://www.assero.co.uk/BusinessDomain#VariableClassification","id":"M-CDISC_SDTMMODEL_C_TIMING","namespace":"http://www.assero.co.uk/MDRSdtmM/CDISC/V3","label":"Timing","extension_properties":[]},"sub_classification":{},"variable_ref":{"type":"http://www.assero.co.uk/BusinessOperational#CReference","id":"D-ACME_DMDomain_V28_IGV1","namespace":"http://www.assero.co.uk/MDRSdtmUD/ACME/V1","label":"Based on Variable Reference","extension_properties":[],"enabled":true,"optional":false,"ordinal":1,"local_label":"","subject_ref":{"namespace":"http://www.assero.co.uk/MDRSdtmIgD/CDISC/V3","id":"IG-CDISC_SDTMIGDM_DMDY"}},"property_refs":[]}],"bc_refs":[]}