<http://www.assero.co.uk/MDRSdtmMd/CDISC/V3#M-CDISC_SDTMMODELEVENTS> 			<http://www.w3.org/2000/01/rdf-schema#label> 			"Events" . 
<http://www.assero.co.uk/MDRSdtmMd/CDISC/V3#M-CDISC_SDTMMODELEVENTS> 			<http://www.w3.org/1999/02/22-rdf-syntax-ns#type> 			<http://www.assero.co.uk/BusinessDomain#ClassDomain> . 
<http://www.assero.co.uk/MDRSdtmMd/CDISC/V3#M-CDISC_SDTMMODELEVENTS> 			<http://www.assero.co.uk/ISO11179Types#lastChangeDate> 			"2013-11-26T00:00:00+00:00" . 
<http://www.assero.co.uk/MDRSdtmMd/CDISC/V3#M-CDISC_SDTMMODELEVENTS> 			<http://www.assero.co.uk/ISO11179Types#explanatoryComment> 			"" . 
<http://www.assero.co.uk/MDRSdtmMd/CDISC/V3#M-CDISC_SDTMMODELEVENTS> 			<http://www.assero.co.uk/ISO11179Types#creationDate> 			"2013-11-26T00:00:00+00:00" . 
<http://www.assero.co.uk/MDRSdtmMd/CDISC/V3#M-CDISC_SDTMMODELEVENTS> 			<http://www.assero.co.uk/ISO11179Types#changeDescription> 			"" . 
<http://www.assero.co.uk/MDRSdtmMd/CDISC/V3#M-CDISC_SDTMMODELEVENTS> 			<http://www.assero.co.uk/ISO11179Types#origin> 			"" . 
<http://www.assero.co.uk/MDRSdtmMd/CDISC/V3#M-CDISC_SDTMMODELEVENTS> 			<http://www.assero.co.uk/ISO11179Identification#hasIdentifier> 			<http://www.assero.co.uk/MDRItems#SI-CDISC_SDTMMODELEVENTS-3> . 
<http://www.assero.co.uk/MDRSdtmMd/CDISC/V3#M-CDISC_SDTMMODELEVENTS> 			<http://www.assero.co.uk/ISO11179Registration#hasState> 			<http://www.assero.co.uk/MDRItems#RS-CDISC_SDTMMODELEVENTS-3> . 
<http://www.assero.co.uk/MDRSdtmMd/CDISC/V3#M-CDISC_SDTMMODELEVENTS> 			<http://www.assero.co.uk/BusinessDomain#ordinal> 			"1" . 
<http://www.assero.co.uk/MDRSdtmMd/CDISC/V3#M-CDISC_SDTMMODELEVENTS> 			<http://www.assero.co.uk/BusinessDomain#includesColumn> 			<http://www.assero.co.uk/MDRSdtmMd/CDISC/V3#M-CDISC_SDTMMODELEVENTS_xxLLT> . 
<http://www.assero.co.uk/MDRSdtmMd/CDISC/V3#M-CDISC_SDTMMODELEVENTS> 			<http://www.assero.co.uk/BusinessDomain#includesColumn> 			<http://www.assero.co.uk/MDRSdtmMd/CDISC/V3#M-CDISC_SDTMMODELEVENTS_xxRELNST> . 
<http://www.assero.co.uk/MDRSdtmMd/CDISC/V3#M-CDISC_SDTMMODELEVENTS> 			<http://www.assero.co.uk/BusinessDomain#includesColumn> 			<http://www.assero.co.uk/MDRSdtmMd/CDISC/V3#M-CDISC_SDTMMODELEVENTS_USUBJID> . 
<http://www.assero.co.uk/MDRSdtmMd/CDISC/V3#M-CDISC_SDTMMODELEVENTS> 			<http://www.assero.co.uk/BusinessDomain#includesColumn> 			<http://www.assero.co.uk/MDRSdtmMd/CDISC/V3#M-CDISC_SDTMMODELEVENTS_xxSTRTPT> . 
<http://www.assero.co.uk/MDRSdtmMd/CDISC/V3#M-CDISC_SDTMMODELEVENTS> 			<http://www.assero.co.uk/BusinessDomain#includesColumn> 			<http://www.assero.co.uk/MDRSdtmMd/CDISC/V3#M-CDISC_SDTMMODELEVENTS_xxTPTREF> . 
<http://www.assero.co.uk/MDRSdtmMd/CDISC/V3#M-CDISC_SDTMMODELEVENTS> 			<http://www.assero.co.uk/BusinessDomain#includesColumn> 			<http://www.assero.co.uk/MDRSdtmMd/CDISC/V3#M-CDISC_SDTMMODELEVENTS_xxSTAT> . 
<http://www.assero.co.uk/MDRSdtmMd/CDISC/V3#M-CDISC_SDTMMODELEVENTS> 			<http://www.assero.co.uk/BusinessDomain#includesColumn> 			<http://www.assero.co.uk/MDRSdtmMd/CDISC/V3#M-CDISC_SDTMMODELEVENTS_xxSTRF> . 
<http://www.assero.co.uk/MDRSdtmMd/CDISC/V3#M-CDISC_SDTMMODELEVENTS> 			<http://www.assero.co.uk/BusinessDomain#includesColumn> 			<http://www.assero.co.uk/MDRSdtmMd/CDISC/V3#M-CDISC_SDTMMODELEVENTS_xxMODIFY> . 
<http://www.assero.co.uk/MDRSdtmMd/CDISC/V3#M-CDISC_SDTMMODELEVENTS> 			<http://www.assero.co.uk/BusinessDomain#includesColumn> 			<http://www.assero.co.uk/MDRSdtmMd/CDISC/V3#M-CDISC_SDTMMODELEVENTS_xxSPID> . 
<http://www.assero.co.uk/MDRSdtmMd/CDISC/V3#M-CDISC_SDTMMODELEVENTS> 			<http://www.assero.co.uk/BusinessDomain#includesColumn> 			<http://www.assero.co.uk/MDRSdtmMd/CDISC/V3#M-CDISC_SDTMMODELEVENTS_EPOCH> . 
<http://www.assero.co.uk/MDRSdtmMd/CDISC/V3#M-CDISC_SDTMMODELEVENTS> 			<http://www.assero.co.uk/BusinessDomain#includesColumn> 			<http://www.assero.co.uk/MDRSdtmMd/CDISC/V3#M-CDISC_SDTMMODELEVENTS_xxPRESP> . 
<http://www.assero.co.uk/MDRSdtmMd/CDISC/V3#M-CDISC_SDTMMODELEVENTS> 			<http://www.assero.co.uk/BusinessDomain#includesColumn> 			<http://www.assero.co.uk/MDRSdtmMd/CDISC/V3#M-CDISC_SDTMMODELEVENTS_xxENTPT> . 
<http://www.assero.co.uk/MDRSdtmMd/CDISC/V3#M-CDISC_SDTMMODELEVENTS> 			<http://www.assero.co.uk/BusinessDomain#includesColumn> 			<http://www.assero.co.uk/MDRSdtmMd/CDISC/V3#M-CDISC_SDTMMODELEVENTS_STUDYID> . 
<http://www.assero.co.uk/MDRSdtmMd/CDISC/V3#M-CDISC_SDTMMODELEVENTS> 			<http://www.assero.co.uk/BusinessDomain#includesColumn> 			<http://www.assero.co.uk/MDRSdtmMd/CDISC/V3#M-CDISC_SDTMMODELEVENTS_xxDIR> . 
<http://www.assero.co.uk/MDRSdtmMd/CDISC/V3#M-CDISC_SDTMMODELEVENTS> 			<http://www.assero.co.uk/BusinessDomain#includesColumn> 			<http://www.assero.co.uk/MDRSdtmMd/CDISC/V3#M-CDISC_SDTMMODELEVENTS_xxHLTCD> . 
<http://www.assero.co.uk/MDRSdtmMd/CDISC/V3#M-CDISC_SDTMMODELEVENTS> 			<http://www.assero.co.uk/BusinessDomain#includesColumn> 			<http://www.assero.co.uk/MDRSdtmMd/CDISC/V3#M-CDISC_SDTMMODELEVENTS_xxLNKGRP> . 
<http://www.assero.co.uk/MDRSdtmMd/CDISC/V3#M-CDISC_SDTMMODELEVENTS> 			<http://www.assero.co.uk/BusinessDomain#includesColumn> 			<http://www.assero.co.uk/MDRSdtmMd/CDISC/V3#M-CDISC_SDTMMODELEVENTS_xxSOC> . 
<http://www.assero.co.uk/MDRSdtmMd/CDISC/V3#M-CDISC_SDTMMODELEVENTS> 			<http://www.assero.co.uk/BusinessDomain#includesColumn> 			<http://www.assero.co.uk/MDRSdtmMd/CDISC/V3#M-CDISC_SDTMMODELEVENTS_xxSCAT> . 
<http://www.assero.co.uk/MDRSdtmMd/CDISC/V3#M-CDISC_SDTMMODELEVENTS> 			<http://www.assero.co.uk/BusinessDomain#includesColumn> 			<http://www.assero.co.uk/MDRSdtmMd/CDISC/V3#M-CDISC_SDTMMODELEVENTS_xxSER> . 
<http://www.assero.co.uk/MDRSdtmMd/CDISC/V3#M-CDISC_SDTMMODELEVENTS> 			<http://www.assero.co.uk/BusinessDomain#includesColumn> 			<http://www.assero.co.uk/MDRSdtmMd/CDISC/V3#M-CDISC_SDTMMODELEVENTS_xxSTDTC> . 
<http://www.assero.co.uk/MDRSdtmMd/CDISC/V3#M-CDISC_SDTMMODELEVENTS> 			<http://www.assero.co.uk/BusinessDomain#includesColumn> 			<http://www.assero.co.uk/MDRSdtmMd/CDISC/V3#M-CDISC_SDTMMODELEVENTS_xxPTCD> . 
<http://www.assero.co.uk/MDRSdtmMd/CDISC/V3#M-CDISC_SDTMMODELEVENTS> 			<http://www.assero.co.uk/BusinessDomain#includesColumn> 			<http://www.assero.co.uk/MDRSdtmMd/CDISC/V3#M-CDISC_SDTMMODELEVENTS_xxPORTOT> . 
<http://www.assero.co.uk/MDRSdtmMd/CDISC/V3#M-CDISC_SDTMMODELEVENTS> 			<http://www.assero.co.uk/BusinessDomain#includesColumn> 			<http://www.assero.co.uk/MDRSdtmMd/CDISC/V3#M-CDISC_SDTMMODELEVENTS_xxENINT> . 
<http://www.assero.co.uk/MDRSdtmMd/CDISC/V3#M-CDISC_SDTMMODELEVENTS> 			<http://www.assero.co.uk/BusinessDomain#includesColumn> 			<http://www.assero.co.uk/MDRSdtmMd/CDISC/V3#M-CDISC_SDTMMODELEVENTS_xxLLTCD> . 
<http://www.assero.co.uk/MDRSdtmMd/CDISC/V3#M-CDISC_SDTMMODELEVENTS> 			<http://www.assero.co.uk/BusinessDomain#includesColumn> 			<http://www.assero.co.uk/MDRSdtmMd/CDISC/V3#M-CDISC_SDTMMODELEVENTS_xxSCAN> . 
<http://www.assero.co.uk/MDRSdtmMd/CDISC/V3#M-CDISC_SDTMMODELEVENTS> 			<http://www.assero.co.uk/BusinessDomain#includesColumn> 			<http://www.assero.co.uk/MDRSdtmMd/CDISC/V3#M-CDISC_SDTMMODELEVENTS_xxTERM> . 
<http://www.assero.co.uk/MDRSdtmMd/CDISC/V3#M-CDISC_SDTMMODELEVENTS> 			<http://www.assero.co.uk/BusinessDomain#includesColumn> 			<http://www.assero.co.uk/MDRSdtmMd/CDISC/V3#M-CDISC_SDTMMODELEVENTS_xxSOD> . 
<http://www.assero.co.uk/MDRSdtmMd/CDISC/V3#M-CDISC_SDTMMODELEVENTS> 			<http://www.assero.co.uk/BusinessDomain#includesColumn> 			<http://www.assero.co.uk/MDRSdtmMd/CDISC/V3#M-CDISC_SDTMMODELEVENTS_xxLOC> . 
<http://www.assero.co.uk/MDRSdtmMd/CDISC/V3#M-CDISC_SDTMMODELEVENTS> 			<http://www.assero.co.uk/BusinessDomain#includesColumn> 			<http://www.assero.co.uk/MDRSdtmMd/CDISC/V3#M-CDISC_SDTMMODELEVENTS_xxSTDY> . 
<http://www.assero.co.uk/MDRSdtmMd/CDISC/V3#M-CDISC_SDTMMODELEVENTS> 			<http://www.assero.co.uk/BusinessDomain#includesColumn> 			<http://www.assero.co.uk/MDRSdtmMd/CDISC/V3#M-CDISC_SDTMMODELEVENTS_xxREL> . 
<http://www.assero.co.uk/MDRSdtmMd/CDISC/V3#M-CDISC_SDTMMODELEVENTS> 			<http://www.assero.co.uk/BusinessDomain#includesColumn> 			<http://www.assero.co.uk/MDRSdtmMd/CDISC/V3#M-CDISC_SDTMMODELEVENTS_xxEVINTX> . 
<http://www.assero.co.uk/MDRSdtmMd/CDISC/V3#M-CDISC_SDTMMODELEVENTS> 			<http://www.assero.co.uk/BusinessDomain#includesColumn> 			<http://www.assero.co.uk/MDRSdtmMd/CDISC/V3#M-CDISC_SDTMMODELEVENTS_xxCAT> . 
<http://www.assero.co.uk/MDRSdtmMd/CDISC/V3#M-CDISC_SDTMMODELEVENTS> 			<http://www.assero.co.uk/BusinessDomain#includesColumn> 			<http://www.assero.co.uk/MDRSdtmMd/CDISC/V3#M-CDISC_SDTMMODELEVENTS_xxSTTPT> . 
<http://www.assero.co.uk/MDRSdtmMd/CDISC/V3#M-CDISC_SDTMMODELEVENTS> 			<http://www.assero.co.uk/BusinessDomain#includesColumn> 			<http://www.assero.co.uk/MDRSdtmMd/CDISC/V3#M-CDISC_SDTMMODELEVENTS_xxTOXGR> . 
<http://www.assero.co.uk/MDRSdtmMd/CDISC/V3#M-CDISC_SDTMMODELEVENTS> 			<http://www.assero.co.uk/BusinessDomain#includesColumn> 			<http://www.assero.co.uk/MDRSdtmMd/CDISC/V3#M-CDISC_SDTMMODELEVENTS_xxSEV> . 
<http://www.assero.co.uk/MDRSdtmMd/CDISC/V3#M-CDISC_SDTMMODELEVENTS> 			<http://www.assero.co.uk/BusinessDomain#includesColumn> 			<http://www.assero.co.uk/MDRSdtmMd/CDISC/V3#M-CDISC_SDTMMODELEVENTS_xxDY> . 
<http://www.assero.co.uk/MDRSdtmMd/CDISC/V3#M-CDISC_SDTMMODELEVENTS> 			<http://www.assero.co.uk/BusinessDomain#includesColumn> 			<http://www.assero.co.uk/MDRSdtmMd/CDISC/V3#M-CDISC_SDTMMODELEVENTS_xxACNOTH> . 
<http://www.assero.co.uk/MDRSdtmMd/CDISC/V3#M-CDISC_SDTMMODELEVENTS> 			<http://www.assero.co.uk/BusinessDomain#includesColumn> 			<http://www.assero.co.uk/MDRSdtmMd/CDISC/V3#M-CDISC_SDTMMODELEVENTS_xxBDSYCD> . 
<http://www.assero.co.uk/MDRSdtmMd/CDISC/V3#M-CDISC_SDTMMODELEVENTS> 			<http://www.assero.co.uk/BusinessDomain#includesColumn> 			<http://www.assero.co.uk/MDRSdtmMd/CDISC/V3#M-CDISC_SDTMMODELEVENTS_xxDUR> . 
<http://www.assero.co.uk/MDRSdtmMd/CDISC/V3#M-CDISC_SDTMMODELEVENTS> 			<http://www.assero.co.uk/BusinessDomain#includesColumn> 			<http://www.assero.co.uk/MDRSdtmMd/CDISC/V3#M-CDISC_SDTMMODELEVENTS_xxOCCUR> . 
<http://www.assero.co.uk/MDRSdtmMd/CDISC/V3#M-CDISC_SDTMMODELEVENTS> 			<http://www.assero.co.uk/BusinessDomain#includesColumn> 			<http://www.assero.co.uk/MDRSdtmMd/CDISC/V3#M-CDISC_SDTMMODELEVENTS_xxHLGT> . 
<http://www.assero.co.uk/MDRSdtmMd/CDISC/V3#M-CDISC_SDTMMODELEVENTS> 			<http://www.assero.co.uk/BusinessDomain#includesColumn> 			<http://www.assero.co.uk/MDRSdtmMd/CDISC/V3#M-CDISC_SDTMMODELEVENTS_xxENDY> . 
<http://www.assero.co.uk/MDRSdtmMd/CDISC/V3#M-CDISC_SDTMMODELEVENTS> 			<http://www.assero.co.uk/BusinessDomain#includesColumn> 			<http://www.assero.co.uk/MDRSdtmMd/CDISC/V3#M-CDISC_SDTMMODELEVENTS_DOMAIN> . 
<http://www.assero.co.uk/MDRSdtmMd/CDISC/V3#M-CDISC_SDTMMODELEVENTS> 			<http://www.assero.co.uk/BusinessDomain#includesColumn> 			<http://www.assero.co.uk/MDRSdtmMd/CDISC/V3#M-CDISC_SDTMMODELEVENTS_xxDETECT> . 
<http://www.assero.co.uk/MDRSdtmMd/CDISC/V3#M-CDISC_SDTMMODELEVENTS> 			<http://www.assero.co.uk/BusinessDomain#includesColumn> 			<http://www.assero.co.uk/MDRSdtmMd/CDISC/V3#M-CDISC_SDTMMODELEVENTS_xxENDTC> . 
<http://www.assero.co.uk/MDRSdtmMd/CDISC/V3#M-CDISC_SDTMMODELEVENTS> 			<http://www.assero.co.uk/BusinessDomain#includesColumn> 			<http://www.assero.co.uk/MDRSdtmMd/CDISC/V3#M-CDISC_SDTMMODELEVENTS_xxGRPID> . 
<http://www.assero.co.uk/MDRSdtmMd/CDISC/V3#M-CDISC_SDTMMODELEVENTS> 			<http://www.assero.co.uk/BusinessDomain#includesColumn> 			<http://www.assero.co.uk/MDRSdtmMd/CDISC/V3#M-CDISC_SDTMMODELEVENTS_xxSLIFE> . 
<http://www.assero.co.uk/MDRSdtmMd/CDISC/V3#M-CDISC_SDTMMODELEVENTS> 			<http://www.assero.co.uk/BusinessDomain#includesColumn> 			<http://www.assero.co.uk/MDRSdtmMd/CDISC/V3#M-CDISC_SDTMMODELEVENTS_xxREASND> . 
<http://www.assero.co.uk/MDRSdtmMd/CDISC/V3#M-CDISC_SDTMMODELEVENTS> 			<http://www.assero.co.uk/BusinessDomain#includesColumn> 			<http://www.assero.co.uk/MDRSdtmMd/CDISC/V3#M-CDISC_SDTMMODELEVENTS_xxSEQ> . 
<http://www.assero.co.uk/MDRSdtmMd/CDISC/V3#M-CDISC_SDTMMODELEVENTS> 			<http://www.assero.co.uk/BusinessDomain#includesColumn> 			<http://www.assero.co.uk/MDRSdtmMd/CDISC/V3#M-CDISC_SDTMMODELEVENTS_xxACNDEV> . 
<http://www.assero.co.uk/MDRSdtmMd/CDISC/V3#M-CDISC_SDTMMODELEVENTS> 			<http://www.assero.co.uk/BusinessDomain#includesColumn> 			<http://www.assero.co.uk/MDRSdtmMd/CDISC/V3#M-CDISC_SDTMMODELEVENTS_xxSCONG> . 
<http://www.assero.co.uk/MDRSdtmMd/CDISC/V3#M-CDISC_SDTMMODELEVENTS> 			<http://www.assero.co.uk/BusinessDomain#includesColumn> 			<http://www.assero.co.uk/MDRSdtmMd/CDISC/V3#M-CDISC_SDTMMODELEVENTS_xxENRTPT> . 
<http://www.assero.co.uk/MDRSdtmMd/CDISC/V3#M-CDISC_SDTMMODELEVENTS> 			<http://www.assero.co.uk/BusinessDomain#includesColumn> 			<http://www.assero.co.uk/MDRSdtmMd/CDISC/V3#M-CDISC_SDTMMODELEVENTS_xxSHOSP> . 
<http://www.assero.co.uk/MDRSdtmMd/CDISC/V3#M-CDISC_SDTMMODELEVENTS> 			<http://www.assero.co.uk/BusinessDomain#includesColumn> 			<http://www.assero.co.uk/MDRSdtmMd/CDISC/V3#M-CDISC_SDTMMODELEVENTS_xxENRF> . 
<http://www.assero.co.uk/MDRSdtmMd/CDISC/V3#M-CDISC_SDTMMODELEVENTS> 			<http://www.assero.co.uk/BusinessDomain#includesColumn> 			<http://www.assero.co.uk/MDRSdtmMd/CDISC/V3#M-CDISC_SDTMMODELEVENTS_xxDECOD> . 
<http://www.assero.co.uk/MDRSdtmMd/CDISC/V3#M-CDISC_SDTMMODELEVENTS> 			<http://www.assero.co.uk/BusinessDomain#includesColumn> 			<http://www.assero.co.uk/MDRSdtmMd/CDISC/V3#M-CDISC_SDTMMODELEVENTS_xxSDISAB> . 
<http://www.assero.co.uk/MDRSdtmMd/CDISC/V3#M-CDISC_SDTMMODELEVENTS> 			<http://www.assero.co.uk/BusinessDomain#includesColumn> 			<http://www.assero.co.uk/MDRSdtmMd/CDISC/V3#M-CDISC_SDTMMODELEVENTS_VISITDY> . 
<http://www.assero.co.uk/MDRSdtmMd/CDISC/V3#M-CDISC_SDTMMODELEVENTS> 			<http://www.assero.co.uk/BusinessDomain#includesColumn> 			<http://www.assero.co.uk/MDRSdtmMd/CDISC/V3#M-CDISC_SDTMMODELEVENTS_VISIT> . 
<http://www.assero.co.uk/MDRSdtmMd/CDISC/V3#M-CDISC_SDTMMODELEVENTS> 			<http://www.assero.co.uk/BusinessDomain#includesColumn> 			<http://www.assero.co.uk/MDRSdtmMd/CDISC/V3#M-CDISC_SDTMMODELEVENTS_xxDTC> . 
<http://www.assero.co.uk/MDRSdtmMd/CDISC/V3#M-CDISC_SDTMMODELEVENTS> 			<http://www.assero.co.uk/BusinessDomain#includesColumn> 			<http://www.assero.co.uk/MDRSdtmMd/CDISC/V3#M-CDISC_SDTMMODELEVENTS_xxTPTNUM> . 
<http://www.assero.co.uk/MDRSdtmMd/CDISC/V3#M-CDISC_SDTMMODELEVENTS> 			<http://www.assero.co.uk/BusinessDomain#includesColumn> 			<http://www.assero.co.uk/MDRSdtmMd/CDISC/V3#M-CDISC_SDTMMODELEVENTS_xxTPT> . 
<http://www.assero.co.uk/MDRSdtmMd/CDISC/V3#M-CDISC_SDTMMODELEVENTS> 			<http://www.assero.co.uk/BusinessDomain#includesColumn> 			<http://www.assero.co.uk/MDRSdtmMd/CDISC/V3#M-CDISC_SDTMMODELEVENTS_VISITNUM> . 
<http://www.assero.co.uk/MDRSdtmMd/CDISC/V3#M-CDISC_SDTMMODELEVENTS> 			<http://www.assero.co.uk/BusinessDomain#includesColumn> 			<http://www.assero.co.uk/MDRSdtmMd/CDISC/V3#M-CDISC_SDTMMODELEVENTS_xxREFID> . 
<http://www.assero.co.uk/MDRSdtmMd/CDISC/V3#M-CDISC_SDTMMODELEVENTS> 			<http://www.assero.co.uk/BusinessDomain#includesColumn> 			<http://www.assero.co.uk/MDRSdtmMd/CDISC/V3#M-CDISC_SDTMMODELEVENTS_xxSDTH> . 
<http://www.assero.co.uk/MDRSdtmMd/CDISC/V3#M-CDISC_SDTMMODELEVENTS> 			<http://www.assero.co.uk/BusinessDomain#includesColumn> 			<http://www.assero.co.uk/MDRSdtmMd/CDISC/V3#M-CDISC_SDTMMODELEVENTS_xxHLGTCD> . 
<http://www.assero.co.uk/MDRSdtmMd/CDISC/V3#M-CDISC_SDTMMODELEVENTS> 			<http://www.assero.co.uk/BusinessDomain#includesColumn> 			<http://www.assero.co.uk/MDRSdtmMd/CDISC/V3#M-CDISC_SDTMMODELEVENTS_xxPRTYID> . 
<http://www.assero.co.uk/MDRSdtmMd/CDISC/V3#M-CDISC_SDTMMODELEVENTS> 			<http://www.assero.co.uk/BusinessDomain#includesColumn> 			<http://www.assero.co.uk/MDRSdtmMd/CDISC/V3#M-CDISC_SDTMMODELEVENTS_xxEVLINT> . 
<http://www.assero.co.uk/MDRSdtmMd/CDISC/V3#M-CDISC_SDTMMODELEVENTS> 			<http://www.assero.co.uk/BusinessDomain#includesColumn> 			<http://www.assero.co.uk/MDRSdtmMd/CDISC/V3#M-CDISC_SDTMMODELEVENTS_xxLAT> . 
<http://www.assero.co.uk/MDRSdtmMd/CDISC/V3#M-CDISC_SDTMMODELEVENTS> 			<http://www.assero.co.uk/BusinessDomain#includesColumn> 			<http://www.assero.co.uk/MDRSdtmMd/CDISC/V3#M-CDISC_SDTMMODELEVENTS_xxSOCCD> . 
<http://www.assero.co.uk/MDRSdtmMd/CDISC/V3#M-CDISC_SDTMMODELEVENTS> 			<http://www.assero.co.uk/BusinessDomain#includesColumn> 			<http://www.assero.co.uk/MDRSdtmMd/CDISC/V3#M-CDISC_SDTMMODELEVENTS_xxLNKID> . 
<http://www.assero.co.uk/MDRSdtmMd/CDISC/V3#M-CDISC_SDTMMODELEVENTS> 			<http://www.assero.co.uk/BusinessDomain#includesColumn> 			<http://www.assero.co.uk/MDRSdtmMd/CDISC/V3#M-CDISC_SDTMMODELEVENTS_xxTOX> . 
<http://www.assero.co.uk/MDRSdtmMd/CDISC/V3#M-CDISC_SDTMMODELEVENTS> 			<http://www.assero.co.uk/BusinessDomain#includesColumn> 			<http://www.assero.co.uk/MDRSdtmMd/CDISC/V3#M-CDISC_SDTMMODELEVENTS_xxACN> . 
<http://www.assero.co.uk/MDRSdtmMd/CDISC/V3#M-CDISC_SDTMMODELEVENTS> 			<http://www.assero.co.uk/BusinessDomain#includesColumn> 			<http://www.assero.co.uk/MDRSdtmMd/CDISC/V3#M-CDISC_SDTMMODELEVENTS_TAETORD> . 
<http://www.assero.co.uk/MDRSdtmMd/CDISC/V3#M-CDISC_SDTMMODELEVENTS> 			<http://www.assero.co.uk/BusinessDomain#includesColumn> 			<http://www.assero.co.uk/MDRSdtmMd/CDISC/V3#M-CDISC_SDTMMODELEVENTS_POOLID> . 
<http://www.assero.co.uk/MDRSdtmMd/CDISC/V3#M-CDISC_SDTMMODELEVENTS> 			<http://www.assero.co.uk/BusinessDomain#includesColumn> 			<http://www.assero.co.uk/MDRSdtmMd/CDISC/V3#M-CDISC_SDTMMODELEVENTS_xxBODSYS> . 
<http://www.assero.co.uk/MDRSdtmMd/CDISC/V3#M-CDISC_SDTMMODELEVENTS> 			<http://www.assero.co.uk/BusinessDomain#includesColumn> 			<http://www.assero.co.uk/MDRSdtmMd/CDISC/V3#M-CDISC_SDTMMODELEVENTS_xxOUT> . 
<http://www.assero.co.uk/MDRSdtmMd/CDISC/V3#M-CDISC_SDTMMODELEVENTS> 			<http://www.assero.co.uk/BusinessDomain#includesColumn> 			<http://www.assero.co.uk/MDRSdtmMd/CDISC/V3#M-CDISC_SDTMMODELEVENTS_xxPATT> . 
<http://www.assero.co.uk/MDRSdtmMd/CDISC/V3#M-CDISC_SDTMMODELEVENTS> 			<http://www.assero.co.uk/BusinessDomain#includesColumn> 			<http://www.assero.co.uk/MDRSdtmMd/CDISC/V3#M-CDISC_SDTMMODELEVENTS_xxELTM> . 
<http://www.assero.co.uk/MDRSdtmMd/CDISC/V3#M-CDISC_SDTMMODELEVENTS> 			<http://www.assero.co.uk/BusinessDomain#includesColumn> 			<http://www.assero.co.uk/MDRSdtmMd/CDISC/V3#M-CDISC_SDTMMODELEVENTS_xxSTINT> . 
<http://www.assero.co.uk/MDRSdtmMd/CDISC/V3#M-CDISC_SDTMMODELEVENTS> 			<http://www.assero.co.uk/BusinessDomain#includesColumn> 			<http://www.assero.co.uk/MDRSdtmMd/CDISC/V3#M-CDISC_SDTMMODELEVENTS_xxRFTDTC> . 
<http://www.assero.co.uk/MDRSdtmMd/CDISC/V3#M-CDISC_SDTMMODELEVENTS> 			<http://www.assero.co.uk/BusinessDomain#includesColumn> 			<http://www.assero.co.uk/MDRSdtmMd/CDISC/V3#M-CDISC_SDTMMODELEVENTS_xxHLT> . 
<http://www.assero.co.uk/MDRSdtmMd/CDISC/V3#M-CDISC_SDTMMODELEVENTS> 			<http://www.assero.co.uk/BusinessDomain#includesColumn> 			<http://www.assero.co.uk/MDRSdtmMd/CDISC/V3#M-CDISC_SDTMMODELEVENTS_xxCONTRT> . 
<http://www.assero.co.uk/MDRSdtmMd/CDISC/V3#M-CDISC_SDTMMODELEVENTS> 			<http://www.assero.co.uk/BusinessDomain#includesColumn> 			<http://www.assero.co.uk/MDRSdtmMd/CDISC/V3#M-CDISC_SDTMMODELEVENTS_SPDEVID> . 
<http://www.assero.co.uk/MDRSdtmMd/CDISC/V3#M-CDISC_SDTMMODELEVENTS> 			<http://www.assero.co.uk/BusinessDomain#includesColumn> 			<http://www.assero.co.uk/MDRSdtmMd/CDISC/V3#M-CDISC_SDTMMODELEVENTS_xxSMIE> . 
<http://www.assero.co.uk/MDRSdtmMd/CDISC/V3#M-CDISC_SDTMMODELEVENTS> 			<http://www.assero.co.uk/BusinessDomain#includesColumn> 			<http://www.assero.co.uk/MDRSdtmMd/CDISC/V3#M-CDISC_SDTMMODELEVENTS_xxPARTY> . 
<http://www.assero.co.uk/MDRSdtmMd/CDISC/V3#M-CDISC_SDTMMODELEVENTS> 			<http://www.assero.co.uk/BusinessDomain#rule> 			"" . 
<http://www.assero.co.uk/MDRSdtmMd/CDISC/V3#M-CDISC_SDTMMODELEVENTS_xxLLT> 			<http://www.w3.org/2000/01/rdf-schema#label> 			"Lowest Level Term" . 
<http://www.assero.co.uk/MDRSdtmMd/CDISC/V3#M-CDISC_SDTMMODELEVENTS_xxLLT> 			<http://www.w3.org/1999/02/22-rdf-syntax-ns#type> 			<http://www.assero.co.uk/BusinessDomain#ClassVariable> . 
<http://www.assero.co.uk/MDRSdtmMd/CDISC/V3#M-CDISC_SDTMMODELEVENTS_xxLLT> 			<http://www.assero.co.uk/BusinessDomain#ordinal> 			"14" . 
<http://www.assero.co.uk/MDRSdtmMd/CDISC/V3#M-CDISC_SDTMMODELEVENTS_xxLLT> 			<http://www.assero.co.uk/BusinessDomain#name> 			"--LLT" . 
<http://www.assero.co.uk/MDRSdtmMd/CDISC/V3#M-CDISC_SDTMMODELEVENTS_xxLLT> 			<http://www.assero.co.uk/BusinessDomain#rule> 			"" . 
<http://www.assero.co.uk/MDRSdtmMd/CDISC/V3#M-CDISC_SDTMMODELEVENTS_xxLLT> 			<http://www.assero.co.uk/BusinessDomain#basedOnVariable> 			<http://www.assero.co.uk/MDRSdtmMd/CDISC/V3#M-CDISC_SDTMMODELEVENTS_xxLLT_CR1> . 
<http://www.assero.co.uk/MDRSdtmMd/CDISC/V3#M-CDISC_SDTMMODELEVENTS_xxLLT_CR1> 			<http://www.w3.org/2000/01/rdf-schema#label> 			"Based on Variable Reference" . 
<http://www.assero.co.uk/MDRSdtmMd/CDISC/V3#M-CDISC_SDTMMODELEVENTS_xxLLT_CR1> 			<http://www.w3.org/1999/02/22-rdf-syntax-ns#type> 			<http://www.assero.co.uk/BusinessOperational#CReference> . 
<http://www.assero.co.uk/MDRSdtmMd/CDISC/V3#M-CDISC_SDTMMODELEVENTS_xxLLT_CR1> 			<http://www.assero.co.uk/BusinessOperational#optional> 			"false" . 
<http://www.assero.co.uk/MDRSdtmMd/CDISC/V3#M-CDISC_SDTMMODELEVENTS_xxLLT_CR1> 			<http://www.assero.co.uk/BusinessOperational#local_label> 			"" . 
<http://www.assero.co.uk/MDRSdtmMd/CDISC/V3#M-CDISC_SDTMMODELEVENTS_xxLLT_CR1> 			<http://www.assero.co.uk/BusinessOperational#enabled> 			"true" . 
<http://www.assero.co.uk/MDRSdtmMd/CDISC/V3#M-CDISC_SDTMMODELEVENTS_xxLLT_CR1> 			<http://www.assero.co.uk/BusinessOperational#ordinal> 			"1" . 
<http://www.assero.co.uk/MDRSdtmMd/CDISC/V3#M-CDISC_SDTMMODELEVENTS_xxLLT_CR1> 			<http://www.assero.co.uk/BusinessOperational#hasColumn> 			<http://www.assero.co.uk/MDRSdtmM/CDISC/V3#M-CDISC_SDTMMODEL_xxLLT> . 
<http://www.assero.co.uk/MDRSdtmMd/CDISC/V3#M-CDISC_SDTMMODELEVENTS_xxRELNST> 			<http://www.w3.org/2000/01/rdf-schema#label> 			"Relationship to Non-Study Treatment" . 
<http://www.assero.co.uk/MDRSdtmMd/CDISC/V3#M-CDISC_SDTMMODELEVENTS_xxRELNST> 			<http://www.w3.org/1999/02/22-rdf-syntax-ns#type> 			<http://www.assero.co.uk/BusinessDomain#ClassVariable> . 
<http://www.assero.co.uk/MDRSdtmMd/CDISC/V3#M-CDISC_SDTMMODELEVENTS_xxRELNST> 			<http://www.assero.co.uk/BusinessDomain#ordinal> 			"44" . 
<http://www.assero.co.uk/MDRSdtmMd/CDISC/V3#M-CDISC_SDTMMODELEVENTS_xxRELNST> 			<http://www.assero.co.uk/BusinessDomain#name> 			"--RELNST" . 
<http://www.assero.co.uk/MDRSdtmMd/CDISC/V3#M-CDISC_SDTMMODELEVENTS_xxRELNST> 			<http://www.assero.co.uk/BusinessDomain#rule> 			"" . 
<http://www.assero.co.uk/MDRSdtmMd/CDISC/V3#M-CDISC_SDTMMODELEVENTS_xxRELNST> 			<http://www.assero.co.uk/BusinessDomain#basedOnVariable> 			<http://www.assero.co.uk/MDRSdtmMd/CDISC/V3#M-CDISC_SDTMMODELEVENTS_xxRELNST_CR1> . 
<http://www.assero.co.uk/MDRSdtmMd/CDISC/V3#M-CDISC_SDTMMODELEVENTS_xxRELNST_CR1> 			<http://www.w3.org/2000/01/rdf-schema#label> 			"Based on Variable Reference" . 
<http://www.assero.co.uk/MDRSdtmMd/CDISC/V3#M-CDISC_SDTMMODELEVENTS_xxRELNST_CR1> 			<http://www.w3.org/1999/02/22-rdf-syntax-ns#type> 			<http://www.assero.co.uk/BusinessOperational#CReference> . 
<http://www.assero.co.uk/MDRSdtmMd/CDISC/V3#M-CDISC_SDTMMODELEVENTS_xxRELNST_CR1> 			<http://www.assero.co.uk/BusinessOperational#optional> 			"false" . 
<http://www.assero.co.uk/MDRSdtmMd/CDISC/V3#M-CDISC_SDTMMODELEVENTS_xxRELNST_CR1> 			<http://www.assero.co.uk/BusinessOperational#local_label> 			"" . 
<http://www.assero.co.uk/MDRSdtmMd/CDISC/V3#M-CDISC_SDTMMODELEVENTS_xxRELNST_CR1> 			<http://www.assero.co.uk/BusinessOperational#enabled> 			"true" . 
<http://www.assero.co.uk/MDRSdtmMd/CDISC/V3#M-CDISC_SDTMMODELEVENTS_xxRELNST_CR1> 			<http://www.assero.co.uk/BusinessOperational#ordinal> 			"1" . 
<http://www.assero.co.uk/MDRSdtmMd/CDISC/V3#M-CDISC_SDTMMODELEVENTS_xxRELNST_CR1> 			<http://www.assero.co.uk/BusinessOperational#hasColumn> 			<http://www.assero.co.uk/MDRSdtmM/CDISC/V3#M-CDISC_SDTMMODEL_xxRELNST> . 
<http://www.assero.co.uk/MDRSdtmMd/CDISC/V3#M-CDISC_SDTMMODELEVENTS_USUBJID> 			<http://www.w3.org/2000/01/rdf-schema#label> 			"Unique Subject Identifier" . 
<http://www.assero.co.uk/MDRSdtmMd/CDISC/V3#M-CDISC_SDTMMODELEVENTS_USUBJID> 			<http://www.w3.org/1999/02/22-rdf-syntax-ns#type> 			<http://www.assero.co.uk/BusinessDomain#ClassVariable> . 
<http://www.assero.co.uk/MDRSdtmMd/CDISC/V3#M-CDISC_SDTMMODELEVENTS_USUBJID> 			<http://www.assero.co.uk/BusinessDomain#ordinal> 			"3" . 
<http://www.assero.co.uk/MDRSdtmMd/CDISC/V3#M-CDISC_SDTMMODELEVENTS_USUBJID> 			<http://www.assero.co.uk/BusinessDomain#name> 			"USUBJID" . 
<http://www.assero.co.uk/MDRSdtmMd/CDISC/V3#M-CDISC_SDTMMODELEVENTS_USUBJID> 			<http://www.assero.co.uk/BusinessDomain#rule> 			"" . 
<http://www.assero.co.uk/MDRSdtmMd/CDISC/V3#M-CDISC_SDTMMODELEVENTS_USUBJID> 			<http://www.assero.co.uk/BusinessDomain#basedOnVariable> 			<http://www.assero.co.uk/MDRSdtmMd/CDISC/V3#M-CDISC_SDTMMODELEVENTS_USUBJID_CR1> . 
<http://www.assero.co.uk/MDRSdtmMd/CDISC/V3#M-CDISC_SDTMMODELEVENTS_USUBJID_CR1> 			<http://www.w3.org/2000/01/rdf-schema#label> 			"Based on Variable Reference" . 
<http://www.assero.co.uk/MDRSdtmMd/CDISC/V3#M-CDISC_SDTMMODELEVENTS_USUBJID_CR1> 			<http://www.w3.org/1999/02/22-rdf-syntax-ns#type> 			<http://www.assero.co.uk/BusinessOperational#CReference> . 
<http://www.assero.co.uk/MDRSdtmMd/CDISC/V3#M-CDISC_SDTMMODELEVENTS_USUBJID_CR1> 			<http://www.assero.co.uk/BusinessOperational#optional> 			"false" . 
<http://www.assero.co.uk/MDRSdtmMd/CDISC/V3#M-CDISC_SDTMMODELEVENTS_USUBJID_CR1> 			<http://www.assero.co.uk/BusinessOperational#local_label> 			"" . 
<http://www.assero.co.uk/MDRSdtmMd/CDISC/V3#M-CDISC_SDTMMODELEVENTS_USUBJID_CR1> 			<http://www.assero.co.uk/BusinessOperational#enabled> 			"true" . 
<http://www.assero.co.uk/MDRSdtmMd/CDISC/V3#M-CDISC_SDTMMODELEVENTS_USUBJID_CR1> 			<http://www.assero.co.uk/BusinessOperational#ordinal> 			"1" . 
<http://www.assero.co.uk/MDRSdtmMd/CDISC/V3#M-CDISC_SDTMMODELEVENTS_USUBJID_CR1> 			<http://www.assero.co.uk/BusinessOperational#hasColumn> 			<http://www.assero.co.uk/MDRSdtmM/CDISC/V3#M-CDISC_SDTMMODEL_USUBJID> . 
<http://www.assero.co.uk/MDRSdtmMd/CDISC/V3#M-CDISC_SDTMMODELEVENTS_xxSTRTPT> 			<http://www.w3.org/2000/01/rdf-schema#label> 			"Start Relative to Reference Time Point" . 
<http://www.assero.co.uk/MDRSdtmMd/CDISC/V3#M-CDISC_SDTMMODELEVENTS_xxSTRTPT> 			<http://www.w3.org/1999/02/22-rdf-syntax-ns#type> 			<http://www.assero.co.uk/BusinessDomain#ClassVariable> . 
<http://www.assero.co.uk/MDRSdtmMd/CDISC/V3#M-CDISC_SDTMMODELEVENTS_xxSTRTPT> 			<http://www.assero.co.uk/BusinessDomain#ordinal> 			"79" . 
<http://www.assero.co.uk/MDRSdtmMd/CDISC/V3#M-CDISC_SDTMMODELEVENTS_xxSTRTPT> 			<http://www.assero.co.uk/BusinessDomain#name> 			"--STRTPT" . 
<http://www.assero.co.uk/MDRSdtmMd/CDISC/V3#M-CDISC_SDTMMODELEVENTS_xxSTRTPT> 			<http://www.assero.co.uk/BusinessDomain#rule> 			"" . 
<http://www.assero.co.uk/MDRSdtmMd/CDISC/V3#M-CDISC_SDTMMODELEVENTS_xxSTRTPT> 			<http://www.assero.co.uk/BusinessDomain#basedOnVariable> 			<http://www.assero.co.uk/MDRSdtmMd/CDISC/V3#M-CDISC_SDTMMODELEVENTS_xxSTRTPT_CR1> . 
<http://www.assero.co.uk/MDRSdtmMd/CDISC/V3#M-CDISC_SDTMMODELEVENTS_xxSTRTPT_CR1> 			<http://www.w3.org/2000/01/rdf-schema#label> 			"Based on Variable Reference" . 
<http://www.assero.co.uk/MDRSdtmMd/CDISC/V3#M-CDISC_SDTMMODELEVENTS_xxSTRTPT_CR1> 			<http://www.w3.org/1999/02/22-rdf-syntax-ns#type> 			<http://www.assero.co.uk/BusinessOperational#CReference> . 
<http://www.assero.co.uk/MDRSdtmMd/CDISC/V3#M-CDISC_SDTMMODELEVENTS_xxSTRTPT_CR1> 			<http://www.assero.co.uk/BusinessOperational#optional> 			"false" . 
<http://www.assero.co.uk/MDRSdtmMd/CDISC/V3#M-CDISC_SDTMMODELEVENTS_xxSTRTPT_CR1> 			<http://www.assero.co.uk/BusinessOperational#local_label> 			"" . 
<http://www.assero.co.uk/MDRSdtmMd/CDISC/V3#M-CDISC_SDTMMODELEVENTS_xxSTRTPT_CR1> 			<http://www.assero.co.uk/BusinessOperational#enabled> 			"true" . 
<http://www.assero.co.uk/MDRSdtmMd/CDISC/V3#M-CDISC_SDTMMODELEVENTS_xxSTRTPT_CR1> 			<http://www.assero.co.uk/BusinessOperational#ordinal> 			"1" . 
<http://www.assero.co.uk/MDRSdtmMd/CDISC/V3#M-CDISC_SDTMMODELEVENTS_xxSTRTPT_CR1> 			<http://www.assero.co.uk/BusinessOperational#hasColumn> 			<http://www.assero.co.uk/MDRSdtmM/CDISC/V3#M-CDISC_SDTMMODEL_xxSTRTPT> . 
<http://www.assero.co.uk/MDRSdtmMd/CDISC/V3#M-CDISC_SDTMMODELEVENTS_xxTPTREF> 			<http://www.w3.org/2000/01/rdf-schema#label> 			"Time Point Reference" . 
<http://www.assero.co.uk/MDRSdtmMd/CDISC/V3#M-CDISC_SDTMMODELEVENTS_xxTPTREF> 			<http://www.w3.org/1999/02/22-rdf-syntax-ns#type> 			<http://www.assero.co.uk/BusinessDomain#ClassVariable> . 
<http://www.assero.co.uk/MDRSdtmMd/CDISC/V3#M-CDISC_SDTMMODELEVENTS_xxTPTREF> 			<http://www.assero.co.uk/BusinessDomain#ordinal> 			"73" . 
<http://www.assero.co.uk/MDRSdtmMd/CDISC/V3#M-CDISC_SDTMMODELEVENTS_xxTPTREF> 			<http://www.assero.co.uk/BusinessDomain#name> 			"--TPTREF" . 
<http://www.assero.co.uk/MDRSdtmMd/CDISC/V3#M-CDISC_SDTMMODELEVENTS_xxTPTREF> 			<http://www.assero.co.uk/BusinessDomain#rule> 			"" . 
<http://www.assero.co.uk/MDRSdtmMd/CDISC/V3#M-CDISC_SDTMMODELEVENTS_xxTPTREF> 			<http://www.assero.co.uk/BusinessDomain#basedOnVariable> 			<http://www.assero.co.uk/MDRSdtmMd/CDISC/V3#M-CDISC_SDTMMODELEVENTS_xxTPTREF_CR1> . 
<http://www.assero.co.uk/MDRSdtmMd/CDISC/V3#M-CDISC_SDTMMODELEVENTS_xxTPTREF_CR1> 			<http://www.w3.org/2000/01/rdf-schema#label> 			"Based on Variable Reference" . 
<http://www.assero.co.uk/MDRSdtmMd/CDISC/V3#M-CDISC_SDTMMODELEVENTS_xxTPTREF_CR1> 			<http://www.w3.org/1999/02/22-rdf-syntax-ns#type> 			<http://www.assero.co.uk/BusinessOperational#CReference> . 
<http://www.assero.co.uk/MDRSdtmMd/CDISC/V3#M-CDISC_SDTMMODELEVENTS_xxTPTREF_CR1> 			<http://www.assero.co.uk/BusinessOperational#optional> 			"false" . 
<http://www.assero.co.uk/MDRSdtmMd/CDISC/V3#M-CDISC_SDTMMODELEVENTS_xxTPTREF_CR1> 			<http://www.assero.co.uk/BusinessOperational#local_label> 			"" . 
<http://www.assero.co.uk/MDRSdtmMd/CDISC/V3#M-CDISC_SDTMMODELEVENTS_xxTPTREF_CR1> 			<http://www.assero.co.uk/BusinessOperational#enabled> 			"true" . 
<http://www.assero.co.uk/MDRSdtmMd/CDISC/V3#M-CDISC_SDTMMODELEVENTS_xxTPTREF_CR1> 			<http://www.assero.co.uk/BusinessOperational#ordinal> 			"1" . 
<http://www.assero.co.uk/MDRSdtmMd/CDISC/V3#M-CDISC_SDTMMODELEVENTS_xxTPTREF_CR1> 			<http://www.assero.co.uk/BusinessOperational#hasColumn> 			<http://www.assero.co.uk/MDRSdtmM/CDISC/V3#M-CDISC_SDTMMODEL_xxTPTREF> . 
<http://www.assero.co.uk/MDRSdtmMd/CDISC/V3#M-CDISC_SDTMMODELEVENTS_xxSTAT> 			<http://www.w3.org/2000/01/rdf-schema#label> 			"Completion Status" . 
<http://www.assero.co.uk/MDRSdtmMd/CDISC/V3#M-CDISC_SDTMMODELEVENTS_xxSTAT> 			<http://www.w3.org/1999/02/22-rdf-syntax-ns#type> 			<http://www.assero.co.uk/BusinessDomain#ClassVariable> . 
<http://www.assero.co.uk/MDRSdtmMd/CDISC/V3#M-CDISC_SDTMMODELEVENTS_xxSTAT> 			<http://www.assero.co.uk/BusinessDomain#ordinal> 			"26" . 
<http://www.assero.co.uk/MDRSdtmMd/CDISC/V3#M-CDISC_SDTMMODELEVENTS_xxSTAT> 			<http://www.assero.co.uk/BusinessDomain#name> 			"--STAT" . 
<http://www.assero.co.uk/MDRSdtmMd/CDISC/V3#M-CDISC_SDTMMODELEVENTS_xxSTAT> 			<http://www.assero.co.uk/BusinessDomain#rule> 			"" . 
<http://www.assero.co.uk/MDRSdtmMd/CDISC/V3#M-CDISC_SDTMMODELEVENTS_xxSTAT> 			<http://www.assero.co.uk/BusinessDomain#basedOnVariable> 			<http://www.assero.co.uk/MDRSdtmMd/CDISC/V3#M-CDISC_SDTMMODELEVENTS_xxSTAT_CR1> . 
<http://www.assero.co.uk/MDRSdtmMd/CDISC/V3#M-CDISC_SDTMMODELEVENTS_xxSTAT_CR1> 			<http://www.w3.org/2000/01/rdf-schema#label> 			"Based on Variable Reference" . 
<http://www.assero.co.uk/MDRSdtmMd/CDISC/V3#M-CDISC_SDTMMODELEVENTS_xxSTAT_CR1> 			<http://www.w3.org/1999/02/22-rdf-syntax-ns#type> 			<http://www.assero.co.uk/BusinessOperational#CReference> . 
<http://www.assero.co.uk/MDRSdtmMd/CDISC/V3#M-CDISC_SDTMMODELEVENTS_xxSTAT_CR1> 			<http://www.assero.co.uk/BusinessOperational#optional> 			"false" . 
<http://www.assero.co.uk/MDRSdtmMd/CDISC/V3#M-CDISC_SDTMMODELEVENTS_xxSTAT_CR1> 			<http://www.assero.co.uk/BusinessOperational#local_label> 			"" . 
<http://www.assero.co.uk/MDRSdtmMd/CDISC/V3#M-CDISC_SDTMMODELEVENTS_xxSTAT_CR1> 			<http://www.assero.co.uk/BusinessOperational#enabled> 			"true" . 
<http://www.assero.co.uk/MDRSdtmMd/CDISC/V3#M-CDISC_SDTMMODELEVENTS_xxSTAT_CR1> 			<http://www.assero.co.uk/BusinessOperational#ordinal> 			"1" . 
<http://www.assero.co.uk/MDRSdtmMd/CDISC/V3#M-CDISC_SDTMMODELEVENTS_xxSTAT_CR1> 			<http://www.assero.co.uk/BusinessOperational#hasColumn> 			<http://www.assero.co.uk/MDRSdtmM/CDISC/V3#M-CDISC_SDTMMODEL_xxSTAT> . 
<http://www.assero.co.uk/MDRSdtmMd/CDISC/V3#M-CDISC_SDTMMODELEVENTS_xxSTRF> 			<http://www.w3.org/2000/01/rdf-schema#label> 			"Start Relative to Reference Period" . 
<http://www.assero.co.uk/MDRSdtmMd/CDISC/V3#M-CDISC_SDTMMODELEVENTS_xxSTRF> 			<http://www.w3.org/1999/02/22-rdf-syntax-ns#type> 			<http://www.assero.co.uk/BusinessDomain#ClassVariable> . 
<http://www.assero.co.uk/MDRSdtmMd/CDISC/V3#M-CDISC_SDTMMODELEVENTS_xxSTRF> 			<http://www.assero.co.uk/BusinessDomain#ordinal> 			"75" . 
<http://www.assero.co.uk/MDRSdtmMd/CDISC/V3#M-CDISC_SDTMMODELEVENTS_xxSTRF> 			<http://www.assero.co.uk/BusinessDomain#name> 			"--STRF" . 
<http://www.assero.co.uk/MDRSdtmMd/CDISC/V3#M-CDISC_SDTMMODELEVENTS_xxSTRF> 			<http://www.assero.co.uk/BusinessDomain#rule> 			"" . 
<http://www.assero.co.uk/MDRSdtmMd/CDISC/V3#M-CDISC_SDTMMODELEVENTS_xxSTRF> 			<http://www.assero.co.uk/BusinessDomain#basedOnVariable> 			<http://www.assero.co.uk/MDRSdtmMd/CDISC/V3#M-CDISC_SDTMMODELEVENTS_xxSTRF_CR1> . 
<http://www.assero.co.uk/MDRSdtmMd/CDISC/V3#M-CDISC_SDTMMODELEVENTS_xxSTRF_CR1> 			<http://www.w3.org/2000/01/rdf-schema#label> 			"Based on Variable Reference" . 
<http://www.assero.co.uk/MDRSdtmMd/CDISC/V3#M-CDISC_SDTMMODELEVENTS_xxSTRF_CR1> 			<http://www.w3.org/1999/02/22-rdf-syntax-ns#type> 			<http://www.assero.co.uk/BusinessOperational#CReference> . 
<http://www.assero.co.uk/MDRSdtmMd/CDISC/V3#M-CDISC_SDTMMODELEVENTS_xxSTRF_CR1> 			<http://www.assero.co.uk/BusinessOperational#optional> 			"false" . 
<http://www.assero.co.uk/MDRSdtmMd/CDISC/V3#M-CDISC_SDTMMODELEVENTS_xxSTRF_CR1> 			<http://www.assero.co.uk/BusinessOperational#local_label> 			"" . 
<http://www.assero.co.uk/MDRSdtmMd/CDISC/V3#M-CDISC_SDTMMODELEVENTS_xxSTRF_CR1> 			<http://www.assero.co.uk/BusinessOperational#enabled> 			"true" . 
<http://www.assero.co.uk/MDRSdtmMd/CDISC/V3#M-CDISC_SDTMMODELEVENTS_xxSTRF_CR1> 			<http://www.assero.co.uk/BusinessOperational#ordinal> 			"1" . 
<http://www.assero.co.uk/MDRSdtmMd/CDISC/V3#M-CDISC_SDTMMODELEVENTS_xxSTRF_CR1> 			<http://www.assero.co.uk/BusinessOperational#hasColumn> 			<http://www.assero.co.uk/MDRSdtmM/CDISC/V3#M-CDISC_SDTMMODEL_xxSTRF> . 
<http://www.assero.co.uk/MDRSdtmMd/CDISC/V3#M-CDISC_SDTMMODELEVENTS_xxMODIFY> 			<http://www.w3.org/2000/01/rdf-schema#label> 			"Modified Reported Term" . 
<http://www.assero.co.uk/MDRSdtmMd/CDISC/V3#M-CDISC_SDTMMODELEVENTS_xxMODIFY> 			<http://www.w3.org/1999/02/22-rdf-syntax-ns#type> 			<http://www.assero.co.uk/BusinessDomain#ClassVariable> . 
<http://www.assero.co.uk/MDRSdtmMd/CDISC/V3#M-CDISC_SDTMMODELEVENTS_xxMODIFY> 			<http://www.assero.co.uk/BusinessDomain#ordinal> 			"13" . 
<http://www.assero.co.uk/MDRSdtmMd/CDISC/V3#M-CDISC_SDTMMODELEVENTS_xxMODIFY> 			<http://www.assero.co.uk/BusinessDomain#name> 			"--MODIFY" . 
<http://www.assero.co.uk/MDRSdtmMd/CDISC/V3#M-CDISC_SDTMMODELEVENTS_xxMODIFY> 			<http://www.assero.co.uk/BusinessDomain#rule> 			"" . 
<http://www.assero.co.uk/MDRSdtmMd/CDISC/V3#M-CDISC_SDTMMODELEVENTS_xxMODIFY> 			<http://www.assero.co.uk/BusinessDomain#basedOnVariable> 			<http://www.assero.co.uk/MDRSdtmMd/CDISC/V3#M-CDISC_SDTMMODELEVENTS_xxMODIFY_CR1> . 
<http://www.assero.co.uk/MDRSdtmMd/CDISC/V3#M-CDISC_SDTMMODELEVENTS_xxMODIFY_CR1> 			<http://www.w3.org/2000/01/rdf-schema#label> 			"Based on Variable Reference" . 
<http://www.assero.co.uk/MDRSdtmMd/CDISC/V3#M-CDISC_SDTMMODELEVENTS_xxMODIFY_CR1> 			<http://www.w3.org/1999/02/22-rdf-syntax-ns#type> 			<http://www.assero.co.uk/BusinessOperational#CReference> . 
<http://www.assero.co.uk/MDRSdtmMd/CDISC/V3#M-CDISC_SDTMMODELEVENTS_xxMODIFY_CR1> 			<http://www.assero.co.uk/BusinessOperational#optional> 			"false" . 
<http://www.assero.co.uk/MDRSdtmMd/CDISC/V3#M-CDISC_SDTMMODELEVENTS_xxMODIFY_CR1> 			<http://www.assero.co.uk/BusinessOperational#local_label> 			"" . 
<http://www.assero.co.uk/MDRSdtmMd/CDISC/V3#M-CDISC_SDTMMODELEVENTS_xxMODIFY_CR1> 			<http://www.assero.co.uk/BusinessOperational#enabled> 			"true" . 
<http://www.assero.co.uk/MDRSdtmMd/CDISC/V3#M-CDISC_SDTMMODELEVENTS_xxMODIFY_CR1> 			<http://www.assero.co.uk/BusinessOperational#ordinal> 			"1" . 
<http://www.assero.co.uk/MDRSdtmMd/CDISC/V3#M-CDISC_SDTMMODELEVENTS_xxMODIFY_CR1> 			<http://www.assero.co.uk/BusinessOperational#hasColumn> 			<http://www.assero.co.uk/MDRSdtmM/CDISC/V3#M-CDISC_SDTMMODEL_xxMODIFY> . 
<http://www.assero.co.uk/MDRSdtmMd/CDISC/V3#M-CDISC_SDTMMODELEVENTS_xxSPID> 			<http://www.w3.org/2000/01/rdf-schema#label> 			"Sponsor-Defined Identifier" . 
<http://www.assero.co.uk/MDRSdtmMd/CDISC/V3#M-CDISC_SDTMMODELEVENTS_xxSPID> 			<http://www.w3.org/1999/02/22-rdf-syntax-ns#type> 			<http://www.assero.co.uk/BusinessDomain#ClassVariable> . 
<http://www.assero.co.uk/MDRSdtmMd/CDISC/V3#M-CDISC_SDTMMODELEVENTS_xxSPID> 			<http://www.assero.co.uk/BusinessDomain#ordinal> 			"9" . 
<http://www.assero.co.uk/MDRSdtmMd/CDISC/V3#M-CDISC_SDTMMODELEVENTS_xxSPID> 			<http://www.assero.co.uk/BusinessDomain#name> 			"--SPID" . 
<http://www.assero.co.uk/MDRSdtmMd/CDISC/V3#M-CDISC_SDTMMODELEVENTS_xxSPID> 			<http://www.assero.co.uk/BusinessDomain#rule> 			"" . 
<http://www.assero.co.uk/MDRSdtmMd/CDISC/V3#M-CDISC_SDTMMODELEVENTS_xxSPID> 			<http://www.assero.co.uk/BusinessDomain#basedOnVariable> 			<http://www.assero.co.uk/MDRSdtmMd/CDISC/V3#M-CDISC_SDTMMODELEVENTS_xxSPID_CR1> . 
<http://www.assero.co.uk/MDRSdtmMd/CDISC/V3#M-CDISC_SDTMMODELEVENTS_xxSPID_CR1> 			<http://www.w3.org/2000/01/rdf-schema#label> 			"Based on Variable Reference" . 
<http://www.assero.co.uk/MDRSdtmMd/CDISC/V3#M-CDISC_SDTMMODELEVENTS_xxSPID_CR1> 			<http://www.w3.org/1999/02/22-rdf-syntax-ns#type> 			<http://www.assero.co.uk/BusinessOperational#CReference> . 
<http://www.assero.co.uk/MDRSdtmMd/CDISC/V3#M-CDISC_SDTMMODELEVENTS_xxSPID_CR1> 			<http://www.assero.co.uk/BusinessOperational#optional> 			"false" . 
<http://www.assero.co.uk/MDRSdtmMd/CDISC/V3#M-CDISC_SDTMMODELEVENTS_xxSPID_CR1> 			<http://www.assero.co.uk/BusinessOperational#local_label> 			"" . 
<http://www.assero.co.uk/MDRSdtmMd/CDISC/V3#M-CDISC_SDTMMODELEVENTS_xxSPID_CR1> 			<http://www.assero.co.uk/BusinessOperational#enabled> 			"true" . 
<http://www.assero.co.uk/MDRSdtmMd/CDISC/V3#M-CDISC_SDTMMODELEVENTS_xxSPID_CR1> 			<http://www.assero.co.uk/BusinessOperational#ordinal> 			"1" . 
<http://www.assero.co.uk/MDRSdtmMd/CDISC/V3#M-CDISC_SDTMMODELEVENTS_xxSPID_CR1> 			<http://www.assero.co.uk/BusinessOperational#hasColumn> 			<http://www.assero.co.uk/MDRSdtmM/CDISC/V3#M-CDISC_SDTMMODEL_xxSPID> . 
<http://www.assero.co.uk/MDRSdtmMd/CDISC/V3#M-CDISC_SDTMMODELEVENTS_EPOCH> 			<http://www.w3.org/2000/01/rdf-schema#label> 			"Epoch" . 
<http://www.assero.co.uk/MDRSdtmMd/CDISC/V3#M-CDISC_SDTMMODELEVENTS_EPOCH> 			<http://www.w3.org/1999/02/22-rdf-syntax-ns#type> 			<http://www.assero.co.uk/BusinessDomain#ClassVariable> . 
<http://www.assero.co.uk/MDRSdtmMd/CDISC/V3#M-CDISC_SDTMMODELEVENTS_EPOCH> 			<http://www.assero.co.uk/BusinessDomain#ordinal> 			"62" . 
<http://www.assero.co.uk/MDRSdtmMd/CDISC/V3#M-CDISC_SDTMMODELEVENTS_EPOCH> 			<http://www.assero.co.uk/BusinessDomain#name> 			"EPOCH" . 
<http://www.assero.co.uk/MDRSdtmMd/CDISC/V3#M-CDISC_SDTMMODELEVENTS_EPOCH> 			<http://www.assero.co.uk/BusinessDomain#rule> 			"" . 
<http://www.assero.co.uk/MDRSdtmMd/CDISC/V3#M-CDISC_SDTMMODELEVENTS_EPOCH> 			<http://www.assero.co.uk/BusinessDomain#basedOnVariable> 			<http://www.assero.co.uk/MDRSdtmMd/CDISC/V3#M-CDISC_SDTMMODELEVENTS_EPOCH_CR1> . 
<http://www.assero.co.uk/MDRSdtmMd/CDISC/V3#M-CDISC_SDTMMODELEVENTS_EPOCH_CR1> 			<http://www.w3.org/2000/01/rdf-schema#label> 			"Based on Variable Reference" . 
<http://www.assero.co.uk/MDRSdtmMd/CDISC/V3#M-CDISC_SDTMMODELEVENTS_EPOCH_CR1> 			<http://www.w3.org/1999/02/22-rdf-syntax-ns#type> 			<http://www.assero.co.uk/BusinessOperational#CReference> . 
<http://www.assero.co.uk/MDRSdtmMd/CDISC/V3#M-CDISC_SDTMMODELEVENTS_EPOCH_CR1> 			<http://www.assero.co.uk/BusinessOperational#optional> 			"false" . 
<http://www.assero.co.uk/MDRSdtmMd/CDISC/V3#M-CDISC_SDTMMODELEVENTS_EPOCH_CR1> 			<http://www.assero.co.uk/BusinessOperational#local_label> 			"" . 
<http://www.assero.co.uk/MDRSdtmMd/CDISC/V3#M-CDISC_SDTMMODELEVENTS_EPOCH_CR1> 			<http://www.assero.co.uk/BusinessOperational#enabled> 			"true" . 
<http://www.assero.co.uk/MDRSdtmMd/CDISC/V3#M-CDISC_SDTMMODELEVENTS_EPOCH_CR1> 			<http://www.assero.co.uk/BusinessOperational#ordinal> 			"1" . 
<http://www.assero.co.uk/MDRSdtmMd/CDISC/V3#M-CDISC_SDTMMODELEVENTS_EPOCH_CR1> 			<http://www.assero.co.uk/BusinessOperational#hasColumn> 			<http://www.assero.co.uk/MDRSdtmM/CDISC/V3#M-CDISC_SDTMMODEL_EPOCH> . 
<http://www.assero.co.uk/MDRSdtmMd/CDISC/V3#M-CDISC_SDTMMODELEVENTS_xxPRESP> 			<http://www.w3.org/2000/01/rdf-schema#label> 			"Pre-specified" . 
<http://www.assero.co.uk/MDRSdtmMd/CDISC/V3#M-CDISC_SDTMMODELEVENTS_xxPRESP> 			<http://www.w3.org/1999/02/22-rdf-syntax-ns#type> 			<http://www.assero.co.uk/BusinessDomain#ClassVariable> . 
<http://www.assero.co.uk/MDRSdtmMd/CDISC/V3#M-CDISC_SDTMMODELEVENTS_xxPRESP> 			<http://www.assero.co.uk/BusinessDomain#ordinal> 			"24" . 
<http://www.assero.co.uk/MDRSdtmMd/CDISC/V3#M-CDISC_SDTMMODELEVENTS_xxPRESP> 			<http://www.assero.co.uk/BusinessDomain#name> 			"--PRESP" . 
<http://www.assero.co.uk/MDRSdtmMd/CDISC/V3#M-CDISC_SDTMMODELEVENTS_xxPRESP> 			<http://www.assero.co.uk/BusinessDomain#rule> 			"" . 
<http://www.assero.co.uk/MDRSdtmMd/CDISC/V3#M-CDISC_SDTMMODELEVENTS_xxPRESP> 			<http://www.assero.co.uk/BusinessDomain#basedOnVariable> 			<http://www.assero.co.uk/MDRSdtmMd/CDISC/V3#M-CDISC_SDTMMODELEVENTS_xxPRESP_CR1> . 
<http://www.assero.co.uk/MDRSdtmMd/CDISC/V3#M-CDISC_SDTMMODELEVENTS_xxPRESP_CR1> 			<http://www.w3.org/2000/01/rdf-schema#label> 			"Based on Variable Reference" . 
<http://www.assero.co.uk/MDRSdtmMd/CDISC/V3#M-CDISC_SDTMMODELEVENTS_xxPRESP_CR1> 			<http://www.w3.org/1999/02/22-rdf-syntax-ns#type> 			<http://www.assero.co.uk/BusinessOperational#CReference> . 
<http://www.assero.co.uk/MDRSdtmMd/CDISC/V3#M-CDISC_SDTMMODELEVENTS_xxPRESP_CR1> 			<http://www.assero.co.uk/BusinessOperational#optional> 			"false" . 
<http://www.assero.co.uk/MDRSdtmMd/CDISC/V3#M-CDISC_SDTMMODELEVENTS_xxPRESP_CR1> 			<http://www.assero.co.uk/BusinessOperational#local_label> 			"" . 
<http://www.assero.co.uk/MDRSdtmMd/CDISC/V3#M-CDISC_SDTMMODELEVENTS_xxPRESP_CR1> 			<http://www.assero.co.uk/BusinessOperational#enabled> 			"true" . 
<http://www.assero.co.uk/MDRSdtmMd/CDISC/V3#M-CDISC_SDTMMODELEVENTS_xxPRESP_CR1> 			<http://www.assero.co.uk/BusinessOperational#ordinal> 			"1" . 
<http://www.assero.co.uk/MDRSdtmMd/CDISC/V3#M-CDISC_SDTMMODELEVENTS_xxPRESP_CR1> 			<http://www.assero.co.uk/BusinessOperational#hasColumn> 			<http://www.assero.co.uk/MDRSdtmM/CDISC/V3#M-CDISC_SDTMMODEL_xxPRESP> . 
<http://www.assero.co.uk/MDRSdtmMd/CDISC/V3#M-CDISC_SDTMMODELEVENTS_xxENTPT> 			<http://www.w3.org/2000/01/rdf-schema#label> 			"End Reference Time Point" . 
<http://www.assero.co.uk/MDRSdtmMd/CDISC/V3#M-CDISC_SDTMMODELEVENTS_xxENTPT> 			<http://www.w3.org/1999/02/22-rdf-syntax-ns#type> 			<http://www.assero.co.uk/BusinessDomain#ClassVariable> . 
<http://www.assero.co.uk/MDRSdtmMd/CDISC/V3#M-CDISC_SDTMMODELEVENTS_xxENTPT> 			<http://www.assero.co.uk/BusinessDomain#ordinal> 			"82" . 
<http://www.assero.co.uk/MDRSdtmMd/CDISC/V3#M-CDISC_SDTMMODELEVENTS_xxENTPT> 			<http://www.assero.co.uk/BusinessDomain#name> 			"--ENTPT" . 
<http://www.assero.co.uk/MDRSdtmMd/CDISC/V3#M-CDISC_SDTMMODELEVENTS_xxENTPT> 			<http://www.assero.co.uk/BusinessDomain#rule> 			"" . 
<http://www.assero.co.uk/MDRSdtmMd/CDISC/V3#M-CDISC_SDTMMODELEVENTS_xxENTPT> 			<http://www.assero.co.uk/BusinessDomain#basedOnVariable> 			<http://www.assero.co.uk/MDRSdtmMd/CDISC/V3#M-CDISC_SDTMMODELEVENTS_xxENTPT_CR1> . 
<http://www.assero.co.uk/MDRSdtmMd/CDISC/V3#M-CDISC_SDTMMODELEVENTS_xxENTPT_CR1> 			<http://www.w3.org/2000/01/rdf-schema#label> 			"Based on Variable Reference" . 
<http://www.assero.co.uk/MDRSdtmMd/CDISC/V3#M-CDISC_SDTMMODELEVENTS_xxENTPT_CR1> 			<http://www.w3.org/1999/02/22-rdf-syntax-ns#type> 			<http://www.assero.co.uk/BusinessOperational#CReference> . 
<http://www.assero.co.uk/MDRSdtmMd/CDISC/V3#M-CDISC_SDTMMODELEVENTS_xxENTPT_CR1> 			<http://www.assero.co.uk/BusinessOperational#optional> 			"false" . 
<http://www.assero.co.uk/MDRSdtmMd/CDISC/V3#M-CDISC_SDTMMODELEVENTS_xxENTPT_CR1> 			<http://www.assero.co.uk/BusinessOperational#local_label> 			"" . 
<http://www.assero.co.uk/MDRSdtmMd/CDISC/V3#M-CDISC_SDTMMODELEVENTS_xxENTPT_CR1> 			<http://www.assero.co.uk/BusinessOperational#enabled> 			"true" . 
<http://www.assero.co.uk/MDRSdtmMd/CDISC/V3#M-CDISC_SDTMMODELEVENTS_xxENTPT_CR1> 			<http://www.assero.co.uk/BusinessOperational#ordinal> 			"1" . 
<http://www.assero.co.uk/MDRSdtmMd/CDISC/V3#M-CDISC_SDTMMODELEVENTS_xxENTPT_CR1> 			<http://www.assero.co.uk/BusinessOperational#hasColumn> 			<http://www.assero.co.uk/MDRSdtmM/CDISC/V3#M-CDISC_SDTMMODEL_xxENTPT> . 
<http://www.assero.co.uk/MDRSdtmMd/CDISC/V3#M-CDISC_SDTMMODELEVENTS_STUDYID> 			<http://www.w3.org/2000/01/rdf-schema#label> 			"Study Identifier" . 
<http://www.assero.co.uk/MDRSdtmMd/CDISC/V3#M-CDISC_SDTMMODELEVENTS_STUDYID> 			<http://www.w3.org/1999/02/22-rdf-syntax-ns#type> 			<http://www.assero.co.uk/BusinessDomain#ClassVariable> . 
<http://www.assero.co.uk/MDRSdtmMd/CDISC/V3#M-CDISC_SDTMMODELEVENTS_STUDYID> 			<http://www.assero.co.uk/BusinessDomain#ordinal> 			"1" . 
<http://www.assero.co.uk/MDRSdtmMd/CDISC/V3#M-CDISC_SDTMMODELEVENTS_STUDYID> 			<http://www.assero.co.uk/BusinessDomain#name> 			"STUDYID" . 
<http://www.assero.co.uk/MDRSdtmMd/CDISC/V3#M-CDISC_SDTMMODELEVENTS_STUDYID> 			<http://www.assero.co.uk/BusinessDomain#rule> 			"" . 
<http://www.assero.co.uk/MDRSdtmMd/CDISC/V3#M-CDISC_SDTMMODELEVENTS_STUDYID> 			<http://www.assero.co.uk/BusinessDomain#basedOnVariable> 			<http://www.assero.co.uk/MDRSdtmMd/CDISC/V3#M-CDISC_SDTMMODELEVENTS_STUDYID_CR1> . 
<http://www.assero.co.uk/MDRSdtmMd/CDISC/V3#M-CDISC_SDTMMODELEVENTS_STUDYID_CR1> 			<http://www.w3.org/2000/01/rdf-schema#label> 			"Based on Variable Reference" . 
<http://www.assero.co.uk/MDRSdtmMd/CDISC/V3#M-CDISC_SDTMMODELEVENTS_STUDYID_CR1> 			<http://www.w3.org/1999/02/22-rdf-syntax-ns#type> 			<http://www.assero.co.uk/BusinessOperational#CReference> . 
<http://www.assero.co.uk/MDRSdtmMd/CDISC/V3#M-CDISC_SDTMMODELEVENTS_STUDYID_CR1> 			<http://www.assero.co.uk/BusinessOperational#optional> 			"false" . 
<http://www.assero.co.uk/MDRSdtmMd/CDISC/V3#M-CDISC_SDTMMODELEVENTS_STUDYID_CR1> 			<http://www.assero.co.uk/BusinessOperational#local_label> 			"" . 
<http://www.assero.co.uk/MDRSdtmMd/CDISC/V3#M-CDISC_SDTMMODELEVENTS_STUDYID_CR1> 			<http://www.assero.co.uk/BusinessOperational#enabled> 			"true" . 
<http://www.assero.co.uk/MDRSdtmMd/CDISC/V3#M-CDISC_SDTMMODELEVENTS_STUDYID_CR1> 			<http://www.assero.co.uk/BusinessOperational#ordinal> 			"1" . 
<http://www.assero.co.uk/MDRSdtmMd/CDISC/V3#M-CDISC_SDTMMODELEVENTS_STUDYID_CR1> 			<http://www.assero.co.uk/BusinessOperational#hasColumn> 			<http://www.assero.co.uk/MDRSdtmM/CDISC/V3#M-CDISC_SDTMMODEL_STUDYID> . 
<http://www.assero.co.uk/MDRSdtmMd/CDISC/V3#M-CDISC_SDTMMODELEVENTS_xxDIR> 			<http://www.w3.org/2000/01/rdf-schema#label> 			"Directionality" . 
<http://www.assero.co.uk/MDRSdtmMd/CDISC/V3#M-CDISC_SDTMMODELEVENTS_xxDIR> 			<http://www.w3.org/1999/02/22-rdf-syntax-ns#type> 			<http://www.assero.co.uk/BusinessDomain#ClassVariable> . 
<http://www.assero.co.uk/MDRSdtmMd/CDISC/V3#M-CDISC_SDTMMODELEVENTS_xxDIR> 			<http://www.assero.co.uk/BusinessDomain#ordinal> 			"34" . 
<http://www.assero.co.uk/MDRSdtmMd/CDISC/V3#M-CDISC_SDTMMODELEVENTS_xxDIR> 			<http://www.assero.co.uk/BusinessDomain#name> 			"--DIR" . 
<http://www.assero.co.uk/MDRSdtmMd/CDISC/V3#M-CDISC_SDTMMODELEVENTS_xxDIR> 			<http://www.assero.co.uk/BusinessDomain#rule> 			"" . 
<http://www.assero.co.uk/MDRSdtmMd/CDISC/V3#M-CDISC_SDTMMODELEVENTS_xxDIR> 			<http://www.assero.co.uk/BusinessDomain#basedOnVariable> 			<http://www.assero.co.uk/MDRSdtmMd/CDISC/V3#M-CDISC_SDTMMODELEVENTS_xxDIR_CR1> . 
<http://www.assero.co.uk/MDRSdtmMd/CDISC/V3#M-CDISC_SDTMMODELEVENTS_xxDIR_CR1> 			<http://www.w3.org/2000/01/rdf-schema#label> 			"Based on Variable Reference" . 
<http://www.assero.co.uk/MDRSdtmMd/CDISC/V3#M-CDISC_SDTMMODELEVENTS_xxDIR_CR1> 			<http://www.w3.org/1999/02/22-rdf-syntax-ns#type> 			<http://www.assero.co.uk/BusinessOperational#CReference> . 
<http://www.assero.co.uk/MDRSdtmMd/CDISC/V3#M-CDISC_SDTMMODELEVENTS_xxDIR_CR1> 			<http://www.assero.co.uk/BusinessOperational#optional> 			"false" . 
<http://www.assero.co.uk/MDRSdtmMd/CDISC/V3#M-CDISC_SDTMMODELEVENTS_xxDIR_CR1> 			<http://www.assero.co.uk/BusinessOperational#local_label> 			"" . 
<http://www.assero.co.uk/MDRSdtmMd/CDISC/V3#M-CDISC_SDTMMODELEVENTS_xxDIR_CR1> 			<http://www.assero.co.uk/BusinessOperational#enabled> 			"true" . 
<http://www.assero.co.uk/MDRSdtmMd/CDISC/V3#M-CDISC_SDTMMODELEVENTS_xxDIR_CR1> 			<http://www.assero.co.uk/BusinessOperational#ordinal> 			"1" . 
<http://www.assero.co.uk/MDRSdtmMd/CDISC/V3#M-CDISC_SDTMMODELEVENTS_xxDIR_CR1> 			<http://www.assero.co.uk/BusinessOperational#hasColumn> 			<http://www.assero.co.uk/MDRSdtmM/CDISC/V3#M-CDISC_SDTMMODEL_xxDIR> . 
<http://www.assero.co.uk/MDRSdtmMd/CDISC/V3#M-CDISC_SDTMMODELEVENTS_xxHLTCD> 			<http://www.w3.org/2000/01/rdf-schema#label> 			"High Level Term Code" . 
<http://www.assero.co.uk/MDRSdtmMd/CDISC/V3#M-CDISC_SDTMMODELEVENTS_xxHLTCD> 			<http://www.w3.org/1999/02/22-rdf-syntax-ns#type> 			<http://www.assero.co.uk/BusinessDomain#ClassVariable> . 
<http://www.assero.co.uk/MDRSdtmMd/CDISC/V3#M-CDISC_SDTMMODELEVENTS_xxHLTCD> 			<http://www.assero.co.uk/BusinessDomain#ordinal> 			"19" . 
<http://www.assero.co.uk/MDRSdtmMd/CDISC/V3#M-CDISC_SDTMMODELEVENTS_xxHLTCD> 			<http://www.assero.co.uk/BusinessDomain#name> 			"--HLTCD" . 
<http://www.assero.co.uk/MDRSdtmMd/CDISC/V3#M-CDISC_SDTMMODELEVENTS_xxHLTCD> 			<http://www.assero.co.uk/BusinessDomain#rule> 			"" . 
<http://www.assero.co.uk/MDRSdtmMd/CDISC/V3#M-CDISC_SDTMMODELEVENTS_xxHLTCD> 			<http://www.assero.co.uk/BusinessDomain#basedOnVariable> 			<http://www.assero.co.uk/MDRSdtmMd/CDISC/V3#M-CDISC_SDTMMODELEVENTS_xxHLTCD_CR1> . 
<http://www.assero.co.uk/MDRSdtmMd/CDISC/V3#M-CDISC_SDTMMODELEVENTS_xxHLTCD_CR1> 			<http://www.w3.org/2000/01/rdf-schema#label> 			"Based on Variable Reference" . 
<http://www.assero.co.uk/MDRSdtmMd/CDISC/V3#M-CDISC_SDTMMODELEVENTS_xxHLTCD_CR1> 			<http://www.w3.org/1999/02/22-rdf-syntax-ns#type> 			<http://www.assero.co.uk/BusinessOperational#CReference> . 
<http://www.assero.co.uk/MDRSdtmMd/CDISC/V3#M-CDISC_SDTMMODELEVENTS_xxHLTCD_CR1> 			<http://www.assero.co.uk/BusinessOperational#optional> 			"false" . 
<http://www.assero.co.uk/MDRSdtmMd/CDISC/V3#M-CDISC_SDTMMODELEVENTS_xxHLTCD_CR1> 			<http://www.assero.co.uk/BusinessOperational#local_label> 			"" . 
<http://www.assero.co.uk/MDRSdtmMd/CDISC/V3#M-CDISC_SDTMMODELEVENTS_xxHLTCD_CR1> 			<http://www.assero.co.uk/BusinessOperational#enabled> 			"true" . 
<http://www.assero.co.uk/MDRSdtmMd/CDISC/V3#M-CDISC_SDTMMODELEVENTS_xxHLTCD_CR1> 			<http://www.assero.co.uk/BusinessOperational#ordinal> 			"1" . 
<http://www.assero.co.uk/MDRSdtmMd/CDISC/V3#M-CDISC_SDTMMODELEVENTS_xxHLTCD_CR1> 			<http://www.assero.co.uk/BusinessOperational#hasColumn> 			<http://www.assero.co.uk/MDRSdtmM/CDISC/V3#M-CDISC_SDTMMODEL_xxHLTCD> . 
<http://www.assero.co.uk/MDRSdtmMd/CDISC/V3#M-CDISC_SDTMMODELEVENTS_xxLNKGRP> 			<http://www.w3.org/2000/01/rdf-schema#label> 			"Link Group ID" . 
<http://www.assero.co.uk/MDRSdtmMd/CDISC/V3#M-CDISC_SDTMMODELEVENTS_xxLNKGRP> 			<http://www.w3.org/1999/02/22-rdf-syntax-ns#type> 			<http://www.assero.co.uk/BusinessDomain#ClassVariable> . 
<http://www.assero.co.uk/MDRSdtmMd/CDISC/V3#M-CDISC_SDTMMODELEVENTS_xxLNKGRP> 			<http://www.assero.co.uk/BusinessDomain#ordinal> 			"11" . 
<http://www.assero.co.uk/MDRSdtmMd/CDISC/V3#M-CDISC_SDTMMODELEVENTS_xxLNKGRP> 			<http://www.assero.co.uk/BusinessDomain#name> 			"--LNKGRP" . 
<http://www.assero.co.uk/MDRSdtmMd/CDISC/V3#M-CDISC_SDTMMODELEVENTS_xxLNKGRP> 			<http://www.assero.co.uk/BusinessDomain#rule> 			"" . 
<http://www.assero.co.uk/MDRSdtmMd/CDISC/V3#M-CDISC_SDTMMODELEVENTS_xxLNKGRP> 			<http://www.assero.co.uk/BusinessDomain#basedOnVariable> 			<http://www.assero.co.uk/MDRSdtmMd/CDISC/V3#M-CDISC_SDTMMODELEVENTS_xxLNKGRP_CR1> . 
<http://www.assero.co.uk/MDRSdtmMd/CDISC/V3#M-CDISC_SDTMMODELEVENTS_xxLNKGRP_CR1> 			<http://www.w3.org/2000/01/rdf-schema#label> 			"Based on Variable Reference" . 
<http://www.assero.co.uk/MDRSdtmMd/CDISC/V3#M-CDISC_SDTMMODELEVENTS_xxLNKGRP_CR1> 			<http://www.w3.org/1999/02/22-rdf-syntax-ns#type> 			<http://www.assero.co.uk/BusinessOperational#CReference> . 
<http://www.assero.co.uk/MDRSdtmMd/CDISC/V3#M-CDISC_SDTMMODELEVENTS_xxLNKGRP_CR1> 			<http://www.assero.co.uk/BusinessOperational#optional> 			"false" . 
<http://www.assero.co.uk/MDRSdtmMd/CDISC/V3#M-CDISC_SDTMMODELEVENTS_xxLNKGRP_CR1> 			<http://www.assero.co.uk/BusinessOperational#local_label> 			"" . 
<http://www.assero.co.uk/MDRSdtmMd/CDISC/V3#M-CDISC_SDTMMODELEVENTS_xxLNKGRP_CR1> 			<http://www.assero.co.uk/BusinessOperational#enabled> 			"true" . 
<http://www.assero.co.uk/MDRSdtmMd/CDISC/V3#M-CDISC_SDTMMODELEVENTS_xxLNKGRP_CR1> 			<http://www.assero.co.uk/BusinessOperational#ordinal> 			"1" . 
<http://www.assero.co.uk/MDRSdtmMd/CDISC/V3#M-CDISC_SDTMMODELEVENTS_xxLNKGRP_CR1> 			<http://www.assero.co.uk/BusinessOperational#hasColumn> 			<http://www.assero.co.uk/MDRSdtmM/CDISC/V3#M-CDISC_SDTMMODEL_xxLNKGRP> . 
<http://www.assero.co.uk/MDRSdtmMd/CDISC/V3#M-CDISC_SDTMMODELEVENTS_xxSOC> 			<http://www.w3.org/2000/01/rdf-schema#label> 			"Primary System Organ Class" . 
<http://www.assero.co.uk/MDRSdtmMd/CDISC/V3#M-CDISC_SDTMMODELEVENTS_xxSOC> 			<http://www.w3.org/1999/02/22-rdf-syntax-ns#type> 			<http://www.assero.co.uk/BusinessDomain#ClassVariable> . 
<http://www.assero.co.uk/MDRSdtmMd/CDISC/V3#M-CDISC_SDTMMODELEVENTS_xxSOC> 			<http://www.assero.co.uk/BusinessDomain#ordinal> 			"30" . 
<http://www.assero.co.uk/MDRSdtmMd/CDISC/V3#M-CDISC_SDTMMODELEVENTS_xxSOC> 			<http://www.assero.co.uk/BusinessDomain#name> 			"--SOC" . 
<http://www.assero.co.uk/MDRSdtmMd/CDISC/V3#M-CDISC_SDTMMODELEVENTS_xxSOC> 			<http://www.assero.co.uk/BusinessDomain#rule> 			"" . 
<http://www.assero.co.uk/MDRSdtmMd/CDISC/V3#M-CDISC_SDTMMODELEVENTS_xxSOC> 			<http://www.assero.co.uk/BusinessDomain#basedOnVariable> 			<http://www.assero.co.uk/MDRSdtmMd/CDISC/V3#M-CDISC_SDTMMODELEVENTS_xxSOC_CR1> . 
<http://www.assero.co.uk/MDRSdtmMd/CDISC/V3#M-CDISC_SDTMMODELEVENTS_xxSOC_CR1> 			<http://www.w3.org/2000/01/rdf-schema#label> 			"Based on Variable Reference" . 
<http://www.assero.co.uk/MDRSdtmMd/CDISC/V3#M-CDISC_SDTMMODELEVENTS_xxSOC_CR1> 			<http://www.w3.org/1999/02/22-rdf-syntax-ns#type> 			<http://www.assero.co.uk/BusinessOperational#CReference> . 
<http://www.assero.co.uk/MDRSdtmMd/CDISC/V3#M-CDISC_SDTMMODELEVENTS_xxSOC_CR1> 			<http://www.assero.co.uk/BusinessOperational#optional> 			"false" . 
<http://www.assero.co.uk/MDRSdtmMd/CDISC/V3#M-CDISC_SDTMMODELEVENTS_xxSOC_CR1> 			<http://www.assero.co.uk/BusinessOperational#local_label> 			"" . 
<http://www.assero.co.uk/MDRSdtmMd/CDISC/V3#M-CDISC_SDTMMODELEVENTS_xxSOC_CR1> 			<http://www.assero.co.uk/BusinessOperational#enabled> 			"true" . 
<http://www.assero.co.uk/MDRSdtmMd/CDISC/V3#M-CDISC_SDTMMODELEVENTS_xxSOC_CR1> 			<http://www.assero.co.uk/BusinessOperational#ordinal> 			"1" . 
<http://www.assero.co.uk/MDRSdtmMd/CDISC/V3#M-CDISC_SDTMMODELEVENTS_xxSOC_CR1> 			<http://www.assero.co.uk/BusinessOperational#hasColumn> 			<http://www.assero.co.uk/MDRSdtmM/CDISC/V3#M-CDISC_SDTMMODEL_xxSOC> . 
<http://www.assero.co.uk/MDRSdtmMd/CDISC/V3#M-CDISC_SDTMMODELEVENTS_xxSCAT> 			<http://www.w3.org/2000/01/rdf-schema#label> 			"Subcategory" . 
<http://www.assero.co.uk/MDRSdtmMd/CDISC/V3#M-CDISC_SDTMMODELEVENTS_xxSCAT> 			<http://www.w3.org/1999/02/22-rdf-syntax-ns#type> 			<http://www.assero.co.uk/BusinessDomain#ClassVariable> . 
<http://www.assero.co.uk/MDRSdtmMd/CDISC/V3#M-CDISC_SDTMMODELEVENTS_xxSCAT> 			<http://www.assero.co.uk/BusinessDomain#ordinal> 			"23" . 
<http://www.assero.co.uk/MDRSdtmMd/CDISC/V3#M-CDISC_SDTMMODELEVENTS_xxSCAT> 			<http://www.assero.co.uk/BusinessDomain#name> 			"--SCAT" . 
<http://www.assero.co.uk/MDRSdtmMd/CDISC/V3#M-CDISC_SDTMMODELEVENTS_xxSCAT> 			<http://www.assero.co.uk/BusinessDomain#rule> 			"" . 
<http://www.assero.co.uk/MDRSdtmMd/CDISC/V3#M-CDISC_SDTMMODELEVENTS_xxSCAT> 			<http://www.assero.co.uk/BusinessDomain#basedOnVariable> 			<http://www.assero.co.uk/MDRSdtmMd/CDISC/V3#M-CDISC_SDTMMODELEVENTS_xxSCAT_CR1> . 
<http://www.assero.co.uk/MDRSdtmMd/CDISC/V3#M-CDISC_SDTMMODELEVENTS_xxSCAT_CR1> 			<http://www.w3.org/2000/01/rdf-schema#label> 			"Based on Variable Reference" . 
<http://www.assero.co.uk/MDRSdtmMd/CDISC/V3#M-CDISC_SDTMMODELEVENTS_xxSCAT_CR1> 			<http://www.w3.org/1999/02/22-rdf-syntax-ns#type> 			<http://www.assero.co.uk/BusinessOperational#CReference> . 
<http://www.assero.co.uk/MDRSdtmMd/CDISC/V3#M-CDISC_SDTMMODELEVENTS_xxSCAT_CR1> 			<http://www.assero.co.uk/BusinessOperational#optional> 			"false" . 
<http://www.assero.co.uk/MDRSdtmMd/CDISC/V3#M-CDISC_SDTMMODELEVENTS_xxSCAT_CR1> 			<http://www.assero.co.uk/BusinessOperational#local_label> 			"" . 
<http://www.assero.co.uk/MDRSdtmMd/CDISC/V3#M-CDISC_SDTMMODELEVENTS_xxSCAT_CR1> 			<http://www.assero.co.uk/BusinessOperational#enabled> 			"true" . 
<http://www.assero.co.uk/MDRSdtmMd/CDISC/V3#M-CDISC_SDTMMODELEVENTS_xxSCAT_CR1> 			<http://www.assero.co.uk/BusinessOperational#ordinal> 			"1" . 
<http://www.assero.co.uk/MDRSdtmMd/CDISC/V3#M-CDISC_SDTMMODELEVENTS_xxSCAT_CR1> 			<http://www.assero.co.uk/BusinessOperational#hasColumn> 			<http://www.assero.co.uk/MDRSdtmM/CDISC/V3#M-CDISC_SDTMMODEL_xxSCAT> . 
<http://www.assero.co.uk/MDRSdtmMd/CDISC/V3#M-CDISC_SDTMMODELEVENTS_xxSER> 			<http://www.w3.org/2000/01/rdf-schema#label> 			"Serious Event" . 
<http://www.assero.co.uk/MDRSdtmMd/CDISC/V3#M-CDISC_SDTMMODELEVENTS_xxSER> 			<http://www.w3.org/1999/02/22-rdf-syntax-ns#type> 			<http://www.assero.co.uk/BusinessDomain#ClassVariable> . 
<http://www.assero.co.uk/MDRSdtmMd/CDISC/V3#M-CDISC_SDTMMODELEVENTS_xxSER> 			<http://www.assero.co.uk/BusinessDomain#ordinal> 			"39" . 
<http://www.assero.co.uk/MDRSdtmMd/CDISC/V3#M-CDISC_SDTMMODELEVENTS_xxSER> 			<http://www.assero.co.uk/BusinessDomain#name> 			"--SER" . 
<http://www.assero.co.uk/MDRSdtmMd/CDISC/V3#M-CDISC_SDTMMODELEVENTS_xxSER> 			<http://www.assero.co.uk/BusinessDomain#rule> 			"" . 
<http://www.assero.co.uk/MDRSdtmMd/CDISC/V3#M-CDISC_SDTMMODELEVENTS_xxSER> 			<http://www.assero.co.uk/BusinessDomain#basedOnVariable> 			<http://www.assero.co.uk/MDRSdtmMd/CDISC/V3#M-CDISC_SDTMMODELEVENTS_xxSER_CR1> . 
<http://www.assero.co.uk/MDRSdtmMd/CDISC/V3#M-CDISC_SDTMMODELEVENTS_xxSER_CR1> 			<http://www.w3.org/2000/01/rdf-schema#label> 			"Based on Variable Reference" . 
<http://www.assero.co.uk/MDRSdtmMd/CDISC/V3#M-CDISC_SDTMMODELEVENTS_xxSER_CR1> 			<http://www.w3.org/1999/02/22-rdf-syntax-ns#type> 			<http://www.assero.co.uk/BusinessOperational#CReference> . 
<http://www.assero.co.uk/MDRSdtmMd/CDISC/V3#M-CDISC_SDTMMODELEVENTS_xxSER_CR1> 			<http://www.assero.co.uk/BusinessOperational#optional> 			"false" . 
<http://www.assero.co.uk/MDRSdtmMd/CDISC/V3#M-CDISC_SDTMMODELEVENTS_xxSER_CR1> 			<http://www.assero.co.uk/BusinessOperational#local_label> 			"" . 
<http://www.assero.co.uk/MDRSdtmMd/CDISC/V3#M-CDISC_SDTMMODELEVENTS_xxSER_CR1> 			<http://www.assero.co.uk/BusinessOperational#enabled> 			"true" . 
<http://www.assero.co.uk/MDRSdtmMd/CDISC/V3#M-CDISC_SDTMMODELEVENTS_xxSER_CR1> 			<http://www.assero.co.uk/BusinessOperational#ordinal> 			"1" . 
<http://www.assero.co.uk/MDRSdtmMd/CDISC/V3#M-CDISC_SDTMMODELEVENTS_xxSER_CR1> 			<http://www.assero.co.uk/BusinessOperational#hasColumn> 			<http://www.assero.co.uk/MDRSdtmM/CDISC/V3#M-CDISC_SDTMMODEL_xxSER> . 
<http://www.assero.co.uk/MDRSdtmMd/CDISC/V3#M-CDISC_SDTMMODELEVENTS_xxSTDTC> 			<http://www.w3.org/2000/01/rdf-schema#label> 			"Start Date/Time of Observation" . 
<http://www.assero.co.uk/MDRSdtmMd/CDISC/V3#M-CDISC_SDTMMODELEVENTS_xxSTDTC> 			<http://www.w3.org/1999/02/22-rdf-syntax-ns#type> 			<http://www.assero.co.uk/BusinessDomain#ClassVariable> . 
<http://www.assero.co.uk/MDRSdtmMd/CDISC/V3#M-CDISC_SDTMMODELEVENTS_xxSTDTC> 			<http://www.assero.co.uk/BusinessDomain#ordinal> 			"64" . 
<http://www.assero.co.uk/MDRSdtmMd/CDISC/V3#M-CDISC_SDTMMODELEVENTS_xxSTDTC> 			<http://www.assero.co.uk/BusinessDomain#name> 			"--STDTC" . 
<http://www.assero.co.uk/MDRSdtmMd/CDISC/V3#M-CDISC_SDTMMODELEVENTS_xxSTDTC> 			<http://www.assero.co.uk/BusinessDomain#rule> 			"" . 
<http://www.assero.co.uk/MDRSdtmMd/CDISC/V3#M-CDISC_SDTMMODELEVENTS_xxSTDTC> 			<http://www.assero.co.uk/BusinessDomain#basedOnVariable> 			<http://www.assero.co.uk/MDRSdtmMd/CDISC/V3#M-CDISC_SDTMMODELEVENTS_xxSTDTC_CR1> . 
<http://www.assero.co.uk/MDRSdtmMd/CDISC/V3#M-CDISC_SDTMMODELEVENTS_xxSTDTC_CR1> 			<http://www.w3.org/2000/01/rdf-schema#label> 			"Based on Variable Reference" . 
<http://www.assero.co.uk/MDRSdtmMd/CDISC/V3#M-CDISC_SDTMMODELEVENTS_xxSTDTC_CR1> 			<http://www.w3.org/1999/02/22-rdf-syntax-ns#type> 			<http://www.assero.co.uk/BusinessOperational#CReference> . 
<http://www.assero.co.uk/MDRSdtmMd/CDISC/V3#M-CDISC_SDTMMODELEVENTS_xxSTDTC_CR1> 			<http://www.assero.co.uk/BusinessOperational#optional> 			"false" . 
<http://www.assero.co.uk/MDRSdtmMd/CDISC/V3#M-CDISC_SDTMMODELEVENTS_xxSTDTC_CR1> 			<http://www.assero.co.uk/BusinessOperational#local_label> 			"" . 
<http://www.assero.co.uk/MDRSdtmMd/CDISC/V3#M-CDISC_SDTMMODELEVENTS_xxSTDTC_CR1> 			<http://www.assero.co.uk/BusinessOperational#enabled> 			"true" . 
<http://www.assero.co.uk/MDRSdtmMd/CDISC/V3#M-CDISC_SDTMMODELEVENTS_xxSTDTC_CR1> 			<http://www.assero.co.uk/BusinessOperational#ordinal> 			"1" . 
<http://www.assero.co.uk/MDRSdtmMd/CDISC/V3#M-CDISC_SDTMMODELEVENTS_xxSTDTC_CR1> 			<http://www.assero.co.uk/BusinessOperational#hasColumn> 			<http://www.assero.co.uk/MDRSdtmM/CDISC/V3#M-CDISC_SDTMMODEL_xxSTDTC> . 
<http://www.assero.co.uk/MDRSdtmMd/CDISC/V3#M-CDISC_SDTMMODELEVENTS_xxPTCD> 			<http://www.w3.org/2000/01/rdf-schema#label> 			"Preferred Term Code" . 
<http://www.assero.co.uk/MDRSdtmMd/CDISC/V3#M-CDISC_SDTMMODELEVENTS_xxPTCD> 			<http://www.w3.org/1999/02/22-rdf-syntax-ns#type> 			<http://www.assero.co.uk/BusinessDomain#ClassVariable> . 
<http://www.assero.co.uk/MDRSdtmMd/CDISC/V3#M-CDISC_SDTMMODELEVENTS_xxPTCD> 			<http://www.assero.co.uk/BusinessDomain#ordinal> 			"17" . 
<http://www.assero.co.uk/MDRSdtmMd/CDISC/V3#M-CDISC_SDTMMODELEVENTS_xxPTCD> 			<http://www.assero.co.uk/BusinessDomain#name> 			"--PTCD" . 
<http://www.assero.co.uk/MDRSdtmMd/CDISC/V3#M-CDISC_SDTMMODELEVENTS_xxPTCD> 			<http://www.assero.co.uk/BusinessDomain#rule> 			"" . 
<http://www.assero.co.uk/MDRSdtmMd/CDISC/V3#M-CDISC_SDTMMODELEVENTS_xxPTCD> 			<http://www.assero.co.uk/BusinessDomain#basedOnVariable> 			<http://www.assero.co.uk/MDRSdtmMd/CDISC/V3#M-CDISC_SDTMMODELEVENTS_xxPTCD_CR1> . 
<http://www.assero.co.uk/MDRSdtmMd/CDISC/V3#M-CDISC_SDTMMODELEVENTS_xxPTCD_CR1> 			<http://www.w3.org/2000/01/rdf-schema#label> 			"Based on Variable Reference" . 
<http://www.assero.co.uk/MDRSdtmMd/CDISC/V3#M-CDISC_SDTMMODELEVENTS_xxPTCD_CR1> 			<http://www.w3.org/1999/02/22-rdf-syntax-ns#type> 			<http://www.assero.co.uk/BusinessOperational#CReference> . 
<http://www.assero.co.uk/MDRSdtmMd/CDISC/V3#M-CDISC_SDTMMODELEVENTS_xxPTCD_CR1> 			<http://www.assero.co.uk/BusinessOperational#optional> 			"false" . 
<http://www.assero.co.uk/MDRSdtmMd/CDISC/V3#M-CDISC_SDTMMODELEVENTS_xxPTCD_CR1> 			<http://www.assero.co.uk/BusinessOperational#local_label> 			"" . 
<http://www.assero.co.uk/MDRSdtmMd/CDISC/V3#M-CDISC_SDTMMODELEVENTS_xxPTCD_CR1> 			<http://www.assero.co.uk/BusinessOperational#enabled> 			"true" . 
<http://www.assero.co.uk/MDRSdtmMd/CDISC/V3#M-CDISC_SDTMMODELEVENTS_xxPTCD_CR1> 			<http://www.assero.co.uk/BusinessOperational#ordinal> 			"1" . 
<http://www.assero.co.uk/MDRSdtmMd/CDISC/V3#M-CDISC_SDTMMODELEVENTS_xxPTCD_CR1> 			<http://www.assero.co.uk/BusinessOperational#hasColumn> 			<http://www.assero.co.uk/MDRSdtmM/CDISC/V3#M-CDISC_SDTMMODEL_xxPTCD> . 
<http://www.assero.co.uk/MDRSdtmMd/CDISC/V3#M-CDISC_SDTMMODELEVENTS_xxPORTOT> 			<http://www.w3.org/2000/01/rdf-schema#label> 			"Portion or Totality" . 
<http://www.assero.co.uk/MDRSdtmMd/CDISC/V3#M-CDISC_SDTMMODELEVENTS_xxPORTOT> 			<http://www.w3.org/1999/02/22-rdf-syntax-ns#type> 			<http://www.assero.co.uk/BusinessDomain#ClassVariable> . 
<http://www.assero.co.uk/MDRSdtmMd/CDISC/V3#M-CDISC_SDTMMODELEVENTS_xxPORTOT> 			<http://www.assero.co.uk/BusinessDomain#ordinal> 			"35" . 
<http://www.assero.co.uk/MDRSdtmMd/CDISC/V3#M-CDISC_SDTMMODELEVENTS_xxPORTOT> 			<http://www.assero.co.uk/BusinessDomain#name> 			"--PORTOT" . 
<http://www.assero.co.uk/MDRSdtmMd/CDISC/V3#M-CDISC_SDTMMODELEVENTS_xxPORTOT> 			<http://www.assero.co.uk/BusinessDomain#rule> 			"" . 
<http://www.assero.co.uk/MDRSdtmMd/CDISC/V3#M-CDISC_SDTMMODELEVENTS_xxPORTOT> 			<http://www.assero.co.uk/BusinessDomain#basedOnVariable> 			<http://www.assero.co.uk/MDRSdtmMd/CDISC/V3#M-CDISC_SDTMMODELEVENTS_xxPORTOT_CR1> . 
<http://www.assero.co.uk/MDRSdtmMd/CDISC/V3#M-CDISC_SDTMMODELEVENTS_xxPORTOT_CR1> 			<http://www.w3.org/2000/01/rdf-schema#label> 			"Based on Variable Reference" . 
<http://www.assero.co.uk/MDRSdtmMd/CDISC/V3#M-CDISC_SDTMMODELEVENTS_xxPORTOT_CR1> 			<http://www.w3.org/1999/02/22-rdf-syntax-ns#type> 			<http://www.assero.co.uk/BusinessOperational#CReference> . 
<http://www.assero.co.uk/MDRSdtmMd/CDISC/V3#M-CDISC_SDTMMODELEVENTS_xxPORTOT_CR1> 			<http://www.assero.co.uk/BusinessOperational#optional> 			"false" . 
<http://www.assero.co.uk/MDRSdtmMd/CDISC/V3#M-CDISC_SDTMMODELEVENTS_xxPORTOT_CR1> 			<http://www.assero.co.uk/BusinessOperational#local_label> 			"" . 
<http://www.assero.co.uk/MDRSdtmMd/CDISC/V3#M-CDISC_SDTMMODELEVENTS_xxPORTOT_CR1> 			<http://www.assero.co.uk/BusinessOperational#enabled> 			"true" . 
<http://www.assero.co.uk/MDRSdtmMd/CDISC/V3#M-CDISC_SDTMMODELEVENTS_xxPORTOT_CR1> 			<http://www.assero.co.uk/BusinessOperational#ordinal> 			"1" . 
<http://www.assero.co.uk/MDRSdtmMd/CDISC/V3#M-CDISC_SDTMMODELEVENTS_xxPORTOT_CR1> 			<http://www.assero.co.uk/BusinessOperational#hasColumn> 			<http://www.assero.co.uk/MDRSdtmM/CDISC/V3#M-CDISC_SDTMMODEL_xxPORTOT> . 
<http://www.assero.co.uk/MDRSdtmMd/CDISC/V3#M-CDISC_SDTMMODELEVENTS_xxENINT> 			<http://www.w3.org/2000/01/rdf-schema#label> 			"Planned End of Assessment Interval" . 
<http://www.assero.co.uk/MDRSdtmMd/CDISC/V3#M-CDISC_SDTMMODELEVENTS_xxENINT> 			<http://www.w3.org/1999/02/22-rdf-syntax-ns#type> 			<http://www.assero.co.uk/BusinessDomain#ClassVariable> . 
<http://www.assero.co.uk/MDRSdtmMd/CDISC/V3#M-CDISC_SDTMMODELEVENTS_xxENINT> 			<http://www.assero.co.uk/BusinessDomain#ordinal> 			"84" . 
<http://www.assero.co.uk/MDRSdtmMd/CDISC/V3#M-CDISC_SDTMMODELEVENTS_xxENINT> 			<http://www.assero.co.uk/BusinessDomain#name> 			"--ENINT" . 
<http://www.assero.co.uk/MDRSdtmMd/CDISC/V3#M-CDISC_SDTMMODELEVENTS_xxENINT> 			<http://www.assero.co.uk/BusinessDomain#rule> 			"" . 
<http://www.assero.co.uk/MDRSdtmMd/CDISC/V3#M-CDISC_SDTMMODELEVENTS_xxENINT> 			<http://www.assero.co.uk/BusinessDomain#basedOnVariable> 			<http://www.assero.co.uk/MDRSdtmMd/CDISC/V3#M-CDISC_SDTMMODELEVENTS_xxENINT_CR1> . 
<http://www.assero.co.uk/MDRSdtmMd/CDISC/V3#M-CDISC_SDTMMODELEVENTS_xxENINT_CR1> 			<http://www.w3.org/2000/01/rdf-schema#label> 			"Based on Variable Reference" . 
<http://www.assero.co.uk/MDRSdtmMd/CDISC/V3#M-CDISC_SDTMMODELEVENTS_xxENINT_CR1> 			<http://www.w3.org/1999/02/22-rdf-syntax-ns#type> 			<http://www.assero.co.uk/BusinessOperational#CReference> . 
<http://www.assero.co.uk/MDRSdtmMd/CDISC/V3#M-CDISC_SDTMMODELEVENTS_xxENINT_CR1> 			<http://www.assero.co.uk/BusinessOperational#optional> 			"false" . 
<http://www.assero.co.uk/MDRSdtmMd/CDISC/V3#M-CDISC_SDTMMODELEVENTS_xxENINT_CR1> 			<http://www.assero.co.uk/BusinessOperational#local_label> 			"" . 
<http://www.assero.co.uk/MDRSdtmMd/CDISC/V3#M-CDISC_SDTMMODELEVENTS_xxENINT_CR1> 			<http://www.assero.co.uk/BusinessOperational#enabled> 			"true" . 
<http://www.assero.co.uk/MDRSdtmMd/CDISC/V3#M-CDISC_SDTMMODELEVENTS_xxENINT_CR1> 			<http://www.assero.co.uk/BusinessOperational#ordinal> 			"1" . 
<http://www.assero.co.uk/MDRSdtmMd/CDISC/V3#M-CDISC_SDTMMODELEVENTS_xxENINT_CR1> 			<http://www.assero.co.uk/BusinessOperational#hasColumn> 			<http://www.assero.co.uk/MDRSdtmM/CDISC/V3#M-CDISC_SDTMMODEL_xxENINT> . 
<http://www.assero.co.uk/MDRSdtmMd/CDISC/V3#M-CDISC_SDTMMODELEVENTS_xxLLTCD> 			<http://www.w3.org/2000/01/rdf-schema#label> 			"Lowest Level Term Code" . 
<http://www.assero.co.uk/MDRSdtmMd/CDISC/V3#M-CDISC_SDTMMODELEVENTS_xxLLTCD> 			<http://www.w3.org/1999/02/22-rdf-syntax-ns#type> 			<http://www.assero.co.uk/BusinessDomain#ClassVariable> . 
<http://www.assero.co.uk/MDRSdtmMd/CDISC/V3#M-CDISC_SDTMMODELEVENTS_xxLLTCD> 			<http://www.assero.co.uk/BusinessDomain#ordinal> 			"15" . 
<http://www.assero.co.uk/MDRSdtmMd/CDISC/V3#M-CDISC_SDTMMODELEVENTS_xxLLTCD> 			<http://www.assero.co.uk/BusinessDomain#name> 			"--LLTCD" . 
<http://www.assero.co.uk/MDRSdtmMd/CDISC/V3#M-CDISC_SDTMMODELEVENTS_xxLLTCD> 			<http://www.assero.co.uk/BusinessDomain#rule> 			"" . 
<http://www.assero.co.uk/MDRSdtmMd/CDISC/V3#M-CDISC_SDTMMODELEVENTS_xxLLTCD> 			<http://www.assero.co.uk/BusinessDomain#basedOnVariable> 			<http://www.assero.co.uk/MDRSdtmMd/CDISC/V3#M-CDISC_SDTMMODELEVENTS_xxLLTCD_CR1> . 
<http://www.assero.co.uk/MDRSdtmMd/CDISC/V3#M-CDISC_SDTMMODELEVENTS_xxLLTCD_CR1> 			<http://www.w3.org/2000/01/rdf-schema#label> 			"Based on Variable Reference" . 
<http://www.assero.co.uk/MDRSdtmMd/CDISC/V3#M-CDISC_SDTMMODELEVENTS_xxLLTCD_CR1> 			<http://www.w3.org/1999/02/22-rdf-syntax-ns#type> 			<http://www.assero.co.uk/BusinessOperational#CReference> . 
<http://www.assero.co.uk/MDRSdtmMd/CDISC/V3#M-CDISC_SDTMMODELEVENTS_xxLLTCD_CR1> 			<http://www.assero.co.uk/BusinessOperational#optional> 			"false" . 
<http://www.assero.co.uk/MDRSdtmMd/CDISC/V3#M-CDISC_SDTMMODELEVENTS_xxLLTCD_CR1> 			<http://www.assero.co.uk/BusinessOperational#local_label> 			"" . 
<http://www.assero.co.uk/MDRSdtmMd/CDISC/V3#M-CDISC_SDTMMODELEVENTS_xxLLTCD_CR1> 			<http://www.assero.co.uk/BusinessOperational#enabled> 			"true" . 
<http://www.assero.co.uk/MDRSdtmMd/CDISC/V3#M-CDISC_SDTMMODELEVENTS_xxLLTCD_CR1> 			<http://www.assero.co.uk/BusinessOperational#ordinal> 			"1" . 
<http://www.assero.co.uk/MDRSdtmMd/CDISC/V3#M-CDISC_SDTMMODELEVENTS_xxLLTCD_CR1> 			<http://www.assero.co.uk/BusinessOperational#hasColumn> 			<http://www.assero.co.uk/MDRSdtmM/CDISC/V3#M-CDISC_SDTMMODEL_xxLLTCD> . 
<http://www.assero.co.uk/MDRSdtmMd/CDISC/V3#M-CDISC_SDTMMODELEVENTS_xxSCAN> 			<http://www.w3.org/2000/01/rdf-schema#label> 			"Involves Cancer" . 
<http://www.assero.co.uk/MDRSdtmMd/CDISC/V3#M-CDISC_SDTMMODELEVENTS_xxSCAN> 			<http://www.w3.org/1999/02/22-rdf-syntax-ns#type> 			<http://www.assero.co.uk/BusinessDomain#ClassVariable> . 
<http://www.assero.co.uk/MDRSdtmMd/CDISC/V3#M-CDISC_SDTMMODELEVENTS_xxSCAN> 			<http://www.assero.co.uk/BusinessDomain#ordinal> 			"47" . 
<http://www.assero.co.uk/MDRSdtmMd/CDISC/V3#M-CDISC_SDTMMODELEVENTS_xxSCAN> 			<http://www.assero.co.uk/BusinessDomain#name> 			"--SCAN" . 
<http://www.assero.co.uk/MDRSdtmMd/CDISC/V3#M-CDISC_SDTMMODELEVENTS_xxSCAN> 			<http://www.assero.co.uk/BusinessDomain#rule> 			"" . 
<http://www.assero.co.uk/MDRSdtmMd/CDISC/V3#M-CDISC_SDTMMODELEVENTS_xxSCAN> 			<http://www.assero.co.uk/BusinessDomain#basedOnVariable> 			<http://www.assero.co.uk/MDRSdtmMd/CDISC/V3#M-CDISC_SDTMMODELEVENTS_xxSCAN_CR1> . 
<http://www.assero.co.uk/MDRSdtmMd/CDISC/V3#M-CDISC_SDTMMODELEVENTS_xxSCAN_CR1> 			<http://www.w3.org/2000/01/rdf-schema#label> 			"Based on Variable Reference" . 
<http://www.assero.co.uk/MDRSdtmMd/CDISC/V3#M-CDISC_SDTMMODELEVENTS_xxSCAN_CR1> 			<http://www.w3.org/1999/02/22-rdf-syntax-ns#type> 			<http://www.assero.co.uk/BusinessOperational#CReference> . 
<http://www.assero.co.uk/MDRSdtmMd/CDISC/V3#M-CDISC_SDTMMODELEVENTS_xxSCAN_CR1> 			<http://www.assero.co.uk/BusinessOperational#optional> 			"false" . 
<http://www.assero.co.uk/MDRSdtmMd/CDISC/V3#M-CDISC_SDTMMODELEVENTS_xxSCAN_CR1> 			<http://www.assero.co.uk/BusinessOperational#local_label> 			"" . 
<http://www.assero.co.uk/MDRSdtmMd/CDISC/V3#M-CDISC_SDTMMODELEVENTS_xxSCAN_CR1> 			<http://www.assero.co.uk/BusinessOperational#enabled> 			"true" . 
<http://www.assero.co.uk/MDRSdtmMd/CDISC/V3#M-CDISC_SDTMMODELEVENTS_xxSCAN_CR1> 			<http://www.assero.co.uk/BusinessOperational#ordinal> 			"1" . 
<http://www.assero.co.uk/MDRSdtmMd/CDISC/V3#M-CDISC_SDTMMODELEVENTS_xxSCAN_CR1> 			<http://www.assero.co.uk/BusinessOperational#hasColumn> 			<http://www.assero.co.uk/MDRSdtmM/CDISC/V3#M-CDISC_SDTMMODEL_xxSCAN> . 
<http://www.assero.co.uk/MDRSdtmMd/CDISC/V3#M-CDISC_SDTMMODELEVENTS_xxTERM> 			<http://www.w3.org/2000/01/rdf-schema#label> 			"Reported Term" . 
<http://www.assero.co.uk/MDRSdtmMd/CDISC/V3#M-CDISC_SDTMMODELEVENTS_xxTERM> 			<http://www.w3.org/1999/02/22-rdf-syntax-ns#type> 			<http://www.assero.co.uk/BusinessDomain#ClassVariable> . 
<http://www.assero.co.uk/MDRSdtmMd/CDISC/V3#M-CDISC_SDTMMODELEVENTS_xxTERM> 			<http://www.assero.co.uk/BusinessDomain#ordinal> 			"12" . 
<http://www.assero.co.uk/MDRSdtmMd/CDISC/V3#M-CDISC_SDTMMODELEVENTS_xxTERM> 			<http://www.assero.co.uk/BusinessDomain#name> 			"--TERM" . 
<http://www.assero.co.uk/MDRSdtmMd/CDISC/V3#M-CDISC_SDTMMODELEVENTS_xxTERM> 			<http://www.assero.co.uk/BusinessDomain#rule> 			"" . 
<http://www.assero.co.uk/MDRSdtmMd/CDISC/V3#M-CDISC_SDTMMODELEVENTS_xxTERM> 			<http://www.assero.co.uk/BusinessDomain#basedOnVariable> 			<http://www.assero.co.uk/MDRSdtmMd/CDISC/V3#M-CDISC_SDTMMODELEVENTS_xxTERM_CR1> . 
<http://www.assero.co.uk/MDRSdtmMd/CDISC/V3#M-CDISC_SDTMMODELEVENTS_xxTERM_CR1> 			<http://www.w3.org/2000/01/rdf-schema#label> 			"Based on Variable Reference" . 
<http://www.assero.co.uk/MDRSdtmMd/CDISC/V3#M-CDISC_SDTMMODELEVENTS_xxTERM_CR1> 			<http://www.w3.org/1999/02/22-rdf-syntax-ns#type> 			<http://www.assero.co.uk/BusinessOperational#CReference> . 
<http://www.assero.co.uk/MDRSdtmMd/CDISC/V3#M-CDISC_SDTMMODELEVENTS_xxTERM_CR1> 			<http://www.assero.co.uk/BusinessOperational#optional> 			"false" . 
<http://www.assero.co.uk/MDRSdtmMd/CDISC/V3#M-CDISC_SDTMMODELEVENTS_xxTERM_CR1> 			<http://www.assero.co.uk/BusinessOperational#local_label> 			"" . 
<http://www.assero.co.uk/MDRSdtmMd/CDISC/V3#M-CDISC_SDTMMODELEVENTS_xxTERM_CR1> 			<http://www.assero.co.uk/BusinessOperational#enabled> 			"true" . 
<http://www.assero.co.uk/MDRSdtmMd/CDISC/V3#M-CDISC_SDTMMODELEVENTS_xxTERM_CR1> 			<http://www.assero.co.uk/BusinessOperational#ordinal> 			"1" . 
<http://www.assero.co.uk/MDRSdtmMd/CDISC/V3#M-CDISC_SDTMMODELEVENTS_xxTERM_CR1> 			<http://www.assero.co.uk/BusinessOperational#hasColumn> 			<http://www.assero.co.uk/MDRSdtmM/CDISC/V3#M-CDISC_SDTMMODEL_xxTERM> . 
<http://www.assero.co.uk/MDRSdtmMd/CDISC/V3#M-CDISC_SDTMMODELEVENTS_xxSOD> 			<http://www.w3.org/2000/01/rdf-schema#label> 			"Occurred with Overdose" . 
<http://www.assero.co.uk/MDRSdtmMd/CDISC/V3#M-CDISC_SDTMMODELEVENTS_xxSOD> 			<http://www.w3.org/1999/02/22-rdf-syntax-ns#type> 			<http://www.assero.co.uk/BusinessDomain#ClassVariable> . 
<http://www.assero.co.uk/MDRSdtmMd/CDISC/V3#M-CDISC_SDTMMODELEVENTS_xxSOD> 			<http://www.assero.co.uk/BusinessDomain#ordinal> 			"53" . 
<http://www.assero.co.uk/MDRSdtmMd/CDISC/V3#M-CDISC_SDTMMODELEVENTS_xxSOD> 			<http://www.assero.co.uk/BusinessDomain#name> 			"--SOD" . 
<http://www.assero.co.uk/MDRSdtmMd/CDISC/V3#M-CDISC_SDTMMODELEVENTS_xxSOD> 			<http://www.assero.co.uk/BusinessDomain#rule> 			"" . 
<http://www.assero.co.uk/MDRSdtmMd/CDISC/V3#M-CDISC_SDTMMODELEVENTS_xxSOD> 			<http://www.assero.co.uk/BusinessDomain#basedOnVariable> 			<http://www.assero.co.uk/MDRSdtmMd/CDISC/V3#M-CDISC_SDTMMODELEVENTS_xxSOD_CR1> . 
<http://www.assero.co.uk/MDRSdtmMd/CDISC/V3#M-CDISC_SDTMMODELEVENTS_xxSOD_CR1> 			<http://www.w3.org/2000/01/rdf-schema#label> 			"Based on Variable Reference" . 
<http://www.assero.co.uk/MDRSdtmMd/CDISC/V3#M-CDISC_SDTMMODELEVENTS_xxSOD_CR1> 			<http://www.w3.org/1999/02/22-rdf-syntax-ns#type> 			<http://www.assero.co.uk/BusinessOperational#CReference> . 
<http://www.assero.co.uk/MDRSdtmMd/CDISC/V3#M-CDISC_SDTMMODELEVENTS_xxSOD_CR1> 			<http://www.assero.co.uk/BusinessOperational#optional> 			"false" . 
<http://www.assero.co.uk/MDRSdtmMd/CDISC/V3#M-CDISC_SDTMMODELEVENTS_xxSOD_CR1> 			<http://www.assero.co.uk/BusinessOperational#local_label> 			"" . 
<http://www.assero.co.uk/MDRSdtmMd/CDISC/V3#M-CDISC_SDTMMODELEVENTS_xxSOD_CR1> 			<http://www.assero.co.uk/BusinessOperational#enabled> 			"true" . 
<http://www.assero.co.uk/MDRSdtmMd/CDISC/V3#M-CDISC_SDTMMODELEVENTS_xxSOD_CR1> 			<http://www.assero.co.uk/BusinessOperational#ordinal> 			"1" . 
<http://www.assero.co.uk/MDRSdtmMd/CDISC/V3#M-CDISC_SDTMMODELEVENTS_xxSOD_CR1> 			<http://www.assero.co.uk/BusinessOperational#hasColumn> 			<http://www.assero.co.uk/MDRSdtmM/CDISC/V3#M-CDISC_SDTMMODEL_xxSOD> . 
<http://www.assero.co.uk/MDRSdtmMd/CDISC/V3#M-CDISC_SDTMMODELEVENTS_xxLOC> 			<http://www.w3.org/2000/01/rdf-schema#label> 			"Location of Event" . 
<http://www.assero.co.uk/MDRSdtmMd/CDISC/V3#M-CDISC_SDTMMODELEVENTS_xxLOC> 			<http://www.w3.org/1999/02/22-rdf-syntax-ns#type> 			<http://www.assero.co.uk/BusinessDomain#ClassVariable> . 
<http://www.assero.co.uk/MDRSdtmMd/CDISC/V3#M-CDISC_SDTMMODELEVENTS_xxLOC> 			<http://www.assero.co.uk/BusinessDomain#ordinal> 			"32" . 
<http://www.assero.co.uk/MDRSdtmMd/CDISC/V3#M-CDISC_SDTMMODELEVENTS_xxLOC> 			<http://www.assero.co.uk/BusinessDomain#name> 			"--LOC" . 
<http://www.assero.co.uk/MDRSdtmMd/CDISC/V3#M-CDISC_SDTMMODELEVENTS_xxLOC> 			<http://www.assero.co.uk/BusinessDomain#rule> 			"" . 
<http://www.assero.co.uk/MDRSdtmMd/CDISC/V3#M-CDISC_SDTMMODELEVENTS_xxLOC> 			<http://www.assero.co.uk/BusinessDomain#basedOnVariable> 			<http://www.assero.co.uk/MDRSdtmMd/CDISC/V3#M-CDISC_SDTMMODELEVENTS_xxLOC_CR1> . 
<http://www.assero.co.uk/MDRSdtmMd/CDISC/V3#M-CDISC_SDTMMODELEVENTS_xxLOC_CR1> 			<http://www.w3.org/2000/01/rdf-schema#label> 			"Based on Variable Reference" . 
<http://www.assero.co.uk/MDRSdtmMd/CDISC/V3#M-CDISC_SDTMMODELEVENTS_xxLOC_CR1> 			<http://www.w3.org/1999/02/22-rdf-syntax-ns#type> 			<http://www.assero.co.uk/BusinessOperational#CReference> . 
<http://www.assero.co.uk/MDRSdtmMd/CDISC/V3#M-CDISC_SDTMMODELEVENTS_xxLOC_CR1> 			<http://www.assero.co.uk/BusinessOperational#optional> 			"false" . 
<http://www.assero.co.uk/MDRSdtmMd/CDISC/V3#M-CDISC_SDTMMODELEVENTS_xxLOC_CR1> 			<http://www.assero.co.uk/BusinessOperational#local_label> 			"" . 
<http://www.assero.co.uk/MDRSdtmMd/CDISC/V3#M-CDISC_SDTMMODELEVENTS_xxLOC_CR1> 			<http://www.assero.co.uk/BusinessOperational#enabled> 			"true" . 
<http://www.assero.co.uk/MDRSdtmMd/CDISC/V3#M-CDISC_SDTMMODELEVENTS_xxLOC_CR1> 			<http://www.assero.co.uk/BusinessOperational#ordinal> 			"1" . 
<http://www.assero.co.uk/MDRSdtmMd/CDISC/V3#M-CDISC_SDTMMODELEVENTS_xxLOC_CR1> 			<http://www.assero.co.uk/BusinessOperational#hasColumn> 			<http://www.assero.co.uk/MDRSdtmM/CDISC/V3#M-CDISC_SDTMMODEL_xxLOC> . 
<http://www.assero.co.uk/MDRSdtmMd/CDISC/V3#M-CDISC_SDTMMODELEVENTS_xxSTDY> 			<http://www.w3.org/2000/01/rdf-schema#label> 			"Study Day of Start of Observation" . 
<http://www.assero.co.uk/MDRSdtmMd/CDISC/V3#M-CDISC_SDTMMODELEVENTS_xxSTDY> 			<http://www.w3.org/1999/02/22-rdf-syntax-ns#type> 			<http://www.assero.co.uk/BusinessDomain#ClassVariable> . 
<http://www.assero.co.uk/MDRSdtmMd/CDISC/V3#M-CDISC_SDTMMODELEVENTS_xxSTDY> 			<http://www.assero.co.uk/BusinessDomain#ordinal> 			"67" . 
<http://www.assero.co.uk/MDRSdtmMd/CDISC/V3#M-CDISC_SDTMMODELEVENTS_xxSTDY> 			<http://www.assero.co.uk/BusinessDomain#name> 			"--STDY" . 
<http://www.assero.co.uk/MDRSdtmMd/CDISC/V3#M-CDISC_SDTMMODELEVENTS_xxSTDY> 			<http://www.assero.co.uk/BusinessDomain#rule> 			"" . 
<http://www.assero.co.uk/MDRSdtmMd/CDISC/V3#M-CDISC_SDTMMODELEVENTS_xxSTDY> 			<http://www.assero.co.uk/BusinessDomain#basedOnVariable> 			<http://www.assero.co.uk/MDRSdtmMd/CDISC/V3#M-CDISC_SDTMMODELEVENTS_xxSTDY_CR1> . 
<http://www.assero.co.uk/MDRSdtmMd/CDISC/V3#M-CDISC_SDTMMODELEVENTS_xxSTDY_CR1> 			<http://www.w3.org/2000/01/rdf-schema#label> 			"Based on Variable Reference" . 
<http://www.assero.co.uk/MDRSdtmMd/CDISC/V3#M-CDISC_SDTMMODELEVENTS_xxSTDY_CR1> 			<http://www.w3.org/1999/02/22-rdf-syntax-ns#type> 			<http://www.assero.co.uk/BusinessOperational#CReference> . 
<http://www.assero.co.uk/MDRSdtmMd/CDISC/V3#M-CDISC_SDTMMODELEVENTS_xxSTDY_CR1> 			<http://www.assero.co.uk/BusinessOperational#optional> 			"false" . 
<http://www.assero.co.uk/MDRSdtmMd/CDISC/V3#M-CDISC_SDTMMODELEVENTS_xxSTDY_CR1> 			<http://www.assero.co.uk/BusinessOperational#local_label> 			"" . 
<http://www.assero.co.uk/MDRSdtmMd/CDISC/V3#M-CDISC_SDTMMODELEVENTS_xxSTDY_CR1> 			<http://www.assero.co.uk/BusinessOperational#enabled> 			"true" . 
<http://www.assero.co.uk/MDRSdtmMd/CDISC/V3#M-CDISC_SDTMMODELEVENTS_xxSTDY_CR1> 			<http://www.assero.co.uk/BusinessOperational#ordinal> 			"1" . 
<http://www.assero.co.uk/MDRSdtmMd/CDISC/V3#M-CDISC_SDTMMODELEVENTS_xxSTDY_CR1> 			<http://www.assero.co.uk/BusinessOperational#hasColumn> 			<http://www.assero.co.uk/MDRSdtmM/CDISC/V3#M-CDISC_SDTMMODEL_xxSTDY> . 
<http://www.assero.co.uk/MDRSdtmMd/CDISC/V3#M-CDISC_SDTMMODELEVENTS_xxREL> 			<http://www.w3.org/2000/01/rdf-schema#label> 			"Causality" . 
<http://www.assero.co.uk/MDRSdtmMd/CDISC/V3#M-CDISC_SDTMMODELEVENTS_xxREL> 			<http://www.w3.org/1999/02/22-rdf-syntax-ns#type> 			<http://www.assero.co.uk/BusinessDomain#ClassVariable> . 
<http://www.assero.co.uk/MDRSdtmMd/CDISC/V3#M-CDISC_SDTMMODELEVENTS_xxREL> 			<http://www.assero.co.uk/BusinessDomain#ordinal> 			"43" . 
<http://www.assero.co.uk/MDRSdtmMd/CDISC/V3#M-CDISC_SDTMMODELEVENTS_xxREL> 			<http://www.assero.co.uk/BusinessDomain#name> 			"--REL" . 
<http://www.assero.co.uk/MDRSdtmMd/CDISC/V3#M-CDISC_SDTMMODELEVENTS_xxREL> 			<http://www.assero.co.uk/BusinessDomain#rule> 			"" . 
<http://www.assero.co.uk/MDRSdtmMd/CDISC/V3#M-CDISC_SDTMMODELEVENTS_xxREL> 			<http://www.assero.co.uk/BusinessDomain#basedOnVariable> 			<http://www.assero.co.uk/MDRSdtmMd/CDISC/V3#M-CDISC_SDTMMODELEVENTS_xxREL_CR1> . 
<http://www.assero.co.uk/MDRSdtmMd/CDISC/V3#M-CDISC_SDTMMODELEVENTS_xxREL_CR1> 			<http://www.w3.org/2000/01/rdf-schema#label> 			"Based on Variable Reference" . 
<http://www.assero.co.uk/MDRSdtmMd/CDISC/V3#M-CDISC_SDTMMODELEVENTS_xxREL_CR1> 			<http://www.w3.org/1999/02/22-rdf-syntax-ns#type> 			<http://www.assero.co.uk/BusinessOperational#CReference> . 
<http://www.assero.co.uk/MDRSdtmMd/CDISC/V3#M-CDISC_SDTMMODELEVENTS_xxREL_CR1> 			<http://www.assero.co.uk/BusinessOperational#optional> 			"false" . 
<http://www.assero.co.uk/MDRSdtmMd/CDISC/V3#M-CDISC_SDTMMODELEVENTS_xxREL_CR1> 			<http://www.assero.co.uk/BusinessOperational#local_label> 			"" . 
<http://www.assero.co.uk/MDRSdtmMd/CDISC/V3#M-CDISC_SDTMMODELEVENTS_xxREL_CR1> 			<http://www.assero.co.uk/BusinessOperational#enabled> 			"true" . 
<http://www.assero.co.uk/MDRSdtmMd/CDISC/V3#M-CDISC_SDTMMODELEVENTS_xxREL_CR1> 			<http://www.assero.co.uk/BusinessOperational#ordinal> 			"1" . 
<http://www.assero.co.uk/MDRSdtmMd/CDISC/V3#M-CDISC_SDTMMODELEVENTS_xxREL_CR1> 			<http://www.assero.co.uk/BusinessOperational#hasColumn> 			<http://www.assero.co.uk/MDRSdtmM/CDISC/V3#M-CDISC_SDTMMODEL_xxREL> . 
<http://www.assero.co.uk/MDRSdtmMd/CDISC/V3#M-CDISC_SDTMMODELEVENTS_xxEVINTX> 			<http://www.w3.org/2000/01/rdf-schema#label> 			"Evaluation Interval Text" . 
<http://www.assero.co.uk/MDRSdtmMd/CDISC/V3#M-CDISC_SDTMMODELEVENTS_xxEVINTX> 			<http://www.w3.org/1999/02/22-rdf-syntax-ns#type> 			<http://www.assero.co.uk/BusinessDomain#ClassVariable> . 
<http://www.assero.co.uk/MDRSdtmMd/CDISC/V3#M-CDISC_SDTMMODELEVENTS_xxEVINTX> 			<http://www.assero.co.uk/BusinessDomain#ordinal> 			"78" . 
<http://www.assero.co.uk/MDRSdtmMd/CDISC/V3#M-CDISC_SDTMMODELEVENTS_xxEVINTX> 			<http://www.assero.co.uk/BusinessDomain#name> 			"--EVINTX" . 
<http://www.assero.co.uk/MDRSdtmMd/CDISC/V3#M-CDISC_SDTMMODELEVENTS_xxEVINTX> 			<http://www.assero.co.uk/BusinessDomain#rule> 			"" . 
<http://www.assero.co.uk/MDRSdtmMd/CDISC/V3#M-CDISC_SDTMMODELEVENTS_xxEVINTX> 			<http://www.assero.co.uk/BusinessDomain#basedOnVariable> 			<http://www.assero.co.uk/MDRSdtmMd/CDISC/V3#M-CDISC_SDTMMODELEVENTS_xxEVINTX_CR1> . 
<http://www.assero.co.uk/MDRSdtmMd/CDISC/V3#M-CDISC_SDTMMODELEVENTS_xxEVINTX_CR1> 			<http://www.w3.org/2000/01/rdf-schema#label> 			"Based on Variable Reference" . 
<http://www.assero.co.uk/MDRSdtmMd/CDISC/V3#M-CDISC_SDTMMODELEVENTS_xxEVINTX_CR1> 			<http://www.w3.org/1999/02/22-rdf-syntax-ns#type> 			<http://www.assero.co.uk/BusinessOperational#CReference> . 
<http://www.assero.co.uk/MDRSdtmMd/CDISC/V3#M-CDISC_SDTMMODELEVENTS_xxEVINTX_CR1> 			<http://www.assero.co.uk/BusinessOperational#optional> 			"false" . 
<http://www.assero.co.uk/MDRSdtmMd/CDISC/V3#M-CDISC_SDTMMODELEVENTS_xxEVINTX_CR1> 			<http://www.assero.co.uk/BusinessOperational#local_label> 			"" . 
<http://www.assero.co.uk/MDRSdtmMd/CDISC/V3#M-CDISC_SDTMMODELEVENTS_xxEVINTX_CR1> 			<http://www.assero.co.uk/BusinessOperational#enabled> 			"true" . 
<http://www.assero.co.uk/MDRSdtmMd/CDISC/V3#M-CDISC_SDTMMODELEVENTS_xxEVINTX_CR1> 			<http://www.assero.co.uk/BusinessOperational#ordinal> 			"1" . 
<http://www.assero.co.uk/MDRSdtmMd/CDISC/V3#M-CDISC_SDTMMODELEVENTS_xxEVINTX_CR1> 			<http://www.assero.co.uk/BusinessOperational#hasColumn> 			<http://www.assero.co.uk/MDRSdtmM/CDISC/V3#M-CDISC_SDTMMODEL_xxEVINTX> . 
<http://www.assero.co.uk/MDRSdtmMd/CDISC/V3#M-CDISC_SDTMMODELEVENTS_xxCAT> 			<http://www.w3.org/2000/01/rdf-schema#label> 			"Category" . 
<http://www.assero.co.uk/MDRSdtmMd/CDISC/V3#M-CDISC_SDTMMODELEVENTS_xxCAT> 			<http://www.w3.org/1999/02/22-rdf-syntax-ns#type> 			<http://www.assero.co.uk/BusinessDomain#ClassVariable> . 
<http://www.assero.co.uk/MDRSdtmMd/CDISC/V3#M-CDISC_SDTMMODELEVENTS_xxCAT> 			<http://www.assero.co.uk/BusinessDomain#ordinal> 			"22" . 
<http://www.assero.co.uk/MDRSdtmMd/CDISC/V3#M-CDISC_SDTMMODELEVENTS_xxCAT> 			<http://www.assero.co.uk/BusinessDomain#name> 			"--CAT" . 
<http://www.assero.co.uk/MDRSdtmMd/CDISC/V3#M-CDISC_SDTMMODELEVENTS_xxCAT> 			<http://www.assero.co.uk/BusinessDomain#rule> 			"" . 
<http://www.assero.co.uk/MDRSdtmMd/CDISC/V3#M-CDISC_SDTMMODELEVENTS_xxCAT> 			<http://www.assero.co.uk/BusinessDomain#basedOnVariable> 			<http://www.assero.co.uk/MDRSdtmMd/CDISC/V3#M-CDISC_SDTMMODELEVENTS_xxCAT_CR1> . 
<http://www.assero.co.uk/MDRSdtmMd/CDISC/V3#M-CDISC_SDTMMODELEVENTS_xxCAT_CR1> 			<http://www.w3.org/2000/01/rdf-schema#label> 			"Based on Variable Reference" . 
<http://www.assero.co.uk/MDRSdtmMd/CDISC/V3#M-CDISC_SDTMMODELEVENTS_xxCAT_CR1> 			<http://www.w3.org/1999/02/22-rdf-syntax-ns#type> 			<http://www.assero.co.uk/BusinessOperational#CReference> . 
<http://www.assero.co.uk/MDRSdtmMd/CDISC/V3#M-CDISC_SDTMMODELEVENTS_xxCAT_CR1> 			<http://www.assero.co.uk/BusinessOperational#optional> 			"false" . 
<http://www.assero.co.uk/MDRSdtmMd/CDISC/V3#M-CDISC_SDTMMODELEVENTS_xxCAT_CR1> 			<http://www.assero.co.uk/BusinessOperational#local_label> 			"" . 
<http://www.assero.co.uk/MDRSdtmMd/CDISC/V3#M-CDISC_SDTMMODELEVENTS_xxCAT_CR1> 			<http://www.assero.co.uk/BusinessOperational#enabled> 			"true" . 
<http://www.assero.co.uk/MDRSdtmMd/CDISC/V3#M-CDISC_SDTMMODELEVENTS_xxCAT_CR1> 			<http://www.assero.co.uk/BusinessOperational#ordinal> 			"1" . 
<http://www.assero.co.uk/MDRSdtmMd/CDISC/V3#M-CDISC_SDTMMODELEVENTS_xxCAT_CR1> 			<http://www.assero.co.uk/BusinessOperational#hasColumn> 			<http://www.assero.co.uk/MDRSdtmM/CDISC/V3#M-CDISC_SDTMMODEL_xxCAT> . 
<http://www.assero.co.uk/MDRSdtmMd/CDISC/V3#M-CDISC_SDTMMODELEVENTS_xxSTTPT> 			<http://www.w3.org/2000/01/rdf-schema#label> 			"Start Reference Time Point" . 
<http://www.assero.co.uk/MDRSdtmMd/CDISC/V3#M-CDISC_SDTMMODELEVENTS_xxSTTPT> 			<http://www.w3.org/1999/02/22-rdf-syntax-ns#type> 			<http://www.assero.co.uk/BusinessDomain#ClassVariable> . 
<http://www.assero.co.uk/MDRSdtmMd/CDISC/V3#M-CDISC_SDTMMODELEVENTS_xxSTTPT> 			<http://www.assero.co.uk/BusinessDomain#ordinal> 			"80" . 
<http://www.assero.co.uk/MDRSdtmMd/CDISC/V3#M-CDISC_SDTMMODELEVENTS_xxSTTPT> 			<http://www.assero.co.uk/BusinessDomain#name> 			"--STTPT" . 
<http://www.assero.co.uk/MDRSdtmMd/CDISC/V3#M-CDISC_SDTMMODELEVENTS_xxSTTPT> 			<http://www.assero.co.uk/BusinessDomain#rule> 			"" . 
<http://www.assero.co.uk/MDRSdtmMd/CDISC/V3#M-CDISC_SDTMMODELEVENTS_xxSTTPT> 			<http://www.assero.co.uk/BusinessDomain#basedOnVariable> 			<http://www.assero.co.uk/MDRSdtmMd/CDISC/V3#M-CDISC_SDTMMODELEVENTS_xxSTTPT_CR1> . 
<http://www.assero.co.uk/MDRSdtmMd/CDISC/V3#M-CDISC_SDTMMODELEVENTS_xxSTTPT_CR1> 			<http://www.w3.org/2000/01/rdf-schema#label> 			"Based on Variable Reference" . 
<http://www.assero.co.uk/MDRSdtmMd/CDISC/V3#M-CDISC_SDTMMODELEVENTS_xxSTTPT_CR1> 			<http://www.w3.org/1999/02/22-rdf-syntax-ns#type> 			<http://www.assero.co.uk/BusinessOperational#CReference> . 
<http://www.assero.co.uk/MDRSdtmMd/CDISC/V3#M-CDISC_SDTMMODELEVENTS_xxSTTPT_CR1> 			<http://www.assero.co.uk/BusinessOperational#optional> 			"false" . 
<http://www.assero.co.uk/MDRSdtmMd/CDISC/V3#M-CDISC_SDTMMODELEVENTS_xxSTTPT_CR1> 			<http://www.assero.co.uk/BusinessOperational#local_label> 			"" . 
<http://www.assero.co.uk/MDRSdtmMd/CDISC/V3#M-CDISC_SDTMMODELEVENTS_xxSTTPT_CR1> 			<http://www.assero.co.uk/BusinessOperational#enabled> 			"true" . 
<http://www.assero.co.uk/MDRSdtmMd/CDISC/V3#M-CDISC_SDTMMODELEVENTS_xxSTTPT_CR1> 			<http://www.assero.co.uk/BusinessOperational#ordinal> 			"1" . 
<http://www.assero.co.uk/MDRSdtmMd/CDISC/V3#M-CDISC_SDTMMODELEVENTS_xxSTTPT_CR1> 			<http://www.assero.co.uk/BusinessOperational#hasColumn> 			<http://www.assero.co.uk/MDRSdtmM/CDISC/V3#M-CDISC_SDTMMODEL_xxSTTPT> . 
<http://www.assero.co.uk/MDRSdtmMd/CDISC/V3#M-CDISC_SDTMMODELEVENTS_xxTOXGR> 			<http://www.w3.org/2000/01/rdf-schema#label> 			"Toxicity Grade" . 
<http://www.assero.co.uk/MDRSdtmMd/CDISC/V3#M-CDISC_SDTMMODELEVENTS_xxTOXGR> 			<http://www.w3.org/1999/02/22-rdf-syntax-ns#type> 			<http://www.assero.co.uk/BusinessDomain#ClassVariable> . 
<http://www.assero.co.uk/MDRSdtmMd/CDISC/V3#M-CDISC_SDTMMODELEVENTS_xxTOXGR> 			<http://www.assero.co.uk/BusinessDomain#ordinal> 			"57" . 
<http://www.assero.co.uk/MDRSdtmMd/CDISC/V3#M-CDISC_SDTMMODELEVENTS_xxTOXGR> 			<http://www.assero.co.uk/BusinessDomain#name> 			"--TOXGR" . 
<http://www.assero.co.uk/MDRSdtmMd/CDISC/V3#M-CDISC_SDTMMODELEVENTS_xxTOXGR> 			<http://www.assero.co.uk/BusinessDomain#rule> 			"" . 
<http://www.assero.co.uk/MDRSdtmMd/CDISC/V3#M-CDISC_SDTMMODELEVENTS_xxTOXGR> 			<http://www.assero.co.uk/BusinessDomain#basedOnVariable> 			<http://www.assero.co.uk/MDRSdtmMd/CDISC/V3#M-CDISC_SDTMMODELEVENTS_xxTOXGR_CR1> . 
<http://www.assero.co.uk/MDRSdtmMd/CDISC/V3#M-CDISC_SDTMMODELEVENTS_xxTOXGR_CR1> 			<http://www.w3.org/2000/01/rdf-schema#label> 			"Based on Variable Reference" . 
<http://www.assero.co.uk/MDRSdtmMd/CDISC/V3#M-CDISC_SDTMMODELEVENTS_xxTOXGR_CR1> 			<http://www.w3.org/1999/02/22-rdf-syntax-ns#type> 			<http://www.assero.co.uk/BusinessOperational#CReference> . 
<http://www.assero.co.uk/MDRSdtmMd/CDISC/V3#M-CDISC_SDTMMODELEVENTS_xxTOXGR_CR1> 			<http://www.assero.co.uk/BusinessOperational#optional> 			"false" . 
<http://www.assero.co.uk/MDRSdtmMd/CDISC/V3#M-CDISC_SDTMMODELEVENTS_xxTOXGR_CR1> 			<http://www.assero.co.uk/BusinessOperational#local_label> 			"" . 
<http://www.assero.co.uk/MDRSdtmMd/CDISC/V3#M-CDISC_SDTMMODELEVENTS_xxTOXGR_CR1> 			<http://www.assero.co.uk/BusinessOperational#enabled> 			"true" . 
<http://www.assero.co.uk/MDRSdtmMd/CDISC/V3#M-CDISC_SDTMMODELEVENTS_xxTOXGR_CR1> 			<http://www.assero.co.uk/BusinessOperational#ordinal> 			"1" . 
<http://www.assero.co.uk/MDRSdtmMd/CDISC/V3#M-CDISC_SDTMMODELEVENTS_xxTOXGR_CR1> 			<http://www.assero.co.uk/BusinessOperational#hasColumn> 			<http://www.assero.co.uk/MDRSdtmM/CDISC/V3#M-CDISC_SDTMMODEL_xxTOXGR> . 
<http://www.assero.co.uk/MDRSdtmMd/CDISC/V3#M-CDISC_SDTMMODELEVENTS_xxSEV> 			<http://www.w3.org/2000/01/rdf-schema#label> 			"Severity/Intensity" . 
<http://www.assero.co.uk/MDRSdtmMd/CDISC/V3#M-CDISC_SDTMMODELEVENTS_xxSEV> 			<http://www.w3.org/1999/02/22-rdf-syntax-ns#type> 			<http://www.assero.co.uk/BusinessDomain#ClassVariable> . 
<http://www.assero.co.uk/MDRSdtmMd/CDISC/V3#M-CDISC_SDTMMODELEVENTS_xxSEV> 			<http://www.assero.co.uk/BusinessDomain#ordinal> 			"38" . 
<http://www.assero.co.uk/MDRSdtmMd/CDISC/V3#M-CDISC_SDTMMODELEVENTS_xxSEV> 			<http://www.assero.co.uk/BusinessDomain#name> 			"--SEV" . 
<http://www.assero.co.uk/MDRSdtmMd/CDISC/V3#M-CDISC_SDTMMODELEVENTS_xxSEV> 			<http://www.assero.co.uk/BusinessDomain#rule> 			"" . 
<http://www.assero.co.uk/MDRSdtmMd/CDISC/V3#M-CDISC_SDTMMODELEVENTS_xxSEV> 			<http://www.assero.co.uk/BusinessDomain#basedOnVariable> 			<http://www.assero.co.uk/MDRSdtmMd/CDISC/V3#M-CDISC_SDTMMODELEVENTS_xxSEV_CR1> . 
<http://www.assero.co.uk/MDRSdtmMd/CDISC/V3#M-CDISC_SDTMMODELEVENTS_xxSEV_CR1> 			<http://www.w3.org/2000/01/rdf-schema#label> 			"Based on Variable Reference" . 
<http://www.assero.co.uk/MDRSdtmMd/CDISC/V3#M-CDISC_SDTMMODELEVENTS_xxSEV_CR1> 			<http://www.w3.org/1999/02/22-rdf-syntax-ns#type> 			<http://www.assero.co.uk/BusinessOperational#CReference> . 
<http://www.assero.co.uk/MDRSdtmMd/CDISC/V3#M-CDISC_SDTMMODELEVENTS_xxSEV_CR1> 			<http://www.assero.co.uk/BusinessOperational#optional> 			"false" . 
<http://www.assero.co.uk/MDRSdtmMd/CDISC/V3#M-CDISC_SDTMMODELEVENTS_xxSEV_CR1> 			<http://www.assero.co.uk/BusinessOperational#local_label> 			"" . 
<http://www.assero.co.uk/MDRSdtmMd/CDISC/V3#M-CDISC_SDTMMODELEVENTS_xxSEV_CR1> 			<http://www.assero.co.uk/BusinessOperational#enabled> 			"true" . 
<http://www.assero.co.uk/MDRSdtmMd/CDISC/V3#M-CDISC_SDTMMODELEVENTS_xxSEV_CR1> 			<http://www.assero.co.uk/BusinessOperational#ordinal> 			"1" . 
<http://www.assero.co.uk/MDRSdtmMd/CDISC/V3#M-CDISC_SDTMMODELEVENTS_xxSEV_CR1> 			<http://www.assero.co.uk/BusinessOperational#hasColumn> 			<http://www.assero.co.uk/MDRSdtmM/CDISC/V3#M-CDISC_SDTMMODEL_xxSEV> . 
<http://www.assero.co.uk/MDRSdtmMd/CDISC/V3#M-CDISC_SDTMMODELEVENTS_xxDY> 			<http://www.w3.org/2000/01/rdf-schema#label> 			"Study Day of Visit/Collection/Exam" . 
<http://www.assero.co.uk/MDRSdtmMd/CDISC/V3#M-CDISC_SDTMMODELEVENTS_xxDY> 			<http://www.w3.org/1999/02/22-rdf-syntax-ns#type> 			<http://www.assero.co.uk/BusinessDomain#ClassVariable> . 
<http://www.assero.co.uk/MDRSdtmMd/CDISC/V3#M-CDISC_SDTMMODELEVENTS_xxDY> 			<http://www.assero.co.uk/BusinessDomain#ordinal> 			"66" . 
<http://www.assero.co.uk/MDRSdtmMd/CDISC/V3#M-CDISC_SDTMMODELEVENTS_xxDY> 			<http://www.assero.co.uk/BusinessDomain#name> 			"--DY" . 
<http://www.assero.co.uk/MDRSdtmMd/CDISC/V3#M-CDISC_SDTMMODELEVENTS_xxDY> 			<http://www.assero.co.uk/BusinessDomain#rule> 			"" . 
<http://www.assero.co.uk/MDRSdtmMd/CDISC/V3#M-CDISC_SDTMMODELEVENTS_xxDY> 			<http://www.assero.co.uk/BusinessDomain#basedOnVariable> 			<http://www.assero.co.uk/MDRSdtmMd/CDISC/V3#M-CDISC_SDTMMODELEVENTS_xxDY_CR1> . 
<http://www.assero.co.uk/MDRSdtmMd/CDISC/V3#M-CDISC_SDTMMODELEVENTS_xxDY_CR1> 			<http://www.w3.org/2000/01/rdf-schema#label> 			"Based on Variable Reference" . 
<http://www.assero.co.uk/MDRSdtmMd/CDISC/V3#M-CDISC_SDTMMODELEVENTS_xxDY_CR1> 			<http://www.w3.org/1999/02/22-rdf-syntax-ns#type> 			<http://www.assero.co.uk/BusinessOperational#CReference> . 
<http://www.assero.co.uk/MDRSdtmMd/CDISC/V3#M-CDISC_SDTMMODELEVENTS_xxDY_CR1> 			<http://www.assero.co.uk/BusinessOperational#optional> 			"false" . 
<http://www.assero.co.uk/MDRSdtmMd/CDISC/V3#M-CDISC_SDTMMODELEVENTS_xxDY_CR1> 			<http://www.assero.co.uk/BusinessOperational#local_label> 			"" . 
<http://www.assero.co.uk/MDRSdtmMd/CDISC/V3#M-CDISC_SDTMMODELEVENTS_xxDY_CR1> 			<http://www.assero.co.uk/BusinessOperational#enabled> 			"true" . 
<http://www.assero.co.uk/MDRSdtmMd/CDISC/V3#M-CDISC_SDTMMODELEVENTS_xxDY_CR1> 			<http://www.assero.co.uk/BusinessOperational#ordinal> 			"1" . 
<http://www.assero.co.uk/MDRSdtmMd/CDISC/V3#M-CDISC_SDTMMODELEVENTS_xxDY_CR1> 			<http://www.assero.co.uk/BusinessOperational#hasColumn> 			<http://www.assero.co.uk/MDRSdtmM/CDISC/V3#M-CDISC_SDTMMODEL_xxDY> . 
<http://www.assero.co.uk/MDRSdtmMd/CDISC/V3#M-CDISC_SDTMMODELEVENTS_xxACNOTH> 			<http://www.w3.org/2000/01/rdf-schema#label> 			"Other Action Taken" . 
<http://www.assero.co.uk/MDRSdtmMd/CDISC/V3#M-CDISC_SDTMMODELEVENTS_xxACNOTH> 			<http://www.w3.org/1999/02/22-rdf-syntax-ns#type> 			<http://www.assero.co.uk/BusinessDomain#ClassVariable> . 
<http://www.assero.co.uk/MDRSdtmMd/CDISC/V3#M-CDISC_SDTMMODELEVENTS_xxACNOTH> 			<http://www.assero.co.uk/BusinessDomain#ordinal> 			"41" . 
<http://www.assero.co.uk/MDRSdtmMd/CDISC/V3#M-CDISC_SDTMMODELEVENTS_xxACNOTH> 			<http://www.assero.co.uk/BusinessDomain#name> 			"--ACNOTH" . 
<http://www.assero.co.uk/MDRSdtmMd/CDISC/V3#M-CDISC_SDTMMODELEVENTS_xxACNOTH> 			<http://www.assero.co.uk/BusinessDomain#rule> 			"" . 
<http://www.assero.co.uk/MDRSdtmMd/CDISC/V3#M-CDISC_SDTMMODELEVENTS_xxACNOTH> 			<http://www.assero.co.uk/BusinessDomain#basedOnVariable> 			<http://www.assero.co.uk/MDRSdtmMd/CDISC/V3#M-CDISC_SDTMMODELEVENTS_xxACNOTH_CR1> . 
<http://www.assero.co.uk/MDRSdtmMd/CDISC/V3#M-CDISC_SDTMMODELEVENTS_xxACNOTH_CR1> 			<http://www.w3.org/2000/01/rdf-schema#label> 			"Based on Variable Reference" . 
<http://www.assero.co.uk/MDRSdtmMd/CDISC/V3#M-CDISC_SDTMMODELEVENTS_xxACNOTH_CR1> 			<http://www.w3.org/1999/02/22-rdf-syntax-ns#type> 			<http://www.assero.co.uk/BusinessOperational#CReference> . 
<http://www.assero.co.uk/MDRSdtmMd/CDISC/V3#M-CDISC_SDTMMODELEVENTS_xxACNOTH_CR1> 			<http://www.assero.co.uk/BusinessOperational#optional> 			"false" . 
<http://www.assero.co.uk/MDRSdtmMd/CDISC/V3#M-CDISC_SDTMMODELEVENTS_xxACNOTH_CR1> 			<http://www.assero.co.uk/BusinessOperational#local_label> 			"" . 
<http://www.assero.co.uk/MDRSdtmMd/CDISC/V3#M-CDISC_SDTMMODELEVENTS_xxACNOTH_CR1> 			<http://www.assero.co.uk/BusinessOperational#enabled> 			"true" . 
<http://www.assero.co.uk/MDRSdtmMd/CDISC/V3#M-CDISC_SDTMMODELEVENTS_xxACNOTH_CR1> 			<http://www.assero.co.uk/BusinessOperational#ordinal> 			"1" . 
<http://www.assero.co.uk/MDRSdtmMd/CDISC/V3#M-CDISC_SDTMMODELEVENTS_xxACNOTH_CR1> 			<http://www.assero.co.uk/BusinessOperational#hasColumn> 			<http://www.assero.co.uk/MDRSdtmM/CDISC/V3#M-CDISC_SDTMMODEL_xxACNOTH> . 
<http://www.assero.co.uk/MDRSdtmMd/CDISC/V3#M-CDISC_SDTMMODELEVENTS_xxBDSYCD> 			<http://www.w3.org/2000/01/rdf-schema#label> 			"Body System or Organ Class Code" . 
<http://www.assero.co.uk/MDRSdtmMd/CDISC/V3#M-CDISC_SDTMMODELEVENTS_xxBDSYCD> 			<http://www.w3.org/1999/02/22-rdf-syntax-ns#type> 			<http://www.assero.co.uk/BusinessDomain#ClassVariable> . 
<http://www.assero.co.uk/MDRSdtmMd/CDISC/V3#M-CDISC_SDTMMODELEVENTS_xxBDSYCD> 			<http://www.assero.co.uk/BusinessDomain#ordinal> 			"29" . 
<http://www.assero.co.uk/MDRSdtmMd/CDISC/V3#M-CDISC_SDTMMODELEVENTS_xxBDSYCD> 			<http://www.assero.co.uk/BusinessDomain#name> 			"--BDSYCD" . 
<http://www.assero.co.uk/MDRSdtmMd/CDISC/V3#M-CDISC_SDTMMODELEVENTS_xxBDSYCD> 			<http://www.assero.co.uk/BusinessDomain#rule> 			"" . 
<http://www.assero.co.uk/MDRSdtmMd/CDISC/V3#M-CDISC_SDTMMODELEVENTS_xxBDSYCD> 			<http://www.assero.co.uk/BusinessDomain#basedOnVariable> 			<http://www.assero.co.uk/MDRSdtmMd/CDISC/V3#M-CDISC_SDTMMODELEVENTS_xxBDSYCD_CR1> . 
<http://www.assero.co.uk/MDRSdtmMd/CDISC/V3#M-CDISC_SDTMMODELEVENTS_xxBDSYCD_CR1> 			<http://www.w3.org/2000/01/rdf-schema#label> 			"Based on Variable Reference" . 
<http://www.assero.co.uk/MDRSdtmMd/CDISC/V3#M-CDISC_SDTMMODELEVENTS_xxBDSYCD_CR1> 			<http://www.w3.org/1999/02/22-rdf-syntax-ns#type> 			<http://www.assero.co.uk/BusinessOperational#CReference> . 
<http://www.assero.co.uk/MDRSdtmMd/CDISC/V3#M-CDISC_SDTMMODELEVENTS_xxBDSYCD_CR1> 			<http://www.assero.co.uk/BusinessOperational#optional> 			"false" . 
<http://www.assero.co.uk/MDRSdtmMd/CDISC/V3#M-CDISC_SDTMMODELEVENTS_xxBDSYCD_CR1> 			<http://www.assero.co.uk/BusinessOperational#local_label> 			"" . 
<http://www.assero.co.uk/MDRSdtmMd/CDISC/V3#M-CDISC_SDTMMODELEVENTS_xxBDSYCD_CR1> 			<http://www.assero.co.uk/BusinessOperational#enabled> 			"true" . 
<http://www.assero.co.uk/MDRSdtmMd/CDISC/V3#M-CDISC_SDTMMODELEVENTS_xxBDSYCD_CR1> 			<http://www.assero.co.uk/BusinessOperational#ordinal> 			"1" . 
<http://www.assero.co.uk/MDRSdtmMd/CDISC/V3#M-CDISC_SDTMMODELEVENTS_xxBDSYCD_CR1> 			<http://www.assero.co.uk/BusinessOperational#hasColumn> 			<http://www.assero.co.uk/MDRSdtmM/CDISC/V3#M-CDISC_SDTMMODEL_xxBDSYCD> . 
<http://www.assero.co.uk/MDRSdtmMd/CDISC/V3#M-CDISC_SDTMMODELEVENTS_xxDUR> 			<http://www.w3.org/2000/01/rdf-schema#label> 			"Duration" . 
<http://www.assero.co.uk/MDRSdtmMd/CDISC/V3#M-CDISC_SDTMMODELEVENTS_xxDUR> 			<http://www.w3.org/1999/02/22-rdf-syntax-ns#type> 			<http://www.assero.co.uk/BusinessDomain#ClassVariable> . 
<http://www.assero.co.uk/MDRSdtmMd/CDISC/V3#M-CDISC_SDTMMODELEVENTS_xxDUR> 			<http://www.assero.co.uk/BusinessDomain#ordinal> 			"69" . 
<http://www.assero.co.uk/MDRSdtmMd/CDISC/V3#M-CDISC_SDTMMODELEVENTS_xxDUR> 			<http://www.assero.co.uk/BusinessDomain#name> 			"--DUR" . 
<http://www.assero.co.uk/MDRSdtmMd/CDISC/V3#M-CDISC_SDTMMODELEVENTS_xxDUR> 			<http://www.assero.co.uk/BusinessDomain#rule> 			"" . 
<http://www.assero.co.uk/MDRSdtmMd/CDISC/V3#M-CDISC_SDTMMODELEVENTS_xxDUR> 			<http://www.assero.co.uk/BusinessDomain#basedOnVariable> 			<http://www.assero.co.uk/MDRSdtmMd/CDISC/V3#M-CDISC_SDTMMODELEVENTS_xxDUR_CR1> . 
<http://www.assero.co.uk/MDRSdtmMd/CDISC/V3#M-CDISC_SDTMMODELEVENTS_xxDUR_CR1> 			<http://www.w3.org/2000/01/rdf-schema#label> 			"Based on Variable Reference" . 
<http://www.assero.co.uk/MDRSdtmMd/CDISC/V3#M-CDISC_SDTMMODELEVENTS_xxDUR_CR1> 			<http://www.w3.org/1999/02/22-rdf-syntax-ns#type> 			<http://www.assero.co.uk/BusinessOperational#CReference> . 
<http://www.assero.co.uk/MDRSdtmMd/CDISC/V3#M-CDISC_SDTMMODELEVENTS_xxDUR_CR1> 			<http://www.assero.co.uk/BusinessOperational#optional> 			"false" . 
<http://www.assero.co.uk/MDRSdtmMd/CDISC/V3#M-CDISC_SDTMMODELEVENTS_xxDUR_CR1> 			<http://www.assero.co.uk/BusinessOperational#local_label> 			"" . 
<http://www.assero.co.uk/MDRSdtmMd/CDISC/V3#M-CDISC_SDTMMODELEVENTS_xxDUR_CR1> 			<http://www.assero.co.uk/BusinessOperational#enabled> 			"true" . 
<http://www.assero.co.uk/MDRSdtmMd/CDISC/V3#M-CDISC_SDTMMODELEVENTS_xxDUR_CR1> 			<http://www.assero.co.uk/BusinessOperational#ordinal> 			"1" . 
<http://www.assero.co.uk/MDRSdtmMd/CDISC/V3#M-CDISC_SDTMMODELEVENTS_xxDUR_CR1> 			<http://www.assero.co.uk/BusinessOperational#hasColumn> 			<http://www.assero.co.uk/MDRSdtmM/CDISC/V3#M-CDISC_SDTMMODEL_xxDUR> . 
<http://www.assero.co.uk/MDRSdtmMd/CDISC/V3#M-CDISC_SDTMMODELEVENTS_xxOCCUR> 			<http://www.w3.org/2000/01/rdf-schema#label> 			"Occurrence" . 
<http://www.assero.co.uk/MDRSdtmMd/CDISC/V3#M-CDISC_SDTMMODELEVENTS_xxOCCUR> 			<http://www.w3.org/1999/02/22-rdf-syntax-ns#type> 			<http://www.assero.co.uk/BusinessDomain#ClassVariable> . 
<http://www.assero.co.uk/MDRSdtmMd/CDISC/V3#M-CDISC_SDTMMODELEVENTS_xxOCCUR> 			<http://www.assero.co.uk/BusinessDomain#ordinal> 			"25" . 
<http://www.assero.co.uk/MDRSdtmMd/CDISC/V3#M-CDISC_SDTMMODELEVENTS_xxOCCUR> 			<http://www.assero.co.uk/BusinessDomain#name> 			"--OCCUR" . 
<http://www.assero.co.uk/MDRSdtmMd/CDISC/V3#M-CDISC_SDTMMODELEVENTS_xxOCCUR> 			<http://www.assero.co.uk/BusinessDomain#rule> 			"" . 
<http://www.assero.co.uk/MDRSdtmMd/CDISC/V3#M-CDISC_SDTMMODELEVENTS_xxOCCUR> 			<http://www.assero.co.uk/BusinessDomain#basedOnVariable> 			<http://www.assero.co.uk/MDRSdtmMd/CDISC/V3#M-CDISC_SDTMMODELEVENTS_xxOCCUR_CR1> . 
<http://www.assero.co.uk/MDRSdtmMd/CDISC/V3#M-CDISC_SDTMMODELEVENTS_xxOCCUR_CR1> 			<http://www.w3.org/2000/01/rdf-schema#label> 			"Based on Variable Reference" . 
<http://www.assero.co.uk/MDRSdtmMd/CDISC/V3#M-CDISC_SDTMMODELEVENTS_xxOCCUR_CR1> 			<http://www.w3.org/1999/02/22-rdf-syntax-ns#type> 			<http://www.assero.co.uk/BusinessOperational#CReference> . 
<http://www.assero.co.uk/MDRSdtmMd/CDISC/V3#M-CDISC_SDTMMODELEVENTS_xxOCCUR_CR1> 			<http://www.assero.co.uk/BusinessOperational#optional> 			"false" . 
<http://www.assero.co.uk/MDRSdtmMd/CDISC/V3#M-CDISC_SDTMMODELEVENTS_xxOCCUR_CR1> 			<http://www.assero.co.uk/BusinessOperational#local_label> 			"" . 
<http://www.assero.co.uk/MDRSdtmMd/CDISC/V3#M-CDISC_SDTMMODELEVENTS_xxOCCUR_CR1> 			<http://www.assero.co.uk/BusinessOperational#enabled> 			"true" . 
<http://www.assero.co.uk/MDRSdtmMd/CDISC/V3#M-CDISC_SDTMMODELEVENTS_xxOCCUR_CR1> 			<http://www.assero.co.uk/BusinessOperational#ordinal> 			"1" . 
<http://www.assero.co.uk/MDRSdtmMd/CDISC/V3#M-CDISC_SDTMMODELEVENTS_xxOCCUR_CR1> 			<http://www.assero.co.uk/BusinessOperational#hasColumn> 			<http://www.assero.co.uk/MDRSdtmM/CDISC/V3#M-CDISC_SDTMMODEL_xxOCCUR> . 
<http://www.assero.co.uk/MDRSdtmMd/CDISC/V3#M-CDISC_SDTMMODELEVENTS_xxHLGT> 			<http://www.w3.org/2000/01/rdf-schema#label> 			"High Level Group Term" . 
<http://www.assero.co.uk/MDRSdtmMd/CDISC/V3#M-CDISC_SDTMMODELEVENTS_xxHLGT> 			<http://www.w3.org/1999/02/22-rdf-syntax-ns#type> 			<http://www.assero.co.uk/BusinessDomain#ClassVariable> . 
<http://www.assero.co.uk/MDRSdtmMd/CDISC/V3#M-CDISC_SDTMMODELEVENTS_xxHLGT> 			<http://www.assero.co.uk/BusinessDomain#ordinal> 			"20" . 
<http://www.assero.co.uk/MDRSdtmMd/CDISC/V3#M-CDISC_SDTMMODELEVENTS_xxHLGT> 			<http://www.assero.co.uk/BusinessDomain#name> 			"--HLGT" . 
<http://www.assero.co.uk/MDRSdtmMd/CDISC/V3#M-CDISC_SDTMMODELEVENTS_xxHLGT> 			<http://www.assero.co.uk/BusinessDomain#rule> 			"" . 
<http://www.assero.co.uk/MDRSdtmMd/CDISC/V3#M-CDISC_SDTMMODELEVENTS_xxHLGT> 			<http://www.assero.co.uk/BusinessDomain#basedOnVariable> 			<http://www.assero.co.uk/MDRSdtmMd/CDISC/V3#M-CDISC_SDTMMODELEVENTS_xxHLGT_CR1> . 
<http://www.assero.co.uk/MDRSdtmMd/CDISC/V3#M-CDISC_SDTMMODELEVENTS_xxHLGT_CR1> 			<http://www.w3.org/2000/01/rdf-schema#label> 			"Based on Variable Reference" . 
<http://www.assero.co.uk/MDRSdtmMd/CDISC/V3#M-CDISC_SDTMMODELEVENTS_xxHLGT_CR1> 			<http://www.w3.org/1999/02/22-rdf-syntax-ns#type> 			<http://www.assero.co.uk/BusinessOperational#CReference> . 
<http://www.assero.co.uk/MDRSdtmMd/CDISC/V3#M-CDISC_SDTMMODELEVENTS_xxHLGT_CR1> 			<http://www.assero.co.uk/BusinessOperational#optional> 			"false" . 
<http://www.assero.co.uk/MDRSdtmMd/CDISC/V3#M-CDISC_SDTMMODELEVENTS_xxHLGT_CR1> 			<http://www.assero.co.uk/BusinessOperational#local_label> 			"" . 
<http://www.assero.co.uk/MDRSdtmMd/CDISC/V3#M-CDISC_SDTMMODELEVENTS_xxHLGT_CR1> 			<http://www.assero.co.uk/BusinessOperational#enabled> 			"true" . 
<http://www.assero.co.uk/MDRSdtmMd/CDISC/V3#M-CDISC_SDTMMODELEVENTS_xxHLGT_CR1> 			<http://www.assero.co.uk/BusinessOperational#ordinal> 			"1" . 
<http://www.assero.co.uk/MDRSdtmMd/CDISC/V3#M-CDISC_SDTMMODELEVENTS_xxHLGT_CR1> 			<http://www.assero.co.uk/BusinessOperational#hasColumn> 			<http://www.assero.co.uk/MDRSdtmM/CDISC/V3#M-CDISC_SDTMMODEL_xxHLGT> . 
<http://www.assero.co.uk/MDRSdtmMd/CDISC/V3#M-CDISC_SDTMMODELEVENTS_xxENDY> 			<http://www.w3.org/2000/01/rdf-schema#label> 			"Study Day of End of Observation" . 
<http://www.assero.co.uk/MDRSdtmMd/CDISC/V3#M-CDISC_SDTMMODELEVENTS_xxENDY> 			<http://www.w3.org/1999/02/22-rdf-syntax-ns#type> 			<http://www.assero.co.uk/BusinessDomain#ClassVariable> . 
<http://www.assero.co.uk/MDRSdtmMd/CDISC/V3#M-CDISC_SDTMMODELEVENTS_xxENDY> 			<http://www.assero.co.uk/BusinessDomain#ordinal> 			"68" . 
<http://www.assero.co.uk/MDRSdtmMd/CDISC/V3#M-CDISC_SDTMMODELEVENTS_xxENDY> 			<http://www.assero.co.uk/BusinessDomain#name> 			"--ENDY" . 
<http://www.assero.co.uk/MDRSdtmMd/CDISC/V3#M-CDISC_SDTMMODELEVENTS_xxENDY> 			<http://www.assero.co.uk/BusinessDomain#rule> 			"" . 
<http://www.assero.co.uk/MDRSdtmMd/CDISC/V3#M-CDISC_SDTMMODELEVENTS_xxENDY> 			<http://www.assero.co.uk/BusinessDomain#basedOnVariable> 			<http://www.assero.co.uk/MDRSdtmMd/CDISC/V3#M-CDISC_SDTMMODELEVENTS_xxENDY_CR1> . 
<http://www.assero.co.uk/MDRSdtmMd/CDISC/V3#M-CDISC_SDTMMODELEVENTS_xxENDY_CR1> 			<http://www.w3.org/2000/01/rdf-schema#label> 			"Based on Variable Reference" . 
<http://www.assero.co.uk/MDRSdtmMd/CDISC/V3#M-CDISC_SDTMMODELEVENTS_xxENDY_CR1> 			<http://www.w3.org/1999/02/22-rdf-syntax-ns#type> 			<http://www.assero.co.uk/BusinessOperational#CReference> . 
<http://www.assero.co.uk/MDRSdtmMd/CDISC/V3#M-CDISC_SDTMMODELEVENTS_xxENDY_CR1> 			<http://www.assero.co.uk/BusinessOperational#optional> 			"false" . 
<http://www.assero.co.uk/MDRSdtmMd/CDISC/V3#M-CDISC_SDTMMODELEVENTS_xxENDY_CR1> 			<http://www.assero.co.uk/BusinessOperational#local_label> 			"" . 
<http://www.assero.co.uk/MDRSdtmMd/CDISC/V3#M-CDISC_SDTMMODELEVENTS_xxENDY_CR1> 			<http://www.assero.co.uk/BusinessOperational#enabled> 			"true" . 
<http://www.assero.co.uk/MDRSdtmMd/CDISC/V3#M-CDISC_SDTMMODELEVENTS_xxENDY_CR1> 			<http://www.assero.co.uk/BusinessOperational#ordinal> 			"1" . 
<http://www.assero.co.uk/MDRSdtmMd/CDISC/V3#M-CDISC_SDTMMODELEVENTS_xxENDY_CR1> 			<http://www.assero.co.uk/BusinessOperational#hasColumn> 			<http://www.assero.co.uk/MDRSdtmM/CDISC/V3#M-CDISC_SDTMMODEL_xxENDY> . 
<http://www.assero.co.uk/MDRSdtmMd/CDISC/V3#M-CDISC_SDTMMODELEVENTS_DOMAIN> 			<http://www.w3.org/2000/01/rdf-schema#label> 			"Domain Abbreviation" . 
<http://www.assero.co.uk/MDRSdtmMd/CDISC/V3#M-CDISC_SDTMMODELEVENTS_DOMAIN> 			<http://www.w3.org/1999/02/22-rdf-syntax-ns#type> 			<http://www.assero.co.uk/BusinessDomain#ClassVariable> . 
<http://www.assero.co.uk/MDRSdtmMd/CDISC/V3#M-CDISC_SDTMMODELEVENTS_DOMAIN> 			<http://www.assero.co.uk/BusinessDomain#ordinal> 			"2" . 
<http://www.assero.co.uk/MDRSdtmMd/CDISC/V3#M-CDISC_SDTMMODELEVENTS_DOMAIN> 			<http://www.assero.co.uk/BusinessDomain#name> 			"DOMAIN" . 
<http://www.assero.co.uk/MDRSdtmMd/CDISC/V3#M-CDISC_SDTMMODELEVENTS_DOMAIN> 			<http://www.assero.co.uk/BusinessDomain#rule> 			"" . 
<http://www.assero.co.uk/MDRSdtmMd/CDISC/V3#M-CDISC_SDTMMODELEVENTS_DOMAIN> 			<http://www.assero.co.uk/BusinessDomain#basedOnVariable> 			<http://www.assero.co.uk/MDRSdtmMd/CDISC/V3#M-CDISC_SDTMMODELEVENTS_DOMAIN_CR1> . 
<http://www.assero.co.uk/MDRSdtmMd/CDISC/V3#M-CDISC_SDTMMODELEVENTS_DOMAIN_CR1> 			<http://www.w3.org/2000/01/rdf-schema#label> 			"Based on Variable Reference" . 
<http://www.assero.co.uk/MDRSdtmMd/CDISC/V3#M-CDISC_SDTMMODELEVENTS_DOMAIN_CR1> 			<http://www.w3.org/1999/02/22-rdf-syntax-ns#type> 			<http://www.assero.co.uk/BusinessOperational#CReference> . 
<http://www.assero.co.uk/MDRSdtmMd/CDISC/V3#M-CDISC_SDTMMODELEVENTS_DOMAIN_CR1> 			<http://www.assero.co.uk/BusinessOperational#optional> 			"false" . 
<http://www.assero.co.uk/MDRSdtmMd/CDISC/V3#M-CDISC_SDTMMODELEVENTS_DOMAIN_CR1> 			<http://www.assero.co.uk/BusinessOperational#local_label> 			"" . 
<http://www.assero.co.uk/MDRSdtmMd/CDISC/V3#M-CDISC_SDTMMODELEVENTS_DOMAIN_CR1> 			<http://www.assero.co.uk/BusinessOperational#enabled> 			"true" . 
<http://www.assero.co.uk/MDRSdtmMd/CDISC/V3#M-CDISC_SDTMMODELEVENTS_DOMAIN_CR1> 			<http://www.assero.co.uk/BusinessOperational#ordinal> 			"1" . 
<http://www.assero.co.uk/MDRSdtmMd/CDISC/V3#M-CDISC_SDTMMODELEVENTS_DOMAIN_CR1> 			<http://www.assero.co.uk/BusinessOperational#hasColumn> 			<http://www.assero.co.uk/MDRSdtmM/CDISC/V3#M-CDISC_SDTMMODEL_DOMAIN> . 
<http://www.assero.co.uk/MDRSdtmMd/CDISC/V3#M-CDISC_SDTMMODELEVENTS_xxDETECT> 			<http://www.w3.org/2000/01/rdf-schema#label> 			"Time in Days to Detection" . 
<http://www.assero.co.uk/MDRSdtmMd/CDISC/V3#M-CDISC_SDTMMODELEVENTS_xxDETECT> 			<http://www.w3.org/1999/02/22-rdf-syntax-ns#type> 			<http://www.assero.co.uk/BusinessDomain#ClassVariable> . 
<http://www.assero.co.uk/MDRSdtmMd/CDISC/V3#M-CDISC_SDTMMODELEVENTS_xxDETECT> 			<http://www.assero.co.uk/BusinessDomain#ordinal> 			"85" . 
<http://www.assero.co.uk/MDRSdtmMd/CDISC/V3#M-CDISC_SDTMMODELEVENTS_xxDETECT> 			<http://www.assero.co.uk/BusinessDomain#name> 			"--DETECT" . 
<http://www.assero.co.uk/MDRSdtmMd/CDISC/V3#M-CDISC_SDTMMODELEVENTS_xxDETECT> 			<http://www.assero.co.uk/BusinessDomain#rule> 			"" . 
<http://www.assero.co.uk/MDRSdtmMd/CDISC/V3#M-CDISC_SDTMMODELEVENTS_xxDETECT> 			<http://www.assero.co.uk/BusinessDomain#basedOnVariable> 			<http://www.assero.co.uk/MDRSdtmMd/CDISC/V3#M-CDISC_SDTMMODELEVENTS_xxDETECT_CR1> . 
<http://www.assero.co.uk/MDRSdtmMd/CDISC/V3#M-CDISC_SDTMMODELEVENTS_xxDETECT_CR1> 			<http://www.w3.org/2000/01/rdf-schema#label> 			"Based on Variable Reference" . 
<http://www.assero.co.uk/MDRSdtmMd/CDISC/V3#M-CDISC_SDTMMODELEVENTS_xxDETECT_CR1> 			<http://www.w3.org/1999/02/22-rdf-syntax-ns#type> 			<http://www.assero.co.uk/BusinessOperational#CReference> . 
<http://www.assero.co.uk/MDRSdtmMd/CDISC/V3#M-CDISC_SDTMMODELEVENTS_xxDETECT_CR1> 			<http://www.assero.co.uk/BusinessOperational#optional> 			"false" . 
<http://www.assero.co.uk/MDRSdtmMd/CDISC/V3#M-CDISC_SDTMMODELEVENTS_xxDETECT_CR1> 			<http://www.assero.co.uk/BusinessOperational#local_label> 			"" . 
<http://www.assero.co.uk/MDRSdtmMd/CDISC/V3#M-CDISC_SDTMMODELEVENTS_xxDETECT_CR1> 			<http://www.assero.co.uk/BusinessOperational#enabled> 			"true" . 
<http://www.assero.co.uk/MDRSdtmMd/CDISC/V3#M-CDISC_SDTMMODELEVENTS_xxDETECT_CR1> 			<http://www.assero.co.uk/BusinessOperational#ordinal> 			"1" . 
<http://www.assero.co.uk/MDRSdtmMd/CDISC/V3#M-CDISC_SDTMMODELEVENTS_xxDETECT_CR1> 			<http://www.assero.co.uk/BusinessOperational#hasColumn> 			<http://www.assero.co.uk/MDRSdtmM/CDISC/V3#M-CDISC_SDTMMODEL_xxDETECT> . 
<http://www.assero.co.uk/MDRSdtmMd/CDISC/V3#M-CDISC_SDTMMODELEVENTS_xxENDTC> 			<http://www.w3.org/2000/01/rdf-schema#label> 			"End Date/Time of Observation" . 
<http://www.assero.co.uk/MDRSdtmMd/CDISC/V3#M-CDISC_SDTMMODELEVENTS_xxENDTC> 			<http://www.w3.org/1999/02/22-rdf-syntax-ns#type> 			<http://www.assero.co.uk/BusinessDomain#ClassVariable> . 
<http://www.assero.co.uk/MDRSdtmMd/CDISC/V3#M-CDISC_SDTMMODELEVENTS_xxENDTC> 			<http://www.assero.co.uk/BusinessDomain#ordinal> 			"65" . 
<http://www.assero.co.uk/MDRSdtmMd/CDISC/V3#M-CDISC_SDTMMODELEVENTS_xxENDTC> 			<http://www.assero.co.uk/BusinessDomain#name> 			"--ENDTC" . 
<http://www.assero.co.uk/MDRSdtmMd/CDISC/V3#M-CDISC_SDTMMODELEVENTS_xxENDTC> 			<http://www.assero.co.uk/BusinessDomain#rule> 			"" . 
<http://www.assero.co.uk/MDRSdtmMd/CDISC/V3#M-CDISC_SDTMMODELEVENTS_xxENDTC> 			<http://www.assero.co.uk/BusinessDomain#basedOnVariable> 			<http://www.assero.co.uk/MDRSdtmMd/CDISC/V3#M-CDISC_SDTMMODELEVENTS_xxENDTC_CR1> . 
<http://www.assero.co.uk/MDRSdtmMd/CDISC/V3#M-CDISC_SDTMMODELEVENTS_xxENDTC_CR1> 			<http://www.w3.org/2000/01/rdf-schema#label> 			"Based on Variable Reference" . 
<http://www.assero.co.uk/MDRSdtmMd/CDISC/V3#M-CDISC_SDTMMODELEVENTS_xxENDTC_CR1> 			<http://www.w3.org/1999/02/22-rdf-syntax-ns#type> 			<http://www.assero.co.uk/BusinessOperational#CReference> . 
<http://www.assero.co.uk/MDRSdtmMd/CDISC/V3#M-CDISC_SDTMMODELEVENTS_xxENDTC_CR1> 			<http://www.assero.co.uk/BusinessOperational#optional> 			"false" . 
<http://www.assero.co.uk/MDRSdtmMd/CDISC/V3#M-CDISC_SDTMMODELEVENTS_xxENDTC_CR1> 			<http://www.assero.co.uk/BusinessOperational#local_label> 			"" . 
<http://www.assero.co.uk/MDRSdtmMd/CDISC/V3#M-CDISC_SDTMMODELEVENTS_xxENDTC_CR1> 			<http://www.assero.co.uk/BusinessOperational#enabled> 			"true" . 
<http://www.assero.co.uk/MDRSdtmMd/CDISC/V3#M-CDISC_SDTMMODELEVENTS_xxENDTC_CR1> 			<http://www.assero.co.uk/BusinessOperational#ordinal> 			"1" . 
<http://www.assero.co.uk/MDRSdtmMd/CDISC/V3#M-CDISC_SDTMMODELEVENTS_xxENDTC_CR1> 			<http://www.assero.co.uk/BusinessOperational#hasColumn> 			<http://www.assero.co.uk/MDRSdtmM/CDISC/V3#M-CDISC_SDTMMODEL_xxENDTC> . 
<http://www.assero.co.uk/MDRSdtmMd/CDISC/V3#M-CDISC_SDTMMODELEVENTS_xxGRPID> 			<http://www.w3.org/2000/01/rdf-schema#label> 			"Group ID" . 
<http://www.assero.co.uk/MDRSdtmMd/CDISC/V3#M-CDISC_SDTMMODELEVENTS_xxGRPID> 			<http://www.w3.org/1999/02/22-rdf-syntax-ns#type> 			<http://www.assero.co.uk/BusinessDomain#ClassVariable> . 
<http://www.assero.co.uk/MDRSdtmMd/CDISC/V3#M-CDISC_SDTMMODELEVENTS_xxGRPID> 			<http://www.assero.co.uk/BusinessDomain#ordinal> 			"7" . 
<http://www.assero.co.uk/MDRSdtmMd/CDISC/V3#M-CDISC_SDTMMODELEVENTS_xxGRPID> 			<http://www.assero.co.uk/BusinessDomain#name> 			"--GRPID" . 
<http://www.assero.co.uk/MDRSdtmMd/CDISC/V3#M-CDISC_SDTMMODELEVENTS_xxGRPID> 			<http://www.assero.co.uk/BusinessDomain#rule> 			"" . 
<http://www.assero.co.uk/MDRSdtmMd/CDISC/V3#M-CDISC_SDTMMODELEVENTS_xxGRPID> 			<http://www.assero.co.uk/BusinessDomain#basedOnVariable> 			<http://www.assero.co.uk/MDRSdtmMd/CDISC/V3#M-CDISC_SDTMMODELEVENTS_xxGRPID_CR1> . 
<http://www.assero.co.uk/MDRSdtmMd/CDISC/V3#M-CDISC_SDTMMODELEVENTS_xxGRPID_CR1> 			<http://www.w3.org/2000/01/rdf-schema#label> 			"Based on Variable Reference" . 
<http://www.assero.co.uk/MDRSdtmMd/CDISC/V3#M-CDISC_SDTMMODELEVENTS_xxGRPID_CR1> 			<http://www.w3.org/1999/02/22-rdf-syntax-ns#type> 			<http://www.assero.co.uk/BusinessOperational#CReference> . 
<http://www.assero.co.uk/MDRSdtmMd/CDISC/V3#M-CDISC_SDTMMODELEVENTS_xxGRPID_CR1> 			<http://www.assero.co.uk/BusinessOperational#optional> 			"false" . 
<http://www.assero.co.uk/MDRSdtmMd/CDISC/V3#M-CDISC_SDTMMODELEVENTS_xxGRPID_CR1> 			<http://www.assero.co.uk/BusinessOperational#local_label> 			"" . 
<http://www.assero.co.uk/MDRSdtmMd/CDISC/V3#M-CDISC_SDTMMODELEVENTS_xxGRPID_CR1> 			<http://www.assero.co.uk/BusinessOperational#enabled> 			"true" . 
<http://www.assero.co.uk/MDRSdtmMd/CDISC/V3#M-CDISC_SDTMMODELEVENTS_xxGRPID_CR1> 			<http://www.assero.co.uk/BusinessOperational#ordinal> 			"1" . 
<http://www.assero.co.uk/MDRSdtmMd/CDISC/V3#M-CDISC_SDTMMODELEVENTS_xxGRPID_CR1> 			<http://www.assero.co.uk/BusinessOperational#hasColumn> 			<http://www.assero.co.uk/MDRSdtmM/CDISC/V3#M-CDISC_SDTMMODEL_xxGRPID> . 
<http://www.assero.co.uk/MDRSdtmMd/CDISC/V3#M-CDISC_SDTMMODELEVENTS_xxSLIFE> 			<http://www.w3.org/2000/01/rdf-schema#label> 			"Is Life Threatening" . 
<http://www.assero.co.uk/MDRSdtmMd/CDISC/V3#M-CDISC_SDTMMODELEVENTS_xxSLIFE> 			<http://www.w3.org/1999/02/22-rdf-syntax-ns#type> 			<http://www.assero.co.uk/BusinessDomain#ClassVariable> . 
<http://www.assero.co.uk/MDRSdtmMd/CDISC/V3#M-CDISC_SDTMMODELEVENTS_xxSLIFE> 			<http://www.assero.co.uk/BusinessDomain#ordinal> 			"52" . 
<http://www.assero.co.uk/MDRSdtmMd/CDISC/V3#M-CDISC_SDTMMODELEVENTS_xxSLIFE> 			<http://www.assero.co.uk/BusinessDomain#name> 			"--SLIFE" . 
<http://www.assero.co.uk/MDRSdtmMd/CDISC/V3#M-CDISC_SDTMMODELEVENTS_xxSLIFE> 			<http://www.assero.co.uk/BusinessDomain#rule> 			"" . 
<http://www.assero.co.uk/MDRSdtmMd/CDISC/V3#M-CDISC_SDTMMODELEVENTS_xxSLIFE> 			<http://www.assero.co.uk/BusinessDomain#basedOnVariable> 			<http://www.assero.co.uk/MDRSdtmMd/CDISC/V3#M-CDISC_SDTMMODELEVENTS_xxSLIFE_CR1> . 
<http://www.assero.co.uk/MDRSdtmMd/CDISC/V3#M-CDISC_SDTMMODELEVENTS_xxSLIFE_CR1> 			<http://www.w3.org/2000/01/rdf-schema#label> 			"Based on Variable Reference" . 
<http://www.assero.co.uk/MDRSdtmMd/CDISC/V3#M-CDISC_SDTMMODELEVENTS_xxSLIFE_CR1> 			<http://www.w3.org/1999/02/22-rdf-syntax-ns#type> 			<http://www.assero.co.uk/BusinessOperational#CReference> . 
<http://www.assero.co.uk/MDRSdtmMd/CDISC/V3#M-CDISC_SDTMMODELEVENTS_xxSLIFE_CR1> 			<http://www.assero.co.uk/BusinessOperational#optional> 			"false" . 
<http://www.assero.co.uk/MDRSdtmMd/CDISC/V3#M-CDISC_SDTMMODELEVENTS_xxSLIFE_CR1> 			<http://www.assero.co.uk/BusinessOperational#local_label> 			"" . 
<http://www.assero.co.uk/MDRSdtmMd/CDISC/V3#M-CDISC_SDTMMODELEVENTS_xxSLIFE_CR1> 			<http://www.assero.co.uk/BusinessOperational#enabled> 			"true" . 
<http://www.assero.co.uk/MDRSdtmMd/CDISC/V3#M-CDISC_SDTMMODELEVENTS_xxSLIFE_CR1> 			<http://www.assero.co.uk/BusinessOperational#ordinal> 			"1" . 
<http://www.assero.co.uk/MDRSdtmMd/CDISC/V3#M-CDISC_SDTMMODELEVENTS_xxSLIFE_CR1> 			<http://www.assero.co.uk/BusinessOperational#hasColumn> 			<http://www.assero.co.uk/MDRSdtmM/CDISC/V3#M-CDISC_SDTMMODEL_xxSLIFE> . 
<http://www.assero.co.uk/MDRSdtmMd/CDISC/V3#M-CDISC_SDTMMODELEVENTS_xxREASND> 			<http://www.w3.org/2000/01/rdf-schema#label> 			"Reason Not Done" . 
<http://www.assero.co.uk/MDRSdtmMd/CDISC/V3#M-CDISC_SDTMMODELEVENTS_xxREASND> 			<http://www.w3.org/1999/02/22-rdf-syntax-ns#type> 			<http://www.assero.co.uk/BusinessDomain#ClassVariable> . 
<http://www.assero.co.uk/MDRSdtmMd/CDISC/V3#M-CDISC_SDTMMODELEVENTS_xxREASND> 			<http://www.assero.co.uk/BusinessDomain#ordinal> 			"27" . 
<http://www.assero.co.uk/MDRSdtmMd/CDISC/V3#M-CDISC_SDTMMODELEVENTS_xxREASND> 			<http://www.assero.co.uk/BusinessDomain#name> 			"--REASND" . 
<http://www.assero.co.uk/MDRSdtmMd/CDISC/V3#M-CDISC_SDTMMODELEVENTS_xxREASND> 			<http://www.assero.co.uk/BusinessDomain#rule> 			"" . 
<http://www.assero.co.uk/MDRSdtmMd/CDISC/V3#M-CDISC_SDTMMODELEVENTS_xxREASND> 			<http://www.assero.co.uk/BusinessDomain#basedOnVariable> 			<http://www.assero.co.uk/MDRSdtmMd/CDISC/V3#M-CDISC_SDTMMODELEVENTS_xxREASND_CR1> . 
<http://www.assero.co.uk/MDRSdtmMd/CDISC/V3#M-CDISC_SDTMMODELEVENTS_xxREASND_CR1> 			<http://www.w3.org/2000/01/rdf-schema#label> 			"Based on Variable Reference" . 
<http://www.assero.co.uk/MDRSdtmMd/CDISC/V3#M-CDISC_SDTMMODELEVENTS_xxREASND_CR1> 			<http://www.w3.org/1999/02/22-rdf-syntax-ns#type> 			<http://www.assero.co.uk/BusinessOperational#CReference> . 
<http://www.assero.co.uk/MDRSdtmMd/CDISC/V3#M-CDISC_SDTMMODELEVENTS_xxREASND_CR1> 			<http://www.assero.co.uk/BusinessOperational#optional> 			"false" . 
<http://www.assero.co.uk/MDRSdtmMd/CDISC/V3#M-CDISC_SDTMMODELEVENTS_xxREASND_CR1> 			<http://www.assero.co.uk/BusinessOperational#local_label> 			"" . 
<http://www.assero.co.uk/MDRSdtmMd/CDISC/V3#M-CDISC_SDTMMODELEVENTS_xxREASND_CR1> 			<http://www.assero.co.uk/BusinessOperational#enabled> 			"true" . 
<http://www.assero.co.uk/MDRSdtmMd/CDISC/V3#M-CDISC_SDTMMODELEVENTS_xxREASND_CR1> 			<http://www.assero.co.uk/BusinessOperational#ordinal> 			"1" . 
<http://www.assero.co.uk/MDRSdtmMd/CDISC/V3#M-CDISC_SDTMMODELEVENTS_xxREASND_CR1> 			<http://www.assero.co.uk/BusinessOperational#hasColumn> 			<http://www.assero.co.uk/MDRSdtmM/CDISC/V3#M-CDISC_SDTMMODEL_xxREASND> . 
<http://www.assero.co.uk/MDRSdtmMd/CDISC/V3#M-CDISC_SDTMMODELEVENTS_xxSEQ> 			<http://www.w3.org/2000/01/rdf-schema#label> 			"Sequence Number" . 
<http://www.assero.co.uk/MDRSdtmMd/CDISC/V3#M-CDISC_SDTMMODELEVENTS_xxSEQ> 			<http://www.w3.org/1999/02/22-rdf-syntax-ns#type> 			<http://www.assero.co.uk/BusinessDomain#ClassVariable> . 
<http://www.assero.co.uk/MDRSdtmMd/CDISC/V3#M-CDISC_SDTMMODELEVENTS_xxSEQ> 			<http://www.assero.co.uk/BusinessDomain#ordinal> 			"6" . 
<http://www.assero.co.uk/MDRSdtmMd/CDISC/V3#M-CDISC_SDTMMODELEVENTS_xxSEQ> 			<http://www.assero.co.uk/BusinessDomain#name> 			"--SEQ" . 
<http://www.assero.co.uk/MDRSdtmMd/CDISC/V3#M-CDISC_SDTMMODELEVENTS_xxSEQ> 			<http://www.assero.co.uk/BusinessDomain#rule> 			"" . 
<http://www.assero.co.uk/MDRSdtmMd/CDISC/V3#M-CDISC_SDTMMODELEVENTS_xxSEQ> 			<http://www.assero.co.uk/BusinessDomain#basedOnVariable> 			<http://www.assero.co.uk/MDRSdtmMd/CDISC/V3#M-CDISC_SDTMMODELEVENTS_xxSEQ_CR1> . 
<http://www.assero.co.uk/MDRSdtmMd/CDISC/V3#M-CDISC_SDTMMODELEVENTS_xxSEQ_CR1> 			<http://www.w3.org/2000/01/rdf-schema#label> 			"Based on Variable Reference" . 
<http://www.assero.co.uk/MDRSdtmMd/CDISC/V3#M-CDISC_SDTMMODELEVENTS_xxSEQ_CR1> 			<http://www.w3.org/1999/02/22-rdf-syntax-ns#type> 			<http://www.assero.co.uk/BusinessOperational#CReference> . 
<http://www.assero.co.uk/MDRSdtmMd/CDISC/V3#M-CDISC_SDTMMODELEVENTS_xxSEQ_CR1> 			<http://www.assero.co.uk/BusinessOperational#optional> 			"false" . 
<http://www.assero.co.uk/MDRSdtmMd/CDISC/V3#M-CDISC_SDTMMODELEVENTS_xxSEQ_CR1> 			<http://www.assero.co.uk/BusinessOperational#local_label> 			"" . 
<http://www.assero.co.uk/MDRSdtmMd/CDISC/V3#M-CDISC_SDTMMODELEVENTS_xxSEQ_CR1> 			<http://www.assero.co.uk/BusinessOperational#enabled> 			"true" . 
<http://www.assero.co.uk/MDRSdtmMd/CDISC/V3#M-CDISC_SDTMMODELEVENTS_xxSEQ_CR1> 			<http://www.assero.co.uk/BusinessOperational#ordinal> 			"1" . 
<http://www.assero.co.uk/MDRSdtmMd/CDISC/V3#M-CDISC_SDTMMODELEVENTS_xxSEQ_CR1> 			<http://www.assero.co.uk/BusinessOperational#hasColumn> 			<http://www.assero.co.uk/MDRSdtmM/CDISC/V3#M-CDISC_SDTMMODEL_xxSEQ> . 
<http://www.assero.co.uk/MDRSdtmMd/CDISC/V3#M-CDISC_SDTMMODELEVENTS_xxACNDEV> 			<http://www.w3.org/2000/01/rdf-schema#label> 			"Action Taken with Device" . 
<http://www.assero.co.uk/MDRSdtmMd/CDISC/V3#M-CDISC_SDTMMODELEVENTS_xxACNDEV> 			<http://www.w3.org/1999/02/22-rdf-syntax-ns#type> 			<http://www.assero.co.uk/BusinessDomain#ClassVariable> . 
<http://www.assero.co.uk/MDRSdtmMd/CDISC/V3#M-CDISC_SDTMMODELEVENTS_xxACNDEV> 			<http://www.assero.co.uk/BusinessDomain#ordinal> 			"42" . 
<http://www.assero.co.uk/MDRSdtmMd/CDISC/V3#M-CDISC_SDTMMODELEVENTS_xxACNDEV> 			<http://www.assero.co.uk/BusinessDomain#name> 			"--ACNDEV" . 
<http://www.assero.co.uk/MDRSdtmMd/CDISC/V3#M-CDISC_SDTMMODELEVENTS_xxACNDEV> 			<http://www.assero.co.uk/BusinessDomain#rule> 			"" . 
<http://www.assero.co.uk/MDRSdtmMd/CDISC/V3#M-CDISC_SDTMMODELEVENTS_xxACNDEV> 			<http://www.assero.co.uk/BusinessDomain#basedOnVariable> 			<http://www.assero.co.uk/MDRSdtmMd/CDISC/V3#M-CDISC_SDTMMODELEVENTS_xxACNDEV_CR1> . 
<http://www.assero.co.uk/MDRSdtmMd/CDISC/V3#M-CDISC_SDTMMODELEVENTS_xxACNDEV_CR1> 			<http://www.w3.org/2000/01/rdf-schema#label> 			"Based on Variable Reference" . 
<http://www.assero.co.uk/MDRSdtmMd/CDISC/V3#M-CDISC_SDTMMODELEVENTS_xxACNDEV_CR1> 			<http://www.w3.org/1999/02/22-rdf-syntax-ns#type> 			<http://www.assero.co.uk/BusinessOperational#CReference> . 
<http://www.assero.co.uk/MDRSdtmMd/CDISC/V3#M-CDISC_SDTMMODELEVENTS_xxACNDEV_CR1> 			<http://www.assero.co.uk/BusinessOperational#optional> 			"false" . 
<http://www.assero.co.uk/MDRSdtmMd/CDISC/V3#M-CDISC_SDTMMODELEVENTS_xxACNDEV_CR1> 			<http://www.assero.co.uk/BusinessOperational#local_label> 			"" . 
<http://www.assero.co.uk/MDRSdtmMd/CDISC/V3#M-CDISC_SDTMMODELEVENTS_xxACNDEV_CR1> 			<http://www.assero.co.uk/BusinessOperational#enabled> 			"true" . 
<http://www.assero.co.uk/MDRSdtmMd/CDISC/V3#M-CDISC_SDTMMODELEVENTS_xxACNDEV_CR1> 			<http://www.assero.co.uk/BusinessOperational#ordinal> 			"1" . 
<http://www.assero.co.uk/MDRSdtmMd/CDISC/V3#M-CDISC_SDTMMODELEVENTS_xxACNDEV_CR1> 			<http://www.assero.co.uk/BusinessOperational#hasColumn> 			<http://www.assero.co.uk/MDRSdtmM/CDISC/V3#M-CDISC_SDTMMODEL_xxACNDEV> . 
<http://www.assero.co.uk/MDRSdtmMd/CDISC/V3#M-CDISC_SDTMMODELEVENTS_xxSCONG> 			<http://www.w3.org/2000/01/rdf-schema#label> 			"Congenital Anomaly or Birth Defect" . 
<http://www.assero.co.uk/MDRSdtmMd/CDISC/V3#M-CDISC_SDTMMODELEVENTS_xxSCONG> 			<http://www.w3.org/1999/02/22-rdf-syntax-ns#type> 			<http://www.assero.co.uk/BusinessDomain#ClassVariable> . 
<http://www.assero.co.uk/MDRSdtmMd/CDISC/V3#M-CDISC_SDTMMODELEVENTS_xxSCONG> 			<http://www.assero.co.uk/BusinessDomain#ordinal> 			"48" . 
<http://www.assero.co.uk/MDRSdtmMd/CDISC/V3#M-CDISC_SDTMMODELEVENTS_xxSCONG> 			<http://www.assero.co.uk/BusinessDomain#name> 			"--SCONG" . 
<http://www.assero.co.uk/MDRSdtmMd/CDISC/V3#M-CDISC_SDTMMODELEVENTS_xxSCONG> 			<http://www.assero.co.uk/BusinessDomain#rule> 			"" . 
<http://www.assero.co.uk/MDRSdtmMd/CDISC/V3#M-CDISC_SDTMMODELEVENTS_xxSCONG> 			<http://www.assero.co.uk/BusinessDomain#basedOnVariable> 			<http://www.assero.co.uk/MDRSdtmMd/CDISC/V3#M-CDISC_SDTMMODELEVENTS_xxSCONG_CR1> . 
<http://www.assero.co.uk/MDRSdtmMd/CDISC/V3#M-CDISC_SDTMMODELEVENTS_xxSCONG_CR1> 			<http://www.w3.org/2000/01/rdf-schema#label> 			"Based on Variable Reference" . 
<http://www.assero.co.uk/MDRSdtmMd/CDISC/V3#M-CDISC_SDTMMODELEVENTS_xxSCONG_CR1> 			<http://www.w3.org/1999/02/22-rdf-syntax-ns#type> 			<http://www.assero.co.uk/BusinessOperational#CReference> . 
<http://www.assero.co.uk/MDRSdtmMd/CDISC/V3#M-CDISC_SDTMMODELEVENTS_xxSCONG_CR1> 			<http://www.assero.co.uk/BusinessOperational#optional> 			"false" . 
<http://www.assero.co.uk/MDRSdtmMd/CDISC/V3#M-CDISC_SDTMMODELEVENTS_xxSCONG_CR1> 			<http://www.assero.co.uk/BusinessOperational#local_label> 			"" . 
<http://www.assero.co.uk/MDRSdtmMd/CDISC/V3#M-CDISC_SDTMMODELEVENTS_xxSCONG_CR1> 			<http://www.assero.co.uk/BusinessOperational#enabled> 			"true" . 
<http://www.assero.co.uk/MDRSdtmMd/CDISC/V3#M-CDISC_SDTMMODELEVENTS_xxSCONG_CR1> 			<http://www.assero.co.uk/BusinessOperational#ordinal> 			"1" . 
<http://www.assero.co.uk/MDRSdtmMd/CDISC/V3#M-CDISC_SDTMMODELEVENTS_xxSCONG_CR1> 			<http://www.assero.co.uk/BusinessOperational#hasColumn> 			<http://www.assero.co.uk/MDRSdtmM/CDISC/V3#M-CDISC_SDTMMODEL_xxSCONG> . 
<http://www.assero.co.uk/MDRSdtmMd/CDISC/V3#M-CDISC_SDTMMODELEVENTS_xxENRTPT> 			<http://www.w3.org/2000/01/rdf-schema#label> 			"End Relative to Reference Time Point" . 
<http://www.assero.co.uk/MDRSdtmMd/CDISC/V3#M-CDISC_SDTMMODELEVENTS_xxENRTPT> 			<http://www.w3.org/1999/02/22-rdf-syntax-ns#type> 			<http://www.assero.co.uk/BusinessDomain#ClassVariable> . 
<http://www.assero.co.uk/MDRSdtmMd/CDISC/V3#M-CDISC_SDTMMODELEVENTS_xxENRTPT> 			<http://www.assero.co.uk/BusinessDomain#ordinal> 			"81" . 
<http://www.assero.co.uk/MDRSdtmMd/CDISC/V3#M-CDISC_SDTMMODELEVENTS_xxENRTPT> 			<http://www.assero.co.uk/BusinessDomain#name> 			"--ENRTPT" . 
<http://www.assero.co.uk/MDRSdtmMd/CDISC/V3#M-CDISC_SDTMMODELEVENTS_xxENRTPT> 			<http://www.assero.co.uk/BusinessDomain#rule> 			"" . 
<http://www.assero.co.uk/MDRSdtmMd/CDISC/V3#M-CDISC_SDTMMODELEVENTS_xxENRTPT> 			<http://www.assero.co.uk/BusinessDomain#basedOnVariable> 			<http://www.assero.co.uk/MDRSdtmMd/CDISC/V3#M-CDISC_SDTMMODELEVENTS_xxENRTPT_CR1> . 
<http://www.assero.co.uk/MDRSdtmMd/CDISC/V3#M-CDISC_SDTMMODELEVENTS_xxENRTPT_CR1> 			<http://www.w3.org/2000/01/rdf-schema#label> 			"Based on Variable Reference" . 
<http://www.assero.co.uk/MDRSdtmMd/CDISC/V3#M-CDISC_SDTMMODELEVENTS_xxENRTPT_CR1> 			<http://www.w3.org/1999/02/22-rdf-syntax-ns#type> 			<http://www.assero.co.uk/BusinessOperational#CReference> . 
<http://www.assero.co.uk/MDRSdtmMd/CDISC/V3#M-CDISC_SDTMMODELEVENTS_xxENRTPT_CR1> 			<http://www.assero.co.uk/BusinessOperational#optional> 			"false" . 
<http://www.assero.co.uk/MDRSdtmMd/CDISC/V3#M-CDISC_SDTMMODELEVENTS_xxENRTPT_CR1> 			<http://www.assero.co.uk/BusinessOperational#local_label> 			"" . 
<http://www.assero.co.uk/MDRSdtmMd/CDISC/V3#M-CDISC_SDTMMODELEVENTS_xxENRTPT_CR1> 			<http://www.assero.co.uk/BusinessOperational#enabled> 			"true" . 
<http://www.assero.co.uk/MDRSdtmMd/CDISC/V3#M-CDISC_SDTMMODELEVENTS_xxENRTPT_CR1> 			<http://www.assero.co.uk/BusinessOperational#ordinal> 			"1" . 
<http://www.assero.co.uk/MDRSdtmMd/CDISC/V3#M-CDISC_SDTMMODELEVENTS_xxENRTPT_CR1> 			<http://www.assero.co.uk/BusinessOperational#hasColumn> 			<http://www.assero.co.uk/MDRSdtmM/CDISC/V3#M-CDISC_SDTMMODEL_xxENRTPT> . 
<http://www.assero.co.uk/MDRSdtmMd/CDISC/V3#M-CDISC_SDTMMODELEVENTS_xxSHOSP> 			<http://www.w3.org/2000/01/rdf-schema#label> 			"Requires or Prolongs Hospitalization" . 
<http://www.assero.co.uk/MDRSdtmMd/CDISC/V3#M-CDISC_SDTMMODELEVENTS_xxSHOSP> 			<http://www.w3.org/1999/02/22-rdf-syntax-ns#type> 			<http://www.assero.co.uk/BusinessDomain#ClassVariable> . 
<http://www.assero.co.uk/MDRSdtmMd/CDISC/V3#M-CDISC_SDTMMODELEVENTS_xxSHOSP> 			<http://www.assero.co.uk/BusinessDomain#ordinal> 			"51" . 
<http://www.assero.co.uk/MDRSdtmMd/CDISC/V3#M-CDISC_SDTMMODELEVENTS_xxSHOSP> 			<http://www.assero.co.uk/BusinessDomain#name> 			"--SHOSP" . 
<http://www.assero.co.uk/MDRSdtmMd/CDISC/V3#M-CDISC_SDTMMODELEVENTS_xxSHOSP> 			<http://www.assero.co.uk/BusinessDomain#rule> 			"" . 
<http://www.assero.co.uk/MDRSdtmMd/CDISC/V3#M-CDISC_SDTMMODELEVENTS_xxSHOSP> 			<http://www.assero.co.uk/BusinessDomain#basedOnVariable> 			<http://www.assero.co.uk/MDRSdtmMd/CDISC/V3#M-CDISC_SDTMMODELEVENTS_xxSHOSP_CR1> . 
<http://www.assero.co.uk/MDRSdtmMd/CDISC/V3#M-CDISC_SDTMMODELEVENTS_xxSHOSP_CR1> 			<http://www.w3.org/2000/01/rdf-schema#label> 			"Based on Variable Reference" . 
<http://www.assero.co.uk/MDRSdtmMd/CDISC/V3#M-CDISC_SDTMMODELEVENTS_xxSHOSP_CR1> 			<http://www.w3.org/1999/02/22-rdf-syntax-ns#type> 			<http://www.assero.co.uk/BusinessOperational#CReference> . 
<http://www.assero.co.uk/MDRSdtmMd/CDISC/V3#M-CDISC_SDTMMODELEVENTS_xxSHOSP_CR1> 			<http://www.assero.co.uk/BusinessOperational#optional> 			"false" . 
<http://www.assero.co.uk/MDRSdtmMd/CDISC/V3#M-CDISC_SDTMMODELEVENTS_xxSHOSP_CR1> 			<http://www.assero.co.uk/BusinessOperational#local_label> 			"" . 
<http://www.assero.co.uk/MDRSdtmMd/CDISC/V3#M-CDISC_SDTMMODELEVENTS_xxSHOSP_CR1> 			<http://www.assero.co.uk/BusinessOperational#enabled> 			"true" . 
<http://www.assero.co.uk/MDRSdtmMd/CDISC/V3#M-CDISC_SDTMMODELEVENTS_xxSHOSP_CR1> 			<http://www.assero.co.uk/BusinessOperational#ordinal> 			"1" . 
<http://www.assero.co.uk/MDRSdtmMd/CDISC/V3#M-CDISC_SDTMMODELEVENTS_xxSHOSP_CR1> 			<http://www.assero.co.uk/BusinessOperational#hasColumn> 			<http://www.assero.co.uk/MDRSdtmM/CDISC/V3#M-CDISC_SDTMMODEL_xxSHOSP> . 
<http://www.assero.co.uk/MDRSdtmMd/CDISC/V3#M-CDISC_SDTMMODELEVENTS_xxENRF> 			<http://www.w3.org/2000/01/rdf-schema#label> 			"End Relative to Reference Period" . 
<http://www.assero.co.uk/MDRSdtmMd/CDISC/V3#M-CDISC_SDTMMODELEVENTS_xxENRF> 			<http://www.w3.org/1999/02/22-rdf-syntax-ns#type> 			<http://www.assero.co.uk/BusinessDomain#ClassVariable> . 
<http://www.assero.co.uk/MDRSdtmMd/CDISC/V3#M-CDISC_SDTMMODELEVENTS_xxENRF> 			<http://www.assero.co.uk/BusinessDomain#ordinal> 			"76" . 
<http://www.assero.co.uk/MDRSdtmMd/CDISC/V3#M-CDISC_SDTMMODELEVENTS_xxENRF> 			<http://www.assero.co.uk/BusinessDomain#name> 			"--ENRF" . 
<http://www.assero.co.uk/MDRSdtmMd/CDISC/V3#M-CDISC_SDTMMODELEVENTS_xxENRF> 			<http://www.assero.co.uk/BusinessDomain#rule> 			"" . 
<http://www.assero.co.uk/MDRSdtmMd/CDISC/V3#M-CDISC_SDTMMODELEVENTS_xxENRF> 			<http://www.assero.co.uk/BusinessDomain#basedOnVariable> 			<http://www.assero.co.uk/MDRSdtmMd/CDISC/V3#M-CDISC_SDTMMODELEVENTS_xxENRF_CR1> . 
<http://www.assero.co.uk/MDRSdtmMd/CDISC/V3#M-CDISC_SDTMMODELEVENTS_xxENRF_CR1> 			<http://www.w3.org/2000/01/rdf-schema#label> 			"Based on Variable Reference" . 
<http://www.assero.co.uk/MDRSdtmMd/CDISC/V3#M-CDISC_SDTMMODELEVENTS_xxENRF_CR1> 			<http://www.w3.org/1999/02/22-rdf-syntax-ns#type> 			<http://www.assero.co.uk/BusinessOperational#CReference> . 
<http://www.assero.co.uk/MDRSdtmMd/CDISC/V3#M-CDISC_SDTMMODELEVENTS_xxENRF_CR1> 			<http://www.assero.co.uk/BusinessOperational#optional> 			"false" . 
<http://www.assero.co.uk/MDRSdtmMd/CDISC/V3#M-CDISC_SDTMMODELEVENTS_xxENRF_CR1> 			<http://www.assero.co.uk/BusinessOperational#local_label> 			"" . 
<http://www.assero.co.uk/MDRSdtmMd/CDISC/V3#M-CDISC_SDTMMODELEVENTS_xxENRF_CR1> 			<http://www.assero.co.uk/BusinessOperational#enabled> 			"true" . 
<http://www.assero.co.uk/MDRSdtmMd/CDISC/V3#M-CDISC_SDTMMODELEVENTS_xxENRF_CR1> 			<http://www.assero.co.uk/BusinessOperational#ordinal> 			"1" . 
<http://www.assero.co.uk/MDRSdtmMd/CDISC/V3#M-CDISC_SDTMMODELEVENTS_xxENRF_CR1> 			<http://www.assero.co.uk/BusinessOperational#hasColumn> 			<http://www.assero.co.uk/MDRSdtmM/CDISC/V3#M-CDISC_SDTMMODEL_xxENRF> . 
<http://www.assero.co.uk/MDRSdtmMd/CDISC/V3#M-CDISC_SDTMMODELEVENTS_xxDECOD> 			<http://www.w3.org/2000/01/rdf-schema#label> 			"Dictionary-Derived Term" . 
<http://www.assero.co.uk/MDRSdtmMd/CDISC/V3#M-CDISC_SDTMMODELEVENTS_xxDECOD> 			<http://www.w3.org/1999/02/22-rdf-syntax-ns#type> 			<http://www.assero.co.uk/BusinessDomain#ClassVariable> . 
<http://www.assero.co.uk/MDRSdtmMd/CDISC/V3#M-CDISC_SDTMMODELEVENTS_xxDECOD> 			<http://www.assero.co.uk/BusinessDomain#ordinal> 			"16" . 
<http://www.assero.co.uk/MDRSdtmMd/CDISC/V3#M-CDISC_SDTMMODELEVENTS_xxDECOD> 			<http://www.assero.co.uk/BusinessDomain#name> 			"--DECOD" . 
<http://www.assero.co.uk/MDRSdtmMd/CDISC/V3#M-CDISC_SDTMMODELEVENTS_xxDECOD> 			<http://www.assero.co.uk/BusinessDomain#rule> 			"" . 
<http://www.assero.co.uk/MDRSdtmMd/CDISC/V3#M-CDISC_SDTMMODELEVENTS_xxDECOD> 			<http://www.assero.co.uk/BusinessDomain#basedOnVariable> 			<http://www.assero.co.uk/MDRSdtmMd/CDISC/V3#M-CDISC_SDTMMODELEVENTS_xxDECOD_CR1> . 
<http://www.assero.co.uk/MDRSdtmMd/CDISC/V3#M-CDISC_SDTMMODELEVENTS_xxDECOD_CR1> 			<http://www.w3.org/2000/01/rdf-schema#label> 			"Based on Variable Reference" . 
<http://www.assero.co.uk/MDRSdtmMd/CDISC/V3#M-CDISC_SDTMMODELEVENTS_xxDECOD_CR1> 			<http://www.w3.org/1999/02/22-rdf-syntax-ns#type> 			<http://www.assero.co.uk/BusinessOperational#CReference> . 
<http://www.assero.co.uk/MDRSdtmMd/CDISC/V3#M-CDISC_SDTMMODELEVENTS_xxDECOD_CR1> 			<http://www.assero.co.uk/BusinessOperational#optional> 			"false" . 
<http://www.assero.co.uk/MDRSdtmMd/CDISC/V3#M-CDISC_SDTMMODELEVENTS_xxDECOD_CR1> 			<http://www.assero.co.uk/BusinessOperational#local_label> 			"" . 
<http://www.assero.co.uk/MDRSdtmMd/CDISC/V3#M-CDISC_SDTMMODELEVENTS_xxDECOD_CR1> 			<http://www.assero.co.uk/BusinessOperational#enabled> 			"true" . 
<http://www.assero.co.uk/MDRSdtmMd/CDISC/V3#M-CDISC_SDTMMODELEVENTS_xxDECOD_CR1> 			<http://www.assero.co.uk/BusinessOperational#ordinal> 			"1" . 
<http://www.assero.co.uk/MDRSdtmMd/CDISC/V3#M-CDISC_SDTMMODELEVENTS_xxDECOD_CR1> 			<http://www.assero.co.uk/BusinessOperational#hasColumn> 			<http://www.assero.co.uk/MDRSdtmM/CDISC/V3#M-CDISC_SDTMMODEL_xxDECOD> . 
<http://www.assero.co.uk/MDRSdtmMd/CDISC/V3#M-CDISC_SDTMMODELEVENTS_xxSDISAB> 			<http://www.w3.org/2000/01/rdf-schema#label> 			"Persist or Signif Disability/Incapacity" . 
<http://www.assero.co.uk/MDRSdtmMd/CDISC/V3#M-CDISC_SDTMMODELEVENTS_xxSDISAB> 			<http://www.w3.org/1999/02/22-rdf-syntax-ns#type> 			<http://www.assero.co.uk/BusinessDomain#ClassVariable> . 
<http://www.assero.co.uk/MDRSdtmMd/CDISC/V3#M-CDISC_SDTMMODELEVENTS_xxSDISAB> 			<http://www.assero.co.uk/BusinessDomain#ordinal> 			"49" . 
<http://www.assero.co.uk/MDRSdtmMd/CDISC/V3#M-CDISC_SDTMMODELEVENTS_xxSDISAB> 			<http://www.assero.co.uk/BusinessDomain#name> 			"--SDISAB" . 
<http://www.assero.co.uk/MDRSdtmMd/CDISC/V3#M-CDISC_SDTMMODELEVENTS_xxSDISAB> 			<http://www.assero.co.uk/BusinessDomain#rule> 			"" . 
<http://www.assero.co.uk/MDRSdtmMd/CDISC/V3#M-CDISC_SDTMMODELEVENTS_xxSDISAB> 			<http://www.assero.co.uk/BusinessDomain#basedOnVariable> 			<http://www.assero.co.uk/MDRSdtmMd/CDISC/V3#M-CDISC_SDTMMODELEVENTS_xxSDISAB_CR1> . 
<http://www.assero.co.uk/MDRSdtmMd/CDISC/V3#M-CDISC_SDTMMODELEVENTS_xxSDISAB_CR1> 			<http://www.w3.org/2000/01/rdf-schema#label> 			"Based on Variable Reference" . 
<http://www.assero.co.uk/MDRSdtmMd/CDISC/V3#M-CDISC_SDTMMODELEVENTS_xxSDISAB_CR1> 			<http://www.w3.org/1999/02/22-rdf-syntax-ns#type> 			<http://www.assero.co.uk/BusinessOperational#CReference> . 
<http://www.assero.co.uk/MDRSdtmMd/CDISC/V3#M-CDISC_SDTMMODELEVENTS_xxSDISAB_CR1> 			<http://www.assero.co.uk/BusinessOperational#optional> 			"false" . 
<http://www.assero.co.uk/MDRSdtmMd/CDISC/V3#M-CDISC_SDTMMODELEVENTS_xxSDISAB_CR1> 			<http://www.assero.co.uk/BusinessOperational#local_label> 			"" . 
<http://www.assero.co.uk/MDRSdtmMd/CDISC/V3#M-CDISC_SDTMMODELEVENTS_xxSDISAB_CR1> 			<http://www.assero.co.uk/BusinessOperational#enabled> 			"true" . 
<http://www.assero.co.uk/MDRSdtmMd/CDISC/V3#M-CDISC_SDTMMODELEVENTS_xxSDISAB_CR1> 			<http://www.assero.co.uk/BusinessOperational#ordinal> 			"1" . 
<http://www.assero.co.uk/MDRSdtmMd/CDISC/V3#M-CDISC_SDTMMODELEVENTS_xxSDISAB_CR1> 			<http://www.assero.co.uk/BusinessOperational#hasColumn> 			<http://www.assero.co.uk/MDRSdtmM/CDISC/V3#M-CDISC_SDTMMODEL_xxSDISAB> . 
<http://www.assero.co.uk/MDRSdtmMd/CDISC/V3#M-CDISC_SDTMMODELEVENTS_VISITDY> 			<http://www.w3.org/2000/01/rdf-schema#label> 			"Planned Study Day of Visit" . 
<http://www.assero.co.uk/MDRSdtmMd/CDISC/V3#M-CDISC_SDTMMODELEVENTS_VISITDY> 			<http://www.w3.org/1999/02/22-rdf-syntax-ns#type> 			<http://www.assero.co.uk/BusinessDomain#ClassVariable> . 
<http://www.assero.co.uk/MDRSdtmMd/CDISC/V3#M-CDISC_SDTMMODELEVENTS_VISITDY> 			<http://www.assero.co.uk/BusinessDomain#ordinal> 			"60" . 
<http://www.assero.co.uk/MDRSdtmMd/CDISC/V3#M-CDISC_SDTMMODELEVENTS_VISITDY> 			<http://www.assero.co.uk/BusinessDomain#name> 			"VISITDY" . 
<http://www.assero.co.uk/MDRSdtmMd/CDISC/V3#M-CDISC_SDTMMODELEVENTS_VISITDY> 			<http://www.assero.co.uk/BusinessDomain#rule> 			"" . 
<http://www.assero.co.uk/MDRSdtmMd/CDISC/V3#M-CDISC_SDTMMODELEVENTS_VISITDY> 			<http://www.assero.co.uk/BusinessDomain#basedOnVariable> 			<http://www.assero.co.uk/MDRSdtmMd/CDISC/V3#M-CDISC_SDTMMODELEVENTS_VISITDY_CR1> . 
<http://www.assero.co.uk/MDRSdtmMd/CDISC/V3#M-CDISC_SDTMMODELEVENTS_VISITDY_CR1> 			<http://www.w3.org/2000/01/rdf-schema#label> 			"Based on Variable Reference" . 
<http://www.assero.co.uk/MDRSdtmMd/CDISC/V3#M-CDISC_SDTMMODELEVENTS_VISITDY_CR1> 			<http://www.w3.org/1999/02/22-rdf-syntax-ns#type> 			<http://www.assero.co.uk/BusinessOperational#CReference> . 
<http://www.assero.co.uk/MDRSdtmMd/CDISC/V3#M-CDISC_SDTMMODELEVENTS_VISITDY_CR1> 			<http://www.assero.co.uk/BusinessOperational#optional> 			"false" . 
<http://www.assero.co.uk/MDRSdtmMd/CDISC/V3#M-CDISC_SDTMMODELEVENTS_VISITDY_CR1> 			<http://www.assero.co.uk/BusinessOperational#local_label> 			"" . 
<http://www.assero.co.uk/MDRSdtmMd/CDISC/V3#M-CDISC_SDTMMODELEVENTS_VISITDY_CR1> 			<http://www.assero.co.uk/BusinessOperational#enabled> 			"true" . 
<http://www.assero.co.uk/MDRSdtmMd/CDISC/V3#M-CDISC_SDTMMODELEVENTS_VISITDY_CR1> 			<http://www.assero.co.uk/BusinessOperational#ordinal> 			"1" . 
<http://www.assero.co.uk/MDRSdtmMd/CDISC/V3#M-CDISC_SDTMMODELEVENTS_VISITDY_CR1> 			<http://www.assero.co.uk/BusinessOperational#hasColumn> 			<http://www.assero.co.uk/MDRSdtmM/CDISC/V3#M-CDISC_SDTMMODEL_VISITDY> . 
<http://www.assero.co.uk/MDRSdtmMd/CDISC/V3#M-CDISC_SDTMMODELEVENTS_VISIT> 			<http://www.w3.org/2000/01/rdf-schema#label> 			"Visit Name" . 
<http://www.assero.co.uk/MDRSdtmMd/CDISC/V3#M-CDISC_SDTMMODELEVENTS_VISIT> 			<http://www.w3.org/1999/02/22-rdf-syntax-ns#type> 			<http://www.assero.co.uk/BusinessDomain#ClassVariable> . 
<http://www.assero.co.uk/MDRSdtmMd/CDISC/V3#M-CDISC_SDTMMODELEVENTS_VISIT> 			<http://www.assero.co.uk/BusinessDomain#ordinal> 			"59" . 
<http://www.assero.co.uk/MDRSdtmMd/CDISC/V3#M-CDISC_SDTMMODELEVENTS_VISIT> 			<http://www.assero.co.uk/BusinessDomain#name> 			"VISIT" . 
<http://www.assero.co.uk/MDRSdtmMd/CDISC/V3#M-CDISC_SDTMMODELEVENTS_VISIT> 			<http://www.assero.co.uk/BusinessDomain#rule> 			"" . 
<http://www.assero.co.uk/MDRSdtmMd/CDISC/V3#M-CDISC_SDTMMODELEVENTS_VISIT> 			<http://www.assero.co.uk/BusinessDomain#basedOnVariable> 			<http://www.assero.co.uk/MDRSdtmMd/CDISC/V3#M-CDISC_SDTMMODELEVENTS_VISIT_CR1> . 
<http://www.assero.co.uk/MDRSdtmMd/CDISC/V3#M-CDISC_SDTMMODELEVENTS_VISIT_CR1> 			<http://www.w3.org/2000/01/rdf-schema#label> 			"Based on Variable Reference" . 
<http://www.assero.co.uk/MDRSdtmMd/CDISC/V3#M-CDISC_SDTMMODELEVENTS_VISIT_CR1> 			<http://www.w3.org/1999/02/22-rdf-syntax-ns#type> 			<http://www.assero.co.uk/BusinessOperational#CReference> . 
<http://www.assero.co.uk/MDRSdtmMd/CDISC/V3#M-CDISC_SDTMMODELEVENTS_VISIT_CR1> 			<http://www.assero.co.uk/BusinessOperational#optional> 			"false" . 
<http://www.assero.co.uk/MDRSdtmMd/CDISC/V3#M-CDISC_SDTMMODELEVENTS_VISIT_CR1> 			<http://www.assero.co.uk/BusinessOperational#local_label> 			"" . 
<http://www.assero.co.uk/MDRSdtmMd/CDISC/V3#M-CDISC_SDTMMODELEVENTS_VISIT_CR1> 			<http://www.assero.co.uk/BusinessOperational#enabled> 			"true" . 
<http://www.assero.co.uk/MDRSdtmMd/CDISC/V3#M-CDISC_SDTMMODELEVENTS_VISIT_CR1> 			<http://www.assero.co.uk/BusinessOperational#ordinal> 			"1" . 
<http://www.assero.co.uk/MDRSdtmMd/CDISC/V3#M-CDISC_SDTMMODELEVENTS_VISIT_CR1> 			<http://www.assero.co.uk/BusinessOperational#hasColumn> 			<http://www.assero.co.uk/MDRSdtmM/CDISC/V3#M-CDISC_SDTMMODEL_VISIT> . 
<http://www.assero.co.uk/MDRSdtmMd/CDISC/V3#M-CDISC_SDTMMODELEVENTS_xxDTC> 			<http://www.w3.org/2000/01/rdf-schema#label> 			"Date/Time of Collection" . 
<http://www.assero.co.uk/MDRSdtmMd/CDISC/V3#M-CDISC_SDTMMODELEVENTS_xxDTC> 			<http://www.w3.org/1999/02/22-rdf-syntax-ns#type> 			<http://www.assero.co.uk/BusinessDomain#ClassVariable> . 
<http://www.assero.co.uk/MDRSdtmMd/CDISC/V3#M-CDISC_SDTMMODELEVENTS_xxDTC> 			<http://www.assero.co.uk/BusinessDomain#ordinal> 			"63" . 
<http://www.assero.co.uk/MDRSdtmMd/CDISC/V3#M-CDISC_SDTMMODELEVENTS_xxDTC> 			<http://www.assero.co.uk/BusinessDomain#name> 			"--DTC" . 
<http://www.assero.co.uk/MDRSdtmMd/CDISC/V3#M-CDISC_SDTMMODELEVENTS_xxDTC> 			<http://www.assero.co.uk/BusinessDomain#rule> 			"" . 
<http://www.assero.co.uk/MDRSdtmMd/CDISC/V3#M-CDISC_SDTMMODELEVENTS_xxDTC> 			<http://www.assero.co.uk/BusinessDomain#basedOnVariable> 			<http://www.assero.co.uk/MDRSdtmMd/CDISC/V3#M-CDISC_SDTMMODELEVENTS_xxDTC_CR1> . 
<http://www.assero.co.uk/MDRSdtmMd/CDISC/V3#M-CDISC_SDTMMODELEVENTS_xxDTC_CR1> 			<http://www.w3.org/2000/01/rdf-schema#label> 			"Based on Variable Reference" . 
<http://www.assero.co.uk/MDRSdtmMd/CDISC/V3#M-CDISC_SDTMMODELEVENTS_xxDTC_CR1> 			<http://www.w3.org/1999/02/22-rdf-syntax-ns#type> 			<http://www.assero.co.uk/BusinessOperational#CReference> . 
<http://www.assero.co.uk/MDRSdtmMd/CDISC/V3#M-CDISC_SDTMMODELEVENTS_xxDTC_CR1> 			<http://www.assero.co.uk/BusinessOperational#optional> 			"false" . 
<http://www.assero.co.uk/MDRSdtmMd/CDISC/V3#M-CDISC_SDTMMODELEVENTS_xxDTC_CR1> 			<http://www.assero.co.uk/BusinessOperational#local_label> 			"" . 
<http://www.assero.co.uk/MDRSdtmMd/CDISC/V3#M-CDISC_SDTMMODELEVENTS_xxDTC_CR1> 			<http://www.assero.co.uk/BusinessOperational#enabled> 			"true" . 
<http://www.assero.co.uk/MDRSdtmMd/CDISC/V3#M-CDISC_SDTMMODELEVENTS_xxDTC_CR1> 			<http://www.assero.co.uk/BusinessOperational#ordinal> 			"1" . 
<http://www.assero.co.uk/MDRSdtmMd/CDISC/V3#M-CDISC_SDTMMODELEVENTS_xxDTC_CR1> 			<http://www.assero.co.uk/BusinessOperational#hasColumn> 			<http://www.assero.co.uk/MDRSdtmM/CDISC/V3#M-CDISC_SDTMMODEL_xxDTC> . 
<http://www.assero.co.uk/MDRSdtmMd/CDISC/V3#M-CDISC_SDTMMODELEVENTS_xxTPTNUM> 			<http://www.w3.org/2000/01/rdf-schema#label> 			"Planned Time Point Number" . 
<http://www.assero.co.uk/MDRSdtmMd/CDISC/V3#M-CDISC_SDTMMODELEVENTS_xxTPTNUM> 			<http://www.w3.org/1999/02/22-rdf-syntax-ns#type> 			<http://www.assero.co.uk/BusinessDomain#ClassVariable> . 
<http://www.assero.co.uk/MDRSdtmMd/CDISC/V3#M-CDISC_SDTMMODELEVENTS_xxTPTNUM> 			<http://www.assero.co.uk/BusinessDomain#ordinal> 			"71" . 
<http://www.assero.co.uk/MDRSdtmMd/CDISC/V3#M-CDISC_SDTMMODELEVENTS_xxTPTNUM> 			<http://www.assero.co.uk/BusinessDomain#name> 			"--TPTNUM" . 
<http://www.assero.co.uk/MDRSdtmMd/CDISC/V3#M-CDISC_SDTMMODELEVENTS_xxTPTNUM> 			<http://www.assero.co.uk/BusinessDomain#rule> 			"" . 
<http://www.assero.co.uk/MDRSdtmMd/CDISC/V3#M-CDISC_SDTMMODELEVENTS_xxTPTNUM> 			<http://www.assero.co.uk/BusinessDomain#basedOnVariable> 			<http://www.assero.co.uk/MDRSdtmMd/CDISC/V3#M-CDISC_SDTMMODELEVENTS_xxTPTNUM_CR1> . 
<http://www.assero.co.uk/MDRSdtmMd/CDISC/V3#M-CDISC_SDTMMODELEVENTS_xxTPTNUM_CR1> 			<http://www.w3.org/2000/01/rdf-schema#label> 			"Based on Variable Reference" . 
<http://www.assero.co.uk/MDRSdtmMd/CDISC/V3#M-CDISC_SDTMMODELEVENTS_xxTPTNUM_CR1> 			<http://www.w3.org/1999/02/22-rdf-syntax-ns#type> 			<http://www.assero.co.uk/BusinessOperational#CReference> . 
<http://www.assero.co.uk/MDRSdtmMd/CDISC/V3#M-CDISC_SDTMMODELEVENTS_xxTPTNUM_CR1> 			<http://www.assero.co.uk/BusinessOperational#optional> 			"false" . 
<http://www.assero.co.uk/MDRSdtmMd/CDISC/V3#M-CDISC_SDTMMODELEVENTS_xxTPTNUM_CR1> 			<http://www.assero.co.uk/BusinessOperational#local_label> 			"" . 
<http://www.assero.co.uk/MDRSdtmMd/CDISC/V3#M-CDISC_SDTMMODELEVENTS_xxTPTNUM_CR1> 			<http://www.assero.co.uk/BusinessOperational#enabled> 			"true" . 
<http://www.assero.co.uk/MDRSdtmMd/CDISC/V3#M-CDISC_SDTMMODELEVENTS_xxTPTNUM_CR1> 			<http://www.assero.co.uk/BusinessOperational#ordinal> 			"1" . 
<http://www.assero.co.uk/MDRSdtmMd/CDISC/V3#M-CDISC_SDTMMODELEVENTS_xxTPTNUM_CR1> 			<http://www.assero.co.uk/BusinessOperational#hasColumn> 			<http://www.assero.co.uk/MDRSdtmM/CDISC/V3#M-CDISC_SDTMMODEL_xxTPTNUM> . 
<http://www.assero.co.uk/MDRSdtmMd/CDISC/V3#M-CDISC_SDTMMODELEVENTS_xxTPT> 			<http://www.w3.org/2000/01/rdf-schema#label> 			"Planned Time Point Name" . 
<http://www.assero.co.uk/MDRSdtmMd/CDISC/V3#M-CDISC_SDTMMODELEVENTS_xxTPT> 			<http://www.w3.org/1999/02/22-rdf-syntax-ns#type> 			<http://www.assero.co.uk/BusinessDomain#ClassVariable> . 
<http://www.assero.co.uk/MDRSdtmMd/CDISC/V3#M-CDISC_SDTMMODELEVENTS_xxTPT> 			<http://www.assero.co.uk/BusinessDomain#ordinal> 			"70" . 
<http://www.assero.co.uk/MDRSdtmMd/CDISC/V3#M-CDISC_SDTMMODELEVENTS_xxTPT> 			<http://www.assero.co.uk/BusinessDomain#name> 			"--TPT" . 
<http://www.assero.co.uk/MDRSdtmMd/CDISC/V3#M-CDISC_SDTMMODELEVENTS_xxTPT> 			<http://www.assero.co.uk/BusinessDomain#rule> 			"" . 
<http://www.assero.co.uk/MDRSdtmMd/CDISC/V3#M-CDISC_SDTMMODELEVENTS_xxTPT> 			<http://www.assero.co.uk/BusinessDomain#basedOnVariable> 			<http://www.assero.co.uk/MDRSdtmMd/CDISC/V3#M-CDISC_SDTMMODELEVENTS_xxTPT_CR1> . 
<http://www.assero.co.uk/MDRSdtmMd/CDISC/V3#M-CDISC_SDTMMODELEVENTS_xxTPT_CR1> 			<http://www.w3.org/2000/01/rdf-schema#label> 			"Based on Variable Reference" . 
<http://www.assero.co.uk/MDRSdtmMd/CDISC/V3#M-CDISC_SDTMMODELEVENTS_xxTPT_CR1> 			<http://www.w3.org/1999/02/22-rdf-syntax-ns#type> 			<http://www.assero.co.uk/BusinessOperational#CReference> . 
<http://www.assero.co.uk/MDRSdtmMd/CDISC/V3#M-CDISC_SDTMMODELEVENTS_xxTPT_CR1> 			<http://www.assero.co.uk/BusinessOperational#optional> 			"false" . 
<http://www.assero.co.uk/MDRSdtmMd/CDISC/V3#M-CDISC_SDTMMODELEVENTS_xxTPT_CR1> 			<http://www.assero.co.uk/BusinessOperational#local_label> 			"" . 
<http://www.assero.co.uk/MDRSdtmMd/CDISC/V3#M-CDISC_SDTMMODELEVENTS_xxTPT_CR1> 			<http://www.assero.co.uk/BusinessOperational#enabled> 			"true" . 
<http://www.assero.co.uk/MDRSdtmMd/CDISC/V3#M-CDISC_SDTMMODELEVENTS_xxTPT_CR1> 			<http://www.assero.co.uk/BusinessOperational#ordinal> 			"1" . 
<http://www.assero.co.uk/MDRSdtmMd/CDISC/V3#M-CDISC_SDTMMODELEVENTS_xxTPT_CR1> 			<http://www.assero.co.uk/BusinessOperational#hasColumn> 			<http://www.assero.co.uk/MDRSdtmM/CDISC/V3#M-CDISC_SDTMMODEL_xxTPT> . 
<http://www.assero.co.uk/MDRSdtmMd/CDISC/V3#M-CDISC_SDTMMODELEVENTS_VISITNUM> 			<http://www.w3.org/2000/01/rdf-schema#label> 			"Visit Number" . 
<http://www.assero.co.uk/MDRSdtmMd/CDISC/V3#M-CDISC_SDTMMODELEVENTS_VISITNUM> 			<http://www.w3.org/1999/02/22-rdf-syntax-ns#type> 			<http://www.assero.co.uk/BusinessDomain#ClassVariable> . 
<http://www.assero.co.uk/MDRSdtmMd/CDISC/V3#M-CDISC_SDTMMODELEVENTS_VISITNUM> 			<http://www.assero.co.uk/BusinessDomain#ordinal> 			"58" . 
<http://www.assero.co.uk/MDRSdtmMd/CDISC/V3#M-CDISC_SDTMMODELEVENTS_VISITNUM> 			<http://www.assero.co.uk/BusinessDomain#name> 			"VISITNUM" . 
<http://www.assero.co.uk/MDRSdtmMd/CDISC/V3#M-CDISC_SDTMMODELEVENTS_VISITNUM> 			<http://www.assero.co.uk/BusinessDomain#rule> 			"" . 
<http://www.assero.co.uk/MDRSdtmMd/CDISC/V3#M-CDISC_SDTMMODELEVENTS_VISITNUM> 			<http://www.assero.co.uk/BusinessDomain#basedOnVariable> 			<http://www.assero.co.uk/MDRSdtmMd/CDISC/V3#M-CDISC_SDTMMODELEVENTS_VISITNUM_CR1> . 
<http://www.assero.co.uk/MDRSdtmMd/CDISC/V3#M-CDISC_SDTMMODELEVENTS_VISITNUM_CR1> 			<http://www.w3.org/2000/01/rdf-schema#label> 			"Based on Variable Reference" . 
<http://www.assero.co.uk/MDRSdtmMd/CDISC/V3#M-CDISC_SDTMMODELEVENTS_VISITNUM_CR1> 			<http://www.w3.org/1999/02/22-rdf-syntax-ns#type> 			<http://www.assero.co.uk/BusinessOperational#CReference> . 
<http://www.assero.co.uk/MDRSdtmMd/CDISC/V3#M-CDISC_SDTMMODELEVENTS_VISITNUM_CR1> 			<http://www.assero.co.uk/BusinessOperational#optional> 			"false" . 
<http://www.assero.co.uk/MDRSdtmMd/CDISC/V3#M-CDISC_SDTMMODELEVENTS_VISITNUM_CR1> 			<http://www.assero.co.uk/BusinessOperational#local_label> 			"" . 
<http://www.assero.co.uk/MDRSdtmMd/CDISC/V3#M-CDISC_SDTMMODELEVENTS_VISITNUM_CR1> 			<http://www.assero.co.uk/BusinessOperational#enabled> 			"true" . 
<http://www.assero.co.uk/MDRSdtmMd/CDISC/V3#M-CDISC_SDTMMODELEVENTS_VISITNUM_CR1> 			<http://www.assero.co.uk/BusinessOperational#ordinal> 			"1" . 
<http://www.assero.co.uk/MDRSdtmMd/CDISC/V3#M-CDISC_SDTMMODELEVENTS_VISITNUM_CR1> 			<http://www.assero.co.uk/BusinessOperational#hasColumn> 			<http://www.assero.co.uk/MDRSdtmM/CDISC/V3#M-CDISC_SDTMMODEL_VISITNUM> . 
<http://www.assero.co.uk/MDRSdtmMd/CDISC/V3#M-CDISC_SDTMMODELEVENTS_xxREFID> 			<http://www.w3.org/2000/01/rdf-schema#label> 			"Reference ID" . 
<http://www.assero.co.uk/MDRSdtmMd/CDISC/V3#M-CDISC_SDTMMODELEVENTS_xxREFID> 			<http://www.w3.org/1999/02/22-rdf-syntax-ns#type> 			<http://www.assero.co.uk/BusinessDomain#ClassVariable> . 
<http://www.assero.co.uk/MDRSdtmMd/CDISC/V3#M-CDISC_SDTMMODELEVENTS_xxREFID> 			<http://www.assero.co.uk/BusinessDomain#ordinal> 			"8" . 
<http://www.assero.co.uk/MDRSdtmMd/CDISC/V3#M-CDISC_SDTMMODELEVENTS_xxREFID> 			<http://www.assero.co.uk/BusinessDomain#name> 			"--REFID" . 
<http://www.assero.co.uk/MDRSdtmMd/CDISC/V3#M-CDISC_SDTMMODELEVENTS_xxREFID> 			<http://www.assero.co.uk/BusinessDomain#rule> 			"" . 
<http://www.assero.co.uk/MDRSdtmMd/CDISC/V3#M-CDISC_SDTMMODELEVENTS_xxREFID> 			<http://www.assero.co.uk/BusinessDomain#basedOnVariable> 			<http://www.assero.co.uk/MDRSdtmMd/CDISC/V3#M-CDISC_SDTMMODELEVENTS_xxREFID_CR1> . 
<http://www.assero.co.uk/MDRSdtmMd/CDISC/V3#M-CDISC_SDTMMODELEVENTS_xxREFID_CR1> 			<http://www.w3.org/2000/01/rdf-schema#label> 			"Based on Variable Reference" . 
<http://www.assero.co.uk/MDRSdtmMd/CDISC/V3#M-CDISC_SDTMMODELEVENTS_xxREFID_CR1> 			<http://www.w3.org/1999/02/22-rdf-syntax-ns#type> 			<http://www.assero.co.uk/BusinessOperational#CReference> . 
<http://www.assero.co.uk/MDRSdtmMd/CDISC/V3#M-CDISC_SDTMMODELEVENTS_xxREFID_CR1> 			<http://www.assero.co.uk/BusinessOperational#optional> 			"false" . 
<http://www.assero.co.uk/MDRSdtmMd/CDISC/V3#M-CDISC_SDTMMODELEVENTS_xxREFID_CR1> 			<http://www.assero.co.uk/BusinessOperational#local_label> 			"" . 
<http://www.assero.co.uk/MDRSdtmMd/CDISC/V3#M-CDISC_SDTMMODELEVENTS_xxREFID_CR1> 			<http://www.assero.co.uk/BusinessOperational#enabled> 			"true" . 
<http://www.assero.co.uk/MDRSdtmMd/CDISC/V3#M-CDISC_SDTMMODELEVENTS_xxREFID_CR1> 			<http://www.assero.co.uk/BusinessOperational#ordinal> 			"1" . 
<http://www.assero.co.uk/MDRSdtmMd/CDISC/V3#M-CDISC_SDTMMODELEVENTS_xxREFID_CR1> 			<http://www.assero.co.uk/BusinessOperational#hasColumn> 			<http://www.assero.co.uk/MDRSdtmM/CDISC/V3#M-CDISC_SDTMMODEL_xxREFID> . 
<http://www.assero.co.uk/MDRSdtmMd/CDISC/V3#M-CDISC_SDTMMODELEVENTS_xxSDTH> 			<http://www.w3.org/2000/01/rdf-schema#label> 			"Results in Death" . 
<http://www.assero.co.uk/MDRSdtmMd/CDISC/V3#M-CDISC_SDTMMODELEVENTS_xxSDTH> 			<http://www.w3.org/1999/02/22-rdf-syntax-ns#type> 			<http://www.assero.co.uk/BusinessDomain#ClassVariable> . 
<http://www.assero.co.uk/MDRSdtmMd/CDISC/V3#M-CDISC_SDTMMODELEVENTS_xxSDTH> 			<http://www.assero.co.uk/BusinessDomain#ordinal> 			"50" . 
<http://www.assero.co.uk/MDRSdtmMd/CDISC/V3#M-CDISC_SDTMMODELEVENTS_xxSDTH> 			<http://www.assero.co.uk/BusinessDomain#name> 			"--SDTH" . 
<http://www.assero.co.uk/MDRSdtmMd/CDISC/V3#M-CDISC_SDTMMODELEVENTS_xxSDTH> 			<http://www.assero.co.uk/BusinessDomain#rule> 			"" . 
<http://www.assero.co.uk/MDRSdtmMd/CDISC/V3#M-CDISC_SDTMMODELEVENTS_xxSDTH> 			<http://www.assero.co.uk/BusinessDomain#basedOnVariable> 			<http://www.assero.co.uk/MDRSdtmMd/CDISC/V3#M-CDISC_SDTMMODELEVENTS_xxSDTH_CR1> . 
<http://www.assero.co.uk/MDRSdtmMd/CDISC/V3#M-CDISC_SDTMMODELEVENTS_xxSDTH_CR1> 			<http://www.w3.org/2000/01/rdf-schema#label> 			"Based on Variable Reference" . 
<http://www.assero.co.uk/MDRSdtmMd/CDISC/V3#M-CDISC_SDTMMODELEVENTS_xxSDTH_CR1> 			<http://www.w3.org/1999/02/22-rdf-syntax-ns#type> 			<http://www.assero.co.uk/BusinessOperational#CReference> . 
<http://www.assero.co.uk/MDRSdtmMd/CDISC/V3#M-CDISC_SDTMMODELEVENTS_xxSDTH_CR1> 			<http://www.assero.co.uk/BusinessOperational#optional> 			"false" . 
<http://www.assero.co.uk/MDRSdtmMd/CDISC/V3#M-CDISC_SDTMMODELEVENTS_xxSDTH_CR1> 			<http://www.assero.co.uk/BusinessOperational#local_label> 			"" . 
<http://www.assero.co.uk/MDRSdtmMd/CDISC/V3#M-CDISC_SDTMMODELEVENTS_xxSDTH_CR1> 			<http://www.assero.co.uk/BusinessOperational#enabled> 			"true" . 
<http://www.assero.co.uk/MDRSdtmMd/CDISC/V3#M-CDISC_SDTMMODELEVENTS_xxSDTH_CR1> 			<http://www.assero.co.uk/BusinessOperational#ordinal> 			"1" . 
<http://www.assero.co.uk/MDRSdtmMd/CDISC/V3#M-CDISC_SDTMMODELEVENTS_xxSDTH_CR1> 			<http://www.assero.co.uk/BusinessOperational#hasColumn> 			<http://www.assero.co.uk/MDRSdtmM/CDISC/V3#M-CDISC_SDTMMODEL_xxSDTH> . 
<http://www.assero.co.uk/MDRSdtmMd/CDISC/V3#M-CDISC_SDTMMODELEVENTS_xxHLGTCD> 			<http://www.w3.org/2000/01/rdf-schema#label> 			"High Level Group Term Code" . 
<http://www.assero.co.uk/MDRSdtmMd/CDISC/V3#M-CDISC_SDTMMODELEVENTS_xxHLGTCD> 			<http://www.w3.org/1999/02/22-rdf-syntax-ns#type> 			<http://www.assero.co.uk/BusinessDomain#ClassVariable> . 
<http://www.assero.co.uk/MDRSdtmMd/CDISC/V3#M-CDISC_SDTMMODELEVENTS_xxHLGTCD> 			<http://www.assero.co.uk/BusinessDomain#ordinal> 			"21" . 
<http://www.assero.co.uk/MDRSdtmMd/CDISC/V3#M-CDISC_SDTMMODELEVENTS_xxHLGTCD> 			<http://www.assero.co.uk/BusinessDomain#name> 			"--HLGTCD" . 
<http://www.assero.co.uk/MDRSdtmMd/CDISC/V3#M-CDISC_SDTMMODELEVENTS_xxHLGTCD> 			<http://www.assero.co.uk/BusinessDomain#rule> 			"" . 
<http://www.assero.co.uk/MDRSdtmMd/CDISC/V3#M-CDISC_SDTMMODELEVENTS_xxHLGTCD> 			<http://www.assero.co.uk/BusinessDomain#basedOnVariable> 			<http://www.assero.co.uk/MDRSdtmMd/CDISC/V3#M-CDISC_SDTMMODELEVENTS_xxHLGTCD_CR1> . 
<http://www.assero.co.uk/MDRSdtmMd/CDISC/V3#M-CDISC_SDTMMODELEVENTS_xxHLGTCD_CR1> 			<http://www.w3.org/2000/01/rdf-schema#label> 			"Based on Variable Reference" . 
<http://www.assero.co.uk/MDRSdtmMd/CDISC/V3#M-CDISC_SDTMMODELEVENTS_xxHLGTCD_CR1> 			<http://www.w3.org/1999/02/22-rdf-syntax-ns#type> 			<http://www.assero.co.uk/BusinessOperational#CReference> . 
<http://www.assero.co.uk/MDRSdtmMd/CDISC/V3#M-CDISC_SDTMMODELEVENTS_xxHLGTCD_CR1> 			<http://www.assero.co.uk/BusinessOperational#optional> 			"false" . 
<http://www.assero.co.uk/MDRSdtmMd/CDISC/V3#M-CDISC_SDTMMODELEVENTS_xxHLGTCD_CR1> 			<http://www.assero.co.uk/BusinessOperational#local_label> 			"" . 
<http://www.assero.co.uk/MDRSdtmMd/CDISC/V3#M-CDISC_SDTMMODELEVENTS_xxHLGTCD_CR1> 			<http://www.assero.co.uk/BusinessOperational#enabled> 			"true" . 
<http://www.assero.co.uk/MDRSdtmMd/CDISC/V3#M-CDISC_SDTMMODELEVENTS_xxHLGTCD_CR1> 			<http://www.assero.co.uk/BusinessOperational#ordinal> 			"1" . 
<http://www.assero.co.uk/MDRSdtmMd/CDISC/V3#M-CDISC_SDTMMODELEVENTS_xxHLGTCD_CR1> 			<http://www.assero.co.uk/BusinessOperational#hasColumn> 			<http://www.assero.co.uk/MDRSdtmM/CDISC/V3#M-CDISC_SDTMMODEL_xxHLGTCD> . 
<http://www.assero.co.uk/MDRSdtmMd/CDISC/V3#M-CDISC_SDTMMODELEVENTS_xxPRTYID> 			<http://www.w3.org/2000/01/rdf-schema#label> 			"Identification of Accountable Party" . 
<http://www.assero.co.uk/MDRSdtmMd/CDISC/V3#M-CDISC_SDTMMODELEVENTS_xxPRTYID> 			<http://www.w3.org/1999/02/22-rdf-syntax-ns#type> 			<http://www.assero.co.uk/BusinessDomain#ClassVariable> . 
<http://www.assero.co.uk/MDRSdtmMd/CDISC/V3#M-CDISC_SDTMMODELEVENTS_xxPRTYID> 			<http://www.assero.co.uk/BusinessDomain#ordinal> 			"37" . 
<http://www.assero.co.uk/MDRSdtmMd/CDISC/V3#M-CDISC_SDTMMODELEVENTS_xxPRTYID> 			<http://www.assero.co.uk/BusinessDomain#name> 			"--PRTYID" . 
<http://www.assero.co.uk/MDRSdtmMd/CDISC/V3#M-CDISC_SDTMMODELEVENTS_xxPRTYID> 			<http://www.assero.co.uk/BusinessDomain#rule> 			"" . 
<http://www.assero.co.uk/MDRSdtmMd/CDISC/V3#M-CDISC_SDTMMODELEVENTS_xxPRTYID> 			<http://www.assero.co.uk/BusinessDomain#basedOnVariable> 			<http://www.assero.co.uk/MDRSdtmMd/CDISC/V3#M-CDISC_SDTMMODELEVENTS_xxPRTYID_CR1> . 
<http://www.assero.co.uk/MDRSdtmMd/CDISC/V3#M-CDISC_SDTMMODELEVENTS_xxPRTYID_CR1> 			<http://www.w3.org/2000/01/rdf-schema#label> 			"Based on Variable Reference" . 
<http://www.assero.co.uk/MDRSdtmMd/CDISC/V3#M-CDISC_SDTMMODELEVENTS_xxPRTYID_CR1> 			<http://www.w3.org/1999/02/22-rdf-syntax-ns#type> 			<http://www.assero.co.uk/BusinessOperational#CReference> . 
<http://www.assero.co.uk/MDRSdtmMd/CDISC/V3#M-CDISC_SDTMMODELEVENTS_xxPRTYID_CR1> 			<http://www.assero.co.uk/BusinessOperational#optional> 			"false" . 
<http://www.assero.co.uk/MDRSdtmMd/CDISC/V3#M-CDISC_SDTMMODELEVENTS_xxPRTYID_CR1> 			<http://www.assero.co.uk/BusinessOperational#local_label> 			"" . 
<http://www.assero.co.uk/MDRSdtmMd/CDISC/V3#M-CDISC_SDTMMODELEVENTS_xxPRTYID_CR1> 			<http://www.assero.co.uk/BusinessOperational#enabled> 			"true" . 
<http://www.assero.co.uk/MDRSdtmMd/CDISC/V3#M-CDISC_SDTMMODELEVENTS_xxPRTYID_CR1> 			<http://www.assero.co.uk/BusinessOperational#ordinal> 			"1" . 
<http://www.assero.co.uk/MDRSdtmMd/CDISC/V3#M-CDISC_SDTMMODELEVENTS_xxPRTYID_CR1> 			<http://www.assero.co.uk/BusinessOperational#hasColumn> 			<http://www.assero.co.uk/MDRSdtmM/CDISC/V3#M-CDISC_SDTMMODEL_xxPRTYID> . 
<http://www.assero.co.uk/MDRSdtmMd/CDISC/V3#M-CDISC_SDTMMODELEVENTS_xxEVLINT> 			<http://www.w3.org/2000/01/rdf-schema#label> 			"Evaluation Interval" . 
<http://www.assero.co.uk/MDRSdtmMd/CDISC/V3#M-CDISC_SDTMMODELEVENTS_xxEVLINT> 			<http://www.w3.org/1999/02/22-rdf-syntax-ns#type> 			<http://www.assero.co.uk/BusinessDomain#ClassVariable> . 
<http://www.assero.co.uk/MDRSdtmMd/CDISC/V3#M-CDISC_SDTMMODELEVENTS_xxEVLINT> 			<http://www.assero.co.uk/BusinessDomain#ordinal> 			"77" . 
<http://www.assero.co.uk/MDRSdtmMd/CDISC/V3#M-CDISC_SDTMMODELEVENTS_xxEVLINT> 			<http://www.assero.co.uk/BusinessDomain#name> 			"--EVLINT" . 
<http://www.assero.co.uk/MDRSdtmMd/CDISC/V3#M-CDISC_SDTMMODELEVENTS_xxEVLINT> 			<http://www.assero.co.uk/BusinessDomain#rule> 			"" . 
<http://www.assero.co.uk/MDRSdtmMd/CDISC/V3#M-CDISC_SDTMMODELEVENTS_xxEVLINT> 			<http://www.assero.co.uk/BusinessDomain#basedOnVariable> 			<http://www.assero.co.uk/MDRSdtmMd/CDISC/V3#M-CDISC_SDTMMODELEVENTS_xxEVLINT_CR1> . 
<http://www.assero.co.uk/MDRSdtmMd/CDISC/V3#M-CDISC_SDTMMODELEVENTS_xxEVLINT_CR1> 			<http://www.w3.org/2000/01/rdf-schema#label> 			"Based on Variable Reference" . 
<http://www.assero.co.uk/MDRSdtmMd/CDISC/V3#M-CDISC_SDTMMODELEVENTS_xxEVLINT_CR1> 			<http://www.w3.org/1999/02/22-rdf-syntax-ns#type> 			<http://www.assero.co.uk/BusinessOperational#CReference> . 
<http://www.assero.co.uk/MDRSdtmMd/CDISC/V3#M-CDISC_SDTMMODELEVENTS_xxEVLINT_CR1> 			<http://www.assero.co.uk/BusinessOperational#optional> 			"false" . 
<http://www.assero.co.uk/MDRSdtmMd/CDISC/V3#M-CDISC_SDTMMODELEVENTS_xxEVLINT_CR1> 			<http://www.assero.co.uk/BusinessOperational#local_label> 			"" . 
<http://www.assero.co.uk/MDRSdtmMd/CDISC/V3#M-CDISC_SDTMMODELEVENTS_xxEVLINT_CR1> 			<http://www.assero.co.uk/BusinessOperational#enabled> 			"true" . 
<http://www.assero.co.uk/MDRSdtmMd/CDISC/V3#M-CDISC_SDTMMODELEVENTS_xxEVLINT_CR1> 			<http://www.assero.co.uk/BusinessOperational#ordinal> 			"1" . 
<http://www.assero.co.uk/MDRSdtmMd/CDISC/V3#M-CDISC_SDTMMODELEVENTS_xxEVLINT_CR1> 			<http://www.assero.co.uk/BusinessOperational#hasColumn> 			<http://www.assero.co.uk/MDRSdtmM/CDISC/V3#M-CDISC_SDTMMODEL_xxEVLINT> . 
<http://www.assero.co.uk/MDRSdtmMd/CDISC/V3#M-CDISC_SDTMMODELEVENTS_xxLAT> 			<http://www.w3.org/2000/01/rdf-schema#label> 			"Laterality" . 
<http://www.assero.co.uk/MDRSdtmMd/CDISC/V3#M-CDISC_SDTMMODELEVENTS_xxLAT> 			<http://www.w3.org/1999/02/22-rdf-syntax-ns#type> 			<http://www.assero.co.uk/BusinessDomain#ClassVariable> . 
<http://www.assero.co.uk/MDRSdtmMd/CDISC/V3#M-CDISC_SDTMMODELEVENTS_xxLAT> 			<http://www.assero.co.uk/BusinessDomain#ordinal> 			"33" . 
<http://www.assero.co.uk/MDRSdtmMd/CDISC/V3#M-CDISC_SDTMMODELEVENTS_xxLAT> 			<http://www.assero.co.uk/BusinessDomain#name> 			"--LAT" . 
<http://www.assero.co.uk/MDRSdtmMd/CDISC/V3#M-CDISC_SDTMMODELEVENTS_xxLAT> 			<http://www.assero.co.uk/BusinessDomain#rule> 			"" . 
<http://www.assero.co.uk/MDRSdtmMd/CDISC/V3#M-CDISC_SDTMMODELEVENTS_xxLAT> 			<http://www.assero.co.uk/BusinessDomain#basedOnVariable> 			<http://www.assero.co.uk/MDRSdtmMd/CDISC/V3#M-CDISC_SDTMMODELEVENTS_xxLAT_CR1> . 
<http://www.assero.co.uk/MDRSdtmMd/CDISC/V3#M-CDISC_SDTMMODELEVENTS_xxLAT_CR1> 			<http://www.w3.org/2000/01/rdf-schema#label> 			"Based on Variable Reference" . 
<http://www.assero.co.uk/MDRSdtmMd/CDISC/V3#M-CDISC_SDTMMODELEVENTS_xxLAT_CR1> 			<http://www.w3.org/1999/02/22-rdf-syntax-ns#type> 			<http://www.assero.co.uk/BusinessOperational#CReference> . 
<http://www.assero.co.uk/MDRSdtmMd/CDISC/V3#M-CDISC_SDTMMODELEVENTS_xxLAT_CR1> 			<http://www.assero.co.uk/BusinessOperational#optional> 			"false" . 
<http://www.assero.co.uk/MDRSdtmMd/CDISC/V3#M-CDISC_SDTMMODELEVENTS_xxLAT_CR1> 			<http://www.assero.co.uk/BusinessOperational#local_label> 			"" . 
<http://www.assero.co.uk/MDRSdtmMd/CDISC/V3#M-CDISC_SDTMMODELEVENTS_xxLAT_CR1> 			<http://www.assero.co.uk/BusinessOperational#enabled> 			"true" . 
<http://www.assero.co.uk/MDRSdtmMd/CDISC/V3#M-CDISC_SDTMMODELEVENTS_xxLAT_CR1> 			<http://www.assero.co.uk/BusinessOperational#ordinal> 			"1" . 
<http://www.assero.co.uk/MDRSdtmMd/CDISC/V3#M-CDISC_SDTMMODELEVENTS_xxLAT_CR1> 			<http://www.assero.co.uk/BusinessOperational#hasColumn> 			<http://www.assero.co.uk/MDRSdtmM/CDISC/V3#M-CDISC_SDTMMODEL_xxLAT> . 
<http://www.assero.co.uk/MDRSdtmMd/CDISC/V3#M-CDISC_SDTMMODELEVENTS_xxSOCCD> 			<http://www.w3.org/2000/01/rdf-schema#label> 			"Primary System Organ Class Code" . 
<http://www.assero.co.uk/MDRSdtmMd/CDISC/V3#M-CDISC_SDTMMODELEVENTS_xxSOCCD> 			<http://www.w3.org/1999/02/22-rdf-syntax-ns#type> 			<http://www.assero.co.uk/BusinessDomain#ClassVariable> . 
<http://www.assero.co.uk/MDRSdtmMd/CDISC/V3#M-CDISC_SDTMMODELEVENTS_xxSOCCD> 			<http://www.assero.co.uk/BusinessDomain#ordinal> 			"31" . 
<http://www.assero.co.uk/MDRSdtmMd/CDISC/V3#M-CDISC_SDTMMODELEVENTS_xxSOCCD> 			<http://www.assero.co.uk/BusinessDomain#name> 			"--SOCCD" . 
<http://www.assero.co.uk/MDRSdtmMd/CDISC/V3#M-CDISC_SDTMMODELEVENTS_xxSOCCD> 			<http://www.assero.co.uk/BusinessDomain#rule> 			"" . 
<http://www.assero.co.uk/MDRSdtmMd/CDISC/V3#M-CDISC_SDTMMODELEVENTS_xxSOCCD> 			<http://www.assero.co.uk/BusinessDomain#basedOnVariable> 			<http://www.assero.co.uk/MDRSdtmMd/CDISC/V3#M-CDISC_SDTMMODELEVENTS_xxSOCCD_CR1> . 
<http://www.assero.co.uk/MDRSdtmMd/CDISC/V3#M-CDISC_SDTMMODELEVENTS_xxSOCCD_CR1> 			<http://www.w3.org/2000/01/rdf-schema#label> 			"Based on Variable Reference" . 
<http://www.assero.co.uk/MDRSdtmMd/CDISC/V3#M-CDISC_SDTMMODELEVENTS_xxSOCCD_CR1> 			<http://www.w3.org/1999/02/22-rdf-syntax-ns#type> 			<http://www.assero.co.uk/BusinessOperational#CReference> . 
<http://www.assero.co.uk/MDRSdtmMd/CDISC/V3#M-CDISC_SDTMMODELEVENTS_xxSOCCD_CR1> 			<http://www.assero.co.uk/BusinessOperational#optional> 			"false" . 
<http://www.assero.co.uk/MDRSdtmMd/CDISC/V3#M-CDISC_SDTMMODELEVENTS_xxSOCCD_CR1> 			<http://www.assero.co.uk/BusinessOperational#local_label> 			"" . 
<http://www.assero.co.uk/MDRSdtmMd/CDISC/V3#M-CDISC_SDTMMODELEVENTS_xxSOCCD_CR1> 			<http://www.assero.co.uk/BusinessOperational#enabled> 			"true" . 
<http://www.assero.co.uk/MDRSdtmMd/CDISC/V3#M-CDISC_SDTMMODELEVENTS_xxSOCCD_CR1> 			<http://www.assero.co.uk/BusinessOperational#ordinal> 			"1" . 
<http://www.assero.co.uk/MDRSdtmMd/CDISC/V3#M-CDISC_SDTMMODELEVENTS_xxSOCCD_CR1> 			<http://www.assero.co.uk/BusinessOperational#hasColumn> 			<http://www.assero.co.uk/MDRSdtmM/CDISC/V3#M-CDISC_SDTMMODEL_xxSOCCD> . 
<http://www.assero.co.uk/MDRSdtmMd/CDISC/V3#M-CDISC_SDTMMODELEVENTS_xxLNKID> 			<http://www.w3.org/2000/01/rdf-schema#label> 			"Link ID" . 
<http://www.assero.co.uk/MDRSdtmMd/CDISC/V3#M-CDISC_SDTMMODELEVENTS_xxLNKID> 			<http://www.w3.org/1999/02/22-rdf-syntax-ns#type> 			<http://www.assero.co.uk/BusinessDomain#ClassVariable> . 
<http://www.assero.co.uk/MDRSdtmMd/CDISC/V3#M-CDISC_SDTMMODELEVENTS_xxLNKID> 			<http://www.assero.co.uk/BusinessDomain#ordinal> 			"10" . 
<http://www.assero.co.uk/MDRSdtmMd/CDISC/V3#M-CDISC_SDTMMODELEVENTS_xxLNKID> 			<http://www.assero.co.uk/BusinessDomain#name> 			"--LNKID" . 
<http://www.assero.co.uk/MDRSdtmMd/CDISC/V3#M-CDISC_SDTMMODELEVENTS_xxLNKID> 			<http://www.assero.co.uk/BusinessDomain#rule> 			"" . 
<http://www.assero.co.uk/MDRSdtmMd/CDISC/V3#M-CDISC_SDTMMODELEVENTS_xxLNKID> 			<http://www.assero.co.uk/BusinessDomain#basedOnVariable> 			<http://www.assero.co.uk/MDRSdtmMd/CDISC/V3#M-CDISC_SDTMMODELEVENTS_xxLNKID_CR1> . 
<http://www.assero.co.uk/MDRSdtmMd/CDISC/V3#M-CDISC_SDTMMODELEVENTS_xxLNKID_CR1> 			<http://www.w3.org/2000/01/rdf-schema#label> 			"Based on Variable Reference" . 
<http://www.assero.co.uk/MDRSdtmMd/CDISC/V3#M-CDISC_SDTMMODELEVENTS_xxLNKID_CR1> 			<http://www.w3.org/1999/02/22-rdf-syntax-ns#type> 			<http://www.assero.co.uk/BusinessOperational#CReference> . 
<http://www.assero.co.uk/MDRSdtmMd/CDISC/V3#M-CDISC_SDTMMODELEVENTS_xxLNKID_CR1> 			<http://www.assero.co.uk/BusinessOperational#optional> 			"false" . 
<http://www.assero.co.uk/MDRSdtmMd/CDISC/V3#M-CDISC_SDTMMODELEVENTS_xxLNKID_CR1> 			<http://www.assero.co.uk/BusinessOperational#local_label> 			"" . 
<http://www.assero.co.uk/MDRSdtmMd/CDISC/V3#M-CDISC_SDTMMODELEVENTS_xxLNKID_CR1> 			<http://www.assero.co.uk/BusinessOperational#enabled> 			"true" . 
<http://www.assero.co.uk/MDRSdtmMd/CDISC/V3#M-CDISC_SDTMMODELEVENTS_xxLNKID_CR1> 			<http://www.assero.co.uk/BusinessOperational#ordinal> 			"1" . 
<http://www.assero.co.uk/MDRSdtmMd/CDISC/V3#M-CDISC_SDTMMODELEVENTS_xxLNKID_CR1> 			<http://www.assero.co.uk/BusinessOperational#hasColumn> 			<http://www.assero.co.uk/MDRSdtmM/CDISC/V3#M-CDISC_SDTMMODEL_xxLNKID> . 
<http://www.assero.co.uk/MDRSdtmMd/CDISC/V3#M-CDISC_SDTMMODELEVENTS_xxTOX> 			<http://www.w3.org/2000/01/rdf-schema#label> 			"Toxicity" . 
<http://www.assero.co.uk/MDRSdtmMd/CDISC/V3#M-CDISC_SDTMMODELEVENTS_xxTOX> 			<http://www.w3.org/1999/02/22-rdf-syntax-ns#type> 			<http://www.assero.co.uk/BusinessDomain#ClassVariable> . 
<http://www.assero.co.uk/MDRSdtmMd/CDISC/V3#M-CDISC_SDTMMODELEVENTS_xxTOX> 			<http://www.assero.co.uk/BusinessDomain#ordinal> 			"56" . 
<http://www.assero.co.uk/MDRSdtmMd/CDISC/V3#M-CDISC_SDTMMODELEVENTS_xxTOX> 			<http://www.assero.co.uk/BusinessDomain#name> 			"--TOX" . 
<http://www.assero.co.uk/MDRSdtmMd/CDISC/V3#M-CDISC_SDTMMODELEVENTS_xxTOX> 			<http://www.assero.co.uk/BusinessDomain#rule> 			"" . 
<http://www.assero.co.uk/MDRSdtmMd/CDISC/V3#M-CDISC_SDTMMODELEVENTS_xxTOX> 			<http://www.assero.co.uk/BusinessDomain#basedOnVariable> 			<http://www.assero.co.uk/MDRSdtmMd/CDISC/V3#M-CDISC_SDTMMODELEVENTS_xxTOX_CR1> . 
<http://www.assero.co.uk/MDRSdtmMd/CDISC/V3#M-CDISC_SDTMMODELEVENTS_xxTOX_CR1> 			<http://www.w3.org/2000/01/rdf-schema#label> 			"Based on Variable Reference" . 
<http://www.assero.co.uk/MDRSdtmMd/CDISC/V3#M-CDISC_SDTMMODELEVENTS_xxTOX_CR1> 			<http://www.w3.org/1999/02/22-rdf-syntax-ns#type> 			<http://www.assero.co.uk/BusinessOperational#CReference> . 
<http://www.assero.co.uk/MDRSdtmMd/CDISC/V3#M-CDISC_SDTMMODELEVENTS_xxTOX_CR1> 			<http://www.assero.co.uk/BusinessOperational#optional> 			"false" . 
<http://www.assero.co.uk/MDRSdtmMd/CDISC/V3#M-CDISC_SDTMMODELEVENTS_xxTOX_CR1> 			<http://www.assero.co.uk/BusinessOperational#local_label> 			"" . 
<http://www.assero.co.uk/MDRSdtmMd/CDISC/V3#M-CDISC_SDTMMODELEVENTS_xxTOX_CR1> 			<http://www.assero.co.uk/BusinessOperational#enabled> 			"true" . 
<http://www.assero.co.uk/MDRSdtmMd/CDISC/V3#M-CDISC_SDTMMODELEVENTS_xxTOX_CR1> 			<http://www.assero.co.uk/BusinessOperational#ordinal> 			"1" . 
<http://www.assero.co.uk/MDRSdtmMd/CDISC/V3#M-CDISC_SDTMMODELEVENTS_xxTOX_CR1> 			<http://www.assero.co.uk/BusinessOperational#hasColumn> 			<http://www.assero.co.uk/MDRSdtmM/CDISC/V3#M-CDISC_SDTMMODEL_xxTOX> . 
<http://www.assero.co.uk/MDRSdtmMd/CDISC/V3#M-CDISC_SDTMMODELEVENTS_xxACN> 			<http://www.w3.org/2000/01/rdf-schema#label> 			"Action Taken with Study Treatment" . 
<http://www.assero.co.uk/MDRSdtmMd/CDISC/V3#M-CDISC_SDTMMODELEVENTS_xxACN> 			<http://www.w3.org/1999/02/22-rdf-syntax-ns#type> 			<http://www.assero.co.uk/BusinessDomain#ClassVariable> . 
<http://www.assero.co.uk/MDRSdtmMd/CDISC/V3#M-CDISC_SDTMMODELEVENTS_xxACN> 			<http://www.assero.co.uk/BusinessDomain#ordinal> 			"40" . 
<http://www.assero.co.uk/MDRSdtmMd/CDISC/V3#M-CDISC_SDTMMODELEVENTS_xxACN> 			<http://www.assero.co.uk/BusinessDomain#name> 			"--ACN" . 
<http://www.assero.co.uk/MDRSdtmMd/CDISC/V3#M-CDISC_SDTMMODELEVENTS_xxACN> 			<http://www.assero.co.uk/BusinessDomain#rule> 			"" . 
<http://www.assero.co.uk/MDRSdtmMd/CDISC/V3#M-CDISC_SDTMMODELEVENTS_xxACN> 			<http://www.assero.co.uk/BusinessDomain#basedOnVariable> 			<http://www.assero.co.uk/MDRSdtmMd/CDISC/V3#M-CDISC_SDTMMODELEVENTS_xxACN_CR1> . 
<http://www.assero.co.uk/MDRSdtmMd/CDISC/V3#M-CDISC_SDTMMODELEVENTS_xxACN_CR1> 			<http://www.w3.org/2000/01/rdf-schema#label> 			"Based on Variable Reference" . 
<http://www.assero.co.uk/MDRSdtmMd/CDISC/V3#M-CDISC_SDTMMODELEVENTS_xxACN_CR1> 			<http://www.w3.org/1999/02/22-rdf-syntax-ns#type> 			<http://www.assero.co.uk/BusinessOperational#CReference> . 
<http://www.assero.co.uk/MDRSdtmMd/CDISC/V3#M-CDISC_SDTMMODELEVENTS_xxACN_CR1> 			<http://www.assero.co.uk/BusinessOperational#optional> 			"false" . 
<http://www.assero.co.uk/MDRSdtmMd/CDISC/V3#M-CDISC_SDTMMODELEVENTS_xxACN_CR1> 			<http://www.assero.co.uk/BusinessOperational#local_label> 			"" . 
<http://www.assero.co.uk/MDRSdtmMd/CDISC/V3#M-CDISC_SDTMMODELEVENTS_xxACN_CR1> 			<http://www.assero.co.uk/BusinessOperational#enabled> 			"true" . 
<http://www.assero.co.uk/MDRSdtmMd/CDISC/V3#M-CDISC_SDTMMODELEVENTS_xxACN_CR1> 			<http://www.assero.co.uk/BusinessOperational#ordinal> 			"1" . 
<http://www.assero.co.uk/MDRSdtmMd/CDISC/V3#M-CDISC_SDTMMODELEVENTS_xxACN_CR1> 			<http://www.assero.co.uk/BusinessOperational#hasColumn> 			<http://www.assero.co.uk/MDRSdtmM/CDISC/V3#M-CDISC_SDTMMODEL_xxACN> . 
<http://www.assero.co.uk/MDRSdtmMd/CDISC/V3#M-CDISC_SDTMMODELEVENTS_TAETORD> 			<http://www.w3.org/2000/01/rdf-schema#label> 			"Planned Order of Element within Arm" . 
<http://www.assero.co.uk/MDRSdtmMd/CDISC/V3#M-CDISC_SDTMMODELEVENTS_TAETORD> 			<http://www.w3.org/1999/02/22-rdf-syntax-ns#type> 			<http://www.assero.co.uk/BusinessDomain#ClassVariable> . 
<http://www.assero.co.uk/MDRSdtmMd/CDISC/V3#M-CDISC_SDTMMODELEVENTS_TAETORD> 			<http://www.assero.co.uk/BusinessDomain#ordinal> 			"61" . 
<http://www.assero.co.uk/MDRSdtmMd/CDISC/V3#M-CDISC_SDTMMODELEVENTS_TAETORD> 			<http://www.assero.co.uk/BusinessDomain#name> 			"TAETORD" . 
<http://www.assero.co.uk/MDRSdtmMd/CDISC/V3#M-CDISC_SDTMMODELEVENTS_TAETORD> 			<http://www.assero.co.uk/BusinessDomain#rule> 			"" . 
<http://www.assero.co.uk/MDRSdtmMd/CDISC/V3#M-CDISC_SDTMMODELEVENTS_TAETORD> 			<http://www.assero.co.uk/BusinessDomain#basedOnVariable> 			<http://www.assero.co.uk/MDRSdtmMd/CDISC/V3#M-CDISC_SDTMMODELEVENTS_TAETORD_CR1> . 
<http://www.assero.co.uk/MDRSdtmMd/CDISC/V3#M-CDISC_SDTMMODELEVENTS_TAETORD_CR1> 			<http://www.w3.org/2000/01/rdf-schema#label> 			"Based on Variable Reference" . 
<http://www.assero.co.uk/MDRSdtmMd/CDISC/V3#M-CDISC_SDTMMODELEVENTS_TAETORD_CR1> 			<http://www.w3.org/1999/02/22-rdf-syntax-ns#type> 			<http://www.assero.co.uk/BusinessOperational#CReference> . 
<http://www.assero.co.uk/MDRSdtmMd/CDISC/V3#M-CDISC_SDTMMODELEVENTS_TAETORD_CR1> 			<http://www.assero.co.uk/BusinessOperational#optional> 			"false" . 
<http://www.assero.co.uk/MDRSdtmMd/CDISC/V3#M-CDISC_SDTMMODELEVENTS_TAETORD_CR1> 			<http://www.assero.co.uk/BusinessOperational#local_label> 			"" . 
<http://www.assero.co.uk/MDRSdtmMd/CDISC/V3#M-CDISC_SDTMMODELEVENTS_TAETORD_CR1> 			<http://www.assero.co.uk/BusinessOperational#enabled> 			"true" . 
<http://www.assero.co.uk/MDRSdtmMd/CDISC/V3#M-CDISC_SDTMMODELEVENTS_TAETORD_CR1> 			<http://www.assero.co.uk/BusinessOperational#ordinal> 			"1" . 
<http://www.assero.co.uk/MDRSdtmMd/CDISC/V3#M-CDISC_SDTMMODELEVENTS_TAETORD_CR1> 			<http://www.assero.co.uk/BusinessOperational#hasColumn> 			<http://www.assero.co.uk/MDRSdtmM/CDISC/V3#M-CDISC_SDTMMODEL_TAETORD> . 
<http://www.assero.co.uk/MDRSdtmMd/CDISC/V3#M-CDISC_SDTMMODELEVENTS_POOLID> 			<http://www.w3.org/2000/01/rdf-schema#label> 			"Pool Identifier" . 
<http://www.assero.co.uk/MDRSdtmMd/CDISC/V3#M-CDISC_SDTMMODELEVENTS_POOLID> 			<http://www.w3.org/1999/02/22-rdf-syntax-ns#type> 			<http://www.assero.co.uk/BusinessDomain#ClassVariable> . 
<http://www.assero.co.uk/MDRSdtmMd/CDISC/V3#M-CDISC_SDTMMODELEVENTS_POOLID> 			<http://www.assero.co.uk/BusinessDomain#ordinal> 			"4" . 
<http://www.assero.co.uk/MDRSdtmMd/CDISC/V3#M-CDISC_SDTMMODELEVENTS_POOLID> 			<http://www.assero.co.uk/BusinessDomain#name> 			"POOLID" . 
<http://www.assero.co.uk/MDRSdtmMd/CDISC/V3#M-CDISC_SDTMMODELEVENTS_POOLID> 			<http://www.assero.co.uk/BusinessDomain#rule> 			"" . 
<http://www.assero.co.uk/MDRSdtmMd/CDISC/V3#M-CDISC_SDTMMODELEVENTS_POOLID> 			<http://www.assero.co.uk/BusinessDomain#basedOnVariable> 			<http://www.assero.co.uk/MDRSdtmMd/CDISC/V3#M-CDISC_SDTMMODELEVENTS_POOLID_CR1> . 
<http://www.assero.co.uk/MDRSdtmMd/CDISC/V3#M-CDISC_SDTMMODELEVENTS_POOLID_CR1> 			<http://www.w3.org/2000/01/rdf-schema#label> 			"Based on Variable Reference" . 
<http://www.assero.co.uk/MDRSdtmMd/CDISC/V3#M-CDISC_SDTMMODELEVENTS_POOLID_CR1> 			<http://www.w3.org/1999/02/22-rdf-syntax-ns#type> 			<http://www.assero.co.uk/BusinessOperational#CReference> . 
<http://www.assero.co.uk/MDRSdtmMd/CDISC/V3#M-CDISC_SDTMMODELEVENTS_POOLID_CR1> 			<http://www.assero.co.uk/BusinessOperational#optional> 			"false" . 
<http://www.assero.co.uk/MDRSdtmMd/CDISC/V3#M-CDISC_SDTMMODELEVENTS_POOLID_CR1> 			<http://www.assero.co.uk/BusinessOperational#local_label> 			"" . 
<http://www.assero.co.uk/MDRSdtmMd/CDISC/V3#M-CDISC_SDTMMODELEVENTS_POOLID_CR1> 			<http://www.assero.co.uk/BusinessOperational#enabled> 			"true" . 
<http://www.assero.co.uk/MDRSdtmMd/CDISC/V3#M-CDISC_SDTMMODELEVENTS_POOLID_CR1> 			<http://www.assero.co.uk/BusinessOperational#ordinal> 			"1" . 
<http://www.assero.co.uk/MDRSdtmMd/CDISC/V3#M-CDISC_SDTMMODELEVENTS_POOLID_CR1> 			<http://www.assero.co.uk/BusinessOperational#hasColumn> 			<http://www.assero.co.uk/MDRSdtmM/CDISC/V3#M-CDISC_SDTMMODEL_POOLID> . 
<http://www.assero.co.uk/MDRSdtmMd/CDISC/V3#M-CDISC_SDTMMODELEVENTS_xxBODSYS> 			<http://www.w3.org/2000/01/rdf-schema#label> 			"Body System or Organ Class" . 
<http://www.assero.co.uk/MDRSdtmMd/CDISC/V3#M-CDISC_SDTMMODELEVENTS_xxBODSYS> 			<http://www.w3.org/1999/02/22-rdf-syntax-ns#type> 			<http://www.assero.co.uk/BusinessDomain#ClassVariable> . 
<http://www.assero.co.uk/MDRSdtmMd/CDISC/V3#M-CDISC_SDTMMODELEVENTS_xxBODSYS> 			<http://www.assero.co.uk/BusinessDomain#ordinal> 			"28" . 
<http://www.assero.co.uk/MDRSdtmMd/CDISC/V3#M-CDISC_SDTMMODELEVENTS_xxBODSYS> 			<http://www.assero.co.uk/BusinessDomain#name> 			"--BODSYS" . 
<http://www.assero.co.uk/MDRSdtmMd/CDISC/V3#M-CDISC_SDTMMODELEVENTS_xxBODSYS> 			<http://www.assero.co.uk/BusinessDomain#rule> 			"" . 
<http://www.assero.co.uk/MDRSdtmMd/CDISC/V3#M-CDISC_SDTMMODELEVENTS_xxBODSYS> 			<http://www.assero.co.uk/BusinessDomain#basedOnVariable> 			<http://www.assero.co.uk/MDRSdtmMd/CDISC/V3#M-CDISC_SDTMMODELEVENTS_xxBODSYS_CR1> . 
<http://www.assero.co.uk/MDRSdtmMd/CDISC/V3#M-CDISC_SDTMMODELEVENTS_xxBODSYS_CR1> 			<http://www.w3.org/2000/01/rdf-schema#label> 			"Based on Variable Reference" . 
<http://www.assero.co.uk/MDRSdtmMd/CDISC/V3#M-CDISC_SDTMMODELEVENTS_xxBODSYS_CR1> 			<http://www.w3.org/1999/02/22-rdf-syntax-ns#type> 			<http://www.assero.co.uk/BusinessOperational#CReference> . 
<http://www.assero.co.uk/MDRSdtmMd/CDISC/V3#M-CDISC_SDTMMODELEVENTS_xxBODSYS_CR1> 			<http://www.assero.co.uk/BusinessOperational#optional> 			"false" . 
<http://www.assero.co.uk/MDRSdtmMd/CDISC/V3#M-CDISC_SDTMMODELEVENTS_xxBODSYS_CR1> 			<http://www.assero.co.uk/BusinessOperational#local_label> 			"" . 
<http://www.assero.co.uk/MDRSdtmMd/CDISC/V3#M-CDISC_SDTMMODELEVENTS_xxBODSYS_CR1> 			<http://www.assero.co.uk/BusinessOperational#enabled> 			"true" . 
<http://www.assero.co.uk/MDRSdtmMd/CDISC/V3#M-CDISC_SDTMMODELEVENTS_xxBODSYS_CR1> 			<http://www.assero.co.uk/BusinessOperational#ordinal> 			"1" . 
<http://www.assero.co.uk/MDRSdtmMd/CDISC/V3#M-CDISC_SDTMMODELEVENTS_xxBODSYS_CR1> 			<http://www.assero.co.uk/BusinessOperational#hasColumn> 			<http://www.assero.co.uk/MDRSdtmM/CDISC/V3#M-CDISC_SDTMMODEL_xxBODSYS> . 
<http://www.assero.co.uk/MDRSdtmMd/CDISC/V3#M-CDISC_SDTMMODELEVENTS_xxOUT> 			<http://www.w3.org/2000/01/rdf-schema#label> 			"Outcome of Event" . 
<http://www.assero.co.uk/MDRSdtmMd/CDISC/V3#M-CDISC_SDTMMODELEVENTS_xxOUT> 			<http://www.w3.org/1999/02/22-rdf-syntax-ns#type> 			<http://www.assero.co.uk/BusinessDomain#ClassVariable> . 
<http://www.assero.co.uk/MDRSdtmMd/CDISC/V3#M-CDISC_SDTMMODELEVENTS_xxOUT> 			<http://www.assero.co.uk/BusinessDomain#ordinal> 			"46" . 
<http://www.assero.co.uk/MDRSdtmMd/CDISC/V3#M-CDISC_SDTMMODELEVENTS_xxOUT> 			<http://www.assero.co.uk/BusinessDomain#name> 			"--OUT" . 
<http://www.assero.co.uk/MDRSdtmMd/CDISC/V3#M-CDISC_SDTMMODELEVENTS_xxOUT> 			<http://www.assero.co.uk/BusinessDomain#rule> 			"" . 
<http://www.assero.co.uk/MDRSdtmMd/CDISC/V3#M-CDISC_SDTMMODELEVENTS_xxOUT> 			<http://www.assero.co.uk/BusinessDomain#basedOnVariable> 			<http://www.assero.co.uk/MDRSdtmMd/CDISC/V3#M-CDISC_SDTMMODELEVENTS_xxOUT_CR1> . 
<http://www.assero.co.uk/MDRSdtmMd/CDISC/V3#M-CDISC_SDTMMODELEVENTS_xxOUT_CR1> 			<http://www.w3.org/2000/01/rdf-schema#label> 			"Based on Variable Reference" . 
<http://www.assero.co.uk/MDRSdtmMd/CDISC/V3#M-CDISC_SDTMMODELEVENTS_xxOUT_CR1> 			<http://www.w3.org/1999/02/22-rdf-syntax-ns#type> 			<http://www.assero.co.uk/BusinessOperational#CReference> . 
<http://www.assero.co.uk/MDRSdtmMd/CDISC/V3#M-CDISC_SDTMMODELEVENTS_xxOUT_CR1> 			<http://www.assero.co.uk/BusinessOperational#optional> 			"false" . 
<http://www.assero.co.uk/MDRSdtmMd/CDISC/V3#M-CDISC_SDTMMODELEVENTS_xxOUT_CR1> 			<http://www.assero.co.uk/BusinessOperational#local_label> 			"" . 
<http://www.assero.co.uk/MDRSdtmMd/CDISC/V3#M-CDISC_SDTMMODELEVENTS_xxOUT_CR1> 			<http://www.assero.co.uk/BusinessOperational#enabled> 			"true" . 
<http://www.assero.co.uk/MDRSdtmMd/CDISC/V3#M-CDISC_SDTMMODELEVENTS_xxOUT_CR1> 			<http://www.assero.co.uk/BusinessOperational#ordinal> 			"1" . 
<http://www.assero.co.uk/MDRSdtmMd/CDISC/V3#M-CDISC_SDTMMODELEVENTS_xxOUT_CR1> 			<http://www.assero.co.uk/BusinessOperational#hasColumn> 			<http://www.assero.co.uk/MDRSdtmM/CDISC/V3#M-CDISC_SDTMMODEL_xxOUT> . 
<http://www.assero.co.uk/MDRSdtmMd/CDISC/V3#M-CDISC_SDTMMODELEVENTS_xxPATT> 			<http://www.w3.org/2000/01/rdf-schema#label> 			"Pattern of Event" . 
<http://www.assero.co.uk/MDRSdtmMd/CDISC/V3#M-CDISC_SDTMMODELEVENTS_xxPATT> 			<http://www.w3.org/1999/02/22-rdf-syntax-ns#type> 			<http://www.assero.co.uk/BusinessDomain#ClassVariable> . 
<http://www.assero.co.uk/MDRSdtmMd/CDISC/V3#M-CDISC_SDTMMODELEVENTS_xxPATT> 			<http://www.assero.co.uk/BusinessDomain#ordinal> 			"45" . 
<http://www.assero.co.uk/MDRSdtmMd/CDISC/V3#M-CDISC_SDTMMODELEVENTS_xxPATT> 			<http://www.assero.co.uk/BusinessDomain#name> 			"--PATT" . 
<http://www.assero.co.uk/MDRSdtmMd/CDISC/V3#M-CDISC_SDTMMODELEVENTS_xxPATT> 			<http://www.assero.co.uk/BusinessDomain#rule> 			"" . 
<http://www.assero.co.uk/MDRSdtmMd/CDISC/V3#M-CDISC_SDTMMODELEVENTS_xxPATT> 			<http://www.assero.co.uk/BusinessDomain#basedOnVariable> 			<http://www.assero.co.uk/MDRSdtmMd/CDISC/V3#M-CDISC_SDTMMODELEVENTS_xxPATT_CR1> . 
<http://www.assero.co.uk/MDRSdtmMd/CDISC/V3#M-CDISC_SDTMMODELEVENTS_xxPATT_CR1> 			<http://www.w3.org/2000/01/rdf-schema#label> 			"Based on Variable Reference" . 
<http://www.assero.co.uk/MDRSdtmMd/CDISC/V3#M-CDISC_SDTMMODELEVENTS_xxPATT_CR1> 			<http://www.w3.org/1999/02/22-rdf-syntax-ns#type> 			<http://www.assero.co.uk/BusinessOperational#CReference> . 
<http://www.assero.co.uk/MDRSdtmMd/CDISC/V3#M-CDISC_SDTMMODELEVENTS_xxPATT_CR1> 			<http://www.assero.co.uk/BusinessOperational#optional> 			"false" . 
<http://www.assero.co.uk/MDRSdtmMd/CDISC/V3#M-CDISC_SDTMMODELEVENTS_xxPATT_CR1> 			<http://www.assero.co.uk/BusinessOperational#local_label> 			"" . 
<http://www.assero.co.uk/MDRSdtmMd/CDISC/V3#M-CDISC_SDTMMODELEVENTS_xxPATT_CR1> 			<http://www.assero.co.uk/BusinessOperational#enabled> 			"true" . 
<http://www.assero.co.uk/MDRSdtmMd/CDISC/V3#M-CDISC_SDTMMODELEVENTS_xxPATT_CR1> 			<http://www.assero.co.uk/BusinessOperational#ordinal> 			"1" . 
<http://www.assero.co.uk/MDRSdtmMd/CDISC/V3#M-CDISC_SDTMMODELEVENTS_xxPATT_CR1> 			<http://www.assero.co.uk/BusinessOperational#hasColumn> 			<http://www.assero.co.uk/MDRSdtmM/CDISC/V3#M-CDISC_SDTMMODEL_xxPATT> . 
<http://www.assero.co.uk/MDRSdtmMd/CDISC/V3#M-CDISC_SDTMMODELEVENTS_xxELTM> 			<http://www.w3.org/2000/01/rdf-schema#label> 			"Planned Elapsed Time from Time Point Ref" . 
<http://www.assero.co.uk/MDRSdtmMd/CDISC/V3#M-CDISC_SDTMMODELEVENTS_xxELTM> 			<http://www.w3.org/1999/02/22-rdf-syntax-ns#type> 			<http://www.assero.co.uk/BusinessDomain#ClassVariable> . 
<http://www.assero.co.uk/MDRSdtmMd/CDISC/V3#M-CDISC_SDTMMODELEVENTS_xxELTM> 			<http://www.assero.co.uk/BusinessDomain#ordinal> 			"72" . 
<http://www.assero.co.uk/MDRSdtmMd/CDISC/V3#M-CDISC_SDTMMODELEVENTS_xxELTM> 			<http://www.assero.co.uk/BusinessDomain#name> 			"--ELTM" . 
<http://www.assero.co.uk/MDRSdtmMd/CDISC/V3#M-CDISC_SDTMMODELEVENTS_xxELTM> 			<http://www.assero.co.uk/BusinessDomain#rule> 			"" . 
<http://www.assero.co.uk/MDRSdtmMd/CDISC/V3#M-CDISC_SDTMMODELEVENTS_xxELTM> 			<http://www.assero.co.uk/BusinessDomain#basedOnVariable> 			<http://www.assero.co.uk/MDRSdtmMd/CDISC/V3#M-CDISC_SDTMMODELEVENTS_xxELTM_CR1> . 
<http://www.assero.co.uk/MDRSdtmMd/CDISC/V3#M-CDISC_SDTMMODELEVENTS_xxELTM_CR1> 			<http://www.w3.org/2000/01/rdf-schema#label> 			"Based on Variable Reference" . 
<http://www.assero.co.uk/MDRSdtmMd/CDISC/V3#M-CDISC_SDTMMODELEVENTS_xxELTM_CR1> 			<http://www.w3.org/1999/02/22-rdf-syntax-ns#type> 			<http://www.assero.co.uk/BusinessOperational#CReference> . 
<http://www.assero.co.uk/MDRSdtmMd/CDISC/V3#M-CDISC_SDTMMODELEVENTS_xxELTM_CR1> 			<http://www.assero.co.uk/BusinessOperational#optional> 			"false" . 
<http://www.assero.co.uk/MDRSdtmMd/CDISC/V3#M-CDISC_SDTMMODELEVENTS_xxELTM_CR1> 			<http://www.assero.co.uk/BusinessOperational#local_label> 			"" . 
<http://www.assero.co.uk/MDRSdtmMd/CDISC/V3#M-CDISC_SDTMMODELEVENTS_xxELTM_CR1> 			<http://www.assero.co.uk/BusinessOperational#enabled> 			"true" . 
<http://www.assero.co.uk/MDRSdtmMd/CDISC/V3#M-CDISC_SDTMMODELEVENTS_xxELTM_CR1> 			<http://www.assero.co.uk/BusinessOperational#ordinal> 			"1" . 
<http://www.assero.co.uk/MDRSdtmMd/CDISC/V3#M-CDISC_SDTMMODELEVENTS_xxELTM_CR1> 			<http://www.assero.co.uk/BusinessOperational#hasColumn> 			<http://www.assero.co.uk/MDRSdtmM/CDISC/V3#M-CDISC_SDTMMODEL_xxELTM> . 
<http://www.assero.co.uk/MDRSdtmMd/CDISC/V3#M-CDISC_SDTMMODELEVENTS_xxSTINT> 			<http://www.w3.org/2000/01/rdf-schema#label> 			"Planned Start of Assessment Interval" . 
<http://www.assero.co.uk/MDRSdtmMd/CDISC/V3#M-CDISC_SDTMMODELEVENTS_xxSTINT> 			<http://www.w3.org/1999/02/22-rdf-syntax-ns#type> 			<http://www.assero.co.uk/BusinessDomain#ClassVariable> . 
<http://www.assero.co.uk/MDRSdtmMd/CDISC/V3#M-CDISC_SDTMMODELEVENTS_xxSTINT> 			<http://www.assero.co.uk/BusinessDomain#ordinal> 			"83" . 
<http://www.assero.co.uk/MDRSdtmMd/CDISC/V3#M-CDISC_SDTMMODELEVENTS_xxSTINT> 			<http://www.assero.co.uk/BusinessDomain#name> 			"--STINT" . 
<http://www.assero.co.uk/MDRSdtmMd/CDISC/V3#M-CDISC_SDTMMODELEVENTS_xxSTINT> 			<http://www.assero.co.uk/BusinessDomain#rule> 			"" . 
<http://www.assero.co.uk/MDRSdtmMd/CDISC/V3#M-CDISC_SDTMMODELEVENTS_xxSTINT> 			<http://www.assero.co.uk/BusinessDomain#basedOnVariable> 			<http://www.assero.co.uk/MDRSdtmMd/CDISC/V3#M-CDISC_SDTMMODELEVENTS_xxSTINT_CR1> . 
<http://www.assero.co.uk/MDRSdtmMd/CDISC/V3#M-CDISC_SDTMMODELEVENTS_xxSTINT_CR1> 			<http://www.w3.org/2000/01/rdf-schema#label> 			"Based on Variable Reference" . 
<http://www.assero.co.uk/MDRSdtmMd/CDISC/V3#M-CDISC_SDTMMODELEVENTS_xxSTINT_CR1> 			<http://www.w3.org/1999/02/22-rdf-syntax-ns#type> 			<http://www.assero.co.uk/BusinessOperational#CReference> . 
<http://www.assero.co.uk/MDRSdtmMd/CDISC/V3#M-CDISC_SDTMMODELEVENTS_xxSTINT_CR1> 			<http://www.assero.co.uk/BusinessOperational#optional> 			"false" . 
<http://www.assero.co.uk/MDRSdtmMd/CDISC/V3#M-CDISC_SDTMMODELEVENTS_xxSTINT_CR1> 			<http://www.assero.co.uk/BusinessOperational#local_label> 			"" . 
<http://www.assero.co.uk/MDRSdtmMd/CDISC/V3#M-CDISC_SDTMMODELEVENTS_xxSTINT_CR1> 			<http://www.assero.co.uk/BusinessOperational#enabled> 			"true" . 
<http://www.assero.co.uk/MDRSdtmMd/CDISC/V3#M-CDISC_SDTMMODELEVENTS_xxSTINT_CR1> 			<http://www.assero.co.uk/BusinessOperational#ordinal> 			"1" . 
<http://www.assero.co.uk/MDRSdtmMd/CDISC/V3#M-CDISC_SDTMMODELEVENTS_xxSTINT_CR1> 			<http://www.assero.co.uk/BusinessOperational#hasColumn> 			<http://www.assero.co.uk/MDRSdtmM/CDISC/V3#M-CDISC_SDTMMODEL_xxSTINT> . 
<http://www.assero.co.uk/MDRSdtmMd/CDISC/V3#M-CDISC_SDTMMODELEVENTS_xxRFTDTC> 			<http://www.w3.org/2000/01/rdf-schema#label> 			"Date/Time of Reference Time Point" . 
<http://www.assero.co.uk/MDRSdtmMd/CDISC/V3#M-CDISC_SDTMMODELEVENTS_xxRFTDTC> 			<http://www.w3.org/1999/02/22-rdf-syntax-ns#type> 			<http://www.assero.co.uk/BusinessDomain#ClassVariable> . 
<http://www.assero.co.uk/MDRSdtmMd/CDISC/V3#M-CDISC_SDTMMODELEVENTS_xxRFTDTC> 			<http://www.assero.co.uk/BusinessDomain#ordinal> 			"74" . 
<http://www.assero.co.uk/MDRSdtmMd/CDISC/V3#M-CDISC_SDTMMODELEVENTS_xxRFTDTC> 			<http://www.assero.co.uk/BusinessDomain#name> 			"--RFTDTC" . 
<http://www.assero.co.uk/MDRSdtmMd/CDISC/V3#M-CDISC_SDTMMODELEVENTS_xxRFTDTC> 			<http://www.assero.co.uk/BusinessDomain#rule> 			"" . 
<http://www.assero.co.uk/MDRSdtmMd/CDISC/V3#M-CDISC_SDTMMODELEVENTS_xxRFTDTC> 			<http://www.assero.co.uk/BusinessDomain#basedOnVariable> 			<http://www.assero.co.uk/MDRSdtmMd/CDISC/V3#M-CDISC_SDTMMODELEVENTS_xxRFTDTC_CR1> . 
<http://www.assero.co.uk/MDRSdtmMd/CDISC/V3#M-CDISC_SDTMMODELEVENTS_xxRFTDTC_CR1> 			<http://www.w3.org/2000/01/rdf-schema#label> 			"Based on Variable Reference" . 
<http://www.assero.co.uk/MDRSdtmMd/CDISC/V3#M-CDISC_SDTMMODELEVENTS_xxRFTDTC_CR1> 			<http://www.w3.org/1999/02/22-rdf-syntax-ns#type> 			<http://www.assero.co.uk/BusinessOperational#CReference> . 
<http://www.assero.co.uk/MDRSdtmMd/CDISC/V3#M-CDISC_SDTMMODELEVENTS_xxRFTDTC_CR1> 			<http://www.assero.co.uk/BusinessOperational#optional> 			"false" . 
<http://www.assero.co.uk/MDRSdtmMd/CDISC/V3#M-CDISC_SDTMMODELEVENTS_xxRFTDTC_CR1> 			<http://www.assero.co.uk/BusinessOperational#local_label> 			"" . 
<http://www.assero.co.uk/MDRSdtmMd/CDISC/V3#M-CDISC_SDTMMODELEVENTS_xxRFTDTC_CR1> 			<http://www.assero.co.uk/BusinessOperational#enabled> 			"true" . 
<http://www.assero.co.uk/MDRSdtmMd/CDISC/V3#M-CDISC_SDTMMODELEVENTS_xxRFTDTC_CR1> 			<http://www.assero.co.uk/BusinessOperational#ordinal> 			"1" . 
<http://www.assero.co.uk/MDRSdtmMd/CDISC/V3#M-CDISC_SDTMMODELEVENTS_xxRFTDTC_CR1> 			<http://www.assero.co.uk/BusinessOperational#hasColumn> 			<http://www.assero.co.uk/MDRSdtmM/CDISC/V3#M-CDISC_SDTMMODEL_xxRFTDTC> . 
<http://www.assero.co.uk/MDRSdtmMd/CDISC/V3#M-CDISC_SDTMMODELEVENTS_xxHLT> 			<http://www.w3.org/2000/01/rdf-schema#label> 			"High Level Term" . 
<http://www.assero.co.uk/MDRSdtmMd/CDISC/V3#M-CDISC_SDTMMODELEVENTS_xxHLT> 			<http://www.w3.org/1999/02/22-rdf-syntax-ns#type> 			<http://www.assero.co.uk/BusinessDomain#ClassVariable> . 
<http://www.assero.co.uk/MDRSdtmMd/CDISC/V3#M-CDISC_SDTMMODELEVENTS_xxHLT> 			<http://www.assero.co.uk/BusinessDomain#ordinal> 			"18" . 
<http://www.assero.co.uk/MDRSdtmMd/CDISC/V3#M-CDISC_SDTMMODELEVENTS_xxHLT> 			<http://www.assero.co.uk/BusinessDomain#name> 			"--HLT" . 
<http://www.assero.co.uk/MDRSdtmMd/CDISC/V3#M-CDISC_SDTMMODELEVENTS_xxHLT> 			<http://www.assero.co.uk/BusinessDomain#rule> 			"" . 
<http://www.assero.co.uk/MDRSdtmMd/CDISC/V3#M-CDISC_SDTMMODELEVENTS_xxHLT> 			<http://www.assero.co.uk/BusinessDomain#basedOnVariable> 			<http://www.assero.co.uk/MDRSdtmMd/CDISC/V3#M-CDISC_SDTMMODELEVENTS_xxHLT_CR1> . 
<http://www.assero.co.uk/MDRSdtmMd/CDISC/V3#M-CDISC_SDTMMODELEVENTS_xxHLT_CR1> 			<http://www.w3.org/2000/01/rdf-schema#label> 			"Based on Variable Reference" . 
<http://www.assero.co.uk/MDRSdtmMd/CDISC/V3#M-CDISC_SDTMMODELEVENTS_xxHLT_CR1> 			<http://www.w3.org/1999/02/22-rdf-syntax-ns#type> 			<http://www.assero.co.uk/BusinessOperational#CReference> . 
<http://www.assero.co.uk/MDRSdtmMd/CDISC/V3#M-CDISC_SDTMMODELEVENTS_xxHLT_CR1> 			<http://www.assero.co.uk/BusinessOperational#optional> 			"false" . 
<http://www.assero.co.uk/MDRSdtmMd/CDISC/V3#M-CDISC_SDTMMODELEVENTS_xxHLT_CR1> 			<http://www.assero.co.uk/BusinessOperational#local_label> 			"" . 
<http://www.assero.co.uk/MDRSdtmMd/CDISC/V3#M-CDISC_SDTMMODELEVENTS_xxHLT_CR1> 			<http://www.assero.co.uk/BusinessOperational#enabled> 			"true" . 
<http://www.assero.co.uk/MDRSdtmMd/CDISC/V3#M-CDISC_SDTMMODELEVENTS_xxHLT_CR1> 			<http://www.assero.co.uk/BusinessOperational#ordinal> 			"1" . 
<http://www.assero.co.uk/MDRSdtmMd/CDISC/V3#M-CDISC_SDTMMODELEVENTS_xxHLT_CR1> 			<http://www.assero.co.uk/BusinessOperational#hasColumn> 			<http://www.assero.co.uk/MDRSdtmM/CDISC/V3#M-CDISC_SDTMMODEL_xxHLT> . 
<http://www.assero.co.uk/MDRSdtmMd/CDISC/V3#M-CDISC_SDTMMODELEVENTS_xxCONTRT> 			<http://www.w3.org/2000/01/rdf-schema#label> 			"Concomitant or Additional Trtmnt Given" . 
<http://www.assero.co.uk/MDRSdtmMd/CDISC/V3#M-CDISC_SDTMMODELEVENTS_xxCONTRT> 			<http://www.w3.org/1999/02/22-rdf-syntax-ns#type> 			<http://www.assero.co.uk/BusinessDomain#ClassVariable> . 
<http://www.assero.co.uk/MDRSdtmMd/CDISC/V3#M-CDISC_SDTMMODELEVENTS_xxCONTRT> 			<http://www.assero.co.uk/BusinessDomain#ordinal> 			"55" . 
<http://www.assero.co.uk/MDRSdtmMd/CDISC/V3#M-CDISC_SDTMMODELEVENTS_xxCONTRT> 			<http://www.assero.co.uk/BusinessDomain#name> 			"--CONTRT" . 
<http://www.assero.co.uk/MDRSdtmMd/CDISC/V3#M-CDISC_SDTMMODELEVENTS_xxCONTRT> 			<http://www.assero.co.uk/BusinessDomain#rule> 			"" . 
<http://www.assero.co.uk/MDRSdtmMd/CDISC/V3#M-CDISC_SDTMMODELEVENTS_xxCONTRT> 			<http://www.assero.co.uk/BusinessDomain#basedOnVariable> 			<http://www.assero.co.uk/MDRSdtmMd/CDISC/V3#M-CDISC_SDTMMODELEVENTS_xxCONTRT_CR1> . 
<http://www.assero.co.uk/MDRSdtmMd/CDISC/V3#M-CDISC_SDTMMODELEVENTS_xxCONTRT_CR1> 			<http://www.w3.org/2000/01/rdf-schema#label> 			"Based on Variable Reference" . 
<http://www.assero.co.uk/MDRSdtmMd/CDISC/V3#M-CDISC_SDTMMODELEVENTS_xxCONTRT_CR1> 			<http://www.w3.org/1999/02/22-rdf-syntax-ns#type> 			<http://www.assero.co.uk/BusinessOperational#CReference> . 
<http://www.assero.co.uk/MDRSdtmMd/CDISC/V3#M-CDISC_SDTMMODELEVENTS_xxCONTRT_CR1> 			<http://www.assero.co.uk/BusinessOperational#optional> 			"false" . 
<http://www.assero.co.uk/MDRSdtmMd/CDISC/V3#M-CDISC_SDTMMODELEVENTS_xxCONTRT_CR1> 			<http://www.assero.co.uk/BusinessOperational#local_label> 			"" . 
<http://www.assero.co.uk/MDRSdtmMd/CDISC/V3#M-CDISC_SDTMMODELEVENTS_xxCONTRT_CR1> 			<http://www.assero.co.uk/BusinessOperational#enabled> 			"true" . 
<http://www.assero.co.uk/MDRSdtmMd/CDISC/V3#M-CDISC_SDTMMODELEVENTS_xxCONTRT_CR1> 			<http://www.assero.co.uk/BusinessOperational#ordinal> 			"1" . 
<http://www.assero.co.uk/MDRSdtmMd/CDISC/V3#M-CDISC_SDTMMODELEVENTS_xxCONTRT_CR1> 			<http://www.assero.co.uk/BusinessOperational#hasColumn> 			<http://www.assero.co.uk/MDRSdtmM/CDISC/V3#M-CDISC_SDTMMODEL_xxCONTRT> . 
<http://www.assero.co.uk/MDRSdtmMd/CDISC/V3#M-CDISC_SDTMMODELEVENTS_SPDEVID> 			<http://www.w3.org/2000/01/rdf-schema#label> 			"Sponsor Device Identifier" . 
<http://www.assero.co.uk/MDRSdtmMd/CDISC/V3#M-CDISC_SDTMMODELEVENTS_SPDEVID> 			<http://www.w3.org/1999/02/22-rdf-syntax-ns#type> 			<http://www.assero.co.uk/BusinessDomain#ClassVariable> . 
<http://www.assero.co.uk/MDRSdtmMd/CDISC/V3#M-CDISC_SDTMMODELEVENTS_SPDEVID> 			<http://www.assero.co.uk/BusinessDomain#ordinal> 			"5" . 
<http://www.assero.co.uk/MDRSdtmMd/CDISC/V3#M-CDISC_SDTMMODELEVENTS_SPDEVID> 			<http://www.assero.co.uk/BusinessDomain#name> 			"SPDEVID" . 
<http://www.assero.co.uk/MDRSdtmMd/CDISC/V3#M-CDISC_SDTMMODELEVENTS_SPDEVID> 			<http://www.assero.co.uk/BusinessDomain#rule> 			"" . 
<http://www.assero.co.uk/MDRSdtmMd/CDISC/V3#M-CDISC_SDTMMODELEVENTS_SPDEVID> 			<http://www.assero.co.uk/BusinessDomain#basedOnVariable> 			<http://www.assero.co.uk/MDRSdtmMd/CDISC/V3#M-CDISC_SDTMMODELEVENTS_SPDEVID_CR1> . 
<http://www.assero.co.uk/MDRSdtmMd/CDISC/V3#M-CDISC_SDTMMODELEVENTS_SPDEVID_CR1> 			<http://www.w3.org/2000/01/rdf-schema#label> 			"Based on Variable Reference" . 
<http://www.assero.co.uk/MDRSdtmMd/CDISC/V3#M-CDISC_SDTMMODELEVENTS_SPDEVID_CR1> 			<http://www.w3.org/1999/02/22-rdf-syntax-ns#type> 			<http://www.assero.co.uk/BusinessOperational#CReference> . 
<http://www.assero.co.uk/MDRSdtmMd/CDISC/V3#M-CDISC_SDTMMODELEVENTS_SPDEVID_CR1> 			<http://www.assero.co.uk/BusinessOperational#optional> 			"false" . 
<http://www.assero.co.uk/MDRSdtmMd/CDISC/V3#M-CDISC_SDTMMODELEVENTS_SPDEVID_CR1> 			<http://www.assero.co.uk/BusinessOperational#local_label> 			"" . 
<http://www.assero.co.uk/MDRSdtmMd/CDISC/V3#M-CDISC_SDTMMODELEVENTS_SPDEVID_CR1> 			<http://www.assero.co.uk/BusinessOperational#enabled> 			"true" . 
<http://www.assero.co.uk/MDRSdtmMd/CDISC/V3#M-CDISC_SDTMMODELEVENTS_SPDEVID_CR1> 			<http://www.assero.co.uk/BusinessOperational#ordinal> 			"1" . 
<http://www.assero.co.uk/MDRSdtmMd/CDISC/V3#M-CDISC_SDTMMODELEVENTS_SPDEVID_CR1> 			<http://www.assero.co.uk/BusinessOperational#hasColumn> 			<http://www.assero.co.uk/MDRSdtmM/CDISC/V3#M-CDISC_SDTMMODEL_SPDEVID> . 
<http://www.assero.co.uk/MDRSdtmMd/CDISC/V3#M-CDISC_SDTMMODELEVENTS_xxSMIE> 			<http://www.w3.org/2000/01/rdf-schema#label> 			"Other Medically Important Serious Event" . 
<http://www.assero.co.uk/MDRSdtmMd/CDISC/V3#M-CDISC_SDTMMODELEVENTS_xxSMIE> 			<http://www.w3.org/1999/02/22-rdf-syntax-ns#type> 			<http://www.assero.co.uk/BusinessDomain#ClassVariable> . 
<http://www.assero.co.uk/MDRSdtmMd/CDISC/V3#M-CDISC_SDTMMODELEVENTS_xxSMIE> 			<http://www.assero.co.uk/BusinessDomain#ordinal> 			"54" . 
<http://www.assero.co.uk/MDRSdtmMd/CDISC/V3#M-CDISC_SDTMMODELEVENTS_xxSMIE> 			<http://www.assero.co.uk/BusinessDomain#name> 			"--SMIE" . 
<http://www.assero.co.uk/MDRSdtmMd/CDISC/V3#M-CDISC_SDTMMODELEVENTS_xxSMIE> 			<http://www.assero.co.uk/BusinessDomain#rule> 			"" . 
