<http://www.assero.co.uk/MDRSdtmUD/ACME/V1#D-ACME_DMDomain> 			<http://www.w3.org/2000/01/rdf-schema#label> 			"Demographics" . 
<http://www.assero.co.uk/MDRSdtmUD/ACME/V1#D-ACME_DMDomain> 			<http://www.w3.org/1999/02/22-rdf-syntax-ns#type> 			<http://www.assero.co.uk/BusinessDomain#UserDomain> . 
<http://www.assero.co.uk/MDRSdtmUD/ACME/V1#D-ACME_DMDomain> 			<http://www.assero.co.uk/ISO11179Types#hasState> 			<http://www.assero.co.uk/MDRItems#RS-ACME_DMDomain-1> . 
<http://www.assero.co.uk/MDRSdtmUD/ACME/V1#D-ACME_DMDomain> 			<http://www.assero.co.uk/ISO11179Types#hasIdentifier> 			<http://www.assero.co.uk/MDRItems#SI-ACME_DMDomain-1> . 
<http://www.assero.co.uk/MDRSdtmUD/ACME/V1#D-ACME_DMDomain> 			<http://www.assero.co.uk/ISO11179Types#lastChangeDate> 			"2017-12-14T19:42:39+00:00" . 
<http://www.assero.co.uk/MDRSdtmUD/ACME/V1#D-ACME_DMDomain> 			<http://www.assero.co.uk/ISO11179Types#explanatoryComment> 			"" . 
<http://www.assero.co.uk/MDRSdtmUD/ACME/V1#D-ACME_DMDomain> 			<http://www.assero.co.uk/ISO11179Types#creationDate> 			"2017-12-14T19:42:39+00:00" . 
<http://www.assero.co.uk/MDRSdtmUD/ACME/V1#D-ACME_DMDomain> 			<http://www.assero.co.uk/ISO11179Types#changeDescription> 			"" . 
<http://www.assero.co.uk/MDRSdtmUD/ACME/V1#D-ACME_DMDomain> 			<http://www.assero.co.uk/ISO11179Types#origin> 			"" . 
<http://www.assero.co.uk/MDRSdtmUD/ACME/V1#D-ACME_DMDomain> 			<http://www.assero.co.uk/BusinessDomain#ordinal> 			"1" . 
<http://www.assero.co.uk/MDRSdtmUD/ACME/V1#D-ACME_DMDomain> 			<http://www.assero.co.uk/BusinessDomain#prefix> 			"DM" . 
<http://www.assero.co.uk/MDRSdtmUD/ACME/V1#D-ACME_DMDomain> 			<http://www.assero.co.uk/BusinessDomain#notes> 			"" . 
<http://www.assero.co.uk/MDRSdtmUD/ACME/V1#D-ACME_DMDomain> 			<http://www.assero.co.uk/BusinessDomain#includesColumn> 			<http://www.assero.co.uk/MDRSdtmUD/ACME/V1#D-ACME_DMDomain_V12> . 
<http://www.assero.co.uk/MDRSdtmUD/ACME/V1#D-ACME_DMDomain> 			<http://www.assero.co.uk/BusinessDomain#includesColumn> 			<http://www.assero.co.uk/MDRSdtmUD/ACME/V1#D-ACME_DMDomain_V9> . 
<http://www.assero.co.uk/MDRSdtmUD/ACME/V1#D-ACME_DMDomain> 			<http://www.assero.co.uk/BusinessDomain#includesColumn> 			<http://www.assero.co.uk/MDRSdtmUD/ACME/V1#D-ACME_DMDomain_V25> . 
<http://www.assero.co.uk/MDRSdtmUD/ACME/V1#D-ACME_DMDomain> 			<http://www.assero.co.uk/BusinessDomain#includesColumn> 			<http://www.assero.co.uk/MDRSdtmUD/ACME/V1#D-ACME_DMDomain_V3> . 
<http://www.assero.co.uk/MDRSdtmUD/ACME/V1#D-ACME_DMDomain> 			<http://www.assero.co.uk/BusinessDomain#includesColumn> 			<http://www.assero.co.uk/MDRSdtmUD/ACME/V1#D-ACME_DMDomain_V17> . 
<http://www.assero.co.uk/MDRSdtmUD/ACME/V1#D-ACME_DMDomain> 			<http://www.assero.co.uk/BusinessDomain#includesColumn> 			<http://www.assero.co.uk/MDRSdtmUD/ACME/V1#D-ACME_DMDomain_V11> . 
<http://www.assero.co.uk/MDRSdtmUD/ACME/V1#D-ACME_DMDomain> 			<http://www.assero.co.uk/BusinessDomain#includesColumn> 			<http://www.assero.co.uk/MDRSdtmUD/ACME/V1#D-ACME_DMDomain_V8> . 
<http://www.assero.co.uk/MDRSdtmUD/ACME/V1#D-ACME_DMDomain> 			<http://www.assero.co.uk/BusinessDomain#includesColumn> 			<http://www.assero.co.uk/MDRSdtmUD/ACME/V1#D-ACME_DMDomain_V24> . 
<http://www.assero.co.uk/MDRSdtmUD/ACME/V1#D-ACME_DMDomain> 			<http://www.assero.co.uk/BusinessDomain#includesColumn> 			<http://www.assero.co.uk/MDRSdtmUD/ACME/V1#D-ACME_DMDomain_V2> . 
<http://www.assero.co.uk/MDRSdtmUD/ACME/V1#D-ACME_DMDomain> 			<http://www.assero.co.uk/BusinessDomain#includesColumn> 			<http://www.assero.co.uk/MDRSdtmUD/ACME/V1#D-ACME_DMDomain_V16> . 
<http://www.assero.co.uk/MDRSdtmUD/ACME/V1#D-ACME_DMDomain> 			<http://www.assero.co.uk/BusinessDomain#includesColumn> 			<http://www.assero.co.uk/MDRSdtmUD/ACME/V1#D-ACME_DMDomain_V10> . 
<http://www.assero.co.uk/MDRSdtmUD/ACME/V1#D-ACME_DMDomain> 			<http://www.assero.co.uk/BusinessDomain#includesColumn> 			<http://www.assero.co.uk/MDRSdtmUD/ACME/V1#D-ACME_DMDomain_V7> . 
<http://www.assero.co.uk/MDRSdtmUD/ACME/V1#D-ACME_DMDomain> 			<http://www.assero.co.uk/BusinessDomain#includesColumn> 			<http://www.assero.co.uk/MDRSdtmUD/ACME/V1#D-ACME_DMDomain_V23> . 
<http://www.assero.co.uk/MDRSdtmUD/ACME/V1#D-ACME_DMDomain> 			<http://www.assero.co.uk/BusinessDomain#includesColumn> 			<http://www.assero.co.uk/MDRSdtmUD/ACME/V1#D-ACME_DMDomain_V1> . 
<http://www.assero.co.uk/MDRSdtmUD/ACME/V1#D-ACME_DMDomain> 			<http://www.assero.co.uk/BusinessDomain#includesColumn> 			<http://www.assero.co.uk/MDRSdtmUD/ACME/V1#D-ACME_DMDomain_V20> . 
<http://www.assero.co.uk/MDRSdtmUD/ACME/V1#D-ACME_DMDomain> 			<http://www.assero.co.uk/BusinessDomain#includesColumn> 			<http://www.assero.co.uk/MDRSdtmUD/ACME/V1#D-ACME_DMDomain_V4> . 
<http://www.assero.co.uk/MDRSdtmUD/ACME/V1#D-ACME_DMDomain> 			<http://www.assero.co.uk/BusinessDomain#includesColumn> 			<http://www.assero.co.uk/MDRSdtmUD/ACME/V1#D-ACME_DMDomain_V27> . 
<http://www.assero.co.uk/MDRSdtmUD/ACME/V1#D-ACME_DMDomain> 			<http://www.assero.co.uk/BusinessDomain#includesColumn> 			<http://www.assero.co.uk/MDRSdtmUD/ACME/V1#D-ACME_DMDomain_V19> . 
<http://www.assero.co.uk/MDRSdtmUD/ACME/V1#D-ACME_DMDomain> 			<http://www.assero.co.uk/BusinessDomain#includesColumn> 			<http://www.assero.co.uk/MDRSdtmUD/ACME/V1#D-ACME_DMDomain_V18> . 
<http://www.assero.co.uk/MDRSdtmUD/ACME/V1#D-ACME_DMDomain> 			<http://www.assero.co.uk/BusinessDomain#includesColumn> 			<http://www.assero.co.uk/MDRSdtmUD/ACME/V1#D-ACME_DMDomain_V21> . 
<http://www.assero.co.uk/MDRSdtmUD/ACME/V1#D-ACME_DMDomain> 			<http://www.assero.co.uk/BusinessDomain#includesColumn> 			<http://www.assero.co.uk/MDRSdtmUD/ACME/V1#D-ACME_DMDomain_V6> . 
<http://www.assero.co.uk/MDRSdtmUD/ACME/V1#D-ACME_DMDomain> 			<http://www.assero.co.uk/BusinessDomain#includesColumn> 			<http://www.assero.co.uk/MDRSdtmUD/ACME/V1#D-ACME_DMDomain_V22> . 
<http://www.assero.co.uk/MDRSdtmUD/ACME/V1#D-ACME_DMDomain> 			<http://www.assero.co.uk/BusinessDomain#includesColumn> 			<http://www.assero.co.uk/MDRSdtmUD/ACME/V1#D-ACME_DMDomain_V5> . 
<http://www.assero.co.uk/MDRSdtmUD/ACME/V1#D-ACME_DMDomain> 			<http://www.assero.co.uk/BusinessDomain#includesColumn> 			<http://www.assero.co.uk/MDRSdtmUD/ACME/V1#D-ACME_DMDomain_V13> . 
<http://www.assero.co.uk/MDRSdtmUD/ACME/V1#D-ACME_DMDomain> 			<http://www.assero.co.uk/BusinessDomain#includesColumn> 			<http://www.assero.co.uk/MDRSdtmUD/ACME/V1#D-ACME_DMDomain_V26> . 
<http://www.assero.co.uk/MDRSdtmUD/ACME/V1#D-ACME_DMDomain> 			<http://www.assero.co.uk/BusinessDomain#includesColumn> 			<http://www.assero.co.uk/MDRSdtmUD/ACME/V1#D-ACME_DMDomain_V15> . 
<http://www.assero.co.uk/MDRSdtmUD/ACME/V1#D-ACME_DMDomain> 			<http://www.assero.co.uk/BusinessDomain#includesColumn> 			<http://www.assero.co.uk/MDRSdtmUD/ACME/V1#D-ACME_DMDomain_V14> . 
<http://www.assero.co.uk/MDRSdtmUD/ACME/V1#D-ACME_DMDomain> 			<http://www.assero.co.uk/BusinessDomain#includesColumn> 			<http://www.assero.co.uk/MDRSdtmUD/ACME/V1#D-ACME_DMDomain_V28> . 
<http://www.assero.co.uk/MDRSdtmUD/ACME/V1#D-ACME_DMDomain> 			<http://www.assero.co.uk/BusinessDomain#structure> 			"" . 
<http://www.assero.co.uk/MDRSdtmUD/ACME/V1#D-ACME_DMDomain> 			<http://www.assero.co.uk/BusinessDomain#rule> 			"" . 
<http://www.assero.co.uk/MDRSdtmUD/ACME/V1#D-ACME_DMDomain> 			<http://www.assero.co.uk/BusinessDomain#basedOnDomain> 			<http://www.assero.co.uk/MDRSdtmUD/ACME/V1#D-ACME_DMDomain_IGD1> . 
<http://www.assero.co.uk/MDRSdtmUD/ACME/V1#D-ACME_DMDomain> 			<http://www.assero.co.uk/BusinessDomain#basedOnDomain> 			<http://www.assero.co.uk/MDRSdtmUD/ACME/V1#D-ACME_DMDomain_MD1> . 
<http://www.assero.co.uk/MDRSdtmUD/ACME/V1#D-ACME_DMDomain_V12> 			<http://www.w3.org/2000/01/rdf-schema#label> 			"Subject Death Flag" . 
<http://www.assero.co.uk/MDRSdtmUD/ACME/V1#D-ACME_DMDomain_V12> 			<http://www.w3.org/1999/02/22-rdf-syntax-ns#type> 			<http://www.assero.co.uk/BusinessDomain#UserVariable> . 
<http://www.assero.co.uk/MDRSdtmUD/ACME/V1#D-ACME_DMDomain_V12> 			<http://www.assero.co.uk/BusinessDomain#ordinal> 			"12" . 
<http://www.assero.co.uk/MDRSdtmUD/ACME/V1#D-ACME_DMDomain_V12> 			<http://www.assero.co.uk/BusinessDomain#classifiedAs> 			<http://www.assero.co.uk/MDRSdtmM/CDISC/V3#M-CDISC_SDTMMODEL_C_QUALIFIER_SC_RECORDQUALIFIER> . 
<http://www.assero.co.uk/MDRSdtmUD/ACME/V1#D-ACME_DMDomain_V12> 			<http://www.assero.co.uk/BusinessDomain#name> 			"DTHFL" . 
<http://www.assero.co.uk/MDRSdtmUD/ACME/V1#D-ACME_DMDomain_V12> 			<http://www.assero.co.uk/BusinessDomain#notes> 			"" . 
<http://www.assero.co.uk/MDRSdtmUD/ACME/V1#D-ACME_DMDomain_V12> 			<http://www.assero.co.uk/BusinessDomain#format> 			"" . 
<http://www.assero.co.uk/MDRSdtmUD/ACME/V1#D-ACME_DMDomain_V12> 			<http://www.assero.co.uk/BusinessDomain#non_standard> 			"false" . 
<http://www.assero.co.uk/MDRSdtmUD/ACME/V1#D-ACME_DMDomain_V12> 			<http://www.assero.co.uk/BusinessDomain#comment> 			"" . 
<http://www.assero.co.uk/MDRSdtmUD/ACME/V1#D-ACME_DMDomain_V12> 			<http://www.assero.co.uk/BusinessDomain#rule> 			"" . 
<http://www.assero.co.uk/MDRSdtmUD/ACME/V1#D-ACME_DMDomain_V12> 			<http://www.assero.co.uk/BusinessDomain#typedAs> 			<http://www.assero.co.uk/MDRSdtmM/CDISC/V3#M-CDISC_SDTMMODEL_DT_CHAR> . 
<http://www.assero.co.uk/MDRSdtmUD/ACME/V1#D-ACME_DMDomain_V12> 			<http://www.assero.co.uk/BusinessDomain#basedOnVariable> 			<http://www.assero.co.uk/MDRSdtmUD/ACME/V1#D-ACME_DMDomain_V12_IGV1> . 
<http://www.assero.co.uk/MDRSdtmUD/ACME/V1#D-ACME_DMDomain_V12> 			<http://www.assero.co.uk/BusinessDomain#used> 			"true" . 
<http://www.assero.co.uk/MDRSdtmUD/ACME/V1#D-ACME_DMDomain_V12> 			<http://www.assero.co.uk/BusinessDomain#length> 			"0" . 
<http://www.assero.co.uk/MDRSdtmUD/ACME/V1#D-ACME_DMDomain_V12> 			<http://www.assero.co.uk/BusinessDomain#ct> 			"NY" . 
<http://www.assero.co.uk/MDRSdtmUD/ACME/V1#D-ACME_DMDomain_V12> 			<http://www.assero.co.uk/BusinessDomain#key_ordinal> 			"0" . 
<http://www.assero.co.uk/MDRSdtmUD/ACME/V1#D-ACME_DMDomain_V12> 			<http://www.assero.co.uk/BusinessDomain#compliance> 			<http://www.assero.co.uk/MDRSdtmIg/CDISC/V3#IG-CDISC_SDTMIG_C_EXPECTED> . 
<http://www.assero.co.uk/MDRSdtmUD/ACME/V1#D-ACME_DMDomain_V12_IGV1> 			<http://www.w3.org/2000/01/rdf-schema#label> 			"Based on Variable Reference" . 
<http://www.assero.co.uk/MDRSdtmUD/ACME/V1#D-ACME_DMDomain_V12_IGV1> 			<http://www.w3.org/1999/02/22-rdf-syntax-ns#type> 			<http://www.assero.co.uk/BusinessOperational#CReference> . 
<http://www.assero.co.uk/MDRSdtmUD/ACME/V1#D-ACME_DMDomain_V12_IGV1> 			<http://www.assero.co.uk/BusinessOperational#optional> 			"false" . 
<http://www.assero.co.uk/MDRSdtmUD/ACME/V1#D-ACME_DMDomain_V12_IGV1> 			<http://www.assero.co.uk/BusinessOperational#local_label> 			"" . 
<http://www.assero.co.uk/MDRSdtmUD/ACME/V1#D-ACME_DMDomain_V12_IGV1> 			<http://www.assero.co.uk/BusinessOperational#enabled> 			"true" . 
<http://www.assero.co.uk/MDRSdtmUD/ACME/V1#D-ACME_DMDomain_V12_IGV1> 			<http://www.assero.co.uk/BusinessOperational#ordinal> 			"1" . 
<http://www.assero.co.uk/MDRSdtmUD/ACME/V1#D-ACME_DMDomain_V12_IGV1> 			<http://www.assero.co.uk/BusinessOperational#hasColumn> 			<http://www.assero.co.uk/MDRSdtmIgD/CDISC/V3#IG-CDISC_SDTMIGDM_DTHFL> . 
<http://www.assero.co.uk/MDRSdtmUD/ACME/V1#D-ACME_DMDomain_V9> 			<http://www.w3.org/2000/01/rdf-schema#label> 			"Date/Time of Informed Consent" . 
<http://www.assero.co.uk/MDRSdtmUD/ACME/V1#D-ACME_DMDomain_V9> 			<http://www.w3.org/1999/02/22-rdf-syntax-ns#type> 			<http://www.assero.co.uk/BusinessDomain#UserVariable> . 
<http://www.assero.co.uk/MDRSdtmUD/ACME/V1#D-ACME_DMDomain_V9> 			<http://www.assero.co.uk/BusinessDomain#ordinal> 			"9" . 
<http://www.assero.co.uk/MDRSdtmUD/ACME/V1#D-ACME_DMDomain_V9> 			<http://www.assero.co.uk/BusinessDomain#classifiedAs> 			<http://www.assero.co.uk/MDRSdtmM/CDISC/V3#M-CDISC_SDTMMODEL_C_QUALIFIER_SC_RECORDQUALIFIER> . 
<http://www.assero.co.uk/MDRSdtmUD/ACME/V1#D-ACME_DMDomain_V9> 			<http://www.assero.co.uk/BusinessDomain#name> 			"RFICDTC" . 
<http://www.assero.co.uk/MDRSdtmUD/ACME/V1#D-ACME_DMDomain_V9> 			<http://www.assero.co.uk/BusinessDomain#notes> 			"" . 
<http://www.assero.co.uk/MDRSdtmUD/ACME/V1#D-ACME_DMDomain_V9> 			<http://www.assero.co.uk/BusinessDomain#format> 			"ISO 8601" . 
<http://www.assero.co.uk/MDRSdtmUD/ACME/V1#D-ACME_DMDomain_V9> 			<http://www.assero.co.uk/BusinessDomain#non_standard> 			"false" . 
<http://www.assero.co.uk/MDRSdtmUD/ACME/V1#D-ACME_DMDomain_V9> 			<http://www.assero.co.uk/BusinessDomain#comment> 			"" . 
<http://www.assero.co.uk/MDRSdtmUD/ACME/V1#D-ACME_DMDomain_V9> 			<http://www.assero.co.uk/BusinessDomain#rule> 			"" . 
<http://www.assero.co.uk/MDRSdtmUD/ACME/V1#D-ACME_DMDomain_V9> 			<http://www.assero.co.uk/BusinessDomain#typedAs> 			<http://www.assero.co.uk/MDRSdtmM/CDISC/V3#M-CDISC_SDTMMODEL_DT_CHAR> . 
<http://www.assero.co.uk/MDRSdtmUD/ACME/V1#D-ACME_DMDomain_V9> 			<http://www.assero.co.uk/BusinessDomain#basedOnVariable> 			<http://www.assero.co.uk/MDRSdtmUD/ACME/V1#D-ACME_DMDomain_V9_IGV1> . 
<http://www.assero.co.uk/MDRSdtmUD/ACME/V1#D-ACME_DMDomain_V9> 			<http://www.assero.co.uk/BusinessDomain#used> 			"true" . 
<http://www.assero.co.uk/MDRSdtmUD/ACME/V1#D-ACME_DMDomain_V9> 			<http://www.assero.co.uk/BusinessDomain#length> 			"0" . 
<http://www.assero.co.uk/MDRSdtmUD/ACME/V1#D-ACME_DMDomain_V9> 			<http://www.assero.co.uk/BusinessDomain#ct> 			"" . 
<http://www.assero.co.uk/MDRSdtmUD/ACME/V1#D-ACME_DMDomain_V9> 			<http://www.assero.co.uk/BusinessDomain#key_ordinal> 			"0" . 
<http://www.assero.co.uk/MDRSdtmUD/ACME/V1#D-ACME_DMDomain_V9> 			<http://www.assero.co.uk/BusinessDomain#compliance> 			<http://www.assero.co.uk/MDRSdtmIg/CDISC/V3#IG-CDISC_SDTMIG_C_EXPECTED> . 
<http://www.assero.co.uk/MDRSdtmUD/ACME/V1#D-ACME_DMDomain_V9_IGV1> 			<http://www.w3.org/2000/01/rdf-schema#label> 			"Based on Variable Reference" . 
<http://www.assero.co.uk/MDRSdtmUD/ACME/V1#D-ACME_DMDomain_V9_IGV1> 			<http://www.w3.org/1999/02/22-rdf-syntax-ns#type> 			<http://www.assero.co.uk/BusinessOperational#CReference> . 
<http://www.assero.co.uk/MDRSdtmUD/ACME/V1#D-ACME_DMDomain_V9_IGV1> 			<http://www.assero.co.uk/BusinessOperational#optional> 			"false" . 
<http://www.assero.co.uk/MDRSdtmUD/ACME/V1#D-ACME_DMDomain_V9_IGV1> 			<http://www.assero.co.uk/BusinessOperational#local_label> 			"" . 
<http://www.assero.co.uk/MDRSdtmUD/ACME/V1#D-ACME_DMDomain_V9_IGV1> 			<http://www.assero.co.uk/BusinessOperational#enabled> 			"true" . 
<http://www.assero.co.uk/MDRSdtmUD/ACME/V1#D-ACME_DMDomain_V9_IGV1> 			<http://www.assero.co.uk/BusinessOperational#ordinal> 			"1" . 
<http://www.assero.co.uk/MDRSdtmUD/ACME/V1#D-ACME_DMDomain_V9_IGV1> 			<http://www.assero.co.uk/BusinessOperational#hasColumn> 			<http://www.assero.co.uk/MDRSdtmIgD/CDISC/V3#IG-CDISC_SDTMIGDM_RFICDTC> . 
<http://www.assero.co.uk/MDRSdtmUD/ACME/V1#D-ACME_DMDomain_V25> 			<http://www.w3.org/2000/01/rdf-schema#label> 			"Description of Actual Arm" . 
<http://www.assero.co.uk/MDRSdtmUD/ACME/V1#D-ACME_DMDomain_V25> 			<http://www.w3.org/1999/02/22-rdf-syntax-ns#type> 			<http://www.assero.co.uk/BusinessDomain#UserVariable> . 
<http://www.assero.co.uk/MDRSdtmUD/ACME/V1#D-ACME_DMDomain_V25> 			<http://www.assero.co.uk/BusinessDomain#ordinal> 			"25" . 
<http://www.assero.co.uk/MDRSdtmUD/ACME/V1#D-ACME_DMDomain_V25> 			<http://www.assero.co.uk/BusinessDomain#classifiedAs> 			<http://www.assero.co.uk/MDRSdtmM/CDISC/V3#M-CDISC_SDTMMODEL_C_QUALIFIER_SC_RECORDQUALIFIER> . 
<http://www.assero.co.uk/MDRSdtmUD/ACME/V1#D-ACME_DMDomain_V25> 			<http://www.assero.co.uk/BusinessDomain#name> 			"ACTARM" . 
<http://www.assero.co.uk/MDRSdtmUD/ACME/V1#D-ACME_DMDomain_V25> 			<http://www.assero.co.uk/BusinessDomain#notes> 			"" . 
<http://www.assero.co.uk/MDRSdtmUD/ACME/V1#D-ACME_DMDomain_V25> 			<http://www.assero.co.uk/BusinessDomain#format> 			"" . 
<http://www.assero.co.uk/MDRSdtmUD/ACME/V1#D-ACME_DMDomain_V25> 			<http://www.assero.co.uk/BusinessDomain#non_standard> 			"false" . 
<http://www.assero.co.uk/MDRSdtmUD/ACME/V1#D-ACME_DMDomain_V25> 			<http://www.assero.co.uk/BusinessDomain#comment> 			"" . 
<http://www.assero.co.uk/MDRSdtmUD/ACME/V1#D-ACME_DMDomain_V25> 			<http://www.assero.co.uk/BusinessDomain#rule> 			"" . 
<http://www.assero.co.uk/MDRSdtmUD/ACME/V1#D-ACME_DMDomain_V25> 			<http://www.assero.co.uk/BusinessDomain#typedAs> 			<http://www.assero.co.uk/MDRSdtmM/CDISC/V3#M-CDISC_SDTMMODEL_DT_CHAR> . 
<http://www.assero.co.uk/MDRSdtmUD/ACME/V1#D-ACME_DMDomain_V25> 			<http://www.assero.co.uk/BusinessDomain#basedOnVariable> 			<http://www.assero.co.uk/MDRSdtmUD/ACME/V1#D-ACME_DMDomain_V25_IGV1> . 
<http://www.assero.co.uk/MDRSdtmUD/ACME/V1#D-ACME_DMDomain_V25> 			<http://www.assero.co.uk/BusinessDomain#used> 			"true" . 
<http://www.assero.co.uk/MDRSdtmUD/ACME/V1#D-ACME_DMDomain_V25> 			<http://www.assero.co.uk/BusinessDomain#length> 			"0" . 
<http://www.assero.co.uk/MDRSdtmUD/ACME/V1#D-ACME_DMDomain_V25> 			<http://www.assero.co.uk/BusinessDomain#ct> 			"" . 
<http://www.assero.co.uk/MDRSdtmUD/ACME/V1#D-ACME_DMDomain_V25> 			<http://www.assero.co.uk/BusinessDomain#key_ordinal> 			"0" . 
<http://www.assero.co.uk/MDRSdtmUD/ACME/V1#D-ACME_DMDomain_V25> 			<http://www.assero.co.uk/BusinessDomain#compliance> 			<http://www.assero.co.uk/MDRSdtmIg/CDISC/V3#IG-CDISC_SDTMIG_C_REQUIRED> . 
<http://www.assero.co.uk/MDRSdtmUD/ACME/V1#D-ACME_DMDomain_V25_IGV1> 			<http://www.w3.org/2000/01/rdf-schema#label> 			"Based on Variable Reference" . 
<http://www.assero.co.uk/MDRSdtmUD/ACME/V1#D-ACME_DMDomain_V25_IGV1> 			<http://www.w3.org/1999/02/22-rdf-syntax-ns#type> 			<http://www.assero.co.uk/BusinessOperational#CReference> . 
<http://www.assero.co.uk/MDRSdtmUD/ACME/V1#D-ACME_DMDomain_V25_IGV1> 			<http://www.assero.co.uk/BusinessOperational#optional> 			"false" . 
<http://www.assero.co.uk/MDRSdtmUD/ACME/V1#D-ACME_DMDomain_V25_IGV1> 			<http://www.assero.co.uk/BusinessOperational#local_label> 			"" . 
<http://www.assero.co.uk/MDRSdtmUD/ACME/V1#D-ACME_DMDomain_V25_IGV1> 			<http://www.assero.co.uk/BusinessOperational#enabled> 			"true" . 
<http://www.assero.co.uk/MDRSdtmUD/ACME/V1#D-ACME_DMDomain_V25_IGV1> 			<http://www.assero.co.uk/BusinessOperational#ordinal> 			"1" . 
<http://www.assero.co.uk/MDRSdtmUD/ACME/V1#D-ACME_DMDomain_V25_IGV1> 			<http://www.assero.co.uk/BusinessOperational#hasColumn> 			<http://www.assero.co.uk/MDRSdtmIgD/CDISC/V3#IG-CDISC_SDTMIGDM_ACTARM> . 
<http://www.assero.co.uk/MDRSdtmUD/ACME/V1#D-ACME_DMDomain_V3> 			<http://www.w3.org/2000/01/rdf-schema#label> 			"Unique Subject Identifier" . 
<http://www.assero.co.uk/MDRSdtmUD/ACME/V1#D-ACME_DMDomain_V3> 			<http://www.w3.org/1999/02/22-rdf-syntax-ns#type> 			<http://www.assero.co.uk/BusinessDomain#UserVariable> . 
<http://www.assero.co.uk/MDRSdtmUD/ACME/V1#D-ACME_DMDomain_V3> 			<http://www.assero.co.uk/BusinessDomain#ordinal> 			"3" . 
<http://www.assero.co.uk/MDRSdtmUD/ACME/V1#D-ACME_DMDomain_V3> 			<http://www.assero.co.uk/BusinessDomain#classifiedAs> 			<http://www.assero.co.uk/MDRSdtmM/CDISC/V3#M-CDISC_SDTMMODEL_C_IDENTIFIER> . 
<http://www.assero.co.uk/MDRSdtmUD/ACME/V1#D-ACME_DMDomain_V3> 			<http://www.assero.co.uk/BusinessDomain#name> 			"USUBJID" . 
<http://www.assero.co.uk/MDRSdtmUD/ACME/V1#D-ACME_DMDomain_V3> 			<http://www.assero.co.uk/BusinessDomain#notes> 			"" . 
<http://www.assero.co.uk/MDRSdtmUD/ACME/V1#D-ACME_DMDomain_V3> 			<http://www.assero.co.uk/BusinessDomain#format> 			"" . 
<http://www.assero.co.uk/MDRSdtmUD/ACME/V1#D-ACME_DMDomain_V3> 			<http://www.assero.co.uk/BusinessDomain#non_standard> 			"false" . 
<http://www.assero.co.uk/MDRSdtmUD/ACME/V1#D-ACME_DMDomain_V3> 			<http://www.assero.co.uk/BusinessDomain#comment> 			"" . 
<http://www.assero.co.uk/MDRSdtmUD/ACME/V1#D-ACME_DMDomain_V3> 			<http://www.assero.co.uk/BusinessDomain#rule> 			"" . 
<http://www.assero.co.uk/MDRSdtmUD/ACME/V1#D-ACME_DMDomain_V3> 			<http://www.assero.co.uk/BusinessDomain#typedAs> 			<http://www.assero.co.uk/MDRSdtmM/CDISC/V3#M-CDISC_SDTMMODEL_DT_CHAR> . 
<http://www.assero.co.uk/MDRSdtmUD/ACME/V1#D-ACME_DMDomain_V3> 			<http://www.assero.co.uk/BusinessDomain#basedOnVariable> 			<http://www.assero.co.uk/MDRSdtmUD/ACME/V1#D-ACME_DMDomain_V3_IGV1> . 
<http://www.assero.co.uk/MDRSdtmUD/ACME/V1#D-ACME_DMDomain_V3> 			<http://www.assero.co.uk/BusinessDomain#used> 			"true" . 
<http://www.assero.co.uk/MDRSdtmUD/ACME/V1#D-ACME_DMDomain_V3> 			<http://www.assero.co.uk/BusinessDomain#length> 			"0" . 
<http://www.assero.co.uk/MDRSdtmUD/ACME/V1#D-ACME_DMDomain_V3> 			<http://www.assero.co.uk/BusinessDomain#ct> 			"" . 
<http://www.assero.co.uk/MDRSdtmUD/ACME/V1#D-ACME_DMDomain_V3> 			<http://www.assero.co.uk/BusinessDomain#key_ordinal> 			"0" . 
<http://www.assero.co.uk/MDRSdtmUD/ACME/V1#D-ACME_DMDomain_V3> 			<http://www.assero.co.uk/BusinessDomain#compliance> 			<http://www.assero.co.uk/MDRSdtmIg/CDISC/V3#IG-CDISC_SDTMIG_C_REQUIRED> . 
<http://www.assero.co.uk/MDRSdtmUD/ACME/V1#D-ACME_DMDomain_V3_IGV1> 			<http://www.w3.org/2000/01/rdf-schema#label> 			"Based on Variable Reference" . 
<http://www.assero.co.uk/MDRSdtmUD/ACME/V1#D-ACME_DMDomain_V3_IGV1> 			<http://www.w3.org/1999/02/22-rdf-syntax-ns#type> 			<http://www.assero.co.uk/BusinessOperational#CReference> . 
<http://www.assero.co.uk/MDRSdtmUD/ACME/V1#D-ACME_DMDomain_V3_IGV1> 			<http://www.assero.co.uk/BusinessOperational#optional> 			"false" . 
<http://www.assero.co.uk/MDRSdtmUD/ACME/V1#D-ACME_DMDomain_V3_IGV1> 			<http://www.assero.co.uk/BusinessOperational#local_label> 			"" . 
<http://www.assero.co.uk/MDRSdtmUD/ACME/V1#D-ACME_DMDomain_V3_IGV1> 			<http://www.assero.co.uk/BusinessOperational#enabled> 			"true" . 
<http://www.assero.co.uk/MDRSdtmUD/ACME/V1#D-ACME_DMDomain_V3_IGV1> 			<http://www.assero.co.uk/BusinessOperational#ordinal> 			"1" . 
<http://www.assero.co.uk/MDRSdtmUD/ACME/V1#D-ACME_DMDomain_V3_IGV1> 			<http://www.assero.co.uk/BusinessOperational#hasColumn> 			<http://www.assero.co.uk/MDRSdtmIgD/CDISC/V3#IG-CDISC_SDTMIGDM_USUBJID> . 
<http://www.assero.co.uk/MDRSdtmUD/ACME/V1#D-ACME_DMDomain_V17> 			<http://www.w3.org/2000/01/rdf-schema#label> 			"Age" . 
<http://www.assero.co.uk/MDRSdtmUD/ACME/V1#D-ACME_DMDomain_V17> 			<http://www.w3.org/1999/02/22-rdf-syntax-ns#type> 			<http://www.assero.co.uk/BusinessDomain#UserVariable> . 
<http://www.assero.co.uk/MDRSdtmUD/ACME/V1#D-ACME_DMDomain_V17> 			<http://www.assero.co.uk/BusinessDomain#ordinal> 			"17" . 
<http://www.assero.co.uk/MDRSdtmUD/ACME/V1#D-ACME_DMDomain_V17> 			<http://www.assero.co.uk/BusinessDomain#classifiedAs> 			<http://www.assero.co.uk/MDRSdtmM/CDISC/V3#M-CDISC_SDTMMODEL_C_QUALIFIER_SC_RECORDQUALIFIER> . 
<http://www.assero.co.uk/MDRSdtmUD/ACME/V1#D-ACME_DMDomain_V17> 			<http://www.assero.co.uk/BusinessDomain#name> 			"AGE" . 
<http://www.assero.co.uk/MDRSdtmUD/ACME/V1#D-ACME_DMDomain_V17> 			<http://www.assero.co.uk/BusinessDomain#notes> 			"" . 
<http://www.assero.co.uk/MDRSdtmUD/ACME/V1#D-ACME_DMDomain_V17> 			<http://www.assero.co.uk/BusinessDomain#format> 			"" . 
<http://www.assero.co.uk/MDRSdtmUD/ACME/V1#D-ACME_DMDomain_V17> 			<http://www.assero.co.uk/BusinessDomain#non_standard> 			"false" . 
<http://www.assero.co.uk/MDRSdtmUD/ACME/V1#D-ACME_DMDomain_V17> 			<http://www.assero.co.uk/BusinessDomain#comment> 			"" . 
<http://www.assero.co.uk/MDRSdtmUD/ACME/V1#D-ACME_DMDomain_V17> 			<http://www.assero.co.uk/BusinessDomain#rule> 			"" . 
<http://www.assero.co.uk/MDRSdtmUD/ACME/V1#D-ACME_DMDomain_V17> 			<http://www.assero.co.uk/BusinessDomain#typedAs> 			<http://www.assero.co.uk/MDRSdtmM/CDISC/V3#M-CDISC_SDTMMODEL_DT_NUM> . 
<http://www.assero.co.uk/MDRSdtmUD/ACME/V1#D-ACME_DMDomain_V17> 			<http://www.assero.co.uk/BusinessDomain#basedOnVariable> 			<http://www.assero.co.uk/MDRSdtmUD/ACME/V1#D-ACME_DMDomain_V17_IGV1> . 
<http://www.assero.co.uk/MDRSdtmUD/ACME/V1#D-ACME_DMDomain_V17> 			<http://www.assero.co.uk/BusinessDomain#used> 			"true" . 
<http://www.assero.co.uk/MDRSdtmUD/ACME/V1#D-ACME_DMDomain_V17> 			<http://www.assero.co.uk/BusinessDomain#length> 			"0" . 
<http://www.assero.co.uk/MDRSdtmUD/ACME/V1#D-ACME_DMDomain_V17> 			<http://www.assero.co.uk/BusinessDomain#ct> 			"" . 
<http://www.assero.co.uk/MDRSdtmUD/ACME/V1#D-ACME_DMDomain_V17> 			<http://www.assero.co.uk/BusinessDomain#key_ordinal> 			"0" . 
<http://www.assero.co.uk/MDRSdtmUD/ACME/V1#D-ACME_DMDomain_V17> 			<http://www.assero.co.uk/BusinessDomain#compliance> 			<http://www.assero.co.uk/MDRSdtmIg/CDISC/V3#IG-CDISC_SDTMIG_C_EXPECTED> . 
<http://www.assero.co.uk/MDRSdtmUD/ACME/V1#D-ACME_DMDomain_V17_IGV1> 			<http://www.w3.org/2000/01/rdf-schema#label> 			"Based on Variable Reference" . 
<http://www.assero.co.uk/MDRSdtmUD/ACME/V1#D-ACME_DMDomain_V17_IGV1> 			<http://www.w3.org/1999/02/22-rdf-syntax-ns#type> 			<http://www.assero.co.uk/BusinessOperational#CReference> . 
<http://www.assero.co.uk/MDRSdtmUD/ACME/V1#D-ACME_DMDomain_V17_IGV1> 			<http://www.assero.co.uk/BusinessOperational#optional> 			"false" . 
<http://www.assero.co.uk/MDRSdtmUD/ACME/V1#D-ACME_DMDomain_V17_IGV1> 			<http://www.assero.co.uk/BusinessOperational#local_label> 			"" . 
<http://www.assero.co.uk/MDRSdtmUD/ACME/V1#D-ACME_DMDomain_V17_IGV1> 			<http://www.assero.co.uk/BusinessOperational#enabled> 			"true" . 
<http://www.assero.co.uk/MDRSdtmUD/ACME/V1#D-ACME_DMDomain_V17_IGV1> 			<http://www.assero.co.uk/BusinessOperational#ordinal> 			"1" . 
<http://www.assero.co.uk/MDRSdtmUD/ACME/V1#D-ACME_DMDomain_V17_IGV1> 			<http://www.assero.co.uk/BusinessOperational#hasColumn> 			<http://www.assero.co.uk/MDRSdtmIgD/CDISC/V3#IG-CDISC_SDTMIGDM_AGE> . 
<http://www.assero.co.uk/MDRSdtmUD/ACME/V1#D-ACME_DMDomain_V11> 			<http://www.w3.org/2000/01/rdf-schema#label> 			"Date/Time of Death" . 
<http://www.assero.co.uk/MDRSdtmUD/ACME/V1#D-ACME_DMDomain_V11> 			<http://www.w3.org/1999/02/22-rdf-syntax-ns#type> 			<http://www.assero.co.uk/BusinessDomain#UserVariable> . 
<http://www.assero.co.uk/MDRSdtmUD/ACME/V1#D-ACME_DMDomain_V11> 			<http://www.assero.co.uk/BusinessDomain#ordinal> 			"11" . 
<http://www.assero.co.uk/MDRSdtmUD/ACME/V1#D-ACME_DMDomain_V11> 			<http://www.assero.co.uk/BusinessDomain#classifiedAs> 			<http://www.assero.co.uk/MDRSdtmM/CDISC/V3#M-CDISC_SDTMMODEL_C_QUALIFIER_SC_RECORDQUALIFIER> . 
<http://www.assero.co.uk/MDRSdtmUD/ACME/V1#D-ACME_DMDomain_V11> 			<http://www.assero.co.uk/BusinessDomain#name> 			"DTHDTC" . 
<http://www.assero.co.uk/MDRSdtmUD/ACME/V1#D-ACME_DMDomain_V11> 			<http://www.assero.co.uk/BusinessDomain#notes> 			"" . 
<http://www.assero.co.uk/MDRSdtmUD/ACME/V1#D-ACME_DMDomain_V11> 			<http://www.assero.co.uk/BusinessDomain#format> 			"ISO 8601" . 
<http://www.assero.co.uk/MDRSdtmUD/ACME/V1#D-ACME_DMDomain_V11> 			<http://www.assero.co.uk/BusinessDomain#non_standard> 			"false" . 
<http://www.assero.co.uk/MDRSdtmUD/ACME/V1#D-ACME_DMDomain_V11> 			<http://www.assero.co.uk/BusinessDomain#comment> 			"" . 
<http://www.assero.co.uk/MDRSdtmUD/ACME/V1#D-ACME_DMDomain_V11> 			<http://www.assero.co.uk/BusinessDomain#rule> 			"" . 
<http://www.assero.co.uk/MDRSdtmUD/ACME/V1#D-ACME_DMDomain_V11> 			<http://www.assero.co.uk/BusinessDomain#typedAs> 			<http://www.assero.co.uk/MDRSdtmM/CDISC/V3#M-CDISC_SDTMMODEL_DT_CHAR> . 
<http://www.assero.co.uk/MDRSdtmUD/ACME/V1#D-ACME_DMDomain_V11> 			<http://www.assero.co.uk/BusinessDomain#basedOnVariable> 			<http://www.assero.co.uk/MDRSdtmUD/ACME/V1#D-ACME_DMDomain_V11_IGV1> . 
<http://www.assero.co.uk/MDRSdtmUD/ACME/V1#D-ACME_DMDomain_V11> 			<http://www.assero.co.uk/BusinessDomain#used> 			"true" . 
<http://www.assero.co.uk/MDRSdtmUD/ACME/V1#D-ACME_DMDomain_V11> 			<http://www.assero.co.uk/BusinessDomain#length> 			"0" . 
<http://www.assero.co.uk/MDRSdtmUD/ACME/V1#D-ACME_DMDomain_V11> 			<http://www.assero.co.uk/BusinessDomain#ct> 			"" . 
<http://www.assero.co.uk/MDRSdtmUD/ACME/V1#D-ACME_DMDomain_V11> 			<http://www.assero.co.uk/BusinessDomain#key_ordinal> 			"0" . 
<http://www.assero.co.uk/MDRSdtmUD/ACME/V1#D-ACME_DMDomain_V11> 			<http://www.assero.co.uk/BusinessDomain#compliance> 			<http://www.assero.co.uk/MDRSdtmIg/CDISC/V3#IG-CDISC_SDTMIG_C_EXPECTED> . 
<http://www.assero.co.uk/MDRSdtmUD/ACME/V1#D-ACME_DMDomain_V11_IGV1> 			<http://www.w3.org/2000/01/rdf-schema#label> 			"Based on Variable Reference" . 
<http://www.assero.co.uk/MDRSdtmUD/ACME/V1#D-ACME_DMDomain_V11_IGV1> 			<http://www.w3.org/1999/02/22-rdf-syntax-ns#type> 			<http://www.assero.co.uk/BusinessOperational#CReference> . 
<http://www.assero.co.uk/MDRSdtmUD/ACME/V1#D-ACME_DMDomain_V11_IGV1> 			<http://www.assero.co.uk/BusinessOperational#optional> 			"false" . 
<http://www.assero.co.uk/MDRSdtmUD/ACME/V1#D-ACME_DMDomain_V11_IGV1> 			<http://www.assero.co.uk/BusinessOperational#local_label> 			"" . 
<http://www.assero.co.uk/MDRSdtmUD/ACME/V1#D-ACME_DMDomain_V11_IGV1> 			<http://www.assero.co.uk/BusinessOperational#enabled> 			"true" . 
<http://www.assero.co.uk/MDRSdtmUD/ACME/V1#D-ACME_DMDomain_V11_IGV1> 			<http://www.assero.co.uk/BusinessOperational#ordinal> 			"1" . 
<http://www.assero.co.uk/MDRSdtmUD/ACME/V1#D-ACME_DMDomain_V11_IGV1> 			<http://www.assero.co.uk/BusinessOperational#hasColumn> 			<http://www.assero.co.uk/MDRSdtmIgD/CDISC/V3#IG-CDISC_SDTMIGDM_DTHDTC> . 
<http://www.assero.co.uk/MDRSdtmUD/ACME/V1#D-ACME_DMDomain_V8> 			<http://www.w3.org/2000/01/rdf-schema#label> 			"Date/Time of Last Study Treatment" . 
<http://www.assero.co.uk/MDRSdtmUD/ACME/V1#D-ACME_DMDomain_V8> 			<http://www.w3.org/1999/02/22-rdf-syntax-ns#type> 			<http://www.assero.co.uk/BusinessDomain#UserVariable> . 
<http://www.assero.co.uk/MDRSdtmUD/ACME/V1#D-ACME_DMDomain_V8> 			<http://www.assero.co.uk/BusinessDomain#ordinal> 			"8" . 
<http://www.assero.co.uk/MDRSdtmUD/ACME/V1#D-ACME_DMDomain_V8> 			<http://www.assero.co.uk/BusinessDomain#classifiedAs> 			<http://www.assero.co.uk/MDRSdtmM/CDISC/V3#M-CDISC_SDTMMODEL_C_QUALIFIER_SC_RECORDQUALIFIER> . 
<http://www.assero.co.uk/MDRSdtmUD/ACME/V1#D-ACME_DMDomain_V8> 			<http://www.assero.co.uk/BusinessDomain#name> 			"RFXENDTC" . 
<http://www.assero.co.uk/MDRSdtmUD/ACME/V1#D-ACME_DMDomain_V8> 			<http://www.assero.co.uk/BusinessDomain#notes> 			"" . 
<http://www.assero.co.uk/MDRSdtmUD/ACME/V1#D-ACME_DMDomain_V8> 			<http://www.assero.co.uk/BusinessDomain#format> 			"ISO 8601" . 
<http://www.assero.co.uk/MDRSdtmUD/ACME/V1#D-ACME_DMDomain_V8> 			<http://www.assero.co.uk/BusinessDomain#non_standard> 			"false" . 
<http://www.assero.co.uk/MDRSdtmUD/ACME/V1#D-ACME_DMDomain_V8> 			<http://www.assero.co.uk/BusinessDomain#comment> 			"" . 
<http://www.assero.co.uk/MDRSdtmUD/ACME/V1#D-ACME_DMDomain_V8> 			<http://www.assero.co.uk/BusinessDomain#rule> 			"" . 
<http://www.assero.co.uk/MDRSdtmUD/ACME/V1#D-ACME_DMDomain_V8> 			<http://www.assero.co.uk/BusinessDomain#typedAs> 			<http://www.assero.co.uk/MDRSdtmM/CDISC/V3#M-CDISC_SDTMMODEL_DT_CHAR> . 
<http://www.assero.co.uk/MDRSdtmUD/ACME/V1#D-ACME_DMDomain_V8> 			<http://www.assero.co.uk/BusinessDomain#basedOnVariable> 			<http://www.assero.co.uk/MDRSdtmUD/ACME/V1#D-ACME_DMDomain_V8_IGV1> . 
<http://www.assero.co.uk/MDRSdtmUD/ACME/V1#D-ACME_DMDomain_V8> 			<http://www.assero.co.uk/BusinessDomain#used> 			"true" . 
<http://www.assero.co.uk/MDRSdtmUD/ACME/V1#D-ACME_DMDomain_V8> 			<http://www.assero.co.uk/BusinessDomain#length> 			"0" . 
<http://www.assero.co.uk/MDRSdtmUD/ACME/V1#D-ACME_DMDomain_V8> 			<http://www.assero.co.uk/BusinessDomain#ct> 			"" . 
<http://www.assero.co.uk/MDRSdtmUD/ACME/V1#D-ACME_DMDomain_V8> 			<http://www.assero.co.uk/BusinessDomain#key_ordinal> 			"0" . 
<http://www.assero.co.uk/MDRSdtmUD/ACME/V1#D-ACME_DMDomain_V8> 			<http://www.assero.co.uk/BusinessDomain#compliance> 			<http://www.assero.co.uk/MDRSdtmIg/CDISC/V3#IG-CDISC_SDTMIG_C_EXPECTED> . 
<http://www.assero.co.uk/MDRSdtmUD/ACME/V1#D-ACME_DMDomain_V8_IGV1> 			<http://www.w3.org/2000/01/rdf-schema#label> 			"Based on Variable Reference" . 
<http://www.assero.co.uk/MDRSdtmUD/ACME/V1#D-ACME_DMDomain_V8_IGV1> 			<http://www.w3.org/1999/02/22-rdf-syntax-ns#type> 			<http://www.assero.co.uk/BusinessOperational#CReference> . 
<http://www.assero.co.uk/MDRSdtmUD/ACME/V1#D-ACME_DMDomain_V8_IGV1> 			<http://www.assero.co.uk/BusinessOperational#optional> 			"false" . 
<http://www.assero.co.uk/MDRSdtmUD/ACME/V1#D-ACME_DMDomain_V8_IGV1> 			<http://www.assero.co.uk/BusinessOperational#local_label> 			"" . 
<http://www.assero.co.uk/MDRSdtmUD/ACME/V1#D-ACME_DMDomain_V8_IGV1> 			<http://www.assero.co.uk/BusinessOperational#enabled> 			"true" . 
<http://www.assero.co.uk/MDRSdtmUD/ACME/V1#D-ACME_DMDomain_V8_IGV1> 			<http://www.assero.co.uk/BusinessOperational#ordinal> 			"1" . 
<http://www.assero.co.uk/MDRSdtmUD/ACME/V1#D-ACME_DMDomain_V8_IGV1> 			<http://www.assero.co.uk/BusinessOperational#hasColumn> 			<http://www.assero.co.uk/MDRSdtmIgD/CDISC/V3#IG-CDISC_SDTMIGDM_RFXENDTC> . 
<http://www.assero.co.uk/MDRSdtmUD/ACME/V1#D-ACME_DMDomain_V24> 			<http://www.w3.org/2000/01/rdf-schema#label> 			"Actual Arm Code" . 
<http://www.assero.co.uk/MDRSdtmUD/ACME/V1#D-ACME_DMDomain_V24> 			<http://www.w3.org/1999/02/22-rdf-syntax-ns#type> 			<http://www.assero.co.uk/BusinessDomain#UserVariable> . 
<http://www.assero.co.uk/MDRSdtmUD/ACME/V1#D-ACME_DMDomain_V24> 			<http://www.assero.co.uk/BusinessDomain#ordinal> 			"24" . 
<http://www.assero.co.uk/MDRSdtmUD/ACME/V1#D-ACME_DMDomain_V24> 			<http://www.assero.co.uk/BusinessDomain#classifiedAs> 			<http://www.assero.co.uk/MDRSdtmM/CDISC/V3#M-CDISC_SDTMMODEL_C_QUALIFIER_SC_RECORDQUALIFIER> . 
<http://www.assero.co.uk/MDRSdtmUD/ACME/V1#D-ACME_DMDomain_V24> 			<http://www.assero.co.uk/BusinessDomain#name> 			"ACTARMCD" . 
<http://www.assero.co.uk/MDRSdtmUD/ACME/V1#D-ACME_DMDomain_V24> 			<http://www.assero.co.uk/BusinessDomain#notes> 			"" . 
<http://www.assero.co.uk/MDRSdtmUD/ACME/V1#D-ACME_DMDomain_V24> 			<http://www.assero.co.uk/BusinessDomain#format> 			"" . 
<http://www.assero.co.uk/MDRSdtmUD/ACME/V1#D-ACME_DMDomain_V24> 			<http://www.assero.co.uk/BusinessDomain#non_standard> 			"false" . 
<http://www.assero.co.uk/MDRSdtmUD/ACME/V1#D-ACME_DMDomain_V24> 			<http://www.assero.co.uk/BusinessDomain#comment> 			"" . 
<http://www.assero.co.uk/MDRSdtmUD/ACME/V1#D-ACME_DMDomain_V24> 			<http://www.assero.co.uk/BusinessDomain#rule> 			"" . 
<http://www.assero.co.uk/MDRSdtmUD/ACME/V1#D-ACME_DMDomain_V24> 			<http://www.assero.co.uk/BusinessDomain#typedAs> 			<http://www.assero.co.uk/MDRSdtmM/CDISC/V3#M-CDISC_SDTMMODEL_DT_CHAR> . 
<http://www.assero.co.uk/MDRSdtmUD/ACME/V1#D-ACME_DMDomain_V24> 			<http://www.assero.co.uk/BusinessDomain#basedOnVariable> 			<http://www.assero.co.uk/MDRSdtmUD/ACME/V1#D-ACME_DMDomain_V24_IGV1> . 
<http://www.assero.co.uk/MDRSdtmUD/ACME/V1#D-ACME_DMDomain_V24> 			<http://www.assero.co.uk/BusinessDomain#used> 			"true" . 
<http://www.assero.co.uk/MDRSdtmUD/ACME/V1#D-ACME_DMDomain_V24> 			<http://www.assero.co.uk/BusinessDomain#length> 			"0" . 
<http://www.assero.co.uk/MDRSdtmUD/ACME/V1#D-ACME_DMDomain_V24> 			<http://www.assero.co.uk/BusinessDomain#ct> 			"" . 
<http://www.assero.co.uk/MDRSdtmUD/ACME/V1#D-ACME_DMDomain_V24> 			<http://www.assero.co.uk/BusinessDomain#key_ordinal> 			"0" . 
<http://www.assero.co.uk/MDRSdtmUD/ACME/V1#D-ACME_DMDomain_V24> 			<http://www.assero.co.uk/BusinessDomain#compliance> 			<http://www.assero.co.uk/MDRSdtmIg/CDISC/V3#IG-CDISC_SDTMIG_C_REQUIRED> . 
<http://www.assero.co.uk/MDRSdtmUD/ACME/V1#D-ACME_DMDomain_V24_IGV1> 			<http://www.w3.org/2000/01/rdf-schema#label> 			"Based on Variable Reference" . 
<http://www.assero.co.uk/MDRSdtmUD/ACME/V1#D-ACME_DMDomain_V24_IGV1> 			<http://www.w3.org/1999/02/22-rdf-syntax-ns#type> 			<http://www.assero.co.uk/BusinessOperational#CReference> . 
<http://www.assero.co.uk/MDRSdtmUD/ACME/V1#D-ACME_DMDomain_V24_IGV1> 			<http://www.assero.co.uk/BusinessOperational#optional> 			"false" . 
<http://www.assero.co.uk/MDRSdtmUD/ACME/V1#D-ACME_DMDomain_V24_IGV1> 			<http://www.assero.co.uk/BusinessOperational#local_label> 			"" . 
<http://www.assero.co.uk/MDRSdtmUD/ACME/V1#D-ACME_DMDomain_V24_IGV1> 			<http://www.assero.co.uk/BusinessOperational#enabled> 			"true" . 
<http://www.assero.co.uk/MDRSdtmUD/ACME/V1#D-ACME_DMDomain_V24_IGV1> 			<http://www.assero.co.uk/BusinessOperational#ordinal> 			"1" . 
<http://www.assero.co.uk/MDRSdtmUD/ACME/V1#D-ACME_DMDomain_V24_IGV1> 			<http://www.assero.co.uk/BusinessOperational#hasColumn> 			<http://www.assero.co.uk/MDRSdtmIgD/CDISC/V3#IG-CDISC_SDTMIGDM_ACTARMCD> . 
<http://www.assero.co.uk/MDRSdtmUD/ACME/V1#D-ACME_DMDomain_V2> 			<http://www.w3.org/2000/01/rdf-schema#label> 			"Domain Abbreviation" . 
<http://www.assero.co.uk/MDRSdtmUD/ACME/V1#D-ACME_DMDomain_V2> 			<http://www.w3.org/1999/02/22-rdf-syntax-ns#type> 			<http://www.assero.co.uk/BusinessDomain#UserVariable> . 
<http://www.assero.co.uk/MDRSdtmUD/ACME/V1#D-ACME_DMDomain_V2> 			<http://www.assero.co.uk/BusinessDomain#ordinal> 			"2" . 
<http://www.assero.co.uk/MDRSdtmUD/ACME/V1#D-ACME_DMDomain_V2> 			<http://www.assero.co.uk/BusinessDomain#classifiedAs> 			<http://www.assero.co.uk/MDRSdtmM/CDISC/V3#M-CDISC_SDTMMODEL_C_IDENTIFIER> . 
<http://www.assero.co.uk/MDRSdtmUD/ACME/V1#D-ACME_DMDomain_V2> 			<http://www.assero.co.uk/BusinessDomain#name> 			"DOMAIN" . 
<http://www.assero.co.uk/MDRSdtmUD/ACME/V1#D-ACME_DMDomain_V2> 			<http://www.assero.co.uk/BusinessDomain#notes> 			"" . 
<http://www.assero.co.uk/MDRSdtmUD/ACME/V1#D-ACME_DMDomain_V2> 			<http://www.assero.co.uk/BusinessDomain#format> 			"" . 
<http://www.assero.co.uk/MDRSdtmUD/ACME/V1#D-ACME_DMDomain_V2> 			<http://www.assero.co.uk/BusinessDomain#non_standard> 			"false" . 
<http://www.assero.co.uk/MDRSdtmUD/ACME/V1#D-ACME_DMDomain_V2> 			<http://www.assero.co.uk/BusinessDomain#comment> 			"" . 
<http://www.assero.co.uk/MDRSdtmUD/ACME/V1#D-ACME_DMDomain_V2> 			<http://www.assero.co.uk/BusinessDomain#rule> 			"" . 
<http://www.assero.co.uk/MDRSdtmUD/ACME/V1#D-ACME_DMDomain_V2> 			<http://www.assero.co.uk/BusinessDomain#typedAs> 			<http://www.assero.co.uk/MDRSdtmM/CDISC/V3#M-CDISC_SDTMMODEL_DT_CHAR> . 
<http://www.assero.co.uk/MDRSdtmUD/ACME/V1#D-ACME_DMDomain_V2> 			<http://www.assero.co.uk/BusinessDomain#basedOnVariable> 			<http://www.assero.co.uk/MDRSdtmUD/ACME/V1#D-ACME_DMDomain_V2_IGV1> . 
<http://www.assero.co.uk/MDRSdtmUD/ACME/V1#D-ACME_DMDomain_V2> 			<http://www.assero.co.uk/BusinessDomain#used> 			"true" . 
<http://www.assero.co.uk/MDRSdtmUD/ACME/V1#D-ACME_DMDomain_V2> 			<http://www.assero.co.uk/BusinessDomain#length> 			"0" . 
<http://www.assero.co.uk/MDRSdtmUD/ACME/V1#D-ACME_DMDomain_V2> 			<http://www.assero.co.uk/BusinessDomain#ct> 			"DOMAIN" . 
<http://www.assero.co.uk/MDRSdtmUD/ACME/V1#D-ACME_DMDomain_V2> 			<http://www.assero.co.uk/BusinessDomain#key_ordinal> 			"0" . 
<http://www.assero.co.uk/MDRSdtmUD/ACME/V1#D-ACME_DMDomain_V2> 			<http://www.assero.co.uk/BusinessDomain#compliance> 			<http://www.assero.co.uk/MDRSdtmIg/CDISC/V3#IG-CDISC_SDTMIG_C_REQUIRED> . 
<http://www.assero.co.uk/MDRSdtmUD/ACME/V1#D-ACME_DMDomain_V2_IGV1> 			<http://www.w3.org/2000/01/rdf-schema#label> 			"Based on Variable Reference" . 
<http://www.assero.co.uk/MDRSdtmUD/ACME/V1#D-ACME_DMDomain_V2_IGV1> 			<http://www.w3.org/1999/02/22-rdf-syntax-ns#type> 			<http://www.assero.co.uk/BusinessOperational#CReference> . 
<http://www.assero.co.uk/MDRSdtmUD/ACME/V1#D-ACME_DMDomain_V2_IGV1> 			<http://www.assero.co.uk/BusinessOperational#optional> 			"false" . 
<http://www.assero.co.uk/MDRSdtmUD/ACME/V1#D-ACME_DMDomain_V2_IGV1> 			<http://www.assero.co.uk/BusinessOperational#local_label> 			"" . 
<http://www.assero.co.uk/MDRSdtmUD/ACME/V1#D-ACME_DMDomain_V2_IGV1> 			<http://www.assero.co.uk/BusinessOperational#enabled> 			"true" . 
<http://www.assero.co.uk/MDRSdtmUD/ACME/V1#D-ACME_DMDomain_V2_IGV1> 			<http://www.assero.co.uk/BusinessOperational#ordinal> 			"1" . 
<http://www.assero.co.uk/MDRSdtmUD/ACME/V1#D-ACME_DMDomain_V2_IGV1> 			<http://www.assero.co.uk/BusinessOperational#hasColumn> 			<http://www.assero.co.uk/MDRSdtmIgD/CDISC/V3#IG-CDISC_SDTMIGDM_DOMAIN> . 
<http://www.assero.co.uk/MDRSdtmUD/ACME/V1#D-ACME_DMDomain_V16> 			<http://www.w3.org/2000/01/rdf-schema#label> 			"Date/Time of Birth" . 
<http://www.assero.co.uk/MDRSdtmUD/ACME/V1#D-ACME_DMDomain_V16> 			<http://www.w3.org/1999/02/22-rdf-syntax-ns#type> 			<http://www.assero.co.uk/BusinessDomain#UserVariable> . 
<http://www.assero.co.uk/MDRSdtmUD/ACME/V1#D-ACME_DMDomain_V16> 			<http://www.assero.co.uk/BusinessDomain#ordinal> 			"16" . 
<http://www.assero.co.uk/MDRSdtmUD/ACME/V1#D-ACME_DMDomain_V16> 			<http://www.assero.co.uk/BusinessDomain#classifiedAs> 			<http://www.assero.co.uk/MDRSdtmM/CDISC/V3#M-CDISC_SDTMMODEL_C_QUALIFIER_SC_RECORDQUALIFIER> . 
<http://www.assero.co.uk/MDRSdtmUD/ACME/V1#D-ACME_DMDomain_V16> 			<http://www.assero.co.uk/BusinessDomain#name> 			"BRTHDTC" . 
<http://www.assero.co.uk/MDRSdtmUD/ACME/V1#D-ACME_DMDomain_V16> 			<http://www.assero.co.uk/BusinessDomain#notes> 			"" . 
<http://www.assero.co.uk/MDRSdtmUD/ACME/V1#D-ACME_DMDomain_V16> 			<http://www.assero.co.uk/BusinessDomain#format> 			"ISO 8601" . 
<http://www.assero.co.uk/MDRSdtmUD/ACME/V1#D-ACME_DMDomain_V16> 			<http://www.assero.co.uk/BusinessDomain#non_standard> 			"false" . 
<http://www.assero.co.uk/MDRSdtmUD/ACME/V1#D-ACME_DMDomain_V16> 			<http://www.assero.co.uk/BusinessDomain#comment> 			"" . 
<http://www.assero.co.uk/MDRSdtmUD/ACME/V1#D-ACME_DMDomain_V16> 			<http://www.assero.co.uk/BusinessDomain#rule> 			"" . 
<http://www.assero.co.uk/MDRSdtmUD/ACME/V1#D-ACME_DMDomain_V16> 			<http://www.assero.co.uk/BusinessDomain#typedAs> 			<http://www.assero.co.uk/MDRSdtmM/CDISC/V3#M-CDISC_SDTMMODEL_DT_CHAR> . 
<http://www.assero.co.uk/MDRSdtmUD/ACME/V1#D-ACME_DMDomain_V16> 			<http://www.assero.co.uk/BusinessDomain#basedOnVariable> 			<http://www.assero.co.uk/MDRSdtmUD/ACME/V1#D-ACME_DMDomain_V16_IGV1> . 
<http://www.assero.co.uk/MDRSdtmUD/ACME/V1#D-ACME_DMDomain_V16> 			<http://www.assero.co.uk/BusinessDomain#used> 			"true" . 
<http://www.assero.co.uk/MDRSdtmUD/ACME/V1#D-ACME_DMDomain_V16> 			<http://www.assero.co.uk/BusinessDomain#length> 			"0" . 
<http://www.assero.co.uk/MDRSdtmUD/ACME/V1#D-ACME_DMDomain_V16> 			<http://www.assero.co.uk/BusinessDomain#ct> 			"" . 
<http://www.assero.co.uk/MDRSdtmUD/ACME/V1#D-ACME_DMDomain_V16> 			<http://www.assero.co.uk/BusinessDomain#key_ordinal> 			"0" . 
<http://www.assero.co.uk/MDRSdtmUD/ACME/V1#D-ACME_DMDomain_V16> 			<http://www.assero.co.uk/BusinessDomain#compliance> 			<http://www.assero.co.uk/MDRSdtmIg/CDISC/V3#IG-CDISC_SDTMIG_C_PERMISSIBLE> . 
<http://www.assero.co.uk/MDRSdtmUD/ACME/V1#D-ACME_DMDomain_V16_IGV1> 			<http://www.w3.org/2000/01/rdf-schema#label> 			"Based on Variable Reference" . 
<http://www.assero.co.uk/MDRSdtmUD/ACME/V1#D-ACME_DMDomain_V16_IGV1> 			<http://www.w3.org/1999/02/22-rdf-syntax-ns#type> 			<http://www.assero.co.uk/BusinessOperational#CReference> . 
<http://www.assero.co.uk/MDRSdtmUD/ACME/V1#D-ACME_DMDomain_V16_IGV1> 			<http://www.assero.co.uk/BusinessOperational#optional> 			"false" . 
<http://www.assero.co.uk/MDRSdtmUD/ACME/V1#D-ACME_DMDomain_V16_IGV1> 			<http://www.assero.co.uk/BusinessOperational#local_label> 			"" . 
<http://www.assero.co.uk/MDRSdtmUD/ACME/V1#D-ACME_DMDomain_V16_IGV1> 			<http://www.assero.co.uk/BusinessOperational#enabled> 			"true" . 
<http://www.assero.co.uk/MDRSdtmUD/ACME/V1#D-ACME_DMDomain_V16_IGV1> 			<http://www.assero.co.uk/BusinessOperational#ordinal> 			"1" . 
<http://www.assero.co.uk/MDRSdtmUD/ACME/V1#D-ACME_DMDomain_V16_IGV1> 			<http://www.assero.co.uk/BusinessOperational#hasColumn> 			<http://www.assero.co.uk/MDRSdtmIgD/CDISC/V3#IG-CDISC_SDTMIGDM_BRTHDTC> . 
<http://www.assero.co.uk/MDRSdtmUD/ACME/V1#D-ACME_DMDomain_V10> 			<http://www.w3.org/2000/01/rdf-schema#label> 			"Date/Time of End of Participation" . 
<http://www.assero.co.uk/MDRSdtmUD/ACME/V1#D-ACME_DMDomain_V10> 			<http://www.w3.org/1999/02/22-rdf-syntax-ns#type> 			<http://www.assero.co.uk/BusinessDomain#UserVariable> . 
<http://www.assero.co.uk/MDRSdtmUD/ACME/V1#D-ACME_DMDomain_V10> 			<http://www.assero.co.uk/BusinessDomain#ordinal> 			"10" . 
<http://www.assero.co.uk/MDRSdtmUD/ACME/V1#D-ACME_DMDomain_V10> 			<http://www.assero.co.uk/BusinessDomain#classifiedAs> 			<http://www.assero.co.uk/MDRSdtmM/CDISC/V3#M-CDISC_SDTMMODEL_C_QUALIFIER_SC_RECORDQUALIFIER> . 
<http://www.assero.co.uk/MDRSdtmUD/ACME/V1#D-ACME_DMDomain_V10> 			<http://www.assero.co.uk/BusinessDomain#name> 			"RFPENDTC" . 
<http://www.assero.co.uk/MDRSdtmUD/ACME/V1#D-ACME_DMDomain_V10> 			<http://www.assero.co.uk/BusinessDomain#notes> 			"" . 
<http://www.assero.co.uk/MDRSdtmUD/ACME/V1#D-ACME_DMDomain_V10> 			<http://www.assero.co.uk/BusinessDomain#format> 			"ISO 8601" . 
<http://www.assero.co.uk/MDRSdtmUD/ACME/V1#D-ACME_DMDomain_V10> 			<http://www.assero.co.uk/BusinessDomain#non_standard> 			"false" . 
<http://www.assero.co.uk/MDRSdtmUD/ACME/V1#D-ACME_DMDomain_V10> 			<http://www.assero.co.uk/BusinessDomain#comment> 			"" . 
<http://www.assero.co.uk/MDRSdtmUD/ACME/V1#D-ACME_DMDomain_V10> 			<http://www.assero.co.uk/BusinessDomain#rule> 			"" . 
<http://www.assero.co.uk/MDRSdtmUD/ACME/V1#D-ACME_DMDomain_V10> 			<http://www.assero.co.uk/BusinessDomain#typedAs> 			<http://www.assero.co.uk/MDRSdtmM/CDISC/V3#M-CDISC_SDTMMODEL_DT_CHAR> . 
<http://www.assero.co.uk/MDRSdtmUD/ACME/V1#D-ACME_DMDomain_V10> 			<http://www.assero.co.uk/BusinessDomain#basedOnVariable> 			<http://www.assero.co.uk/MDRSdtmUD/ACME/V1#D-ACME_DMDomain_V10_IGV1> . 
<http://www.assero.co.uk/MDRSdtmUD/ACME/V1#D-ACME_DMDomain_V10> 			<http://www.assero.co.uk/BusinessDomain#used> 			"true" . 
<http://www.assero.co.uk/MDRSdtmUD/ACME/V1#D-ACME_DMDomain_V10> 			<http://www.assero.co.uk/BusinessDomain#length> 			"0" . 
<http://www.assero.co.uk/MDRSdtmUD/ACME/V1#D-ACME_DMDomain_V10> 			<http://www.assero.co.uk/BusinessDomain#ct> 			"" . 
<http://www.assero.co.uk/MDRSdtmUD/ACME/V1#D-ACME_DMDomain_V10> 			<http://www.assero.co.uk/BusinessDomain#key_ordinal> 			"0" . 
<http://www.assero.co.uk/MDRSdtmUD/ACME/V1#D-ACME_DMDomain_V10> 			<http://www.assero.co.uk/BusinessDomain#compliance> 			<http://www.assero.co.uk/MDRSdtmIg/CDISC/V3#IG-CDISC_SDTMIG_C_EXPECTED> . 
<http://www.assero.co.uk/MDRSdtmUD/ACME/V1#D-ACME_DMDomain_V10_IGV1> 			<http://www.w3.org/2000/01/rdf-schema#label> 			"Based on Variable Reference" . 
<http://www.assero.co.uk/MDRSdtmUD/ACME/V1#D-ACME_DMDomain_V10_IGV1> 			<http://www.w3.org/1999/02/22-rdf-syntax-ns#type> 			<http://www.assero.co.uk/BusinessOperational#CReference> . 
<http://www.assero.co.uk/MDRSdtmUD/ACME/V1#D-ACME_DMDomain_V10_IGV1> 			<http://www.assero.co.uk/BusinessOperational#optional> 			"false" . 
<http://www.assero.co.uk/MDRSdtmUD/ACME/V1#D-ACME_DMDomain_V10_IGV1> 			<http://www.assero.co.uk/BusinessOperational#local_label> 			"" . 
<http://www.assero.co.uk/MDRSdtmUD/ACME/V1#D-ACME_DMDomain_V10_IGV1> 			<http://www.assero.co.uk/BusinessOperational#enabled> 			"true" . 
<http://www.assero.co.uk/MDRSdtmUD/ACME/V1#D-ACME_DMDomain_V10_IGV1> 			<http://www.assero.co.uk/BusinessOperational#ordinal> 			"1" . 
<http://www.assero.co.uk/MDRSdtmUD/ACME/V1#D-ACME_DMDomain_V10_IGV1> 			<http://www.assero.co.uk/BusinessOperational#hasColumn> 			<http://www.assero.co.uk/MDRSdtmIgD/CDISC/V3#IG-CDISC_SDTMIGDM_RFPENDTC> . 
<http://www.assero.co.uk/MDRSdtmUD/ACME/V1#D-ACME_DMDomain_V7> 			<http://www.w3.org/2000/01/rdf-schema#label> 			"Date/Time of First Study Treatment" . 
<http://www.assero.co.uk/MDRSdtmUD/ACME/V1#D-ACME_DMDomain_V7> 			<http://www.w3.org/1999/02/22-rdf-syntax-ns#type> 			<http://www.assero.co.uk/BusinessDomain#UserVariable> . 
<http://www.assero.co.uk/MDRSdtmUD/ACME/V1#D-ACME_DMDomain_V7> 			<http://www.assero.co.uk/BusinessDomain#ordinal> 			"7" . 
<http://www.assero.co.uk/MDRSdtmUD/ACME/V1#D-ACME_DMDomain_V7> 			<http://www.assero.co.uk/BusinessDomain#classifiedAs> 			<http://www.assero.co.uk/MDRSdtmM/CDISC/V3#M-CDISC_SDTMMODEL_C_QUALIFIER_SC_RECORDQUALIFIER> . 
<http://www.assero.co.uk/MDRSdtmUD/ACME/V1#D-ACME_DMDomain_V7> 			<http://www.assero.co.uk/BusinessDomain#name> 			"RFXSTDTC" . 
<http://www.assero.co.uk/MDRSdtmUD/ACME/V1#D-ACME_DMDomain_V7> 			<http://www.assero.co.uk/BusinessDomain#notes> 			"" . 
<http://www.assero.co.uk/MDRSdtmUD/ACME/V1#D-ACME_DMDomain_V7> 			<http://www.assero.co.uk/BusinessDomain#format> 			"ISO 8601" . 
<http://www.assero.co.uk/MDRSdtmUD/ACME/V1#D-ACME_DMDomain_V7> 			<http://www.assero.co.uk/BusinessDomain#non_standard> 			"false" . 
<http://www.assero.co.uk/MDRSdtmUD/ACME/V1#D-ACME_DMDomain_V7> 			<http://www.assero.co.uk/BusinessDomain#comment> 			"" . 
<http://www.assero.co.uk/MDRSdtmUD/ACME/V1#D-ACME_DMDomain_V7> 			<http://www.assero.co.uk/BusinessDomain#rule> 			"" . 
<http://www.assero.co.uk/MDRSdtmUD/ACME/V1#D-ACME_DMDomain_V7> 			<http://www.assero.co.uk/BusinessDomain#typedAs> 			<http://www.assero.co.uk/MDRSdtmM/CDISC/V3#M-CDISC_SDTMMODEL_DT_CHAR> . 
<http://www.assero.co.uk/MDRSdtmUD/ACME/V1#D-ACME_DMDomain_V7> 			<http://www.assero.co.uk/BusinessDomain#basedOnVariable> 			<http://www.assero.co.uk/MDRSdtmUD/ACME/V1#D-ACME_DMDomain_V7_IGV1> . 
<http://www.assero.co.uk/MDRSdtmUD/ACME/V1#D-ACME_DMDomain_V7> 			<http://www.assero.co.uk/BusinessDomain#used> 			"true" . 
<http://www.assero.co.uk/MDRSdtmUD/ACME/V1#D-ACME_DMDomain_V7> 			<http://www.assero.co.uk/BusinessDomain#length> 			"0" . 
<http://www.assero.co.uk/MDRSdtmUD/ACME/V1#D-ACME_DMDomain_V7> 			<http://www.assero.co.uk/BusinessDomain#ct> 			"" . 
<http://www.assero.co.uk/MDRSdtmUD/ACME/V1#D-ACME_DMDomain_V7> 			<http://www.assero.co.uk/BusinessDomain#key_ordinal> 			"0" . 
<http://www.assero.co.uk/MDRSdtmUD/ACME/V1#D-ACME_DMDomain_V7> 			<http://www.assero.co.uk/BusinessDomain#compliance> 			<http://www.assero.co.uk/MDRSdtmIg/CDISC/V3#IG-CDISC_SDTMIG_C_EXPECTED> . 
<http://www.assero.co.uk/MDRSdtmUD/ACME/V1#D-ACME_DMDomain_V7_IGV1> 			<http://www.w3.org/2000/01/rdf-schema#label> 			"Based on Variable Reference" . 
<http://www.assero.co.uk/MDRSdtmUD/ACME/V1#D-ACME_DMDomain_V7_IGV1> 			<http://www.w3.org/1999/02/22-rdf-syntax-ns#type> 			<http://www.assero.co.uk/BusinessOperational#CReference> . 
<http://www.assero.co.uk/MDRSdtmUD/ACME/V1#D-ACME_DMDomain_V7_IGV1> 			<http://www.assero.co.uk/BusinessOperational#optional> 			"false" . 
<http://www.assero.co.uk/MDRSdtmUD/ACME/V1#D-ACME_DMDomain_V7_IGV1> 			<http://www.assero.co.uk/BusinessOperational#local_label> 			"" . 
<http://www.assero.co.uk/MDRSdtmUD/ACME/V1#D-ACME_DMDomain_V7_IGV1> 			<http://www.assero.co.uk/BusinessOperational#enabled> 			"true" . 
<http://www.assero.co.uk/MDRSdtmUD/ACME/V1#D-ACME_DMDomain_V7_IGV1> 			<http://www.assero.co.uk/BusinessOperational#ordinal> 			"1" . 
<http://www.assero.co.uk/MDRSdtmUD/ACME/V1#D-ACME_DMDomain_V7_IGV1> 			<http://www.assero.co.uk/BusinessOperational#hasColumn> 			<http://www.assero.co.uk/MDRSdtmIgD/CDISC/V3#IG-CDISC_SDTMIGDM_RFXSTDTC> . 
<http://www.assero.co.uk/MDRSdtmUD/ACME/V1#D-ACME_DMDomain_V23> 			<http://www.w3.org/2000/01/rdf-schema#label> 			"Description of Planned Arm" . 
<http://www.assero.co.uk/MDRSdtmUD/ACME/V1#D-ACME_DMDomain_V23> 			<http://www.w3.org/1999/02/22-rdf-syntax-ns#type> 			<http://www.assero.co.uk/BusinessDomain#UserVariable> . 
<http://www.assero.co.uk/MDRSdtmUD/ACME/V1#D-ACME_DMDomain_V23> 			<http://www.assero.co.uk/BusinessDomain#ordinal> 			"23" . 
<http://www.assero.co.uk/MDRSdtmUD/ACME/V1#D-ACME_DMDomain_V23> 			<http://www.assero.co.uk/BusinessDomain#classifiedAs> 			<http://www.assero.co.uk/MDRSdtmM/CDISC/V3#M-CDISC_SDTMMODEL_C_QUALIFIER_SC_RECORDQUALIFIER> . 
<http://www.assero.co.uk/MDRSdtmUD/ACME/V1#D-ACME_DMDomain_V23> 			<http://www.assero.co.uk/BusinessDomain#name> 			"ARM" . 
<http://www.assero.co.uk/MDRSdtmUD/ACME/V1#D-ACME_DMDomain_V23> 			<http://www.assero.co.uk/BusinessDomain#notes> 			"" . 
<http://www.assero.co.uk/MDRSdtmUD/ACME/V1#D-ACME_DMDomain_V23> 			<http://www.assero.co.uk/BusinessDomain#format> 			"" . 
<http://www.assero.co.uk/MDRSdtmUD/ACME/V1#D-ACME_DMDomain_V23> 			<http://www.assero.co.uk/BusinessDomain#non_standard> 			"false" . 
<http://www.assero.co.uk/MDRSdtmUD/ACME/V1#D-ACME_DMDomain_V23> 			<http://www.assero.co.uk/BusinessDomain#comment> 			"" . 
<http://www.assero.co.uk/MDRSdtmUD/ACME/V1#D-ACME_DMDomain_V23> 			<http://www.assero.co.uk/BusinessDomain#rule> 			"" . 
<http://www.assero.co.uk/MDRSdtmUD/ACME/V1#D-ACME_DMDomain_V23> 			<http://www.assero.co.uk/BusinessDomain#typedAs> 			<http://www.assero.co.uk/MDRSdtmM/CDISC/V3#M-CDISC_SDTMMODEL_DT_CHAR> . 
<http://www.assero.co.uk/MDRSdtmUD/ACME/V1#D-ACME_DMDomain_V23> 			<http://www.assero.co.uk/BusinessDomain#basedOnVariable> 			<http://www.assero.co.uk/MDRSdtmUD/ACME/V1#D-ACME_DMDomain_V23_IGV1> . 
<http://www.assero.co.uk/MDRSdtmUD/ACME/V1#D-ACME_DMDomain_V23> 			<http://www.assero.co.uk/BusinessDomain#used> 			"true" . 
<http://www.assero.co.uk/MDRSdtmUD/ACME/V1#D-ACME_DMDomain_V23> 			<http://www.assero.co.uk/BusinessDomain#length> 			"0" . 
<http://www.assero.co.uk/MDRSdtmUD/ACME/V1#D-ACME_DMDomain_V23> 			<http://www.assero.co.uk/BusinessDomain#ct> 			"" . 
<http://www.assero.co.uk/MDRSdtmUD/ACME/V1#D-ACME_DMDomain_V23> 			<http://www.assero.co.uk/BusinessDomain#key_ordinal> 			"0" . 
<http://www.assero.co.uk/MDRSdtmUD/ACME/V1#D-ACME_DMDomain_V23> 			<http://www.assero.co.uk/BusinessDomain#compliance> 			<http://www.assero.co.uk/MDRSdtmIg/CDISC/V3#IG-CDISC_SDTMIG_C_REQUIRED> . 
<http://www.assero.co.uk/MDRSdtmUD/ACME/V1#D-ACME_DMDomain_V23_IGV1> 			<http://www.w3.org/2000/01/rdf-schema#label> 			"Based on Variable Reference" . 
<http://www.assero.co.uk/MDRSdtmUD/ACME/V1#D-ACME_DMDomain_V23_IGV1> 			<http://www.w3.org/1999/02/22-rdf-syntax-ns#type> 			<http://www.assero.co.uk/BusinessOperational#CReference> . 
<http://www.assero.co.uk/MDRSdtmUD/ACME/V1#D-ACME_DMDomain_V23_IGV1> 			<http://www.assero.co.uk/BusinessOperational#optional> 			"false" . 
<http://www.assero.co.uk/MDRSdtmUD/ACME/V1#D-ACME_DMDomain_V23_IGV1> 			<http://www.assero.co.uk/BusinessOperational#local_label> 			"" . 
<http://www.assero.co.uk/MDRSdtmUD/ACME/V1#D-ACME_DMDomain_V23_IGV1> 			<http://www.assero.co.uk/BusinessOperational#enabled> 			"true" . 
<http://www.assero.co.uk/MDRSdtmUD/ACME/V1#D-ACME_DMDomain_V23_IGV1> 			<http://www.assero.co.uk/BusinessOperational#ordinal> 			"1" . 
<http://www.assero.co.uk/MDRSdtmUD/ACME/V1#D-ACME_DMDomain_V23_IGV1> 			<http://www.assero.co.uk/BusinessOperational#hasColumn> 			<http://www.assero.co.uk/MDRSdtmIgD/CDISC/V3#IG-CDISC_SDTMIGDM_ARM> . 
<http://www.assero.co.uk/MDRSdtmUD/ACME/V1#D-ACME_DMDomain_V1> 			<http://www.w3.org/2000/01/rdf-schema#label> 			"Study Identifier" . 
<http://www.assero.co.uk/MDRSdtmUD/ACME/V1#D-ACME_DMDomain_V1> 			<http://www.w3.org/1999/02/22-rdf-syntax-ns#type> 			<http://www.assero.co.uk/BusinessDomain#UserVariable> . 
<http://www.assero.co.uk/MDRSdtmUD/ACME/V1#D-ACME_DMDomain_V1> 			<http://www.assero.co.uk/BusinessDomain#ordinal> 			"1" . 
<http://www.assero.co.uk/MDRSdtmUD/ACME/V1#D-ACME_DMDomain_V1> 			<http://www.assero.co.uk/BusinessDomain#classifiedAs> 			<http://www.assero.co.uk/MDRSdtmM/CDISC/V3#M-CDISC_SDTMMODEL_C_IDENTIFIER> . 
<http://www.assero.co.uk/MDRSdtmUD/ACME/V1#D-ACME_DMDomain_V1> 			<http://www.assero.co.uk/BusinessDomain#name> 			"STUDYID" . 
<http://www.assero.co.uk/MDRSdtmUD/ACME/V1#D-ACME_DMDomain_V1> 			<http://www.assero.co.uk/BusinessDomain#notes> 			"" . 
<http://www.assero.co.uk/MDRSdtmUD/ACME/V1#D-ACME_DMDomain_V1> 			<http://www.assero.co.uk/BusinessDomain#format> 			"" . 
<http://www.assero.co.uk/MDRSdtmUD/ACME/V1#D-ACME_DMDomain_V1> 			<http://www.assero.co.uk/BusinessDomain#non_standard> 			"false" . 
<http://www.assero.co.uk/MDRSdtmUD/ACME/V1#D-ACME_DMDomain_V1> 			<http://www.assero.co.uk/BusinessDomain#comment> 			"" . 
<http://www.assero.co.uk/MDRSdtmUD/ACME/V1#D-ACME_DMDomain_V1> 			<http://www.assero.co.uk/BusinessDomain#rule> 			"" . 
<http://www.assero.co.uk/MDRSdtmUD/ACME/V1#D-ACME_DMDomain_V1> 			<http://www.assero.co.uk/BusinessDomain#typedAs> 			<http://www.assero.co.uk/MDRSdtmM/CDISC/V3#M-CDISC_SDTMMODEL_DT_CHAR> . 
<http://www.assero.co.uk/MDRSdtmUD/ACME/V1#D-ACME_DMDomain_V1> 			<http://www.assero.co.uk/BusinessDomain#basedOnVariable> 			<http://www.assero.co.uk/MDRSdtmUD/ACME/V1#D-ACME_DMDomain_V1_IGV1> . 
<http://www.assero.co.uk/MDRSdtmUD/ACME/V1#D-ACME_DMDomain_V1> 			<http://www.assero.co.uk/BusinessDomain#used> 			"true" . 
<http://www.assero.co.uk/MDRSdtmUD/ACME/V1#D-ACME_DMDomain_V1> 			<http://www.assero.co.uk/BusinessDomain#length> 			"0" . 
<http://www.assero.co.uk/MDRSdtmUD/ACME/V1#D-ACME_DMDomain_V1> 			<http://www.assero.co.uk/BusinessDomain#ct> 			"" . 
<http://www.assero.co.uk/MDRSdtmUD/ACME/V1#D-ACME_DMDomain_V1> 			<http://www.assero.co.uk/BusinessDomain#key_ordinal> 			"0" . 
<http://www.assero.co.uk/MDRSdtmUD/ACME/V1#D-ACME_DMDomain_V1> 			<http://www.assero.co.uk/BusinessDomain#compliance> 			<http://www.assero.co.uk/MDRSdtmIg/CDISC/V3#IG-CDISC_SDTMIG_C_REQUIRED> . 
<http://www.assero.co.uk/MDRSdtmUD/ACME/V1#D-ACME_DMDomain_V1_IGV1> 			<http://www.w3.org/2000/01/rdf-schema#label> 			"Based on Variable Reference" . 
<http://www.assero.co.uk/MDRSdtmUD/ACME/V1#D-ACME_DMDomain_V1_IGV1> 			<http://www.w3.org/1999/02/22-rdf-syntax-ns#type> 			<http://www.assero.co.uk/BusinessOperational#CReference> . 
<http://www.assero.co.uk/MDRSdtmUD/ACME/V1#D-ACME_DMDomain_V1_IGV1> 			<http://www.assero.co.uk/BusinessOperational#optional> 			"false" . 
<http://www.assero.co.uk/MDRSdtmUD/ACME/V1#D-ACME_DMDomain_V1_IGV1> 			<http://www.assero.co.uk/BusinessOperational#local_label> 			"" . 
<http://www.assero.co.uk/MDRSdtmUD/ACME/V1#D-ACME_DMDomain_V1_IGV1> 			<http://www.assero.co.uk/BusinessOperational#enabled> 			"true" . 
<http://www.assero.co.uk/MDRSdtmUD/ACME/V1#D-ACME_DMDomain_V1_IGV1> 			<http://www.assero.co.uk/BusinessOperational#ordinal> 			"1" . 
<http://www.assero.co.uk/MDRSdtmUD/ACME/V1#D-ACME_DMDomain_V1_IGV1> 			<http://www.assero.co.uk/BusinessOperational#hasColumn> 			<http://www.assero.co.uk/MDRSdtmIgD/CDISC/V3#IG-CDISC_SDTMIGDM_STUDYID> . 
<http://www.assero.co.uk/MDRSdtmUD/ACME/V1#D-ACME_DMDomain_V20> 			<http://www.w3.org/2000/01/rdf-schema#label> 			"Race" . 
<http://www.assero.co.uk/MDRSdtmUD/ACME/V1#D-ACME_DMDomain_V20> 			<http://www.w3.org/1999/02/22-rdf-syntax-ns#type> 			<http://www.assero.co.uk/BusinessDomain#UserVariable> . 
<http://www.assero.co.uk/MDRSdtmUD/ACME/V1#D-ACME_DMDomain_V20> 			<http://www.assero.co.uk/BusinessDomain#ordinal> 			"20" . 
<http://www.assero.co.uk/MDRSdtmUD/ACME/V1#D-ACME_DMDomain_V20> 			<http://www.assero.co.uk/BusinessDomain#classifiedAs> 			<http://www.assero.co.uk/MDRSdtmM/CDISC/V3#M-CDISC_SDTMMODEL_C_QUALIFIER_SC_RECORDQUALIFIER> . 
<http://www.assero.co.uk/MDRSdtmUD/ACME/V1#D-ACME_DMDomain_V20> 			<http://www.assero.co.uk/BusinessDomain#name> 			"RACE" . 
<http://www.assero.co.uk/MDRSdtmUD/ACME/V1#D-ACME_DMDomain_V20> 			<http://www.assero.co.uk/BusinessDomain#notes> 			"" . 
<http://www.assero.co.uk/MDRSdtmUD/ACME/V1#D-ACME_DMDomain_V20> 			<http://www.assero.co.uk/BusinessDomain#format> 			"" . 
<http://www.assero.co.uk/MDRSdtmUD/ACME/V1#D-ACME_DMDomain_V20> 			<http://www.assero.co.uk/BusinessDomain#non_standard> 			"false" . 
<http://www.assero.co.uk/MDRSdtmUD/ACME/V1#D-ACME_DMDomain_V20> 			<http://www.assero.co.uk/BusinessDomain#comment> 			"" . 
<http://www.assero.co.uk/MDRSdtmUD/ACME/V1#D-ACME_DMDomain_V20> 			<http://www.assero.co.uk/BusinessDomain#rule> 			"" . 
<http://www.assero.co.uk/MDRSdtmUD/ACME/V1#D-ACME_DMDomain_V20> 			<http://www.assero.co.uk/BusinessDomain#typedAs> 			<http://www.assero.co.uk/MDRSdtmM/CDISC/V3#M-CDISC_SDTMMODEL_DT_CHAR> . 
<http://www.assero.co.uk/MDRSdtmUD/ACME/V1#D-ACME_DMDomain_V20> 			<http://www.assero.co.uk/BusinessDomain#basedOnVariable> 			<http://www.assero.co.uk/MDRSdtmUD/ACME/V1#D-ACME_DMDomain_V20_IGV1> . 
<http://www.assero.co.uk/MDRSdtmUD/ACME/V1#D-ACME_DMDomain_V20> 			<http://www.assero.co.uk/BusinessDomain#used> 			"true" . 
<http://www.assero.co.uk/MDRSdtmUD/ACME/V1#D-ACME_DMDomain_V20> 			<http://www.assero.co.uk/BusinessDomain#length> 			"0" . 
<http://www.assero.co.uk/MDRSdtmUD/ACME/V1#D-ACME_DMDomain_V20> 			<http://www.assero.co.uk/BusinessDomain#ct> 			"RACE" . 
<http://www.assero.co.uk/MDRSdtmUD/ACME/V1#D-ACME_DMDomain_V20> 			<http://www.assero.co.uk/BusinessDomain#key_ordinal> 			"0" . 
<http://www.assero.co.uk/MDRSdtmUD/ACME/V1#D-ACME_DMDomain_V20> 			<http://www.assero.co.uk/BusinessDomain#compliance> 			<http://www.assero.co.uk/MDRSdtmIg/CDISC/V3#IG-CDISC_SDTMIG_C_EXPECTED> . 
<http://www.assero.co.uk/MDRSdtmUD/ACME/V1#D-ACME_DMDomain_V20_IGV1> 			<http://www.w3.org/2000/01/rdf-schema#label> 			"Based on Variable Reference" . 
<http://www.assero.co.uk/MDRSdtmUD/ACME/V1#D-ACME_DMDomain_V20_IGV1> 			<http://www.w3.org/1999/02/22-rdf-syntax-ns#type> 			<http://www.assero.co.uk/BusinessOperational#CReference> . 
<http://www.assero.co.uk/MDRSdtmUD/ACME/V1#D-ACME_DMDomain_V20_IGV1> 			<http://www.assero.co.uk/BusinessOperational#optional> 			"false" . 
<http://www.assero.co.uk/MDRSdtmUD/ACME/V1#D-ACME_DMDomain_V20_IGV1> 			<http://www.assero.co.uk/BusinessOperational#local_label> 			"" . 
<http://www.assero.co.uk/MDRSdtmUD/ACME/V1#D-ACME_DMDomain_V20_IGV1> 			<http://www.assero.co.uk/BusinessOperational#enabled> 			"true" . 
<http://www.assero.co.uk/MDRSdtmUD/ACME/V1#D-ACME_DMDomain_V20_IGV1> 			<http://www.assero.co.uk/BusinessOperational#ordinal> 			"1" . 
<http://www.assero.co.uk/MDRSdtmUD/ACME/V1#D-ACME_DMDomain_V20_IGV1> 			<http://www.assero.co.uk/BusinessOperational#hasColumn> 			<http://www.assero.co.uk/MDRSdtmIgD/CDISC/V3#IG-CDISC_SDTMIGDM_RACE> . 
<http://www.assero.co.uk/MDRSdtmUD/ACME/V1#D-ACME_DMDomain_V4> 			<http://www.w3.org/2000/01/rdf-schema#label> 			"Subject Identifier for the Study" . 
<http://www.assero.co.uk/MDRSdtmUD/ACME/V1#D-ACME_DMDomain_V4> 			<http://www.w3.org/1999/02/22-rdf-syntax-ns#type> 			<http://www.assero.co.uk/BusinessDomain#UserVariable> . 
<http://www.assero.co.uk/MDRSdtmUD/ACME/V1#D-ACME_DMDomain_V4> 			<http://www.assero.co.uk/BusinessDomain#ordinal> 			"4" . 
<http://www.assero.co.uk/MDRSdtmUD/ACME/V1#D-ACME_DMDomain_V4> 			<http://www.assero.co.uk/BusinessDomain#classifiedAs> 			<http://www.assero.co.uk/MDRSdtmM/CDISC/V3#M-CDISC_SDTMMODEL_C_TOPIC> . 
<http://www.assero.co.uk/MDRSdtmUD/ACME/V1#D-ACME_DMDomain_V4> 			<http://www.assero.co.uk/BusinessDomain#name> 			"SUBJID" . 
<http://www.assero.co.uk/MDRSdtmUD/ACME/V1#D-ACME_DMDomain_V4> 			<http://www.assero.co.uk/BusinessDomain#notes> 			"" . 
<http://www.assero.co.uk/MDRSdtmUD/ACME/V1#D-ACME_DMDomain_V4> 			<http://www.assero.co.uk/BusinessDomain#format> 			"" . 
<http://www.assero.co.uk/MDRSdtmUD/ACME/V1#D-ACME_DMDomain_V4> 			<http://www.assero.co.uk/BusinessDomain#non_standard> 			"false" . 
<http://www.assero.co.uk/MDRSdtmUD/ACME/V1#D-ACME_DMDomain_V4> 			<http://www.assero.co.uk/BusinessDomain#comment> 			"" . 
<http://www.assero.co.uk/MDRSdtmUD/ACME/V1#D-ACME_DMDomain_V4> 			<http://www.assero.co.uk/BusinessDomain#rule> 			"" . 
<http://www.assero.co.uk/MDRSdtmUD/ACME/V1#D-ACME_DMDomain_V4> 			<http://www.assero.co.uk/BusinessDomain#typedAs> 			<http://www.assero.co.uk/MDRSdtmM/CDISC/V3#M-CDISC_SDTMMODEL_DT_CHAR> . 
<http://www.assero.co.uk/MDRSdtmUD/ACME/V1#D-ACME_DMDomain_V4> 			<http://www.assero.co.uk/BusinessDomain#basedOnVariable> 			<http://www.assero.co.uk/MDRSdtmUD/ACME/V1#D-ACME_DMDomain_V4_IGV1> . 
<http://www.assero.co.uk/MDRSdtmUD/ACME/V1#D-ACME_DMDomain_V4> 			<http://www.assero.co.uk/BusinessDomain#used> 			"true" . 
<http://www.assero.co.uk/MDRSdtmUD/ACME/V1#D-ACME_DMDomain_V4> 			<http://www.assero.co.uk/BusinessDomain#length> 			"0" . 
<http://www.assero.co.uk/MDRSdtmUD/ACME/V1#D-ACME_DMDomain_V4> 			<http://www.assero.co.uk/BusinessDomain#ct> 			"" . 
<http://www.assero.co.uk/MDRSdtmUD/ACME/V1#D-ACME_DMDomain_V4> 			<http://www.assero.co.uk/BusinessDomain#key_ordinal> 			"0" . 
<http://www.assero.co.uk/MDRSdtmUD/ACME/V1#D-ACME_DMDomain_V4> 			<http://www.assero.co.uk/BusinessDomain#compliance> 			<http://www.assero.co.uk/MDRSdtmIg/CDISC/V3#IG-CDISC_SDTMIG_C_REQUIRED> . 
<http://www.assero.co.uk/MDRSdtmUD/ACME/V1#D-ACME_DMDomain_V4_IGV1> 			<http://www.w3.org/2000/01/rdf-schema#label> 			"Based on Variable Reference" . 
<http://www.assero.co.uk/MDRSdtmUD/ACME/V1#D-ACME_DMDomain_V4_IGV1> 			<http://www.w3.org/1999/02/22-rdf-syntax-ns#type> 			<http://www.assero.co.uk/BusinessOperational#CReference> . 
<http://www.assero.co.uk/MDRSdtmUD/ACME/V1#D-ACME_DMDomain_V4_IGV1> 			<http://www.assero.co.uk/BusinessOperational#optional> 			"false" . 
<http://www.assero.co.uk/MDRSdtmUD/ACME/V1#D-ACME_DMDomain_V4_IGV1> 			<http://www.assero.co.uk/BusinessOperational#local_label> 			"" . 
<http://www.assero.co.uk/MDRSdtmUD/ACME/V1#D-ACME_DMDomain_V4_IGV1> 			<http://www.assero.co.uk/BusinessOperational#enabled> 			"true" . 
<http://www.assero.co.uk/MDRSdtmUD/ACME/V1#D-ACME_DMDomain_V4_IGV1> 			<http://www.assero.co.uk/BusinessOperational#ordinal> 			"1" . 
<http://www.assero.co.uk/MDRSdtmUD/ACME/V1#D-ACME_DMDomain_V4_IGV1> 			<http://www.assero.co.uk/BusinessOperational#hasColumn> 			<http://www.assero.co.uk/MDRSdtmIgD/CDISC/V3#IG-CDISC_SDTMIGDM_SUBJID> . 
<http://www.assero.co.uk/MDRSdtmUD/ACME/V1#D-ACME_DMDomain_V27> 			<http://www.w3.org/2000/01/rdf-schema#label> 			"Date/Time of Collection" . 
<http://www.assero.co.uk/MDRSdtmUD/ACME/V1#D-ACME_DMDomain_V27> 			<http://www.w3.org/1999/02/22-rdf-syntax-ns#type> 			<http://www.assero.co.uk/BusinessDomain#UserVariable> . 
<http://www.assero.co.uk/MDRSdtmUD/ACME/V1#D-ACME_DMDomain_V27> 			<http://www.assero.co.uk/BusinessDomain#ordinal> 			"27" . 
<http://www.assero.co.uk/MDRSdtmUD/ACME/V1#D-ACME_DMDomain_V27> 			<http://www.assero.co.uk/BusinessDomain#classifiedAs> 			<http://www.assero.co.uk/MDRSdtmM/CDISC/V3#M-CDISC_SDTMMODEL_C_TIMING> . 
<http://www.assero.co.uk/MDRSdtmUD/ACME/V1#D-ACME_DMDomain_V27> 			<http://www.assero.co.uk/BusinessDomain#name> 			"DMDTC" . 
<http://www.assero.co.uk/MDRSdtmUD/ACME/V1#D-ACME_DMDomain_V27> 			<http://www.assero.co.uk/BusinessDomain#notes> 			"" . 
<http://www.assero.co.uk/MDRSdtmUD/ACME/V1#D-ACME_DMDomain_V27> 			<http://www.assero.co.uk/BusinessDomain#format> 			"ISO 8601" . 
<http://www.assero.co.uk/MDRSdtmUD/ACME/V1#D-ACME_DMDomain_V27> 			<http://www.assero.co.uk/BusinessDomain#non_standard> 			"false" . 
<http://www.assero.co.uk/MDRSdtmUD/ACME/V1#D-ACME_DMDomain_V27> 			<http://www.assero.co.uk/BusinessDomain#comment> 			"" . 
<http://www.assero.co.uk/MDRSdtmUD/ACME/V1#D-ACME_DMDomain_V27> 			<http://www.assero.co.uk/BusinessDomain#rule> 			"" . 
<http://www.assero.co.uk/MDRSdtmUD/ACME/V1#D-ACME_DMDomain_V27> 			<http://www.assero.co.uk/BusinessDomain#typedAs> 			<http://www.assero.co.uk/MDRSdtmM/CDISC/V3#M-CDISC_SDTMMODEL_DT_CHAR> . 
<http://www.assero.co.uk/MDRSdtmUD/ACME/V1#D-ACME_DMDomain_V27> 			<http://www.assero.co.uk/BusinessDomain#basedOnVariable> 			<http://www.assero.co.uk/MDRSdtmUD/ACME/V1#D-ACME_DMDomain_V27_IGV1> . 
<http://www.assero.co.uk/MDRSdtmUD/ACME/V1#D-ACME_DMDomain_V27> 			<http://www.assero.co.uk/BusinessDomain#used> 			"true" . 
<http://www.assero.co.uk/MDRSdtmUD/ACME/V1#D-ACME_DMDomain_V27> 			<http://www.assero.co.uk/BusinessDomain#length> 			"0" . 
<http://www.assero.co.uk/MDRSdtmUD/ACME/V1#D-ACME_DMDomain_V27> 			<http://www.assero.co.uk/BusinessDomain#ct> 			"" . 
<http://www.assero.co.uk/MDRSdtmUD/ACME/V1#D-ACME_DMDomain_V27> 			<http://www.assero.co.uk/BusinessDomain#key_ordinal> 			"0" . 
<http://www.assero.co.uk/MDRSdtmUD/ACME/V1#D-ACME_DMDomain_V27> 			<http://www.assero.co.uk/BusinessDomain#compliance> 			<http://www.assero.co.uk/MDRSdtmIg/CDISC/V3#IG-CDISC_SDTMIG_C_PERMISSIBLE> . 
<http://www.assero.co.uk/MDRSdtmUD/ACME/V1#D-ACME_DMDomain_V27_IGV1> 			<http://www.w3.org/2000/01/rdf-schema#label> 			"Based on Variable Reference" . 
<http://www.assero.co.uk/MDRSdtmUD/ACME/V1#D-ACME_DMDomain_V27_IGV1> 			<http://www.w3.org/1999/02/22-rdf-syntax-ns#type> 			<http://www.assero.co.uk/BusinessOperational#CReference> . 
<http://www.assero.co.uk/MDRSdtmUD/ACME/V1#D-ACME_DMDomain_V27_IGV1> 			<http://www.assero.co.uk/BusinessOperational#optional> 			"false" . 
<http://www.assero.co.uk/MDRSdtmUD/ACME/V1#D-ACME_DMDomain_V27_IGV1> 			<http://www.assero.co.uk/BusinessOperational#local_label> 			"" . 
<http://www.assero.co.uk/MDRSdtmUD/ACME/V1#D-ACME_DMDomain_V27_IGV1> 			<http://www.assero.co.uk/BusinessOperational#enabled> 			"true" . 
<http://www.assero.co.uk/MDRSdtmUD/ACME/V1#D-ACME_DMDomain_V27_IGV1> 			<http://www.assero.co.uk/BusinessOperational#ordinal> 			"1" . 
<http://www.assero.co.uk/MDRSdtmUD/ACME/V1#D-ACME_DMDomain_V27_IGV1> 			<http://www.assero.co.uk/BusinessOperational#hasColumn> 			<http://www.assero.co.uk/MDRSdtmIgD/CDISC/V3#IG-CDISC_SDTMIGDM_DMDTC> . 
<http://www.assero.co.uk/MDRSdtmUD/ACME/V1#D-ACME_DMDomain_V19> 			<http://www.w3.org/2000/01/rdf-schema#label> 			"Sex" . 
<http://www.assero.co.uk/MDRSdtmUD/ACME/V1#D-ACME_DMDomain_V19> 			<http://www.w3.org/1999/02/22-rdf-syntax-ns#type> 			<http://www.assero.co.uk/BusinessDomain#UserVariable> . 
<http://www.assero.co.uk/MDRSdtmUD/ACME/V1#D-ACME_DMDomain_V19> 			<http://www.assero.co.uk/BusinessDomain#ordinal> 			"19" . 
<http://www.assero.co.uk/MDRSdtmUD/ACME/V1#D-ACME_DMDomain_V19> 			<http://www.assero.co.uk/BusinessDomain#classifiedAs> 			<http://www.assero.co.uk/MDRSdtmM/CDISC/V3#M-CDISC_SDTMMODEL_C_QUALIFIER_SC_RECORDQUALIFIER> . 
<http://www.assero.co.uk/MDRSdtmUD/ACME/V1#D-ACME_DMDomain_V19> 			<http://www.assero.co.uk/BusinessDomain#name> 			"SEX" . 
<http://www.assero.co.uk/MDRSdtmUD/ACME/V1#D-ACME_DMDomain_V19> 			<http://www.assero.co.uk/BusinessDomain#notes> 			"" . 
<http://www.assero.co.uk/MDRSdtmUD/ACME/V1#D-ACME_DMDomain_V19> 			<http://www.assero.co.uk/BusinessDomain#format> 			"" . 
<http://www.assero.co.uk/MDRSdtmUD/ACME/V1#D-ACME_DMDomain_V19> 			<http://www.assero.co.uk/BusinessDomain#non_standard> 			"false" . 
<http://www.assero.co.uk/MDRSdtmUD/ACME/V1#D-ACME_DMDomain_V19> 			<http://www.assero.co.uk/BusinessDomain#comment> 			"" . 
<http://www.assero.co.uk/MDRSdtmUD/ACME/V1#D-ACME_DMDomain_V19> 			<http://www.assero.co.uk/BusinessDomain#rule> 			"" . 
<http://www.assero.co.uk/MDRSdtmUD/ACME/V1#D-ACME_DMDomain_V19> 			<http://www.assero.co.uk/BusinessDomain#typedAs> 			<http://www.assero.co.uk/MDRSdtmM/CDISC/V3#M-CDISC_SDTMMODEL_DT_CHAR> . 
<http://www.assero.co.uk/MDRSdtmUD/ACME/V1#D-ACME_DMDomain_V19> 			<http://www.assero.co.uk/BusinessDomain#basedOnVariable> 			<http://www.assero.co.uk/MDRSdtmUD/ACME/V1#D-ACME_DMDomain_V19_IGV1> . 
<http://www.assero.co.uk/MDRSdtmUD/ACME/V1#D-ACME_DMDomain_V19> 			<http://www.assero.co.uk/BusinessDomain#used> 			"true" . 
<http://www.assero.co.uk/MDRSdtmUD/ACME/V1#D-ACME_DMDomain_V19> 			<http://www.assero.co.uk/BusinessDomain#length> 			"0" . 
<http://www.assero.co.uk/MDRSdtmUD/ACME/V1#D-ACME_DMDomain_V19> 			<http://www.assero.co.uk/BusinessDomain#ct> 			"SEX" . 
<http://www.assero.co.uk/MDRSdtmUD/ACME/V1#D-ACME_DMDomain_V19> 			<http://www.assero.co.uk/BusinessDomain#key_ordinal> 			"0" . 
<http://www.assero.co.uk/MDRSdtmUD/ACME/V1#D-ACME_DMDomain_V19> 			<http://www.assero.co.uk/BusinessDomain#compliance> 			<http://www.assero.co.uk/MDRSdtmIg/CDISC/V3#IG-CDISC_SDTMIG_C_REQUIRED> . 
<http://www.assero.co.uk/MDRSdtmUD/ACME/V1#D-ACME_DMDomain_V19_IGV1> 			<http://www.w3.org/2000/01/rdf-schema#label> 			"Based on Variable Reference" . 
<http://www.assero.co.uk/MDRSdtmUD/ACME/V1#D-ACME_DMDomain_V19_IGV1> 			<http://www.w3.org/1999/02/22-rdf-syntax-ns#type> 			<http://www.assero.co.uk/BusinessOperational#CReference> . 
<http://www.assero.co.uk/MDRSdtmUD/ACME/V1#D-ACME_DMDomain_V19_IGV1> 			<http://www.assero.co.uk/BusinessOperational#optional> 			"false" . 
<http://www.assero.co.uk/MDRSdtmUD/ACME/V1#D-ACME_DMDomain_V19_IGV1> 			<http://www.assero.co.uk/BusinessOperational#local_label> 			"" . 
<http://www.assero.co.uk/MDRSdtmUD/ACME/V1#D-ACME_DMDomain_V19_IGV1> 			<http://www.assero.co.uk/BusinessOperational#enabled> 			"true" . 
<http://www.assero.co.uk/MDRSdtmUD/ACME/V1#D-ACME_DMDomain_V19_IGV1> 			<http://www.assero.co.uk/BusinessOperational#ordinal> 			"1" . 
<http://www.assero.co.uk/MDRSdtmUD/ACME/V1#D-ACME_DMDomain_V19_IGV1> 			<http://www.assero.co.uk/BusinessOperational#hasColumn> 			<http://www.assero.co.uk/MDRSdtmIgD/CDISC/V3#IG-CDISC_SDTMIGDM_SEX> . 
<http://www.assero.co.uk/MDRSdtmUD/ACME/V1#D-ACME_DMDomain_V18> 			<http://www.w3.org/2000/01/rdf-schema#label> 			"Age Units" . 
<http://www.assero.co.uk/MDRSdtmUD/ACME/V1#D-ACME_DMDomain_V18> 			<http://www.w3.org/1999/02/22-rdf-syntax-ns#type> 			<http://www.assero.co.uk/BusinessDomain#UserVariable> . 
<http://www.assero.co.uk/MDRSdtmUD/ACME/V1#D-ACME_DMDomain_V18> 			<http://www.assero.co.uk/BusinessDomain#ordinal> 			"18" . 
<http://www.assero.co.uk/MDRSdtmUD/ACME/V1#D-ACME_DMDomain_V18> 			<http://www.assero.co.uk/BusinessDomain#classifiedAs> 			<http://www.assero.co.uk/MDRSdtmM/CDISC/V3#M-CDISC_SDTMMODEL_C_QUALIFIER_SC_RECORDQUALIFIER> . 
<http://www.assero.co.uk/MDRSdtmUD/ACME/V1#D-ACME_DMDomain_V18> 			<http://www.assero.co.uk/BusinessDomain#name> 			"AGEU" . 
<http://www.assero.co.uk/MDRSdtmUD/ACME/V1#D-ACME_DMDomain_V18> 			<http://www.assero.co.uk/BusinessDomain#notes> 			"" . 
<http://www.assero.co.uk/MDRSdtmUD/ACME/V1#D-ACME_DMDomain_V18> 			<http://www.assero.co.uk/BusinessDomain#format> 			"" . 
<http://www.assero.co.uk/MDRSdtmUD/ACME/V1#D-ACME_DMDomain_V18> 			<http://www.assero.co.uk/BusinessDomain#non_standard> 			"false" . 
<http://www.assero.co.uk/MDRSdtmUD/ACME/V1#D-ACME_DMDomain_V18> 			<http://www.assero.co.uk/BusinessDomain#comment> 			"" . 
<http://www.assero.co.uk/MDRSdtmUD/ACME/V1#D-ACME_DMDomain_V18> 			<http://www.assero.co.uk/BusinessDomain#rule> 			"" . 
<http://www.assero.co.uk/MDRSdtmUD/ACME/V1#D-ACME_DMDomain_V18> 			<http://www.assero.co.uk/BusinessDomain#typedAs> 			<http://www.assero.co.uk/MDRSdtmM/CDISC/V3#M-CDISC_SDTMMODEL_DT_CHAR> . 
<http://www.assero.co.uk/MDRSdtmUD/ACME/V1#D-ACME_DMDomain_V18> 			<http://www.assero.co.uk/BusinessDomain#basedOnVariable> 			<http://www.assero.co.uk/MDRSdtmUD/ACME/V1#D-ACME_DMDomain_V18_IGV1> . 
<http://www.assero.co.uk/MDRSdtmUD/ACME/V1#D-ACME_DMDomain_V18> 			<http://www.assero.co.uk/BusinessDomain#used> 			"true" . 
<http://www.assero.co.uk/MDRSdtmUD/ACME/V1#D-ACME_DMDomain_V18> 			<http://www.assero.co.uk/BusinessDomain#length> 			"0" . 
<http://www.assero.co.uk/MDRSdtmUD/ACME/V1#D-ACME_DMDomain_V18> 			<http://www.assero.co.uk/BusinessDomain#ct> 			"AGEU" . 
<http://www.assero.co.uk/MDRSdtmUD/ACME/V1#D-ACME_DMDomain_V18> 			<http://www.assero.co.uk/BusinessDomain#key_ordinal> 			"0" . 
<http://www.assero.co.uk/MDRSdtmUD/ACME/V1#D-ACME_DMDomain_V18> 			<http://www.assero.co.uk/BusinessDomain#compliance> 			<http://www.assero.co.uk/MDRSdtmIg/CDISC/V3#IG-CDISC_SDTMIG_C_EXPECTED> . 
<http://www.assero.co.uk/MDRSdtmUD/ACME/V1#D-ACME_DMDomain_V18_IGV1> 			<http://www.w3.org/2000/01/rdf-schema#label> 			"Based on Variable Reference" . 
<http://www.assero.co.uk/MDRSdtmUD/ACME/V1#D-ACME_DMDomain_V18_IGV1> 			<http://www.w3.org/1999/02/22-rdf-syntax-ns#type> 			<http://www.assero.co.uk/BusinessOperational#CReference> . 
<http://www.assero.co.uk/MDRSdtmUD/ACME/V1#D-ACME_DMDomain_V18_IGV1> 			<http://www.assero.co.uk/BusinessOperational#optional> 			"false" . 
<http://www.assero.co.uk/MDRSdtmUD/ACME/V1#D-ACME_DMDomain_V18_IGV1> 			<http://www.assero.co.uk/BusinessOperational#local_label> 			"" . 
<http://www.assero.co.uk/MDRSdtmUD/ACME/V1#D-ACME_DMDomain_V18_IGV1> 			<http://www.assero.co.uk/BusinessOperational#enabled> 			"true" . 
<http://www.assero.co.uk/MDRSdtmUD/ACME/V1#D-ACME_DMDomain_V18_IGV1> 			<http://www.assero.co.uk/BusinessOperational#ordinal> 			"1" . 
<http://www.assero.co.uk/MDRSdtmUD/ACME/V1#D-ACME_DMDomain_V18_IGV1> 			<http://www.assero.co.uk/BusinessOperational#hasColumn> 			<http://www.assero.co.uk/MDRSdtmIgD/CDISC/V3#IG-CDISC_SDTMIGDM_AGEU> . 
<http://www.assero.co.uk/MDRSdtmUD/ACME/V1#D-ACME_DMDomain_V21> 			<http://www.w3.org/2000/01/rdf-schema#label> 			"Ethnicity" . 
<http://www.assero.co.uk/MDRSdtmUD/ACME/V1#D-ACME_DMDomain_V21> 			<http://www.w3.org/1999/02/22-rdf-syntax-ns#type> 			<http://www.assero.co.uk/BusinessDomain#UserVariable> . 
<http://www.assero.co.uk/MDRSdtmUD/ACME/V1#D-ACME_DMDomain_V21> 			<http://www.assero.co.uk/BusinessDomain#ordinal> 			"21" . 
<http://www.assero.co.uk/MDRSdtmUD/ACME/V1#D-ACME_DMDomain_V21> 			<http://www.assero.co.uk/BusinessDomain#classifiedAs> 			<http://www.assero.co.uk/MDRSdtmM/CDISC/V3#M-CDISC_SDTMMODEL_C_QUALIFIER_SC_RECORDQUALIFIER> . 
<http://www.assero.co.uk/MDRSdtmUD/ACME/V1#D-ACME_DMDomain_V21> 			<http://www.assero.co.uk/BusinessDomain#name> 			"ETHNIC" . 
<http://www.assero.co.uk/MDRSdtmUD/ACME/V1#D-ACME_DMDomain_V21> 			<http://www.assero.co.uk/BusinessDomain#notes> 			"" . 
<http://www.assero.co.uk/MDRSdtmUD/ACME/V1#D-ACME_DMDomain_V21> 			<http://www.assero.co.uk/BusinessDomain#format> 			"" . 
<http://www.assero.co.uk/MDRSdtmUD/ACME/V1#D-ACME_DMDomain_V21> 			<http://www.assero.co.uk/BusinessDomain#non_standard> 			"false" . 
<http://www.assero.co.uk/MDRSdtmUD/ACME/V1#D-ACME_DMDomain_V21> 			<http://www.assero.co.uk/BusinessDomain#comment> 			"" . 
<http://www.assero.co.uk/MDRSdtmUD/ACME/V1#D-ACME_DMDomain_V21> 			<http://www.assero.co.uk/BusinessDomain#rule> 			"" . 
<http://www.assero.co.uk/MDRSdtmUD/ACME/V1#D-ACME_DMDomain_V21> 			<http://www.assero.co.uk/BusinessDomain#typedAs> 			<http://www.assero.co.uk/MDRSdtmM/CDISC/V3#M-CDISC_SDTMMODEL_DT_CHAR> . 
<http://www.assero.co.uk/MDRSdtmUD/ACME/V1#D-ACME_DMDomain_V21> 			<http://www.assero.co.uk/BusinessDomain#basedOnVariable> 			<http://www.assero.co.uk/MDRSdtmUD/ACME/V1#D-ACME_DMDomain_V21_IGV1> . 
<http://www.assero.co.uk/MDRSdtmUD/ACME/V1#D-ACME_DMDomain_V21> 			<http://www.assero.co.uk/BusinessDomain#used> 			"true" . 
<http://www.assero.co.uk/MDRSdtmUD/ACME/V1#D-ACME_DMDomain_V21> 			<http://www.assero.co.uk/BusinessDomain#length> 			"0" . 
<http://www.assero.co.uk/MDRSdtmUD/ACME/V1#D-ACME_DMDomain_V21> 			<http://www.assero.co.uk/BusinessDomain#ct> 			"ETHNIC" . 
<http://www.assero.co.uk/MDRSdtmUD/ACME/V1#D-ACME_DMDomain_V21> 			<http://www.assero.co.uk/BusinessDomain#key_ordinal> 			"0" . 
<http://www.assero.co.uk/MDRSdtmUD/ACME/V1#D-ACME_DMDomain_V21> 			<http://www.assero.co.uk/BusinessDomain#compliance> 			<http://www.assero.co.uk/MDRSdtmIg/CDISC/V3#IG-CDISC_SDTMIG_C_PERMISSIBLE> . 
<http://www.assero.co.uk/MDRSdtmUD/ACME/V1#D-ACME_DMDomain_V21_IGV1> 			<http://www.w3.org/2000/01/rdf-schema#label> 			"Based on Variable Reference" . 
<http://www.assero.co.uk/MDRSdtmUD/ACME/V1#D-ACME_DMDomain_V21_IGV1> 			<http://www.w3.org/1999/02/22-rdf-syntax-ns#type> 			<http://www.assero.co.uk/BusinessOperational#CReference> . 
<http://www.assero.co.uk/MDRSdtmUD/ACME/V1#D-ACME_DMDomain_V21_IGV1> 			<http://www.assero.co.uk/BusinessOperational#optional> 			"false" . 
<http://www.assero.co.uk/MDRSdtmUD/ACME/V1#D-ACME_DMDomain_V21_IGV1> 			<http://www.assero.co.uk/BusinessOperational#local_label> 			"" . 
<http://www.assero.co.uk/MDRSdtmUD/ACME/V1#D-ACME_DMDomain_V21_IGV1> 			<http://www.assero.co.uk/BusinessOperational#enabled> 			"true" . 
<http://www.assero.co.uk/MDRSdtmUD/ACME/V1#D-ACME_DMDomain_V21_IGV1> 			<http://www.assero.co.uk/BusinessOperational#ordinal> 			"1" . 
<http://www.assero.co.uk/MDRSdtmUD/ACME/V1#D-ACME_DMDomain_V21_IGV1> 			<http://www.assero.co.uk/BusinessOperational#hasColumn> 			<http://www.assero.co.uk/MDRSdtmIgD/CDISC/V3#IG-CDISC_SDTMIGDM_ETHNIC> . 
<http://www.assero.co.uk/MDRSdtmUD/ACME/V1#D-ACME_DMDomain_V6> 			<http://www.w3.org/2000/01/rdf-schema#label> 			"Subject Reference End Date/Time" . 
<http://www.assero.co.uk/MDRSdtmUD/ACME/V1#D-ACME_DMDomain_V6> 			<http://www.w3.org/1999/02/22-rdf-syntax-ns#type> 			<http://www.assero.co.uk/BusinessDomain#UserVariable> . 
<http://www.assero.co.uk/MDRSdtmUD/ACME/V1#D-ACME_DMDomain_V6> 			<http://www.assero.co.uk/BusinessDomain#ordinal> 			"6" . 
<http://www.assero.co.uk/MDRSdtmUD/ACME/V1#D-ACME_DMDomain_V6> 			<http://www.assero.co.uk/BusinessDomain#classifiedAs> 			<http://www.assero.co.uk/MDRSdtmM/CDISC/V3#M-CDISC_SDTMMODEL_C_QUALIFIER_SC_RECORDQUALIFIER> . 
<http://www.assero.co.uk/MDRSdtmUD/ACME/V1#D-ACME_DMDomain_V6> 			<http://www.assero.co.uk/BusinessDomain#name> 			"RFENDTC" . 
<http://www.assero.co.uk/MDRSdtmUD/ACME/V1#D-ACME_DMDomain_V6> 			<http://www.assero.co.uk/BusinessDomain#notes> 			"" . 
<http://www.assero.co.uk/MDRSdtmUD/ACME/V1#D-ACME_DMDomain_V6> 			<http://www.assero.co.uk/BusinessDomain#format> 			"ISO 8601" . 
<http://www.assero.co.uk/MDRSdtmUD/ACME/V1#D-ACME_DMDomain_V6> 			<http://www.assero.co.uk/BusinessDomain#non_standard> 			"false" . 
<http://www.assero.co.uk/MDRSdtmUD/ACME/V1#D-ACME_DMDomain_V6> 			<http://www.assero.co.uk/BusinessDomain#comment> 			"" . 
<http://www.assero.co.uk/MDRSdtmUD/ACME/V1#D-ACME_DMDomain_V6> 			<http://www.assero.co.uk/BusinessDomain#rule> 			"" . 
<http://www.assero.co.uk/MDRSdtmUD/ACME/V1#D-ACME_DMDomain_V6> 			<http://www.assero.co.uk/BusinessDomain#typedAs> 			<http://www.assero.co.uk/MDRSdtmM/CDISC/V3#M-CDISC_SDTMMODEL_DT_CHAR> . 
<http://www.assero.co.uk/MDRSdtmUD/ACME/V1#D-ACME_DMDomain_V6> 			<http://www.assero.co.uk/BusinessDomain#basedOnVariable> 			<http://www.assero.co.uk/MDRSdtmUD/ACME/V1#D-ACME_DMDomain_V6_IGV1> . 
<http://www.assero.co.uk/MDRSdtmUD/ACME/V1#D-ACME_DMDomain_V6> 			<http://www.assero.co.uk/BusinessDomain#used> 			"true" . 
<http://www.assero.co.uk/MDRSdtmUD/ACME/V1#D-ACME_DMDomain_V6> 			<http://www.assero.co.uk/BusinessDomain#length> 			"0" . 
<http://www.assero.co.uk/MDRSdtmUD/ACME/V1#D-ACME_DMDomain_V6> 			<http://www.assero.co.uk/BusinessDomain#ct> 			"" . 
<http://www.assero.co.uk/MDRSdtmUD/ACME/V1#D-ACME_DMDomain_V6> 			<http://www.assero.co.uk/BusinessDomain#key_ordinal> 			"0" . 
<http://www.assero.co.uk/MDRSdtmUD/ACME/V1#D-ACME_DMDomain_V6> 			<http://www.assero.co.uk/BusinessDomain#compliance> 			<http://www.assero.co.uk/MDRSdtmIg/CDISC/V3#IG-CDISC_SDTMIG_C_EXPECTED> . 
<http://www.assero.co.uk/MDRSdtmUD/ACME/V1#D-ACME_DMDomain_V6_IGV1> 			<http://www.w3.org/2000/01/rdf-schema#label> 			"Based on Variable Reference" . 
<http://www.assero.co.uk/MDRSdtmUD/ACME/V1#D-ACME_DMDomain_V6_IGV1> 			<http://www.w3.org/1999/02/22-rdf-syntax-ns#type> 			<http://www.assero.co.uk/BusinessOperational#CReference> . 
<http://www.assero.co.uk/MDRSdtmUD/ACME/V1#D-ACME_DMDomain_V6_IGV1> 			<http://www.assero.co.uk/BusinessOperational#optional> 			"false" . 
<http://www.assero.co.uk/MDRSdtmUD/ACME/V1#D-ACME_DMDomain_V6_IGV1> 			<http://www.assero.co.uk/BusinessOperational#local_label> 			"" . 
<http://www.assero.co.uk/MDRSdtmUD/ACME/V1#D-ACME_DMDomain_V6_IGV1> 			<http://www.assero.co.uk/BusinessOperational#enabled> 			"true" . 
<http://www.assero.co.uk/MDRSdtmUD/ACME/V1#D-ACME_DMDomain_V6_IGV1> 			<http://www.assero.co.uk/BusinessOperational#ordinal> 			"1" . 
<http://www.assero.co.uk/MDRSdtmUD/ACME/V1#D-ACME_DMDomain_V6_IGV1> 			<http://www.assero.co.uk/BusinessOperational#hasColumn> 			<http://www.assero.co.uk/MDRSdtmIgD/CDISC/V3#IG-CDISC_SDTMIGDM_RFENDTC> . 
<http://www.assero.co.uk/MDRSdtmUD/ACME/V1#D-ACME_DMDomain_V22> 			<http://www.w3.org/2000/01/rdf-schema#label> 			"Planned Arm Code" . 
<http://www.assero.co.uk/MDRSdtmUD/ACME/V1#D-ACME_DMDomain_V22> 			<http://www.w3.org/1999/02/22-rdf-syntax-ns#type> 			<http://www.assero.co.uk/BusinessDomain#UserVariable> . 
<http://www.assero.co.uk/MDRSdtmUD/ACME/V1#D-ACME_DMDomain_V22> 			<http://www.assero.co.uk/BusinessDomain#ordinal> 			"22" . 
<http://www.assero.co.uk/MDRSdtmUD/ACME/V1#D-ACME_DMDomain_V22> 			<http://www.assero.co.uk/BusinessDomain#classifiedAs> 			<http://www.assero.co.uk/MDRSdtmM/CDISC/V3#M-CDISC_SDTMMODEL_C_QUALIFIER_SC_RECORDQUALIFIER> . 
<http://www.assero.co.uk/MDRSdtmUD/ACME/V1#D-ACME_DMDomain_V22> 			<http://www.assero.co.uk/BusinessDomain#name> 			"ARMCD" . 
<http://www.assero.co.uk/MDRSdtmUD/ACME/V1#D-ACME_DMDomain_V22> 			<http://www.assero.co.uk/BusinessDomain#notes> 			"" . 
<http://www.assero.co.uk/MDRSdtmUD/ACME/V1#D-ACME_DMDomain_V22> 			<http://www.assero.co.uk/BusinessDomain#format> 			"" . 
<http://www.assero.co.uk/MDRSdtmUD/ACME/V1#D-ACME_DMDomain_V22> 			<http://www.assero.co.uk/BusinessDomain#non_standard> 			"false" . 
<http://www.assero.co.uk/MDRSdtmUD/ACME/V1#D-ACME_DMDomain_V22> 			<http://www.assero.co.uk/BusinessDomain#comment> 			"" . 
<http://www.assero.co.uk/MDRSdtmUD/ACME/V1#D-ACME_DMDomain_V22> 			<http://www.assero.co.uk/BusinessDomain#rule> 			"" . 
<http://www.assero.co.uk/MDRSdtmUD/ACME/V1#D-ACME_DMDomain_V22> 			<http://www.assero.co.uk/BusinessDomain#typedAs> 			<http://www.assero.co.uk/MDRSdtmM/CDISC/V3#M-CDISC_SDTMMODEL_DT_CHAR> . 
<http://www.assero.co.uk/MDRSdtmUD/ACME/V1#D-ACME_DMDomain_V22> 			<http://www.assero.co.uk/BusinessDomain#basedOnVariable> 			<http://www.assero.co.uk/MDRSdtmUD/ACME/V1#D-ACME_DMDomain_V22_IGV1> . 
<http://www.assero.co.uk/MDRSdtmUD/ACME/V1#D-ACME_DMDomain_V22> 			<http://www.assero.co.uk/BusinessDomain#used> 			"true" . 
<http://www.assero.co.uk/MDRSdtmUD/ACME/V1#D-ACME_DMDomain_V22> 			<http://www.assero.co.uk/BusinessDomain#length> 			"0" . 
<http://www.assero.co.uk/MDRSdtmUD/ACME/V1#D-ACME_DMDomain_V22> 			<http://www.assero.co.uk/BusinessDomain#ct> 			"" . 
<http://www.assero.co.uk/MDRSdtmUD/ACME/V1#D-ACME_DMDomain_V22> 			<http://www.assero.co.uk/BusinessDomain#key_ordinal> 			"0" . 
<http://www.assero.co.uk/MDRSdtmUD/ACME/V1#D-ACME_DMDomain_V22> 			<http://www.assero.co.uk/BusinessDomain#compliance> 			<http://www.assero.co.uk/MDRSdtmIg/CDISC/V3#IG-CDISC_SDTMIG_C_REQUIRED> . 
<http://www.assero.co.uk/MDRSdtmUD/ACME/V1#D-ACME_DMDomain_V22_IGV1> 			<http://www.w3.org/2000/01/rdf-schema#label> 			"Based on Variable Reference" . 
<http://www.assero.co.uk/MDRSdtmUD/ACME/V1#D-ACME_DMDomain_V22_IGV1> 			<http://www.w3.org/1999/02/22-rdf-syntax-ns#type> 			<http://www.assero.co.uk/BusinessOperational#CReference> . 
<http://www.assero.co.uk/MDRSdtmUD/ACME/V1#D-ACME_DMDomain_V22_IGV1> 			<http://www.assero.co.uk/BusinessOperational#optional> 			"false" . 
<http://www.assero.co.uk/MDRSdtmUD/ACME/V1#D-ACME_DMDomain_V22_IGV1> 			<http://www.assero.co.uk/BusinessOperational#local_label> 			"" . 
<http://www.assero.co.uk/MDRSdtmUD/ACME/V1#D-ACME_DMDomain_V22_IGV1> 			<http://www.assero.co.uk/BusinessOperational#enabled> 			"true" . 
<http://www.assero.co.uk/MDRSdtmUD/ACME/V1#D-ACME_DMDomain_V22_IGV1> 			<http://www.assero.co.uk/BusinessOperational#ordinal> 			"1" . 
<http://www.assero.co.uk/MDRSdtmUD/ACME/V1#D-ACME_DMDomain_V22_IGV1> 			<http://www.assero.co.uk/BusinessOperational#hasColumn> 			<http://www.assero.co.uk/MDRSdtmIgD/CDISC/V3#IG-CDISC_SDTMIGDM_ARMCD> . 
<http://www.assero.co.uk/MDRSdtmUD/ACME/V1#D-ACME_DMDomain_V5> 			<http://www.w3.org/2000/01/rdf-schema#label> 			"Subject Reference Start Date/Time" . 
<http://www.assero.co.uk/MDRSdtmUD/ACME/V1#D-ACME_DMDomain_V5> 			<http://www.w3.org/1999/02/22-rdf-syntax-ns#type> 			<http://www.assero.co.uk/BusinessDomain#UserVariable> . 
<http://www.assero.co.uk/MDRSdtmUD/ACME/V1#D-ACME_DMDomain_V5> 			<http://www.assero.co.uk/BusinessDomain#ordinal> 			"5" . 
<http://www.assero.co.uk/MDRSdtmUD/ACME/V1#D-ACME_DMDomain_V5> 			<http://www.assero.co.uk/BusinessDomain#classifiedAs> 			<http://www.assero.co.uk/MDRSdtmM/CDISC/V3#M-CDISC_SDTMMODEL_C_QUALIFIER_SC_RECORDQUALIFIER> . 
<http://www.assero.co.uk/MDRSdtmUD/ACME/V1#D-ACME_DMDomain_V5> 			<http://www.assero.co.uk/BusinessDomain#name> 			"RFSTDTC" . 
<http://www.assero.co.uk/MDRSdtmUD/ACME/V1#D-ACME_DMDomain_V5> 			<http://www.assero.co.uk/BusinessDomain#notes> 			"" . 
<http://www.assero.co.uk/MDRSdtmUD/ACME/V1#D-ACME_DMDomain_V5> 			<http://www.assero.co.uk/BusinessDomain#format> 			"ISO 8601" . 
<http://www.assero.co.uk/MDRSdtmUD/ACME/V1#D-ACME_DMDomain_V5> 			<http://www.assero.co.uk/BusinessDomain#non_standard> 			"false" . 
<http://www.assero.co.uk/MDRSdtmUD/ACME/V1#D-ACME_DMDomain_V5> 			<http://www.assero.co.uk/BusinessDomain#comment> 			"" . 
<http://www.assero.co.uk/MDRSdtmUD/ACME/V1#D-ACME_DMDomain_V5> 			<http://www.assero.co.uk/BusinessDomain#rule> 			"" . 
<http://www.assero.co.uk/MDRSdtmUD/ACME/V1#D-ACME_DMDomain_V5> 			<http://www.assero.co.uk/BusinessDomain#typedAs> 			<http://www.assero.co.uk/MDRSdtmM/CDISC/V3#M-CDISC_SDTMMODEL_DT_CHAR> . 
<http://www.assero.co.uk/MDRSdtmUD/ACME/V1#D-ACME_DMDomain_V5> 			<http://www.assero.co.uk/BusinessDomain#basedOnVariable> 			<http://www.assero.co.uk/MDRSdtmUD/ACME/V1#D-ACME_DMDomain_V5_IGV1> . 
<http://www.assero.co.uk/MDRSdtmUD/ACME/V1#D-ACME_DMDomain_V5> 			<http://www.assero.co.uk/BusinessDomain#used> 			"true" . 
<http://www.assero.co.uk/MDRSdtmUD/ACME/V1#D-ACME_DMDomain_V5> 			<http://www.assero.co.uk/BusinessDomain#length> 			"0" . 
<http://www.assero.co.uk/MDRSdtmUD/ACME/V1#D-ACME_DMDomain_V5> 			<http://www.assero.co.uk/BusinessDomain#ct> 			"" . 
<http://www.assero.co.uk/MDRSdtmUD/ACME/V1#D-ACME_DMDomain_V5> 			<http://www.assero.co.uk/BusinessDomain#key_ordinal> 			"0" . 
<http://www.assero.co.uk/MDRSdtmUD/ACME/V1#D-ACME_DMDomain_V5> 			<http://www.assero.co.uk/BusinessDomain#compliance> 			<http://www.assero.co.uk/MDRSdtmIg/CDISC/V3#IG-CDISC_SDTMIG_C_EXPECTED> . 
<http://www.assero.co.uk/MDRSdtmUD/ACME/V1#D-ACME_DMDomain_V5_IGV1> 			<http://www.w3.org/2000/01/rdf-schema#label> 			"Based on Variable Reference" . 
<http://www.assero.co.uk/MDRSdtmUD/ACME/V1#D-ACME_DMDomain_V5_IGV1> 			<http://www.w3.org/1999/02/22-rdf-syntax-ns#type> 			<http://www.assero.co.uk/BusinessOperational#CReference> . 
<http://www.assero.co.uk/MDRSdtmUD/ACME/V1#D-ACME_DMDomain_V5_IGV1> 			<http://www.assero.co.uk/BusinessOperational#optional> 			"false" . 
<http://www.assero.co.uk/MDRSdtmUD/ACME/V1#D-ACME_DMDomain_V5_IGV1> 			<http://www.assero.co.uk/BusinessOperational#local_label> 			"" . 
<http://www.assero.co.uk/MDRSdtmUD/ACME/V1#D-ACME_DMDomain_V5_IGV1> 			<http://www.assero.co.uk/BusinessOperational#enabled> 			"true" . 
<http://www.assero.co.uk/MDRSdtmUD/ACME/V1#D-ACME_DMDomain_V5_IGV1> 			<http://www.assero.co.uk/BusinessOperational#ordinal> 			"1" . 
<http://www.assero.co.uk/MDRSdtmUD/ACME/V1#D-ACME_DMDomain_V5_IGV1> 			<http://www.assero.co.uk/BusinessOperational#hasColumn> 			<http://www.assero.co.uk/MDRSdtmIgD/CDISC/V3#IG-CDISC_SDTMIGDM_RFSTDTC> . 
<http://www.assero.co.uk/MDRSdtmUD/ACME/V1#D-ACME_DMDomain_V13> 			<http://www.w3.org/2000/01/rdf-schema#label> 			"Study Site Identifier" . 
<http://www.assero.co.uk/MDRSdtmUD/ACME/V1#D-ACME_DMDomain_V13> 			<http://www.w3.org/1999/02/22-rdf-syntax-ns#type> 			<http://www.assero.co.uk/BusinessDomain#UserVariable> . 
<http://www.assero.co.uk/MDRSdtmUD/ACME/V1#D-ACME_DMDomain_V13> 			<http://www.assero.co.uk/BusinessDomain#ordinal> 			"13" . 
<http://www.assero.co.uk/MDRSdtmUD/ACME/V1#D-ACME_DMDomain_V13> 			<http://www.assero.co.uk/BusinessDomain#classifiedAs> 			<http://www.assero.co.uk/MDRSdtmM/CDISC/V3#M-CDISC_SDTMMODEL_C_QUALIFIER_SC_RECORDQUALIFIER> . 
<http://www.assero.co.uk/MDRSdtmUD/ACME/V1#D-ACME_DMDomain_V13> 			<http://www.assero.co.uk/BusinessDomain#name> 			"SITEID" . 
<http://www.assero.co.uk/MDRSdtmUD/ACME/V1#D-ACME_DMDomain_V13> 			<http://www.assero.co.uk/BusinessDomain#notes> 			"" . 
<http://www.assero.co.uk/MDRSdtmUD/ACME/V1#D-ACME_DMDomain_V13> 			<http://www.assero.co.uk/BusinessDomain#format> 			"" . 
<http://www.assero.co.uk/MDRSdtmUD/ACME/V1#D-ACME_DMDomain_V13> 			<http://www.assero.co.uk/BusinessDomain#non_standard> 			"false" . 
<http://www.assero.co.uk/MDRSdtmUD/ACME/V1#D-ACME_DMDomain_V13> 			<http://www.assero.co.uk/BusinessDomain#comment> 			"" . 
<http://www.assero.co.uk/MDRSdtmUD/ACME/V1#D-ACME_DMDomain_V13> 			<http://www.assero.co.uk/BusinessDomain#rule> 			"" . 
<http://www.assero.co.uk/MDRSdtmUD/ACME/V1#D-ACME_DMDomain_V13> 			<http://www.assero.co.uk/BusinessDomain#typedAs> 			<http://www.assero.co.uk/MDRSdtmM/CDISC/V3#M-CDISC_SDTMMODEL_DT_CHAR> . 
<http://www.assero.co.uk/MDRSdtmUD/ACME/V1#D-ACME_DMDomain_V13> 			<http://www.assero.co.uk/BusinessDomain#basedOnVariable> 			<http://www.assero.co.uk/MDRSdtmUD/ACME/V1#D-ACME_DMDomain_V13_IGV1> . 
<http://www.assero.co.uk/MDRSdtmUD/ACME/V1#D-ACME_DMDomain_V13> 			<http://www.assero.co.uk/BusinessDomain#used> 			"true" . 
<http://www.assero.co.uk/MDRSdtmUD/ACME/V1#D-ACME_DMDomain_V13> 			<http://www.assero.co.uk/BusinessDomain#length> 			"0" . 
<http://www.assero.co.uk/MDRSdtmUD/ACME/V1#D-ACME_DMDomain_V13> 			<http://www.assero.co.uk/BusinessDomain#ct> 			"" . 
<http://www.assero.co.uk/MDRSdtmUD/ACME/V1#D-ACME_DMDomain_V13> 			<http://www.assero.co.uk/BusinessDomain#key_ordinal> 			"0" . 
<http://www.assero.co.uk/MDRSdtmUD/ACME/V1#D-ACME_DMDomain_V13> 			<http://www.assero.co.uk/BusinessDomain#compliance> 			<http://www.assero.co.uk/MDRSdtmIg/CDISC/V3#IG-CDISC_SDTMIG_C_REQUIRED> . 
<http://www.assero.co.uk/MDRSdtmUD/ACME/V1#D-ACME_DMDomain_V13_IGV1> 			<http://www.w3.org/2000/01/rdf-schema#label> 			"Based on Variable Reference" . 
<http://www.assero.co.uk/MDRSdtmUD/ACME/V1#D-ACME_DMDomain_V13_IGV1> 			<http://www.w3.org/1999/02/22-rdf-syntax-ns#type> 			<http://www.assero.co.uk/BusinessOperational#CReference> . 
<http://www.assero.co.uk/MDRSdtmUD/ACME/V1#D-ACME_DMDomain_V13_IGV1> 			<http://www.assero.co.uk/BusinessOperational#optional> 			"false" . 
<http://www.assero.co.uk/MDRSdtmUD/ACME/V1#D-ACME_DMDomain_V13_IGV1> 			<http://www.assero.co.uk/BusinessOperational#local_label> 			"" . 
<http://www.assero.co.uk/MDRSdtmUD/ACME/V1#D-ACME_DMDomain_V13_IGV1> 			<http://www.assero.co.uk/BusinessOperational#enabled> 			"true" . 
<http://www.assero.co.uk/MDRSdtmUD/ACME/V1#D-ACME_DMDomain_V13_IGV1> 			<http://www.assero.co.uk/BusinessOperational#ordinal> 			"1" . 
<http://www.assero.co.uk/MDRSdtmUD/ACME/V1#D-ACME_DMDomain_V13_IGV1> 			<http://www.assero.co.uk/BusinessOperational#hasColumn> 			<http://www.assero.co.uk/MDRSdtmIgD/CDISC/V3#IG-CDISC_SDTMIGDM_SITEID> . 
<http://www.assero.co.uk/MDRSdtmUD/ACME/V1#D-ACME_DMDomain_V26> 			<http://www.w3.org/2000/01/rdf-schema#label> 			"Country" . 
<http://www.assero.co.uk/MDRSdtmUD/ACME/V1#D-ACME_DMDomain_V26> 			<http://www.w3.org/1999/02/22-rdf-syntax-ns#type> 			<http://www.assero.co.uk/BusinessDomain#UserVariable> . 
<http://www.assero.co.uk/MDRSdtmUD/ACME/V1#D-ACME_DMDomain_V26> 			<http://www.assero.co.uk/BusinessDomain#ordinal> 			"26" . 
<http://www.assero.co.uk/MDRSdtmUD/ACME/V1#D-ACME_DMDomain_V26> 			<http://www.assero.co.uk/BusinessDomain#classifiedAs> 			<http://www.assero.co.uk/MDRSdtmM/CDISC/V3#M-CDISC_SDTMMODEL_C_QUALIFIER_SC_RECORDQUALIFIER> . 
<http://www.assero.co.uk/MDRSdtmUD/ACME/V1#D-ACME_DMDomain_V26> 			<http://www.assero.co.uk/BusinessDomain#name> 			"COUNTRY" . 
<http://www.assero.co.uk/MDRSdtmUD/ACME/V1#D-ACME_DMDomain_V26> 			<http://www.assero.co.uk/BusinessDomain#notes> 			"" . 
<http://www.assero.co.uk/MDRSdtmUD/ACME/V1#D-ACME_DMDomain_V26> 			<http://www.assero.co.uk/BusinessDomain#format> 			"" . 
<http://www.assero.co.uk/MDRSdtmUD/ACME/V1#D-ACME_DMDomain_V26> 			<http://www.assero.co.uk/BusinessDomain#non_standard> 			"false" . 
<http://www.assero.co.uk/MDRSdtmUD/ACME/V1#D-ACME_DMDomain_V26> 			<http://www.assero.co.uk/BusinessDomain#comment> 			"" . 
<http://www.assero.co.uk/MDRSdtmUD/ACME/V1#D-ACME_DMDomain_V26> 			<http://www.assero.co.uk/BusinessDomain#rule> 			"" . 
<http://www.assero.co.uk/MDRSdtmUD/ACME/V1#D-ACME_DMDomain_V26> 			<http://www.assero.co.uk/BusinessDomain#typedAs> 			<http://www.assero.co.uk/MDRSdtmM/CDISC/V3#M-CDISC_SDTMMODEL_DT_CHAR> . 
<http://www.assero.co.uk/MDRSdtmUD/ACME/V1#D-ACME_DMDomain_V26> 			<http://www.assero.co.uk/BusinessDomain#basedOnVariable> 			<http://www.assero.co.uk/MDRSdtmUD/ACME/V1#D-ACME_DMDomain_V26_IGV1> . 
<http://www.assero.co.uk/MDRSdtmUD/ACME/V1#D-ACME_DMDomain_V26> 			<http://www.assero.co.uk/BusinessDomain#used> 			"true" . 
<http://www.assero.co.uk/MDRSdtmUD/ACME/V1#D-ACME_DMDomain_V26> 			<http://www.assero.co.uk/BusinessDomain#length> 			"0" . 
<http://www.assero.co.uk/MDRSdtmUD/ACME/V1#D-ACME_DMDomain_V26> 			<http://www.assero.co.uk/BusinessDomain#ct> 			"COUNTRY" . 
<http://www.assero.co.uk/MDRSdtmUD/ACME/V1#D-ACME_DMDomain_V26> 			<http://www.assero.co.uk/BusinessDomain#key_ordinal> 			"0" . 
<http://www.assero.co.uk/MDRSdtmUD/ACME/V1#D-ACME_DMDomain_V26> 			<http://www.assero.co.uk/BusinessDomain#compliance> 			<http://www.assero.co.uk/MDRSdtmIg/CDISC/V3#IG-CDISC_SDTMIG_C_REQUIRED> . 
<http://www.assero.co.uk/MDRSdtmUD/ACME/V1#D-ACME_DMDomain_V26_IGV1> 			<http://www.w3.org/2000/01/rdf-schema#label> 			"Based on Variable Reference" . 
<http://www.assero.co.uk/MDRSdtmUD/ACME/V1#D-ACME_DMDomain_V26_IGV1> 			<http://www.w3.org/1999/02/22-rdf-syntax-ns#type> 			<http://www.assero.co.uk/BusinessOperational#CReference> . 
<http://www.assero.co.uk/MDRSdtmUD/ACME/V1#D-ACME_DMDomain_V26_IGV1> 			<http://www.assero.co.uk/BusinessOperational#optional> 			"false" . 
<http://www.assero.co.uk/MDRSdtmUD/ACME/V1#D-ACME_DMDomain_V26_IGV1> 			<http://www.assero.co.uk/BusinessOperational#local_label> 			"" . 
<http://www.assero.co.uk/MDRSdtmUD/ACME/V1#D-ACME_DMDomain_V26_IGV1> 			<http://www.assero.co.uk/BusinessOperational#enabled> 			"true" . 
<http://www.assero.co.uk/MDRSdtmUD/ACME/V1#D-ACME_DMDomain_V26_IGV1> 			<http://www.assero.co.uk/BusinessOperational#ordinal> 			"1" . 
<http://www.assero.co.uk/MDRSdtmUD/ACME/V1#D-ACME_DMDomain_V26_IGV1> 			<http://www.assero.co.uk/BusinessOperational#hasColumn> 			<http://www.assero.co.uk/MDRSdtmIgD/CDISC/V3#IG-CDISC_SDTMIGDM_COUNTRY> . 
<http://www.assero.co.uk/MDRSdtmUD/ACME/V1#D-ACME_DMDomain_V15> 			<http://www.w3.org/2000/01/rdf-schema#label> 			"Investigator Name" . 
<http://www.assero.co.uk/MDRSdtmUD/ACME/V1#D-ACME_DMDomain_V15> 			<http://www.w3.org/1999/02/22-rdf-syntax-ns#type> 			<http://www.assero.co.uk/BusinessDomain#UserVariable> . 
<http://www.assero.co.uk/MDRSdtmUD/ACME/V1#D-ACME_DMDomain_V15> 			<http://www.assero.co.uk/BusinessDomain#ordinal> 			"15" . 
<http://www.assero.co.uk/MDRSdtmUD/ACME/V1#D-ACME_DMDomain_V15> 			<http://www.assero.co.uk/BusinessDomain#classifiedAs> 			<http://www.assero.co.uk/MDRSdtmM/CDISC/V3#M-CDISC_SDTMMODEL_C_QUALIFIER_SC_RECORDQUALIFIER> . 
<http://www.assero.co.uk/MDRSdtmUD/ACME/V1#D-ACME_DMDomain_V15> 			<http://www.assero.co.uk/BusinessDomain#name> 			"INVNAM" . 
<http://www.assero.co.uk/MDRSdtmUD/ACME/V1#D-ACME_DMDomain_V15> 			<http://www.assero.co.uk/BusinessDomain#notes> 			"" . 
<http://www.assero.co.uk/MDRSdtmUD/ACME/V1#D-ACME_DMDomain_V15> 			<http://www.assero.co.uk/BusinessDomain#format> 			"" . 
<http://www.assero.co.uk/MDRSdtmUD/ACME/V1#D-ACME_DMDomain_V15> 			<http://www.assero.co.uk/BusinessDomain#non_standard> 			"false" . 
<http://www.assero.co.uk/MDRSdtmUD/ACME/V1#D-ACME_DMDomain_V15> 			<http://www.assero.co.uk/BusinessDomain#comment> 			"" . 
<http://www.assero.co.uk/MDRSdtmUD/ACME/V1#D-ACME_DMDomain_V15> 			<http://www.assero.co.uk/BusinessDomain#rule> 			"" . 
<http://www.assero.co.uk/MDRSdtmUD/ACME/V1#D-ACME_DMDomain_V15> 			<http://www.assero.co.uk/BusinessDomain#typedAs> 			<http://www.assero.co.uk/MDRSdtmM/CDISC/V3#M-CDISC_SDTMMODEL_DT_CHAR> . 
<http://www.assero.co.uk/MDRSdtmUD/ACME/V1#D-ACME_DMDomain_V15> 			<http://www.assero.co.uk/BusinessDomain#basedOnVariable> 			<http://www.assero.co.uk/MDRSdtmUD/ACME/V1#D-ACME_DMDomain_V15_IGV1> . 
<http://www.assero.co.uk/MDRSdtmUD/ACME/V1#D-ACME_DMDomain_V15> 			<http://www.assero.co.uk/BusinessDomain#used> 			"true" . 
<http://www.assero.co.uk/MDRSdtmUD/ACME/V1#D-ACME_DMDomain_V15> 			<http://www.assero.co.uk/BusinessDomain#length> 			"0" . 
<http://www.assero.co.uk/MDRSdtmUD/ACME/V1#D-ACME_DMDomain_V15> 			<http://www.assero.co.uk/BusinessDomain#ct> 			"" . 
<http://www.assero.co.uk/MDRSdtmUD/ACME/V1#D-ACME_DMDomain_V15> 			<http://www.assero.co.uk/BusinessDomain#key_ordinal> 			"0" . 
<http://www.assero.co.uk/MDRSdtmUD/ACME/V1#D-ACME_DMDomain_V15> 			<http://www.assero.co.uk/BusinessDomain#compliance> 			<http://www.assero.co.uk/MDRSdtmIg/CDISC/V3#IG-CDISC_SDTMIG_C_PERMISSIBLE> . 
<http://www.assero.co.uk/MDRSdtmUD/ACME/V1#D-ACME_DMDomain_V15_IGV1> 			<http://www.w3.org/2000/01/rdf-schema#label> 			"Based on Variable Reference" . 
<http://www.assero.co.uk/MDRSdtmUD/ACME/V1#D-ACME_DMDomain_V15_IGV1> 			<http://www.w3.org/1999/02/22-rdf-syntax-ns#type> 			<http://www.assero.co.uk/BusinessOperational#CReference> . 
<http://www.assero.co.uk/MDRSdtmUD/ACME/V1#D-ACME_DMDomain_V15_IGV1> 			<http://www.assero.co.uk/BusinessOperational#optional> 			"false" . 
<http://www.assero.co.uk/MDRSdtmUD/ACME/V1#D-ACME_DMDomain_V15_IGV1> 			<http://www.assero.co.uk/BusinessOperational#local_label> 			"" . 
<http://www.assero.co.uk/MDRSdtmUD/ACME/V1#D-ACME_DMDomain_V15_IGV1> 			<http://www.assero.co.uk/BusinessOperational#enabled> 			"true" . 
<http://www.assero.co.uk/MDRSdtmUD/ACME/V1#D-ACME_DMDomain_V15_IGV1> 			<http://www.assero.co.uk/BusinessOperational#ordinal> 			"1" . 
<http://www.assero.co.uk/MDRSdtmUD/ACME/V1#D-ACME_DMDomain_V15_IGV1> 			<http://www.assero.co.uk/BusinessOperational#hasColumn> 			<http://www.assero.co.uk/MDRSdtmIgD/CDISC/V3#IG-CDISC_SDTMIGDM_INVNAM> . 
<http://www.assero.co.uk/MDRSdtmUD/ACME/V1#D-ACME_DMDomain_V14> 			<http://www.w3.org/2000/01/rdf-schema#label> 			"Investigator Identifier" . 
<http://www.assero.co.uk/MDRSdtmUD/ACME/V1#D-ACME_DMDomain_V14> 			<http://www.w3.org/1999/02/22-rdf-syntax-ns#type> 			<http://www.assero.co.uk/BusinessDomain#UserVariable> . 
<http://www.assero.co.uk/MDRSdtmUD/ACME/V1#D-ACME_DMDomain_V14> 			<http://www.assero.co.uk/BusinessDomain#ordinal> 			"14" . 
<http://www.assero.co.uk/MDRSdtmUD/ACME/V1#D-ACME_DMDomain_V14> 			<http://www.assero.co.uk/BusinessDomain#classifiedAs> 			<http://www.assero.co.uk/MDRSdtmM/CDISC/V3#M-CDISC_SDTMMODEL_C_QUALIFIER_SC_RECORDQUALIFIER> . 
<http://www.assero.co.uk/MDRSdtmUD/ACME/V1#D-ACME_DMDomain_V14> 			<http://www.assero.co.uk/BusinessDomain#name> 			"INVID" . 
<http://www.assero.co.uk/MDRSdtmUD/ACME/V1#D-ACME_DMDomain_V14> 			<http://www.assero.co.uk/BusinessDomain#notes> 			"" . 
<http://www.assero.co.uk/MDRSdtmUD/ACME/V1#D-ACME_DMDomain_V14> 			<http://www.assero.co.uk/BusinessDomain#format> 			"" . 
<http://www.assero.co.uk/MDRSdtmUD/ACME/V1#D-ACME_DMDomain_V14> 			<http://www.assero.co.uk/BusinessDomain#non_standard> 			"false" . 
<http://www.assero.co.uk/MDRSdtmUD/ACME/V1#D-ACME_DMDomain_V14> 			<http://www.assero.co.uk/BusinessDomain#comment> 			"" . 
<http://www.assero.co.uk/MDRSdtmUD/ACME/V1#D-ACME_DMDomain_V14> 			<http://www.assero.co.uk/BusinessDomain#rule> 			"" . 
<http://www.assero.co.uk/MDRSdtmUD/ACME/V1#D-ACME_DMDomain_V14> 			<http://www.assero.co.uk/BusinessDomain#typedAs> 			<http://www.assero.co.uk/MDRSdtmM/CDISC/V3#M-CDISC_SDTMMODEL_DT_CHAR> . 
<http://www.assero.co.uk/MDRSdtmUD/ACME/V1#D-ACME_DMDomain_V14> 			<http://www.assero.co.uk/BusinessDomain#basedOnVariable> 			<http://www.assero.co.uk/MDRSdtmUD/ACME/V1#D-ACME_DMDomain_V14_IGV1> . 
<http://www.assero.co.uk/MDRSdtmUD/ACME/V1#D-ACME_DMDomain_V14> 			<http://www.assero.co.uk/BusinessDomain#used> 			"true" . 
<http://www.assero.co.uk/MDRSdtmUD/ACME/V1#D-ACME_DMDomain_V14> 			<http://www.assero.co.uk/BusinessDomain#length> 			"0" . 
<http://www.assero.co.uk/MDRSdtmUD/ACME/V1#D-ACME_DMDomain_V14> 			<http://www.assero.co.uk/BusinessDomain#ct> 			"" . 
<http://www.assero.co.uk/MDRSdtmUD/ACME/V1#D-ACME_DMDomain_V14> 			<http://www.assero.co.uk/BusinessDomain#key_ordinal> 			"0" . 
<http://www.assero.co.uk/MDRSdtmUD/ACME/V1#D-ACME_DMDomain_V14> 			<http://www.assero.co.uk/BusinessDomain#compliance> 			<http://www.assero.co.uk/MDRSdtmIg/CDISC/V3#IG-CDISC_SDTMIG_C_PERMISSIBLE> . 
<http://www.assero.co.uk/MDRSdtmUD/ACME/V1#D-ACME_DMDomain_V14_IGV1> 			<http://www.w3.org/2000/01/rdf-schema#label> 			"Based on Variable Reference" . 
<http://www.assero.co.uk/MDRSdtmUD/ACME/V1#D-ACME_DMDomain_V14_IGV1> 			<http://www.w3.org/1999/02/22-rdf-syntax-ns#type> 			<http://www.assero.co.uk/BusinessOperational#CReference> . 
<http://www.assero.co.uk/MDRSdtmUD/ACME/V1#D-ACME_DMDomain_V14_IGV1> 			<http://www.assero.co.uk/BusinessOperational#optional> 			"false" . 
<http://www.assero.co.uk/MDRSdtmUD/ACME/V1#D-ACME_DMDomain_V14_IGV1> 			<http://www.assero.co.uk/BusinessOperational#local_label> 			"" . 
<http://www.assero.co.uk/MDRSdtmUD/ACME/V1#D-ACME_DMDomain_V14_IGV1> 			<http://www.assero.co.uk/BusinessOperational#enabled> 			"true" . 
<http://www.assero.co.uk/MDRSdtmUD/ACME/V1#D-ACME_DMDomain_V14_IGV1> 			<http://www.assero.co.uk/BusinessOperational#ordinal> 			"1" . 
<http://www.assero.co.uk/MDRSdtmUD/ACME/V1#D-ACME_DMDomain_V14_IGV1> 			<http://www.assero.co.uk/BusinessOperational#hasColumn> 			<http://www.assero.co.uk/MDRSdtmIgD/CDISC/V3#IG-CDISC_SDTMIGDM_INVID> . 
<http://www.assero.co.uk/MDRSdtmUD/ACME/V1#D-ACME_DMDomain_V28> 			<http://www.w3.org/2000/01/rdf-schema#label> 			"Study Day of Collection" . 
<http://www.assero.co.uk/MDRSdtmUD/ACME/V1#D-ACME_DMDomain_V28> 			<http://www.w3.org/1999/02/22-rdf-syntax-ns#type> 			<http://www.assero.co.uk/BusinessDomain#UserVariable> . 
<http://www.assero.co.uk/MDRSdtmUD/ACME/V1#D-ACME_DMDomain_V28> 			<http://www.assero.co.uk/BusinessDomain#ordinal> 			"28" . 
<http://www.assero.co.uk/MDRSdtmUD/ACME/V1#D-ACME_DMDomain_V28> 			<http://www.assero.co.uk/BusinessDomain#classifiedAs> 			<http://www.assero.co.uk/MDRSdtmM/CDISC/V3#M-CDISC_SDTMMODEL_C_TIMING> . 
<http://www.assero.co.uk/MDRSdtmUD/ACME/V1#D-ACME_DMDomain_V28> 			<http://www.assero.co.uk/BusinessDomain#name> 			"DMDY" . 
<http://www.assero.co.uk/MDRSdtmUD/ACME/V1#D-ACME_DMDomain_V28> 			<http://www.assero.co.uk/BusinessDomain#notes> 			"" . 
<http://www.assero.co.uk/MDRSdtmUD/ACME/V1#D-ACME_DMDomain_V28> 			<http://www.assero.co.uk/BusinessDomain#format> 			"" . 
<http://www.assero.co.uk/MDRSdtmUD/ACME/V1#D-ACME_DMDomain_V28> 			<http://www.assero.co.uk/BusinessDomain#non_standard> 			"false" . 
<http://www.assero.co.uk/MDRSdtmUD/ACME/V1#D-ACME_DMDomain_V28> 			<http://www.assero.co.uk/BusinessDomain#comment> 			"" . 
<http://www.assero.co.uk/MDRSdtmUD/ACME/V1#D-ACME_DMDomain_V28> 			<http://www.assero.co.uk/BusinessDomain#rule> 			"" . 
<http://www.assero.co.uk/MDRSdtmUD/ACME/V1#D-ACME_DMDomain_V28> 			<http://www.assero.co.uk/BusinessDomain#typedAs> 			<http://www.assero.co.uk/MDRSdtmM/CDISC/V3#M-CDISC_SDTMMODEL_DT_NUM> . 
<http://www.assero.co.uk/MDRSdtmUD/ACME/V1#D-ACME_DMDomain_V28> 			<http://www.assero.co.uk/BusinessDomain#basedOnVariable> 			<http://www.assero.co.uk/MDRSdtmUD/ACME/V1#D-ACME_DMDomain_V28_IGV1> . 
<http://www.assero.co.uk/MDRSdtmUD/ACME/V1#D-ACME_DMDomain_V28> 			<http://www.assero.co.uk/BusinessDomain#used> 			"true" . 
<http://www.assero.co.uk/MDRSdtmUD/ACME/V1#D-ACME_DMDomain_V28> 			<http://www.assero.co.uk/BusinessDomain#length> 			"0" . 
<http://www.assero.co.uk/MDRSdtmUD/ACME/V1#D-ACME_DMDomain_V28> 			<http://www.assero.co.uk/BusinessDomain#ct> 			"" . 
<http://www.assero.co.uk/MDRSdtmUD/ACME/V1#D-ACME_DMDomain_V28> 			<http://www.assero.co.uk/BusinessDomain#key_ordinal> 			"0" . 
<http://www.assero.co.uk/MDRSdtmUD/ACME/V1#D-ACME_DMDomain_V28> 			<http://www.assero.co.uk/BusinessDomain#compliance> 			<http://www.assero.co.uk/MDRSdtmIg/CDISC/V3#IG-CDISC_SDTMIG_C_PERMISSIBLE> . 
<http://www.assero.co.uk/MDRSdtmUD/ACME/V1#D-ACME_DMDomain_V28_IGV1> 			<http://www.w3.org/2000/01/rdf-schema#label> 			"Based on Variable Reference" . 
<http://www.assero.co.uk/MDRSdtmUD/ACME/V1#D-ACME_DMDomain_V28_IGV1> 			<http://www.w3.org/1999/02/22-rdf-syntax-ns#type> 			<http://www.assero.co.uk/BusinessOperational#CReference> . 
<http://www.assero.co.uk/MDRSdtmUD/ACME/V1#D-ACME_DMDomain_V28_IGV1> 			<http://www.assero.co.uk/BusinessOperational#optional> 			"false" . 
<http://www.assero.co.uk/MDRSdtmUD/ACME/V1#D-ACME_DMDomain_V28_IGV1> 			<http://www.assero.co.uk/BusinessOperational#local_label> 			"" . 
<http://www.assero.co.uk/MDRSdtmUD/ACME/V1#D-ACME_DMDomain_V28_IGV1> 			<http://www.assero.co.uk/BusinessOperational#enabled> 			"true" . 
<http://www.assero.co.uk/MDRSdtmUD/ACME/V1#D-ACME_DMDomain_V28_IGV1> 			<http://www.assero.co.uk/BusinessOperational#ordinal> 			"1" . 
<http://www.assero.co.uk/MDRSdtmUD/ACME/V1#D-ACME_DMDomain_V28_IGV1> 			<http://www.assero.co.uk/BusinessOperational#hasColumn> 			<http://www.assero.co.uk/MDRSdtmIgD/CDISC/V3#IG-CDISC_SDTMIGDM_DMDY> . 
<http://www.assero.co.uk/MDRSdtmUD/ACME/V1#D-ACME_DMDomain_IGD1> 			<http://www.w3.org/2000/01/rdf-schema#label> 			"Based on Domain Reference" . 
<http://www.assero.co.uk/MDRSdtmUD/ACME/V1#D-ACME_DMDomain_IGD1> 			<http://www.w3.org/1999/02/22-rdf-syntax-ns#type> 			<http://www.assero.co.uk/BusinessOperational#TReference> . 
<http://www.assero.co.uk/MDRSdtmUD/ACME/V1#D-ACME_DMDomain_IGD1> 			<http://www.assero.co.uk/BusinessOperational#hasTabulation> 			<http://www.assero.co.uk/MDRSdtmIgD/CDISC/V3#IG-CDISC_SDTMIGDM> . 
<http://www.assero.co.uk/MDRSdtmUD/ACME/V1#D-ACME_DMDomain_IGD1> 			<http://www.assero.co.uk/BusinessOperational#optional> 			"false" . 
<http://www.assero.co.uk/MDRSdtmUD/ACME/V1#D-ACME_DMDomain_IGD1> 			<http://www.assero.co.uk/BusinessOperational#local_label> 			"" . 
<http://www.assero.co.uk/MDRSdtmUD/ACME/V1#D-ACME_DMDomain_IGD1> 			<http://www.assero.co.uk/BusinessOperational#enabled> 			"true" . 
<http://www.assero.co.uk/MDRSdtmUD/ACME/V1#D-ACME_DMDomain_IGD1> 			<http://www.assero.co.uk/BusinessOperational#ordinal> 			"1" . 
<http://www.assero.co.uk/MDRSdtmUD/ACME/V1#D-ACME_DMDomain_MD1> 			<http://www.w3.org/2000/01/rdf-schema#label> 			"Based on Domain Reference" . 
<http://www.assero.co.uk/MDRSdtmUD/ACME/V1#D-ACME_DMDomain_MD1> 			<http://www.w3.org/1999/02/22-rdf-syntax-ns#type> 			<http://www.assero.co.uk/BusinessOperational#TReference> . 
<http://www.assero.co.uk/MDRSdtmUD/ACME/V1#D-ACME_DMDomain_MD1> 			<http://www.assero.co.uk/BusinessOperational#hasTabulation> 			<http://www.assero.co.uk/MDRSdtmMd/CDISC/V3#M-CDISC_SDTMMODELSPECIALPURPOSE> . 
<http://www.assero.co.uk/MDRSdtmUD/ACME/V1#D-ACME_DMDomain_MD1> 			<http://www.assero.co.uk/BusinessOperational#optional> 			"false" . 
<http://www.assero.co.uk/MDRSdtmUD/ACME/V1#D-ACME_DMDomain_MD1> 			<http://www.assero.co.uk/BusinessOperational#local_label> 			"" . 
<http://www.assero.co.uk/MDRSdtmUD/ACME/V1#D-ACME_DMDomain_MD1> 			<http://www.assero.co.uk/BusinessOperational#enabled> 			"true" . 
<http://www.assero.co.uk/MDRSdtmUD/ACME/V1#D-ACME_DMDomain_MD1> 			<http://www.assero.co.uk/BusinessOperational#ordinal> 			"1" . 
<http://www.assero.co.uk/MDRItems#SI-ACME_DMDomain-1> 			<http://www.w3.org/1999/02/22-rdf-syntax-ns#type> 			<http://www.assero.co.uk/ISO11179Identification#ScopedIdentifier> . 
<http://www.assero.co.uk/MDRItems#SI-ACME_DMDomain-1> 			<http://www.assero.co.uk/ISO11179Identification#hasScope> 			<http://www.assero.co.uk/NS#ACME> . 
<http://www.assero.co.uk/MDRItems#SI-ACME_DMDomain-1> 			<http://www.assero.co.uk/ISO11179Identification#semanticVersion> 			"0.1.0" . 
<http://www.assero.co.uk/MDRItems#SI-ACME_DMDomain-1> 			<http://www.assero.co.uk/ISO11179Identification#version> 			"1" . 
<http://www.assero.co.uk/MDRItems#SI-ACME_DMDomain-1> 			<http://www.assero.co.uk/ISO11179Identification#versionLabel> 			"" . 
<http://www.assero.co.uk/MDRItems#SI-ACME_DMDomain-1> 			<http://www.assero.co.uk/ISO11179Identification#identifier> 			"DM Domain" . 
<http://www.assero.co.uk/MDRItems#RS-ACME_DMDomain-1> 			<http://www.w3.org/1999/02/22-rdf-syntax-ns#type> 			<http://www.assero.co.uk/ISO11179Registration#RegistrationState> . 
<http://www.assero.co.uk/MDRItems#RS-ACME_DMDomain-1> 			<http://www.assero.co.uk/ISO11179Registration#registrationStatus> 			"Incomplete" . 
<http://www.assero.co.uk/MDRItems#RS-ACME_DMDomain-1> 			<http://www.assero.co.uk/ISO11179Registration#untilDate> 			"2016-01-01T00:00:00+00:00" . 
<http://www.assero.co.uk/MDRItems#RS-ACME_DMDomain-1> 			<http://www.assero.co.uk/ISO11179Registration#previousState> 			"Incomplete" . 
<http://www.assero.co.uk/MDRItems#RS-ACME_DMDomain-1> 			<http://www.assero.co.uk/ISO11179Registration#administrativeStatus> 			"" . 
<http://www.assero.co.uk/MDRItems#RS-ACME_DMDomain-1> 			<http://www.assero.co.uk/ISO11179Registration#administrativeNote> 			"" . 
<http://www.assero.co.uk/MDRItems#RS-ACME_DMDomain-1> 			<http://www.assero.co.uk/ISO11179Registration#unresolvedIssue> 			"" . 
<http://www.assero.co.uk/MDRItems#RS-ACME_DMDomain-1> 			<http://www.assero.co.uk/ISO11179Registration#effectiveDate> 			"2016-01-01T00:00:00+00:00" . 
<http://www.assero.co.uk/MDRItems#RS-ACME_DMDomain-1> 			<http://www.assero.co.uk/ISO11179Registration#byAuthority> 			<http://www.assero.co.uk/RA#DUNS123456789> . 
